[{"view_history":"[{\"page_index\":0,\"viewing_time\":22220}]","rt":22220,"trial_type":"instructions","trial_index":0,"time_elapsed":22223,"internal_node_id":"0.0-0.0"},{"sim_score":5,"rt":7466,"stimulus":"[\"img/866.jpg\",\"img/868.jpg\"]","trial_type":"similarity_demo","trial_index":1,"time_elapsed":30708,"internal_node_id":"0.0-1.0"},{"view_history":"[{\"page_index\":0,\"viewing_time\":8457}]","rt":8457,"trial_type":"instructions","trial_index":2,"time_elapsed":40168,"internal_node_id":"0.0-2.0"},{"sim_score":2,"rt":8250,"stimulus":"[\"img/766.jpg\",\"img/867.jpg\"]","trial_type":"similarity_demo","trial_index":3,"time_elapsed":49429,"internal_node_id":"0.0-3.0"},{"view_history":"[{\"page_index\":0,\"viewing_time\":5030}]","rt":5030,"trial_type":"instructions","trial_index":4,"time_elapsed":55478,"internal_node_id":"0.0-4.0"},{"view_history":"[{\"page_index\":0,\"viewing_time\":27866}]","rt":27866,"trial_type":"instructions","trial_index":5,"time_elapsed":84352,"internal_node_id":"0.0-5.0"},{"sim_score":3,"rt":5348,"stimulus":"[\"img/0868/4a8a45ed-2c4f-421b-9564-409a33ecd26c.jpg\",\"img/0901/1ede21d9-384f-4150-86b5-e1c57b5dc1d4.jpg\"]","trial_type":"similarity","trial_index":6,"time_elapsed":90714,"internal_node_id":"0.0-6.0-0.0"},{"sim_score":3,"rt":5904,"stimulus":"[\"img/0769/c7cfacc3-7f07-46ff-9f5d-8073f4c4679b.jpg\",\"img/0867/6e19c858-b606-45b2-a4c6-910a73f1d82c.jpg\"]","trial_type":"similarity","trial_index":7,"time_elapsed":97636,"internal_node_id":"0.0-6.0-1.0"},{"sim_score":2,"rt":5885,"stimulus":"[\"img/0766/f011ef45-fb48-44b8-8224-867ed2ccf786.jpg\",\"img/0898/a114b375-cb89-44ba-9498-74213f1ecdee.jpg\"]","trial_type":"similarity","trial_index":8,"time_elapsed":104550,"internal_node_id":"0.0-6.0-2.0"},{"sim_score":2,"rt":6104,"stimulus":"[\"img/0902/d5e25767-e8ec-45f3-ac0a-7b4a6f7a9edc.jpg\",\"img/0881/7e31e5dc-2240-4b1b-b5a0-3acd980099ef.jpg\"]","trial_type":"similarity","trial_index":9,"time_elapsed":111662,"internal_node_id":"0.0-6.0-3.0"},{"sim_score":3,"rt":9627,"stimulus":"[\"img/0894/1a010553-d598-4b06-a772-81f1e7b3addb.jpg\",\"img/0894/7f2f31fd-6618-41c6-b65a-0fd8b2851bc9.jpg\"]","trial_type":"similarity","trial_index":10,"time_elapsed":122304,"internal_node_id":"0.0-6.0-4.0"},{"sim_score":1,"rt":7976,"stimulus":"[\"img/0874/29830da7-be5f-44e5-b141-652a0ccf7269.jpg\",\"img/0899/06b0fc99-0581-461a-9913-d1a5a941ac61.jpg\"]","trial_type":"similarity","trial_index":11,"time_elapsed":131285,"internal_node_id":"0.0-6.0-5.0"},{"sim_score":3,"rt":6109,"stimulus":"[\"img/0904/9dd5708f-3f8b-46a9-b49f-2f2fab87b357.jpg\",\"img/0764/cbdc4f20-3a9a-4211-9b40-090699e0abcc.jpg\"]","trial_type":"similarity","trial_index":12,"time_elapsed":138414,"internal_node_id":"0.0-6.0-6.0"},{"sim_score":1,"rt":4315,"stimulus":"[\"img/0899/fef567a2-c121-4481-9af0-ff108d199bbf.jpg\",\"img/0898/a8f16b02-e19f-423b-86c3-a36562ae1f9b.jpg\"]","trial_type":"similarity","trial_index":13,"time_elapsed":143745,"internal_node_id":"0.0-6.0-7.0"},{"sim_score":2,"rt":7703,"stimulus":"[\"img/0874/2c9464dd-8a23-4baa-ac94-1ba3af5c15cc.jpg\",\"img/0903/72197c2b-403e-4a26-b391-f1aa8dea4b76.jpg\"]","trial_type":"similarity","trial_index":14,"time_elapsed":152467,"internal_node_id":"0.0-6.0-8.0"},{"sim_score":6,"rt":6702,"stimulus":"[\"img/0881/14236cf2-6b95-48b8-9368-78af09d2d27f.jpg\",\"img/0758/821c68d3-5cb0-4eae-8659-30e6263fca39.jpg\"]","trial_type":"similarity","trial_index":15,"time_elapsed":160192,"internal_node_id":"0.0-6.0-9.0"},{"sim_score":3,"rt":6037,"stimulus":"[\"img/0898/79233891-305a-4a6a-8ddf-5c8604858203.jpg\",\"img/0901/c6df1a21-44ed-47c2-960e-7c52220e329e.jpg\"]","trial_type":"similarity","trial_index":16,"time_elapsed":167248,"internal_node_id":"0.0-6.0-10.0"},{"sim_score":2,"rt":6815,"stimulus":"[\"img/0903/45e2d600-57ff-4d69-b22c-0c7896cd38f0.jpg\",\"img/0769/d1be2815-fa79-46e8-b5c3-7d81caaca490.jpg\"]","trial_type":"similarity","trial_index":17,"time_elapsed":175076,"internal_node_id":"0.0-6.0-11.0"},{"sim_score":2,"rt":10137,"stimulus":"[\"img/0764/b328441c-f81c-486c-9eae-b947c70ba7cd.jpg\",\"img/0868/77091fc7-a590-4ebb-b915-fdb2483a2399.jpg\"]","trial_type":"similarity","trial_index":18,"time_elapsed":186231,"internal_node_id":"0.0-6.0-12.0"},{"sim_score":2,"rt":11331,"stimulus":"[\"img/0867/8ba0c5a7-c7e4-42cf-a80a-543763b90779.jpg\",\"img/0903/36e4ab1f-caa9-40b3-8616-faada076df94.jpg\"]","trial_type":"similarity","trial_index":19,"time_elapsed":198572,"internal_node_id":"0.0-6.0-13.0"},{"sim_score":3,"rt":6776,"stimulus":"[\"img/0766/5d1b8041-c5a1-4b02-b4fe-3453d98a0d72.jpg\",\"img/0758/6e95579b-5166-487c-b8cb-e417c6a218e3.jpg\"]","trial_type":"similarity","trial_index":20,"time_elapsed":206365,"internal_node_id":"0.0-6.0-14.0"},{"sim_score":6,"rt":6576,"stimulus":"[\"img/0902/c920f0e1-1c81-480f-a164-c77f2dc6ce9a.jpg\",\"img/0860/4f695df5-afac-4da7-9875-fee39b0b24ad.jpg\"]","trial_type":"similarity","trial_index":21,"time_elapsed":213948,"internal_node_id":"0.0-6.0-15.0"},{"sim_score":3,"rt":6634,"stimulus":"[\"img/0769/35364db7-e0d5-40ef-93dc-faf9dfb95136.jpg\",\"img/0875/3ecb367d-e9eb-4826-8aaa-7aa72fb98019.jpg\"]","trial_type":"similarity","trial_index":22,"time_elapsed":221587,"internal_node_id":"0.0-6.0-16.0"},{"sim_score":2,"rt":5195,"stimulus":"[\"img/0904/4e58005d-a2ec-4aaa-b199-445343561396.jpg\",\"img/0866/620cd1aa-0800-4414-8f6e-90342e7a99ad.jpg\"]","trial_type":"similarity","trial_index":23,"time_elapsed":227799,"internal_node_id":"0.0-6.0-17.0"},{"sim_score":7,"rt":4956,"stimulus":"[\"img/0875/fb732ab5-013a-4366-9f65-27811ed157e9.jpg\",\"img/0875/03c3c331-738b-4446-af92-3d7386b08c2e.jpg\"]","trial_type":"similarity","trial_index":24,"time_elapsed":233767,"internal_node_id":"0.0-6.0-18.0"},{"sim_score":5,"rt":6622,"stimulus":"[\"img/0758/caa93da2-9edf-49fa-96b9-32dedd8f5078.jpg\",\"img/0758/3ddd05d3-557e-4ee7-8b78-9d2d681d8ae2.jpg\"]","trial_type":"similarity","trial_index":25,"time_elapsed":241408,"internal_node_id":"0.0-6.0-19.0"},{"sim_score":4,"rt":6901,"stimulus":"[\"img/0902/d3e55000-c839-4bf9-9b9b-4af0a9925af1.jpg\",\"img/0874/bf14b896-e930-4fd9-9c05-2e83317a2773.jpg\"]","trial_type":"similarity","trial_index":26,"time_elapsed":249329,"internal_node_id":"0.0-6.0-20.0"},{"sim_score":7,"rt":4917,"stimulus":"[\"img/0764/cffc80b0-4a90-4acb-a530-6f480f3ca303.jpg\",\"img/0769/965c3c44-d9e5-47c5-b61a-2bbdf4215d9a.jpg\"]","trial_type":"similarity","trial_index":27,"time_elapsed":255263,"internal_node_id":"0.0-6.0-21.0"},{"sim_score":3,"rt":5732,"stimulus":"[\"img/0901/693e0535-ef7e-4d60-af9d-fac2f38e8307.jpg\",\"img/0874/c0378dac-9370-439a-8b79-db27c96fb390.jpg\"]","trial_type":"similarity","trial_index":28,"time_elapsed":262005,"internal_node_id":"0.0-6.0-22.0"},{"sim_score":3,"rt":6100,"stimulus":"[\"img/0875/a4935837-7d3c-4df6-88c1-36a94d4991ca.jpg\",\"img/0903/680ed18e-b311-4ecf-9b00-7dea32128334.jpg\"]","trial_type":"similarity","trial_index":29,"time_elapsed":269131,"internal_node_id":"0.0-6.0-23.0"},{"sim_score":4,"rt":7184,"stimulus":"[\"img/0769/688d0c52-ad73-4065-a5eb-f8c10d076bff.jpg\",\"img/0881/f7a8cc63-8842-40a4-9ff8-fe530310d62c.jpg\"]","trial_type":"similarity","trial_index":30,"time_elapsed":277321,"internal_node_id":"0.0-6.0-24.0"},{"sim_score":5,"rt":4910,"stimulus":"[\"img/0867/179ab87a-8eac-4c52-a41f-2e48e3120f09.jpg\",\"img/0904/5cceabc9-de1d-4c67-989b-c28a4ef77e79.jpg\"]","trial_type":"similarity","trial_index":31,"time_elapsed":283245,"internal_node_id":"0.0-6.0-25.0"},{"sim_score":4,"rt":6810,"stimulus":"[\"img/0860/c3379ff7-0763-48fe-a1ec-7ea3d611bc7a.jpg\",\"img/0881/633c6f40-56d9-4b48-bf1c-ecd83116eabb.jpg\"]","trial_type":"similarity","trial_index":32,"time_elapsed":291068,"internal_node_id":"0.0-6.0-26.0"},{"sim_score":3,"rt":4874,"stimulus":"[\"img/0866/945c6710-d15b-4a5b-a8f6-69af0850357f.jpg\",\"img/0866/a04d37f0-99dd-478a-b6c6-58b215138f84.jpg\"]","trial_type":"similarity","trial_index":33,"time_elapsed":296965,"internal_node_id":"0.0-6.0-27.0"},{"sim_score":3,"rt":6684,"stimulus":"[\"img/0764/6fbd1902-fa2a-48d8-bc11-705b8ab68d8f.jpg\",\"img/0862/7918ca67-5bd3-4606-a5ea-c39fb11a9297.jpg\"]","trial_type":"similarity","trial_index":34,"time_elapsed":304667,"internal_node_id":"0.0-6.0-28.0"},{"sim_score":5,"rt":5632,"stimulus":"[\"img/0904/e9423a8c-f946-43ad-ab7b-931acef870e2.jpg\",\"img/0758/eabcd7a8-56ad-4fd2-bc24-90f6b7b33265.jpg\"]","trial_type":"similarity","trial_index":35,"time_elapsed":311304,"internal_node_id":"0.0-6.0-29.0"},{"sim_score":2,"rt":4910,"stimulus":"[\"img/0894/6aa5545f-fa7d-4286-bbaa-aaf34dc7ec96.jpg\",\"img/0899/f95cbdb4-f804-4f5d-ad76-373ad343e658.jpg\"]","trial_type":"similarity","trial_index":36,"time_elapsed":317234,"internal_node_id":"0.0-6.0-30.0"},{"sim_score":3,"rt":5640,"stimulus":"[\"img/0860/524b2e98-5767-4d53-942c-ebae6925659b.jpg\",\"img/0904/73920552-103b-4c9c-9ece-e0b8376b4504.jpg\"]","trial_type":"similarity","trial_index":37,"time_elapsed":323893,"internal_node_id":"0.0-6.0-31.0"},{"sim_score":6,"rt":5482,"stimulus":"[\"img/0874/adf9a8f1-c40b-402b-b95b-1e85a54a7b62.jpg\",\"img/0881/84397291-bc14-4fbf-90e8-241e486ab0fe.jpg\"]","trial_type":"similarity","trial_index":38,"time_elapsed":330382,"internal_node_id":"0.0-6.0-32.0"},{"sim_score":6,"rt":8226,"stimulus":"[\"img/0881/ee44e27f-d662-4608-b265-e7ffa19b216f.jpg\",\"img/0899/a048912c-b12c-40e3-90af-46b69b0cc4fe.jpg\"]","trial_type":"similarity","trial_index":39,"time_elapsed":339615,"internal_node_id":"0.0-6.0-33.0"},{"sim_score":4,"rt":5072,"stimulus":"[\"img/0866/bf14b5bd-fb55-47db-86b9-4f8aeb9a6dad.jpg\",\"img/0862/cdaed51d-9e2f-4807-801a-4663c40077e2.jpg\"]","trial_type":"similarity","trial_index":40,"time_elapsed":345701,"internal_node_id":"0.0-6.0-34.0"},{"sim_score":1,"rt":5030,"stimulus":"[\"img/0868/83b4350a-3b70-4cea-b7f5-b5b56f3050a8.jpg\",\"img/0894/792c83e9-a747-4000-bc72-5663d2439edb.jpg\"]","trial_type":"similarity","trial_index":41,"time_elapsed":351741,"internal_node_id":"0.0-6.0-35.0"},{"sim_score":6,"rt":4811,"stimulus":"[\"img/0860/e14d67c1-6d92-4f1e-9257-c8607159c19c.jpg\",\"img/0860/f44ba3fb-03a2-42f0-8509-2c1ded493086.jpg\"]","trial_type":"similarity","trial_index":42,"time_elapsed":357564,"internal_node_id":"0.0-6.0-36.0"},{"sim_score":6,"rt":5461,"stimulus":"[\"img/0862/92f0146c-20c4-482e-aef5-adb693790338.jpg\",\"img/0864/3651d070-2fc5-4848-b6a6-088a2d9ac5c9.jpg\"]","trial_type":"similarity","trial_index":43,"time_elapsed":364037,"internal_node_id":"0.0-6.0-37.0"},{"sim_score":4,"rt":4529,"stimulus":"[\"img/0766/b84598d0-5b41-4841-88b0-b441b48289f5.jpg\",\"img/0866/386235d2-6857-41e7-88a8-25cfc3430025.jpg\"]","trial_type":"similarity","trial_index":44,"time_elapsed":369583,"internal_node_id":"0.0-6.0-38.0"},{"sim_score":6,"rt":5442,"stimulus":"[\"img/0875/ebf7653f-ff45-4e9f-af58-2c042ab3cd2b.jpg\",\"img/0898/08c72dac-f8ad-407a-9ce6-8c9a5d679c3a.jpg\"]","trial_type":"similarity","trial_index":45,"time_elapsed":376046,"internal_node_id":"0.0-6.0-39.0"},{"sim_score":7,"rt":5837,"stimulus":"[\"img/0766/d14acac4-7db1-4b07-8f8f-302437326fc0.jpg\",\"img/0769/3c1efec9-f8fd-487d-8955-4be88e48c832.jpg\"]","trial_type":"similarity","trial_index":46,"time_elapsed":382902,"internal_node_id":"0.0-6.0-40.0"},{"sim_score":2,"rt":4519,"stimulus":"[\"img/0874/995f0332-0439-4eb4-add3-957335dbf6d9.jpg\",\"img/0764/c0b03adb-bd0a-4b96-a915-a827c2fd5211.jpg\"]","trial_type":"similarity","trial_index":47,"time_elapsed":397491,"internal_node_id":"0.0-6.0-41.0"},{"sim_score":2,"rt":4367,"stimulus":"[\"img/0868/15dd6fd7-791e-4b53-b203-195d617521a4.jpg\",\"img/0902/168ebd47-9e82-4ab7-a18b-c3da85072db8.jpg\"]","trial_type":"similarity","trial_index":48,"time_elapsed":402866,"internal_node_id":"0.0-6.0-42.0"},{"sim_score":4,"rt":4822,"stimulus":"[\"img/0875/e7e66b13-b573-431e-b85e-288ce04a35a3.jpg\",\"img/0899/565ccdd9-0933-4536-a625-3c0e25a713dd.jpg\"]","trial_type":"similarity","trial_index":49,"time_elapsed":408705,"internal_node_id":"0.0-6.0-43.0"},{"sim_score":5,"rt":4834,"stimulus":"[\"img/0866/23a224f3-2012-4fc8-8e0f-3c36f8de27fd.jpg\",\"img/0860/15b24a61-25be-4356-9eac-5ce95d0cb4a4.jpg\"]","trial_type":"similarity","trial_index":50,"time_elapsed":414549,"internal_node_id":"0.0-6.0-44.0"},{"sim_score":2,"rt":4577,"stimulus":"[\"img/0766/d50d734f-285c-4840-bc7a-c8dd4aff391e.jpg\",\"img/0903/8fcafe03-43df-4c45-9da5-0df3a1eeccc5.jpg\"]","trial_type":"similarity","trial_index":51,"time_elapsed":420148,"internal_node_id":"0.0-6.0-45.0"},{"sim_score":3,"rt":4580,"stimulus":"[\"img/0901/a2d7b2f6-396b-4d91-8403-de5361c74af7.jpg\",\"img/0904/0d17b811-063e-416e-a23c-3b3cfa4fcce5.jpg\"]","trial_type":"similarity","trial_index":52,"time_elapsed":425738,"internal_node_id":"0.0-6.0-46.0"},{"sim_score":5,"rt":6343,"stimulus":"[\"img/0758/7ee8bc8f-c40b-4b3a-84ec-3e83580622d4.jpg\",\"img/0902/bd89a85f-3853-4786-acd6-98818ee29f1c.jpg\"]","trial_type":"similarity","trial_index":53,"time_elapsed":433094,"internal_node_id":"0.0-6.0-47.0"},{"sim_score":7,"rt":4991,"stimulus":"[\"img/0764/83c93cce-18d1-4aa7-9e23-2c268afe0a46.jpg\",\"img/0764/6c7fe363-2d37-418f-9e5e-a3273af5d4fb.jpg\"]","trial_type":"similarity","trial_index":54,"time_elapsed":439103,"internal_node_id":"0.0-6.0-48.0"},{"sim_score":2,"rt":5176,"stimulus":"[\"img/0866/4a87911a-d5be-4d4e-ab8e-3d1f581bf507.jpg\",\"img/0902/3f0eeac5-c996-4026-a376-563ce8f28521.jpg\"]","trial_type":"similarity","trial_index":55,"time_elapsed":445287,"internal_node_id":"0.0-6.0-49.0"},{"sim_score":2,"rt":8199,"stimulus":"[\"img/0764/39a9fc7e-b863-432c-9374-de43983f31a5.jpg\",\"img/0758/65d426d6-3ff6-415d-8654-a43b83ecc4fe.jpg\"]","trial_type":"similarity","trial_index":56,"time_elapsed":454495,"internal_node_id":"0.0-6.0-50.0"},{"sim_score":6,"rt":4788,"stimulus":"[\"img/0898/0af304a2-6a7a-4082-ab7c-4450cd08cc58.jpg\",\"img/0894/38f5931f-926d-414e-b498-66b188978b7a.jpg\"]","trial_type":"similarity","trial_index":57,"time_elapsed":460303,"internal_node_id":"0.0-6.0-51.0"},{"sim_score":6,"rt":4279,"stimulus":"[\"img/0875/42910c99-5463-450a-a0f8-d4d060a11455.jpg\",\"img/0866/f756f7d1-9ad8-4a34-9ef6-7a443d705bfe.jpg\"]","trial_type":"similarity","trial_index":58,"time_elapsed":465589,"internal_node_id":"0.0-6.0-52.0"},{"sim_score":5,"rt":5453,"stimulus":"[\"img/0904/24fc38fe-842c-4831-ad8a-b1de5c25c0a8.jpg\",\"img/0904/696ebb60-8891-417a-91fd-c53218907a95.jpg\"]","trial_type":"similarity","trial_index":59,"time_elapsed":472054,"internal_node_id":"0.0-6.0-53.0"},{"sim_score":7,"rt":4879,"stimulus":"[\"img/0769/f6396414-6788-4d59-9683-de153298d89c.jpg\",\"img/0769/91acb237-65a3-4d0b-9748-af5c7b83d3c7.jpg\"]","trial_type":"similarity","trial_index":60,"time_elapsed":477948,"internal_node_id":"0.0-6.0-54.0"},{"sim_score":2,"rt":5830,"stimulus":"[\"img/0898/04e39a7a-fcf6-4156-ab0e-f5871f335e1c.jpg\",\"img/0758/f61ecdf8-a7d4-4db0-b84d-be46f7cfaffc.jpg\"]","trial_type":"similarity","trial_index":61,"time_elapsed":484794,"internal_node_id":"0.0-6.0-55.0"},{"sim_score":5,"rt":5079,"stimulus":"[\"img/0769/82ab9db6-4578-4e79-874f-f09100439f09.jpg\",\"img/0902/0db94c50-f1fb-4091-953c-29ca0466bee2.jpg\"]","trial_type":"similarity","trial_index":62,"time_elapsed":490892,"internal_node_id":"0.0-6.0-56.0"},{"sim_score":3,"rt":5875,"stimulus":"[\"img/0864/afcba0a3-7e27-4757-b254-e9f05fad27e2.jpg\",\"img/0881/2a8413be-fec2-4de6-88ad-614dd4cccc9d.jpg\"]","trial_type":"similarity","trial_index":63,"time_elapsed":497784,"internal_node_id":"0.0-6.0-57.0"},{"sim_score":2,"rt":4865,"stimulus":"[\"img/0758/a709631e-3705-4725-ac40-f0d916924f08.jpg\",\"img/0868/179a5502-ab5c-478e-8263-5a1fbcc101d2.jpg\"]","trial_type":"similarity","trial_index":64,"time_elapsed":503659,"internal_node_id":"0.0-6.0-58.0"},{"sim_score":4,"rt":6791,"stimulus":"[\"img/0862/ad593cc7-cabe-4bb7-8e14-8a447a0717b4.jpg\",\"img/0769/50985283-d353-4abc-9abe-14a91d56ebe6.jpg\"]","trial_type":"similarity","trial_index":65,"time_elapsed":511464,"internal_node_id":"0.0-6.0-59.0"},{"sim_score":1,"rt":4996,"stimulus":"[\"img/0764/6ef77040-1fae-4afa-bfe7-eda98e6d0376.jpg\",\"img/0903/5995f4a8-fa82-46f8-8760-fd7800a5ca34.jpg\"]","trial_type":"similarity","trial_index":66,"time_elapsed":517475,"internal_node_id":"0.0-6.0-60.0"},{"sim_score":4,"rt":4451,"stimulus":"[\"img/0899/0433d056-aa30-4f8a-9aa1-abbb951e4edd.jpg\",\"img/0899/56a605c3-d0a2-4215-89e1-779279d85a7c.jpg\"]","trial_type":"similarity","trial_index":67,"time_elapsed":522946,"internal_node_id":"0.0-6.0-61.0"},{"sim_score":2,"rt":4243,"stimulus":"[\"img/0860/5383b320-1518-4095-a58e-5cc1ae30b64c.jpg\",\"img/0875/5a7c4e35-6514-4e12-8879-d16071da4cd6.jpg\"]","trial_type":"similarity","trial_index":68,"time_elapsed":528209,"internal_node_id":"0.0-6.0-62.0"},{"sim_score":1,"rt":4156,"stimulus":"[\"img/0868/e0aff734-077f-40dd-9781-74821abd3621.jpg\",\"img/0874/93d1f8dc-acf2-4f03-bd8d-8ec35df276ed.jpg\"]","trial_type":"similarity","trial_index":69,"time_elapsed":533379,"internal_node_id":"0.0-6.0-63.0"},{"sim_score":3,"rt":5507,"stimulus":"[\"img/0758/7ffbc76b-1fc1-432c-8f7e-9ec8d1b3f643.jpg\",\"img/0862/4f0a3b4c-afbf-486e-b248-1d54982f54b4.jpg\"]","trial_type":"similarity","trial_index":70,"time_elapsed":539907,"internal_node_id":"0.0-6.0-64.0"},{"sim_score":3,"rt":4707,"stimulus":"[\"img/0904/2fd488e9-960f-41f7-8a44-33375f7d5051.jpg\",\"img/0898/e167334e-cc1d-4986-b3b1-c7bc7da64baa.jpg\"]","trial_type":"similarity","trial_index":71,"time_elapsed":545618,"internal_node_id":"0.0-6.0-65.0"},{"sim_score":1,"rt":4829,"stimulus":"[\"img/0881/6b1189e6-232d-4042-8885-16dc7b10e0d4.jpg\",\"img/0866/d266fece-59b3-46fa-b69f-96f6efb81b59.jpg\"]","trial_type":"similarity","trial_index":72,"time_elapsed":551455,"internal_node_id":"0.0-6.0-66.0"},{"sim_score":2,"rt":4350,"stimulus":"[\"img/0867/075e0f95-856b-4cbb-acf5-092393aaf04e.jpg\",\"img/0898/993d8f2d-bef7-4251-a193-0f93a32b7763.jpg\"]","trial_type":"similarity","trial_index":73,"time_elapsed":556825,"internal_node_id":"0.0-6.0-67.0"},{"sim_score":5,"rt":5685,"stimulus":"[\"img/0902/94ee9c53-a9a2-4f95-b9b7-794a5fc62bb6.jpg\",\"img/0764/56441045-b648-4ede-9632-3e9c0227080b.jpg\"]","trial_type":"similarity","trial_index":74,"time_elapsed":563530,"internal_node_id":"0.0-6.0-68.0"},{"sim_score":5,"rt":5217,"stimulus":"[\"img/0875/f87b67d7-c33e-40d1-b281-248c4be1cb6e.jpg\",\"img/0867/f8488a47-94ee-4166-952c-44e16cf172f6.jpg\"]","trial_type":"similarity","trial_index":75,"time_elapsed":569767,"internal_node_id":"0.0-6.0-69.0"},{"sim_score":7,"rt":6203,"stimulus":"[\"img/0766/fd74fdbb-ea40-4f3a-a091-38d08dfd636e.jpg\",\"img/0764/b8e23f4f-ff19-4472-ad9b-2f85548ebca0.jpg\"]","trial_type":"similarity","trial_index":76,"time_elapsed":576975,"internal_node_id":"0.0-6.0-70.0"},{"sim_score":6,"rt":4306,"stimulus":"[\"img/0894/5c7677b0-a4f1-479e-b274-7822c415175a.jpg\",\"img/0867/bf560d4f-dee3-4f11-a385-705cc1aa5f3c.jpg\"]","trial_type":"similarity","trial_index":77,"time_elapsed":582301,"internal_node_id":"0.0-6.0-71.0"},{"sim_score":2,"rt":7361,"stimulus":"[\"img/0875/34132396-d896-4c2d-8087-646dd867e769.jpg\",\"img/0764/ca9829fe-aaf8-45b8-b98a-6bae751c63dd.jpg\"]","trial_type":"similarity","trial_index":78,"time_elapsed":590673,"internal_node_id":"0.0-6.0-72.0"},{"sim_score":4,"rt":5844,"stimulus":"[\"img/0867/2e1a0b58-cdb1-4107-a14e-452530d7b9b0.jpg\",\"img/0866/93a27239-8317-4e08-98ca-d8b1ff298e07.jpg\"]","trial_type":"similarity","trial_index":79,"time_elapsed":597522,"internal_node_id":"0.0-6.0-73.0"},{"sim_score":5,"rt":5623,"stimulus":"[\"img/0903/5ea5bbe0-f238-4724-abe7-9ed8dee8c0ba.jpg\",\"img/0758/ddc336e9-a8b6-4bb9-937a-c7e25e0e9250.jpg\"]","trial_type":"similarity","trial_index":80,"time_elapsed":604164,"internal_node_id":"0.0-6.0-74.0"},{"sim_score":1,"rt":5798,"stimulus":"[\"img/0766/33aa9ebb-c9f5-418f-8c8b-c77861889568.jpg\",\"img/0868/c8ac40c7-6904-4e13-8d61-c75d3052dc4e.jpg\"]","trial_type":"similarity","trial_index":81,"time_elapsed":610977,"internal_node_id":"0.0-6.0-75.0"},{"sim_score":3,"rt":6690,"stimulus":"[\"img/0874/1016b306-087c-4afc-aa08-fa527b28dc76.jpg\",\"img/0766/d512b99c-a2dc-40d7-8e86-827323a0cbcf.jpg\"]","trial_type":"similarity","trial_index":82,"time_elapsed":618684,"internal_node_id":"0.0-6.0-76.0"},{"sim_score":1,"rt":4430,"stimulus":"[\"img/0881/54ea8e77-c7e5-4197-b7fa-00b7020849a7.jpg\",\"img/0868/7b212364-ff5f-4e28-9241-7eb6ea00161b.jpg\"]","trial_type":"similarity","trial_index":83,"time_elapsed":624119,"internal_node_id":"0.0-6.0-77.0"},{"sim_score":1,"rt":5648,"stimulus":"[\"img/0758/a085b443-b5d7-4cb2-9ad4-b9dab0fc23f1.jpg\",\"img/0901/fb0a8e69-7f19-4e6e-a6bb-a48f97f9b4f3.jpg\"]","trial_type":"similarity","trial_index":84,"time_elapsed":630772,"internal_node_id":"0.0-6.0-78.0"},{"sim_score":3,"rt":4843,"stimulus":"[\"img/0881/48ed65a5-471f-41af-86ec-3793805c116d.jpg\",\"img/0898/881e2a85-d5c2-49be-a0c6-8a6ce2c4af08.jpg\"]","trial_type":"similarity","trial_index":85,"time_elapsed":636634,"internal_node_id":"0.0-6.0-79.0"},{"sim_score":5,"rt":5296,"stimulus":"[\"img/0867/db7e032f-162b-46f5-ae67-2b29679adee4.jpg\",\"img/0758/53f35650-e455-4b53-8be4-c3c8271c6466.jpg\"]","trial_type":"similarity","trial_index":86,"time_elapsed":642950,"internal_node_id":"0.0-6.0-80.0"},{"sim_score":5,"rt":4717,"stimulus":"[\"img/0769/da36e3f7-2337-434f-ab57-11822dd7eed7.jpg\",\"img/0899/fd9efb43-701f-4cd6-baaa-4c38315f4bdc.jpg\"]","trial_type":"similarity","trial_index":87,"time_elapsed":648684,"internal_node_id":"0.0-6.0-81.0"},{"sim_score":7,"rt":5022,"stimulus":"[\"img/0903/ea75f240-fb62-4edb-a709-83e858b202c0.jpg\",\"img/0903/9b60ef5b-234f-4239-892b-3d4c412accc2.jpg\"]","trial_type":"similarity","trial_index":88,"time_elapsed":654720,"internal_node_id":"0.0-6.0-82.0"},{"sim_score":5,"rt":4910,"stimulus":"[\"img/0867/5e07b34d-b40f-4b1c-ac10-49975bace45f.jpg\",\"img/0766/6d32752d-aa05-40dc-9541-640b6e9d6fa1.jpg\"]","trial_type":"similarity","trial_index":89,"time_elapsed":677401,"internal_node_id":"0.0-6.0-83.0"},{"sim_score":6,"rt":5555,"stimulus":"[\"img/0902/71c03003-03ef-4b0f-8229-e0c857150a5d.jpg\",\"img/0867/ac1797e4-8afc-48fe-b252-86d1defb1cca.jpg\"]","trial_type":"similarity","trial_index":90,"time_elapsed":683968,"internal_node_id":"0.0-6.0-84.0"},{"sim_score":1,"rt":4600,"stimulus":"[\"img/0901/1b86f2fc-7a1d-4aa8-9252-114f92edef3b.jpg\",\"img/0875/cff79b3a-a797-4393-9757-6275f999ec04.jpg\"]","trial_type":"similarity","trial_index":91,"time_elapsed":689586,"internal_node_id":"0.0-6.0-85.0"},{"sim_score":6,"rt":4534,"stimulus":"[\"img/0764/f990b2e8-ecee-481e-be7c-0239fce350e2.jpg\",\"img/0866/07c9c966-3c8d-40e7-8128-92b2acbaed5d.jpg\"]","trial_type":"similarity","trial_index":92,"time_elapsed":695128,"internal_node_id":"0.0-6.0-86.0"},{"sim_score":7,"rt":5772,"stimulus":"[\"img/0901/ae1e6ce4-2e10-4ca9-b1e7-21628637ab74.jpg\",\"img/0894/767a0eec-1064-46b1-b1aa-dfa02b0cd74e.jpg\"]","trial_type":"similarity","trial_index":93,"time_elapsed":701907,"internal_node_id":"0.0-6.0-87.0"},{"sim_score":6,"rt":4359,"stimulus":"[\"img/0898/4184e5a2-84ea-4f36-9b42-ae58646f6f87.jpg\",\"img/0769/ebef2ddc-ba59-4e0e-97f8-927864eb5081.jpg\"]","trial_type":"similarity","trial_index":94,"time_elapsed":707282,"internal_node_id":"0.0-6.0-88.0"},{"sim_score":7,"rt":4565,"stimulus":"[\"img/0769/38a88f69-28fd-4bbd-99f0-f4c02bfd3995.jpg\",\"img/0894/8cadb87a-7001-4e47-99fb-1867bebf1668.jpg\"]","trial_type":"similarity","trial_index":95,"time_elapsed":712865,"internal_node_id":"0.0-6.0-89.0"},{"sim_score":3,"rt":5094,"stimulus":"[\"img/0862/fb26cb07-d5a9-4653-813c-f41609f26cd5.jpg\",\"img/0874/a3bc679d-619f-4db6-bb68-116dcb757d9c.jpg\"]","trial_type":"similarity","trial_index":96,"time_elapsed":718974,"internal_node_id":"0.0-6.0-90.0"},{"sim_score":6,"rt":4788,"stimulus":"[\"img/0894/9b1333fd-3561-43bf-aee5-99b7b7ca3dc3.jpg\",\"img/0766/f3276cc4-65de-4c2d-88d5-6cfebce14b8f.jpg\"]","trial_type":"similarity","trial_index":97,"time_elapsed":724773,"internal_node_id":"0.0-6.0-91.0"},{"sim_score":1,"rt":8280,"stimulus":"[\"img/0874/85eb9b8a-c4c6-4e5a-b8e7-363a87a82054.jpg\",\"img/0867/f26f6b60-f772-4f4c-95a4-addc62cfd692.jpg\"]","trial_type":"similarity","trial_index":98,"time_elapsed":734068,"internal_node_id":"0.0-6.0-92.0"},{"sim_score":5,"rt":8365,"stimulus":"[\"img/0899/d8f2dd94-570e-4e8c-a087-d96090fb9e8c.jpg\",\"img/0868/293079b8-7e0c-4afd-a390-1e5d35fe3ded.jpg\"]","trial_type":"similarity","trial_index":99,"time_elapsed":743452,"internal_node_id":"0.0-6.0-93.0"},{"sim_score":1,"rt":4244,"stimulus":"[\"img/0903/647ce311-8c71-479a-8361-961db1457139.jpg\",\"img/0862/57b6f83f-c763-4858-830d-102f97bfefbf.jpg\"]","trial_type":"similarity","trial_index":100,"time_elapsed":748714,"internal_node_id":"0.0-6.0-94.0"},{"sim_score":1,"rt":5948,"stimulus":"[\"img/0899/f58b8d2f-b19d-4b59-8b94-8834be92e4ba.jpg\",\"img/0766/dd3e18d0-0c98-4d05-b850-69976ee8cd75.jpg\"]","trial_type":"similarity","trial_index":101,"time_elapsed":755681,"internal_node_id":"0.0-6.0-95.0"},{"sim_score":7,"rt":3658,"stimulus":"[\"img/0867/de92135f-5b65-4ed9-b245-188292c7c2f8.jpg\",\"img/0868/5fa7f9d0-f0e5-454c-8224-74d964818f56.jpg\"]","trial_type":"similarity","trial_index":102,"time_elapsed":760356,"internal_node_id":"0.0-6.0-96.0"},{"sim_score":6,"rt":4443,"stimulus":"[\"img/0862/eefa5588-9efd-4591-aa5f-a2e17c7d7bcc.jpg\",\"img/0901/12da1841-e611-435c-9719-109413d536a8.jpg\"]","trial_type":"similarity","trial_index":103,"time_elapsed":765809,"internal_node_id":"0.0-6.0-97.0"},{"sim_score":5,"rt":6158,"stimulus":"[\"img/0875/527ced51-8e53-4aab-ab05-86df219104c0.jpg\",\"img/0766/ea09dd5a-d24d-4e97-a099-7da3db1baef1.jpg\"]","trial_type":"similarity","trial_index":104,"time_elapsed":772975,"internal_node_id":"0.0-6.0-98.0"},{"sim_score":7,"rt":5047,"stimulus":"[\"img/0758/61d64021-9214-4951-bdf8-f871f9827cf9.jpg\",\"img/0874/3f471690-9788-4d03-90c7-f615aecef149.jpg\"]","trial_type":"similarity","trial_index":105,"time_elapsed":779030,"internal_node_id":"0.0-6.0-99.0"},{"sim_score":7,"rt":4186,"stimulus":"[\"img/0904/2c98dc56-88d1-4fb5-a999-b6a7861f65f0.jpg\",\"img/0868/4e626425-63c8-484a-8a1d-e66ee4e0bef8.jpg\"]","trial_type":"similarity","trial_index":106,"time_elapsed":784220,"internal_node_id":"0.0-6.0-100.0"},{"sim_score":2,"rt":4177,"stimulus":"[\"img/0903/8931c67c-a43d-47d3-a4c9-42aa2f81d344.jpg\",\"img/0866/02f5e6b9-52b7-448c-9708-5b460d0c9a23.jpg\"]","trial_type":"similarity","trial_index":107,"time_elapsed":789412,"internal_node_id":"0.0-6.0-101.0"},{"sim_score":7,"rt":4732,"stimulus":"[\"img/0868/0d3abd3a-b6c3-4584-a9f7-e2da63748b3d.jpg\",\"img/0769/c34b7763-8ff2-46d5-9e92-f1d8f3bedbd8.jpg\"]","trial_type":"similarity","trial_index":108,"time_elapsed":795164,"internal_node_id":"0.0-6.0-102.0"},{"sim_score":7,"rt":4028,"stimulus":"[\"img/0902/417d8b4a-3c72-4adc-ac78-820e833316f2.jpg\",\"img/0899/0e1d936a-dbe2-4afc-9f19-7b7a1ae6c9ed.jpg\"]","trial_type":"similarity","trial_index":109,"time_elapsed":800205,"internal_node_id":"0.0-6.0-103.0"},{"sim_score":5,"rt":4795,"stimulus":"[\"img/0868/1a62b2b2-18f5-466e-b564-5176a57c565e.jpg\",\"img/0862/00c06b00-3b73-44e9-bc1e-c5aafb438321.jpg\"]","trial_type":"similarity","trial_index":110,"time_elapsed":806007,"internal_node_id":"0.0-6.0-104.0"},{"sim_score":3,"rt":5054,"stimulus":"[\"img/0903/c708d08f-a108-4e04-8288-c3fcf6375db4.jpg\",\"img/0894/3664e04c-c6d3-4c9b-afb6-25d89974b174.jpg\"]","trial_type":"similarity","trial_index":111,"time_elapsed":812073,"internal_node_id":"0.0-6.0-105.0"},{"sim_score":6,"rt":5593,"stimulus":"[\"img/0864/49150900-7f25-4ce8-8d10-9b47a71d1997.jpg\",\"img/0874/3ce41e7c-40c8-4d58-a546-171114521796.jpg\"]","trial_type":"similarity","trial_index":112,"time_elapsed":818681,"internal_node_id":"0.0-6.0-106.0"},{"sim_score":4,"rt":4622,"stimulus":"[\"img/0862/847e5208-38ec-4f36-949c-296cdd7424ee.jpg\",\"img/0902/1a120fb9-dbd6-443e-ba91-b4aceab963da.jpg\"]","trial_type":"similarity","trial_index":113,"time_elapsed":824307,"internal_node_id":"0.0-6.0-107.0"},{"sim_score":7,"rt":3926,"stimulus":"[\"img/0904/63dd06dd-dccb-47ba-9740-eb33239e18a7.jpg\",\"img/0903/3e9ee8a5-eb66-47f5-8973-8a5af1ddc87e.jpg\"]","trial_type":"similarity","trial_index":114,"time_elapsed":829253,"internal_node_id":"0.0-6.0-108.0"},{"sim_score":6,"rt":5172,"stimulus":"[\"img/0764/4952d0a0-c9be-471a-8ec7-94a37bf4051d.jpg\",\"img/0864/300bb811-8b3c-4c42-8653-6097c3725197.jpg\"]","trial_type":"similarity","trial_index":115,"time_elapsed":835440,"internal_node_id":"0.0-6.0-109.0"},{"sim_score":6,"rt":5360,"stimulus":"[\"img/0866/d493a2c8-66eb-44b4-be02-2f327b700b7c.jpg\",\"img/0894/43216a7f-27bc-4b5a-8841-d122a30da9d9.jpg\"]","trial_type":"similarity","trial_index":116,"time_elapsed":841805,"internal_node_id":"0.0-6.0-110.0"},{"sim_score":7,"rt":4966,"stimulus":"[\"img/0899/4408c14d-c168-4a7d-96f6-bc87bfb58f83.jpg\",\"img/0903/a0673b55-6040-47fe-9040-24bca27ca3c9.jpg\"]","trial_type":"similarity","trial_index":117,"time_elapsed":847779,"internal_node_id":"0.0-6.0-111.0"},{"sim_score":7,"rt":4273,"stimulus":"[\"img/0902/7499db23-3a41-41ea-ab5b-6ab4d4c3ed35.jpg\",\"img/0904/60d1a521-edf7-4696-9263-f21ac0e62a01.jpg\"]","trial_type":"similarity","trial_index":118,"time_elapsed":853067,"internal_node_id":"0.0-6.0-112.0"},{"sim_score":2,"rt":5258,"stimulus":"[\"img/0864/e8bd659f-aa43-4748-877e-3118e8b4e189.jpg\",\"img/0860/4c530c3c-6aab-492a-94d1-9c01797bde40.jpg\"]","trial_type":"similarity","trial_index":119,"time_elapsed":859338,"internal_node_id":"0.0-6.0-113.0"},{"sim_score":6,"rt":5779,"stimulus":"[\"img/0860/17b44a7d-c5ca-479f-9e87-f65a64f5c80e.jpg\",\"img/0899/ad8268c5-8199-48d0-ad70-c5b6d6c599ec.jpg\"]","trial_type":"similarity","trial_index":120,"time_elapsed":866122,"internal_node_id":"0.0-6.0-114.0"},{"sim_score":3,"rt":5644,"stimulus":"[\"img/0881/c843e210-bdfe-4a7c-8bbe-fcea1f90fe1c.jpg\",\"img/0903/c3cb4a01-2797-43ca-b216-88c67b323fbb.jpg\"]","trial_type":"similarity","trial_index":121,"time_elapsed":872771,"internal_node_id":"0.0-6.0-115.0"},{"sim_score":3,"rt":5269,"stimulus":"[\"img/0894/3adef67d-7676-4995-80b2-bb31b8aca3ef.jpg\",\"img/0874/ca76a855-4e77-4f2f-872a-0a718153e7ed.jpg\"]","trial_type":"similarity","trial_index":122,"time_elapsed":879046,"internal_node_id":"0.0-6.0-116.0"},{"sim_score":7,"rt":4738,"stimulus":"[\"img/0881/4da99fdd-1f40-4bbb-8e21-8833eef313f5.jpg\",\"img/0862/f23038d4-c366-4f70-979f-66b62362efa4.jpg\"]","trial_type":"similarity","trial_index":123,"time_elapsed":884789,"internal_node_id":"0.0-6.0-117.0"},{"sim_score":5,"rt":5850,"stimulus":"[\"img/0868/d6d1f30d-4323-435a-b194-7892521bc57e.jpg\",\"img/0875/99698b4d-b4a1-44bc-8c83-8ea755bbbf61.jpg\"]","trial_type":"similarity","trial_index":124,"time_elapsed":891644,"internal_node_id":"0.0-6.0-118.0"},{"sim_score":1,"rt":5470,"stimulus":"[\"img/0860/e8b8c51e-1834-4875-8b61-6c5bc9b178bd.jpg\",\"img/0758/d540bee6-b460-4c32-ac57-bc282742d7d4.jpg\"]","trial_type":"similarity","trial_index":125,"time_elapsed":898133,"internal_node_id":"0.0-6.0-119.0"},{"sim_score":5,"rt":6123,"stimulus":"[\"img/0864/a248adb3-c70b-4652-b7a3-776d2a1e904b.jpg\",\"img/0875/d59ff733-eaff-4ee2-9443-06954dd0bcb6.jpg\"]","trial_type":"similarity","trial_index":126,"time_elapsed":905266,"internal_node_id":"0.0-6.0-120.0"},{"sim_score":3,"rt":5471,"stimulus":"[\"img/0898/40f99fb2-64d2-4e72-8a7f-a1cf60741e69.jpg\",\"img/0866/6f2a90d7-14f1-4f1b-bd64-fc0af6b9fe44.jpg\"]","trial_type":"similarity","trial_index":127,"time_elapsed":911755,"internal_node_id":"0.0-6.0-121.0"},{"sim_score":1,"rt":5051,"stimulus":"[\"img/0874/99f6563c-8a8d-4c1c-a41d-667b618c3fd5.jpg\",\"img/0904/d23dd7be-7fe8-4435-82f7-bd592c01e6a1.jpg\"]","trial_type":"similarity","trial_index":128,"time_elapsed":917815,"internal_node_id":"0.0-6.0-122.0"},{"sim_score":3,"rt":5405,"stimulus":"[\"img/0904/96e503ea-6630-4996-85f2-0237688ce441.jpg\",\"img/0864/c3b63e8f-ea39-4d70-a1f2-b3fe4be8eb75.jpg\"]","trial_type":"similarity","trial_index":129,"time_elapsed":924230,"internal_node_id":"0.0-6.0-123.0"},{"sim_score":7,"rt":5241,"stimulus":"[\"img/0894/661b9f9f-4bde-487a-b1ed-87085fde6948.jpg\",\"img/0902/24d10fe7-314f-4d5a-8c7b-b43121bba0a4.jpg\"]","trial_type":"similarity","trial_index":130,"time_elapsed":930487,"internal_node_id":"0.0-6.0-124.0"},{"sim_score":6,"rt":4829,"stimulus":"[\"img/0868/d98ca254-b195-477f-b57e-5760a2717db8.jpg\",\"img/0864/da39ad34-04e0-40d4-a724-c08d53e0ea09.jpg\"]","trial_type":"similarity","trial_index":131,"time_elapsed":942359,"internal_node_id":"0.0-6.0-125.0"},{"sim_score":1,"rt":6616,"stimulus":"[\"img/0899/66ab3178-c3fe-4455-ad17-d5952b08e018.jpg\",\"img/0866/8efcaa46-83ab-4dee-a35f-850402aa21ae.jpg\"]","trial_type":"similarity","trial_index":132,"time_elapsed":949994,"internal_node_id":"0.0-6.0-126.0"},{"sim_score":3,"rt":5496,"stimulus":"[\"img/0875/8521fd58-3b1e-4dc5-97ae-804edfa6734a.jpg\",\"img/0904/a8c3c7d2-9bcf-4347-9e03-8203adfc1fc5.jpg\"]","trial_type":"similarity","trial_index":133,"time_elapsed":956508,"internal_node_id":"0.0-6.0-127.0"},{"sim_score":1,"rt":4126,"stimulus":"[\"img/0867/50a1b60e-3a29-44bf-b606-d4bd3746fea9.jpg\",\"img/0899/4f7bc593-8ddd-4da3-a0b9-84da730d3370.jpg\"]","trial_type":"similarity","trial_index":134,"time_elapsed":961653,"internal_node_id":"0.0-6.0-128.0"},{"sim_score":2,"rt":5217,"stimulus":"[\"img/0901/a373612d-67e2-4fec-9764-21d3d6ef6359.jpg\",\"img/0867/aa05d113-fc19-4756-a8eb-7878f580bc92.jpg\"]","trial_type":"similarity","trial_index":135,"time_elapsed":967882,"internal_node_id":"0.0-6.0-129.0"},{"sim_score":5,"rt":5534,"stimulus":"[\"img/0864/4bd81bc6-c13d-46df-95a9-485886dc7c1b.jpg\",\"img/0769/47700831-0ca2-4fdd-a498-a3bc5a528f43.jpg\"]","trial_type":"similarity","trial_index":136,"time_elapsed":974428,"internal_node_id":"0.0-6.0-130.0"},{"sim_score":5,"rt":4409,"stimulus":"[\"img/0903/8635cf25-2648-4fe9-8c42-79d2598e999c.jpg\",\"img/0868/09a9ef4d-d000-4cfa-a6aa-ebec7c2edeb4.jpg\"]","trial_type":"similarity","trial_index":137,"time_elapsed":979854,"internal_node_id":"0.0-6.0-131.0"},{"sim_score":6,"rt":5971,"stimulus":"[\"img/0864/0f537697-a314-47c3-a8cc-8df23b7e536c.jpg\",\"img/0867/26611f4e-d694-4460-b7e2-43c62753ddc3.jpg\"]","trial_type":"similarity","trial_index":138,"time_elapsed":986844,"internal_node_id":"0.0-6.0-132.0"},{"sim_score":6,"rt":5560,"stimulus":"[\"img/0901/77087ed2-6e12-4329-b2a5-605bca6d972d.jpg\",\"img/0860/31ff6436-98bf-4652-bed2-40f627229568.jpg\"]","trial_type":"similarity","trial_index":139,"time_elapsed":993421,"internal_node_id":"0.0-6.0-133.0"},{"sim_score":5,"rt":6085,"stimulus":"[\"img/0881/b549bc99-a61c-4450-bab5-9efc3a197bf0.jpg\",\"img/0766/110832e5-2646-4bd0-a94e-5df8cc314269.jpg\"]","trial_type":"similarity","trial_index":140,"time_elapsed":1000524,"internal_node_id":"0.0-6.0-134.0"},{"sim_score":4,"rt":6586,"stimulus":"[\"img/0903/b7e3723f-fd03-4f3d-8820-f19496463a34.jpg\",\"img/0864/ea327690-500b-4137-bf91-451b309fe6a5.jpg\"]","trial_type":"similarity","trial_index":141,"time_elapsed":1008128,"internal_node_id":"0.0-6.0-135.0"},{"sim_score":6,"rt":6449,"stimulus":"[\"img/0758/335851a0-a55b-46d8-ab05-8463eda48349.jpg\",\"img/0894/c505c65a-cde2-4f2c-8cde-f8676f7c894d.jpg\"]","trial_type":"similarity","trial_index":142,"time_elapsed":1015587,"internal_node_id":"0.0-6.0-136.0"},{"sim_score":7,"rt":4967,"stimulus":"[\"img/0769/8056889f-2b14-4782-bb25-b4e8896ab65b.jpg\",\"img/0860/fd4662f9-4c03-4d79-8593-06735e55a64b.jpg\"]","trial_type":"similarity","trial_index":143,"time_elapsed":1021562,"internal_node_id":"0.0-6.0-137.0"},{"sim_score":1,"rt":6181,"stimulus":"[\"img/0904/9b3568cc-3cf7-42be-9df3-fdafde7a58b8.jpg\",\"img/0766/51d3aab4-3d09-4dda-b99d-3dc7aaabc6f2.jpg\"]","trial_type":"similarity","trial_index":144,"time_elapsed":1028760,"internal_node_id":"0.0-6.0-138.0"},{"sim_score":7,"rt":5190,"stimulus":"[\"img/0868/4bd5105a-d2c3-4f82-8c80-57196106ba53.jpg\",\"img/0860/99c589b9-9140-4d17-90c0-b344323edcda.jpg\"]","trial_type":"similarity","trial_index":145,"time_elapsed":1034965,"internal_node_id":"0.0-6.0-139.0"},{"sim_score":7,"rt":4351,"stimulus":"[\"img/0758/6cd8c362-ae2a-41eb-80a3-3a4f7ace1530.jpg\",\"img/0864/3d4de670-b290-4285-9c3d-12a0e3af44e9.jpg\"]","trial_type":"similarity","trial_index":146,"time_elapsed":1040323,"internal_node_id":"0.0-6.0-140.0"},{"sim_score":7,"rt":3927,"stimulus":"[\"img/0867/7d1c497b-c1b3-4ed8-abb5-d7f73306015f.jpg\",\"img/0867/12264664-1860-46df-8c21-162b9817cdda.jpg\"]","trial_type":"similarity","trial_index":147,"time_elapsed":1045257,"internal_node_id":"0.0-6.0-141.0"},{"sim_score":6,"rt":5211,"stimulus":"[\"img/0898/8605a25b-6895-476d-8c13-df7a83f96093.jpg\",\"img/0898/6cd3830b-d44e-4915-be2b-88d31424b91c.jpg\"]","trial_type":"similarity","trial_index":148,"time_elapsed":1051484,"internal_node_id":"0.0-6.0-142.0"},{"sim_score":6,"rt":4989,"stimulus":"[\"img/0866/be24ab58-230e-4db8-9f45-ff04c9aec6bb.jpg\",\"img/0769/bb8c4e53-6f32-4814-97ee-392d4decfb2e.jpg\"]","trial_type":"similarity","trial_index":149,"time_elapsed":1057481,"internal_node_id":"0.0-6.0-143.0"},{"sim_score":5,"rt":5790,"stimulus":"[\"img/0860/61fb959d-d4d9-4de4-9e4e-4fa62b4cfcd5.jpg\",\"img/0898/82231d4c-218b-4d0a-b50d-35a49b524e97.jpg\"]","trial_type":"similarity","trial_index":150,"time_elapsed":1064277,"internal_node_id":"0.0-6.0-144.0"},{"sim_score":6,"rt":6236,"stimulus":"[\"img/0766/a1ed3f0f-e338-4a26-8fe4-4370f0c9fa6e.jpg\",\"img/0864/8ddd2e30-a1d0-479f-9cbe-591213023893.jpg\"]","trial_type":"similarity","trial_index":151,"time_elapsed":1071521,"internal_node_id":"0.0-6.0-145.0"},{"sim_score":2,"rt":5132,"stimulus":"[\"img/0860/94ef7afc-e0e6-4a15-98c6-0bfac82bc832.jpg\",\"img/0903/f67c4ab9-f8c2-4fcd-848a-a54a7b031002.jpg\"]","trial_type":"similarity","trial_index":152,"time_elapsed":1077674,"internal_node_id":"0.0-6.0-146.0"},{"sim_score":1,"rt":5194,"stimulus":"[\"img/0867/f8159067-056c-41f1-a136-c529fe5e970a.jpg\",\"img/0764/bd2eaa3e-95a9-4a59-a78e-3f81c766eea9.jpg\"]","trial_type":"similarity","trial_index":153,"time_elapsed":1083888,"internal_node_id":"0.0-6.0-147.0"},{"sim_score":6,"rt":5631,"stimulus":"[\"img/0769/1ca58b80-2365-446d-9616-6c1719e6c46f.jpg\",\"img/0904/1d10df11-b5c8-4370-9a6b-097a7f965895.jpg\"]","trial_type":"similarity","trial_index":154,"time_elapsed":1090535,"internal_node_id":"0.0-6.0-148.0"},{"sim_score":4,"rt":6413,"stimulus":"[\"img/0764/0e7ed062-f798-4366-8a24-6f430926f919.jpg\",\"img/0901/b123d109-47b4-4f9a-80c9-9bb16da42efa.jpg\"]","trial_type":"similarity","trial_index":155,"time_elapsed":1097963,"internal_node_id":"0.0-6.0-149.0"},{"sim_score":5,"rt":6822,"stimulus":"[\"img/0904/5aec2708-cf14-4a58-aa30-9a8a61c1be0e.jpg\",\"img/0899/0adc0bc3-6fca-4078-be6f-d45ddf1653d5.jpg\"]","trial_type":"similarity","trial_index":156,"time_elapsed":1105791,"internal_node_id":"0.0-6.0-150.0"},{"sim_score":2,"rt":4597,"stimulus":"[\"img/0862/ee3b7bff-4a70-4e84-9bea-4a565e456acb.jpg\",\"img/0867/85a96c62-548f-4994-9553-819e03c3135a.jpg\"]","trial_type":"similarity","trial_index":157,"time_elapsed":1111403,"internal_node_id":"0.0-6.0-151.0"},{"sim_score":7,"rt":5369,"stimulus":"[\"img/0766/006035d8-c736-4daf-bbe4-a9e373af9da6.jpg\",\"img/0766/33519c22-aaa4-49d7-8d49-ab551db1945e.jpg\"]","trial_type":"similarity","trial_index":158,"time_elapsed":1117787,"internal_node_id":"0.0-6.0-152.0"},{"sim_score":2,"rt":4701,"stimulus":"[\"img/0862/24cdc752-c2e5-4a17-86a6-6f2045d8553b.jpg\",\"img/0894/b2d2f66e-e480-46da-a02a-6d0c6b285d78.jpg\"]","trial_type":"similarity","trial_index":159,"time_elapsed":1123508,"internal_node_id":"0.0-6.0-153.0"},{"sim_score":5,"rt":5660,"stimulus":"[\"img/0899/00715b3f-851b-420b-a26b-d7f79f7759a9.jpg\",\"img/0901/548d1110-7cb8-42a2-9927-9798875c8b5c.jpg\"]","trial_type":"similarity","trial_index":160,"time_elapsed":1130181,"internal_node_id":"0.0-6.0-154.0"},{"sim_score":3,"rt":5780,"stimulus":"[\"img/0874/eba003b4-cdab-4eee-8bc3-f064c7d94165.jpg\",\"img/0874/31e22c7c-99aa-40b1-bf03-dd73fa2df4d6.jpg\"]","trial_type":"similarity","trial_index":161,"time_elapsed":1136967,"internal_node_id":"0.0-6.0-155.0"},{"sim_score":6,"rt":5057,"stimulus":"[\"img/0860/29a21a9f-54bb-4093-ad3f-04823ceaa89f.jpg\",\"img/0867/98d8cd96-1476-4fe0-a3a3-04f875500a1b.jpg\"]","trial_type":"similarity","trial_index":162,"time_elapsed":1143040,"internal_node_id":"0.0-6.0-156.0"},{"sim_score":6,"rt":7768,"stimulus":"[\"img/0901/4f9cffe0-c0be-4d7f-bacd-9d51efd19b4a.jpg\",\"img/0881/ed4c971f-0873-4fc8-b6d6-e8bbd82f0bcc.jpg\"]","trial_type":"similarity","trial_index":163,"time_elapsed":1151823,"internal_node_id":"0.0-6.0-157.0"},{"sim_score":3,"rt":4984,"stimulus":"[\"img/0903/b4a0f61e-a964-4b79-a9a7-f767a8f92f34.jpg\",\"img/0902/cf9dee9c-2bdf-4d64-9302-97f1660fe52c.jpg\"]","trial_type":"similarity","trial_index":164,"time_elapsed":1157824,"internal_node_id":"0.0-6.0-158.0"},{"sim_score":5,"rt":7213,"stimulus":"[\"img/0860/c7047cd2-7cc1-41b6-8a34-c0986774975f.jpg\",\"img/0764/974d52cc-6318-4e7a-b294-2f3e92ff800f.jpg\"]","trial_type":"similarity","trial_index":165,"time_elapsed":1166065,"internal_node_id":"0.0-6.0-159.0"},{"sim_score":2,"rt":4691,"stimulus":"[\"img/0902/d1083f2c-5520-44ec-81a8-3f856fbf0e80.jpg\",\"img/0875/2e13d160-eea1-416b-aff1-d37ab99ecc1d.jpg\"]","trial_type":"similarity","trial_index":166,"time_elapsed":1171763,"internal_node_id":"0.0-6.0-160.0"},{"sim_score":3,"rt":6706,"stimulus":"[\"img/0898/661621d4-a14e-487c-8c74-354134a29710.jpg\",\"img/0862/99a99e39-8355-44ec-b993-e7bcec111e1c.jpg\"]","trial_type":"similarity","trial_index":167,"time_elapsed":1179475,"internal_node_id":"0.0-6.0-161.0"},{"sim_score":7,"rt":5107,"stimulus":"[\"img/0894/7dd6ff43-f8fc-408a-8a41-a2b261871820.jpg\",\"img/0875/5a1e5100-0d94-4fec-bbe9-ca9894d2cf8e.jpg\"]","trial_type":"similarity","trial_index":168,"time_elapsed":1185593,"internal_node_id":"0.0-6.0-162.0"},{"sim_score":4,"rt":4167,"stimulus":"[\"img/0866/0207e9a2-7dbb-40b5-9459-b472aaeceb2a.jpg\",\"img/0864/65210d57-1153-4657-886a-32e758f49b4a.jpg\"]","trial_type":"similarity","trial_index":169,"time_elapsed":1190765,"internal_node_id":"0.0-6.0-163.0"},{"sim_score":4,"rt":5997,"stimulus":"[\"img/0766/0bf3793e-c353-45e5-ac6f-753f5f484e10.jpg\",\"img/0862/53a9cf7c-93c4-41b9-952f-07d17f7a17b2.jpg\"]","trial_type":"similarity","trial_index":170,"time_elapsed":1197777,"internal_node_id":"0.0-6.0-164.0"},{"sim_score":6,"rt":4740,"stimulus":"[\"img/0866/a15b02be-11bb-43e3-b0e0-ecc3bd7dfc49.jpg\",\"img/0874/767f289c-9814-4496-803f-745cc8913d1f.jpg\"]","trial_type":"similarity","trial_index":171,"time_elapsed":1203527,"internal_node_id":"0.0-6.0-165.0"},{"sim_score":5,"rt":4998,"stimulus":"[\"img/0862/d0ca4c78-fc35-46ed-bdcc-8e124283c53e.jpg\",\"img/0860/9593362c-9fe5-4d12-9735-6000a11f6aa5.jpg\"]","trial_type":"similarity","trial_index":172,"time_elapsed":1209533,"internal_node_id":"0.0-6.0-166.0"},{"sim_score":5,"rt":4857,"stimulus":"[\"img/0766/79767d11-b612-4e8a-9e4b-a8ac95bb6a54.jpg\",\"img/0901/04a53755-6da5-44d4-a7a6-48a6bc0a2280.jpg\"]","trial_type":"similarity","trial_index":173,"time_elapsed":1222258,"internal_node_id":"0.0-6.0-167.0"},{"sim_score":5,"rt":4566,"stimulus":"[\"img/0862/1c20f772-3a51-4a80-aac0-f57dc9f86c28.jpg\",\"img/0862/fad1d7c1-8187-43c3-942a-0fc12183e48e.jpg\"]","trial_type":"similarity","trial_index":174,"time_elapsed":1227837,"internal_node_id":"0.0-6.0-168.0"},{"sim_score":3,"rt":5156,"stimulus":"[\"img/0894/bd34223a-2f66-4e16-9d18-193a746b69ff.jpg\",\"img/0764/4bec8d92-75aa-475a-954d-8215dbe538f5.jpg\"]","trial_type":"similarity","trial_index":175,"time_elapsed":1233997,"internal_node_id":"0.0-6.0-169.0"},{"sim_score":2,"rt":5935,"stimulus":"[\"img/0874/a82926a3-0b43-4add-803c-d5f9ea7798ee.jpg\",\"img/0898/0c7dde4f-efce-4b7a-9387-6921635b7890.jpg\"]","trial_type":"similarity","trial_index":176,"time_elapsed":1240950,"internal_node_id":"0.0-6.0-170.0"},{"sim_score":2,"rt":6103,"stimulus":"[\"img/0860/8277806e-b684-4474-8f7b-3fca946d7d4f.jpg\",\"img/0766/2e1cf445-9aef-40e7-92f4-5facf48b64c5.jpg\"]","trial_type":"similarity","trial_index":177,"time_elapsed":1248068,"internal_node_id":"0.0-6.0-171.0"},{"sim_score":2,"rt":4142,"stimulus":"[\"img/0898/68476bbb-34a1-42d9-8bc1-deab783d4489.jpg\",\"img/0864/5f33e097-23e3-4002-882d-76e8cb15f451.jpg\"]","trial_type":"similarity","trial_index":178,"time_elapsed":1253225,"internal_node_id":"0.0-6.0-172.0"},{"sim_score":6,"rt":5391,"stimulus":"[\"img/0881/f8bd891e-aa09-4782-89db-33e7cb2b0cf1.jpg\",\"img/0764/c84fbfa8-521c-407a-9bd3-24f7308d896c.jpg\"]","trial_type":"similarity","trial_index":179,"time_elapsed":1259635,"internal_node_id":"0.0-6.0-173.0"},{"sim_score":1,"rt":4031,"stimulus":"[\"img/0898/f3a3f225-1248-4ac7-b93b-f0ff28485bf3.jpg\",\"img/0868/8b0b8473-e2c0-4331-aa56-c3a5c29369da.jpg\"]","trial_type":"similarity","trial_index":180,"time_elapsed":1264680,"internal_node_id":"0.0-6.0-174.0"},{"sim_score":7,"rt":5060,"stimulus":"[\"img/0864/c22faebd-9c53-47bc-ada3-b9a30c688e75.jpg\",\"img/0864/66091c27-e588-4476-8af9-265dc6be4156.jpg\"]","trial_type":"similarity","trial_index":181,"time_elapsed":1270759,"internal_node_id":"0.0-6.0-175.0"},{"sim_score":1,"rt":6110,"stimulus":"[\"img/0899/25ae6ec8-9565-49fe-a8bb-8d0666f52716.jpg\",\"img/0862/f188d4f0-76a4-4102-818c-a209969d73a5.jpg\"]","trial_type":"similarity","trial_index":182,"time_elapsed":1277880,"internal_node_id":"0.0-6.0-176.0"},{"sim_score":5,"rt":6030,"stimulus":"[\"img/0875/90da8d75-108a-44ad-b999-e21fee3860d3.jpg\",\"img/0758/7fba58df-2a7a-4b76-8a8f-62739f97f271.jpg\"]","trial_type":"similarity","trial_index":183,"time_elapsed":1284928,"internal_node_id":"0.0-6.0-177.0"},{"sim_score":2,"rt":4411,"stimulus":"[\"img/0866/11a1d141-be5e-443c-98c1-a9d4d9e3dec0.jpg\",\"img/0901/233a6948-48eb-4b67-8259-222b916b2322.jpg\"]","trial_type":"similarity","trial_index":184,"time_elapsed":1290352,"internal_node_id":"0.0-6.0-178.0"},{"sim_score":1,"rt":4592,"stimulus":"[\"img/0769/48a1144d-fbda-4809-991b-fc8424a32ee4.jpg\",\"img/0874/8cdb1c07-1c32-46d2-981c-3636560fa6e5.jpg\"]","trial_type":"similarity","trial_index":185,"time_elapsed":1295955,"internal_node_id":"0.0-6.0-179.0"},{"sim_score":7,"rt":4546,"stimulus":"[\"img/0875/5a716432-c6ca-4b1c-955a-2b8ac25198ee.jpg\",\"img/0881/b1a136f7-8511-4d3a-a0f6-3879acf1e1a1.jpg\"]","trial_type":"similarity","trial_index":186,"time_elapsed":1301509,"internal_node_id":"0.0-6.0-180.0"},{"sim_score":7,"rt":5303,"stimulus":"[\"img/0866/c446214b-a368-4c65-ae39-ea46894256ab.jpg\",\"img/0868/fd307a36-9a3a-47d7-ab7c-f810d0b35040.jpg\"]","trial_type":"similarity","trial_index":187,"time_elapsed":1307817,"internal_node_id":"0.0-6.0-181.0"},{"sim_score":6,"rt":4860,"stimulus":"[\"img/0899/57476fed-5962-4272-8fc9-b317bb777b54.jpg\",\"img/0758/b76ceca7-95ac-46e4-ac13-da02c8e93be9.jpg\"]","trial_type":"similarity","trial_index":188,"time_elapsed":1313692,"internal_node_id":"0.0-6.0-182.0"},{"sim_score":1,"rt":4020,"stimulus":"[\"img/0874/ca23d307-fc00-4d7d-9106-584c6eb21b4d.jpg\",\"img/0875/2c361b79-c3d1-4eda-812e-bf03192407bf.jpg\"]","trial_type":"similarity","trial_index":189,"time_elapsed":1318730,"internal_node_id":"0.0-6.0-183.0"},{"sim_score":2,"rt":4234,"stimulus":"[\"img/0904/09dac84f-3d1c-4445-a68e-d0389fdbf1e9.jpg\",\"img/0862/de9ad88c-b522-430a-8ee9-eb06a9f85df5.jpg\"]","trial_type":"similarity","trial_index":190,"time_elapsed":1323969,"internal_node_id":"0.0-6.0-184.0"},{"sim_score":5,"rt":5184,"stimulus":"[\"img/0902/d49743d6-67ae-4c2e-a939-8fd895a0f18e.jpg\",\"img/0766/e8052e17-9dae-4139-802b-6e590cb2d526.jpg\"]","trial_type":"similarity","trial_index":191,"time_elapsed":1330164,"internal_node_id":"0.0-6.0-185.0"},{"sim_score":4,"rt":5787,"stimulus":"[\"img/0758/20497cbe-ddae-489e-86e2-ab06985ed07c.jpg\",\"img/0769/3adfa417-3b90-4aab-b437-5eaa474189cb.jpg\"]","trial_type":"similarity","trial_index":192,"time_elapsed":1336964,"internal_node_id":"0.0-6.0-186.0"},{"sim_score":5,"rt":5917,"stimulus":"[\"img/0881/f6bd3b96-dc40-4e99-8681-bc3a35cf896d.jpg\",\"img/0881/5fe04dd0-5c74-47b7-99c8-b068db9ca26a.jpg\"]","trial_type":"similarity","trial_index":193,"time_elapsed":1343908,"internal_node_id":"0.0-6.0-187.0"},{"sim_score":2,"rt":8124,"stimulus":"[\"img/0758/2fa3e613-e676-4e6e-bd12-705327eeb3e1.jpg\",\"img/0866/9b38d691-1802-4959-ab3f-fc902f0e4ea6.jpg\"]","trial_type":"similarity","trial_index":194,"time_elapsed":1353048,"internal_node_id":"0.0-6.0-188.0"},{"sim_score":6,"rt":5024,"stimulus":"[\"img/0764/e30dba15-e68a-4659-89db-e1654b52fe02.jpg\",\"img/0898/81b08535-2020-4c15-9ce4-2f1e460755ae.jpg\"]","trial_type":"similarity","trial_index":195,"time_elapsed":1359089,"internal_node_id":"0.0-6.0-189.0"},{"sim_score":5,"rt":3980,"stimulus":"[\"img/0903/70d764d9-1f35-4da7-a35d-4cc39834d270.jpg\",\"img/0901/875dedb9-24c9-4443-9f8c-85e97d70ee5a.jpg\"]","trial_type":"similarity","trial_index":196,"time_elapsed":1364085,"internal_node_id":"0.0-6.0-190.0"},{"sim_score":6,"rt":4274,"stimulus":"[\"img/0902/af45fe42-178c-4c1a-99ef-256e87e3b092.jpg\",\"img/0898/ec565187-2e31-4fdd-9a5c-153d0c789ae0.jpg\"]","trial_type":"similarity","trial_index":197,"time_elapsed":1369373,"internal_node_id":"0.0-6.0-191.0"},{"sim_score":3,"rt":4365,"stimulus":"[\"img/0864/6e846d43-94a6-4b37-a268-65eda979f052.jpg\",\"img/0901/1e23ffbd-19de-4c4f-aa23-c54aaa3319a3.jpg\"]","trial_type":"similarity","trial_index":198,"time_elapsed":1374745,"internal_node_id":"0.0-6.0-192.0"},{"sim_score":3,"rt":5286,"stimulus":"[\"img/0894/5a49e858-2850-4892-9a06-e9f0efb5f94d.jpg\",\"img/0881/44e09805-5a25-4f17-a716-4ad4a331b174.jpg\"]","trial_type":"similarity","trial_index":199,"time_elapsed":1381049,"internal_node_id":"0.0-6.0-193.0"},{"sim_score":6,"rt":5508,"stimulus":"[\"img/0868/6a28c3b0-3d76-498a-9fb7-ddafc665eca8.jpg\",\"img/0868/3a62db2d-97e9-44a3-b8e3-a48c6f0e423b.jpg\"]","trial_type":"similarity","trial_index":200,"time_elapsed":1387565,"internal_node_id":"0.0-6.0-194.0"},{"sim_score":7,"rt":5265,"stimulus":"[\"img/0899/76ad07e2-ca25-45eb-84f2-8d80b8ca3e26.jpg\",\"img/0764/d7c215ab-ea9a-45be-8d5f-417d5b9a8a17.jpg\"]","trial_type":"similarity","trial_index":201,"time_elapsed":1393844,"internal_node_id":"0.0-6.0-195.0"},{"sim_score":6,"rt":5188,"stimulus":"[\"img/0881/405484ae-0d00-4b05-bc57-6420a36adfac.jpg\",\"img/0904/25365108-e038-4021-aac9-797f2063b337.jpg\"]","trial_type":"similarity","trial_index":202,"time_elapsed":1400043,"internal_node_id":"0.0-6.0-196.0"},{"sim_score":2,"rt":5366,"stimulus":"[\"img/0864/0116ca98-293d-4fa6-a93b-5a6144ef64cc.jpg\",\"img/0902/f3cfec34-482c-4bdb-9c92-19ea6cfce183.jpg\"]","trial_type":"similarity","trial_index":203,"time_elapsed":1406426,"internal_node_id":"0.0-6.0-197.0"},{"sim_score":1,"rt":4025,"stimulus":"[\"img/0894/6b2e9509-8699-42b7-9582-7741df0ba2d7.jpg\",\"img/0904/2f88ce53-02d0-4f95-a082-182c56a0eeb4.jpg\"]","trial_type":"similarity","trial_index":204,"time_elapsed":1411467,"internal_node_id":"0.0-6.0-198.0"},{"sim_score":5,"rt":4907,"stimulus":"[\"img/0901/effc03f6-8f9d-46db-a66c-16fc83891c5c.jpg\",\"img/0901/31c032fd-3c3d-4882-a226-da9a80198937.jpg\"]","trial_type":"similarity","trial_index":205,"time_elapsed":1417380,"internal_node_id":"0.0-6.0-199.0"},{"sim_score":7,"rt":3977,"stimulus":"[\"img/0894/05161000-f476-499b-a878-c13c7f347fd9.jpg\",\"img/0860/b03b963d-949b-4d8d-b19c-4950c89eeca2.jpg\"]","trial_type":"similarity","trial_index":206,"time_elapsed":1422378,"internal_node_id":"0.0-6.0-200.0"},{"sim_score":6,"rt":4689,"stimulus":"[\"img/0898/26c41340-15bd-4ead-8fe4-c0d0ddca09c2.jpg\",\"img/0903/6b5dcc60-3ad3-4962-93e5-e6cf768477af.jpg\"]","trial_type":"similarity","trial_index":207,"time_elapsed":1428084,"internal_node_id":"0.0-6.0-201.0"},{"sim_score":3,"rt":5084,"stimulus":"[\"img/0864/5f74a653-3bdc-4308-8cca-ac667dc22e1f.jpg\",\"img/0894/7fb082e0-ce79-485c-9109-04367fb32275.jpg\"]","trial_type":"similarity","trial_index":208,"time_elapsed":1434174,"internal_node_id":"0.0-6.0-202.0"},{"sim_score":6,"rt":3656,"stimulus":"[\"img/0874/7e4f2150-3b59-4a36-b5da-a4e0ba410531.jpg\",\"img/0860/18dfed73-e36b-4487-a8bd-0b8cff8e3668.jpg\"]","trial_type":"similarity","trial_index":209,"time_elapsed":1438849,"internal_node_id":"0.0-6.0-203.0"},{"sim_score":3,"rt":5927,"stimulus":"[\"img/0862/47ed5efd-4ec9-4b74-bb4e-a5f5cf0c3e7d.jpg\",\"img/0875/dbdd643e-6d0e-4a5c-ab57-b9c29b9c981a.jpg\"]","trial_type":"similarity","trial_index":210,"time_elapsed":1445780,"internal_node_id":"0.0-6.0-204.0"},{"sim_score":6,"rt":4225,"stimulus":"[\"img/0867/c66898ba-b71b-4d50-84f9-f7f84853a98d.jpg\",\"img/0881/62a64f90-7a72-4aee-a1a1-0c548ac9bdda.jpg\"]","trial_type":"similarity","trial_index":211,"time_elapsed":1451014,"internal_node_id":"0.0-6.0-205.0"},{"sim_score":7,"rt":4302,"stimulus":"[\"img/0901/8bb79e82-9c43-4b6f-a655-40655519598b.jpg\",\"img/0902/30c420f5-c714-4681-ae5a-c0ba8f636a26.jpg\"]","trial_type":"similarity","trial_index":212,"time_elapsed":1456323,"internal_node_id":"0.0-6.0-206.0"},{"sim_score":5,"rt":5384,"stimulus":"[\"img/0899/5b56dd3e-3f49-47cc-af84-16da6457753b.jpg\",\"img/0864/b3c4e378-28f0-4699-9338-2a257b4bca04.jpg\"]","trial_type":"similarity","trial_index":213,"time_elapsed":1462722,"internal_node_id":"0.0-6.0-207.0"},{"sim_score":3,"rt":4485,"stimulus":"[\"img/0901/2a953e50-d237-405c-a38d-5ed21494c968.jpg\",\"img/0769/8c7cf147-1780-4d5c-8ddf-5ea23ff03ac9.jpg\"]","trial_type":"similarity","trial_index":214,"time_elapsed":1468224,"internal_node_id":"0.0-6.0-208.0"},{"sim_score":6,"rt":4528,"stimulus":"[\"img/0902/b56db912-c3c0-4fc2-b325-d640acd7cb58.jpg\",\"img/0902/31abfa33-7cdb-44ad-968e-9f7b324d577a.jpg\"]","trial_type":"similarity","trial_index":215,"time_elapsed":1476771,"internal_node_id":"0.0-6.0-209.0"},{"view_history":"[{\"page_index\":0,\"viewing_time\":8672}]","rt":8673,"trial_type":"instructions","trial_index":216,"time_elapsed":1486457,"internal_node_id":"0.0-7.0"},{"rt":29740,"responses":"{\"Q0\":\"Tennessee Warbler\"}","answer":["Nashville Warbler"],"trial_type":"image-multi-choice","trial_index":217,"time_elapsed":1517257,"internal_node_id":"0.0-8.0-0.0"},{"rt":12755,"responses":"{\"Q0\":\"Black-and-white Warbler\"}","answer":["Black-and-white Warbler"],"trial_type":"image-multi-choice","trial_index":218,"time_elapsed":1531045,"internal_node_id":"0.0-8.0-1.0"},{"rt":17975,"responses":"{\"Q0\":\"Fox Sparrow\"}","answer":["Townsend's Warbler"],"trial_type":"image-multi-choice","trial_index":219,"time_elapsed":1550038,"internal_node_id":"0.0-8.0-2.0"},{"rt":25275,"responses":"{\"Q0\":\"Swamp Sparrow\"}","answer":["Lark Sparrow"],"trial_type":"image-multi-choice","trial_index":220,"time_elapsed":1576345,"internal_node_id":"0.0-8.0-3.0"},{"rt":18781,"responses":"{\"Q0\":\"Orange-crowned Warbler\"}","answer":["Yellow Warbler"],"trial_type":"image-multi-choice","trial_index":221,"time_elapsed":1596164,"internal_node_id":"0.0-8.0-4.0"},{"rt":12481,"responses":"{\"Q0\":\"Tennessee Warbler\"}","answer":["Orange-crowned Warbler"],"trial_type":"image-multi-choice","trial_index":222,"time_elapsed":1609666,"internal_node_id":"0.0-8.0-5.0"},{"rt":10659,"responses":"{\"Q0\":\"Fox Sparrow\"}","answer":["White-throated Sparrow"],"trial_type":"image-multi-choice","trial_index":223,"time_elapsed":1621362,"internal_node_id":"0.0-8.0-6.0"},{"rt":8879,"responses":"{\"Q0\":\"Blackburnian Warbler\"}","answer":["Fox Sparrow"],"trial_type":"image-multi-choice","trial_index":224,"time_elapsed":1631266,"internal_node_id":"0.0-8.0-7.0"},{"rt":13942,"responses":"{\"Q0\":\"Song Sparrow\"}","answer":["Song Sparrow"],"trial_type":"image-multi-choice","trial_index":225,"time_elapsed":1646241,"internal_node_id":"0.0-8.0-8.0"},{"rt":6102,"responses":"{\"Q0\":\"Black-and-white Warbler\"}","answer":["Blackburnian Warbler"],"trial_type":"image-multi-choice","trial_index":226,"time_elapsed":1653368,"internal_node_id":"0.0-8.0-9.0"},{"rt":11324,"responses":"{\"Q0\":\"Lark Sparrow\"}","answer":["Vesper Sparrow"],"trial_type":"image-multi-choice","trial_index":227,"time_elapsed":1665732,"internal_node_id":"0.0-8.0-10.0"},{"rt":12924,"responses":"{\"Q0\":\"Lincoln's Sparrow\"}","answer":["White-crowned Sparrow"],"trial_type":"image-multi-choice","trial_index":228,"time_elapsed":1679694,"internal_node_id":"0.0-8.0-11.0"},{"rt":9347,"responses":"{\"Q0\":\"Nashville Warbler\"}","answer":["American Tree Sparrow"],"trial_type":"image-multi-choice","trial_index":229,"time_elapsed":1690080,"internal_node_id":"0.0-8.0-12.0"},{"rt":7603,"responses":"{\"Q0\":\"Townsend's Warbler\"}","answer":["Tennessee Warbler"],"trial_type":"image-multi-choice","trial_index":230,"time_elapsed":1698713,"internal_node_id":"0.0-8.0-13.0"},{"rt":9387,"responses":"{\"Q0\":\"Northern Waterthrush\"}","answer":["Magnolia Warbler"],"trial_type":"image-multi-choice","trial_index":231,"time_elapsed":1709137,"internal_node_id":"0.0-8.0-14.0"},{"rt":5901,"responses":"{\"Q0\":\"Swamp Sparrow\"}","answer":["Northern Waterthrush"],"trial_type":"image-multi-choice","trial_index":232,"time_elapsed":1716063,"internal_node_id":"0.0-8.0-15.0"},{"rt":9392,"responses":"{\"Q0\":\"American Tree Sparrow\"}","answer":["Chipping Sparrow"],"trial_type":"image-multi-choice","trial_index":233,"time_elapsed":1726490,"internal_node_id":"0.0-8.0-16.0"},{"rt":5839,"responses":"{\"Q0\":\"Vesper Sparrow\"}","answer":["Swamp Sparrow"],"trial_type":"image-multi-choice","trial_index":234,"time_elapsed":1733366,"internal_node_id":"0.0-8.0-17.0"},{"rt":18694,"responses":"{\"Q0\":\"Lark Sparrow\"}","answer":["Lincoln's Sparrow"],"trial_type":"image-multi-choice","trial_index":235,"time_elapsed":1753095,"internal_node_id":"0.0-8.0-18.0"},{"rt":13206,"responses":"{\"Q0\":\"Townsend's Warbler\"}","answer":["Ovenbird"],"trial_type":"image-multi-choice","trial_index":236,"time_elapsed":1767335,"internal_node_id":"0.0-8.0-19.0"}]