"view_history","rt","trial_type","trial_index","time_elapsed","internal_node_id","sim_score","stimulus","responses","answer"
"[{""page_index"":0,""viewing_time"":1052262}]","1052263","instructions","0","1052265","0.0-0.0","","","",""
"","6638","similarity_demo","1","1059918","0.0-1.0","6","[""img/866.jpg"",""img/868.jpg""]","",""
"[{""page_index"":0,""viewing_time"":7675}]","7675","instructions","2","1068622","0.0-2.0","","","",""
"","5216","similarity_demo","3","1074855","0.0-3.0","1","[""img/766.jpg"",""img/867.jpg""]","",""
"[{""page_index"":0,""viewing_time"":3581}]","3581","instructions","4","1079461","0.0-4.0","","","",""
"[{""page_index"":0,""viewing_time"":11107}]","11108","instructions","5","1091569","0.0-5.0","","","",""
"","3373","similarity","6","1095967","0.0-6.0-0.0","1","[""img/0868/1a62b2b2-18f5-466e-b564-5176a57c565e.jpg"",""img/0901/d61f267a-c492-4db6-9bfb-61efd49cf072.jpg""]","",""
"","3267","similarity","7","1100261","0.0-6.0-1.0","1","[""img/0769/48a1144d-fbda-4809-991b-fc8424a32ee4.jpg"",""img/0867/bf560d4f-dee3-4f11-a385-705cc1aa5f3c.jpg""]","",""
"","4640","similarity","8","1105934","0.0-6.0-2.0","5","[""img/0766/ae0fce93-fe8d-4aa1-87ca-4c3e4b889f2f.jpg"",""img/0898/6cd3830b-d44e-4915-be2b-88d31424b91c.jpg""]","",""
"","3307","similarity","9","1110256","0.0-6.0-3.0","1","[""img/0902/ca3160ba-ad5d-459f-a1b6-8b4f3c85ecd5.jpg"",""img/0881/ee44e27f-d662-4608-b265-e7ffa19b216f.jpg""]","",""
"","5531","similarity","10","1116802","0.0-6.0-4.0","7","[""img/0894/7fb082e0-ce79-485c-9109-04367fb32275.jpg"",""img/0894/38cf335f-f76f-4349-8d65-e20cd6859565.jpg""]","",""
"","2913","similarity","11","1120731","0.0-6.0-5.0","1","[""img/0874/1016b306-087c-4afc-aa08-fa527b28dc76.jpg"",""img/0899/a05bea16-2bb4-4cb9-b8fb-4ff975db6971.jpg""]","",""
"","4193","similarity","12","1125946","0.0-6.0-6.0","6","[""img/0904/4d7d70a3-9477-4921-bda0-f9531d0a5c5b.jpg"",""img/0764/a86eed5b-d0af-4c3f-8c7a-26e98e98cf1a.jpg""]","",""
"","3506","similarity","13","1130462","0.0-6.0-7.0","6","[""img/0899/d8f2dd94-570e-4e8c-a087-d96090fb9e8c.jpg"",""img/0898/661621d4-a14e-487c-8c74-354134a29710.jpg""]","",""
"","2930","similarity","14","1134411","0.0-6.0-8.0","1","[""img/0874/995f0332-0439-4eb4-add3-957335dbf6d9.jpg"",""img/0903/6f343da5-00d9-4d50-89d1-2ed24cdb8319.jpg""]","",""
"","3473","similarity","15","1138900","0.0-6.0-9.0","7","[""img/0881/dea58fad-b4f1-41d9-bd3f-916eff19a3fd.jpg"",""img/0758/d540bee6-b460-4c32-ac57-bc282742d7d4.jpg""]","",""
"","4357","similarity","16","1144284","0.0-6.0-10.0","6","[""img/0898/0c7dde4f-efce-4b7a-9387-6921635b7890.jpg"",""img/0901/233a6948-48eb-4b67-8259-222b916b2322.jpg""]","",""
"","3742","similarity","17","1149056","0.0-6.0-11.0","4","[""img/0903/647ce311-8c71-479a-8361-961db1457139.jpg"",""img/0769/91acb237-65a3-4d0b-9748-af5c7b83d3c7.jpg""]","",""
"","3338","similarity","18","1153423","0.0-6.0-12.0","1","[""img/0764/d0bef2e0-e16b-4c82-9451-c1d16265eb67.jpg"",""img/0868/83b4350a-3b70-4cea-b7f5-b5b56f3050a8.jpg""]","",""
"","2812","similarity","19","1157255","0.0-6.0-13.0","1","[""img/0867/075e0f95-856b-4cbb-acf5-092393aaf04e.jpg"",""img/0903/d987e220-f3e6-4b6d-a270-fe6757041f6d.jpg""]","",""
"","2699","similarity","20","1160970","0.0-6.0-14.0","1","[""img/0766/d919cedb-f9b7-4f30-83bb-3e9c65001ceb.jpg"",""img/0758/a709631e-3705-4725-ac40-f0d916924f08.jpg""]","",""
"","2510","similarity","21","1164508","0.0-6.0-15.0","1","[""img/0902/44cd9b7e-fdfb-4f78-90de-8d4c9d279365.jpg"",""img/0860/8fdba999-b946-4c7d-9891-336018b563ef.jpg""]","",""
"","3445","similarity","22","1168961","0.0-6.0-16.0","1","[""img/0769/8056889f-2b14-4782-bb25-b4e8896ab65b.jpg"",""img/0875/ebf7653f-ff45-4e9f-af58-2c042ab3cd2b.jpg""]","",""
"","3111","similarity","23","1173089","0.0-6.0-17.0","1","[""img/0904/da170c1b-9651-4f08-b231-2bdd1d9a046f.jpg"",""img/0866/a04d37f0-99dd-478a-b6c6-58b215138f84.jpg""]","",""
"","2949","similarity","24","1177053","0.0-6.0-18.0","7","[""img/0875/5a7c4e35-6514-4e12-8879-d16071da4cd6.jpg"",""img/0875/a4935837-7d3c-4df6-88c1-36a94d4991ca.jpg""]","",""
"","5018","similarity","25","1183091","0.0-6.0-19.0","7","[""img/0758/caa93da2-9edf-49fa-96b9-32dedd8f5078.jpg"",""img/0758/6e95579b-5166-487c-b8cb-e417c6a218e3.jpg""]","",""
"","3140","similarity","26","1187250","0.0-6.0-20.0","1","[""img/0902/a6fb6dd5-696c-47ec-be7d-d7b88f1544f1.jpg"",""img/0874/adf9a8f1-c40b-402b-b95b-1e85a54a7b62.jpg""]","",""
"","3066","similarity","27","1191328","0.0-6.0-21.0","6","[""img/0764/438c0217-036f-43c9-9b87-f43144e46011.jpg"",""img/0769/da36e3f7-2337-434f-ab57-11822dd7eed7.jpg""]","",""
"","3546","similarity","28","1195896","0.0-6.0-22.0","1","[""img/0901/443f2e59-199b-4f7b-9de9-c44ad97326a5.jpg"",""img/0874/767f289c-9814-4496-803f-745cc8913d1f.jpg""]","",""
"","2642","similarity","29","1199568","0.0-6.0-23.0","1","[""img/0875/2e13d160-eea1-416b-aff1-d37ab99ecc1d.jpg"",""img/0903/07b445ee-0cdb-4d2c-a23b-d727613f4059.jpg""]","",""
"","3783","similarity","30","1204371","0.0-6.0-24.0","1","[""img/0769/878531fd-e0e8-4ad1-b9ad-f018bb104ca0.jpg"",""img/0881/f4e3e181-b3c9-4af2-a5a4-fc135ab70d2e.jpg""]","",""
"","3039","similarity","31","1208443","0.0-6.0-25.0","1","[""img/0867/7d1c497b-c1b3-4ed8-abb5-d7f73306015f.jpg"",""img/0904/9dd5708f-3f8b-46a9-b49f-2f2fab87b357.jpg""]","",""
"","2995","similarity","32","1212452","0.0-6.0-26.0","5","[""img/0860/c7047cd2-7cc1-41b6-8a34-c0986774975f.jpg"",""img/0881/7e31e5dc-2240-4b1b-b5a0-3acd980099ef.jpg""]","",""
"","3975","similarity","33","1217456","0.0-6.0-27.0","6","[""img/0866/07c9c966-3c8d-40e7-8128-92b2acbaed5d.jpg"",""img/0866/02f5e6b9-52b7-448c-9708-5b460d0c9a23.jpg""]","",""
"","3316","similarity","34","1221791","0.0-6.0-28.0","1","[""img/0764/f2f23359-8e82-41d3-8900-5b9f4433991d.jpg"",""img/0862/ad593cc7-cabe-4bb7-8e14-8a447a0717b4.jpg""]","",""
"","4500","similarity","35","1227310","0.0-6.0-29.0","1","[""img/0904/9d30eff1-46ef-4453-b11e-124ef8145c00.jpg"",""img/0758/61d64021-9214-4951-bdf8-f871f9827cf9.jpg""]","",""
"","5874","similarity","36","1234205","0.0-6.0-30.0","5","[""img/0894/11674fa4-285d-44e2-939f-2228c6a64080.jpg"",""img/0899/8de08897-b430-42fe-9d42-840670b80f94.jpg""]","",""
"","3786","similarity","37","1239036","0.0-6.0-31.0","1","[""img/0860/c5ccd1a4-4bb7-48e1-9b25-72cfaf06909b.jpg"",""img/0904/0d17b811-063e-416e-a23c-3b3cfa4fcce5.jpg""]","",""
"","4121","similarity","38","1244162","0.0-6.0-32.0","6","[""img/0874/bf14b896-e930-4fd9-9c05-2e83317a2773.jpg"",""img/0881/2a8413be-fec2-4de6-88ad-614dd4cccc9d.jpg""]","",""
"","3125","similarity","39","1248306","0.0-6.0-33.0","1","[""img/0881/ed4c971f-0873-4fc8-b6d6-e8bbd82f0bcc.jpg"",""img/0899/8abe6c69-822c-436c-9bf2-96c818b49ba5.jpg""]","",""
"","3747","similarity","40","1253072","0.0-6.0-34.0","5","[""img/0866/c446214b-a368-4c65-ae39-ea46894256ab.jpg"",""img/0862/d0ca4c78-fc35-46ed-bdcc-8e124283c53e.jpg""]","",""
"","3202","similarity","41","1257287","0.0-6.0-35.0","1","[""img/0868/5fa7f9d0-f0e5-454c-8224-74d964818f56.jpg"",""img/0894/e2446cf5-cd48-486a-badc-76498e087fbe.jpg""]","",""
"","3578","similarity","42","1261880","0.0-6.0-36.0","7","[""img/0860/17b44a7d-c5ca-479f-9e87-f65a64f5c80e.jpg"",""img/0860/c3379ff7-0763-48fe-a1ec-7ea3d611bc7a.jpg""]","",""
"","2945","similarity","43","1265855","0.0-6.0-37.0","5","[""img/0862/a0a3a7ba-7798-46a3-b4ca-05e1f6e581d0.jpg"",""img/0864/300bb811-8b3c-4c42-8653-6097c3725197.jpg""]","",""
"","2855","similarity","44","1269737","0.0-6.0-38.0","1","[""img/0766/ba35c0fc-4d5b-490d-959e-c94b279cdd02.jpg"",""img/0866/620cd1aa-0800-4414-8f6e-90342e7a99ad.jpg""]","",""
"","3417","similarity","45","1274164","0.0-6.0-39.0","1","[""img/0875/34132396-d896-4c2d-8087-646dd867e769.jpg"",""img/0898/cd3aaa3f-efa9-4ab3-8d6f-a6a9273ddf42.jpg""]","",""
"","3267","similarity","46","1278451","0.0-6.0-40.0","6","[""img/0766/989c5c7f-1aff-4442-ac63-9d46acf4a891.jpg"",""img/0769/38a88f69-28fd-4bbd-99f0-f4c02bfd3995.jpg""]","",""
"","3384","similarity","47","1285461","0.0-6.0-41.0","1","[""img/0874/3f471690-9788-4d03-90c7-f615aecef149.jpg"",""img/0764/6fbd1902-fa2a-48d8-bc11-705b8ab68d8f.jpg""]","",""
"","3966","similarity","48","1290448","0.0-6.0-42.0","1","[""img/0868/179a5502-ab5c-478e-8263-5a1fbcc101d2.jpg"",""img/0902/10d99c89-71f7-4c81-a31e-dfc7c59f5232.jpg""]","",""
"","2813","similarity","49","1294269","0.0-6.0-43.0","1","[""img/0875/d59ff733-eaff-4ee2-9443-06954dd0bcb6.jpg"",""img/0899/06b0fc99-0581-461a-9913-d1a5a941ac61.jpg""]","",""
"","2878","similarity","50","1298166","0.0-6.0-44.0","5","[""img/0866/23a224f3-2012-4fc8-8e0f-3c36f8de27fd.jpg"",""img/0860/524b2e98-5767-4d53-942c-ebae6925659b.jpg""]","",""
"","3888","similarity","51","1303076","0.0-6.0-45.0","5","[""img/0766/b84598d0-5b41-4841-88b0-b441b48289f5.jpg"",""img/0903/8f7f9939-b8e6-433f-93dd-b362496c80a7.jpg""]","",""
"","2702","similarity","52","1306800","0.0-6.0-46.0","6","[""img/0901/62315ff5-ed95-46b4-b099-92552079659b.jpg"",""img/0904/60d1a521-edf7-4696-9263-f21ac0e62a01.jpg""]","",""
"","3003","similarity","53","1310822","0.0-6.0-47.0","1","[""img/0758/e1ba5e53-addc-436a-b428-d34fc1b130dc.jpg"",""img/0902/b56db912-c3c0-4fc2-b325-d640acd7cb58.jpg""]","",""
"","2790","similarity","54","1314628","0.0-6.0-48.0","7","[""img/0764/1f95ab5f-fb65-4d70-b5db-d6bd6351a8aa.jpg"",""img/0764/21e3292f-01ad-4238-828b-61b817857d16.jpg""]","",""
"","4512","similarity","55","1320159","0.0-6.0-49.0","1","[""img/0866/8efcaa46-83ab-4dee-a35f-850402aa21ae.jpg"",""img/0902/0eb85fbc-27c8-41df-9d0b-a5f9efd417d1.jpg""]","",""
"","3124","similarity","56","1324312","0.0-6.0-50.0","1","[""img/0764/a3226bc4-dcc3-4608-bde8-1414d685ce5c.jpg"",""img/0758/dd559618-7f09-4a07-8018-d311c4a5ea29.jpg""]","",""
"","3372","similarity","57","1328698","0.0-6.0-51.0","5","[""img/0898/26c41340-15bd-4ead-8fe4-c0d0ddca09c2.jpg"",""img/0894/10f22b96-040c-44f4-950b-a4963f3f506c.jpg""]","",""
"","3541","similarity","58","1333252","0.0-6.0-52.0","5","[""img/0875/03c3c331-738b-4446-af92-3d7386b08c2e.jpg"",""img/0866/0207e9a2-7dbb-40b5-9459-b472aaeceb2a.jpg""]","",""
"","3455","similarity","59","1337723","0.0-6.0-53.0","6","[""img/0904/0d25eb24-bb20-4e8d-9787-8b489558b4cb.jpg"",""img/0904/09934646-45d2-4147-8fec-64a22a5ac822.jpg""]","",""
"","4259","similarity","60","1342998","0.0-6.0-54.0","7","[""img/0769/f2740c58-7c02-433f-920b-746b0b75435b.jpg"",""img/0769/3adfa417-3b90-4aab-b437-5eaa474189cb.jpg""]","",""
"","3148","similarity","61","1347167","0.0-6.0-55.0","1","[""img/0898/81b08535-2020-4c15-9ce4-2f1e460755ae.jpg"",""img/0758/b76ceca7-95ac-46e4-ac13-da02c8e93be9.jpg""]","",""
"","5228","similarity","62","1353406","0.0-6.0-56.0","5","[""img/0769/50985283-d353-4abc-9abe-14a91d56ebe6.jpg"",""img/0902/794606a0-d8a8-4e58-8bf8-9d114ed5a548.jpg""]","",""
"","2652","similarity","63","1357078","0.0-6.0-57.0","6","[""img/0864/5f74a653-3bdc-4308-8cca-ac667dc22e1f.jpg"",""img/0881/48ed65a5-471f-41af-86ec-3793805c116d.jpg""]","",""
"","2498","similarity","64","1360588","0.0-6.0-58.0","5","[""img/0758/20497cbe-ddae-489e-86e2-ab06985ed07c.jpg"",""img/0868/15dd6fd7-791e-4b53-b203-195d617521a4.jpg""]","",""
"","2691","similarity","65","1364285","0.0-6.0-59.0","1","[""img/0862/ba89835a-408c-480b-8594-ed4ffa97eb5c.jpg"",""img/0769/f6396414-6788-4d59-9683-de153298d89c.jpg""]","",""
"","3077","similarity","66","1368382","0.0-6.0-60.0","5","[""img/0764/6c7fe363-2d37-418f-9e5e-a3273af5d4fb.jpg"",""img/0903/14f179a2-8786-48a2-8377-88d1d404341b.jpg""]","",""
"","2708","similarity","67","1372129","0.0-6.0-61.0","7","[""img/0899/f95cbdb4-f804-4f5d-ad76-373ad343e658.jpg"",""img/0899/00715b3f-851b-420b-a26b-d7f79f7759a9.jpg""]","",""
"","2813","similarity","68","1375947","0.0-6.0-62.0","5","[""img/0860/61fb959d-d4d9-4de4-9e4e-4fa62b4cfcd5.jpg"",""img/0875/99698b4d-b4a1-44bc-8c83-8ea755bbbf61.jpg""]","",""
"","4570","similarity","69","1381532","0.0-6.0-63.0","5","[""img/0868/7b212364-ff5f-4e28-9241-7eb6ea00161b.jpg"",""img/0874/c0378dac-9370-439a-8b79-db27c96fb390.jpg""]","",""
"","3465","similarity","70","1386007","0.0-6.0-64.0","5","[""img/0758/d41c06bf-ebaf-454b-91c6-1a17f917b659.jpg"",""img/0862/847e5208-38ec-4f36-949c-296cdd7424ee.jpg""]","",""
"","4721","similarity","71","1391746","0.0-6.0-65.0","6","[""img/0904/9b3568cc-3cf7-42be-9df3-fdafde7a58b8.jpg"",""img/0898/e167334e-cc1d-4986-b3b1-c7bc7da64baa.jpg""]","",""
"","2913","similarity","72","1395675","0.0-6.0-66.0","5","[""img/0881/c24f3051-eefa-42de-aba6-fccb56d93c70.jpg"",""img/0866/9b38d691-1802-4959-ab3f-fc902f0e4ea6.jpg""]","",""
"","3012","similarity","73","1399695","0.0-6.0-67.0","1","[""img/0867/cc72ed48-7704-422c-86d6-467a1145287a.jpg"",""img/0898/224c1572-56b9-4f16-a9e4-6f3bc9c114bd.jpg""]","",""
"","4730","similarity","74","1405446","0.0-6.0-68.0","5","[""img/0902/31abfa33-7cdb-44ad-968e-9f7b324d577a.jpg"",""img/0764/ca9829fe-aaf8-45b8-b98a-6bae751c63dd.jpg""]","",""
"","4011","similarity","75","1410488","0.0-6.0-69.0","6","[""img/0875/cff79b3a-a797-4393-9757-6275f999ec04.jpg"",""img/0867/1719a35d-f085-48c0-9099-16c94fe418b4.jpg""]","",""
"","3487","similarity","76","1414993","0.0-6.0-70.0","5","[""img/0766/214866ee-423d-4629-9bb9-41572bdc7dac.jpg"",""img/0764/29072395-f595-4e3c-83d3-ff87010039fa.jpg""]","",""
"","3663","similarity","77","1419676","0.0-6.0-71.0","1","[""img/0894/8cadb87a-7001-4e47-99fb-1867bebf1668.jpg"",""img/0867/db7e032f-162b-46f5-ae67-2b29679adee4.jpg""]","",""
"","3446","similarity","78","1424138","0.0-6.0-72.0","1","[""img/0875/42910c99-5463-450a-a0f8-d4d060a11455.jpg"",""img/0764/b887d7c6-aa81-4637-af8e-05135757ac59.jpg""]","",""
"","3516","similarity","79","1428682","0.0-6.0-73.0","7","[""img/0867/c66898ba-b71b-4d50-84f9-f7f84853a98d.jpg"",""img/0866/a15b02be-11bb-43e3-b0e0-ecc3bd7dfc49.jpg""]","",""
"","3195","similarity","80","1432896","0.0-6.0-74.0","1","[""img/0903/b4a0f61e-a964-4b79-a9a7-f767a8f92f34.jpg"",""img/0758/53f35650-e455-4b53-8be4-c3c8271c6466.jpg""]","",""
"","2661","similarity","81","1436582","0.0-6.0-75.0","1","[""img/0766/79767d11-b612-4e8a-9e4b-a8ac95bb6a54.jpg"",""img/0868/e0aff734-077f-40dd-9781-74821abd3621.jpg""]","",""
"","3076","similarity","82","1440680","0.0-6.0-76.0","1","[""img/0874/7e4f2150-3b59-4a36-b5da-a4e0ba410531.jpg"",""img/0766/6d32752d-aa05-40dc-9541-640b6e9d6fa1.jpg""]","",""
"","2791","similarity","83","1444482","0.0-6.0-77.0","5","[""img/0881/c843e210-bdfe-4a7c-8bbe-fcea1f90fe1c.jpg"",""img/0868/4bd5105a-d2c3-4f82-8c80-57196106ba53.jpg""]","",""
"","3371","similarity","84","1448863","0.0-6.0-78.0","1","[""img/0758/7fba58df-2a7a-4b76-8a8f-62739f97f271.jpg"",""img/0901/5657dd86-0ff9-4753-ba2b-9dfb223e5c89.jpg""]","",""
"","3065","similarity","85","1452940","0.0-6.0-79.0","1","[""img/0881/d373cb9f-a719-4549-a2a4-82def79fb2a5.jpg"",""img/0898/881e2a85-d5c2-49be-a0c6-8a6ce2c4af08.jpg""]","",""
"","2934","similarity","86","1456881","0.0-6.0-80.0","5","[""img/0867/f26f6b60-f772-4f4c-95a4-addc62cfd692.jpg"",""img/0758/e38fd80d-18d0-42f3-b848-f930788e8bd7.jpg""]","",""
"","4467","similarity","87","1462357","0.0-6.0-81.0","5","[""img/0769/6c0bac4c-5f59-43c7-898c-3ca93cf55cfe.jpg"",""img/0899/4f7bc593-8ddd-4da3-a0b9-84da730d3370.jpg""]","",""
"","4523","similarity","88","1467906","0.0-6.0-82.0","7","[""img/0903/59defeb8-98bd-4570-a2f8-9bd189e68ef4.jpg"",""img/0903/680ed18e-b311-4ecf-9b00-7dea32128334.jpg""]","",""
"","2706","similarity","89","1473664","0.0-6.0-83.0","1","[""img/0867/5e07b34d-b40f-4b1c-ac10-49975bace45f.jpg"",""img/0766/75c3d627-4f3b-40d5-9d9c-10c8a62db644.jpg""]","",""
"","2959","similarity","90","1477657","0.0-6.0-84.0","1","[""img/0902/40d0b6ec-3907-4573-b227-e7d8e9cad1c3.jpg"",""img/0867/2e1a0b58-cdb1-4107-a14e-452530d7b9b0.jpg""]","",""
"","3936","similarity","91","1482614","0.0-6.0-85.0","1","[""img/0901/4d1bed7e-3c4e-4f6c-ada9-4beb66ba9e39.jpg"",""img/0875/3ecb367d-e9eb-4826-8aaa-7aa72fb98019.jpg""]","",""
"","2649","similarity","92","1486296","0.0-6.0-86.0","1","[""img/0764/c0b03adb-bd0a-4b96-a915-a827c2fd5211.jpg"",""img/0866/bf14b5bd-fb55-47db-86b9-4f8aeb9a6dad.jpg""]","",""
"","3385","similarity","93","1490702","0.0-6.0-87.0","5","[""img/0901/ae1e6ce4-2e10-4ca9-b1e7-21628637ab74.jpg"",""img/0894/3664e04c-c6d3-4c9b-afb6-25d89974b174.jpg""]","",""
"","3088","similarity","94","1494815","0.0-6.0-88.0","6","[""img/0898/40f99fb2-64d2-4e72-8a7f-a1cf60741e69.jpg"",""img/0769/db94b61b-a5a7-4861-9d32-7b02ad194fb0.jpg""]","",""
"","4440","similarity","95","1500278","0.0-6.0-89.0","6","[""img/0769/11518cb3-13ea-4dd0-890c-30cfab728ade.jpg"",""img/0894/1b3888e6-cf36-4c4a-a039-187aa5cb71ac.jpg""]","",""
"","2836","similarity","96","1504132","0.0-6.0-90.0","5","[""img/0862/f43ceabf-acc1-4107-b857-5d1849808f93.jpg"",""img/0874/a3bc679d-619f-4db6-bb68-116dcb757d9c.jpg""]","",""
"","3126","similarity","97","1508294","0.0-6.0-91.0","5","[""img/0894/5f15154e-e72e-4ce5-aafb-bce6f0564006.jpg"",""img/0766/33519c22-aaa4-49d7-8d49-ab551db1945e.jpg""]","",""
"","3334","similarity","98","1512652","0.0-6.0-92.0","5","[""img/0874/ca76a855-4e77-4f2f-872a-0a718153e7ed.jpg"",""img/0867/12264664-1860-46df-8c21-162b9817cdda.jpg""]","",""
"","2842","similarity","99","1516513","0.0-6.0-93.0","1","[""img/0899/f58b8d2f-b19d-4b59-8b94-8834be92e4ba.jpg"",""img/0868/4a8a45ed-2c4f-421b-9564-409a33ecd26c.jpg""]","",""
"","3908","similarity","100","1521442","0.0-6.0-94.0","1","[""img/0903/c3cb4a01-2797-43ca-b216-88c67b323fbb.jpg"",""img/0862/47ed5efd-4ec9-4b74-bb4e-a5f5cf0c3e7d.jpg""]","",""
"","3195","similarity","101","1525649","0.0-6.0-95.0","5","[""img/0899/a048912c-b12c-40e3-90af-46b69b0cc4fe.jpg"",""img/0766/5d6e0d1d-4369-41f0-a64c-91f3503055c7.jpg""]","",""
"","2684","similarity","102","1529353","0.0-6.0-96.0","7","[""img/0867/50a1b60e-3a29-44bf-b606-d4bd3746fea9.jpg"",""img/0868/d98ca254-b195-477f-b57e-5760a2717db8.jpg""]","",""
"","2558","similarity","103","1532926","0.0-6.0-97.0","1","[""img/0862/4f0a3b4c-afbf-486e-b248-1d54982f54b4.jpg"",""img/0901/3db47171-0139-4235-82cd-0b1787b6775f.jpg""]","",""
"","3938","similarity","104","1537885","0.0-6.0-98.0","1","[""img/0875/2c361b79-c3d1-4eda-812e-bf03192407bf.jpg"",""img/0766/1865bfc9-2410-4765-a804-3ae4ba2393d0.jpg""]","",""
"","4001","similarity","105","1542904","0.0-6.0-99.0","6","[""img/0758/7ffbc76b-1fc1-432c-8f7e-9ec8d1b3f643.jpg"",""img/0874/8cdb1c07-1c32-46d2-981c-3636560fa6e5.jpg""]","",""
"","2953","similarity","106","1546869","0.0-6.0-100.0","1","[""img/0904/06dacdc5-2206-4fb8-92b7-88042d22833c.jpg"",""img/0868/09a9ef4d-d000-4cfa-a6aa-ebec7c2edeb4.jpg""]","",""
"","2514","similarity","107","1550400","0.0-6.0-101.0","1","[""img/0903/a0673b55-6040-47fe-9040-24bca27ca3c9.jpg"",""img/0866/d266fece-59b3-46fa-b69f-96f6efb81b59.jpg""]","",""
"","3334","similarity","108","1554751","0.0-6.0-102.0","1","[""img/0868/6a28c3b0-3d76-498a-9fb7-ddafc665eca8.jpg"",""img/0769/057eb0a0-aa5b-40c7-9852-21444f68d767.jpg""]","",""
"","3706","similarity","109","1559482","0.0-6.0-103.0","4","[""img/0902/51493fab-2a10-4385-aa88-bee3db441626.jpg"",""img/0899/25ae6ec8-9565-49fe-a8bb-8d0666f52716.jpg""]","",""
"","2746","similarity","110","1563238","0.0-6.0-104.0","5","[""img/0868/8b0b8473-e2c0-4331-aa56-c3a5c29369da.jpg"",""img/0862/de9ad88c-b522-430a-8ee9-eb06a9f85df5.jpg""]","",""
"","3189","similarity","111","1567454","0.0-6.0-105.0","6","[""img/0903/6138142e-c84e-45fc-9487-c974f3d4968a.jpg"",""img/0894/1a010553-d598-4b06-a772-81f1e7b3addb.jpg""]","",""
"","2177","similarity","112","1570646","0.0-6.0-106.0","6","[""img/0864/5f33e097-23e3-4002-882d-76e8cb15f451.jpg"",""img/0874/eba003b4-cdab-4eee-8bc3-f064c7d94165.jpg""]","",""
"","2551","similarity","113","1574216","0.0-6.0-107.0","1","[""img/0862/cdaed51d-9e2f-4807-801a-4663c40077e2.jpg"",""img/0902/b03129ba-b087-4558-af37-e8399d6217d6.jpg""]","",""
"","3903","similarity","114","1579127","0.0-6.0-108.0","7","[""img/0904/1d10df11-b5c8-4370-9a6b-097a7f965895.jpg"",""img/0903/8c358e9e-a4f4-466e-8b93-7aec0d2358e8.jpg""]","",""
"","2607","similarity","115","1582758","0.0-6.0-109.0","1","[""img/0764/56441045-b648-4ede-9632-3e9c0227080b.jpg"",""img/0864/49150900-7f25-4ce8-8d10-9b47a71d1997.jpg""]","",""
"","3137","similarity","116","1586926","0.0-6.0-110.0","1","[""img/0866/be24ab58-230e-4db8-9f45-ff04c9aec6bb.jpg"",""img/0894/3adef67d-7676-4995-80b2-bb31b8aca3ef.jpg""]","",""
"","2343","similarity","117","1590296","0.0-6.0-111.0","5","[""img/0899/fef567a2-c121-4481-9af0-ff108d199bbf.jpg"",""img/0903/97a42b34-5462-4665-88c7-83c014b33d24.jpg""]","",""
"","3136","similarity","118","1594452","0.0-6.0-112.0","6","[""img/0902/0db94c50-f1fb-4091-953c-29ca0466bee2.jpg"",""img/0904/5cceabc9-de1d-4c67-989b-c28a4ef77e79.jpg""]","",""
"","2616","similarity","119","1598082","0.0-6.0-113.0","5","[""img/0864/0f537697-a314-47c3-a8cc-8df23b7e536c.jpg"",""img/0860/d9a0d117-6d1d-41c0-8fec-9aff0fd9e9f2.jpg""]","",""
"","3234","similarity","120","1602337","0.0-6.0-114.0","1","[""img/0860/29a21a9f-54bb-4093-ad3f-04823ceaa89f.jpg"",""img/0899/ad8268c5-8199-48d0-ad70-c5b6d6c599ec.jpg""]","",""
"","2797","similarity","121","1606164","0.0-6.0-115.0","1","[""img/0881/609a5e93-38b5-4940-8627-2bf8fad7f802.jpg"",""img/0903/5ea5bbe0-f238-4724-abe7-9ed8dee8c0ba.jpg""]","",""
"","2795","similarity","122","1609980","0.0-6.0-116.0","1","[""img/0894/661b9f9f-4bde-487a-b1ed-87085fde6948.jpg"",""img/0874/3ce41e7c-40c8-4d58-a546-171114521796.jpg""]","",""
"","4674","similarity","123","1615680","0.0-6.0-117.0","5","[""img/0881/445edb15-bd7f-4af3-8bd5-c6ad9677bb31.jpg"",""img/0862/00c06b00-3b73-44e9-bc1e-c5aafb438321.jpg""]","",""
"","2600","similarity","124","1619291","0.0-6.0-118.0","6","[""img/0868/c8ac40c7-6904-4e13-8d61-c75d3052dc4e.jpg"",""img/0875/8521fd58-3b1e-4dc5-97ae-804edfa6734a.jpg""]","",""
"","2554","similarity","125","1622858","0.0-6.0-119.0","5","[""img/0860/94ef7afc-e0e6-4a15-98c6-0bfac82bc832.jpg"",""img/0758/821c68d3-5cb0-4eae-8659-30e6263fca39.jpg""]","",""
"","2875","similarity","126","1626746","0.0-6.0-120.0","6","[""img/0864/a248adb3-c70b-4652-b7a3-776d2a1e904b.jpg"",""img/0875/dbdd643e-6d0e-4a5c-ab57-b9c29b9c981a.jpg""]","",""
"","4285","similarity","127","1632048","0.0-6.0-121.0","1","[""img/0898/b3290bf9-215b-4b45-b21a-65bdf73f142f.jpg"",""img/0866/93a27239-8317-4e08-98ca-d8b1ff298e07.jpg""]","",""
"","3008","similarity","128","1636077","0.0-6.0-122.0","1","[""img/0874/85eb9b8a-c4c6-4e5a-b8e7-363a87a82054.jpg"",""img/0904/4b8daf2a-13a9-4ea9-9e0b-b265b6e933e7.jpg""]","",""
"","2510","similarity","129","1639622","0.0-6.0-123.0","1","[""img/0904/96e503ea-6630-4996-85f2-0237688ce441.jpg"",""img/0864/e336a4c5-6648-4fd7-b2f6-93a3fb83f8c6.jpg""]","",""
"","4051","similarity","130","1644692","0.0-6.0-124.0","6","[""img/0894/e6385e52-6c35-43bd-b0af-bc803d107b11.jpg"",""img/0902/d3e55000-c839-4bf9-9b9b-4af0a9925af1.jpg""]","",""
"","3981","similarity","131","1652256","0.0-6.0-125.0","5","[""img/0868/3a62db2d-97e9-44a3-b8e3-a48c6f0e423b.jpg"",""img/0864/6e846d43-94a6-4b37-a268-65eda979f052.jpg""]","",""
"","3398","similarity","132","1656660","0.0-6.0-126.0","1","[""img/0899/56a605c3-d0a2-4215-89e1-779279d85a7c.jpg"",""img/0866/6f2a90d7-14f1-4f1b-bd64-fc0af6b9fe44.jpg""]","",""
"","4350","similarity","133","1662022","0.0-6.0-127.0","1","[""img/0875/fb732ab5-013a-4366-9f65-27811ed157e9.jpg"",""img/0904/b7c2a2c8-df33-4473-b3d4-ff7147c60db3.jpg""]","",""
"","2758","similarity","134","1665896","0.0-6.0-128.0","1","[""img/0867/f8159067-056c-41f1-a136-c529fe5e970a.jpg"",""img/0899/9de5e857-aa9a-4e0c-8ba2-46d79bd069a4.jpg""]","",""
"","2384","similarity","135","1669287","0.0-6.0-129.0","1","[""img/0901/33b51a81-06d9-46d9-9d4f-5a2d6d6b8058.jpg"",""img/0867/f8488a47-94ee-4166-952c-44e16cf172f6.jpg""]","",""
"","2586","similarity","136","1672887","0.0-6.0-130.0","1","[""img/0864/f92649a2-0590-4d31-9a7a-1bfb81666a2d.jpg"",""img/0769/b664b502-a86c-46c1-ad6f-5ebffc2e1bd3.jpg""]","",""
"","2348","similarity","137","1676238","0.0-6.0-131.0","1","[""img/0903/b0df4094-a3be-4b5b-81bd-8d260f13f61b.jpg"",""img/0868/0d3abd3a-b6c3-4584-a9f7-e2da63748b3d.jpg""]","",""
"","3034","similarity","138","1680296","0.0-6.0-132.0","5","[""img/0864/e02eddb5-f468-499c-91bf-f7be3ffe979b.jpg"",""img/0867/8ba0c5a7-c7e4-42cf-a80a-543763b90779.jpg""]","",""
"","3628","similarity","139","1684949","0.0-6.0-133.0","1","[""img/0901/b453df0b-4c39-49bb-8ced-6127efffa898.jpg"",""img/0860/87039971-2210-4aab-93c0-8e9b5f1655b2.jpg""]","",""
"","2891","similarity","140","1688856","0.0-6.0-134.0","1","[""img/0881/b549bc99-a61c-4450-bab5-9efc3a197bf0.jpg"",""img/0766/535849cc-ff5d-4df9-8f31-0ce94a97d571.jpg""]","",""
"","2440","similarity","141","1692324","0.0-6.0-135.0","1","[""img/0903/8635cf25-2648-4fe9-8c42-79d2598e999c.jpg"",""img/0864/8ddd2e30-a1d0-479f-9cbe-591213023893.jpg""]","",""
"","3085","similarity","142","1696421","0.0-6.0-136.0","1","[""img/0758/9fb5b2fe-3f00-4fe6-973c-1ce10d5f4cd5.jpg"",""img/0894/4739e06d-c31e-4bf1-bf91-c97fa9afb456.jpg""]","",""
"","2828","similarity","143","1700265","0.0-6.0-137.0","1","[""img/0769/0fe124d3-bcad-45f6-b64d-8f6eb8ee5251.jpg"",""img/0860/18dfed73-e36b-4487-a8bd-0b8cff8e3668.jpg""]","",""
"","2624","similarity","144","1703912","0.0-6.0-138.0","5","[""img/0904/e9423a8c-f946-43ad-ab7b-931acef870e2.jpg"",""img/0766/f5f78e4e-d88f-4866-951a-118ba9fec4d0.jpg""]","",""
"","2917","similarity","145","1707858","0.0-6.0-139.0","5","[""img/0868/77091fc7-a590-4ebb-b915-fdb2483a2399.jpg"",""img/0860/31ff6436-98bf-4652-bed2-40f627229568.jpg""]","",""
"","2788","similarity","146","1711686","0.0-6.0-140.0","6","[""img/0758/3ddd05d3-557e-4ee7-8b78-9d2d681d8ae2.jpg"",""img/0864/ef9cbca0-4be8-435d-ad49-977259e80409.jpg""]","",""
"","3268","similarity","147","1715964","0.0-6.0-141.0","7","[""img/0867/a749dddb-69f0-44a6-acdc-2bf295cf6dcc.jpg"",""img/0867/aa05d113-fc19-4756-a8eb-7878f580bc92.jpg""]","",""
"","2972","similarity","148","1719954","0.0-6.0-142.0","7","[""img/0898/ec565187-2e31-4fdd-9a5c-153d0c789ae0.jpg"",""img/0898/993d8f2d-bef7-4251-a193-0f93a32b7763.jpg""]","",""
"","2741","similarity","149","1723705","0.0-6.0-143.0","1","[""img/0866/945c6710-d15b-4a5b-a8f6-69af0850357f.jpg"",""img/0769/a1ce8d07-ba37-40de-bade-2778805521e0.jpg""]","",""
"","2540","similarity","150","1727324","0.0-6.0-144.0","1","[""img/0860/4c530c3c-6aab-492a-94d1-9c01797bde40.jpg"",""img/0898/01bfe666-3510-4fc7-964f-d00d28732dc8.jpg""]","",""
"","2464","similarity","151","1730796","0.0-6.0-145.0","1","[""img/0766/26d3ae14-8275-4e08-99b2-a6598c193ddf.jpg"",""img/0864/9b2490c5-a282-400a-9736-e1a0ecbf1cb7.jpg""]","",""
"","2852","similarity","152","1734659","0.0-6.0-146.0","1","[""img/0860/e8b8c51e-1834-4875-8b61-6c5bc9b178bd.jpg"",""img/0903/776b74ee-a8ab-4ab8-a78d-097c0747538d.jpg""]","",""
"","2782","similarity","153","1738458","0.0-6.0-147.0","1","[""img/0867/c71dc569-f49c-4397-8381-68b8d726736d.jpg"",""img/0764/8740679b-b56f-4292-aece-14063457113a.jpg""]","",""
"","2829","similarity","154","1742325","0.0-6.0-148.0","5","[""img/0769/3c1efec9-f8fd-487d-8955-4be88e48c832.jpg"",""img/0904/ba8e689e-9ca6-4608-a2a1-3b0940666ae6.jpg""]","",""
"","2449","similarity","155","1745794","0.0-6.0-149.0","5","[""img/0764/5c8fbafc-e62e-43ed-9b37-f73e8e45147d.jpg"",""img/0901/fb0a8e69-7f19-4e6e-a6bb-a48f97f9b4f3.jpg""]","",""
"","3147","similarity","156","1749948","0.0-6.0-150.0","5","[""img/0904/25365108-e038-4021-aac9-797f2063b337.jpg"",""img/0899/0adc0bc3-6fca-4078-be6f-d45ddf1653d5.jpg""]","",""
"","2373","similarity","157","1753329","0.0-6.0-151.0","5","[""img/0862/fb26cb07-d5a9-4653-813c-f41609f26cd5.jpg"",""img/0867/26611f4e-d694-4460-b7e2-43c62753ddc3.jpg""]","",""
"","3428","similarity","158","1757781","0.0-6.0-152.0","7","[""img/0766/110832e5-2646-4bd0-a94e-5df8cc314269.jpg"",""img/0766/d3bab2fc-ddcc-40a0-bb72-c0d0ebe19978.jpg""]","",""
"","2580","similarity","159","1761372","0.0-6.0-153.0","1","[""img/0862/99a99e39-8355-44ec-b993-e7bcec111e1c.jpg"",""img/0894/9b1333fd-3561-43bf-aee5-99b7b7ca3dc3.jpg""]","",""
"","2308","similarity","160","1764683","0.0-6.0-154.0","5","[""img/0899/1b3457ea-87d4-4946-a01c-aac1863ed46c.jpg"",""img/0901/a0d65c84-3f20-476a-92d1-0c01e8019cf4.jpg""]","",""
"","3928","similarity","161","1769632","0.0-6.0-155.0","7","[""img/0874/ca23d307-fc00-4d7d-9106-584c6eb21b4d.jpg"",""img/0874/93d1f8dc-acf2-4f03-bd8d-8ec35df276ed.jpg""]","",""
"","3692","similarity","162","1774331","0.0-6.0-156.0","5","[""img/0860/f44ba3fb-03a2-42f0-8509-2c1ded493086.jpg"",""img/0867/85a96c62-548f-4994-9553-819e03c3135a.jpg""]","",""
"","2907","similarity","163","1778264","0.0-6.0-157.0","1","[""img/0901/7d4a3388-488d-4e9b-9d32-9d0def7aae8d.jpg"",""img/0881/14236cf2-6b95-48b8-9368-78af09d2d27f.jpg""]","",""
"","3447","similarity","164","1782795","0.0-6.0-158.0","6","[""img/0903/5995f4a8-fa82-46f8-8760-fd7800a5ca34.jpg"",""img/0902/3b243e54-0803-4c29-af42-4037c2118495.jpg""]","",""
"","3707","similarity","165","1787511","0.0-6.0-159.0","1","[""img/0860/5bff793e-cbd5-4d7e-b628-0ac2b0e30b64.jpg"",""img/0764/cbdc4f20-3a9a-4211-9b40-090699e0abcc.jpg""]","",""
"","3610","similarity","166","1792143","0.0-6.0-160.0","1","[""img/0902/d49743d6-67ae-4c2e-a939-8fd895a0f18e.jpg"",""img/0875/527ced51-8e53-4aab-ab05-86df219104c0.jpg""]","",""
"","2687","similarity","167","1795846","0.0-6.0-161.0","1","[""img/0898/c3cecf20-f7fd-45fa-97d0-dc0a63e8d6c0.jpg"",""img/0862/1c20f772-3a51-4a80-aac0-f57dc9f86c28.jpg""]","",""
"","2485","similarity","168","1799352","0.0-6.0-162.0","1","[""img/0894/c505c65a-cde2-4f2c-8cde-f8676f7c894d.jpg"",""img/0875/f87b67d7-c33e-40d1-b281-248c4be1cb6e.jpg""]","",""
"","2516","similarity","169","1802896","0.0-6.0-163.0","5","[""img/0866/d493a2c8-66eb-44b4-be02-2f327b700b7c.jpg"",""img/0864/1ebbc554-99fa-49f9-8799-317375a79820.jpg""]","",""
"","3294","similarity","170","1807209","0.0-6.0-164.0","1","[""img/0766/60033a74-9919-47e5-913c-71d0d483e7e5.jpg"",""img/0862/ee3b7bff-4a70-4e84-9bea-4a565e456acb.jpg""]","",""
"","2506","similarity","171","1810725","0.0-6.0-165.0","5","[""img/0866/11a1d141-be5e-443c-98c1-a9d4d9e3dec0.jpg"",""img/0874/31e22c7c-99aa-40b1-bf03-dd73fa2df4d6.jpg""]","",""
"","3460","similarity","172","1815196","0.0-6.0-166.0","5","[""img/0862/f188d4f0-76a4-4102-818c-a209969d73a5.jpg"",""img/0860/b03b963d-949b-4d8d-b19c-4950c89eeca2.jpg""]","",""
"","2888","similarity","173","1820871","0.0-6.0-167.0","5","[""img/0766/e8052e17-9dae-4139-802b-6e590cb2d526.jpg"",""img/0901/d4d09bf5-093e-4050-838e-7c738be8e63c.jpg""]","",""
"","3405","similarity","174","1825298","0.0-6.0-168.0","7","[""img/0862/24cdc752-c2e5-4a17-86a6-6f2045d8553b.jpg"",""img/0862/5d887e9f-89e2-4ebc-80a0-6d46fe6480db.jpg""]","",""
"","2843","similarity","175","1829166","0.0-6.0-169.0","5","[""img/0894/5a49e858-2850-4892-9a06-e9f0efb5f94d.jpg"",""img/0764/ba0c0955-acbb-457d-b1c2-f006b88121d5.jpg""]","",""
"","2622","similarity","176","1832803","0.0-6.0-170.0","1","[""img/0874/29830da7-be5f-44e5-b141-652a0ccf7269.jpg"",""img/0898/b2732712-71c2-45d8-834f-2b2ed5504910.jpg""]","",""
"","2585","similarity","177","1836396","0.0-6.0-171.0","1","[""img/0860/c47fdead-eb02-4989-b078-26f4852f44fe.jpg"",""img/0766/91fc8c4d-862f-4d2b-b1a1-2db8d729b6b7.jpg""]","",""
"","2714","similarity","178","1840115","0.0-6.0-172.0","1","[""img/0898/4184e5a2-84ea-4f36-9b42-ae58646f6f87.jpg"",""img/0864/0116ca98-293d-4fa6-a93b-5a6144ef64cc.jpg""]","",""
"","2989","similarity","179","1844134","0.0-6.0-173.0","1","[""img/0881/20af39f5-373d-4a55-a437-2dc4c0382c46.jpg"",""img/0764/6ef77040-1fae-4afa-bfe7-eda98e6d0376.jpg""]","",""
"","3381","similarity","180","1848536","0.0-6.0-174.0","1","[""img/0898/0af304a2-6a7a-4082-ab7c-4450cd08cc58.jpg"",""img/0868/293079b8-7e0c-4afd-a390-1e5d35fe3ded.jpg""]","",""
"","3060","similarity","181","1852621","0.0-6.0-175.0","7","[""img/0864/e8bd659f-aa43-4748-877e-3118e8b4e189.jpg"",""img/0864/66091c27-e588-4476-8af9-265dc6be4156.jpg""]","",""
"","2895","similarity","182","1856524","0.0-6.0-176.0","1","[""img/0899/ddf96ade-692e-4602-bd22-dedbb46401bc.jpg"",""img/0862/e8cc3bdf-cc43-4565-bccf-492626c70953.jpg""]","",""
"","2967","similarity","183","1860502","0.0-6.0-177.0","5","[""img/0875/5a716432-c6ca-4b1c-955a-2b8ac25198ee.jpg"",""img/0758/65d426d6-3ff6-415d-8654-a43b83ecc4fe.jpg""]","",""
"","2747","similarity","184","1864268","0.0-6.0-178.0","1","[""img/0866/386235d2-6857-41e7-88a8-25cfc3430025.jpg"",""img/0901/0adb3bd6-d758-4ba7-9723-3ad6cac05bd5.jpg""]","",""
"","2593","similarity","185","1867894","0.0-6.0-179.0","1","[""img/0769/96556ef3-7fac-4c9d-8281-1cb0ea5081bc.jpg"",""img/0874/99f6563c-8a8d-4c1c-a41d-667b618c3fd5.jpg""]","",""
"","2817","similarity","186","1871733","0.0-6.0-180.0","5","[""img/0875/5a1e5100-0d94-4fec-bbe9-ca9894d2cf8e.jpg"",""img/0881/44e09805-5a25-4f17-a716-4ad4a331b174.jpg""]","",""
"","2637","similarity","187","1875397","0.0-6.0-181.0","6","[""img/0866/f756f7d1-9ad8-4a34-9ef6-7a443d705bfe.jpg"",""img/0868/d6d1f30d-4323-435a-b194-7892521bc57e.jpg""]","",""
"","3228","similarity","188","1879640","0.0-6.0-182.0","1","[""img/0899/0e1d936a-dbe2-4afc-9f19-7b7a1ae6c9ed.jpg"",""img/0758/7ee8bc8f-c40b-4b3a-84ec-3e83580622d4.jpg""]","",""
"","2963","similarity","189","1883606","0.0-6.0-183.0","5","[""img/0874/a82926a3-0b43-4add-803c-d5f9ea7798ee.jpg"",""img/0875/e7e66b13-b573-431e-b85e-288ce04a35a3.jpg""]","",""
"","4379","similarity","190","1888991","0.0-6.0-184.0","1","[""img/0904/24fc38fe-842c-4831-ad8a-b1de5c25c0a8.jpg"",""img/0862/53a9cf7c-93c4-41b9-952f-07d17f7a17b2.jpg""]","",""
"","3079","similarity","191","1893102","0.0-6.0-185.0","5","[""img/0902/e5a46bda-30d1-41ca-b36d-b8529b5a63d1.jpg"",""img/0766/00891401-e4c9-4ce1-bc19-f70740d174bc.jpg""]","",""
"","5025","similarity","192","1899148","0.0-6.0-186.0","1","[""img/0758/67c0be2f-9e91-48b3-8219-70ac0a1802fa.jpg"",""img/0769/1afb527f-9887-428c-bd26-a12c2f9efb68.jpg""]","",""
"","3801","similarity","193","1903974","0.0-6.0-187.0","7","[""img/0881/292e9b4b-fca0-4ba8-87f1-4048f9e37b7d.jpg"",""img/0881/e6746727-7f89-47ec-b939-d98abe78372d.jpg""]","",""
"","3309","similarity","194","1908299","0.0-6.0-188.0","6","[""img/0758/335851a0-a55b-46d8-ab05-8463eda48349.jpg"",""img/0866/4a87911a-d5be-4d4e-ab8e-3d1f581bf507.jpg""]","",""
"","2608","similarity","195","1911917","0.0-6.0-189.0","5","[""img/0764/e48e6c6f-9e28-420f-836a-8043b2319bb4.jpg"",""img/0898/04e39a7a-fcf6-4156-ab0e-f5871f335e1c.jpg""]","",""
"","2713","similarity","196","1915641","0.0-6.0-190.0","5","[""img/0903/bf0a7d60-eca5-44b0-bafd-baf21db9904b.jpg"",""img/0901/00acf6c1-b66e-4060-bb04-4caf29b5a8b0.jpg""]","",""
"","4553","similarity","197","1921200","0.0-6.0-191.0","6","[""img/0902/7499db23-3a41-41ea-ab5b-6ab4d4c3ed35.jpg"",""img/0898/79233891-305a-4a6a-8ddf-5c8604858203.jpg""]","",""
"","3035","similarity","198","1925249","0.0-6.0-192.0","1","[""img/0864/efcfbb1b-8197-44c9-b723-40d6c608dd3c.jpg"",""img/0901/58978a6d-a3e2-4c59-8d62-f60693ecc0f6.jpg""]","",""
"","2631","similarity","199","1928900","0.0-6.0-193.0","1","[""img/0894/5ff3c4f6-52e2-4075-8679-be0312e59703.jpg"",""img/0881/5fe04dd0-5c74-47b7-99c8-b068db9ca26a.jpg""]","",""
"","2773","similarity","200","1932716","0.0-6.0-194.0","7","[""img/0868/4e626425-63c8-484a-8a1d-e66ee4e0bef8.jpg"",""img/0868/fd307a36-9a3a-47d7-ab7c-f810d0b35040.jpg""]","",""
"","2788","similarity","201","1936524","0.0-6.0-195.0","5","[""img/0899/5b56dd3e-3f49-47cc-af84-16da6457753b.jpg"",""img/0764/978aede9-4590-4ad0-b234-135c83e5d669.jpg""]","",""
"","3265","similarity","202","1940808","0.0-6.0-196.0","1","[""img/0881/f62bdcd1-a4b7-4d48-83da-d9c9e01c8727.jpg"",""img/0904/2c98dc56-88d1-4fb5-a999-b6a7861f65f0.jpg""]","",""
"","2691","similarity","203","1944518","0.0-6.0-197.0","1","[""img/0864/65210d57-1153-4657-886a-32e758f49b4a.jpg"",""img/0902/962f645e-9b55-4628-9b50-c703422bfe1a.jpg""]","",""
"","2766","similarity","204","1948310","0.0-6.0-198.0","5","[""img/0894/7f2f31fd-6618-41c6-b65a-0fd8b2851bc9.jpg"",""img/0904/696ebb60-8891-417a-91fd-c53218907a95.jpg""]","",""
"","3156","similarity","205","1952494","0.0-6.0-199.0","7","[""img/0901/b13fa50f-dbe0-4d0f-8647-6ac0fd8f40bd.jpg"",""img/0901/0f670aef-ac36-496d-8142-ee5fdb21dd82.jpg""]","",""
"","2718","similarity","206","1956235","0.0-6.0-200.0","1","[""img/0894/43216a7f-27bc-4b5a-8841-d122a30da9d9.jpg"",""img/0860/15b24a61-25be-4356-9eac-5ce95d0cb4a4.jpg""]","",""
"","4434","similarity","207","1961688","0.0-6.0-201.0","5","[""img/0898/a8f16b02-e19f-423b-86c3-a36562ae1f9b.jpg"",""img/0903/72197c2b-403e-4a26-b391-f1aa8dea4b76.jpg""]","",""
"","3269","similarity","208","1965965","0.0-6.0-202.0","1","[""img/0864/1d15626a-2f7c-410f-819c-0fa2c967e95e.jpg"",""img/0894/6b2e9509-8699-42b7-9582-7741df0ba2d7.jpg""]","",""
"","4032","similarity","209","1971007","0.0-6.0-203.0","1","[""img/0874/2c9464dd-8a23-4baa-ac94-1ba3af5c15cc.jpg"",""img/0860/71e1aad0-2cdf-43bb-94a4-a8c016997c30.jpg""]","",""
"","2867","similarity","210","1974880","0.0-6.0-204.0","5","[""img/0862/92fcd8a4-8193-4a6a-ae09-dd4a6338b0df.jpg"",""img/0875/90da8d75-108a-44ad-b999-e21fee3860d3.jpg""]","",""
"","2393","similarity","211","1978281","0.0-6.0-205.0","5","[""img/0867/98d8cd96-1476-4fe0-a3a3-04f875500a1b.jpg"",""img/0881/b1a136f7-8511-4d3a-a0f6-3879acf1e1a1.jpg""]","",""
"","3835","similarity","212","1983143","0.0-6.0-206.0","5","[""img/0901/b9141736-3041-4385-a586-b1fe911c76a5.jpg"",""img/0902/4e0baa32-988e-46f6-989d-f669225ab645.jpg""]","",""
"","3264","similarity","213","1987429","0.0-6.0-207.0","1","[""img/0899/66ab3178-c3fe-4455-ad17-d5952b08e018.jpg"",""img/0864/87c467d3-abca-482f-ad80-3766c21b1bb3.jpg""]","",""
"","2605","similarity","214","1991106","0.0-6.0-208.0","5","[""img/0901/7c16dd9c-44ad-4d5b-990c-6a0b9b48b1b1.jpg"",""img/0769/bb8c4e53-6f32-4814-97ee-392d4decfb2e.jpg""]","",""
"","5706","similarity","215","2002655","0.0-6.0-209.0","6","[""img/0902/aa6fca32-82b0-4414-b20a-8f6f8aa5a2d2.jpg"",""img/0902/62f11694-7ed7-4cb7-8a73-9e95c43824e7.jpg""]","",""
"[{""page_index"":0,""viewing_time"":3147}]","3147","instructions","216","2006819","0.0-7.0","","","",""
"","21236","image-multi-choice","217","2029096","0.0-8.0-0.0","","","{""Q0"":""Nashville Warbler""}","Nashville Warbler"
"","4658","image-multi-choice","218","2034802","0.0-8.0-1.0","","","{""Q0"":""Black-and-white Warbler""}","Black-and-white Warbler"
"","10055","image-multi-choice","219","2045888","0.0-8.0-2.0","","","{""Q0"":""Townsend's Warbler""}","Townsend's Warbler"
"","4013","image-multi-choice","220","2050953","0.0-8.0-3.0","","","{""Q0"":""Lark Sparrow""}","Lark Sparrow"
"","3924","image-multi-choice","221","2055929","0.0-8.0-4.0","","","{""Q0"":""Yellow Warbler""}","Yellow Warbler"
"","4477","image-multi-choice","222","2061461","0.0-8.0-5.0","","","{""Q0"":""Tennessee Warbler""}","Orange-crowned Warbler"
"","4143","image-multi-choice","223","2066641","0.0-8.0-6.0","","","{""Q0"":""White-throated Sparrow""}","White-throated Sparrow"
"","5350","image-multi-choice","224","2073025","0.0-8.0-7.0","","","{""Q0"":""Fox Sparrow""}","Fox Sparrow"
"","9775","image-multi-choice","225","2083833","0.0-8.0-8.0","","","{""Q0"":""Song Sparrow""}","Song Sparrow"
"","4197","image-multi-choice","226","2089068","0.0-8.0-9.0","","","{""Q0"":""Blackburnian Warbler""}","Blackburnian Warbler"
"","5059","image-multi-choice","227","2095162","0.0-8.0-10.0","","","{""Q0"":""Vesper Sparrow""}","Vesper Sparrow"
"","3681","image-multi-choice","228","2099864","0.0-8.0-11.0","","","{""Q0"":""White-crowned Sparrow""}","White-crowned Sparrow"
"","4166","image-multi-choice","229","2105058","0.0-8.0-12.0","","","{""Q0"":""American Tree Sparrow""}","American Tree Sparrow"
"","6823","image-multi-choice","230","2112918","0.0-8.0-13.0","","","{""Q0"":""Tennessee Warbler""}","Tennessee Warbler"
"","5288","image-multi-choice","231","2119248","0.0-8.0-14.0","","","{""Q0"":""Magnolia Warbler""}","Magnolia Warbler"
"","8137","image-multi-choice","232","2128412","0.0-8.0-15.0","","","{""Q0"":""Northern Waterthrush""}","Northern Waterthrush"
"","4778","image-multi-choice","233","2134236","0.0-8.0-16.0","","","{""Q0"":""Chipping Sparrow""}","Chipping Sparrow"
"","5573","image-multi-choice","234","2140828","0.0-8.0-17.0","","","{""Q0"":""Swamp Sparrow""}","Swamp Sparrow"
"","4175","image-multi-choice","235","2146050","0.0-8.0-18.0","","","{""Q0"":""Lincoln's Sparrow""}","Lincoln's Sparrow"
"","3559","image-multi-choice","236","2150655","0.0-8.0-19.0","","","{""Q0"":""Ovenbird""}","Ovenbird"
