"view_history","rt","trial_type","trial_index","time_elapsed","internal_node_id","sim_score","stimulus","responses","answer"
"[{""page_index"":0,""viewing_time"":15174}]","15175","instructions","0","15177","0.0-0.0","","","",""
"","15212","similarity_demo","1","31413","0.0-1.0","4","[""img/866.jpg"",""img/868.jpg""]","",""
"[{""page_index"":0,""viewing_time"":14092}]","14093","instructions","2","46507","0.0-2.0","","","",""
"","11042","similarity_demo","3","58563","0.0-3.0","1","[""img/766.jpg"",""img/867.jpg""]","",""
"[{""page_index"":0,""viewing_time"":7892}]","7895","instructions","4","67459","0.0-4.0","","","",""
"[{""page_index"":0,""viewing_time"":23691}]","23692","instructions","5","92152","0.0-5.0","","","",""
"","12818","similarity","6","105987","0.0-6.0-0.0","2","[""img/0868/77091fc7-a590-4ebb-b915-fdb2483a2399.jpg"",""img/0901/50e1d53e-a49f-4806-8610-be6dec5a2475.jpg""]","",""
"","9030","similarity","7","116031","0.0-6.0-1.0","2","[""img/0769/c34b7763-8ff2-46d5-9e92-f1d8f3bedbd8.jpg"",""img/0867/5e07b34d-b40f-4b1c-ac10-49975bace45f.jpg""]","",""
"","6358","similarity","8","123401","0.0-6.0-2.0","4","[""img/0766/d3bab2fc-ddcc-40a0-bb72-c0d0ebe19978.jpg"",""img/0898/661621d4-a14e-487c-8c74-354134a29710.jpg""]","",""
"","6758","similarity","9","131174","0.0-6.0-3.0","3","[""img/0902/6c2c243a-f663-45db-baf5-038d3d58c589.jpg"",""img/0881/adc02f34-ce97-4aef-850f-00519df06fd7.jpg""]","",""
"","4224","similarity","10","136410","0.0-6.0-4.0","7","[""img/0894/7f2f31fd-6618-41c6-b65a-0fd8b2851bc9.jpg"",""img/0894/a98416c0-51e2-4960-85da-d81d8688b9d5.jpg""]","",""
"","6193","similarity","11","143613","0.0-6.0-5.0","3","[""img/0874/99f6563c-8a8d-4c1c-a41d-667b618c3fd5.jpg"",""img/0899/7f9d45d0-b2c6-40d3-aa41-c207db2c411b.jpg""]","",""
"","3763","similarity","12","148386","0.0-6.0-6.0","6","[""img/0904/ba8e689e-9ca6-4608-a2a1-3b0940666ae6.jpg"",""img/0764/50f1b062-d608-4bc0-ab25-b872dcf2ed93.jpg""]","",""
"","2823","similarity","13","152223","0.0-6.0-7.0","7","[""img/0899/f58b8d2f-b19d-4b59-8b94-8834be92e4ba.jpg"",""img/0898/0c7dde4f-efce-4b7a-9387-6921635b7890.jpg""]","",""
"","5354","similarity","14","158587","0.0-6.0-8.0","5","[""img/0874/ca23d307-fc00-4d7d-9106-584c6eb21b4d.jpg"",""img/0903/0e5c2854-42aa-48c0-9c3d-6e1ad2a400bd.jpg""]","",""
"","9826","similarity","15","169424","0.0-6.0-9.0","6","[""img/0881/62a64f90-7a72-4aee-a1a1-0c548ac9bdda.jpg"",""img/0758/ddc336e9-a8b6-4bb9-937a-c7e25e0e9250.jpg""]","",""
"","3502","similarity","16","173938","0.0-6.0-10.0","7","[""img/0898/993d8f2d-bef7-4251-a193-0f93a32b7763.jpg"",""img/0901/4f9cffe0-c0be-4d7f-bacd-9d51efd19b4a.jpg""]","",""
"","3446","similarity","17","178399","0.0-6.0-11.0","6","[""img/0903/150cf64c-0bd2-4674-abbb-a1387cf1f3e9.jpg"",""img/0769/82ab9db6-4578-4e79-874f-f09100439f09.jpg""]","",""
"","5630","similarity","18","185039","0.0-6.0-12.0","2","[""img/0764/ec2dd087-c471-4370-b570-95a542506a96.jpg"",""img/0868/d6d1f30d-4323-435a-b194-7892521bc57e.jpg""]","",""
"","5547","similarity","19","191599","0.0-6.0-13.0","2","[""img/0867/a498eef3-9fa4-4ab2-9778-4ae82ac40dc5.jpg"",""img/0903/47e39de8-6959-469f-8be9-6999a6db207c.jpg""]","",""
"","6444","similarity","20","199054","0.0-6.0-14.0","3","[""img/0766/c23b5a20-e50f-4d85-841f-cf89212a4348.jpg"",""img/0758/67c0be2f-9e91-48b3-8219-70ac0a1802fa.jpg""]","",""
"","4297","similarity","21","204363","0.0-6.0-15.0","5","[""img/0902/40d0b6ec-3907-4573-b227-e7d8e9cad1c3.jpg"",""img/0860/b03b963d-949b-4d8d-b19c-4950c89eeca2.jpg""]","",""
"","5276","similarity","22","210652","0.0-6.0-16.0","3","[""img/0769/1afb527f-9887-428c-bd26-a12c2f9efb68.jpg"",""img/0875/5a7c4e35-6514-4e12-8879-d16071da4cd6.jpg""]","",""
"","6539","similarity","23","218202","0.0-6.0-17.0","3","[""img/0904/a8c3c7d2-9bcf-4347-9e03-8203adfc1fc5.jpg"",""img/0866/8efcaa46-83ab-4dee-a35f-850402aa21ae.jpg""]","",""
"","3869","similarity","24","223083","0.0-6.0-18.0","6","[""img/0875/a4935837-7d3c-4df6-88c1-36a94d4991ca.jpg"",""img/0875/5a716432-c6ca-4b1c-955a-2b8ac25198ee.jpg""]","",""
"","3957","similarity","25","228053","0.0-6.0-19.0","7","[""img/0758/a709631e-3705-4725-ac40-f0d916924f08.jpg"",""img/0758/53f35650-e455-4b53-8be4-c3c8271c6466.jpg""]","",""
"","5203","similarity","26","234268","0.0-6.0-20.0","3","[""img/0902/b03fee99-d5ca-4bf8-871c-a4a743a39842.jpg"",""img/0874/767f289c-9814-4496-803f-745cc8913d1f.jpg""]","",""
"","4088","similarity","27","239369","0.0-6.0-21.0","7","[""img/0764/4952d0a0-c9be-471a-8ec7-94a37bf4051d.jpg"",""img/0769/878531fd-e0e8-4ad1-b9ad-f018bb104ca0.jpg""]","",""
"","4618","similarity","28","244997","0.0-6.0-22.0","2","[""img/0901/bc47e078-bda4-40ed-b89a-bbd819164b95.jpg"",""img/0874/eba003b4-cdab-4eee-8bc3-f064c7d94165.jpg""]","",""
"","4493","similarity","29","250504","0.0-6.0-23.0","1","[""img/0875/99698b4d-b4a1-44bc-8c83-8ea755bbbf61.jpg"",""img/0903/6b5dcc60-3ad3-4962-93e5-e6cf768477af.jpg""]","",""
"","3986","similarity","30","255501","0.0-6.0-24.0","3","[""img/0769/04347740-f8f6-48bb-887a-f68babd0a0d4.jpg"",""img/0881/4da99fdd-1f40-4bbb-8e21-8833eef313f5.jpg""]","",""
"","4472","similarity","31","260985","0.0-6.0-25.0","3","[""img/0867/aa05d113-fc19-4756-a8eb-7878f580bc92.jpg"",""img/0904/24fc38fe-842c-4831-ad8a-b1de5c25c0a8.jpg""]","",""
"","3398","similarity","32","265392","0.0-6.0-26.0","5","[""img/0860/99c589b9-9140-4d17-90c0-b344323edcda.jpg"",""img/0881/f037e3b0-09cb-4a83-b2d9-6a71fe474e63.jpg""]","",""
"","4516","similarity","33","270916","0.0-6.0-27.0","7","[""img/0866/be24ab58-230e-4db8-9f45-ff04c9aec6bb.jpg"",""img/0866/a15b02be-11bb-43e3-b0e0-ecc3bd7dfc49.jpg""]","",""
"","6057","similarity","34","277983","0.0-6.0-28.0","3","[""img/0764/cbdc4f20-3a9a-4211-9b40-090699e0abcc.jpg"",""img/0862/f43ceabf-acc1-4107-b857-5d1849808f93.jpg""]","",""
"","3560","similarity","35","282554","0.0-6.0-29.0","3","[""img/0904/25365108-e038-4021-aac9-797f2063b337.jpg"",""img/0758/eabcd7a8-56ad-4fd2-bc24-90f6b7b33265.jpg""]","",""
"","3088","similarity","36","286656","0.0-6.0-30.0","6","[""img/0894/9b1333fd-3561-43bf-aee5-99b7b7ca3dc3.jpg"",""img/0899/fef567a2-c121-4481-9af0-ff108d199bbf.jpg""]","",""
"","4303","similarity","37","291970","0.0-6.0-31.0","3","[""img/0860/87039971-2210-4aab-93c0-8e9b5f1655b2.jpg"",""img/0904/96e503ea-6630-4996-85f2-0237688ce441.jpg""]","",""
"","4623","similarity","38","297609","0.0-6.0-32.0","5","[""img/0874/29830da7-be5f-44e5-b141-652a0ccf7269.jpg"",""img/0881/292e9b4b-fca0-4ba8-87f1-4048f9e37b7d.jpg""]","",""
"","5217","similarity","39","303838","0.0-6.0-33.0","5","[""img/0881/f8bd891e-aa09-4782-89db-33e7cb2b0cf1.jpg"",""img/0899/66ab3178-c3fe-4455-ad17-d5952b08e018.jpg""]","",""
"","4469","similarity","40","309314","0.0-6.0-34.0","6","[""img/0866/93a27239-8317-4e08-98ca-d8b1ff298e07.jpg"",""img/0862/ad593cc7-cabe-4bb7-8e14-8a447a0717b4.jpg""]","",""
"","4016","similarity","41","314341","0.0-6.0-35.0","1","[""img/0868/4bd5105a-d2c3-4f82-8c80-57196106ba53.jpg"",""img/0894/3664e04c-c6d3-4c9b-afb6-25d89974b174.jpg""]","",""
"","5320","similarity","42","320675","0.0-6.0-36.0","6","[""img/0860/29a21a9f-54bb-4093-ad3f-04823ceaa89f.jpg"",""img/0860/e14d67c1-6d92-4f1e-9257-c8607159c19c.jpg""]","",""
"","6870","similarity","43","328558","0.0-6.0-37.0","4","[""img/0862/a0a3a7ba-7798-46a3-b4ca-05e1f6e581d0.jpg"",""img/0864/ea327690-500b-4137-bf91-451b309fe6a5.jpg""]","",""
"","4189","similarity","44","333763","0.0-6.0-38.0","2","[""img/0766/908bc45b-7c9e-4f95-806e-86b196ebcb2c.jpg"",""img/0866/07c9c966-3c8d-40e7-8128-92b2acbaed5d.jpg""]","",""
"","3929","similarity","45","338701","0.0-6.0-39.0","3","[""img/0875/d59ff733-eaff-4ee2-9443-06954dd0bcb6.jpg"",""img/0898/a8f16b02-e19f-423b-86c3-a36562ae1f9b.jpg""]","",""
"","4644","similarity","46","344357","0.0-6.0-40.0","6","[""img/0766/b84598d0-5b41-4841-88b0-b441b48289f5.jpg"",""img/0769/688d0c52-ad73-4065-a5eb-f8c10d076bff.jpg""]","",""
"","3746","similarity","47","375979","0.0-6.0-41.0","5","[""img/0874/adf9a8f1-c40b-402b-b95b-1e85a54a7b62.jpg"",""img/0764/4bec8d92-75aa-475a-954d-8215dbe538f5.jpg""]","",""
"","5514","similarity","48","382503","0.0-6.0-42.0","1","[""img/0868/15dd6fd7-791e-4b53-b203-195d617521a4.jpg"",""img/0902/d49743d6-67ae-4c2e-a939-8fd895a0f18e.jpg""]","",""
"","4411","similarity","49","387923","0.0-6.0-43.0","1","[""img/0875/3ecb367d-e9eb-4826-8aaa-7aa72fb98019.jpg"",""img/0899/5b56dd3e-3f49-47cc-af84-16da6457753b.jpg""]","",""
"","6520","similarity","50","395452","0.0-6.0-44.0","5","[""img/0866/f756f7d1-9ad8-4a34-9ef6-7a443d705bfe.jpg"",""img/0860/8277806e-b684-4474-8f7b-3fca946d7d4f.jpg""]","",""
"","5930","similarity","51","402394","0.0-6.0-45.0","6","[""img/0766/fd064894-7147-4af5-97e9-2089d5472656.jpg"",""img/0903/8f7f9939-b8e6-433f-93dd-b362496c80a7.jpg""]","",""
"","4549","similarity","52","407951","0.0-6.0-46.0","6","[""img/0901/4d1bed7e-3c4e-4f6c-ada9-4beb66ba9e39.jpg"",""img/0904/9b3568cc-3cf7-42be-9df3-fdafde7a58b8.jpg""]","",""
"","4160","similarity","53","413119","0.0-6.0-47.0","1","[""img/0758/d540bee6-b460-4c32-ac57-bc282742d7d4.jpg"",""img/0902/d5e25767-e8ec-45f3-ac0a-7b4a6f7a9edc.jpg""]","",""
"","3182","similarity","54","417311","0.0-6.0-48.0","7","[""img/0764/cffc80b0-4a90-4acb-a530-6f480f3ca303.jpg"",""img/0764/ca9829fe-aaf8-45b8-b98a-6bae751c63dd.jpg""]","",""
"","4161","similarity","55","422481","0.0-6.0-49.0","2","[""img/0866/bf14b5bd-fb55-47db-86b9-4f8aeb9a6dad.jpg"",""img/0902/c920f0e1-1c81-480f-a164-c77f2dc6ce9a.jpg""]","",""
"","6302","similarity","56","429792","0.0-6.0-50.0","4","[""img/0764/1def7b22-b054-4ec2-860b-73d25691823b.jpg"",""img/0758/335851a0-a55b-46d8-ab05-8463eda48349.jpg""]","",""
"","5393","similarity","57","436198","0.0-6.0-51.0","5","[""img/0898/6cd3830b-d44e-4915-be2b-88d31424b91c.jpg"",""img/0894/767a0eec-1064-46b1-b1aa-dfa02b0cd74e.jpg""]","",""
"","4703","similarity","58","441915","0.0-6.0-52.0","6","[""img/0875/5a1e5100-0d94-4fec-bbe9-ca9894d2cf8e.jpg"",""img/0866/0207e9a2-7dbb-40b5-9459-b472aaeceb2a.jpg""]","",""
"","4041","similarity","59","446968","0.0-6.0-53.0","7","[""img/0904/65e2b70a-b184-4da3-b5c0-5038bdf9469a.jpg"",""img/0904/da170c1b-9651-4f08-b231-2bdd1d9a046f.jpg""]","",""
"","3357","similarity","60","451334","0.0-6.0-54.0","7","[""img/0769/b664b502-a86c-46c1-ad6f-5ebffc2e1bd3.jpg"",""img/0769/d1be2815-fa79-46e8-b5c3-7d81caaca490.jpg""]","",""
"","5756","similarity","61","458100","0.0-6.0-55.0","4","[""img/0898/4184e5a2-84ea-4f36-9b42-ae58646f6f87.jpg"",""img/0758/821c68d3-5cb0-4eae-8659-30e6263fca39.jpg""]","",""
"","3310","similarity","62","462419","0.0-6.0-56.0","7","[""img/0769/a3cfbdeb-acb3-4eac-87fb-4b117f42d4f8.jpg"",""img/0902/cf9dee9c-2bdf-4d64-9302-97f1660fe52c.jpg""]","",""
"","5279","similarity","63","468706","0.0-6.0-57.0","7","[""img/0864/5f33e097-23e3-4002-882d-76e8cb15f451.jpg"",""img/0881/f62bdcd1-a4b7-4d48-83da-d9c9e01c8727.jpg""]","",""
"","10349","similarity","64","480062","0.0-6.0-58.0","3","[""img/0758/d41c06bf-ebaf-454b-91c6-1a17f917b659.jpg"",""img/0868/c8ac40c7-6904-4e13-8d61-c75d3052dc4e.jpg""]","",""
"","5110","similarity","65","486182","0.0-6.0-59.0","1","[""img/0862/e8cc3bdf-cc43-4565-bccf-492626c70953.jpg"",""img/0769/057eb0a0-aa5b-40c7-9852-21444f68d767.jpg""]","",""
"","3207","similarity","66","490400","0.0-6.0-60.0","5","[""img/0764/978aede9-4590-4ad0-b234-135c83e5d669.jpg"",""img/0903/5ea5bbe0-f238-4724-abe7-9ed8dee8c0ba.jpg""]","",""
"","3583","similarity","67","494991","0.0-6.0-61.0","7","[""img/0899/0e1d936a-dbe2-4afc-9f19-7b7a1ae6c9ed.jpg"",""img/0899/d8f2dd94-570e-4e8c-a087-d96090fb9e8c.jpg""]","",""
"","3954","similarity","68","499956","0.0-6.0-62.0","5","[""img/0860/9593362c-9fe5-4d12-9735-6000a11f6aa5.jpg"",""img/0875/fb732ab5-013a-4366-9f65-27811ed157e9.jpg""]","",""
"","4615","similarity","69","505579","0.0-6.0-63.0","2","[""img/0868/fd307a36-9a3a-47d7-ab7c-f810d0b35040.jpg"",""img/0874/31e22c7c-99aa-40b1-bf03-dd73fa2df4d6.jpg""]","",""
"","4763","similarity","70","511351","0.0-6.0-64.0","5","[""img/0758/e38fd80d-18d0-42f3-b848-f930788e8bd7.jpg"",""img/0862/eefa5588-9efd-4591-aa5f-a2e17c7d7bcc.jpg""]","",""
"","4225","similarity","71","516587","0.0-6.0-65.0","6","[""img/0904/0d25eb24-bb20-4e8d-9787-8b489558b4cb.jpg"",""img/0898/b2732712-71c2-45d8-834f-2b2ed5504910.jpg""]","",""
"","4549","similarity","72","522146","0.0-6.0-66.0","1","[""img/0881/19e82c47-8e4b-45d2-a6c8-74181eb4155e.jpg"",""img/0866/945c6710-d15b-4a5b-a8f6-69af0850357f.jpg""]","",""
"","3335","similarity","73","526490","0.0-6.0-67.0","1","[""img/0867/2e1a0b58-cdb1-4107-a14e-452530d7b9b0.jpg"",""img/0898/26c41340-15bd-4ead-8fe4-c0d0ddca09c2.jpg""]","",""
"","4211","similarity","74","531709","0.0-6.0-68.0","6","[""img/0902/d2c34af0-8c50-437d-8cc3-619195a3e8ba.jpg"",""img/0764/952d7adc-dc40-4aee-acce-18c2a1d02ea1.jpg""]","",""
"","5349","similarity","75","538072","0.0-6.0-69.0","6","[""img/0875/ebf7653f-ff45-4e9f-af58-2c042ab3cd2b.jpg"",""img/0867/85a96c62-548f-4994-9553-819e03c3135a.jpg""]","",""
"","8188","similarity","76","547271","0.0-6.0-70.0","6","[""img/0766/0bf3793e-c353-45e5-ac6f-753f5f484e10.jpg"",""img/0764/d7f3ac54-318a-4dac-a06b-62bed34d01a4.jpg""]","",""
"","5505","similarity","77","553787","0.0-6.0-71.0","4","[""img/0894/43216a7f-27bc-4b5a-8841-d122a30da9d9.jpg"",""img/0867/179ab87a-8eac-4c52-a41f-2e48e3120f09.jpg""]","",""
"","5706","similarity","78","560507","0.0-6.0-72.0","2","[""img/0875/dbdd643e-6d0e-4a5c-ab57-b9c29b9c981a.jpg"",""img/0764/713cc27e-2338-4486-bfe9-5f5725fbd7a0.jpg""]","",""
"","2920","similarity","79","564440","0.0-6.0-73.0","7","[""img/0867/f8159067-056c-41f1-a136-c529fe5e970a.jpg"",""img/0866/23a224f3-2012-4fc8-8e0f-3c36f8de27fd.jpg""]","",""
"","5240","similarity","80","570692","0.0-6.0-74.0","1","[""img/0903/b0df4094-a3be-4b5b-81bd-8d260f13f61b.jpg"",""img/0758/e1ba5e53-addc-436a-b428-d34fc1b130dc.jpg""]","",""
"","3000","similarity","81","574703","0.0-6.0-75.0","1","[""img/0766/79767d11-b612-4e8a-9e4b-a8ac95bb6a54.jpg"",""img/0868/d98ca254-b195-477f-b57e-5760a2717db8.jpg""]","",""
"","6408","similarity","82","582122","0.0-6.0-76.0","5","[""img/0874/7e4f2150-3b59-4a36-b5da-a4e0ba410531.jpg"",""img/0766/69e486f7-dbef-456b-9d48-53d814248a28.jpg""]","",""
"","4993","similarity","83","588126","0.0-6.0-77.0","2","[""img/0881/84397291-bc14-4fbf-90e8-241e486ab0fe.jpg"",""img/0868/1a62b2b2-18f5-466e-b564-5176a57c565e.jpg""]","",""
"","4079","similarity","84","593215","0.0-6.0-78.0","1","[""img/0758/61d64021-9214-4951-bdf8-f871f9827cf9.jpg"",""img/0901/233a6948-48eb-4b67-8259-222b916b2322.jpg""]","",""
"","4136","similarity","85","598360","0.0-6.0-79.0","2","[""img/0881/f4e3e181-b3c9-4af2-a5a4-fc135ab70d2e.jpg"",""img/0898/68476bbb-34a1-42d9-8bc1-deab783d4489.jpg""]","",""
"","7834","similarity","86","607201","0.0-6.0-80.0","2","[""img/0867/c71dc569-f49c-4397-8381-68b8d726736d.jpg"",""img/0758/7ffbc76b-1fc1-432c-8f7e-9ec8d1b3f643.jpg""]","",""
"","3550","similarity","87","611761","0.0-6.0-81.0","6","[""img/0769/e8ed913b-8a88-44f6-9327-d34afec3116b.jpg"",""img/0899/7b7380d5-d2be-44e5-a09a-c1756f87ef71.jpg""]","",""
"","3905","similarity","88","616678","0.0-6.0-82.0","7","[""img/0903/c708d08f-a108-4e04-8288-c3fcf6375db4.jpg"",""img/0903/70d764d9-1f35-4da7-a35d-4cc39834d270.jpg""]","",""
"","6942","similarity","89","638071","0.0-6.0-83.0","2","[""img/0867/a749dddb-69f0-44a6-acdc-2bf295cf6dcc.jpg"",""img/0766/d5d38751-8fa5-476f-93e9-86ed2d9045ef.jpg""]","",""
"","4572","similarity","90","643651","0.0-6.0-84.0","2","[""img/0902/95a36b6b-9601-4fa5-8fd9-606ea62f9425.jpg"",""img/0867/c66898ba-b71b-4d50-84f9-f7f84853a98d.jpg""]","",""
"","4024","similarity","91","648683","0.0-6.0-85.0","1","[""img/0901/6e2957f8-f5ab-46f4-87cc-bb50155a098b.jpg"",""img/0875/42910c99-5463-450a-a0f8-d4d060a11455.jpg""]","",""
"","3308","similarity","92","652999","0.0-6.0-86.0","2","[""img/0764/f713847b-4832-42d1-8fb3-e17e37fd745c.jpg"",""img/0866/9b38d691-1802-4959-ab3f-fc902f0e4ea6.jpg""]","",""
"","6394","similarity","93","660401","0.0-6.0-87.0","6","[""img/0901/0adb3bd6-d758-4ba7-9723-3ad6cac05bd5.jpg"",""img/0894/8cadb87a-7001-4e47-99fb-1867bebf1668.jpg""]","",""
"","3080","similarity","94","664494","0.0-6.0-88.0","4","[""img/0898/881e2a85-d5c2-49be-a0c6-8a6ce2c4af08.jpg"",""img/0769/91acb237-65a3-4d0b-9748-af5c7b83d3c7.jpg""]","",""
"","2564","similarity","95","668066","0.0-6.0-89.0","7","[""img/0769/11518cb3-13ea-4dd0-890c-30cfab728ade.jpg"",""img/0894/792c83e9-a747-4000-bc72-5663d2439edb.jpg""]","",""
"","6369","similarity","96","675447","0.0-6.0-90.0","5","[""img/0862/99a99e39-8355-44ec-b993-e7bcec111e1c.jpg"",""img/0874/bf14b896-e930-4fd9-9c05-2e83317a2773.jpg""]","",""
"","3465","similarity","97","679921","0.0-6.0-91.0","6","[""img/0894/492d2f29-d7b9-4422-8be8-47fd58bfaa8b.jpg"",""img/0766/d8221e53-2300-4d99-ae1b-0bfb0eabe579.jpg""]","",""
"","3875","similarity","98","684803","0.0-6.0-92.0","2","[""img/0874/ca76a855-4e77-4f2f-872a-0a718153e7ed.jpg"",""img/0867/f26f6b60-f772-4f4c-95a4-addc62cfd692.jpg""]","",""
"","8487","similarity","99","694298","0.0-6.0-93.0","1","[""img/0899/565ccdd9-0933-4536-a625-3c0e25a713dd.jpg"",""img/0868/4a8a45ed-2c4f-421b-9564-409a33ecd26c.jpg""]","",""
"","3655","similarity","100","698962","0.0-6.0-94.0","4","[""img/0903/8c358e9e-a4f4-466e-8b93-7aec0d2358e8.jpg"",""img/0862/92fcd8a4-8193-4a6a-ae09-dd4a6338b0df.jpg""]","",""
"","6032","similarity","101","706001","0.0-6.0-95.0","5","[""img/0899/76ad07e2-ca25-45eb-84f2-8d80b8ca3e26.jpg"",""img/0766/d512b99c-a2dc-40d7-8e86-827323a0cbcf.jpg""]","",""
"","3664","similarity","102","710674","0.0-6.0-96.0","7","[""img/0867/cc72ed48-7704-422c-86d6-467a1145287a.jpg"",""img/0868/5fa7f9d0-f0e5-454c-8224-74d964818f56.jpg""]","",""
"","6038","similarity","103","717728","0.0-6.0-97.0","3","[""img/0862/cdaed51d-9e2f-4807-801a-4663c40077e2.jpg"",""img/0901/693e0535-ef7e-4d60-af9d-fac2f38e8307.jpg""]","",""
"","6124","similarity","104","724861","0.0-6.0-98.0","1","[""img/0875/e7e66b13-b573-431e-b85e-288ce04a35a3.jpg"",""img/0766/3c526a07-9e0a-4ae2-8142-00085f0127da.jpg""]","",""
"","3931","similarity","105","729803","0.0-6.0-99.0","7","[""img/0758/7fba58df-2a7a-4b76-8a8f-62739f97f271.jpg"",""img/0874/93d1f8dc-acf2-4f03-bd8d-8ec35df276ed.jpg""]","",""
"","3135","similarity","106","733945","0.0-6.0-100.0","1","[""img/0904/696ebb60-8891-417a-91fd-c53218907a95.jpg"",""img/0868/09a9ef4d-d000-4cfa-a6aa-ebec7c2edeb4.jpg""]","",""
"","4180","similarity","107","739133","0.0-6.0-101.0","3","[""img/0903/c3cb4a01-2797-43ca-b216-88c67b323fbb.jpg"",""img/0866/386235d2-6857-41e7-88a8-25cfc3430025.jpg""]","",""
"","2667","similarity","108","742812","0.0-6.0-102.0","2","[""img/0868/7b212364-ff5f-4e28-9241-7eb6ea00161b.jpg"",""img/0769/6c0bac4c-5f59-43c7-898c-3ca93cf55cfe.jpg""]","",""
"","4794","similarity","109","748613","0.0-6.0-103.0","4","[""img/0902/6730b12a-f0a7-4587-8c10-a32fae16565b.jpg"",""img/0899/93494f3b-d539-4075-b027-d82e344563da.jpg""]","",""
"","5435","similarity","110","755060","0.0-6.0-104.0","2","[""img/0868/3a62db2d-97e9-44a3-b8e3-a48c6f0e423b.jpg"",""img/0862/5d887e9f-89e2-4ebc-80a0-6d46fe6480db.jpg""]","",""
"","4015","similarity","111","760085","0.0-6.0-105.0","5","[""img/0903/39365c8e-a733-4801-ac7d-b87e38c3784b.jpg"",""img/0894/5a49e858-2850-4892-9a06-e9f0efb5f94d.jpg""]","",""
"","3989","similarity","112","765081","0.0-6.0-106.0","6","[""img/0864/a248adb3-c70b-4652-b7a3-776d2a1e904b.jpg"",""img/0874/3f471690-9788-4d03-90c7-f615aecef149.jpg""]","",""
"","5252","similarity","113","771345","0.0-6.0-107.0","5","[""img/0862/f23038d4-c366-4f70-979f-66b62362efa4.jpg"",""img/0902/2db723b6-130f-454c-8c8d-88829edbcd65.jpg""]","",""
"","2895","similarity","114","775250","0.0-6.0-108.0","7","[""img/0904/b5855d6a-7ef9-46ca-9215-6e9fa046e543.jpg"",""img/0903/9b60ef5b-234f-4239-892b-3d4c412accc2.jpg""]","",""
"","4165","similarity","115","780425","0.0-6.0-109.0","4","[""img/0764/29072395-f595-4e3c-83d3-ff87010039fa.jpg"",""img/0864/da39ad34-04e0-40d4-a724-c08d53e0ea09.jpg""]","",""
"","3100","similarity","116","784532","0.0-6.0-110.0","2","[""img/0866/d493a2c8-66eb-44b4-be02-2f327b700b7c.jpg"",""img/0894/a3d4170b-b7d8-40e3-955f-87e76ed745fc.jpg""]","",""
"","445174","similarity","117","1230729","0.0-6.0-111.0","4","[""img/0899/51a7a498-98c7-42d7-bca8-bc2d8f0b5831.jpg"",""img/0903/5c6b1f57-b3a2-40f5-9fb1-82785e24b6a0.jpg""]","",""
"","7711","similarity","118","1239475","0.0-6.0-112.0","7","[""img/0902/8065aa6b-4aef-4368-afa2-02c6465ca582.jpg"",""img/0904/9dd5708f-3f8b-46a9-b49f-2f2fab87b357.jpg""]","",""
"","4294","similarity","119","1244785","0.0-6.0-113.0","4","[""img/0864/8ddd2e30-a1d0-479f-9cbe-591213023893.jpg"",""img/0860/f44ba3fb-03a2-42f0-8509-2c1ded493086.jpg""]","",""
"","6409","similarity","120","1252212","0.0-6.0-114.0","3","[""img/0860/15b24a61-25be-4356-9eac-5ce95d0cb4a4.jpg"",""img/0899/ddf96ade-692e-4602-bd22-dedbb46401bc.jpg""]","",""
"","7178","similarity","121","1260407","0.0-6.0-115.0","3","[""img/0881/ee44e27f-d662-4608-b265-e7ffa19b216f.jpg"",""img/0903/5995f4a8-fa82-46f8-8760-fd7800a5ca34.jpg""]","",""
"","6074","similarity","122","1267498","0.0-6.0-116.0","2","[""img/0894/2d2db7b3-e8a3-499b-b63a-14f51bf73882.jpg"",""img/0874/1016b306-087c-4afc-aa08-fa527b28dc76.jpg""]","",""
"","8606","similarity","123","1277116","0.0-6.0-117.0","5","[""img/0881/2a8413be-fec2-4de6-88ad-614dd4cccc9d.jpg"",""img/0862/92f0146c-20c4-482e-aef5-adb693790338.jpg""]","",""
"","4449","similarity","124","1282580","0.0-6.0-118.0","6","[""img/0868/e0aff734-077f-40dd-9781-74821abd3621.jpg"",""img/0875/f87b67d7-c33e-40d1-b281-248c4be1cb6e.jpg""]","",""
"","5670","similarity","125","1289264","0.0-6.0-119.0","2","[""img/0860/71e1aad0-2cdf-43bb-94a4-a8c016997c30.jpg"",""img/0758/a085b443-b5d7-4cb2-9ad4-b9dab0fc23f1.jpg""]","",""
"","4016","similarity","126","1294295","0.0-6.0-120.0","4","[""img/0864/4bd81bc6-c13d-46df-95a9-485886dc7c1b.jpg"",""img/0875/cff79b3a-a797-4393-9757-6275f999ec04.jpg""]","",""
"","7339","similarity","127","1302647","0.0-6.0-121.0","5","[""img/0898/a114b375-cb89-44ba-9498-74213f1ecdee.jpg"",""img/0866/6f2a90d7-14f1-4f1b-bd64-fc0af6b9fe44.jpg""]","",""
"","7935","similarity","128","1311598","0.0-6.0-122.0","3","[""img/0874/85eb9b8a-c4c6-4e5a-b8e7-363a87a82054.jpg"",""img/0904/0d17b811-063e-416e-a23c-3b3cfa4fcce5.jpg""]","",""
"","5101","similarity","129","1317715","0.0-6.0-123.0","5","[""img/0904/09934646-45d2-4147-8fec-64a22a5ac822.jpg"",""img/0864/65210d57-1153-4657-886a-32e758f49b4a.jpg""]","",""
"","3902","similarity","130","1322630","0.0-6.0-124.0","5","[""img/0894/c505c65a-cde2-4f2c-8cde-f8676f7c894d.jpg"",""img/0902/97022122-01e4-46c3-a34f-c6260ad28428.jpg""]","",""
"","4265","similarity","131","1340425","0.0-6.0-125.0","1","[""img/0868/83b4350a-3b70-4cea-b7f5-b5b56f3050a8.jpg"",""img/0864/87c467d3-abca-482f-ad80-3766c21b1bb3.jpg""]","",""
"","5813","similarity","132","1347252","0.0-6.0-126.0","1","[""img/0899/ad8268c5-8199-48d0-ad70-c5b6d6c599ec.jpg"",""img/0866/d266fece-59b3-46fa-b69f-96f6efb81b59.jpg""]","",""
"","5136","similarity","133","1353402","0.0-6.0-127.0","2","[""img/0875/2c361b79-c3d1-4eda-812e-bf03192407bf.jpg"",""img/0904/6291eb43-c10c-4810-a36a-101d09868b04.jpg""]","",""
"","4778","similarity","134","1359191","0.0-6.0-128.0","1","[""img/0867/1719a35d-f085-48c0-9099-16c94fe418b4.jpg"",""img/0899/06b0fc99-0581-461a-9913-d1a5a941ac61.jpg""]","",""
"","6664","similarity","135","1366870","0.0-6.0-129.0","1","[""img/0901/a6776381-91fe-43f8-ab73-261d318f95fd.jpg"",""img/0867/8ba0c5a7-c7e4-42cf-a80a-543763b90779.jpg""]","",""
"","5501","similarity","136","1373387","0.0-6.0-130.0","2","[""img/0864/e336a4c5-6648-4fd7-b2f6-93a3fb83f8c6.jpg"",""img/0769/38a88f69-28fd-4bbd-99f0-f4c02bfd3995.jpg""]","",""
"","4169","similarity","137","1378569","0.0-6.0-131.0","2","[""img/0903/43ffd882-077a-40dd-a264-e58d519420a1.jpg"",""img/0868/6a28c3b0-3d76-498a-9fb7-ddafc665eca8.jpg""]","",""
"","5071","similarity","138","1384654","0.0-6.0-132.0","1","[""img/0864/c3b63e8f-ea39-4d70-a1f2-b3fe4be8eb75.jpg"",""img/0867/f8488a47-94ee-4166-952c-44e16cf172f6.jpg""]","",""
"","8570","similarity","139","1394238","0.0-6.0-133.0","4","[""img/0901/d4d09bf5-093e-4050-838e-7c738be8e63c.jpg"",""img/0860/c5ccd1a4-4bb7-48e1-9b25-72cfaf06909b.jpg""]","",""
"","6900","similarity","140","1402150","0.0-6.0-134.0","4","[""img/0881/6b1189e6-232d-4042-8885-16dc7b10e0d4.jpg"",""img/0766/989c5c7f-1aff-4442-ac63-9d46acf4a891.jpg""]","",""
"","6342","similarity","141","1409506","0.0-6.0-135.0","5","[""img/0903/b548d383-2a95-4575-8c13-647873751ff1.jpg"",""img/0864/49150900-7f25-4ce8-8d10-9b47a71d1997.jpg""]","",""
"","9518","similarity","142","1420038","0.0-6.0-136.0","3","[""img/0758/9fb5b2fe-3f00-4fe6-973c-1ce10d5f4cd5.jpg"",""img/0894/4739e06d-c31e-4bf1-bf91-c97fa9afb456.jpg""]","",""
"","6220","similarity","143","1427273","0.0-6.0-137.0","2","[""img/0769/f6396414-6788-4d59-9683-de153298d89c.jpg"",""img/0860/702bd09d-df3a-40aa-a267-5f04474305b5.jpg""]","",""
"","3685","similarity","144","1431973","0.0-6.0-138.0","6","[""img/0904/1d10df11-b5c8-4370-9a6b-097a7f965895.jpg"",""img/0766/00891401-e4c9-4ce1-bc19-f70740d174bc.jpg""]","",""
"","4404","similarity","145","1437391","0.0-6.0-139.0","2","[""img/0868/179a5502-ab5c-478e-8263-5a1fbcc101d2.jpg"",""img/0860/524b2e98-5767-4d53-942c-ebae6925659b.jpg""]","",""
"","4534","similarity","146","1442937","0.0-6.0-140.0","5","[""img/0758/dd559618-7f09-4a07-8018-d311c4a5ea29.jpg"",""img/0864/5f74a653-3bdc-4308-8cca-ac667dc22e1f.jpg""]","",""
"","6772","similarity","147","1450722","0.0-6.0-141.0","6","[""img/0867/50a1b60e-3a29-44bf-b606-d4bd3746fea9.jpg"",""img/0867/de92135f-5b65-4ed9-b245-188292c7c2f8.jpg""]","",""
"","5937","similarity","148","1457678","0.0-6.0-142.0","7","[""img/0898/04e39a7a-fcf6-4156-ab0e-f5871f335e1c.jpg"",""img/0898/c3cecf20-f7fd-45fa-97d0-dc0a63e8d6c0.jpg""]","",""
"","4201","similarity","149","1462892","0.0-6.0-143.0","1","[""img/0866/11a1d141-be5e-443c-98c1-a9d4d9e3dec0.jpg"",""img/0769/5bd04f55-d091-4f57-85db-38426f26bd1a.jpg""]","",""
"","4601","similarity","150","1468508","0.0-6.0-144.0","6","[""img/0860/fd4662f9-4c03-4d79-8593-06735e55a64b.jpg"",""img/0898/cd3aaa3f-efa9-4ab3-8d6f-a6a9273ddf42.jpg""]","",""
"","6036","similarity","151","1475558","0.0-6.0-145.0","5","[""img/0766/dd3e18d0-0c98-4d05-b850-69976ee8cd75.jpg"",""img/0864/3d4de670-b290-4285-9c3d-12a0e3af44e9.jpg""]","",""
"","4436","similarity","152","1481009","0.0-6.0-146.0","4","[""img/0860/4a022222-056d-461c-ab02-39fac9647552.jpg"",""img/0903/8931c67c-a43d-47d3-a4c9-42aa2f81d344.jpg""]","",""
"","6904","similarity","153","1488926","0.0-6.0-147.0","1","[""img/0867/ac1797e4-8afc-48fe-b252-86d1defb1cca.jpg"",""img/0764/974d52cc-6318-4e7a-b294-2f3e92ff800f.jpg""]","",""
"","3119","similarity","154","1493058","0.0-6.0-148.0","6","[""img/0769/4a1d0b52-3fe8-40fb-bb1c-c814fe49a68c.jpg"",""img/0904/2fd488e9-960f-41f7-8a44-33375f7d5051.jpg""]","",""
"","5622","similarity","155","1499693","0.0-6.0-149.0","6","[""img/0764/f990b2e8-ecee-481e-be7c-0239fce350e2.jpg"",""img/0901/08d6d1d1-c043-43c4-bb08-d45e062822b9.jpg""]","",""
"","3520","similarity","156","1504226","0.0-6.0-150.0","6","[""img/0904/5aec2708-cf14-4a58-aa30-9a8a61c1be0e.jpg"",""img/0899/25ae6ec8-9565-49fe-a8bb-8d0666f52716.jpg""]","",""
"","3487","similarity","157","1508746","0.0-6.0-151.0","2","[""img/0862/00c06b00-3b73-44e9-bc1e-c5aafb438321.jpg"",""img/0867/6e19c858-b606-45b2-a4c6-910a73f1d82c.jpg""]","",""
"","6048","similarity","158","1515805","0.0-6.0-152.0","7","[""img/0766/33519c22-aaa4-49d7-8d49-ab551db1945e.jpg"",""img/0766/d14acac4-7db1-4b07-8f8f-302437326fc0.jpg""]","",""
"","5543","similarity","159","1522361","0.0-6.0-153.0","1","[""img/0862/57b6f83f-c763-4858-830d-102f97bfefbf.jpg"",""img/0894/11674fa4-285d-44e2-939f-2228c6a64080.jpg""]","",""
"","4562","similarity","160","1527934","0.0-6.0-154.0","5","[""img/0899/8de08897-b430-42fe-9d42-840670b80f94.jpg"",""img/0901/58ec7fa9-b466-4651-90aa-c082df0972de.jpg""]","",""
"","4741","similarity","161","1533687","0.0-6.0-155.0","7","[""img/0874/2c9464dd-8a23-4baa-ac94-1ba3af5c15cc.jpg"",""img/0874/a82926a3-0b43-4add-803c-d5f9ea7798ee.jpg""]","",""
"","4997","similarity","162","1539697","0.0-6.0-156.0","3","[""img/0860/8fdba999-b946-4c7d-9891-336018b563ef.jpg"",""img/0867/12264664-1860-46df-8c21-162b9817cdda.jpg""]","",""
"","3137","similarity","163","1543848","0.0-6.0-157.0","4","[""img/0901/168eb52c-c415-43f1-b5c8-e76e1a1ec247.jpg"",""img/0881/7e822106-76f7-4b10-a805-14dc68b2cfaf.jpg""]","",""
"","8607","similarity","164","1553468","0.0-6.0-158.0","7","[""img/0903/365f176c-25a4-4973-bd3c-279bf1b39476.jpg"",""img/0902/9f543501-3cf1-45a7-a2f1-eeca87cc15b9.jpg""]","",""
"","4432","similarity","165","1558912","0.0-6.0-159.0","4","[""img/0860/e8b8c51e-1834-4875-8b61-6c5bc9b178bd.jpg"",""img/0764/c01e2d65-6586-441b-bef5-3c96fcd85380.jpg""]","",""
"","3673","similarity","166","1563599","0.0-6.0-160.0","1","[""img/0902/22ed3536-288b-452e-9777-0fa0ab94deb0.jpg"",""img/0875/527ced51-8e53-4aab-ab05-86df219104c0.jpg""]","",""
"","2450","similarity","167","1567061","0.0-6.0-161.0","4","[""img/0898/224c1572-56b9-4f16-a9e4-6f3bc9c114bd.jpg"",""img/0862/1c20f772-3a51-4a80-aac0-f57dc9f86c28.jpg""]","",""
"","6107","similarity","168","1574179","0.0-6.0-162.0","5","[""img/0894/b422d5c6-3c5a-49ae-a53e-7e88ac993f49.jpg"",""img/0875/8521fd58-3b1e-4dc5-97ae-804edfa6734a.jpg""]","",""
"","4951","similarity","169","1580140","0.0-6.0-163.0","2","[""img/0866/620cd1aa-0800-4414-8f6e-90342e7a99ad.jpg"",""img/0864/afcba0a3-7e27-4757-b254-e9f05fad27e2.jpg""]","",""
"","4343","similarity","170","1585497","0.0-6.0-164.0","2","[""img/0766/fd74fdbb-ea40-4f3a-a091-38d08dfd636e.jpg"",""img/0862/7918ca67-5bd3-4606-a5ea-c39fb11a9297.jpg""]","",""
"","4570","similarity","171","1591082","0.0-6.0-165.0","2","[""img/0866/c446214b-a368-4c65-ae39-ea46894256ab.jpg"",""img/0874/3ce41e7c-40c8-4d58-a546-171114521796.jpg""]","",""
"","4669","similarity","172","1596761","0.0-6.0-166.0","6","[""img/0862/f188d4f0-76a4-4102-818c-a209969d73a5.jpg"",""img/0860/5bff793e-cbd5-4d7e-b628-0ac2b0e30b64.jpg""]","",""
"","2554","similarity","173","1611128","0.0-6.0-167.0","5","[""img/0766/a0270213-fa0e-4972-8b56-228c3e01ff90.jpg"",""img/0901/5b97abf9-f0c8-4fd1-b921-36d574779078.jpg""]","",""
"","4441","similarity","174","1616582","0.0-6.0-168.0","7","[""img/0862/ee3b7bff-4a70-4e84-9bea-4a565e456acb.jpg"",""img/0862/847e5208-38ec-4f36-949c-296cdd7424ee.jpg""]","",""
"","4632","similarity","175","1622222","0.0-6.0-169.0","6","[""img/0894/5f15154e-e72e-4ce5-aafb-bce6f0564006.jpg"",""img/0764/e42c1dc9-7831-4995-be19-7ca7b4d141fc.jpg""]","",""
"","3999","similarity","176","1627233","0.0-6.0-170.0","2","[""img/0874/a3bc679d-619f-4db6-bb68-116dcb757d9c.jpg"",""img/0898/5f699581-3853-4547-856c-12f419ba5af7.jpg""]","",""
"","2647","similarity","177","1630890","0.0-6.0-171.0","4","[""img/0860/4f695df5-afac-4da7-9875-fee39b0b24ad.jpg"",""img/0766/51d3aab4-3d09-4dda-b99d-3dc7aaabc6f2.jpg""]","",""
"","3165","similarity","178","1635068","0.0-6.0-172.0","3","[""img/0898/82231d4c-218b-4d0a-b50d-35a49b524e97.jpg"",""img/0864/f92649a2-0590-4d31-9a7a-1bfb81666a2d.jpg""]","",""
"","5088","similarity","179","1641170","0.0-6.0-173.0","3","[""img/0881/566f45f8-5fed-4479-a60f-26377e60a62d.jpg"",""img/0764/958b8576-3a3b-4acc-96dc-06b74de69f37.jpg""]","",""
"","4085","similarity","180","1646264","0.0-6.0-174.0","2","[""img/0898/b3290bf9-215b-4b45-b21a-65bdf73f142f.jpg"",""img/0868/293079b8-7e0c-4afd-a390-1e5d35fe3ded.jpg""]","",""
"","2741","similarity","181","1650015","0.0-6.0-175.0","7","[""img/0864/300bb811-8b3c-4c42-8653-6097c3725197.jpg"",""img/0864/e02eddb5-f468-499c-91bf-f7be3ffe979b.jpg""]","",""
"","2968","similarity","182","1653993","0.0-6.0-176.0","5","[""img/0899/b45c550b-96c3-4255-ad59-48a2b4db1c1e.jpg"",""img/0862/ba89835a-408c-480b-8594-ed4ffa97eb5c.jpg""]","",""
"","6953","similarity","183","1661961","0.0-6.0-177.0","3","[""img/0875/2e13d160-eea1-416b-aff1-d37ab99ecc1d.jpg"",""img/0758/f61ecdf8-a7d4-4db0-b84d-be46f7cfaffc.jpg""]","",""
"","4121","similarity","184","1667094","0.0-6.0-178.0","1","[""img/0866/a04d37f0-99dd-478a-b6c6-58b215138f84.jpg"",""img/0901/d61f267a-c492-4db6-9bfb-61efd49cf072.jpg""]","",""
"","3565","similarity","185","1671670","0.0-6.0-179.0","2","[""img/0769/96556ef3-7fac-4c9d-8281-1cb0ea5081bc.jpg"",""img/0874/995f0332-0439-4eb4-add3-957335dbf6d9.jpg""]","",""
"","5328","similarity","186","1678011","0.0-6.0-180.0","5","[""img/0875/34132396-d896-4c2d-8087-646dd867e769.jpg"",""img/0881/667e2147-d457-4f32-aa5f-6ab86e5848f1.jpg""]","",""
"","3087","similarity","187","1682109","0.0-6.0-181.0","7","[""img/0866/4a87911a-d5be-4d4e-ab8e-3d1f581bf507.jpg"",""img/0868/0d3abd3a-b6c3-4584-a9f7-e2da63748b3d.jpg""]","",""
"","3590","similarity","188","1686713","0.0-6.0-182.0","5","[""img/0899/8abe6c69-822c-436c-9bf2-96c818b49ba5.jpg"",""img/0758/caa93da2-9edf-49fa-96b9-32dedd8f5078.jpg""]","",""
"","4994","similarity","189","1692716","0.0-6.0-183.0","2","[""img/0874/c0378dac-9370-439a-8b79-db27c96fb390.jpg"",""img/0875/03c3c331-738b-4446-af92-3d7386b08c2e.jpg""]","",""
"","3330","similarity","190","1697055","0.0-6.0-184.0","5","[""img/0904/63dd06dd-dccb-47ba-9740-eb33239e18a7.jpg"",""img/0862/e0f1a4e9-e1b6-45f7-af67-89f334e6630d.jpg""]","",""
"","2361","similarity","191","1700426","0.0-6.0-185.0","5","[""img/0902/44cd9b7e-fdfb-4f78-90de-8d4c9d279365.jpg"",""img/0766/ba35c0fc-4d5b-490d-959e-c94b279cdd02.jpg""]","",""
"","3672","similarity","192","1705107","0.0-6.0-186.0","5","[""img/0758/6e95579b-5166-487c-b8cb-e417c6a218e3.jpg"",""img/0769/aad494cc-674d-4a08-9bfa-24a88ebe3c79.jpg""]","",""
"","4845","similarity","193","1710965","0.0-6.0-187.0","7","[""img/0881/b549bc99-a61c-4450-bab5-9efc3a197bf0.jpg"",""img/0881/7e31e5dc-2240-4b1b-b5a0-3acd980099ef.jpg""]","",""
"","4235","similarity","194","1716211","0.0-6.0-188.0","5","[""img/0758/7ee8bc8f-c40b-4b3a-84ec-3e83580622d4.jpg"",""img/0866/02f5e6b9-52b7-448c-9708-5b460d0c9a23.jpg""]","",""
"","2722","similarity","195","1719947","0.0-6.0-189.0","5","[""img/0764/21e3292f-01ad-4238-828b-61b817857d16.jpg"",""img/0898/f3a3f225-1248-4ac7-b93b-f0ff28485bf3.jpg""]","",""
"","3419","similarity","196","1724377","0.0-6.0-190.0","5","[""img/0903/12bd8657-92e6-4c36-a06c-597e7a1d51f3.jpg"",""img/0901/00acf6c1-b66e-4060-bb04-4caf29b5a8b0.jpg""]","",""
"","4960","similarity","197","1730349","0.0-6.0-191.0","6","[""img/0902/418b716e-63e5-4c77-93e9-95b1f5a3ddf0.jpg"",""img/0898/0af304a2-6a7a-4082-ab7c-4450cd08cc58.jpg""]","",""
"","3369","similarity","198","1734731","0.0-6.0-192.0","2","[""img/0864/ef9cbca0-4be8-435d-ad49-977259e80409.jpg"",""img/0901/a0d65c84-3f20-476a-92d1-0c01e8019cf4.jpg""]","",""
"","2787","similarity","199","1738532","0.0-6.0-193.0","4","[""img/0894/b2d2f66e-e480-46da-a02a-6d0c6b285d78.jpg"",""img/0881/4bd34581-94d8-4e88-8c89-5cef864ca3be.jpg""]","",""
"","5340","similarity","200","1744885","0.0-6.0-194.0","6","[""img/0868/4e626425-63c8-484a-8a1d-e66ee4e0bef8.jpg"",""img/0868/8b0b8473-e2c0-4331-aa56-c3a5c29369da.jpg""]","",""
"","3603","similarity","201","1749501","0.0-6.0-195.0","7","[""img/0899/d60714ae-98d7-4564-8c98-94dba1351135.jpg"",""img/0764/fb7d4a20-a475-465e-a74f-aa39a0d33d16.jpg""]","",""
"","1952","similarity","202","1752465","0.0-6.0-196.0","4","[""img/0881/44e09805-5a25-4f17-a716-4ad4a331b174.jpg"",""img/0904/4b8daf2a-13a9-4ea9-9e0b-b265b6e933e7.jpg""]","",""
"","4841","similarity","203","1758318","0.0-6.0-197.0","5","[""img/0864/9b2490c5-a282-400a-9736-e1a0ecbf1cb7.jpg"",""img/0902/aa6fca32-82b0-4414-b20a-8f6f8aa5a2d2.jpg""]","",""
"","2919","similarity","204","1762249","0.0-6.0-198.0","7","[""img/0894/10f22b96-040c-44f4-950b-a4963f3f506c.jpg"",""img/0904/2c98dc56-88d1-4fb5-a999-b6a7861f65f0.jpg""]","",""
"","4024","similarity","205","1767286","0.0-6.0-199.0","7","[""img/0901/2a953e50-d237-405c-a38d-5ed21494c968.jpg"",""img/0901/4ca4f962-40c0-4c59-b14a-3cd7b8c9029b.jpg""]","",""
"","4391","similarity","206","1772687","0.0-6.0-200.0","5","[""img/0894/3adef67d-7676-4995-80b2-bb31b8aca3ef.jpg"",""img/0860/8a92e21b-6a32-4e4a-a445-2d5a487ed0a4.jpg""]","",""
"","4584","similarity","207","1778283","0.0-6.0-201.0","7","[""img/0898/01bfe666-3510-4fc7-964f-d00d28732dc8.jpg"",""img/0903/72197c2b-403e-4a26-b391-f1aa8dea4b76.jpg""]","",""
"","3375","similarity","208","1782668","0.0-6.0-202.0","4","[""img/0864/6f631579-acf1-415c-a42c-1207f62a8d99.jpg"",""img/0894/6aa5545f-fa7d-4286-bbaa-aaf34dc7ec96.jpg""]","",""
"","3954","similarity","209","1787632","0.0-6.0-203.0","2","[""img/0874/8cdb1c07-1c32-46d2-981c-3636560fa6e5.jpg"",""img/0860/18dfed73-e36b-4487-a8bd-0b8cff8e3668.jpg""]","",""
"","3366","similarity","210","1792009","0.0-6.0-204.0","2","[""img/0862/fb26cb07-d5a9-4653-813c-f41609f26cd5.jpg"",""img/0875/90da8d75-108a-44ad-b999-e21fee3860d3.jpg""]","",""
"","3715","similarity","211","1796737","0.0-6.0-205.0","1","[""img/0867/db7e032f-162b-46f5-ae67-2b29679adee4.jpg"",""img/0881/c24f3051-eefa-42de-aba6-fccb56d93c70.jpg""]","",""
"","3485","similarity","212","1801232","0.0-6.0-206.0","5","[""img/0901/443f2e59-199b-4f7b-9de9-c44ad97326a5.jpg"",""img/0902/30c420f5-c714-4681-ae5a-c0ba8f636a26.jpg""]","",""
"","4526","similarity","213","1806771","0.0-6.0-207.0","4","[""img/0899/fd9efb43-701f-4cd6-baaa-4c38315f4bdc.jpg"",""img/0864/efcfbb1b-8197-44c9-b723-40d6c608dd3c.jpg""]","",""
"","4670","similarity","214","1812453","0.0-6.0-208.0","5","[""img/0901/b9141736-3041-4385-a586-b1fe911c76a5.jpg"",""img/0769/1ca58b80-2365-446d-9616-6c1719e6c46f.jpg""]","",""
"","3288","similarity","215","1833653","0.0-6.0-209.0","7","[""img/0902/d3e55000-c839-4bf9-9b9b-4af0a9925af1.jpg"",""img/0902/5b45a7a0-81c8-4a71-aaa2-2ce09adb5a29.jpg""]","",""
"[{""page_index"":0,""viewing_time"":537989}]","537991","instructions","216","2372648","0.0-7.0","","","",""
"","21997","image-multi-choice","217","2395692","0.0-8.0-0.0","","","{""Q0"":""Nashville Warbler""}","Nashville Warbler"
"","7969","image-multi-choice","218","2404687","0.0-8.0-1.0","","","{""Q0"":""Black-and-white Warbler""}","Black-and-white Warbler"
"","16244","image-multi-choice","219","2421958","0.0-8.0-2.0","","","{""Q0"":""Townsend's Warbler""}","Townsend's Warbler"
"","5421","image-multi-choice","220","2428406","0.0-8.0-3.0","","","{""Q0"":""Lark Sparrow""}","Lark Sparrow"
"","3724","image-multi-choice","221","2433157","0.0-8.0-4.0","","","{""Q0"":""Yellow Warbler""}","Yellow Warbler"
"","6397","image-multi-choice","222","2440576","0.0-8.0-5.0","","","{""Q0"":""Tennessee Warbler""}","Orange-crowned Warbler"
"","6042","image-multi-choice","223","2447642","0.0-8.0-6.0","","","{""Q0"":""White-throated Sparrow""}","White-throated Sparrow"
"","4908","image-multi-choice","224","2453574","0.0-8.0-7.0","","","{""Q0"":""Fox Sparrow""}","Fox Sparrow"
"","10332","image-multi-choice","225","2464931","0.0-8.0-8.0","","","{""Q0"":""Song Sparrow""}","Song Sparrow"
"","11926","image-multi-choice","226","2477881","0.0-8.0-9.0","","","{""Q0"":""Blackburnian Warbler""}","Blackburnian Warbler"
"","10374","image-multi-choice","227","2489280","0.0-8.0-10.0","","","{""Q0"":""Lincoln's Sparrow""}","Vesper Sparrow"
"","3162","image-multi-choice","228","2493464","0.0-8.0-11.0","","","{""Q0"":""White-crowned Sparrow""}","White-crowned Sparrow"
"","31107","image-multi-choice","229","2525594","0.0-8.0-12.0","","","{""Q0"":""Chipping Sparrow""}","American Tree Sparrow"
"","33847","image-multi-choice","230","2560465","0.0-8.0-13.0","","","{""Q0"":""Orange-crowned Warbler""}","Tennessee Warbler"
"","4930","image-multi-choice","231","2566418","0.0-8.0-14.0","","","{""Q0"":""Magnolia Warbler""}","Magnolia Warbler"
"","9941","image-multi-choice","232","2577382","0.0-8.0-15.0","","","{""Q0"":""Northern Waterthrush""}","Northern Waterthrush"
"","8594","image-multi-choice","233","2586998","0.0-8.0-16.0","","","{""Q0"":""Chipping Sparrow""}","Chipping Sparrow"
"","10108","image-multi-choice","234","2598131","0.0-8.0-17.0","","","{""Q0"":""Swamp Sparrow""}","Swamp Sparrow"
"","10952","image-multi-choice","235","2610106","0.0-8.0-18.0","","","{""Q0"":""Lincoln's Sparrow""}","Lincoln's Sparrow"
"","4291","image-multi-choice","236","2615419","0.0-8.0-19.0","","","{""Q0"":""Ovenbird""}","Ovenbird"
