"view_history","rt","trial_type","trial_index","time_elapsed","internal_node_id","sim_score","stimulus","responses","answer"
"[{""page_index"":0,""viewing_time"":19537}]","19538","instructions","0","19539","0.0-0.0","","","",""
"","5006","similarity_demo","1","25556","0.0-1.0","5","[""img/866.jpg"",""img/868.jpg""]","",""
"[{""page_index"":0,""viewing_time"":11236}]","11237","instructions","2","37795","0.0-2.0","","","",""
"","4018","similarity_demo","3","42818","0.0-3.0","1","[""img/766.jpg"",""img/867.jpg""]","",""
"[{""page_index"":0,""viewing_time"":5190}]","5190","instructions","4","49009","0.0-4.0","","","",""
"[{""page_index"":0,""viewing_time"":12014}]","12015","instructions","5","62026","0.0-5.0","","","",""
"","3988","similarity","6","67020","0.0-6.0-0.0","1","[""img/0868/1a62b2b2-18f5-466e-b564-5176a57c565e.jpg"",""img/0901/a0d65c84-3f20-476a-92d1-0c01e8019cf4.jpg""]","",""
"","3860","similarity","7","71883","0.0-6.0-1.0","3","[""img/0769/14d393ce-e5be-4ca1-86ce-cc27d4b6074c.jpg"",""img/0867/bf560d4f-dee3-4f11-a385-705cc1aa5f3c.jpg""]","",""
"","3905","similarity","8","76795","0.0-6.0-2.0","5","[""img/0766/d512b99c-a2dc-40d7-8e86-827323a0cbcf.jpg"",""img/0898/ec565187-2e31-4fdd-9a5c-153d0c789ae0.jpg""]","",""
"","5277","similarity","9","83077","0.0-6.0-3.0","2","[""img/0902/b56db912-c3c0-4fc2-b325-d640acd7cb58.jpg"",""img/0881/e6746727-7f89-47ec-b939-d98abe78372d.jpg""]","",""
"","4239","similarity","10","88320","0.0-6.0-4.0","7","[""img/0894/e2446cf5-cd48-486a-badc-76498e087fbe.jpg"",""img/0894/43216a7f-27bc-4b5a-8841-d122a30da9d9.jpg""]","",""
"","4397","similarity","11","93721","0.0-6.0-5.0","3","[""img/0874/8cdb1c07-1c32-46d2-981c-3636560fa6e5.jpg"",""img/0899/7f9d45d0-b2c6-40d3-aa41-c207db2c411b.jpg""]","",""
"","4003","similarity","12","98729","0.0-6.0-6.0","7","[""img/0904/e9423a8c-f946-43ad-ab7b-931acef870e2.jpg"",""img/0764/a3226bc4-dcc3-4608-bde8-1414d685ce5c.jpg""]","",""
"","4895","similarity","13","104627","0.0-6.0-7.0","2","[""img/0899/a05bea16-2bb4-4cb9-b8fb-4ff975db6971.jpg"",""img/0898/04e39a7a-fcf6-4156-ab0e-f5871f335e1c.jpg""]","",""
"","4772","similarity","14","110403","0.0-6.0-8.0","3","[""img/0874/ca76a855-4e77-4f2f-872a-0a718153e7ed.jpg"",""img/0903/5248eedd-7e6a-4d39-91b0-06ec227f3ed0.jpg""]","",""
"","3872","similarity","15","115279","0.0-6.0-9.0","7","[""img/0881/4da99fdd-1f40-4bbb-8e21-8833eef313f5.jpg"",""img/0758/7ffbc76b-1fc1-432c-8f7e-9ec8d1b3f643.jpg""]","",""
"","4677","similarity","16","120960","0.0-6.0-10.0","3","[""img/0898/79233891-305a-4a6a-8ddf-5c8604858203.jpg"",""img/0901/deff6cfb-0072-4490-bc3e-206bbcd3e8bf.jpg""]","",""
"","3872","similarity","17","125837","0.0-6.0-11.0","5","[""img/0903/8931c67c-a43d-47d3-a4c9-42aa2f81d344.jpg"",""img/0769/4680bcc3-8fbc-4643-8f9a-12aa0e780b64.jpg""]","",""
"","5062","similarity","18","131903","0.0-6.0-12.0","1","[""img/0764/0e7ed062-f798-4366-8a24-6f430926f919.jpg"",""img/0868/15dd6fd7-791e-4b53-b203-195d617521a4.jpg""]","",""
"","5593","similarity","19","138499","0.0-6.0-13.0","2","[""img/0867/a498eef3-9fa4-4ab2-9778-4ae82ac40dc5.jpg"",""img/0903/8635cf25-2648-4fe9-8c42-79d2598e999c.jpg""]","",""
"","4794","similarity","20","144298","0.0-6.0-14.0","6","[""img/0766/535849cc-ff5d-4df9-8f31-0ce94a97d571.jpg"",""img/0758/f61ecdf8-a7d4-4db0-b84d-be46f7cfaffc.jpg""]","",""
"","4684","similarity","21","149986","0.0-6.0-15.0","5","[""img/0902/94ee9c53-a9a2-4f95-b9b7-794a5fc62bb6.jpg"",""img/0860/524b2e98-5767-4d53-942c-ebae6925659b.jpg""]","",""
"","3561","similarity","22","154550","0.0-6.0-16.0","3","[""img/0769/91acb237-65a3-4d0b-9748-af5c7b83d3c7.jpg"",""img/0875/2e13d160-eea1-416b-aff1-d37ab99ecc1d.jpg""]","",""
"","5230","similarity","23","160784","0.0-6.0-17.0","6","[""img/0904/65e2b70a-b184-4da3-b5c0-5038bdf9469a.jpg"",""img/0866/07c9c966-3c8d-40e7-8128-92b2acbaed5d.jpg""]","",""
"","3643","similarity","24","165430","0.0-6.0-18.0","7","[""img/0875/34132396-d896-4c2d-8087-646dd867e769.jpg"",""img/0875/e7e66b13-b573-431e-b85e-288ce04a35a3.jpg""]","",""
"","3327","similarity","25","169761","0.0-6.0-19.0","7","[""img/0758/e1ba5e53-addc-436a-b428-d34fc1b130dc.jpg"",""img/0758/65d426d6-3ff6-415d-8654-a43b83ecc4fe.jpg""]","",""
"","4330","similarity","26","175095","0.0-6.0-20.0","5","[""img/0902/d3e55000-c839-4bf9-9b9b-4af0a9925af1.jpg"",""img/0874/29830da7-be5f-44e5-b141-652a0ccf7269.jpg""]","",""
"","6572","similarity","27","182672","0.0-6.0-21.0","5","[""img/0764/d7f3ac54-318a-4dac-a06b-62bed34d01a4.jpg"",""img/0769/3adfa417-3b90-4aab-b437-5eaa474189cb.jpg""]","",""
"","5358","similarity","28","189034","0.0-6.0-22.0","3","[""img/0901/8bb79e82-9c43-4b6f-a655-40655519598b.jpg"",""img/0874/995f0332-0439-4eb4-add3-957335dbf6d9.jpg""]","",""
"","2968","similarity","29","193006","0.0-6.0-23.0","1","[""img/0875/5a7c4e35-6514-4e12-8879-d16071da4cd6.jpg"",""img/0903/2c7b4aed-6038-4aac-958a-e3e58341c313.jpg""]","",""
"","3164","similarity","30","197174","0.0-6.0-24.0","3","[""img/0769/50985283-d353-4abc-9abe-14a91d56ebe6.jpg"",""img/0881/dea58fad-b4f1-41d9-bd3f-916eff19a3fd.jpg""]","",""
"","2756","similarity","31","200935","0.0-6.0-25.0","1","[""img/0867/c71dc569-f49c-4397-8381-68b8d726736d.jpg"",""img/0904/696ebb60-8891-417a-91fd-c53218907a95.jpg""]","",""
"","5452","similarity","32","207391","0.0-6.0-26.0","3","[""img/0860/61fb959d-d4d9-4de4-9e4e-4fa62b4cfcd5.jpg"",""img/0881/62a64f90-7a72-4aee-a1a1-0c548ac9bdda.jpg""]","",""
"","3509","similarity","33","211903","0.0-6.0-27.0","7","[""img/0866/a04d37f0-99dd-478a-b6c6-58b215138f84.jpg"",""img/0866/bf14b5bd-fb55-47db-86b9-4f8aeb9a6dad.jpg""]","",""
"","4533","similarity","34","217439","0.0-6.0-28.0","2","[""img/0764/f9f890e6-3c2f-40cd-84e9-85e0b54cb28e.jpg"",""img/0862/5d887e9f-89e2-4ebc-80a0-6d46fe6480db.jpg""]","",""
"","5012","similarity","35","223455","0.0-6.0-29.0","3","[""img/0904/4d7d70a3-9477-4921-bda0-f9531d0a5c5b.jpg"",""img/0758/a085b443-b5d7-4cb2-9ad4-b9dab0fc23f1.jpg""]","",""
"","4251","similarity","36","228710","0.0-6.0-30.0","2","[""img/0894/e6385e52-6c35-43bd-b0af-bc803d107b11.jpg"",""img/0899/ddf96ade-692e-4602-bd22-dedbb46401bc.jpg""]","",""
"","4968","similarity","37","234681","0.0-6.0-31.0","5","[""img/0860/5bff793e-cbd5-4d7e-b628-0ac2b0e30b64.jpg"",""img/0904/da170c1b-9651-4f08-b231-2bdd1d9a046f.jpg""]","",""
"","4028","similarity","38","239712","0.0-6.0-32.0","5","[""img/0874/7e4f2150-3b59-4a36-b5da-a4e0ba410531.jpg"",""img/0881/e046471a-35b4-4159-bbf7-3cfd201bef66.jpg""]","",""
"","4899","similarity","39","245616","0.0-6.0-33.0","2","[""img/0881/609a5e93-38b5-4940-8627-2bf8fad7f802.jpg"",""img/0899/d60714ae-98d7-4564-8c98-94dba1351135.jpg""]","",""
"","5337","similarity","40","251959","0.0-6.0-34.0","2","[""img/0866/a15b02be-11bb-43e3-b0e0-ecc3bd7dfc49.jpg"",""img/0862/f188d4f0-76a4-4102-818c-a209969d73a5.jpg""]","",""
"","4357","similarity","41","257319","0.0-6.0-35.0","3","[""img/0868/0d3abd3a-b6c3-4584-a9f7-e2da63748b3d.jpg"",""img/0894/3adef67d-7676-4995-80b2-bb31b8aca3ef.jpg""]","",""
"","2651","similarity","42","260974","0.0-6.0-36.0","7","[""img/0860/29a21a9f-54bb-4093-ad3f-04823ceaa89f.jpg"",""img/0860/c3379ff7-0763-48fe-a1ec-7ea3d611bc7a.jpg""]","",""
"","6171","similarity","43","268150","0.0-6.0-37.0","2","[""img/0862/53a9cf7c-93c4-41b9-952f-07d17f7a17b2.jpg"",""img/0864/5f33e097-23e3-4002-882d-76e8cb15f451.jpg""]","",""
"","3897","similarity","44","273050","0.0-6.0-38.0","1","[""img/0766/dd3e18d0-0c98-4d05-b850-69976ee8cd75.jpg"",""img/0866/d266fece-59b3-46fa-b69f-96f6efb81b59.jpg""]","",""
"","3340","similarity","45","277394","0.0-6.0-39.0","1","[""img/0875/a4935837-7d3c-4df6-88c1-36a94d4991ca.jpg"",""img/0898/82231d4c-218b-4d0a-b50d-35a49b524e97.jpg""]","",""
"","5058","similarity","46","283457","0.0-6.0-40.0","2","[""img/0766/d14acac4-7db1-4b07-8f8f-302437326fc0.jpg"",""img/0769/662ab839-88d1-4ebf-af05-9b2980cad943.jpg""]","",""
"","5514","similarity","47","297977","0.0-6.0-41.0","6","[""img/0874/c0378dac-9370-439a-8b79-db27c96fb390.jpg"",""img/0764/f990b2e8-ecee-481e-be7c-0239fce350e2.jpg""]","",""
"","4700","similarity","48","303683","0.0-6.0-42.0","2","[""img/0868/293079b8-7e0c-4afd-a390-1e5d35fe3ded.jpg"",""img/0902/b76efc44-a50f-4dac-b997-ff0222376067.jpg""]","",""
"","3337","similarity","49","308025","0.0-6.0-43.0","1","[""img/0875/3ecb367d-e9eb-4826-8aaa-7aa72fb98019.jpg"",""img/0899/565ccdd9-0933-4536-a625-3c0e25a713dd.jpg""]","",""
"","3636","similarity","50","312664","0.0-6.0-44.0","1","[""img/0866/9b38d691-1802-4959-ab3f-fc902f0e4ea6.jpg"",""img/0860/e14d67c1-6d92-4f1e-9257-c8607159c19c.jpg""]","",""
"","3299","similarity","51","316966","0.0-6.0-45.0","2","[""img/0766/b84598d0-5b41-4841-88b0-b441b48289f5.jpg"",""img/0903/c3cb4a01-2797-43ca-b216-88c67b323fbb.jpg""]","",""
"","4179","similarity","52","322151","0.0-6.0-46.0","6","[""img/0901/2a953e50-d237-405c-a38d-5ed21494c968.jpg"",""img/0904/b5855d6a-7ef9-46ca-9215-6e9fa046e543.jpg""]","",""
"","4489","similarity","53","327643","0.0-6.0-47.0","1","[""img/0758/2fa3e613-e676-4e6e-bd12-705327eeb3e1.jpg"",""img/0902/0db94c50-f1fb-4091-953c-29ca0466bee2.jpg""]","",""
"","3403","similarity","54","332050","0.0-6.0-48.0","7","[""img/0764/ba0c0955-acbb-457d-b1c2-f006b88121d5.jpg"",""img/0764/958b8576-3a3b-4acc-96dc-06b74de69f37.jpg""]","",""
"","4717","similarity","55","337769","0.0-6.0-49.0","1","[""img/0866/0207e9a2-7dbb-40b5-9459-b472aaeceb2a.jpg"",""img/0902/aa6fca32-82b0-4414-b20a-8f6f8aa5a2d2.jpg""]","",""
"","3348","similarity","56","342122","0.0-6.0-50.0","2","[""img/0764/c643e165-df19-459f-8c2b-8357bf432a17.jpg"",""img/0758/d41c06bf-ebaf-454b-91c6-1a17f917b659.jpg""]","",""
"","3793","similarity","57","346918","0.0-6.0-51.0","2","[""img/0898/40f99fb2-64d2-4e72-8a7f-a1cf60741e69.jpg"",""img/0894/7f2f31fd-6618-41c6-b65a-0fd8b2851bc9.jpg""]","",""
"","4824","similarity","58","352746","0.0-6.0-52.0","5","[""img/0875/f87b67d7-c33e-40d1-b281-248c4be1cb6e.jpg"",""img/0866/386235d2-6857-41e7-88a8-25cfc3430025.jpg""]","",""
"","4413","similarity","59","358162","0.0-6.0-53.0","6","[""img/0904/a8c3c7d2-9bcf-4347-9e03-8203adfc1fc5.jpg"",""img/0904/5cceabc9-de1d-4c67-989b-c28a4ef77e79.jpg""]","",""
"","7360","similarity","60","366525","0.0-6.0-54.0","5","[""img/0769/f2740c58-7c02-433f-920b-746b0b75435b.jpg"",""img/0769/04347740-f8f6-48bb-887a-f68babd0a0d4.jpg""]","",""
"","3410","similarity","61","370940","0.0-6.0-55.0","5","[""img/0898/0af304a2-6a7a-4082-ab7c-4450cd08cc58.jpg"",""img/0758/6cd8c362-ae2a-41eb-80a3-3a4f7ace1530.jpg""]","",""
"","4082","similarity","62","376025","0.0-6.0-56.0","6","[""img/0769/965c3c44-d9e5-47c5-b61a-2bbdf4215d9a.jpg"",""img/0902/3b243e54-0803-4c29-af42-4037c2118495.jpg""]","",""
"","3560","similarity","63","380589","0.0-6.0-57.0","7","[""img/0864/9b2490c5-a282-400a-9736-e1a0ecbf1cb7.jpg"",""img/0881/ed4c971f-0873-4fc8-b6d6-e8bbd82f0bcc.jpg""]","",""
"","2564","similarity","64","384157","0.0-6.0-58.0","1","[""img/0758/d540bee6-b460-4c32-ac57-bc282742d7d4.jpg"",""img/0868/83b4350a-3b70-4cea-b7f5-b5b56f3050a8.jpg""]","",""
"","13314","similarity","65","398474","0.0-6.0-59.0","2","[""img/0862/47ed5efd-4ec9-4b74-bb4e-a5f5cf0c3e7d.jpg"",""img/0769/da36e3f7-2337-434f-ab57-11822dd7eed7.jpg""]","",""
"","2330","similarity","66","401806","0.0-6.0-60.0","7","[""img/0764/e0788029-9d7f-414c-b747-46d2a99f7c86.jpg"",""img/0903/2a9c8033-3e70-47fa-816d-97ee1813a3a3.jpg""]","",""
"","4380","similarity","67","407189","0.0-6.0-61.0","6","[""img/0899/93494f3b-d539-4075-b027-d82e344563da.jpg"",""img/0899/7b7380d5-d2be-44e5-a09a-c1756f87ef71.jpg""]","",""
"","4197","similarity","68","412391","0.0-6.0-62.0","3","[""img/0860/17b44a7d-c5ca-479f-9e87-f65a64f5c80e.jpg"",""img/0875/dbdd643e-6d0e-4a5c-ab57-b9c29b9c981a.jpg""]","",""
"","3779","similarity","69","417174","0.0-6.0-63.0","1","[""img/0868/7b212364-ff5f-4e28-9241-7eb6ea00161b.jpg"",""img/0874/31e22c7c-99aa-40b1-bf03-dd73fa2df4d6.jpg""]","",""
"","3803","similarity","70","421982","0.0-6.0-64.0","6","[""img/0758/e38fd80d-18d0-42f3-b848-f930788e8bd7.jpg"",""img/0862/7918ca67-5bd3-4606-a5ea-c39fb11a9297.jpg""]","",""
"","2394","similarity","71","425380","0.0-6.0-65.0","7","[""img/0904/2c98dc56-88d1-4fb5-a999-b6a7861f65f0.jpg"",""img/0898/e167334e-cc1d-4986-b3b1-c7bc7da64baa.jpg""]","",""
"","3074","similarity","72","429458","0.0-6.0-66.0","1","[""img/0881/405484ae-0d00-4b05-bc57-6420a36adfac.jpg"",""img/0866/945c6710-d15b-4a5b-a8f6-69af0850357f.jpg""]","",""
"","3585","similarity","73","434047","0.0-6.0-67.0","2","[""img/0867/8ba0c5a7-c7e4-42cf-a80a-543763b90779.jpg"",""img/0898/cd3aaa3f-efa9-4ab3-8d6f-a6a9273ddf42.jpg""]","",""
"","4940","similarity","74","439992","0.0-6.0-68.0","3","[""img/0902/7499db23-3a41-41ea-ab5b-6ab4d4c3ed35.jpg"",""img/0764/fb92924f-5cfe-4b89-b130-0cce8cc5636b.jpg""]","",""
"","3406","similarity","75","444401","0.0-6.0-69.0","3","[""img/0875/d59ff733-eaff-4ee2-9443-06954dd0bcb6.jpg"",""img/0867/2e1a0b58-cdb1-4107-a14e-452530d7b9b0.jpg""]","",""
"","4739","similarity","76","450144","0.0-6.0-70.0","7","[""img/0766/a754e4b6-5019-4cf4-8f58-34c20547a1f5.jpg"",""img/0764/438c0217-036f-43c9-9b87-f43144e46011.jpg""]","",""
"","3915","similarity","77","455064","0.0-6.0-71.0","3","[""img/0894/38cf335f-f76f-4349-8d65-e20cd6859565.jpg"",""img/0867/a749dddb-69f0-44a6-acdc-2bf295cf6dcc.jpg""]","",""
"","4632","similarity","78","460701","0.0-6.0-72.0","2","[""img/0875/2c361b79-c3d1-4eda-812e-bf03192407bf.jpg"",""img/0764/a86eed5b-d0af-4c3f-8c7a-26e98e98cf1a.jpg""]","",""
"","3748","similarity","79","465451","0.0-6.0-73.0","7","[""img/0867/f8159067-056c-41f1-a136-c529fe5e970a.jpg"",""img/0866/f756f7d1-9ad8-4a34-9ef6-7a443d705bfe.jpg""]","",""
"","3440","similarity","80","469895","0.0-6.0-74.0","5","[""img/0903/f1fa0f8d-e62b-4b4a-a174-31a0fabfe61b.jpg"",""img/0758/6e95579b-5166-487c-b8cb-e417c6a218e3.jpg""]","",""
"","3895","similarity","81","474793","0.0-6.0-75.0","2","[""img/0766/33aa9ebb-c9f5-418f-8c8b-c77861889568.jpg"",""img/0868/8b0b8473-e2c0-4331-aa56-c3a5c29369da.jpg""]","",""
"","4111","similarity","82","479908","0.0-6.0-76.0","6","[""img/0874/ca23d307-fc00-4d7d-9106-584c6eb21b4d.jpg"",""img/0766/5d6e0d1d-4369-41f0-a64c-91f3503055c7.jpg""]","",""
"","2276","similarity","83","483188","0.0-6.0-77.0","1","[""img/0881/14236cf2-6b95-48b8-9368-78af09d2d27f.jpg"",""img/0868/4bd5105a-d2c3-4f82-8c80-57196106ba53.jpg""]","",""
"","4280","similarity","84","488473","0.0-6.0-78.0","5","[""img/0758/7fba58df-2a7a-4b76-8a8f-62739f97f271.jpg"",""img/0901/443f2e59-199b-4f7b-9de9-c44ad97326a5.jpg""]","",""
"","2634","similarity","85","492112","0.0-6.0-79.0","6","[""img/0881/5fe04dd0-5c74-47b7-99c8-b068db9ca26a.jpg"",""img/0898/b2732712-71c2-45d8-834f-2b2ed5504910.jpg""]","",""
"","2996","similarity","86","496113","0.0-6.0-80.0","1","[""img/0867/de92135f-5b65-4ed9-b245-188292c7c2f8.jpg"",""img/0758/821c68d3-5cb0-4eae-8659-30e6263fca39.jpg""]","",""
"","2694","similarity","87","499810","0.0-6.0-81.0","7","[""img/0769/0fe124d3-bcad-45f6-b64d-8f6eb8ee5251.jpg"",""img/0899/4f7bc593-8ddd-4da3-a0b9-84da730d3370.jpg""]","",""
"","3947","similarity","88","504760","0.0-6.0-82.0","7","[""img/0903/b4a0f61e-a964-4b79-a9a7-f767a8f92f34.jpg"",""img/0903/07b445ee-0cdb-4d2c-a23b-d727613f4059.jpg""]","",""
"","3745","similarity","89","512725","0.0-6.0-83.0","1","[""img/0867/f8488a47-94ee-4166-952c-44e16cf172f6.jpg"",""img/0766/f3276cc4-65de-4c2d-88d5-6cfebce14b8f.jpg""]","",""
"","4885","similarity","90","518614","0.0-6.0-84.0","2","[""img/0902/3f0eeac5-c996-4026-a376-563ce8f28521.jpg"",""img/0867/26611f4e-d694-4460-b7e2-43c62753ddc3.jpg""]","",""
"","3641","similarity","91","523260","0.0-6.0-85.0","5","[""img/0901/31c032fd-3c3d-4882-a226-da9a80198937.jpg"",""img/0875/fb732ab5-013a-4366-9f65-27811ed157e9.jpg""]","",""
"","3167","similarity","92","527431","0.0-6.0-86.0","2","[""img/0764/b887d7c6-aa81-4637-af8e-05135757ac59.jpg"",""img/0866/6f2a90d7-14f1-4f1b-bd64-fc0af6b9fe44.jpg""]","",""
"","3921","similarity","93","532356","0.0-6.0-87.0","1","[""img/0901/4ca4f962-40c0-4c59-b14a-3cd7b8c9029b.jpg"",""img/0894/86201968-6e78-4d68-9b3a-d1692e066210.jpg""]","",""
"","3694","similarity","94","537055","0.0-6.0-88.0","5","[""img/0898/993d8f2d-bef7-4251-a193-0f93a32b7763.jpg"",""img/0769/022c7e3b-c3f2-4119-b4bc-f22fa7cae18c.jpg""]","",""
"","2496","similarity","95","540555","0.0-6.0-89.0","7","[""img/0769/bb8c4e53-6f32-4814-97ee-392d4decfb2e.jpg"",""img/0894/7fb082e0-ce79-485c-9109-04367fb32275.jpg""]","",""
"","2510","similarity","96","544069","0.0-6.0-90.0","6","[""img/0862/f23038d4-c366-4f70-979f-66b62362efa4.jpg"",""img/0874/99f6563c-8a8d-4c1c-a41d-667b618c3fd5.jpg""]","",""
"","4587","similarity","97","549660","0.0-6.0-91.0","7","[""img/0894/38f5931f-926d-414e-b498-66b188978b7a.jpg"",""img/0766/ef3b15ce-abb7-4292-ad93-aec8e8b50520.jpg""]","",""
"","3052","similarity","98","553715","0.0-6.0-92.0","1","[""img/0874/2c9464dd-8a23-4baa-ac94-1ba3af5c15cc.jpg"",""img/0867/7d1c497b-c1b3-4ed8-abb5-d7f73306015f.jpg""]","",""
"","2576","similarity","99","557296","0.0-6.0-93.0","1","[""img/0899/f95cbdb4-f804-4f5d-ad76-373ad343e658.jpg"",""img/0868/5fa7f9d0-f0e5-454c-8224-74d964818f56.jpg""]","",""
"","25799","similarity","100","584099","0.0-6.0-94.0","2","[""img/0903/5ea5bbe0-f238-4724-abe7-9ed8dee8c0ba.jpg"",""img/0862/92f0146c-20c4-482e-aef5-adb693790338.jpg""]","",""
"","3539","similarity","101","588643","0.0-6.0-95.0","7","[""img/0899/a048912c-b12c-40e3-90af-46b69b0cc4fe.jpg"",""img/0766/e8052e17-9dae-4139-802b-6e590cb2d526.jpg""]","",""
"","2274","similarity","102","591919","0.0-6.0-96.0","7","[""img/0867/50a1b60e-3a29-44bf-b606-d4bd3746fea9.jpg"",""img/0868/c8ac40c7-6904-4e13-8d61-c75d3052dc4e.jpg""]","",""
"","2970","similarity","103","595893","0.0-6.0-97.0","6","[""img/0862/ee3b7bff-4a70-4e84-9bea-4a565e456acb.jpg"",""img/0901/ae1e6ce4-2e10-4ca9-b1e7-21628637ab74.jpg""]","",""
"","5941","similarity","104","602837","0.0-6.0-98.0","2","[""img/0875/8521fd58-3b1e-4dc5-97ae-804edfa6734a.jpg"",""img/0766/d919cedb-f9b7-4f30-83bb-3e9c65001ceb.jpg""]","",""
"","3742","similarity","105","607583","0.0-6.0-99.0","6","[""img/0758/61d64021-9214-4951-bdf8-f871f9827cf9.jpg"",""img/0874/bf14b896-e930-4fd9-9c05-2e83317a2773.jpg""]","",""
"","4118","similarity","106","612706","0.0-6.0-100.0","2","[""img/0904/fe746a3f-8458-48d0-8a13-8cba2a9df9f8.jpg"",""img/0868/4a8a45ed-2c4f-421b-9564-409a33ecd26c.jpg""]","",""
"","4047","similarity","107","617756","0.0-6.0-101.0","2","[""img/0903/b0df4094-a3be-4b5b-81bd-8d260f13f61b.jpg"",""img/0866/d493a2c8-66eb-44b4-be02-2f327b700b7c.jpg""]","",""
"","2228","similarity","108","620987","0.0-6.0-102.0","1","[""img/0868/179a5502-ab5c-478e-8263-5a1fbcc101d2.jpg"",""img/0769/35f2dd39-40aa-498e-b401-9f1ef2622d00.jpg""]","",""
"","5206","similarity","109","627196","0.0-6.0-103.0","3","[""img/0902/b03fee99-d5ca-4bf8-871c-a4a743a39842.jpg"",""img/0899/00715b3f-851b-420b-a26b-d7f79f7759a9.jpg""]","",""
"","3626","similarity","110","631825","0.0-6.0-104.0","3","[""img/0868/4e626425-63c8-484a-8a1d-e66ee4e0bef8.jpg"",""img/0862/57b6f83f-c763-4858-830d-102f97bfefbf.jpg""]","",""
"","3507","similarity","111","636335","0.0-6.0-105.0","3","[""img/0903/776b74ee-a8ab-4ab8-a78d-097c0747538d.jpg"",""img/0894/5f15154e-e72e-4ce5-aafb-bce6f0564006.jpg""]","",""
"","2512","similarity","112","639851","0.0-6.0-106.0","7","[""img/0864/4bd81bc6-c13d-46df-95a9-485886dc7c1b.jpg"",""img/0874/93d1f8dc-acf2-4f03-bd8d-8ec35df276ed.jpg""]","",""
"","5478","similarity","113","646332","0.0-6.0-107.0","5","[""img/0862/f43ceabf-acc1-4107-b857-5d1849808f93.jpg"",""img/0902/af45fe42-178c-4c1a-99ef-256e87e3b092.jpg""]","",""
"","4596","similarity","114","651931","0.0-6.0-108.0","7","[""img/0904/0d17b811-063e-416e-a23c-3b3cfa4fcce5.jpg"",""img/0903/8f7f9939-b8e6-433f-93dd-b362496c80a7.jpg""]","",""
"","4127","similarity","115","657061","0.0-6.0-109.0","6","[""img/0764/ca957454-126a-4bd3-b29c-7174a24c25dc.jpg"",""img/0864/1ebbc554-99fa-49f9-8799-317375a79820.jpg""]","",""
"","4693","similarity","116","662758","0.0-6.0-110.0","2","[""img/0866/93a27239-8317-4e08-98ca-d8b1ff298e07.jpg"",""img/0894/767a0eec-1064-46b1-b1aa-dfa02b0cd74e.jpg""]","",""
"","2823","similarity","117","666584","0.0-6.0-111.0","3","[""img/0899/0433d056-aa30-4f8a-9aa1-abbb951e4edd.jpg"",""img/0903/ea75f240-fb62-4edb-a709-83e858b202c0.jpg""]","",""
"","3852","similarity","118","671439","0.0-6.0-112.0","6","[""img/0902/cdec1bc6-7f90-4f72-9e01-f5a4111bac1d.jpg"",""img/0904/60d1a521-edf7-4696-9263-f21ac0e62a01.jpg""]","",""
"","3750","similarity","119","676194","0.0-6.0-113.0","5","[""img/0864/5f74a653-3bdc-4308-8cca-ac667dc22e1f.jpg"",""img/0860/5383b320-1518-4095-a58e-5cc1ae30b64c.jpg""]","",""
"","4622","similarity","120","681819","0.0-6.0-114.0","5","[""img/0860/18dfed73-e36b-4487-a8bd-0b8cff8e3668.jpg"",""img/0899/4408c14d-c168-4a7d-96f6-bc87bfb58f83.jpg""]","",""
"","4036","similarity","121","686859","0.0-6.0-115.0","5","[""img/0881/f4e3e181-b3c9-4af2-a5a4-fc135ab70d2e.jpg"",""img/0903/36e4ab1f-caa9-40b3-8616-faada076df94.jpg""]","",""
"","3658","similarity","122","691521","0.0-6.0-116.0","3","[""img/0894/8cadb87a-7001-4e47-99fb-1867bebf1668.jpg"",""img/0874/3ce41e7c-40c8-4d58-a546-171114521796.jpg""]","",""
"","4497","similarity","123","697022","0.0-6.0-117.0","3","[""img/0881/54ea8e77-c7e5-4197-b7fa-00b7020849a7.jpg"",""img/0862/eefa5588-9efd-4591-aa5f-a2e17c7d7bcc.jpg""]","",""
"","3571","similarity","124","701596","0.0-6.0-118.0","3","[""img/0868/6a28c3b0-3d76-498a-9fb7-ddafc665eca8.jpg"",""img/0875/42910c99-5463-450a-a0f8-d4d060a11455.jpg""]","",""
"","5694","similarity","125","708292","0.0-6.0-119.0","5","[""img/0860/8a92e21b-6a32-4e4a-a445-2d5a487ed0a4.jpg"",""img/0758/ddc336e9-a8b6-4bb9-937a-c7e25e0e9250.jpg""]","",""
"","4012","similarity","126","713308","0.0-6.0-120.0","1","[""img/0864/f92649a2-0590-4d31-9a7a-1bfb81666a2d.jpg"",""img/0875/5a716432-c6ca-4b1c-955a-2b8ac25198ee.jpg""]","",""
"","3282","similarity","127","717594","0.0-6.0-121.0","2","[""img/0898/6cd3830b-d44e-4915-be2b-88d31424b91c.jpg"",""img/0866/620cd1aa-0800-4414-8f6e-90342e7a99ad.jpg""]","",""
"","2636","similarity","128","721233","0.0-6.0-122.0","1","[""img/0874/a82926a3-0b43-4add-803c-d5f9ea7798ee.jpg"",""img/0904/09dac84f-3d1c-4445-a68e-d0389fdbf1e9.jpg""]","",""
"","3662","similarity","129","725899","0.0-6.0-123.0","2","[""img/0904/06dacdc5-2206-4fb8-92b7-88042d22833c.jpg"",""img/0864/e02eddb5-f468-499c-91bf-f7be3ffe979b.jpg""]","",""
"","5776","similarity","130","732680","0.0-6.0-124.0","2","[""img/0894/2d2db7b3-e8a3-499b-b63a-14f51bf73882.jpg"",""img/0902/12452bb1-b8c0-4e4d-ad4d-47e279e5933c.jpg""]","",""
"","2652","similarity","131","738813","0.0-6.0-125.0","1","[""img/0868/e0aff734-077f-40dd-9781-74821abd3621.jpg"",""img/0864/1d15626a-2f7c-410f-819c-0fa2c967e95e.jpg""]","",""
"","3069","similarity","132","742888","0.0-6.0-126.0","1","[""img/0899/b45c550b-96c3-4255-ad59-48a2b4db1c1e.jpg"",""img/0866/4a87911a-d5be-4d4e-ab8e-3d1f581bf507.jpg""]","",""
"","4076","similarity","133","747966","0.0-6.0-127.0","5","[""img/0875/03c3c331-738b-4446-af92-3d7386b08c2e.jpg"",""img/0904/56e73f28-7e64-489b-a161-e6b1a063878d.jpg""]","",""
"","2614","similarity","134","751584","0.0-6.0-128.0","1","[""img/0867/85a96c62-548f-4994-9553-819e03c3135a.jpg"",""img/0899/66bf4113-ee12-426c-84d2-ea410b6c803e.jpg""]","",""
"","3977","similarity","135","756565","0.0-6.0-129.0","2","[""img/0901/d4d09bf5-093e-4050-838e-7c738be8e63c.jpg"",""img/0867/179ab87a-8eac-4c52-a41f-2e48e3120f09.jpg""]","",""
"","4027","similarity","136","761595","0.0-6.0-130.0","2","[""img/0864/ef9cbca0-4be8-435d-ad49-977259e80409.jpg"",""img/0769/8598a429-c671-4d2f-842c-32f681f5e412.jpg""]","",""
"","4557","similarity","137","767158","0.0-6.0-131.0","2","[""img/0903/bf0a7d60-eca5-44b0-bafd-baf21db9904b.jpg"",""img/0868/d98ca254-b195-477f-b57e-5760a2717db8.jpg""]","",""
"","2395","similarity","138","770558","0.0-6.0-132.0","1","[""img/0864/3d4de670-b290-4285-9c3d-12a0e3af44e9.jpg"",""img/0867/1719a35d-f085-48c0-9099-16c94fe418b4.jpg""]","",""
"","2304","similarity","139","773865","0.0-6.0-133.0","7","[""img/0901/77087ed2-6e12-4329-b2a5-605bca6d972d.jpg"",""img/0860/15b24a61-25be-4356-9eac-5ce95d0cb4a4.jpg""]","",""
"","3760","similarity","140","778629","0.0-6.0-134.0","7","[""img/0881/c24f3051-eefa-42de-aba6-fccb56d93c70.jpg"",""img/0766/60033a74-9919-47e5-913c-71d0d483e7e5.jpg""]","",""
"","3146","similarity","141","782779","0.0-6.0-135.0","6","[""img/0903/14f179a2-8786-48a2-8377-88d1d404341b.jpg"",""img/0864/e8bd659f-aa43-4748-877e-3118e8b4e189.jpg""]","",""
"","3897","similarity","142","787680","0.0-6.0-136.0","1","[""img/0758/d57c2592-a317-4f63-91be-91a3a9afd222.jpg"",""img/0894/bd34223a-2f66-4e16-9d18-193a746b69ff.jpg""]","",""
"","4237","similarity","143","792921","0.0-6.0-137.0","5","[""img/0769/ebef2ddc-ba59-4e0e-97f8-927864eb5081.jpg"",""img/0860/e8b8c51e-1834-4875-8b61-6c5bc9b178bd.jpg""]","",""
"","3823","similarity","144","797748","0.0-6.0-138.0","5","[""img/0904/2fd488e9-960f-41f7-8a44-33375f7d5051.jpg"",""img/0766/a1ed3f0f-e338-4a26-8fe4-4370f0c9fa6e.jpg""]","",""
"","4734","similarity","145","803484","0.0-6.0-139.0","3","[""img/0868/09a9ef4d-d000-4cfa-a6aa-ebec7c2edeb4.jpg"",""img/0860/94ef7afc-e0e6-4a15-98c6-0bfac82bc832.jpg""]","",""
"","2406","similarity","146","806893","0.0-6.0-140.0","7","[""img/0758/eabcd7a8-56ad-4fd2-bc24-90f6b7b33265.jpg"",""img/0864/0f537697-a314-47c3-a8cc-8df23b7e536c.jpg""]","",""
"","3930","similarity","147","811827","0.0-6.0-141.0","7","[""img/0867/ac1797e4-8afc-48fe-b252-86d1defb1cca.jpg"",""img/0867/075e0f95-856b-4cbb-acf5-092393aaf04e.jpg""]","",""
"","3054","similarity","148","815885","0.0-6.0-142.0","7","[""img/0898/661621d4-a14e-487c-8c74-354134a29710.jpg"",""img/0898/881e2a85-d5c2-49be-a0c6-8a6ce2c4af08.jpg""]","",""
"","4171","similarity","149","821059","0.0-6.0-143.0","2","[""img/0866/02f5e6b9-52b7-448c-9708-5b460d0c9a23.jpg"",""img/0769/8056889f-2b14-4782-bb25-b4e8896ab65b.jpg""]","",""
"","4906","similarity","150","826969","0.0-6.0-144.0","1","[""img/0860/9593362c-9fe5-4d12-9735-6000a11f6aa5.jpg"",""img/0898/f3a3f225-1248-4ac7-b93b-f0ff28485bf3.jpg""]","",""
"","6121","similarity","151","834094","0.0-6.0-145.0","5","[""img/0766/908bc45b-7c9e-4f95-806e-86b196ebcb2c.jpg"",""img/0864/87c467d3-abca-482f-ad80-3766c21b1bb3.jpg""]","",""
"","5169","similarity","152","840266","0.0-6.0-146.0","2","[""img/0860/b03b963d-949b-4d8d-b19c-4950c89eeca2.jpg"",""img/0903/9b60ef5b-234f-4239-892b-3d4c412accc2.jpg""]","",""
"","4299","similarity","153","845569","0.0-6.0-147.0","1","[""img/0867/aa05d113-fc19-4756-a8eb-7878f580bc92.jpg"",""img/0764/fb7d4a20-a475-465e-a74f-aa39a0d33d16.jpg""]","",""
"","3542","similarity","154","850113","0.0-6.0-148.0","2","[""img/0769/9ea27d61-3d55-418c-8d14-82e90f656f01.jpg"",""img/0904/9d30eff1-46ef-4453-b11e-124ef8145c00.jpg""]","",""
"","4916","similarity","155","856033","0.0-6.0-149.0","3","[""img/0764/6c7fe363-2d37-418f-9e5e-a3273af5d4fb.jpg"",""img/0901/5657dd86-0ff9-4753-ba2b-9dfb223e5c89.jpg""]","",""
"","3792","similarity","156","860827","0.0-6.0-150.0","1","[""img/0904/6291eb43-c10c-4810-a36a-101d09868b04.jpg"",""img/0899/56a605c3-d0a2-4215-89e1-779279d85a7c.jpg""]","",""
"","3174","similarity","157","865004","0.0-6.0-151.0","1","[""img/0862/24cdc752-c2e5-4a17-86a6-6f2045d8553b.jpg"",""img/0867/f26f6b60-f772-4f4c-95a4-addc62cfd692.jpg""]","",""
"","3193","similarity","158","869202","0.0-6.0-152.0","7","[""img/0766/214866ee-423d-4629-9bb9-41572bdc7dac.jpg"",""img/0766/fd74fdbb-ea40-4f3a-a091-38d08dfd636e.jpg""]","",""
"","4902","similarity","159","875106","0.0-6.0-153.0","6","[""img/0862/fb26cb07-d5a9-4653-813c-f41609f26cd5.jpg"",""img/0894/10f22b96-040c-44f4-950b-a4963f3f506c.jpg""]","",""
"","4146","similarity","160","880256","0.0-6.0-154.0","2","[""img/0899/1b3457ea-87d4-4946-a01c-aac1863ed46c.jpg"",""img/0901/7d4a3388-488d-4e9b-9d32-9d0def7aae8d.jpg""]","",""
"","4622","similarity","161","885882","0.0-6.0-155.0","1","[""img/0874/a3bc679d-619f-4db6-bb68-116dcb757d9c.jpg"",""img/0874/3f471690-9788-4d03-90c7-f615aecef149.jpg""]","",""
"","4384","similarity","162","891270","0.0-6.0-156.0","2","[""img/0860/c5ccd1a4-4bb7-48e1-9b25-72cfaf06909b.jpg"",""img/0867/db7e032f-162b-46f5-ae67-2b29679adee4.jpg""]","",""
"","2293","similarity","163","894566","0.0-6.0-157.0","1","[""img/0901/b13fa50f-dbe0-4d0f-8647-6ac0fd8f40bd.jpg"",""img/0881/7e31e5dc-2240-4b1b-b5a0-3acd980099ef.jpg""]","",""
"","4246","similarity","164","899815","0.0-6.0-158.0","5","[""img/0903/45e2d600-57ff-4d69-b22c-0c7896cd38f0.jpg"",""img/0902/794606a0-d8a8-4e58-8bf8-9d114ed5a548.jpg""]","",""
"","4367","similarity","165","905185","0.0-6.0-159.0","2","[""img/0860/d9a0d117-6d1d-41c0-8fec-9aff0fd9e9f2.jpg"",""img/0764/1f95ab5f-fb65-4d70-b5db-d6bd6351a8aa.jpg""]","",""
"","4553","similarity","166","910741","0.0-6.0-160.0","3","[""img/0902/8065aa6b-4aef-4368-afa2-02c6465ca582.jpg"",""img/0875/527ced51-8e53-4aab-ab05-86df219104c0.jpg""]","",""
"","3718","similarity","167","915462","0.0-6.0-161.0","1","[""img/0898/0c7dde4f-efce-4b7a-9387-6921635b7890.jpg"",""img/0862/a0a3a7ba-7798-46a3-b4ca-05e1f6e581d0.jpg""]","",""
"","3821","similarity","168","920288","0.0-6.0-162.0","2","[""img/0894/1b3888e6-cf36-4c4a-a039-187aa5cb71ac.jpg"",""img/0875/cff79b3a-a797-4393-9757-6275f999ec04.jpg""]","",""
"","2315","similarity","169","923609","0.0-6.0-163.0","1","[""img/0866/be24ab58-230e-4db8-9f45-ff04c9aec6bb.jpg"",""img/0864/ea327690-500b-4137-bf91-451b309fe6a5.jpg""]","",""
"","4391","similarity","170","929004","0.0-6.0-164.0","6","[""img/0766/f5f78e4e-d88f-4866-951a-118ba9fec4d0.jpg"",""img/0862/847e5208-38ec-4f36-949c-296cdd7424ee.jpg""]","",""
"","3305","similarity","171","933312","0.0-6.0-165.0","1","[""img/0866/c446214b-a368-4c65-ae39-ea46894256ab.jpg"",""img/0874/eba003b4-cdab-4eee-8bc3-f064c7d94165.jpg""]","",""
"","2319","similarity","172","936635","0.0-6.0-166.0","7","[""img/0862/1c20f772-3a51-4a80-aac0-f57dc9f86c28.jpg"",""img/0860/fd4662f9-4c03-4d79-8593-06735e55a64b.jpg""]","",""
"","1934","similarity","173","943169","0.0-6.0-167.0","1","[""img/0766/ea09dd5a-d24d-4e97-a099-7da3db1baef1.jpg"",""img/0901/f1116359-1ff1-4638-b3b3-700918d36d18.jpg""]","",""
"","3180","similarity","174","947352","0.0-6.0-168.0","7","[""img/0862/e8cc3bdf-cc43-4565-bccf-492626c70953.jpg"",""img/0862/92fcd8a4-8193-4a6a-ae09-dd4a6338b0df.jpg""]","",""
"","4552","similarity","175","952908","0.0-6.0-169.0","5","[""img/0894/6aa5545f-fa7d-4286-bbaa-aaf34dc7ec96.jpg"",""img/0764/6ef77040-1fae-4afa-bfe7-eda98e6d0376.jpg""]","",""
"","3488","similarity","176","957400","0.0-6.0-170.0","5","[""img/0874/adf9a8f1-c40b-402b-b95b-1e85a54a7b62.jpg"",""img/0898/8605a25b-6895-476d-8c13-df7a83f96093.jpg""]","",""
"","2529","similarity","177","960934","0.0-6.0-171.0","1","[""img/0860/87039971-2210-4aab-93c0-8e9b5f1655b2.jpg"",""img/0766/5d1b8041-c5a1-4b02-b4fe-3453d98a0d72.jpg""]","",""
"","3326","similarity","178","965262","0.0-6.0-172.0","5","[""img/0898/08c72dac-f8ad-407a-9ce6-8c9a5d679c3a.jpg"",""img/0864/efcfbb1b-8197-44c9-b723-40d6c608dd3c.jpg""]","",""
"","3526","similarity","179","969792","0.0-6.0-173.0","6","[""img/0881/292e9b4b-fca0-4ba8-87f1-4048f9e37b7d.jpg"",""img/0764/da207710-e7e4-4f42-b2e6-99b5f357f433.jpg""]","",""
"","2937","similarity","180","973732","0.0-6.0-174.0","2","[""img/0898/26c41340-15bd-4ead-8fe4-c0d0ddca09c2.jpg"",""img/0868/fd307a36-9a3a-47d7-ab7c-f810d0b35040.jpg""]","",""
"","2870","similarity","181","977606","0.0-6.0-175.0","7","[""img/0864/8ddd2e30-a1d0-479f-9cbe-591213023893.jpg"",""img/0864/da39ad34-04e0-40d4-a724-c08d53e0ea09.jpg""]","",""
"","3814","similarity","182","982423","0.0-6.0-176.0","5","[""img/0899/0e1d936a-dbe2-4afc-9f19-7b7a1ae6c9ed.jpg"",""img/0862/e0f1a4e9-e1b6-45f7-af67-89f334e6630d.jpg""]","",""
"","3122","similarity","183","986549","0.0-6.0-177.0","1","[""img/0875/99698b4d-b4a1-44bc-8c83-8ea755bbbf61.jpg"",""img/0758/67c0be2f-9e91-48b3-8219-70ac0a1802fa.jpg""]","",""
"","3376","similarity","184","990929","0.0-6.0-178.0","2","[""img/0866/8efcaa46-83ab-4dee-a35f-850402aa21ae.jpg"",""img/0901/c6df1a21-44ed-47c2-960e-7c52220e329e.jpg""]","",""
"","2955","similarity","185","994886","0.0-6.0-179.0","6","[""img/0769/1afb527f-9887-428c-bd26-a12c2f9efb68.jpg"",""img/0874/1016b306-087c-4afc-aa08-fa527b28dc76.jpg""]","",""
"","3878","similarity","186","999768","0.0-6.0-180.0","1","[""img/0875/5a1e5100-0d94-4fec-bbe9-ca9894d2cf8e.jpg"",""img/0881/84397291-bc14-4fbf-90e8-241e486ab0fe.jpg""]","",""
"","4272","similarity","187","1005045","0.0-6.0-181.0","6","[""img/0866/11a1d141-be5e-443c-98c1-a9d4d9e3dec0.jpg"",""img/0868/3a62db2d-97e9-44a3-b8e3-a48c6f0e423b.jpg""]","",""
"","4860","similarity","188","1010909","0.0-6.0-182.0","6","[""img/0899/76ad07e2-ca25-45eb-84f2-8d80b8ca3e26.jpg"",""img/0758/9fb5b2fe-3f00-4fe6-973c-1ce10d5f4cd5.jpg""]","",""
"","3780","similarity","189","1015693","0.0-6.0-183.0","2","[""img/0874/85eb9b8a-c4c6-4e5a-b8e7-363a87a82054.jpg"",""img/0875/90da8d75-108a-44ad-b999-e21fee3860d3.jpg""]","",""
"","4659","similarity","190","1021356","0.0-6.0-184.0","6","[""img/0904/4b8daf2a-13a9-4ea9-9e0b-b265b6e933e7.jpg"",""img/0862/cdaed51d-9e2f-4807-801a-4663c40077e2.jpg""]","",""
"","3997","similarity","191","1026357","0.0-6.0-185.0","6","[""img/0902/0eb85fbc-27c8-41df-9d0b-a5f9efd417d1.jpg"",""img/0766/79767d11-b612-4e8a-9e4b-a8ac95bb6a54.jpg""]","",""
"","3764","similarity","192","1031125","0.0-6.0-186.0","7","[""img/0758/7ee8bc8f-c40b-4b3a-84ec-3e83580622d4.jpg"",""img/0769/3c1203c5-2ce7-466e-957a-8d77b5905460.jpg""]","",""
"","1924","similarity","193","1034051","0.0-6.0-187.0","7","[""img/0881/f6bd3b96-dc40-4e99-8681-bc3a35cf896d.jpg"",""img/0881/48ed65a5-471f-41af-86ec-3793805c116d.jpg""]","",""
"","3522","similarity","194","1038576","0.0-6.0-188.0","1","[""img/0758/20497cbe-ddae-489e-86e2-ab06985ed07c.jpg"",""img/0866/23a224f3-2012-4fc8-8e0f-3c36f8de27fd.jpg""]","",""
"","4436","similarity","195","1044016","0.0-6.0-189.0","2","[""img/0764/952d7adc-dc40-4aee-acce-18c2a1d02ea1.jpg"",""img/0898/68476bbb-34a1-42d9-8bc1-deab783d4489.jpg""]","",""
"","3996","similarity","196","1049016","0.0-6.0-190.0","7","[""img/0903/f67c4ab9-f8c2-4fcd-848a-a54a7b031002.jpg"",""img/0901/693e0535-ef7e-4d60-af9d-fac2f38e8307.jpg""]","",""
"","3717","similarity","197","1053736","0.0-6.0-191.0","5","[""img/0902/22ed3536-288b-452e-9777-0fa0ab94deb0.jpg"",""img/0898/b3290bf9-215b-4b45-b21a-65bdf73f142f.jpg""]","",""
"","3736","similarity","198","1058477","0.0-6.0-192.0","1","[""img/0864/49150900-7f25-4ce8-8d10-9b47a71d1997.jpg"",""img/0901/233a6948-48eb-4b67-8259-222b916b2322.jpg""]","",""
"","3855","similarity","199","1063336","0.0-6.0-193.0","6","[""img/0894/0130a973-d993-41f8-874a-fee23d9ac11f.jpg"",""img/0881/d373cb9f-a719-4549-a2a4-82def79fb2a5.jpg""]","",""
"","3996","similarity","200","1068337","0.0-6.0-194.0","7","[""img/0868/d6d1f30d-4323-435a-b194-7892521bc57e.jpg"",""img/0868/77091fc7-a590-4ebb-b915-fdb2483a2399.jpg""]","",""
"","4340","similarity","201","1073679","0.0-6.0-195.0","6","[""img/0899/57476fed-5962-4272-8fc9-b317bb777b54.jpg"",""img/0764/03c07b98-3f18-4b71-bb70-ecff564a78d1.jpg""]","",""
"","4539","similarity","202","1079221","0.0-6.0-196.0","3","[""img/0881/667e2147-d457-4f32-aa5f-6ab86e5848f1.jpg"",""img/0904/1d10df11-b5c8-4370-9a6b-097a7f965895.jpg""]","",""
"","4253","similarity","203","1084478","0.0-6.0-197.0","2","[""img/0864/300bb811-8b3c-4c42-8653-6097c3725197.jpg"",""img/0902/1a120fb9-dbd6-443e-ba91-b4aceab963da.jpg""]","",""
"","3788","similarity","204","1089270","0.0-6.0-198.0","3","[""img/0894/a98416c0-51e2-4960-85da-d81d8688b9d5.jpg"",""img/0904/24fc38fe-842c-4831-ad8a-b1de5c25c0a8.jpg""]","",""
"","2773","similarity","205","1093046","0.0-6.0-199.0","7","[""img/0901/0f670aef-ac36-496d-8142-ee5fdb21dd82.jpg"",""img/0901/1ede21d9-384f-4150-86b5-e1c57b5dc1d4.jpg""]","",""
"","5040","similarity","206","1099090","0.0-6.0-200.0","5","[""img/0894/492d2f29-d7b9-4422-8be8-47fd58bfaa8b.jpg"",""img/0860/99c589b9-9140-4d17-90c0-b344323edcda.jpg""]","",""
"","4468","similarity","207","1104568","0.0-6.0-201.0","5","[""img/0898/224c1572-56b9-4f16-a9e4-6f3bc9c114bd.jpg"",""img/0903/39365c8e-a733-4801-ac7d-b87e38c3784b.jpg""]","",""
"","2865","similarity","208","1108438","0.0-6.0-202.0","1","[""img/0864/afcba0a3-7e27-4757-b254-e9f05fad27e2.jpg"",""img/0894/151063aa-6472-4745-837b-36603aba5966.jpg""]","",""
"","4309","similarity","209","1113751","0.0-6.0-203.0","5","[""img/0874/767f289c-9814-4496-803f-745cc8913d1f.jpg"",""img/0860/4a022222-056d-461c-ab02-39fac9647552.jpg""]","",""
"","4507","similarity","210","1119261","0.0-6.0-204.0","3","[""img/0862/d0ca4c78-fc35-46ed-bdcc-8e124283c53e.jpg"",""img/0875/ebf7653f-ff45-4e9f-af58-2c042ab3cd2b.jpg""]","",""
"","2141","similarity","211","1122405","0.0-6.0-205.0","1","[""img/0867/cc72ed48-7704-422c-86d6-467a1145287a.jpg"",""img/0881/db77fe00-aeb0-4d1d-aa66-f3a96fd077e4.jpg""]","",""
"","3858","similarity","212","1127268","0.0-6.0-206.0","7","[""img/0901/bc47e078-bda4-40ed-b89a-bbd819164b95.jpg"",""img/0902/eb3e7e71-8ff1-4b88-a6a7-47e2c1ce1683.jpg""]","",""
"","3674","similarity","213","1131945","0.0-6.0-207.0","5","[""img/0899/ad8268c5-8199-48d0-ad70-c5b6d6c599ec.jpg"",""img/0864/6f631579-acf1-415c-a42c-1207f62a8d99.jpg""]","",""
"","2845","similarity","214","1135792","0.0-6.0-208.0","1","[""img/0901/f469cb1d-6d81-4a45-bab5-cd0b650c2b4f.jpg"",""img/0769/48a1144d-fbda-4809-991b-fc8424a32ee4.jpg""]","",""
"","4740","similarity","215","1151568","0.0-6.0-209.0","7","[""img/0902/24d10fe7-314f-4d5a-8c7b-b43121bba0a4.jpg"",""img/0902/ca3160ba-ad5d-459f-a1b6-8b4f3c85ecd5.jpg""]","",""
"[{""page_index"":0,""viewing_time"":7068}]","7069","instructions","216","1159639","0.0-7.0","","","",""
"","7007","image-multi-choice","217","1167661","0.0-8.0-0.0","","","{""Q0"":""Lincoln's Sparrow""}","Nashville Warbler"
"","4990","image-multi-choice","218","1173664","0.0-8.0-1.0","","","{""Q0"":""White-throated Sparrow""}","Black-and-white Warbler"
"","8920","image-multi-choice","219","1183594","0.0-8.0-2.0","","","{""Q0"":""Blackburnian Warbler""}","Townsend's Warbler"
"","2345","image-multi-choice","220","1186947","0.0-8.0-3.0","","","{""Q0"":""Song Sparrow""}","Lark Sparrow"
"","2203","image-multi-choice","221","1190161","0.0-8.0-4.0","","","{""Q0"":""Magnolia Warbler""}","Yellow Warbler"
"","1777","image-multi-choice","222","1192946","0.0-8.0-5.0","","","{""Q0"":""Magnolia Warbler""}","Orange-crowned Warbler"
"","1823","image-multi-choice","223","1195777","0.0-8.0-6.0","","","{""Q0"":""Fox Sparrow""}","White-throated Sparrow"
"","2542","image-multi-choice","224","1199327","0.0-8.0-7.0","","","{""Q0"":""American Tree Sparrow""}","Fox Sparrow"
"","5938","image-multi-choice","225","1206273","0.0-8.0-8.0","","","{""Q0"":""White-crowned Sparrow""}","Song Sparrow"
"","7274","image-multi-choice","226","1214556","0.0-8.0-9.0","","","{""Q0"":""Vesper Sparrow""}","Blackburnian Warbler"
"","5037","image-multi-choice","227","1220601","0.0-8.0-10.0","","","{""Q0"":""Swamp Sparrow""}","Vesper Sparrow"
"","2297","image-multi-choice","228","1223906","0.0-8.0-11.0","","","{""Q0"":""Northern Waterthrush""}","White-crowned Sparrow"
"","4750","image-multi-choice","229","1229664","0.0-8.0-12.0","","","{""Q0"":""Lark Sparrow""}","American Tree Sparrow"
"","4169","image-multi-choice","230","1234840","0.0-8.0-13.0","","","{""Q0"":""Chipping Sparrow""}","Tennessee Warbler"
"","2414","image-multi-choice","231","1238263","0.0-8.0-14.0","","","{""Q0"":""Black-and-white Warbler""}","Magnolia Warbler"
"","4490","image-multi-choice","232","1243762","0.0-8.0-15.0","","","{""Q0"":""Nashville Warbler""}","Northern Waterthrush"
"","2540","image-multi-choice","233","1247311","0.0-8.0-16.0","","","{""Q0"":""Orange-crowned Warbler""}","Chipping Sparrow"
"","3643","image-multi-choice","234","1251963","0.0-8.0-17.0","","","{""Q0"":""Ovenbird""}","Swamp Sparrow"
"","2373","image-multi-choice","235","1255345","0.0-8.0-18.0","","","{""Q0"":""Townsend's Warbler""}","Lincoln's Sparrow"
"","3323","image-multi-choice","236","1259678","0.0-8.0-19.0","","","{""Q0"":""Yellow Warbler""}","Ovenbird"
