"view_history","rt","trial_type","trial_index","time_elapsed","internal_node_id","sim_score","stimulus","responses","answer"
"[{""page_index"":0,""viewing_time"":12676}]","12678","instructions","0","12678","0.0-0.0","","","",""
"","4574","similarity_demo","1","18263","0.0-1.0","3","[""img/866.jpg"",""img/868.jpg""]","",""
"[{""page_index"":0,""viewing_time"":5960}]","5961","instructions","2","25229","0.0-2.0","","","",""
"","3793","similarity_demo","3","30028","0.0-3.0","3","[""img/766.jpg"",""img/867.jpg""]","",""
"[{""page_index"":0,""viewing_time"":4228}]","4229","instructions","4","35259","0.0-4.0","","","",""
"[{""page_index"":0,""viewing_time"":11171}]","11171","instructions","5","47430","0.0-5.0","","","",""
"","6150","similarity","6","54589","0.0-6.0-0.0","5","[""img/0868/1a62b2b2-18f5-466e-b564-5176a57c565e.jpg"",""img/0901/1ede21d9-384f-4150-86b5-e1c57b5dc1d4.jpg""]","",""
"","5600","similarity","7","61195","0.0-6.0-1.0","5","[""img/0769/bb8c4e53-6f32-4814-97ee-392d4decfb2e.jpg"",""img/0867/075e0f95-856b-4cbb-acf5-092393aaf04e.jpg""]","",""
"","3919","similarity","8","66122","0.0-6.0-2.0","3","[""img/0766/a0270213-fa0e-4972-8b56-228c3e01ff90.jpg"",""img/0898/a114b375-cb89-44ba-9498-74213f1ecdee.jpg""]","",""
"","4248","similarity","9","71377","0.0-6.0-3.0","6","[""img/0902/d49743d6-67ae-4c2e-a939-8fd895a0f18e.jpg"",""img/0881/0c7068da-d0d9-4103-bda1-74ef7a2b32c3.jpg""]","",""
"","3745","similarity","10","76127","0.0-6.0-4.0","6","[""img/0894/bd34223a-2f66-4e16-9d18-193a746b69ff.jpg"",""img/0894/4739e06d-c31e-4bf1-bf91-c97fa9afb456.jpg""]","",""
"","3518","similarity","11","80651","0.0-6.0-5.0","2","[""img/0874/ca23d307-fc00-4d7d-9106-584c6eb21b4d.jpg"",""img/0899/06b0fc99-0581-461a-9913-d1a5a941ac61.jpg""]","",""
"","5168","similarity","12","86828","0.0-6.0-6.0","5","[""img/0904/2c98dc56-88d1-4fb5-a999-b6a7861f65f0.jpg"",""img/0764/e30dba15-e68a-4659-89db-e1654b52fe02.jpg""]","",""
"","3051","similarity","13","90885","0.0-6.0-7.0","5","[""img/0899/0adc0bc3-6fca-4078-be6f-d45ddf1653d5.jpg"",""img/0898/81b08535-2020-4c15-9ce4-2f1e460755ae.jpg""]","",""
"","2853","similarity","14","94747","0.0-6.0-8.0","3","[""img/0874/3ce41e7c-40c8-4d58-a546-171114521796.jpg"",""img/0903/0e5c2854-42aa-48c0-9c3d-6e1ad2a400bd.jpg""]","",""
"","4167","similarity","15","99924","0.0-6.0-9.0","6","[""img/0881/d1982897-8d8d-4704-a940-1ee5d07a1f15.jpg"",""img/0758/caa93da2-9edf-49fa-96b9-32dedd8f5078.jpg""]","",""
"","3918","similarity","16","104847","0.0-6.0-10.0","3","[""img/0898/4184e5a2-84ea-4f36-9b42-ae58646f6f87.jpg"",""img/0901/b123d109-47b4-4f9a-80c9-9bb16da42efa.jpg""]","",""
"","3741","similarity","17","109595","0.0-6.0-11.0","2","[""img/0903/0a92ec52-4e87-410a-857a-4455cde56a70.jpg"",""img/0769/04347740-f8f6-48bb-887a-f68babd0a0d4.jpg""]","",""
"","2751","similarity","18","113356","0.0-6.0-12.0","2","[""img/0764/a86eed5b-d0af-4c3f-8c7a-26e98e98cf1a.jpg"",""img/0868/0d3abd3a-b6c3-4584-a9f7-e2da63748b3d.jpg""]","",""
"","3291","similarity","19","117656","0.0-6.0-13.0","2","[""img/0867/2e1a0b58-cdb1-4107-a14e-452530d7b9b0.jpg"",""img/0903/ea75f240-fb62-4edb-a709-83e858b202c0.jpg""]","",""
"","4241","similarity","20","122902","0.0-6.0-14.0","5","[""img/0766/79767d11-b612-4e8a-9e4b-a8ac95bb6a54.jpg"",""img/0758/6cd8c362-ae2a-41eb-80a3-3a4f7ace1530.jpg""]","",""
"","2941","similarity","21","126848","0.0-6.0-15.0","5","[""img/0902/fbef27fa-ac83-4936-ab78-9d1c20a383e1.jpg"",""img/0860/5383b320-1518-4095-a58e-5cc1ae30b64c.jpg""]","",""
"","2860","similarity","22","130715","0.0-6.0-16.0","3","[""img/0769/1d8734c4-77ab-4165-9e71-5cfe672ff01c.jpg"",""img/0875/5a716432-c6ca-4b1c-955a-2b8ac25198ee.jpg""]","",""
"","2841","similarity","23","134559","0.0-6.0-17.0","3","[""img/0904/a8c3c7d2-9bcf-4347-9e03-8203adfc1fc5.jpg"",""img/0866/0207e9a2-7dbb-40b5-9459-b472aaeceb2a.jpg""]","",""
"","2952","similarity","24","138520","0.0-6.0-18.0","6","[""img/0875/2e13d160-eea1-416b-aff1-d37ab99ecc1d.jpg"",""img/0875/03c3c331-738b-4446-af92-3d7386b08c2e.jpg""]","",""
"","2391","similarity","25","141915","0.0-6.0-19.0","6","[""img/0758/b76ceca7-95ac-46e4-ac13-da02c8e93be9.jpg"",""img/0758/a085b443-b5d7-4cb2-9ad4-b9dab0fc23f1.jpg""]","",""
"","2287","similarity","26","145211","0.0-6.0-20.0","3","[""img/0902/c9c74d2d-9b82-42d7-a9d0-3b8ff67ff81e.jpg"",""img/0874/767f289c-9814-4496-803f-745cc8913d1f.jpg""]","",""
"","5123","similarity","27","151341","0.0-6.0-21.0","7","[""img/0764/b887d7c6-aa81-4637-af8e-05135757ac59.jpg"",""img/0769/da36e3f7-2337-434f-ab57-11822dd7eed7.jpg""]","",""
"","460","similarity","28","152808","0.0-6.0-22.0","4","[""img/0901/0f670aef-ac36-496d-8142-ee5fdb21dd82.jpg"",""img/0874/8cdb1c07-1c32-46d2-981c-3636560fa6e5.jpg""]","",""
"","3715","similarity","29","157532","0.0-6.0-23.0","3","[""img/0875/ebf7653f-ff45-4e9f-af58-2c042ab3cd2b.jpg"",""img/0903/8f7f9939-b8e6-433f-93dd-b362496c80a7.jpg""]","",""
"","3133","similarity","30","161673","0.0-6.0-24.0","6","[""img/0769/35364db7-e0d5-40ef-93dc-faf9dfb95136.jpg"",""img/0881/e046471a-35b4-4159-bbf7-3cfd201bef66.jpg""]","",""
"","3471","similarity","31","166152","0.0-6.0-25.0","2","[""img/0867/ac1797e4-8afc-48fe-b252-86d1defb1cca.jpg"",""img/0904/9d30eff1-46ef-4453-b11e-124ef8145c00.jpg""]","",""
"","3797","similarity","32","170959","0.0-6.0-26.0","2","[""img/0860/e8b8c51e-1834-4875-8b61-6c5bc9b178bd.jpg"",""img/0881/f62bdcd1-a4b7-4d48-83da-d9c9e01c8727.jpg""]","",""
"","2496","similarity","33","174462","0.0-6.0-27.0","6","[""img/0866/d266fece-59b3-46fa-b69f-96f6efb81b59.jpg"",""img/0866/bf14b5bd-fb55-47db-86b9-4f8aeb9a6dad.jpg""]","",""
"","4490","similarity","34","179958","0.0-6.0-28.0","3","[""img/0764/39a9fc7e-b863-432c-9374-de43983f31a5.jpg"",""img/0862/47ed5efd-4ec9-4b74-bb4e-a5f5cf0c3e7d.jpg""]","",""
"","3805","similarity","35","184770","0.0-6.0-29.0","3","[""img/0904/ba8e689e-9ca6-4608-a2a1-3b0940666ae6.jpg"",""img/0758/20497cbe-ddae-489e-86e2-ab06985ed07c.jpg""]","",""
"","4648","similarity","36","190421","0.0-6.0-30.0","5","[""img/0894/5a49e858-2850-4892-9a06-e9f0efb5f94d.jpg"",""img/0899/fd9efb43-701f-4cd6-baaa-4c38315f4bdc.jpg""]","",""
"","4260","similarity","37","195688","0.0-6.0-31.0","6","[""img/0860/99c589b9-9140-4d17-90c0-b344323edcda.jpg"",""img/0904/56e73f28-7e64-489b-a161-e6b1a063878d.jpg""]","",""
"","2489","similarity","38","199185","0.0-6.0-32.0","6","[""img/0874/a82926a3-0b43-4add-803c-d5f9ea7798ee.jpg"",""img/0881/7e822106-76f7-4b10-a805-14dc68b2cfaf.jpg""]","",""
"","3779","similarity","39","203968","0.0-6.0-33.0","5","[""img/0881/54ea8e77-c7e5-4197-b7fa-00b7020849a7.jpg"",""img/0899/565ccdd9-0933-4536-a625-3c0e25a713dd.jpg""]","",""
"","2938","similarity","40","207911","0.0-6.0-34.0","2","[""img/0866/8efcaa46-83ab-4dee-a35f-850402aa21ae.jpg"",""img/0862/d0ca4c78-fc35-46ed-bdcc-8e124283c53e.jpg""]","",""
"","4859","similarity","41","213777","0.0-6.0-35.0","2","[""img/0868/d6d1f30d-4323-435a-b194-7892521bc57e.jpg"",""img/0894/11674fa4-285d-44e2-939f-2228c6a64080.jpg""]","",""
"","3397","similarity","42","218180","0.0-6.0-36.0","6","[""img/0860/31ff6436-98bf-4652-bed2-40f627229568.jpg"",""img/0860/61fb959d-d4d9-4de4-9e4e-4fa62b4cfcd5.jpg""]","",""
"","3773","similarity","43","222959","0.0-6.0-37.0","2","[""img/0862/ee3b7bff-4a70-4e84-9bea-4a565e456acb.jpg"",""img/0864/c22faebd-9c53-47bc-ada3-b9a30c688e75.jpg""]","",""
"","2975","similarity","44","226940","0.0-6.0-38.0","1","[""img/0766/1865bfc9-2410-4765-a804-3ae4ba2393d0.jpg"",""img/0866/945c6710-d15b-4a5b-a8f6-69af0850357f.jpg""]","",""
"","3189","similarity","45","231136","0.0-6.0-39.0","5","[""img/0875/527ced51-8e53-4aab-ab05-86df219104c0.jpg"",""img/0898/b2732712-71c2-45d8-834f-2b2ed5504910.jpg""]","",""
"","4091","similarity","46","236235","0.0-6.0-40.0","5","[""img/0766/b84598d0-5b41-4841-88b0-b441b48289f5.jpg"",""img/0769/1ca58b80-2365-446d-9616-6c1719e6c46f.jpg""]","",""
"","2611","similarity","47","253897","0.0-6.0-41.0","1","[""img/0874/eba003b4-cdab-4eee-8bc3-f064c7d94165.jpg"",""img/0764/17b088f8-3053-4140-b544-d15654cc79ef.jpg""]","",""
"","4507","similarity","48","259410","0.0-6.0-42.0","3","[""img/0868/15dd6fd7-791e-4b53-b203-195d617521a4.jpg"",""img/0902/a6fb6dd5-696c-47ec-be7d-d7b88f1544f1.jpg""]","",""
"","3190","similarity","49","263610","0.0-6.0-43.0","1","[""img/0875/8521fd58-3b1e-4dc5-97ae-804edfa6734a.jpg"",""img/0899/f95cbdb4-f804-4f5d-ad76-373ad343e658.jpg""]","",""
"","2950","similarity","50","267569","0.0-6.0-44.0","1","[""img/0866/a15b02be-11bb-43e3-b0e0-ecc3bd7dfc49.jpg"",""img/0860/702bd09d-df3a-40aa-a267-5f04474305b5.jpg""]","",""
"","3772","similarity","51","272349","0.0-6.0-45.0","2","[""img/0766/d5d38751-8fa5-476f-93e9-86ed2d9045ef.jpg"",""img/0903/365f176c-25a4-4973-bd3c-279bf1b39476.jpg""]","",""
"","2527","similarity","52","275884","0.0-6.0-46.0","5","[""img/0901/b9141736-3041-4385-a586-b1fe911c76a5.jpg"",""img/0904/0d17b811-063e-416e-a23c-3b3cfa4fcce5.jpg""]","",""
"","3250","similarity","53","280140","0.0-6.0-47.0","4","[""img/0758/e38fd80d-18d0-42f3-b848-f930788e8bd7.jpg"",""img/0902/2db723b6-130f-454c-8c8d-88829edbcd65.jpg""]","",""
"","2696","similarity","54","283846","0.0-6.0-48.0","7","[""img/0764/f990b2e8-ecee-481e-be7c-0239fce350e2.jpg"",""img/0764/a3226bc4-dcc3-4608-bde8-1414d685ce5c.jpg""]","",""
"","2963","similarity","55","287818","0.0-6.0-49.0","2","[""img/0866/be24ab58-230e-4db8-9f45-ff04c9aec6bb.jpg"",""img/0902/0db94c50-f1fb-4091-953c-29ca0466bee2.jpg""]","",""
"","2958","similarity","56","291781","0.0-6.0-50.0","7","[""img/0764/6c7fe363-2d37-418f-9e5e-a3273af5d4fb.jpg"",""img/0758/67c0be2f-9e91-48b3-8219-70ac0a1802fa.jpg""]","",""
"","3484","similarity","57","296274","0.0-6.0-51.0","5","[""img/0898/c3cecf20-f7fd-45fa-97d0-dc0a63e8d6c0.jpg"",""img/0894/661b9f9f-4bde-487a-b1ed-87085fde6948.jpg""]","",""
"","2782","similarity","58","300062","0.0-6.0-52.0","7","[""img/0875/e7e66b13-b573-431e-b85e-288ce04a35a3.jpg"",""img/0866/23a224f3-2012-4fc8-8e0f-3c36f8de27fd.jpg""]","",""
"","5512","similarity","59","306578","0.0-6.0-53.0","6","[""img/0904/24fc38fe-842c-4831-ad8a-b1de5c25c0a8.jpg"",""img/0904/60d1a521-edf7-4696-9263-f21ac0e62a01.jpg""]","",""
"","2999","similarity","60","310586","0.0-6.0-54.0","7","[""img/0769/387a9744-d6a7-42b8-bab8-33007ec434aa.jpg"",""img/0769/057eb0a0-aa5b-40c7-9852-21444f68d767.jpg""]","",""
"","4315","similarity","61","315909","0.0-6.0-55.0","1","[""img/0898/40f99fb2-64d2-4e72-8a7f-a1cf60741e69.jpg"",""img/0758/61d64021-9214-4951-bdf8-f871f9827cf9.jpg""]","",""
"","2384","similarity","62","319300","0.0-6.0-56.0","4","[""img/0769/9ea9ceb6-049e-4ad9-be8f-00645cd35803.jpg"",""img/0902/07437a16-3d0f-4a5c-89ec-36d0efa4b3b8.jpg""]","",""
"","3009","similarity","63","323314","0.0-6.0-57.0","3","[""img/0864/4bd81bc6-c13d-46df-95a9-485886dc7c1b.jpg"",""img/0881/84397291-bc14-4fbf-90e8-241e486ab0fe.jpg""]","",""
"","2257","similarity","64","326576","0.0-6.0-58.0","1","[""img/0758/d41c06bf-ebaf-454b-91c6-1a17f917b659.jpg"",""img/0868/4a8a45ed-2c4f-421b-9564-409a33ecd26c.jpg""]","",""
"","2009","similarity","65","329591","0.0-6.0-59.0","4","[""img/0862/92f0146c-20c4-482e-aef5-adb693790338.jpg"",""img/0769/3adfa417-3b90-4aab-b437-5eaa474189cb.jpg""]","",""
"","2708","similarity","66","333305","0.0-6.0-60.0","3","[""img/0764/3297a811-ea8b-4d74-9547-59cecab7293a.jpg"",""img/0903/b0df4094-a3be-4b5b-81bd-8d260f13f61b.jpg""]","",""
"","3351","similarity","67","337662","0.0-6.0-61.0","6","[""img/0899/ddf96ade-692e-4602-bd22-dedbb46401bc.jpg"",""img/0899/57476fed-5962-4272-8fc9-b317bb777b54.jpg""]","",""
"","3462","similarity","68","342129","0.0-6.0-62.0","6","[""img/0860/71e1aad0-2cdf-43bb-94a4-a8c016997c30.jpg"",""img/0875/34132396-d896-4c2d-8087-646dd867e769.jpg""]","",""
"","2606","similarity","69","345745","0.0-6.0-63.0","1","[""img/0868/293079b8-7e0c-4afd-a390-1e5d35fe3ded.jpg"",""img/0874/93d1f8dc-acf2-4f03-bd8d-8ec35df276ed.jpg""]","",""
"","3052","similarity","70","349803","0.0-6.0-64.0","4","[""img/0758/a709631e-3705-4725-ac40-f0d916924f08.jpg"",""img/0862/ba89835a-408c-480b-8594-ed4ffa97eb5c.jpg""]","",""
"","2825","similarity","71","353634","0.0-6.0-65.0","4","[""img/0904/9b3568cc-3cf7-42be-9df3-fdafde7a58b8.jpg"",""img/0898/08c72dac-f8ad-407a-9ce6-8c9a5d679c3a.jpg""]","",""
"","4321","similarity","72","358964","0.0-6.0-66.0","2","[""img/0881/44e09805-5a25-4f17-a716-4ad4a331b174.jpg"",""img/0866/386235d2-6857-41e7-88a8-25cfc3430025.jpg""]","",""
"","2385","similarity","73","362357","0.0-6.0-67.0","3","[""img/0867/12264664-1860-46df-8c21-162b9817cdda.jpg"",""img/0898/a8f16b02-e19f-423b-86c3-a36562ae1f9b.jpg""]","",""
"","3379","similarity","74","366741","0.0-6.0-68.0","6","[""img/0902/168ebd47-9e82-4ab7-a18b-c3da85072db8.jpg"",""img/0764/c80b3e06-2ee3-4326-9678-340607eb5348.jpg""]","",""
"","3678","similarity","75","371428","0.0-6.0-69.0","6","[""img/0875/d59ff733-eaff-4ee2-9443-06954dd0bcb6.jpg"",""img/0867/179ab87a-8eac-4c52-a41f-2e48e3120f09.jpg""]","",""
"","1250","similarity","76","373681","0.0-6.0-70.0","4","[""img/0766/535849cc-ff5d-4df9-8f31-0ce94a97d571.jpg"",""img/0764/29072395-f595-4e3c-83d3-ff87010039fa.jpg""]","",""
"","3636","similarity","77","378323","0.0-6.0-71.0","3","[""img/0894/5c7677b0-a4f1-479e-b274-7822c415175a.jpg"",""img/0867/85a96c62-548f-4994-9553-819e03c3135a.jpg""]","",""
"","3364","similarity","78","382695","0.0-6.0-72.0","3","[""img/0875/90da8d75-108a-44ad-b999-e21fee3860d3.jpg"",""img/0764/b328441c-f81c-486c-9eae-b947c70ba7cd.jpg""]","",""
"","3153","similarity","79","386855","0.0-6.0-73.0","5","[""img/0867/cc72ed48-7704-422c-86d6-467a1145287a.jpg"",""img/0866/07c9c966-3c8d-40e7-8128-92b2acbaed5d.jpg""]","",""
"","2099","similarity","80","389963","0.0-6.0-74.0","3","[""img/0903/6a87dbad-9b8d-4ff5-9c41-03c9aa24f0c3.jpg"",""img/0758/d57c2592-a317-4f63-91be-91a3a9afd222.jpg""]","",""
"","2472","similarity","81","393441","0.0-6.0-75.0","1","[""img/0766/aaec5f42-7f0a-4a16-aeca-488d757acbcc.jpg"",""img/0868/179a5502-ab5c-478e-8263-5a1fbcc101d2.jpg""]","",""
"","5352","similarity","82","399798","0.0-6.0-76.0","5","[""img/0874/c0378dac-9370-439a-8b79-db27c96fb390.jpg"",""img/0766/91fc8c4d-862f-4d2b-b1a1-2db8d729b6b7.jpg""]","",""
"","3112","similarity","83","403915","0.0-6.0-77.0","3","[""img/0881/1407b85b-a1c6-45b1-9884-3b24203efadb.jpg"",""img/0868/4bd5105a-d2c3-4f82-8c80-57196106ba53.jpg""]","",""
"","2665","similarity","84","407586","0.0-6.0-78.0","2","[""img/0758/2fa3e613-e676-4e6e-bd12-705327eeb3e1.jpg"",""img/0901/4f9cffe0-c0be-4d7f-bacd-9d51efd19b4a.jpg""]","",""
"","2672","similarity","85","411264","0.0-6.0-79.0","5","[""img/0881/d373cb9f-a719-4549-a2a4-82def79fb2a5.jpg"",""img/0898/0af304a2-6a7a-4082-ab7c-4450cd08cc58.jpg""]","",""
"","2003","similarity","86","414275","0.0-6.0-80.0","3","[""img/0867/8ba0c5a7-c7e4-42cf-a80a-543763b90779.jpg"",""img/0758/eabcd7a8-56ad-4fd2-bc24-90f6b7b33265.jpg""]","",""
"","907","similarity","87","416186","0.0-6.0-81.0","4","[""img/0769/662ab839-88d1-4ebf-af05-9b2980cad943.jpg"",""img/0899/25ae6ec8-9565-49fe-a8bb-8d0666f52716.jpg""]","",""
"","2523","similarity","88","419715","0.0-6.0-82.0","7","[""img/0903/59defeb8-98bd-4570-a2f8-9bd189e68ef4.jpg"",""img/0903/12bd8657-92e6-4c36-a06c-597e7a1d51f3.jpg""]","",""
"","2357","similarity","89","430760","0.0-6.0-83.0","3","[""img/0867/f8159067-056c-41f1-a136-c529fe5e970a.jpg"",""img/0766/2746b119-4bba-463e-acf0-88136dc6600c.jpg""]","",""
"","3260","similarity","90","435026","0.0-6.0-84.0","5","[""img/0902/71c03003-03ef-4b0f-8229-e0c857150a5d.jpg"",""img/0867/a498eef3-9fa4-4ab2-9778-4ae82ac40dc5.jpg""]","",""
"","4885","similarity","91","440919","0.0-6.0-85.0","2","[""img/0901/6e2957f8-f5ab-46f4-87cc-bb50155a098b.jpg"",""img/0875/5a1e5100-0d94-4fec-bbe9-ca9894d2cf8e.jpg""]","",""
"","2697","similarity","92","444624","0.0-6.0-86.0","4","[""img/0764/438c0217-036f-43c9-9b87-f43144e46011.jpg"",""img/0866/93a27239-8317-4e08-98ca-d8b1ff298e07.jpg""]","",""
"","3218","similarity","93","448852","0.0-6.0-87.0","6","[""img/0901/168eb52c-c415-43f1-b5c8-e76e1a1ec247.jpg"",""img/0894/151063aa-6472-4745-837b-36603aba5966.jpg""]","",""
"","3289","similarity","94","453150","0.0-6.0-88.0","4","[""img/0898/881e2a85-d5c2-49be-a0c6-8a6ce2c4af08.jpg"",""img/0769/75f7e514-0548-4329-b1e4-93c05e74f038.jpg""]","",""
"","3762","similarity","95","457915","0.0-6.0-89.0","7","[""img/0769/878531fd-e0e8-4ad1-b9ad-f018bb104ca0.jpg"",""img/0894/e2446cf5-cd48-486a-badc-76498e087fbe.jpg""]","",""
"","3172","similarity","96","462095","0.0-6.0-90.0","2","[""img/0862/53a9cf7c-93c4-41b9-952f-07d17f7a17b2.jpg"",""img/0874/31e22c7c-99aa-40b1-bf03-dd73fa2df4d6.jpg""]","",""
"","3122","similarity","97","466227","0.0-6.0-91.0","7","[""img/0894/2d2db7b3-e8a3-499b-b63a-14f51bf73882.jpg"",""img/0766/db750ba0-ce04-46e1-b601-e1b80212bad2.jpg""]","",""
"","2652","similarity","98","469885","0.0-6.0-92.0","3","[""img/0874/bf14b896-e930-4fd9-9c05-2e83317a2773.jpg"",""img/0867/a749dddb-69f0-44a6-acdc-2bf295cf6dcc.jpg""]","",""
"","2418","similarity","99","473311","0.0-6.0-93.0","1","[""img/0899/51a7a498-98c7-42d7-bca8-bc2d8f0b5831.jpg"",""img/0868/6a28c3b0-3d76-498a-9fb7-ddafc665eca8.jpg""]","",""
"","3149","similarity","100","477467","0.0-6.0-94.0","5","[""img/0903/5995f4a8-fa82-46f8-8760-fd7800a5ca34.jpg"",""img/0862/f43ceabf-acc1-4107-b857-5d1849808f93.jpg""]","",""
"","3931","similarity","101","482404","0.0-6.0-95.0","6","[""img/0899/7f9d45d0-b2c6-40d3-aa41-c207db2c411b.jpg"",""img/0766/e8052e17-9dae-4139-802b-6e590cb2d526.jpg""]","",""
"","3842","similarity","102","487253","0.0-6.0-96.0","7","[""img/0867/98d8cd96-1476-4fe0-a3a3-04f875500a1b.jpg"",""img/0868/d98ca254-b195-477f-b57e-5760a2717db8.jpg""]","",""
"","3625","similarity","103","491884","0.0-6.0-97.0","6","[""img/0862/24cdc752-c2e5-4a17-86a6-6f2045d8553b.jpg"",""img/0901/da4fe30f-d12a-491e-96a2-5ab8ebaadd09.jpg""]","",""
"","3509","similarity","104","496402","0.0-6.0-98.0","2","[""img/0875/cff79b3a-a797-4393-9757-6275f999ec04.jpg"",""img/0766/2e1cf445-9aef-40e7-92f4-5facf48b64c5.jpg""]","",""
"","2754","similarity","105","500162","0.0-6.0-99.0","6","[""img/0758/e1ba5e53-addc-436a-b428-d34fc1b130dc.jpg"",""img/0874/2c9464dd-8a23-4baa-ac94-1ba3af5c15cc.jpg""]","",""
"","2598","similarity","106","503765","0.0-6.0-100.0","4","[""img/0904/65e2b70a-b184-4da3-b5c0-5038bdf9469a.jpg"",""img/0868/fd307a36-9a3a-47d7-ab7c-f810d0b35040.jpg""]","",""
"","3492","similarity","107","508263","0.0-6.0-101.0","1","[""img/0903/36e4ab1f-caa9-40b3-8616-faada076df94.jpg"",""img/0866/9b38d691-1802-4959-ab3f-fc902f0e4ea6.jpg""]","",""
"","2799","similarity","108","512070","0.0-6.0-102.0","2","[""img/0868/77091fc7-a590-4ebb-b915-fdb2483a2399.jpg"",""img/0769/96556ef3-7fac-4c9d-8281-1cb0ea5081bc.jpg""]","",""
"","4000","similarity","109","517077","0.0-6.0-103.0","5","[""img/0902/44cd9b7e-fdfb-4f78-90de-8d4c9d279365.jpg"",""img/0899/1b3457ea-87d4-4946-a01c-aac1863ed46c.jpg""]","",""
"","4578","similarity","110","522661","0.0-6.0-104.0","4","[""img/0868/c8ac40c7-6904-4e13-8d61-c75d3052dc4e.jpg"",""img/0862/064818ee-13d5-4618-bb24-21c7368ea278.jpg""]","",""
"","2984","similarity","111","526651","0.0-6.0-105.0","5","[""img/0903/14f179a2-8786-48a2-8377-88d1d404341b.jpg"",""img/0894/a3d4170b-b7d8-40e3-955f-87e76ed745fc.jpg""]","",""
"","2605","similarity","112","530264","0.0-6.0-106.0","7","[""img/0864/300bb811-8b3c-4c42-8653-6097c3725197.jpg"",""img/0874/995f0332-0439-4eb4-add3-957335dbf6d9.jpg""]","",""
"","2853","similarity","113","534124","0.0-6.0-107.0","6","[""img/0862/00c06b00-3b73-44e9-bc1e-c5aafb438321.jpg"",""img/0902/c018bd7a-d91a-4192-aea4-7259cfcdb6c4.jpg""]","",""
"","2423","similarity","114","537553","0.0-6.0-108.0","7","[""img/0904/25365108-e038-4021-aac9-797f2063b337.jpg"",""img/0903/6138142e-c84e-45fc-9487-c974f3d4968a.jpg""]","",""
"","3876","similarity","115","542432","0.0-6.0-109.0","4","[""img/0764/952d7adc-dc40-4aee-acce-18c2a1d02ea1.jpg"",""img/0864/65210d57-1153-4657-886a-32e758f49b4a.jpg""]","",""
"","2458","similarity","116","545898","0.0-6.0-110.0","5","[""img/0866/f756f7d1-9ad8-4a34-9ef6-7a443d705bfe.jpg"",""img/0894/3664e04c-c6d3-4c9b-afb6-25d89974b174.jpg""]","",""
"","2793","similarity","117","549700","0.0-6.0-111.0","2","[""img/0899/a05bea16-2bb4-4cb9-b8fb-4ff975db6971.jpg"",""img/0903/47e39de8-6959-469f-8be9-6999a6db207c.jpg""]","",""
"","2263","similarity","118","552968","0.0-6.0-112.0","3","[""img/0902/af40b98b-3d23-4d95-b401-49ba5783ce39.jpg"",""img/0904/fe746a3f-8458-48d0-8a13-8cba2a9df9f8.jpg""]","",""
"","3347","similarity","119","557320","0.0-6.0-113.0","2","[""img/0864/afcba0a3-7e27-4757-b254-e9f05fad27e2.jpg"",""img/0860/8a92e21b-6a32-4e4a-a445-2d5a487ed0a4.jpg""]","",""
"","4090","similarity","120","562417","0.0-6.0-114.0","3","[""img/0860/c3379ff7-0763-48fe-a1ec-7ea3d611bc7a.jpg"",""img/0899/93494f3b-d539-4075-b027-d82e344563da.jpg""]","",""
"","4746","similarity","121","568170","0.0-6.0-115.0","1","[""img/0881/344de456-b358-4887-bd0e-e4c3278af887.jpg"",""img/0903/005ad0de-4f52-433c-b515-dbe8d46184a3.jpg""]","",""
"","3019","similarity","122","572196","0.0-6.0-116.0","1","[""img/0894/8cadb87a-7001-4e47-99fb-1867bebf1668.jpg"",""img/0874/ca76a855-4e77-4f2f-872a-0a718153e7ed.jpg""]","",""
"","3078","similarity","123","576278","0.0-6.0-117.0","6","[""img/0881/dea58fad-b4f1-41d9-bd3f-916eff19a3fd.jpg"",""img/0862/fb26cb07-d5a9-4653-813c-f41609f26cd5.jpg""]","",""
"","3735","similarity","124","581017","0.0-6.0-118.0","6","[""img/0868/e0aff734-077f-40dd-9781-74821abd3621.jpg"",""img/0875/3ecb367d-e9eb-4826-8aaa-7aa72fb98019.jpg""]","",""
"","3634","similarity","125","585663","0.0-6.0-119.0","3","[""img/0860/18dfed73-e36b-4487-a8bd-0b8cff8e3668.jpg"",""img/0758/dd559618-7f09-4a07-8018-d311c4a5ea29.jpg""]","",""
"","2997","similarity","126","589669","0.0-6.0-120.0","2","[""img/0864/8ddd2e30-a1d0-479f-9cbe-591213023893.jpg"",""img/0875/f87b67d7-c33e-40d1-b281-248c4be1cb6e.jpg""]","",""
"","2781","similarity","127","593456","0.0-6.0-121.0","1","[""img/0898/26c41340-15bd-4ead-8fe4-c0d0ddca09c2.jpg"",""img/0866/6f2a90d7-14f1-4f1b-bd64-fc0af6b9fe44.jpg""]","",""
"","3641","similarity","128","598105","0.0-6.0-122.0","6","[""img/0874/a3bc679d-619f-4db6-bb68-116dcb757d9c.jpg"",""img/0904/63dd06dd-dccb-47ba-9740-eb33239e18a7.jpg""]","",""
"","2597","similarity","129","601707","0.0-6.0-123.0","2","[""img/0904/b5855d6a-7ef9-46ca-9215-6e9fa046e543.jpg"",""img/0864/e8bd659f-aa43-4748-877e-3118e8b4e189.jpg""]","",""
"","4195","similarity","130","606910","0.0-6.0-124.0","7","[""img/0894/1b3888e6-cf36-4c4a-a039-187aa5cb71ac.jpg"",""img/0902/8065aa6b-4aef-4368-afa2-02c6465ca582.jpg""]","",""
"","2879","similarity","131","718850","0.0-6.0-125.0","3","[""img/0868/8b0b8473-e2c0-4331-aa56-c3a5c29369da.jpg"",""img/0864/f92649a2-0590-4d31-9a7a-1bfb81666a2d.jpg""]","",""
"","4036","similarity","132","723897","0.0-6.0-126.0","1","[""img/0899/b45c550b-96c3-4255-ad59-48a2b4db1c1e.jpg"",""img/0866/4a87911a-d5be-4d4e-ab8e-3d1f581bf507.jpg""]","",""
"","3762","similarity","133","728665","0.0-6.0-127.0","3","[""img/0875/5a7c4e35-6514-4e12-8879-d16071da4cd6.jpg"",""img/0904/4b8daf2a-13a9-4ea9-9e0b-b265b6e933e7.jpg""]","",""
"","3647","similarity","134","733319","0.0-6.0-128.0","5","[""img/0867/de92135f-5b65-4ed9-b245-188292c7c2f8.jpg"",""img/0899/8abe6c69-822c-436c-9bf2-96c818b49ba5.jpg""]","",""
"","4507","similarity","135","738834","0.0-6.0-129.0","5","[""img/0901/4ca4f962-40c0-4c59-b14a-3cd7b8c9029b.jpg"",""img/0867/6e19c858-b606-45b2-a4c6-910a73f1d82c.jpg""]","",""
"","3857","similarity","136","743696","0.0-6.0-130.0","7","[""img/0864/e336a4c5-6648-4fd7-b2f6-93a3fb83f8c6.jpg"",""img/0769/aad494cc-674d-4a08-9bfa-24a88ebe3c79.jpg""]","",""
"","3412","similarity","137","748114","0.0-6.0-131.0","1","[""img/0903/c708d08f-a108-4e04-8288-c3fcf6375db4.jpg"",""img/0868/5fa7f9d0-f0e5-454c-8224-74d964818f56.jpg""]","",""
"","4730","similarity","138","753852","0.0-6.0-132.0","3","[""img/0864/49150900-7f25-4ce8-8d10-9b47a71d1997.jpg"",""img/0867/f26f6b60-f772-4f4c-95a4-addc62cfd692.jpg""]","",""
"","3030","similarity","139","757887","0.0-6.0-133.0","7","[""img/0901/0adb3bd6-d758-4ba7-9723-3ad6cac05bd5.jpg"",""img/0860/94ef7afc-e0e6-4a15-98c6-0bfac82bc832.jpg""]","",""
"","2771","similarity","140","761663","0.0-6.0-134.0","7","[""img/0881/19e82c47-8e4b-45d2-a6c8-74181eb4155e.jpg"",""img/0766/f5f78e4e-d88f-4866-951a-118ba9fec4d0.jpg""]","",""
"","5021","similarity","141","767692","0.0-6.0-135.0","6","[""img/0903/70d764d9-1f35-4da7-a35d-4cc39834d270.jpg"",""img/0864/b3c4e378-28f0-4699-9338-2a257b4bca04.jpg""]","",""
"","2474","similarity","142","771171","0.0-6.0-136.0","5","[""img/0758/7ffbc76b-1fc1-432c-8f7e-9ec8d1b3f643.jpg"",""img/0894/492d2f29-d7b9-4422-8be8-47fd58bfaa8b.jpg""]","",""
"","3578","similarity","143","775757","0.0-6.0-137.0","3","[""img/0769/688d0c52-ad73-4065-a5eb-f8c10d076bff.jpg"",""img/0860/c7047cd2-7cc1-41b6-8a34-c0986774975f.jpg""]","",""
"","9569","similarity","144","786335","0.0-6.0-138.0","4","[""img/0904/1d10df11-b5c8-4370-9a6b-097a7f965895.jpg"",""img/0766/09f646c8-a69e-4ed3-879c-8d29b04ad7f9.jpg""]","",""
"","2222","similarity","145","789563","0.0-6.0-139.0","5","[""img/0868/83b4350a-3b70-4cea-b7f5-b5b56f3050a8.jpg"",""img/0860/5bff793e-cbd5-4d7e-b628-0ac2b0e30b64.jpg""]","",""
"","3092","similarity","146","793661","0.0-6.0-140.0","5","[""img/0758/821c68d3-5cb0-4eae-8659-30e6263fca39.jpg"",""img/0864/9b2490c5-a282-400a-9736-e1a0ecbf1cb7.jpg""]","",""
"","2836","similarity","147","797504","0.0-6.0-141.0","7","[""img/0867/db7e032f-162b-46f5-ae67-2b29679adee4.jpg"",""img/0867/c66898ba-b71b-4d50-84f9-f7f84853a98d.jpg""]","",""
"","2569","similarity","148","801083","0.0-6.0-142.0","7","[""img/0898/68476bbb-34a1-42d9-8bc1-deab783d4489.jpg"",""img/0898/5f699581-3853-4547-856c-12f419ba5af7.jpg""]","",""
"","2244","similarity","149","804333","0.0-6.0-143.0","2","[""img/0866/a04d37f0-99dd-478a-b6c6-58b215138f84.jpg"",""img/0769/11518cb3-13ea-4dd0-890c-30cfab728ade.jpg""]","",""
"","2767","similarity","150","808106","0.0-6.0-144.0","1","[""img/0860/d9a0d117-6d1d-41c0-8fec-9aff0fd9e9f2.jpg"",""img/0898/6cd3830b-d44e-4915-be2b-88d31424b91c.jpg""]","",""
"","3880","similarity","151","812992","0.0-6.0-145.0","3","[""img/0766/fd74fdbb-ea40-4f3a-a091-38d08dfd636e.jpg"",""img/0864/1ebbc554-99fa-49f9-8799-317375a79820.jpg""]","",""
"","2769","similarity","152","816767","0.0-6.0-146.0","1","[""img/0860/9593362c-9fe5-4d12-9735-6000a11f6aa5.jpg"",""img/0903/6b5dcc60-3ad3-4962-93e5-e6cf768477af.jpg""]","",""
"","2355","similarity","153","820132","0.0-6.0-147.0","5","[""img/0867/bf560d4f-dee3-4f11-a385-705cc1aa5f3c.jpg"",""img/0764/d7c215ab-ea9a-45be-8d5f-417d5b9a8a17.jpg""]","",""
"","2864","similarity","154","824001","0.0-6.0-148.0","6","[""img/0769/48a1144d-fbda-4809-991b-fc8424a32ee4.jpg"",""img/0904/2f88ce53-02d0-4f95-a082-182c56a0eeb4.jpg""]","",""
"","3233","similarity","155","828241","0.0-6.0-149.0","2","[""img/0764/5c8fbafc-e62e-43ed-9b37-f73e8e45147d.jpg"",""img/0901/148b747a-7392-437e-8823-33053c5dff3f.jpg""]","",""
"","4142","similarity","156","833388","0.0-6.0-150.0","2","[""img/0904/0d25eb24-bb20-4e8d-9787-8b489558b4cb.jpg"",""img/0899/0433d056-aa30-4f8a-9aa1-abbb951e4edd.jpg""]","",""
"","3557","similarity","157","837950","0.0-6.0-151.0","2","[""img/0862/92fcd8a4-8193-4a6a-ae09-dd4a6338b0df.jpg"",""img/0867/26611f4e-d694-4460-b7e2-43c62753ddc3.jpg""]","",""
"","2881","similarity","158","841836","0.0-6.0-152.0","7","[""img/0766/1bc0dccc-a5b5-4375-87fa-28360ca42b12.jpg"",""img/0766/d8221e53-2300-4d99-ae1b-0bfb0eabe579.jpg""]","",""
"","2564","similarity","159","845408","0.0-6.0-153.0","3","[""img/0862/7918ca67-5bd3-4606-a5ea-c39fb11a9297.jpg"",""img/0894/3adef67d-7676-4995-80b2-bb31b8aca3ef.jpg""]","",""
"","1300","similarity","160","847715","0.0-6.0-154.0","4","[""img/0899/f58b8d2f-b19d-4b59-8b94-8834be92e4ba.jpg"",""img/0901/4d1bed7e-3c4e-4f6c-ada9-4beb66ba9e39.jpg""]","",""
"","4564","similarity","161","853283","0.0-6.0-155.0","1","[""img/0874/85eb9b8a-c4c6-4e5a-b8e7-363a87a82054.jpg"",""img/0874/3f471690-9788-4d03-90c7-f615aecef149.jpg""]","",""
"","2869","similarity","162","857158","0.0-6.0-156.0","4","[""img/0860/8277806e-b684-4474-8f7b-3fca946d7d4f.jpg"",""img/0867/aa05d113-fc19-4756-a8eb-7878f580bc92.jpg""]","",""
"","1504","similarity","163","859670","0.0-6.0-157.0","4","[""img/0901/a9b9c0a0-8aed-4888-a78a-65fb7e764d13.jpg"",""img/0881/33d65d80-8a8e-4ecf-852d-0ad7725c17a2.jpg""]","",""
"","2373","similarity","164","863052","0.0-6.0-158.0","7","[""img/0903/5248eedd-7e6a-4d39-91b0-06ec227f3ed0.jpg"",""img/0902/3b243e54-0803-4c29-af42-4037c2118495.jpg""]","",""
"","3144","similarity","165","867208","0.0-6.0-159.0","3","[""img/0860/17b44a7d-c5ca-479f-9e87-f65a64f5c80e.jpg"",""img/0764/c01e2d65-6586-441b-bef5-3c96fcd85380.jpg""]","",""
"","3055","similarity","166","871267","0.0-6.0-160.0","6","[""img/0902/cdec1bc6-7f90-4f72-9e01-f5a4111bac1d.jpg"",""img/0875/a4935837-7d3c-4df6-88c1-36a94d4991ca.jpg""]","",""
"","2823","similarity","167","875102","0.0-6.0-161.0","5","[""img/0898/0c7dde4f-efce-4b7a-9387-6921635b7890.jpg"",""img/0862/cdaed51d-9e2f-4807-801a-4663c40077e2.jpg""]","",""
"","2807","similarity","168","878917","0.0-6.0-162.0","3","[""img/0894/0130a973-d993-41f8-874a-fee23d9ac11f.jpg"",""img/0875/fb732ab5-013a-4366-9f65-27811ed157e9.jpg""]","",""
"","2639","similarity","169","882564","0.0-6.0-163.0","2","[""img/0866/d493a2c8-66eb-44b4-be02-2f327b700b7c.jpg"",""img/0864/0f537697-a314-47c3-a8cc-8df23b7e536c.jpg""]","",""
"","4557","similarity","170","888128","0.0-6.0-164.0","1","[""img/0766/d919cedb-f9b7-4f30-83bb-3e9c65001ceb.jpg"",""img/0862/99a99e39-8355-44ec-b993-e7bcec111e1c.jpg""]","",""
"","2954","similarity","171","892087","0.0-6.0-165.0","1","[""img/0866/02f5e6b9-52b7-448c-9708-5b460d0c9a23.jpg"",""img/0874/1016b306-087c-4afc-aa08-fa527b28dc76.jpg""]","",""
"","3303","similarity","172","896396","0.0-6.0-166.0","5","[""img/0862/fad1d7c1-8187-43c3-942a-0fc12183e48e.jpg"",""img/0860/c5ccd1a4-4bb7-48e1-9b25-72cfaf06909b.jpg""]","",""
"","3705","similarity","173","905452","0.0-6.0-167.0","1","[""img/0766/006035d8-c736-4daf-bbe4-a9e373af9da6.jpg"",""img/0901/62315ff5-ed95-46b4-b099-92552079659b.jpg""]","",""
"","2742","similarity","174","909199","0.0-6.0-168.0","7","[""img/0862/e697469a-ec19-4414-b972-7b9f3564785b.jpg"",""img/0862/1c20f772-3a51-4a80-aac0-f57dc9f86c28.jpg""]","",""
"","3608","similarity","175","913817","0.0-6.0-169.0","5","[""img/0894/1a010553-d598-4b06-a772-81f1e7b3addb.jpg"",""img/0764/8389e74f-e0e0-435d-945f-da1f4c92ccb6.jpg""]","",""
"","6751","similarity","176","921575","0.0-6.0-170.0","4","[""img/0874/adf9a8f1-c40b-402b-b95b-1e85a54a7b62.jpg"",""img/0898/04e39a7a-fcf6-4156-ab0e-f5871f335e1c.jpg""]","",""
"","2891","similarity","177","925471","0.0-6.0-171.0","2","[""img/0860/f44ba3fb-03a2-42f0-8509-2c1ded493086.jpg"",""img/0766/6d32752d-aa05-40dc-9541-640b6e9d6fa1.jpg""]","",""
"","2883","similarity","178","929362","0.0-6.0-172.0","6","[""img/0898/f3a3f225-1248-4ac7-b93b-f0ff28485bf3.jpg"",""img/0864/a248adb3-c70b-4652-b7a3-776d2a1e904b.jpg""]","",""
"","2496","similarity","179","932865","0.0-6.0-173.0","6","[""img/0881/445edb15-bd7f-4af3-8bd5-c6ad9677bb31.jpg"",""img/0764/ef0e64c6-d0dd-4dc6-87b6-ce5c0665f421.jpg""]","",""
"","2388","similarity","180","936257","0.0-6.0-174.0","3","[""img/0898/661621d4-a14e-487c-8c74-354134a29710.jpg"",""img/0868/7b212364-ff5f-4e28-9241-7eb6ea00161b.jpg""]","",""
"","3520","similarity","181","940782","0.0-6.0-175.0","6","[""img/0864/ea327690-500b-4137-bf91-451b309fe6a5.jpg"",""img/0864/0116ca98-293d-4fa6-a93b-5a6144ef64cc.jpg""]","",""
"","2891","similarity","182","944680","0.0-6.0-176.0","7","[""img/0899/00715b3f-851b-420b-a26b-d7f79f7759a9.jpg"",""img/0862/f23038d4-c366-4f70-979f-66b62362efa4.jpg""]","",""
"","2763","similarity","183","948449","0.0-6.0-177.0","3","[""img/0875/2c361b79-c3d1-4eda-812e-bf03192407bf.jpg"",""img/0758/6e95579b-5166-487c-b8cb-e417c6a218e3.jpg""]","",""
"","3704","similarity","184","953160","0.0-6.0-178.0","2","[""img/0866/c446214b-a368-4c65-ae39-ea46894256ab.jpg"",""img/0901/deff6cfb-0072-4490-bc3e-206bbcd3e8bf.jpg""]","",""
"","929","similarity","185","955097","0.0-6.0-179.0","4","[""img/0769/f6396414-6788-4d59-9683-de153298d89c.jpg"",""img/0874/7e4f2150-3b59-4a36-b5da-a4e0ba410531.jpg""]","",""
"","2488","similarity","186","958590","0.0-6.0-180.0","3","[""img/0875/42910c99-5463-450a-a0f8-d4d060a11455.jpg"",""img/0881/f4e3e181-b3c9-4af2-a5a4-fc135ab70d2e.jpg""]","",""
"","2421","similarity","187","962020","0.0-6.0-181.0","7","[""img/0866/620cd1aa-0800-4414-8f6e-90342e7a99ad.jpg"",""img/0868/3a62db2d-97e9-44a3-b8e3-a48c6f0e423b.jpg""]","",""
"","3940","similarity","188","966966","0.0-6.0-182.0","1","[""img/0899/4408c14d-c168-4a7d-96f6-bc87bfb58f83.jpg"",""img/0758/7fba58df-2a7a-4b76-8a8f-62739f97f271.jpg""]","",""
"","3563","similarity","189","971535","0.0-6.0-183.0","1","[""img/0874/99f6563c-8a8d-4c1c-a41d-667b618c3fd5.jpg"",""img/0875/dbdd643e-6d0e-4a5c-ab57-b9c29b9c981a.jpg""]","",""
"","2597","similarity","190","975140","0.0-6.0-184.0","6","[""img/0904/b7c2a2c8-df33-4473-b3d4-ff7147c60db3.jpg"",""img/0862/4f0a3b4c-afbf-486e-b248-1d54982f54b4.jpg""]","",""
"","2096","similarity","191","978242","0.0-6.0-185.0","7","[""img/0902/9f543501-3cf1-45a7-a2f1-eeca87cc15b9.jpg"",""img/0766/69e486f7-dbef-456b-9d48-53d814248a28.jpg""]","",""
"","3059","similarity","192","982309","0.0-6.0-186.0","6","[""img/0758/7ee8bc8f-c40b-4b3a-84ec-3e83580622d4.jpg"",""img/0769/38a88f69-28fd-4bbd-99f0-f4c02bfd3995.jpg""]","",""
"","2282","similarity","193","985598","0.0-6.0-187.0","7","[""img/0881/48ed65a5-471f-41af-86ec-3793805c116d.jpg"",""img/0881/566f45f8-5fed-4479-a60f-26377e60a62d.jpg""]","",""
"","3042","similarity","194","989647","0.0-6.0-188.0","3","[""img/0758/d540bee6-b460-4c32-ac57-bc282742d7d4.jpg"",""img/0866/11a1d141-be5e-443c-98c1-a9d4d9e3dec0.jpg""]","",""
"","859","similarity","195","991512","0.0-6.0-189.0","4","[""img/0764/5d6fa3ce-9083-410c-bbdb-336a49b94cfc.jpg"",""img/0898/01bfe666-3510-4fc7-964f-d00d28732dc8.jpg""]","",""
"","3621","similarity","196","996143","0.0-6.0-190.0","2","[""img/0903/b548d383-2a95-4575-8c13-647873751ff1.jpg"",""img/0901/31c032fd-3c3d-4882-a226-da9a80198937.jpg""]","",""
"","1987","similarity","197","999134","0.0-6.0-191.0","6","[""img/0902/5b45a7a0-81c8-4a71-aaa2-2ce09adb5a29.jpg"",""img/0898/b3290bf9-215b-4b45-b21a-65bdf73f142f.jpg""]","",""
"","1510","similarity","198","1001651","0.0-6.0-192.0","4","[""img/0864/1d15626a-2f7c-410f-819c-0fa2c967e95e.jpg"",""img/0901/c6c877e0-dd63-4e00-9657-33af29d55aab.jpg""]","",""
"","2189","similarity","199","1004847","0.0-6.0-193.0","3","[""img/0894/6b2e9509-8699-42b7-9582-7741df0ba2d7.jpg"",""img/0881/405484ae-0d00-4b05-bc57-6420a36adfac.jpg""]","",""
"","3296","similarity","200","1009150","0.0-6.0-194.0","5","[""img/0868/09a9ef4d-d000-4cfa-a6aa-ebec7c2edeb4.jpg"",""img/0868/4e626425-63c8-484a-8a1d-e66ee4e0bef8.jpg""]","",""
"","3465","similarity","201","1013623","0.0-6.0-195.0","6","[""img/0899/5b56dd3e-3f49-47cc-af84-16da6457753b.jpg"",""img/0764/974d52cc-6318-4e7a-b294-2f3e92ff800f.jpg""]","",""
"","2909","similarity","202","1017539","0.0-6.0-196.0","4","[""img/0881/633c6f40-56d9-4b48-bf1c-ecd83116eabb.jpg"",""img/0904/96e503ea-6630-4996-85f2-0237688ce441.jpg""]","",""
"","2358","similarity","203","1020904","0.0-6.0-197.0","7","[""img/0864/e02eddb5-f468-499c-91bf-f7be3ffe979b.jpg"",""img/0902/bd89a85f-3853-4786-acd6-98818ee29f1c.jpg""]","",""
"","1938","similarity","204","1023850","0.0-6.0-198.0","4","[""img/0894/10f22b96-040c-44f4-950b-a4963f3f506c.jpg"",""img/0904/4d7d70a3-9477-4921-bda0-f9531d0a5c5b.jpg""]","",""
"","2758","similarity","205","1027615","0.0-6.0-199.0","7","[""img/0901/c6df1a21-44ed-47c2-960e-7c52220e329e.jpg"",""img/0901/a6c90438-fa7c-4418-ac7c-16c2e772dd98.jpg""]","",""
"","2247","similarity","206","1030869","0.0-6.0-200.0","1","[""img/0894/767a0eec-1064-46b1-b1aa-dfa02b0cd74e.jpg"",""img/0860/524b2e98-5767-4d53-942c-ebae6925659b.jpg""]","",""
"","972","similarity","207","1032846","0.0-6.0-201.0","4","[""img/0898/8605a25b-6895-476d-8c13-df7a83f96093.jpg"",""img/0903/f1fa0f8d-e62b-4b4a-a174-31a0fabfe61b.jpg""]","",""
"","3326","similarity","208","1037179","0.0-6.0-202.0","1","[""img/0864/87c467d3-abca-482f-ad80-3766c21b1bb3.jpg"",""img/0894/b422d5c6-3c5a-49ae-a53e-7e88ac993f49.jpg""]","",""
"","4326","similarity","209","1042513","0.0-6.0-203.0","1","[""img/0874/29830da7-be5f-44e5-b141-652a0ccf7269.jpg"",""img/0860/4a022222-056d-461c-ab02-39fac9647552.jpg""]","",""
"","1120","similarity","210","1044638","0.0-6.0-204.0","4","[""img/0862/e8cc3bdf-cc43-4565-bccf-492626c70953.jpg"",""img/0875/99698b4d-b4a1-44bc-8c83-8ea755bbbf61.jpg""]","",""
"","3033","similarity","211","1048676","0.0-6.0-205.0","2","[""img/0867/5e07b34d-b40f-4b1c-ac10-49975bace45f.jpg"",""img/0881/14236cf2-6b95-48b8-9368-78af09d2d27f.jpg""]","",""
"","970","similarity","212","1050653","0.0-6.0-206.0","4","[""img/0901/bc47e078-bda4-40ed-b89a-bbd819164b95.jpg"",""img/0902/6730b12a-f0a7-4587-8c10-a32fae16565b.jpg""]","",""
"","3275","similarity","213","1054935","0.0-6.0-207.0","6","[""img/0899/4f7bc593-8ddd-4da3-a0b9-84da730d3370.jpg"",""img/0864/66091c27-e588-4476-8af9-265dc6be4156.jpg""]","",""
"","4133","similarity","214","1060075","0.0-6.0-208.0","3","[""img/0901/1e23ffbd-19de-4c4f-aa23-c54aaa3319a3.jpg"",""img/0769/35f2dd39-40aa-498e-b401-9f1ef2622d00.jpg""]","",""
"","1432","similarity","215","1066008","0.0-6.0-209.0","4","[""img/0902/cf9dee9c-2bdf-4d64-9302-97f1660fe52c.jpg"",""img/0902/12452bb1-b8c0-4e4d-ad4d-47e279e5933c.jpg""]","",""
"[{""page_index"":0,""viewing_time"":3139}]","3139","instructions","216","1070150","0.0-7.0","","","",""
"","10116","image-multi-choice","217","1081288","0.0-8.0-0.0","","","{""Q0"":""Swamp Sparrow""}","Nashville Warbler"
"","3707","image-multi-choice","218","1086012","0.0-8.0-1.0","","","{""Q0"":""Black-and-white Warbler""}","Black-and-white Warbler"
"","4381","image-multi-choice","219","1091405","0.0-8.0-2.0","","","{""Q0"":""Lincoln's Sparrow""}","Townsend's Warbler"
"","3126","image-multi-choice","220","1095543","0.0-8.0-3.0","","","{""Q0"":""White-crowned Sparrow""}","Lark Sparrow"
"","2171","image-multi-choice","221","1098725","0.0-8.0-4.0","","","{""Q0"":""Orange-crowned Warbler""}","Yellow Warbler"
"","1863","image-multi-choice","222","1101610","0.0-8.0-5.0","","","{""Q0"":""American Tree Sparrow""}","Orange-crowned Warbler"
"","1820","image-multi-choice","223","1104453","0.0-8.0-6.0","","","{""Q0"":""Tennessee Warbler""}","White-throated Sparrow"
"","2636","image-multi-choice","224","1108102","0.0-8.0-7.0","","","{""Q0"":""Vesper Sparrow""}","Fox Sparrow"
"","3614","image-multi-choice","225","1112727","0.0-8.0-8.0","","","{""Q0"":""Fox Sparrow""}","Song Sparrow"
"","2893","image-multi-choice","226","1116633","0.0-8.0-9.0","","","{""Q0"":""Chipping Sparrow""}","Blackburnian Warbler"
"","4658","image-multi-choice","227","1122305","0.0-8.0-10.0","","","{""Q0"":""White-throated Sparrow""}","Vesper Sparrow"
"","3743","image-multi-choice","228","1127062","0.0-8.0-11.0","","","{""Q0"":""Magnolia Warbler""}","White-crowned Sparrow"
"","2879","image-multi-choice","229","1130955","0.0-8.0-12.0","","","{""Q0"":""Blackburnian Warbler""}","American Tree Sparrow"
"","2759","image-multi-choice","230","1134730","0.0-8.0-13.0","","","{""Q0"":""Yellow Warbler""}","Tennessee Warbler"
"","2086","image-multi-choice","231","1137829","0.0-8.0-14.0","","","{""Q0"":""Vesper Sparrow""}","Magnolia Warbler"
"","5046","image-multi-choice","232","1143891","0.0-8.0-15.0","","","{""Q0"":""Song Sparrow""}","Northern Waterthrush"
"","2708","image-multi-choice","233","1147613","0.0-8.0-16.0","","","{""Q0"":""Lark Sparrow""}","Chipping Sparrow"
"","7103","image-multi-choice","234","1155729","0.0-8.0-17.0","","","{""Q0"":""Nashville Warbler""}","Swamp Sparrow"
"","3281","image-multi-choice","235","1160022","0.0-8.0-18.0","","","{""Q0"":""Swamp Sparrow""}","Lincoln's Sparrow"
"","2253","image-multi-choice","236","1163290","0.0-8.0-19.0","","","{""Q0"":""Vesper Sparrow""}","Ovenbird"
