[{"view_history":"[{\"page_index\":0,\"viewing_time\":19289}]","rt":19289,"trial_type":"instructions","trial_index":0,"time_elapsed":19295,"internal_node_id":"0.0-0.0"},{"sim_score":5,"rt":32391,"stimulus":"[\"img/866.jpg\",\"img/868.jpg\"]","trial_type":"similarity_demo","trial_index":1,"time_elapsed":52706,"internal_node_id":"0.0-1.0"},{"view_history":"[{\"page_index\":0,\"viewing_time\":65960}]","rt":65961,"trial_type":"instructions","trial_index":2,"time_elapsed":119670,"internal_node_id":"0.0-2.0"},{"sim_score":3,"rt":5039,"stimulus":"[\"img/766.jpg\",\"img/867.jpg\"]","trial_type":"similarity_demo","trial_index":3,"time_elapsed":125718,"internal_node_id":"0.0-3.0"},{"view_history":"[{\"page_index\":0,\"viewing_time\":9540}]","rt":9540,"trial_type":"instructions","trial_index":4,"time_elapsed":136260,"internal_node_id":"0.0-4.0"},{"view_history":"[{\"page_index\":0,\"viewing_time\":23626}]","rt":23631,"trial_type":"instructions","trial_index":5,"time_elapsed":160893,"internal_node_id":"0.0-5.0"},{"sim_score":4,"rt":11089,"stimulus":"[\"img/0868/7b212364-ff5f-4e28-9241-7eb6ea00161b.jpg\",\"img/0901/58978a6d-a3e2-4c59-8d62-f60693ecc0f6.jpg\"]","trial_type":"similarity","trial_index":6,"time_elapsed":172989,"internal_node_id":"0.0-6.0-0.0"},{"sim_score":4,"rt":4711,"stimulus":"[\"img/0769/96556ef3-7fac-4c9d-8281-1cb0ea5081bc.jpg\",\"img/0867/8ba0c5a7-c7e4-42cf-a80a-543763b90779.jpg\"]","trial_type":"similarity","trial_index":7,"time_elapsed":178710,"internal_node_id":"0.0-6.0-1.0"},{"sim_score":4,"rt":3947,"stimulus":"[\"img/0766/5d1b8041-c5a1-4b02-b4fe-3453d98a0d72.jpg\",\"img/0898/993d8f2d-bef7-4251-a193-0f93a32b7763.jpg\"]","trial_type":"similarity","trial_index":8,"time_elapsed":183680,"internal_node_id":"0.0-6.0-2.0"},{"sim_score":3,"rt":3927,"stimulus":"[\"img/0902/0c760cc9-10ac-429e-8957-a7d51fc99683.jpg\",\"img/0881/609a5e93-38b5-4940-8627-2bf8fad7f802.jpg\"]","trial_type":"similarity","trial_index":9,"time_elapsed":188613,"internal_node_id":"0.0-6.0-3.0"},{"sim_score":7,"rt":4294,"stimulus":"[\"img/0894/76c1201f-8524-4865-85e6-dda8cb4ac986.jpg\",\"img/0894/bd34223a-2f66-4e16-9d18-193a746b69ff.jpg\"]","trial_type":"similarity","trial_index":10,"time_elapsed":193920,"internal_node_id":"0.0-6.0-4.0"},{"sim_score":5,"rt":4337,"stimulus":"[\"img/0874/99f6563c-8a8d-4c1c-a41d-667b618c3fd5.jpg\",\"img/0899/0adc0bc3-6fca-4078-be6f-d45ddf1653d5.jpg\"]","trial_type":"similarity","trial_index":11,"time_elapsed":199260,"internal_node_id":"0.0-6.0-5.0"},{"sim_score":5,"rt":4091,"stimulus":"[\"img/0904/1d10df11-b5c8-4370-9a6b-097a7f965895.jpg\",\"img/0764/958b8576-3a3b-4acc-96dc-06b74de69f37.jpg\"]","trial_type":"similarity","trial_index":12,"time_elapsed":204357,"internal_node_id":"0.0-6.0-6.0"},{"sim_score":4,"rt":4068,"stimulus":"[\"img/0899/4408c14d-c168-4a7d-96f6-bc87bfb58f83.jpg\",\"img/0898/cd3aaa3f-efa9-4ab3-8d6f-a6a9273ddf42.jpg\"]","trial_type":"similarity","trial_index":13,"time_elapsed":209430,"internal_node_id":"0.0-6.0-7.0"},{"sim_score":2,"rt":6022,"stimulus":"[\"img/0874/3ce41e7c-40c8-4d58-a546-171114521796.jpg\",\"img/0903/e2e55a9e-0397-4dc0-8adf-4a54cfefe1fe.jpg\"]","trial_type":"similarity","trial_index":14,"time_elapsed":216460,"internal_node_id":"0.0-6.0-8.0"},{"sim_score":7,"rt":5448,"stimulus":"[\"img/0881/f62bdcd1-a4b7-4d48-83da-d9c9e01c8727.jpg\",\"img/0758/b76ceca7-95ac-46e4-ac13-da02c8e93be9.jpg\"]","trial_type":"similarity","trial_index":15,"time_elapsed":222920,"internal_node_id":"0.0-6.0-9.0"},{"sim_score":4,"rt":4061,"stimulus":"[\"img/0898/01bfe666-3510-4fc7-964f-d00d28732dc8.jpg\",\"img/0901/fb0a8e69-7f19-4e6e-a6bb-a48f97f9b4f3.jpg\"]","trial_type":"similarity","trial_index":16,"time_elapsed":227989,"internal_node_id":"0.0-6.0-10.0"},{"sim_score":7,"rt":3785,"stimulus":"[\"img/0903/72197c2b-403e-4a26-b391-f1aa8dea4b76.jpg\",\"img/0769/878531fd-e0e8-4ad1-b9ad-f018bb104ca0.jpg\"]","trial_type":"similarity","trial_index":17,"time_elapsed":232781,"internal_node_id":"0.0-6.0-11.0"},{"sim_score":1,"rt":3728,"stimulus":"[\"img/0764/bd2eaa3e-95a9-4a59-a78e-3f81c766eea9.jpg\",\"img/0868/6a28c3b0-3d76-498a-9fb7-ddafc665eca8.jpg\"]","trial_type":"similarity","trial_index":18,"time_elapsed":237518,"internal_node_id":"0.0-6.0-12.0"},{"sim_score":2,"rt":3258,"stimulus":"[\"img/0867/c71dc569-f49c-4397-8381-68b8d726736d.jpg\",\"img/0903/b548d383-2a95-4575-8c13-647873751ff1.jpg\"]","trial_type":"similarity","trial_index":19,"time_elapsed":241781,"internal_node_id":"0.0-6.0-13.0"},{"sim_score":2,"rt":3620,"stimulus":"[\"img/0766/60033a74-9919-47e5-913c-71d0d483e7e5.jpg\",\"img/0758/d41c06bf-ebaf-454b-91c6-1a17f917b659.jpg\"]","trial_type":"similarity","trial_index":20,"time_elapsed":246415,"internal_node_id":"0.0-6.0-14.0"},{"sim_score":6,"rt":4041,"stimulus":"[\"img/0902/40d0b6ec-3907-4573-b227-e7d8e9cad1c3.jpg\",\"img/0860/c47fdead-eb02-4989-b078-26f4852f44fe.jpg\"]","trial_type":"similarity","trial_index":21,"time_elapsed":251465,"internal_node_id":"0.0-6.0-15.0"},{"sim_score":5,"rt":5842,"stimulus":"[\"img/0769/e8ed913b-8a88-44f6-9327-d34afec3116b.jpg\",\"img/0875/5a1e5100-0d94-4fec-bbe9-ca9894d2cf8e.jpg\"]","trial_type":"similarity","trial_index":22,"time_elapsed":258313,"internal_node_id":"0.0-6.0-16.0"},{"sim_score":2,"rt":4935,"stimulus":"[\"img/0904/73920552-103b-4c9c-9ece-e0b8376b4504.jpg\",\"img/0866/be24ab58-230e-4db8-9f45-ff04c9aec6bb.jpg\"]","trial_type":"similarity","trial_index":23,"time_elapsed":264253,"internal_node_id":"0.0-6.0-17.0"},{"sim_score":7,"rt":6036,"stimulus":"[\"img/0875/dbdd643e-6d0e-4a5c-ab57-b9c29b9c981a.jpg\",\"img/0875/8521fd58-3b1e-4dc5-97ae-804edfa6734a.jpg\"]","trial_type":"similarity","trial_index":24,"time_elapsed":271297,"internal_node_id":"0.0-6.0-18.0"},{"sim_score":7,"rt":3759,"stimulus":"[\"img/0758/7ee8bc8f-c40b-4b3a-84ec-3e83580622d4.jpg\",\"img/0758/335851a0-a55b-46d8-ab05-8463eda48349.jpg\"]","trial_type":"similarity","trial_index":25,"time_elapsed":276064,"internal_node_id":"0.0-6.0-19.0"},{"sim_score":4,"rt":3585,"stimulus":"[\"img/0902/d5e25767-e8ec-45f3-ac0a-7b4a6f7a9edc.jpg\",\"img/0874/29830da7-be5f-44e5-b141-652a0ccf7269.jpg\"]","trial_type":"similarity","trial_index":26,"time_elapsed":280654,"internal_node_id":"0.0-6.0-20.0"},{"sim_score":6,"rt":3951,"stimulus":"[\"img/0764/974d52cc-6318-4e7a-b294-2f3e92ff800f.jpg\",\"img/0769/387a9744-d6a7-42b8-bab8-33007ec434aa.jpg\"]","trial_type":"similarity","trial_index":27,"time_elapsed":285615,"internal_node_id":"0.0-6.0-21.0"},{"sim_score":3,"rt":3490,"stimulus":"[\"img/0901/f469cb1d-6d81-4a45-bab5-cd0b650c2b4f.jpg\",\"img/0874/bf14b896-e930-4fd9-9c05-2e83317a2773.jpg\"]","trial_type":"similarity","trial_index":28,"time_elapsed":290109,"internal_node_id":"0.0-6.0-22.0"},{"sim_score":5,"rt":4510,"stimulus":"[\"img/0875/f87b67d7-c33e-40d1-b281-248c4be1cb6e.jpg\",\"img/0903/4cbdc464-e562-4ec2-9bb6-15f894fdf528.jpg\"]","trial_type":"similarity","trial_index":29,"time_elapsed":295632,"internal_node_id":"0.0-6.0-23.0"},{"sim_score":4,"rt":2759,"stimulus":"[\"img/0769/458d9c77-b844-40b5-bb1b-1e3bbd4da64e.jpg\",\"img/0881/19e82c47-8e4b-45d2-a6c8-74181eb4155e.jpg\"]","trial_type":"similarity","trial_index":30,"time_elapsed":299400,"internal_node_id":"0.0-6.0-24.0"},{"sim_score":2,"rt":5378,"stimulus":"[\"img/0867/bf560d4f-dee3-4f11-a385-705cc1aa5f3c.jpg\",\"img/0904/65e2b70a-b184-4da3-b5c0-5038bdf9469a.jpg\"]","trial_type":"similarity","trial_index":31,"time_elapsed":305782,"internal_node_id":"0.0-6.0-25.0"},{"sim_score":3,"rt":3730,"stimulus":"[\"img/0860/71e1aad0-2cdf-43bb-94a4-a8c016997c30.jpg\",\"img/0881/566f45f8-5fed-4479-a60f-26377e60a62d.jpg\"]","trial_type":"similarity","trial_index":32,"time_elapsed":310518,"internal_node_id":"0.0-6.0-26.0"},{"sim_score":6,"rt":3480,"stimulus":"[\"img/0866/386235d2-6857-41e7-88a8-25cfc3430025.jpg\",\"img/0866/945c6710-d15b-4a5b-a8f6-69af0850357f.jpg\"]","trial_type":"similarity","trial_index":33,"time_elapsed":315011,"internal_node_id":"0.0-6.0-27.0"},{"sim_score":3,"rt":5150,"stimulus":"[\"img/0764/56441045-b648-4ede-9632-3e9c0227080b.jpg\",\"img/0862/de9ad88c-b522-430a-8ee9-eb06a9f85df5.jpg\"]","trial_type":"similarity","trial_index":34,"time_elapsed":321166,"internal_node_id":"0.0-6.0-28.0"},{"sim_score":2,"rt":4195,"stimulus":"[\"img/0904/5cceabc9-de1d-4c67-989b-c28a4ef77e79.jpg\",\"img/0758/7ffbc76b-1fc1-432c-8f7e-9ec8d1b3f643.jpg\"]","trial_type":"similarity","trial_index":35,"time_elapsed":326366,"internal_node_id":"0.0-6.0-29.0"},{"sim_score":4,"rt":2459,"stimulus":"[\"img/0894/86201968-6e78-4d68-9b3a-d1692e066210.jpg\",\"img/0899/0433d056-aa30-4f8a-9aa1-abbb951e4edd.jpg\"]","trial_type":"similarity","trial_index":36,"time_elapsed":329830,"internal_node_id":"0.0-6.0-30.0"},{"sim_score":5,"rt":3020,"stimulus":"[\"img/0860/87039971-2210-4aab-93c0-8e9b5f1655b2.jpg\",\"img/0904/63dd06dd-dccb-47ba-9740-eb33239e18a7.jpg\"]","trial_type":"similarity","trial_index":37,"time_elapsed":333858,"internal_node_id":"0.0-6.0-31.0"},{"sim_score":5,"rt":5884,"stimulus":"[\"img/0874/ca23d307-fc00-4d7d-9106-584c6eb21b4d.jpg\",\"img/0881/4da99fdd-1f40-4bbb-8e21-8833eef313f5.jpg\"]","trial_type":"similarity","trial_index":38,"time_elapsed":340745,"internal_node_id":"0.0-6.0-32.0"},{"sim_score":5,"rt":4590,"stimulus":"[\"img/0881/344de456-b358-4887-bd0e-e4c3278af887.jpg\",\"img/0899/ddf96ade-692e-4602-bd22-dedbb46401bc.jpg\"]","trial_type":"similarity","trial_index":39,"time_elapsed":346345,"internal_node_id":"0.0-6.0-33.0"},{"sim_score":2,"rt":7454,"stimulus":"[\"img/0866/d493a2c8-66eb-44b4-be02-2f327b700b7c.jpg\",\"img/0862/a0a3a7ba-7798-46a3-b4ca-05e1f6e581d0.jpg\"]","trial_type":"similarity","trial_index":40,"time_elapsed":354809,"internal_node_id":"0.0-6.0-34.0"},{"sim_score":5,"rt":3733,"stimulus":"[\"img/0868/d98ca254-b195-477f-b57e-5760a2717db8.jpg\",\"img/0894/5f15154e-e72e-4ce5-aafb-bce6f0564006.jpg\"]","trial_type":"similarity","trial_index":41,"time_elapsed":359553,"internal_node_id":"0.0-6.0-35.0"},{"sim_score":7,"rt":4229,"stimulus":"[\"img/0860/4f695df5-afac-4da7-9875-fee39b0b24ad.jpg\",\"img/0860/4c530c3c-6aab-492a-94d1-9c01797bde40.jpg\"]","trial_type":"similarity","trial_index":42,"time_elapsed":364786,"internal_node_id":"0.0-6.0-36.0"},{"sim_score":6,"rt":3347,"stimulus":"[\"img/0862/f43ceabf-acc1-4107-b857-5d1849808f93.jpg\",\"img/0864/3d4de670-b290-4285-9c3d-12a0e3af44e9.jpg\"]","trial_type":"similarity","trial_index":43,"time_elapsed":369138,"internal_node_id":"0.0-6.0-37.0"},{"sim_score":2,"rt":4135,"stimulus":"[\"img/0766/2da002a4-05c9-4f5c-9ed7-433b4183e273.jpg\",\"img/0866/d266fece-59b3-46fa-b69f-96f6efb81b59.jpg\"]","trial_type":"similarity","trial_index":44,"time_elapsed":374281,"internal_node_id":"0.0-6.0-38.0"},{"sim_score":5,"rt":4034,"stimulus":"[\"img/0875/2e13d160-eea1-416b-aff1-d37ab99ecc1d.jpg\",\"img/0898/82231d4c-218b-4d0a-b50d-35a49b524e97.jpg\"]","trial_type":"similarity","trial_index":45,"time_elapsed":379325,"internal_node_id":"0.0-6.0-39.0"},{"sim_score":6,"rt":3816,"stimulus":"[\"img/0766/79767d11-b612-4e8a-9e4b-a8ac95bb6a54.jpg\",\"img/0769/8598a429-c671-4d2f-842c-32f681f5e412.jpg\"]","trial_type":"similarity","trial_index":46,"time_elapsed":384146,"internal_node_id":"0.0-6.0-40.0"},{"sim_score":4,"rt":2547,"stimulus":"[\"img/0874/a3bc679d-619f-4db6-bb68-116dcb757d9c.jpg\",\"img/0764/4eff630a-6426-4f8d-b2ba-b4d9842a0962.jpg\"]","trial_type":"similarity","trial_index":47,"time_elapsed":416875,"internal_node_id":"0.0-6.0-41.0"},{"sim_score":1,"rt":3854,"stimulus":"[\"img/0868/1a62b2b2-18f5-466e-b564-5176a57c565e.jpg\",\"img/0902/04a6ad4a-afc6-4871-8225-56b299af7b6b.jpg\"]","trial_type":"similarity","trial_index":48,"time_elapsed":421735,"internal_node_id":"0.0-6.0-42.0"},{"sim_score":1,"rt":5670,"stimulus":"[\"img/0875/ebf7653f-ff45-4e9f-af58-2c042ab3cd2b.jpg\",\"img/0899/d60714ae-98d7-4564-8c98-94dba1351135.jpg\"]","trial_type":"similarity","trial_index":49,"time_elapsed":428413,"internal_node_id":"0.0-6.0-43.0"},{"sim_score":2,"rt":4498,"stimulus":"[\"img/0866/02f5e6b9-52b7-448c-9708-5b460d0c9a23.jpg\",\"img/0860/9593362c-9fe5-4d12-9735-6000a11f6aa5.jpg\"]","trial_type":"similarity","trial_index":50,"time_elapsed":433915,"internal_node_id":"0.0-6.0-44.0"},{"sim_score":2,"rt":3111,"stimulus":"[\"img/0766/6d32752d-aa05-40dc-9541-640b6e9d6fa1.jpg\",\"img/0903/07b445ee-0cdb-4d2c-a23b-d727613f4059.jpg\"]","trial_type":"similarity","trial_index":51,"time_elapsed":438038,"internal_node_id":"0.0-6.0-45.0"},{"sim_score":3,"rt":4000,"stimulus":"[\"img/0901/1b86f2fc-7a1d-4aa8-9252-114f92edef3b.jpg\",\"img/0904/2f88ce53-02d0-4f95-a082-182c56a0eeb4.jpg\"]","trial_type":"similarity","trial_index":52,"time_elapsed":443044,"internal_node_id":"0.0-6.0-46.0"},{"sim_score":3,"rt":4571,"stimulus":"[\"img/0758/a085b443-b5d7-4cb2-9ad4-b9dab0fc23f1.jpg\",\"img/0902/417d8b4a-3c72-4adc-ac78-820e833316f2.jpg\"]","trial_type":"similarity","trial_index":53,"time_elapsed":448619,"internal_node_id":"0.0-6.0-47.0"},{"sim_score":7,"rt":5557,"stimulus":"[\"img/0764/c80b3e06-2ee3-4326-9678-340607eb5348.jpg\",\"img/0764/a3226bc4-dcc3-4608-bde8-1414d685ce5c.jpg\"]","trial_type":"similarity","trial_index":54,"time_elapsed":455179,"internal_node_id":"0.0-6.0-48.0"},{"sim_score":2,"rt":4970,"stimulus":"[\"img/0866/c446214b-a368-4c65-ae39-ea46894256ab.jpg\",\"img/0902/c920f0e1-1c81-480f-a164-c77f2dc6ce9a.jpg\"]","trial_type":"similarity","trial_index":55,"time_elapsed":461154,"internal_node_id":"0.0-6.0-49.0"},{"sim_score":2,"rt":5097,"stimulus":"[\"img/0764/7f4ee8e3-9315-4a57-be7d-db8454b33766.jpg\",\"img/0758/f61ecdf8-a7d4-4db0-b84d-be46f7cfaffc.jpg\"]","trial_type":"similarity","trial_index":56,"time_elapsed":467257,"internal_node_id":"0.0-6.0-50.0"},{"sim_score":5,"rt":3993,"stimulus":"[\"img/0898/5f699581-3853-4547-856c-12f419ba5af7.jpg\",\"img/0894/492d2f29-d7b9-4422-8be8-47fd58bfaa8b.jpg\"]","trial_type":"similarity","trial_index":57,"time_elapsed":472259,"internal_node_id":"0.0-6.0-51.0"},{"sim_score":5,"rt":3341,"stimulus":"[\"img/0875/34132396-d896-4c2d-8087-646dd867e769.jpg\",\"img/0866/9b38d691-1802-4959-ab3f-fc902f0e4ea6.jpg\"]","trial_type":"similarity","trial_index":58,"time_elapsed":476602,"internal_node_id":"0.0-6.0-52.0"},{"sim_score":7,"rt":4469,"stimulus":"[\"img/0904/6291eb43-c10c-4810-a36a-101d09868b04.jpg\",\"img/0904/4e58005d-a2ec-4aaa-b199-445343561396.jpg\"]","trial_type":"similarity","trial_index":59,"time_elapsed":482075,"internal_node_id":"0.0-6.0-53.0"},{"sim_score":6,"rt":4141,"stimulus":"[\"img/0769/04347740-f8f6-48bb-887a-f68babd0a0d4.jpg\",\"img/0769/4680bcc3-8fbc-4643-8f9a-12aa0e780b64.jpg\"]","trial_type":"similarity","trial_index":60,"time_elapsed":487219,"internal_node_id":"0.0-6.0-54.0"},{"sim_score":4,"rt":3021,"stimulus":"[\"img/0898/08c72dac-f8ad-407a-9ce6-8c9a5d679c3a.jpg\",\"img/0758/eabcd7a8-56ad-4fd2-bc24-90f6b7b33265.jpg\"]","trial_type":"similarity","trial_index":61,"time_elapsed":491246,"internal_node_id":"0.0-6.0-55.0"},{"sim_score":5,"rt":2873,"stimulus":"[\"img/0769/38a88f69-28fd-4bbd-99f0-f4c02bfd3995.jpg\",\"img/0902/31abfa33-7cdb-44ad-968e-9f7b324d577a.jpg\"]","trial_type":"similarity","trial_index":62,"time_elapsed":495123,"internal_node_id":"0.0-6.0-56.0"},{"sim_score":6,"rt":4728,"stimulus":"[\"img/0864/c3b63e8f-ea39-4d70-a1f2-b3fe4be8eb75.jpg\",\"img/0881/2a8413be-fec2-4de6-88ad-614dd4cccc9d.jpg\"]","trial_type":"similarity","trial_index":63,"time_elapsed":500863,"internal_node_id":"0.0-6.0-57.0"},{"sim_score":1,"rt":3567,"stimulus":"[\"img/0758/d540bee6-b460-4c32-ac57-bc282742d7d4.jpg\",\"img/0868/c8ac40c7-6904-4e13-8d61-c75d3052dc4e.jpg\"]","trial_type":"similarity","trial_index":64,"time_elapsed":505440,"internal_node_id":"0.0-6.0-58.0"},{"sim_score":3,"rt":5184,"stimulus":"[\"img/0862/847e5208-38ec-4f36-949c-296cdd7424ee.jpg\",\"img/0769/75f7e514-0548-4329-b1e4-93c05e74f038.jpg\"]","trial_type":"similarity","trial_index":65,"time_elapsed":511625,"internal_node_id":"0.0-6.0-59.0"},{"sim_score":5,"rt":4202,"stimulus":"[\"img/0764/0e7ed062-f798-4366-8a24-6f430926f919.jpg\",\"img/0903/ea75f240-fb62-4edb-a709-83e858b202c0.jpg\"]","trial_type":"similarity","trial_index":66,"time_elapsed":516837,"internal_node_id":"0.0-6.0-60.0"},{"sim_score":7,"rt":6124,"stimulus":"[\"img/0899/8abe6c69-822c-436c-9bf2-96c818b49ba5.jpg\",\"img/0899/7f9d45d0-b2c6-40d3-aa41-c207db2c411b.jpg\"]","trial_type":"similarity","trial_index":67,"time_elapsed":523968,"internal_node_id":"0.0-6.0-61.0"},{"sim_score":5,"rt":3753,"stimulus":"[\"img/0860/8277806e-b684-4474-8f7b-3fca946d7d4f.jpg\",\"img/0875/3ecb367d-e9eb-4826-8aaa-7aa72fb98019.jpg\"]","trial_type":"similarity","trial_index":68,"time_elapsed":528723,"internal_node_id":"0.0-6.0-62.0"},{"sim_score":1,"rt":5830,"stimulus":"[\"img/0868/179a5502-ab5c-478e-8263-5a1fbcc101d2.jpg\",\"img/0874/85eb9b8a-c4c6-4e5a-b8e7-363a87a82054.jpg\"]","trial_type":"similarity","trial_index":69,"time_elapsed":535565,"internal_node_id":"0.0-6.0-63.0"},{"sim_score":5,"rt":4616,"stimulus":"[\"img/0758/65d426d6-3ff6-415d-8654-a43b83ecc4fe.jpg\",\"img/0862/ba89835a-408c-480b-8594-ed4ffa97eb5c.jpg\"]","trial_type":"similarity","trial_index":70,"time_elapsed":541185,"internal_node_id":"0.0-6.0-64.0"},{"sim_score":7,"rt":4145,"stimulus":"[\"img/0904/696ebb60-8891-417a-91fd-c53218907a95.jpg\",\"img/0898/a8f16b02-e19f-423b-86c3-a36562ae1f9b.jpg\"]","trial_type":"similarity","trial_index":71,"time_elapsed":546338,"internal_node_id":"0.0-6.0-65.0"},{"sim_score":3,"rt":5533,"stimulus":"[\"img/0881/e6746727-7f89-47ec-b939-d98abe78372d.jpg\",\"img/0866/bf14b5bd-fb55-47db-86b9-4f8aeb9a6dad.jpg\"]","trial_type":"similarity","trial_index":72,"time_elapsed":552876,"internal_node_id":"0.0-6.0-66.0"},{"sim_score":3,"rt":2984,"stimulus":"[\"img/0867/f8488a47-94ee-4166-952c-44e16cf172f6.jpg\",\"img/0898/26c41340-15bd-4ead-8fe4-c0d0ddca09c2.jpg\"]","trial_type":"similarity","trial_index":73,"time_elapsed":556865,"internal_node_id":"0.0-6.0-67.0"},{"sim_score":5,"rt":2893,"stimulus":"[\"img/0902/95a36b6b-9601-4fa5-8fd9-606ea62f9425.jpg\",\"img/0764/cbdc4f20-3a9a-4211-9b40-090699e0abcc.jpg\"]","trial_type":"similarity","trial_index":74,"time_elapsed":560763,"internal_node_id":"0.0-6.0-68.0"},{"sim_score":5,"rt":3594,"stimulus":"[\"img/0875/a4935837-7d3c-4df6-88c1-36a94d4991ca.jpg\",\"img/0867/7d1c497b-c1b3-4ed8-abb5-d7f73306015f.jpg\"]","trial_type":"similarity","trial_index":75,"time_elapsed":565362,"internal_node_id":"0.0-6.0-69.0"},{"sim_score":6,"rt":3861,"stimulus":"[\"img/0766/d50d734f-285c-4840-bc7a-c8dd4aff391e.jpg\",\"img/0764/1f95ab5f-fb65-4d70-b5db-d6bd6351a8aa.jpg\"]","trial_type":"similarity","trial_index":76,"time_elapsed":570227,"internal_node_id":"0.0-6.0-70.0"},{"sim_score":3,"rt":4211,"stimulus":"[\"img/0894/9b1333fd-3561-43bf-aee5-99b7b7ca3dc3.jpg\",\"img/0867/ac1797e4-8afc-48fe-b252-86d1defb1cca.jpg\"]","trial_type":"similarity","trial_index":77,"time_elapsed":575448,"internal_node_id":"0.0-6.0-71.0"},{"sim_score":3,"rt":3316,"stimulus":"[\"img/0875/2c361b79-c3d1-4eda-812e-bf03192407bf.jpg\",\"img/0764/c0b03adb-bd0a-4b96-a915-a827c2fd5211.jpg\"]","trial_type":"similarity","trial_index":78,"time_elapsed":579769,"internal_node_id":"0.0-6.0-72.0"},{"sim_score":7,"rt":4882,"stimulus":"[\"img/0867/6e19c858-b606-45b2-a4c6-910a73f1d82c.jpg\",\"img/0866/07c9c966-3c8d-40e7-8128-92b2acbaed5d.jpg\"]","trial_type":"similarity","trial_index":79,"time_elapsed":585659,"internal_node_id":"0.0-6.0-73.0"},{"sim_score":3,"rt":6762,"stimulus":"[\"img/0903/aa842abe-6fa3-448a-bf71-88d3ad28663b.jpg\",\"img/0758/6e95579b-5166-487c-b8cb-e417c6a218e3.jpg\"]","trial_type":"similarity","trial_index":80,"time_elapsed":593432,"internal_node_id":"0.0-6.0-74.0"},{"sim_score":2,"rt":3607,"stimulus":"[\"img/0766/f011ef45-fb48-44b8-8224-867ed2ccf786.jpg\",\"img/0868/83b4350a-3b70-4cea-b7f5-b5b56f3050a8.jpg\"]","trial_type":"similarity","trial_index":81,"time_elapsed":598044,"internal_node_id":"0.0-6.0-75.0"},{"sim_score":2,"rt":3938,"stimulus":"[\"img/0874/3f471690-9788-4d03-90c7-f615aecef149.jpg\",\"img/0766/0bf3793e-c353-45e5-ac6f-753f5f484e10.jpg\"]","trial_type":"similarity","trial_index":82,"time_elapsed":602992,"internal_node_id":"0.0-6.0-76.0"},{"sim_score":2,"rt":3321,"stimulus":"[\"img/0881/405484ae-0d00-4b05-bc57-6420a36adfac.jpg\",\"img/0868/3a62db2d-97e9-44a3-b8e3-a48c6f0e423b.jpg\"]","trial_type":"similarity","trial_index":83,"time_elapsed":607322,"internal_node_id":"0.0-6.0-77.0"},{"sim_score":3,"rt":2899,"stimulus":"[\"img/0758/2fa3e613-e676-4e6e-bd12-705327eeb3e1.jpg\",\"img/0901/a373612d-67e2-4fec-9764-21d3d6ef6359.jpg\"]","trial_type":"similarity","trial_index":84,"time_elapsed":611223,"internal_node_id":"0.0-6.0-78.0"},{"sim_score":4,"rt":2457,"stimulus":"[\"img/0881/633c6f40-56d9-4b48-bf1c-ecd83116eabb.jpg\",\"img/0898/0c7dde4f-efce-4b7a-9387-6921635b7890.jpg\"]","trial_type":"similarity","trial_index":85,"time_elapsed":614691,"internal_node_id":"0.0-6.0-79.0"},{"sim_score":1,"rt":3198,"stimulus":"[\"img/0867/aa05d113-fc19-4756-a8eb-7878f580bc92.jpg\",\"img/0758/caa93da2-9edf-49fa-96b9-32dedd8f5078.jpg\"]","trial_type":"similarity","trial_index":86,"time_elapsed":618894,"internal_node_id":"0.0-6.0-80.0"},{"sim_score":4,"rt":3008,"stimulus":"[\"img/0769/1afb527f-9887-428c-bd26-a12c2f9efb68.jpg\",\"img/0899/93494f3b-d539-4075-b027-d82e344563da.jpg\"]","trial_type":"similarity","trial_index":87,"time_elapsed":622911,"internal_node_id":"0.0-6.0-81.0"},{"sim_score":6,"rt":2640,"stimulus":"[\"img/0903/b0a3c45f-467e-412f-a183-c9c1827f2e63.jpg\",\"img/0903/680ed18e-b311-4ecf-9b00-7dea32128334.jpg\"]","trial_type":"similarity","trial_index":88,"time_elapsed":626559,"internal_node_id":"0.0-6.0-82.0"},{"sim_score":1,"rt":4616,"stimulus":"[\"img/0867/2e1a0b58-cdb1-4107-a14e-452530d7b9b0.jpg\",\"img/0766/71b81ebd-0937-4d7f-b8bf-c4e46a4728fd.jpg\"]","trial_type":"similarity","trial_index":89,"time_elapsed":961950,"internal_node_id":"0.0-6.0-83.0"},{"sim_score":2,"rt":4781,"stimulus":"[\"img/0902/d2c34af0-8c50-437d-8cc3-619195a3e8ba.jpg\",\"img/0867/85a96c62-548f-4994-9553-819e03c3135a.jpg\"]","trial_type":"similarity","trial_index":90,"time_elapsed":967732,"internal_node_id":"0.0-6.0-84.0"},{"sim_score":3,"rt":3320,"stimulus":"[\"img/0901/4f9cffe0-c0be-4d7f-bacd-9d51efd19b4a.jpg\",\"img/0875/03c3c331-738b-4446-af92-3d7386b08c2e.jpg\"]","trial_type":"similarity","trial_index":91,"time_elapsed":972062,"internal_node_id":"0.0-6.0-85.0"},{"sim_score":3,"rt":4796,"stimulus":"[\"img/0764/d0bef2e0-e16b-4c82-9451-c1d16265eb67.jpg\",\"img/0866/a15b02be-11bb-43e3-b0e0-ecc3bd7dfc49.jpg\"]","trial_type":"similarity","trial_index":92,"time_elapsed":977870,"internal_node_id":"0.0-6.0-86.0"},{"sim_score":5,"rt":3081,"stimulus":"[\"img/0901/f1116359-1ff1-4638-b3b3-700918d36d18.jpg\",\"img/0894/e6385e52-6c35-43bd-b0af-bc803d107b11.jpg\"]","trial_type":"similarity","trial_index":93,"time_elapsed":981955,"internal_node_id":"0.0-6.0-87.0"},{"sim_score":5,"rt":4624,"stimulus":"[\"img/0898/b2732712-71c2-45d8-834f-2b2ed5504910.jpg\",\"img/0769/662ab839-88d1-4ebf-af05-9b2980cad943.jpg\"]","trial_type":"similarity","trial_index":94,"time_elapsed":987586,"internal_node_id":"0.0-6.0-88.0"},{"sim_score":6,"rt":3486,"stimulus":"[\"img/0769/8056889f-2b14-4782-bb25-b4e8896ab65b.jpg\",\"img/0894/e5edf723-72a5-4673-8441-6c1734a8929b.jpg\"]","trial_type":"similarity","trial_index":95,"time_elapsed":992077,"internal_node_id":"0.0-6.0-89.0"},{"sim_score":5,"rt":3571,"stimulus":"[\"img/0862/7918ca67-5bd3-4606-a5ea-c39fb11a9297.jpg\",\"img/0874/2c9464dd-8a23-4baa-ac94-1ba3af5c15cc.jpg\"]","trial_type":"similarity","trial_index":96,"time_elapsed":996652,"internal_node_id":"0.0-6.0-90.0"},{"sim_score":5,"rt":3297,"stimulus":"[\"img/0894/7dd6ff43-f8fc-408a-8a41-a2b261871820.jpg\",\"img/0766/a0270213-fa0e-4972-8b56-228c3e01ff90.jpg\"]","trial_type":"similarity","trial_index":97,"time_elapsed":1000959,"internal_node_id":"0.0-6.0-91.0"},{"sim_score":1,"rt":5140,"stimulus":"[\"img/0874/8cdb1c07-1c32-46d2-981c-3636560fa6e5.jpg\",\"img/0867/f26f6b60-f772-4f4c-95a4-addc62cfd692.jpg\"]","trial_type":"similarity","trial_index":98,"time_elapsed":1007102,"internal_node_id":"0.0-6.0-92.0"},{"sim_score":3,"rt":4758,"stimulus":"[\"img/0899/1b3457ea-87d4-4946-a01c-aac1863ed46c.jpg\",\"img/0868/4e626425-63c8-484a-8a1d-e66ee4e0bef8.jpg\"]","trial_type":"similarity","trial_index":99,"time_elapsed":1012872,"internal_node_id":"0.0-6.0-93.0"},{"sim_score":7,"rt":3354,"stimulus":"[\"img/0903/f45a103c-9bfe-49fd-ad96-bdd8d2589195.jpg\",\"img/0862/1c20f772-3a51-4a80-aac0-f57dc9f86c28.jpg\"]","trial_type":"similarity","trial_index":100,"time_elapsed":1017229,"internal_node_id":"0.0-6.0-94.0"},{"sim_score":6,"rt":4311,"stimulus":"[\"img/0899/565ccdd9-0933-4536-a625-3c0e25a713dd.jpg\",\"img/0766/214866ee-423d-4629-9bb9-41572bdc7dac.jpg\"]","trial_type":"similarity","trial_index":101,"time_elapsed":1022553,"internal_node_id":"0.0-6.0-95.0"},{"sim_score":7,"rt":3120,"stimulus":"[\"img/0867/5e07b34d-b40f-4b1c-ac10-49975bace45f.jpg\",\"img/0868/4bd5105a-d2c3-4f82-8c80-57196106ba53.jpg\"]","trial_type":"similarity","trial_index":102,"time_elapsed":1026681,"internal_node_id":"0.0-6.0-96.0"},{"sim_score":5,"rt":2939,"stimulus":"[\"img/0862/e697469a-ec19-4414-b972-7b9f3564785b.jpg\",\"img/0901/a2d7b2f6-396b-4d91-8403-de5361c74af7.jpg\"]","trial_type":"similarity","trial_index":103,"time_elapsed":1030623,"internal_node_id":"0.0-6.0-97.0"},{"sim_score":3,"rt":4007,"stimulus":"[\"img/0875/cff79b3a-a797-4393-9757-6275f999ec04.jpg\",\"img/0766/006035d8-c736-4daf-bbe4-a9e373af9da6.jpg\"]","trial_type":"similarity","trial_index":104,"time_elapsed":1035641,"internal_node_id":"0.0-6.0-98.0"},{"sim_score":2,"rt":3669,"stimulus":"[\"img/0758/6cd8c362-ae2a-41eb-80a3-3a4f7ace1530.jpg\",\"img/0874/93d1f8dc-acf2-4f03-bd8d-8ec35df276ed.jpg\"]","trial_type":"similarity","trial_index":105,"time_elapsed":1040320,"internal_node_id":"0.0-6.0-99.0"},{"sim_score":3,"rt":2911,"stimulus":"[\"img/0904/0d17b811-063e-416e-a23c-3b3cfa4fcce5.jpg\",\"img/0868/e0aff734-077f-40dd-9781-74821abd3621.jpg\"]","trial_type":"similarity","trial_index":106,"time_elapsed":1044241,"internal_node_id":"0.0-6.0-100.0"},{"sim_score":3,"rt":4095,"stimulus":"[\"img/0903/36e4ab1f-caa9-40b3-8616-faada076df94.jpg\",\"img/0866/f756f7d1-9ad8-4a34-9ef6-7a443d705bfe.jpg\"]","trial_type":"similarity","trial_index":107,"time_elapsed":1049341,"internal_node_id":"0.0-6.0-101.0"},{"sim_score":4,"rt":3635,"stimulus":"[\"img/0868/293079b8-7e0c-4afd-a390-1e5d35fe3ded.jpg\",\"img/0769/f2740c58-7c02-433f-920b-746b0b75435b.jpg\"]","trial_type":"similarity","trial_index":108,"time_elapsed":1053981,"internal_node_id":"0.0-6.0-102.0"},{"sim_score":5,"rt":3245,"stimulus":"[\"img/0902/12452bb1-b8c0-4e4d-ad4d-47e279e5933c.jpg\",\"img/0899/25ae6ec8-9565-49fe-a8bb-8d0666f52716.jpg\"]","trial_type":"similarity","trial_index":109,"time_elapsed":1058240,"internal_node_id":"0.0-6.0-103.0"},{"sim_score":1,"rt":3140,"stimulus":"[\"img/0868/09a9ef4d-d000-4cfa-a6aa-ebec7c2edeb4.jpg\",\"img/0862/92f0146c-20c4-482e-aef5-adb693790338.jpg\"]","trial_type":"similarity","trial_index":110,"time_elapsed":1062382,"internal_node_id":"0.0-6.0-104.0"},{"sim_score":5,"rt":3413,"stimulus":"[\"img/0903/8635cf25-2648-4fe9-8c42-79d2598e999c.jpg\",\"img/0894/661b9f9f-4bde-487a-b1ed-87085fde6948.jpg\"]","trial_type":"similarity","trial_index":111,"time_elapsed":1066808,"internal_node_id":"0.0-6.0-105.0"},{"sim_score":5,"rt":5505,"stimulus":"[\"img/0864/da39ad34-04e0-40d4-a724-c08d53e0ea09.jpg\",\"img/0874/ca76a855-4e77-4f2f-872a-0a718153e7ed.jpg\"]","trial_type":"similarity","trial_index":112,"time_elapsed":1073318,"internal_node_id":"0.0-6.0-106.0"},{"sim_score":7,"rt":3686,"stimulus":"[\"img/0862/47ed5efd-4ec9-4b74-bb4e-a5f5cf0c3e7d.jpg\",\"img/0902/4e0baa32-988e-46f6-989d-f669225ab645.jpg\"]","trial_type":"similarity","trial_index":113,"time_elapsed":1078012,"internal_node_id":"0.0-6.0-107.0"},{"sim_score":7,"rt":3257,"stimulus":"[\"img/0904/09934646-45d2-4147-8fec-64a22a5ac822.jpg\",\"img/0903/8fcafe03-43df-4c45-9da5-0df3a1eeccc5.jpg\"]","trial_type":"similarity","trial_index":114,"time_elapsed":1082280,"internal_node_id":"0.0-6.0-108.0"},{"sim_score":4,"rt":4584,"stimulus":"[\"img/0764/6c7fe363-2d37-418f-9e5e-a3273af5d4fb.jpg\",\"img/0864/0116ca98-293d-4fa6-a93b-5a6144ef64cc.jpg\"]","trial_type":"similarity","trial_index":115,"time_elapsed":1087871,"internal_node_id":"0.0-6.0-109.0"},{"sim_score":5,"rt":3802,"stimulus":"[\"img/0866/4a87911a-d5be-4d4e-ab8e-3d1f581bf507.jpg\",\"img/0894/a98416c0-51e2-4960-85da-d81d8688b9d5.jpg\"]","trial_type":"similarity","trial_index":116,"time_elapsed":1092679,"internal_node_id":"0.0-6.0-110.0"},{"sim_score":6,"rt":3160,"stimulus":"[\"img/0899/0e1d936a-dbe2-4afc-9f19-7b7a1ae6c9ed.jpg\",\"img/0903/12bd8657-92e6-4c36-a06c-597e7a1d51f3.jpg\"]","trial_type":"similarity","trial_index":117,"time_elapsed":1096849,"internal_node_id":"0.0-6.0-111.0"},{"sim_score":4,"rt":5270,"stimulus":"[\"img/0902/1f4a4c62-68c1-4993-b213-05652a173ed1.jpg\",\"img/0904/0d25eb24-bb20-4e8d-9787-8b489558b4cb.jpg\"]","trial_type":"similarity","trial_index":118,"time_elapsed":1103129,"internal_node_id":"0.0-6.0-112.0"},{"sim_score":5,"rt":2724,"stimulus":"[\"img/0864/e8bd659f-aa43-4748-877e-3118e8b4e189.jpg\",\"img/0860/31ff6436-98bf-4652-bed2-40f627229568.jpg\"]","trial_type":"similarity","trial_index":119,"time_elapsed":1106856,"internal_node_id":"0.0-6.0-113.0"},{"sim_score":5,"rt":3802,"stimulus":"[\"img/0860/5bff793e-cbd5-4d7e-b628-0ac2b0e30b64.jpg\",\"img/0899/ad8268c5-8199-48d0-ad70-c5b6d6c599ec.jpg\"]","trial_type":"similarity","trial_index":120,"time_elapsed":1111666,"internal_node_id":"0.0-6.0-114.0"},{"sim_score":3,"rt":2847,"stimulus":"[\"img/0881/f037e3b0-09cb-4a83-b2d9-6a71fe474e63.jpg\",\"img/0903/c3cb4a01-2797-43ca-b216-88c67b323fbb.jpg\"]","trial_type":"similarity","trial_index":121,"time_elapsed":1115518,"internal_node_id":"0.0-6.0-115.0"},{"sim_score":3,"rt":8538,"stimulus":"[\"img/0894/133a1636-d123-4893-873c-1718050f832a.jpg\",\"img/0874/31e22c7c-99aa-40b1-bf03-dd73fa2df4d6.jpg\"]","trial_type":"similarity","trial_index":122,"time_elapsed":1125066,"internal_node_id":"0.0-6.0-116.0"},{"sim_score":4,"rt":2430,"stimulus":"[\"img/0881/1407b85b-a1c6-45b1-9884-3b24203efadb.jpg\",\"img/0862/ee3b7bff-4a70-4e84-9bea-4a565e456acb.jpg\"]","trial_type":"similarity","trial_index":123,"time_elapsed":1128506,"internal_node_id":"0.0-6.0-117.0"},{"sim_score":4,"rt":4690,"stimulus":"[\"img/0868/4a8a45ed-2c4f-421b-9564-409a33ecd26c.jpg\",\"img/0875/90da8d75-108a-44ad-b999-e21fee3860d3.jpg\"]","trial_type":"similarity","trial_index":124,"time_elapsed":1134232,"internal_node_id":"0.0-6.0-118.0"},{"sim_score":5,"rt":6774,"stimulus":"[\"img/0860/99c589b9-9140-4d17-90c0-b344323edcda.jpg\",\"img/0758/821c68d3-5cb0-4eae-8659-30e6263fca39.jpg\"]","trial_type":"similarity","trial_index":125,"time_elapsed":1142008,"internal_node_id":"0.0-6.0-119.0"},{"sim_score":5,"rt":3394,"stimulus":"[\"img/0864/f92649a2-0590-4d31-9a7a-1bfb81666a2d.jpg\",\"img/0875/527ced51-8e53-4aab-ab05-86df219104c0.jpg\"]","trial_type":"similarity","trial_index":126,"time_elapsed":1146410,"internal_node_id":"0.0-6.0-120.0"},{"sim_score":2,"rt":2725,"stimulus":"[\"img/0898/6cd3830b-d44e-4915-be2b-88d31424b91c.jpg\",\"img/0866/23a224f3-2012-4fc8-8e0f-3c36f8de27fd.jpg\"]","trial_type":"similarity","trial_index":127,"time_elapsed":1150148,"internal_node_id":"0.0-6.0-121.0"},{"sim_score":2,"rt":3528,"stimulus":"[\"img/0874/eba003b4-cdab-4eee-8bc3-f064c7d94165.jpg\",\"img/0904/e9423a8c-f946-43ad-ab7b-931acef870e2.jpg\"]","trial_type":"similarity","trial_index":128,"time_elapsed":1154680,"internal_node_id":"0.0-6.0-122.0"},{"sim_score":5,"rt":3044,"stimulus":"[\"img/0904/06dacdc5-2206-4fb8-92b7-88042d22833c.jpg\",\"img/0864/ef9cbca0-4be8-435d-ad49-977259e80409.jpg\"]","trial_type":"similarity","trial_index":129,"time_elapsed":1158732,"internal_node_id":"0.0-6.0-123.0"},{"sim_score":5,"rt":3417,"stimulus":"[\"img/0894/5ff3c4f6-52e2-4075-8679-be0312e59703.jpg\",\"img/0902/794606a0-d8a8-4e58-8bf8-9d114ed5a548.jpg\"]","trial_type":"similarity","trial_index":130,"time_elapsed":1163152,"internal_node_id":"0.0-6.0-124.0"},{"sim_score":1,"rt":2689,"stimulus":"[\"img/0868/0d3abd3a-b6c3-4584-a9f7-e2da63748b3d.jpg\",\"img/0864/65210d57-1153-4657-886a-32e758f49b4a.jpg\"]","trial_type":"similarity","trial_index":131,"time_elapsed":1190706,"internal_node_id":"0.0-6.0-125.0"},{"sim_score":3,"rt":4618,"stimulus":"[\"img/0899/8de08897-b430-42fe-9d42-840670b80f94.jpg\",\"img/0866/a04d37f0-99dd-478a-b6c6-58b215138f84.jpg\"]","trial_type":"similarity","trial_index":132,"time_elapsed":1196331,"internal_node_id":"0.0-6.0-126.0"},{"sim_score":4,"rt":4480,"stimulus":"[\"img/0875/fb732ab5-013a-4366-9f65-27811ed157e9.jpg\",\"img/0904/da170c1b-9651-4f08-b231-2bdd1d9a046f.jpg\"]","trial_type":"similarity","trial_index":133,"time_elapsed":1201816,"internal_node_id":"0.0-6.0-127.0"},{"sim_score":1,"rt":5225,"stimulus":"[\"img/0867/075e0f95-856b-4cbb-acf5-092393aaf04e.jpg\",\"img/0899/f95cbdb4-f804-4f5d-ad76-373ad343e658.jpg\"]","trial_type":"similarity","trial_index":134,"time_elapsed":1208053,"internal_node_id":"0.0-6.0-128.0"},{"sim_score":1,"rt":4258,"stimulus":"[\"img/0901/d61f267a-c492-4db6-9bfb-61efd49cf072.jpg\",\"img/0867/db7e032f-162b-46f5-ae67-2b29679adee4.jpg\"]","trial_type":"similarity","trial_index":135,"time_elapsed":1213321,"internal_node_id":"0.0-6.0-129.0"},{"sim_score":2,"rt":4719,"stimulus":"[\"img/0864/5f33e097-23e3-4002-882d-76e8cb15f451.jpg\",\"img/0769/11518cb3-13ea-4dd0-890c-30cfab728ade.jpg\"]","trial_type":"similarity","trial_index":136,"time_elapsed":1219044,"internal_node_id":"0.0-6.0-130.0"},{"sim_score":4,"rt":7352,"stimulus":"[\"img/0903/43ffd882-077a-40dd-a264-e58d519420a1.jpg\",\"img/0868/15dd6fd7-791e-4b53-b203-195d617521a4.jpg\"]","trial_type":"similarity","trial_index":137,"time_elapsed":1227405,"internal_node_id":"0.0-6.0-131.0"},{"sim_score":3,"rt":3898,"stimulus":"[\"img/0864/87c467d3-abca-482f-ad80-3766c21b1bb3.jpg\",\"img/0867/12264664-1860-46df-8c21-162b9817cdda.jpg\"]","trial_type":"similarity","trial_index":138,"time_elapsed":1232308,"internal_node_id":"0.0-6.0-132.0"},{"sim_score":5,"rt":2643,"stimulus":"[\"img/0901/7d4a3388-488d-4e9b-9d32-9d0def7aae8d.jpg\",\"img/0860/c3379ff7-0763-48fe-a1ec-7ea3d611bc7a.jpg\"]","trial_type":"similarity","trial_index":139,"time_elapsed":1235956,"internal_node_id":"0.0-6.0-133.0"},{"sim_score":6,"rt":3267,"stimulus":"[\"img/0881/d373cb9f-a719-4549-a2a4-82def79fb2a5.jpg\",\"img/0766/b84598d0-5b41-4841-88b0-b441b48289f5.jpg\"]","trial_type":"similarity","trial_index":140,"time_elapsed":1240227,"internal_node_id":"0.0-6.0-134.0"},{"sim_score":5,"rt":3283,"stimulus":"[\"img/0903/8931c67c-a43d-47d3-a4c9-42aa2f81d344.jpg\",\"img/0864/e336a4c5-6648-4fd7-b2f6-93a3fb83f8c6.jpg\"]","trial_type":"similarity","trial_index":141,"time_elapsed":1244515,"internal_node_id":"0.0-6.0-135.0"},{"sim_score":2,"rt":2833,"stimulus":"[\"img/0758/53f35650-e455-4b53-8be4-c3c8271c6466.jpg\",\"img/0894/2217bdcd-23a7-42d3-823b-23f2488d7e87.jpg\"]","trial_type":"similarity","trial_index":142,"time_elapsed":1248358,"internal_node_id":"0.0-6.0-136.0"},{"sim_score":4,"rt":3283,"stimulus":"[\"img/0769/c7cfacc3-7f07-46ff-9f5d-8073f4c4679b.jpg\",\"img/0860/fd4662f9-4c03-4d79-8593-06735e55a64b.jpg\"]","trial_type":"similarity","trial_index":143,"time_elapsed":1252643,"internal_node_id":"0.0-6.0-137.0"},{"sim_score":3,"rt":3217,"stimulus":"[\"img/0904/ba8e689e-9ca6-4608-a2a1-3b0940666ae6.jpg\",\"img/0766/a1ed3f0f-e338-4a26-8fe4-4370f0c9fa6e.jpg\"]","trial_type":"similarity","trial_index":144,"time_elapsed":1256870,"internal_node_id":"0.0-6.0-138.0"},{"sim_score":1,"rt":2693,"stimulus":"[\"img/0868/77091fc7-a590-4ebb-b915-fdb2483a2399.jpg\",\"img/0860/4a022222-056d-461c-ab02-39fac9647552.jpg\"]","trial_type":"similarity","trial_index":145,"time_elapsed":1260573,"internal_node_id":"0.0-6.0-139.0"},{"sim_score":5,"rt":2859,"stimulus":"[\"img/0758/3ddd05d3-557e-4ee7-8b78-9d2d681d8ae2.jpg\",\"img/0864/afcba0a3-7e27-4757-b254-e9f05fad27e2.jpg\"]","trial_type":"similarity","trial_index":146,"time_elapsed":1264436,"internal_node_id":"0.0-6.0-140.0"},{"sim_score":7,"rt":3256,"stimulus":"[\"img/0867/f8159067-056c-41f1-a136-c529fe5e970a.jpg\",\"img/0867/26611f4e-d694-4460-b7e2-43c62753ddc3.jpg\"]","trial_type":"similarity","trial_index":147,"time_elapsed":1268703,"internal_node_id":"0.0-6.0-141.0"},{"sim_score":5,"rt":3559,"stimulus":"[\"img/0898/881e2a85-d5c2-49be-a0c6-8a6ce2c4af08.jpg\",\"img/0898/a114b375-cb89-44ba-9498-74213f1ecdee.jpg\"]","trial_type":"similarity","trial_index":148,"time_elapsed":1273267,"internal_node_id":"0.0-6.0-142.0"},{"sim_score":3,"rt":4119,"stimulus":"[\"img/0866/620cd1aa-0800-4414-8f6e-90342e7a99ad.jpg\",\"img/0769/48a1144d-fbda-4809-991b-fc8424a32ee4.jpg\"]","trial_type":"similarity","trial_index":149,"time_elapsed":1278399,"internal_node_id":"0.0-6.0-143.0"},{"sim_score":6,"rt":2815,"stimulus":"[\"img/0860/94ef7afc-e0e6-4a15-98c6-0bfac82bc832.jpg\",\"img/0898/8605a25b-6895-476d-8c13-df7a83f96093.jpg\"]","trial_type":"similarity","trial_index":150,"time_elapsed":1282222,"internal_node_id":"0.0-6.0-144.0"},{"sim_score":3,"rt":3280,"stimulus":"[\"img/0766/ae0fce93-fe8d-4aa1-87ca-4c3e4b889f2f.jpg\",\"img/0864/c22faebd-9c53-47bc-ada3-b9a30c688e75.jpg\"]","trial_type":"similarity","trial_index":151,"time_elapsed":1286510,"internal_node_id":"0.0-6.0-145.0"},{"sim_score":6,"rt":4233,"stimulus":"[\"img/0860/c5ccd1a4-4bb7-48e1-9b25-72cfaf06909b.jpg\",\"img/0903/d987e220-f3e6-4b6d-a270-fe6757041f6d.jpg\"]","trial_type":"similarity","trial_index":152,"time_elapsed":1291747,"internal_node_id":"0.0-6.0-146.0"},{"sim_score":3,"rt":3194,"stimulus":"[\"img/0867/a749dddb-69f0-44a6-acdc-2bf295cf6dcc.jpg\",\"img/0764/29072395-f595-4e3c-83d3-ff87010039fa.jpg\"]","trial_type":"similarity","trial_index":153,"time_elapsed":1295948,"internal_node_id":"0.0-6.0-147.0"},{"sim_score":6,"rt":3868,"stimulus":"[\"img/0769/76eaa4a3-dfe9-4dc1-9efb-caebe86264e1.jpg\",\"img/0904/a8c3c7d2-9bcf-4347-9e03-8203adfc1fc5.jpg\"]","trial_type":"similarity","trial_index":154,"time_elapsed":1300820,"internal_node_id":"0.0-6.0-148.0"},{"sim_score":4,"rt":2631,"stimulus":"[\"img/0764/978aede9-4590-4ad0-b234-135c83e5d669.jpg\",\"img/0901/4d1bed7e-3c4e-4f6c-ada9-4beb66ba9e39.jpg\"]","trial_type":"similarity","trial_index":155,"time_elapsed":1304462,"internal_node_id":"0.0-6.0-149.0"},{"sim_score":5,"rt":3313,"stimulus":"[\"img/0904/9d30eff1-46ef-4453-b11e-124ef8145c00.jpg\",\"img/0899/66ab3178-c3fe-4455-ad17-d5952b08e018.jpg\"]","trial_type":"similarity","trial_index":156,"time_elapsed":1308782,"internal_node_id":"0.0-6.0-150.0"},{"sim_score":4,"rt":2120,"stimulus":"[\"img/0862/5d887e9f-89e2-4ebc-80a0-6d46fe6480db.jpg\",\"img/0867/a498eef3-9fa4-4ab2-9778-4ae82ac40dc5.jpg\"]","trial_type":"similarity","trial_index":157,"time_elapsed":1311911,"internal_node_id":"0.0-6.0-151.0"},{"sim_score":7,"rt":4481,"stimulus":"[\"img/0766/26d3ae14-8275-4e08-99b2-a6598c193ddf.jpg\",\"img/0766/ea09dd5a-d24d-4e97-a099-7da3db1baef1.jpg\"]","trial_type":"similarity","trial_index":158,"time_elapsed":1317399,"internal_node_id":"0.0-6.0-152.0"},{"sim_score":5,"rt":3775,"stimulus":"[\"img/0862/f188d4f0-76a4-4102-818c-a209969d73a5.jpg\",\"img/0894/5a49e858-2850-4892-9a06-e9f0efb5f94d.jpg\"]","trial_type":"similarity","trial_index":159,"time_elapsed":1322182,"internal_node_id":"0.0-6.0-153.0"},{"sim_score":4,"rt":2610,"stimulus":"[\"img/0899/fd9efb43-701f-4cd6-baaa-4c38315f4bdc.jpg\",\"img/0901/d6d15b1c-4a30-4f74-a3fd-d4c8ee4169ca.jpg\"]","trial_type":"similarity","trial_index":160,"time_elapsed":1325796,"internal_node_id":"0.0-6.0-154.0"},{"sim_score":4,"rt":2753,"stimulus":"[\"img/0874/adf9a8f1-c40b-402b-b95b-1e85a54a7b62.jpg\",\"img/0874/7e4f2150-3b59-4a36-b5da-a4e0ba410531.jpg\"]","trial_type":"similarity","trial_index":161,"time_elapsed":1329555,"internal_node_id":"0.0-6.0-155.0"},{"sim_score":2,"rt":5515,"stimulus":"[\"img/0860/d9a0d117-6d1d-41c0-8fec-9aff0fd9e9f2.jpg\",\"img/0867/c66898ba-b71b-4d50-84f9-f7f84853a98d.jpg\"]","trial_type":"similarity","trial_index":162,"time_elapsed":1336075,"internal_node_id":"0.0-6.0-156.0"},{"sim_score":1,"rt":3672,"stimulus":"[\"img/0901/a6c90438-fa7c-4418-ac7c-16c2e772dd98.jpg\",\"img/0881/c24f3051-eefa-42de-aba6-fccb56d93c70.jpg\"]","trial_type":"similarity","trial_index":163,"time_elapsed":1340755,"internal_node_id":"0.0-6.0-157.0"},{"sim_score":7,"rt":4336,"stimulus":"[\"img/0903/2c7b4aed-6038-4aac-958a-e3e58341c313.jpg\",\"img/0902/1a120fb9-dbd6-443e-ba91-b4aceab963da.jpg\"]","trial_type":"similarity","trial_index":164,"time_elapsed":1346101,"internal_node_id":"0.0-6.0-158.0"},{"sim_score":6,"rt":3850,"stimulus":"[\"img/0860/f44ba3fb-03a2-42f0-8509-2c1ded493086.jpg\",\"img/0764/f2f23359-8e82-41d3-8900-5b9f4433991d.jpg\"]","trial_type":"similarity","trial_index":165,"time_elapsed":1350966,"internal_node_id":"0.0-6.0-159.0"},{"sim_score":3,"rt":5309,"stimulus":"[\"img/0902/10d99c89-71f7-4c81-a31e-dfc7c59f5232.jpg\",\"img/0875/42910c99-5463-450a-a0f8-d4d060a11455.jpg\"]","trial_type":"similarity","trial_index":166,"time_elapsed":1357281,"internal_node_id":"0.0-6.0-160.0"},{"sim_score":6,"rt":4913,"stimulus":"[\"img/0898/ec565187-2e31-4fdd-9a5c-153d0c789ae0.jpg\",\"img/0862/cdaed51d-9e2f-4807-801a-4663c40077e2.jpg\"]","trial_type":"similarity","trial_index":167,"time_elapsed":1363202,"internal_node_id":"0.0-6.0-161.0"},{"sim_score":4,"rt":4468,"stimulus":"[\"img/0894/1b3888e6-cf36-4c4a-a039-187aa5cb71ac.jpg\",\"img/0875/e7e66b13-b573-431e-b85e-288ce04a35a3.jpg\"]","trial_type":"similarity","trial_index":168,"time_elapsed":1368685,"internal_node_id":"0.0-6.0-162.0"},{"sim_score":1,"rt":3132,"stimulus":"[\"img/0866/11a1d141-be5e-443c-98c1-a9d4d9e3dec0.jpg\",\"img/0864/300bb811-8b3c-4c42-8653-6097c3725197.jpg\"]","trial_type":"similarity","trial_index":169,"time_elapsed":1372829,"internal_node_id":"0.0-6.0-163.0"},{"sim_score":2,"rt":2757,"stimulus":"[\"img/0766/09f646c8-a69e-4ed3-879c-8d29b04ad7f9.jpg\",\"img/0862/00c06b00-3b73-44e9-bc1e-c5aafb438321.jpg\"]","trial_type":"similarity","trial_index":170,"time_elapsed":1376596,"internal_node_id":"0.0-6.0-164.0"},{"sim_score":3,"rt":4592,"stimulus":"[\"img/0866/93a27239-8317-4e08-98ca-d8b1ff298e07.jpg\",\"img/0874/c0378dac-9370-439a-8b79-db27c96fb390.jpg\"]","trial_type":"similarity","trial_index":171,"time_elapsed":1382193,"internal_node_id":"0.0-6.0-165.0"},{"sim_score":6,"rt":3738,"stimulus":"[\"img/0862/eefa5588-9efd-4591-aa5f-a2e17c7d7bcc.jpg\",\"img/0860/18dfed73-e36b-4487-a8bd-0b8cff8e3668.jpg\"]","trial_type":"similarity","trial_index":172,"time_elapsed":1386939,"internal_node_id":"0.0-6.0-166.0"},{"sim_score":4,"rt":2305,"stimulus":"[\"img/0766/ef3b15ce-abb7-4292-ad93-aec8e8b50520.jpg\",\"img/0901/3db47171-0139-4235-82cd-0b1787b6775f.jpg\"]","trial_type":"similarity","trial_index":173,"time_elapsed":1398099,"internal_node_id":"0.0-6.0-167.0"},{"sim_score":7,"rt":3900,"stimulus":"[\"img/0862/57b6f83f-c763-4858-830d-102f97bfefbf.jpg\",\"img/0862/fb26cb07-d5a9-4653-813c-f41609f26cd5.jpg\"]","trial_type":"similarity","trial_index":174,"time_elapsed":1403002,"internal_node_id":"0.0-6.0-168.0"},{"sim_score":5,"rt":3583,"stimulus":"[\"img/0894/3664e04c-c6d3-4c9b-afb6-25d89974b174.jpg\",\"img/0764/e0788029-9d7f-414c-b747-46d2a99f7c86.jpg\"]","trial_type":"similarity","trial_index":175,"time_elapsed":1407593,"internal_node_id":"0.0-6.0-169.0"},{"sim_score":3,"rt":3892,"stimulus":"[\"img/0874/a82926a3-0b43-4add-803c-d5f9ea7798ee.jpg\",\"img/0898/79233891-305a-4a6a-8ddf-5c8604858203.jpg\"]","trial_type":"similarity","trial_index":176,"time_elapsed":1412490,"internal_node_id":"0.0-6.0-170.0"},{"sim_score":4,"rt":3494,"stimulus":"[\"img/0860/8fdba999-b946-4c7d-9891-336018b563ef.jpg\",\"img/0766/d14acac4-7db1-4b07-8f8f-302437326fc0.jpg\"]","trial_type":"similarity","trial_index":177,"time_elapsed":1416997,"internal_node_id":"0.0-6.0-171.0"},{"sim_score":5,"rt":4020,"stimulus":"[\"img/0898/b3290bf9-215b-4b45-b21a-65bdf73f142f.jpg\",\"img/0864/ea327690-500b-4137-bf91-451b309fe6a5.jpg\"]","trial_type":"similarity","trial_index":178,"time_elapsed":1422019,"internal_node_id":"0.0-6.0-172.0"},{"sim_score":4,"rt":4297,"stimulus":"[\"img/0881/ed4c971f-0873-4fc8-b6d6-e8bbd82f0bcc.jpg\",\"img/0764/c01e2d65-6586-441b-bef5-3c96fcd85380.jpg\"]","trial_type":"similarity","trial_index":179,"time_elapsed":1427324,"internal_node_id":"0.0-6.0-173.0"},{"sim_score":3,"rt":4402,"stimulus":"[\"img/0898/04e39a7a-fcf6-4156-ab0e-f5871f335e1c.jpg\",\"img/0868/8b0b8473-e2c0-4331-aa56-c3a5c29369da.jpg\"]","trial_type":"similarity","trial_index":180,"time_elapsed":1432729,"internal_node_id":"0.0-6.0-174.0"},{"sim_score":7,"rt":3809,"stimulus":"[\"img/0864/1d15626a-2f7c-410f-819c-0fa2c967e95e.jpg\",\"img/0864/66091c27-e588-4476-8af9-265dc6be4156.jpg\"]","trial_type":"similarity","trial_index":181,"time_elapsed":1437546,"internal_node_id":"0.0-6.0-175.0"},{"sim_score":3,"rt":3361,"stimulus":"[\"img/0899/f58b8d2f-b19d-4b59-8b94-8834be92e4ba.jpg\",\"img/0862/064818ee-13d5-4618-bb24-21c7368ea278.jpg\"]","trial_type":"similarity","trial_index":182,"time_elapsed":1441915,"internal_node_id":"0.0-6.0-176.0"},{"sim_score":1,"rt":2819,"stimulus":"[\"img/0875/5a716432-c6ca-4b1c-955a-2b8ac25198ee.jpg\",\"img/0758/61d64021-9214-4951-bdf8-f871f9827cf9.jpg\"]","trial_type":"similarity","trial_index":183,"time_elapsed":1445739,"internal_node_id":"0.0-6.0-177.0"},{"sim_score":1,"rt":3847,"stimulus":"[\"img/0866/8efcaa46-83ab-4dee-a35f-850402aa21ae.jpg\",\"img/0901/12da1841-e611-435c-9719-109413d536a8.jpg\"]","trial_type":"similarity","trial_index":184,"time_elapsed":1450596,"internal_node_id":"0.0-6.0-178.0"},{"sim_score":1,"rt":3405,"stimulus":"[\"img/0769/f229321f-04dd-42d7-b14a-ffad6b509862.jpg\",\"img/0874/995f0332-0439-4eb4-add3-957335dbf6d9.jpg\"]","trial_type":"similarity","trial_index":185,"time_elapsed":1455010,"internal_node_id":"0.0-6.0-179.0"},{"sim_score":1,"rt":3495,"stimulus":"[\"img/0875/5a7c4e35-6514-4e12-8879-d16071da4cd6.jpg\",\"img/0881/f7a8cc63-8842-40a4-9ff8-fe530310d62c.jpg\"]","trial_type":"similarity","trial_index":186,"time_elapsed":1459513,"internal_node_id":"0.0-6.0-180.0"},{"sim_score":7,"rt":3286,"stimulus":"[\"img/0866/0207e9a2-7dbb-40b5-9459-b472aaeceb2a.jpg\",\"img/0868/d6d1f30d-4323-435a-b194-7892521bc57e.jpg\"]","trial_type":"similarity","trial_index":187,"time_elapsed":1463812,"internal_node_id":"0.0-6.0-181.0"},{"sim_score":2,"rt":4168,"stimulus":"[\"img/0899/9de5e857-aa9a-4e0c-8ba2-46d79bd069a4.jpg\",\"img/0758/67c0be2f-9e91-48b3-8219-70ac0a1802fa.jpg\"]","trial_type":"similarity","trial_index":188,"time_elapsed":1468987,"internal_node_id":"0.0-6.0-182.0"},{"sim_score":2,"rt":4602,"stimulus":"[\"img/0874/767f289c-9814-4496-803f-745cc8913d1f.jpg\",\"img/0875/d59ff733-eaff-4ee2-9443-06954dd0bcb6.jpg\"]","trial_type":"similarity","trial_index":189,"time_elapsed":1474592,"internal_node_id":"0.0-6.0-183.0"},{"sim_score":6,"rt":4705,"stimulus":"[\"img/0904/5aec2708-cf14-4a58-aa30-9a8a61c1be0e.jpg\",\"img/0862/e0f1a4e9-e1b6-45f7-af67-89f334e6630d.jpg\"]","trial_type":"similarity","trial_index":190,"time_elapsed":1480307,"internal_node_id":"0.0-6.0-184.0"},{"sim_score":4,"rt":2287,"stimulus":"[\"img/0902/d1083f2c-5520-44ec-81a8-3f856fbf0e80.jpg\",\"img/0766/00891401-e4c9-4ce1-bc19-f70740d174bc.jpg\"]","trial_type":"similarity","trial_index":191,"time_elapsed":1483599,"internal_node_id":"0.0-6.0-185.0"},{"sim_score":3,"rt":3952,"stimulus":"[\"img/0758/e38fd80d-18d0-42f3-b848-f930788e8bd7.jpg\",\"img/0769/180213e5-1e50-4b4e-87b6-add77ba04d39.jpg\"]","trial_type":"similarity","trial_index":192,"time_elapsed":1488559,"internal_node_id":"0.0-6.0-186.0"},{"sim_score":5,"rt":3805,"stimulus":"[\"img/0881/e046471a-35b4-4159-bbf7-3cfd201bef66.jpg\",\"img/0881/7e31e5dc-2240-4b1b-b5a0-3acd980099ef.jpg\"]","trial_type":"similarity","trial_index":193,"time_elapsed":1493369,"internal_node_id":"0.0-6.0-187.0"},{"sim_score":2,"rt":2988,"stimulus":"[\"img/0758/ddc336e9-a8b6-4bb9-937a-c7e25e0e9250.jpg\",\"img/0866/6f2a90d7-14f1-4f1b-bd64-fc0af6b9fe44.jpg\"]","trial_type":"similarity","trial_index":194,"time_elapsed":1497361,"internal_node_id":"0.0-6.0-188.0"},{"sim_score":7,"rt":2945,"stimulus":"[\"img/0764/55b3fab1-b809-4d38-a461-3f40ce062f52.jpg\",\"img/0898/f3a3f225-1248-4ac7-b93b-f0ff28485bf3.jpg\"]","trial_type":"similarity","trial_index":195,"time_elapsed":1501314,"internal_node_id":"0.0-6.0-189.0"},{"sim_score":5,"rt":3051,"stimulus":"[\"img/0903/bf0a7d60-eca5-44b0-bafd-baf21db9904b.jpg\",\"img/0901/8bb79e82-9c43-4b6f-a655-40655519598b.jpg\"]","trial_type":"similarity","trial_index":196,"time_elapsed":1505369,"internal_node_id":"0.0-6.0-190.0"},{"sim_score":7,"rt":3139,"stimulus":"[\"img/0902/7f1dcd35-237a-4995-9e42-7f63f3f434d4.jpg\",\"img/0898/224c1572-56b9-4f16-a9e4-6f3bc9c114bd.jpg\"]","trial_type":"similarity","trial_index":197,"time_elapsed":1509513,"internal_node_id":"0.0-6.0-191.0"},{"sim_score":5,"rt":8207,"stimulus":"[\"img/0864/0f537697-a314-47c3-a8cc-8df23b7e536c.jpg\",\"img/0901/d4d09bf5-093e-4050-838e-7c738be8e63c.jpg\"]","trial_type":"similarity","trial_index":198,"time_elapsed":1518727,"internal_node_id":"0.0-6.0-192.0"},{"sim_score":3,"rt":2446,"stimulus":"[\"img/0894/10f22b96-040c-44f4-950b-a4963f3f506c.jpg\",\"img/0881/4bd34581-94d8-4e88-8c89-5cef864ca3be.jpg\"]","trial_type":"similarity","trial_index":199,"time_elapsed":1522178,"internal_node_id":"0.0-6.0-193.0"},{"sim_score":7,"rt":2692,"stimulus":"[\"img/0868/5fa7f9d0-f0e5-454c-8224-74d964818f56.jpg\",\"img/0868/fd307a36-9a3a-47d7-ab7c-f810d0b35040.jpg\"]","trial_type":"similarity","trial_index":200,"time_elapsed":1525880,"internal_node_id":"0.0-6.0-194.0"},{"sim_score":4,"rt":2873,"stimulus":"[\"img/0899/d8f2dd94-570e-4e8c-a087-d96090fb9e8c.jpg\",\"img/0764/bc3865c9-9004-4582-88a7-048478673f97.jpg\"]","trial_type":"similarity","trial_index":201,"time_elapsed":1529756,"internal_node_id":"0.0-6.0-195.0"},{"sim_score":4,"rt":2724,"stimulus":"[\"img/0881/ee44e27f-d662-4608-b265-e7ffa19b216f.jpg\",\"img/0904/fe746a3f-8458-48d0-8a13-8cba2a9df9f8.jpg\"]","trial_type":"similarity","trial_index":202,"time_elapsed":1533485,"internal_node_id":"0.0-6.0-196.0"},{"sim_score":6,"rt":2877,"stimulus":"[\"img/0864/6e846d43-94a6-4b37-a268-65eda979f052.jpg\",\"img/0902/bd89a85f-3853-4786-acd6-98818ee29f1c.jpg\"]","trial_type":"similarity","trial_index":203,"time_elapsed":1537375,"internal_node_id":"0.0-6.0-197.0"},{"sim_score":3,"rt":3914,"stimulus":"[\"img/0894/b422d5c6-3c5a-49ae-a53e-7e88ac993f49.jpg\",\"img/0904/b7c2a2c8-df33-4473-b3d4-ff7147c60db3.jpg\"]","trial_type":"similarity","trial_index":204,"time_elapsed":1542294,"internal_node_id":"0.0-6.0-198.0"},{"sim_score":7,"rt":2902,"stimulus":"[\"img/0901/233a6948-48eb-4b67-8259-222b916b2322.jpg\",\"img/0901/c6c877e0-dd63-4e00-9657-33af29d55aab.jpg\"]","trial_type":"similarity","trial_index":205,"time_elapsed":1546207,"internal_node_id":"0.0-6.0-199.0"},{"sim_score":5,"rt":3368,"stimulus":"[\"img/0894/05161000-f476-499b-a878-c13c7f347fd9.jpg\",\"img/0860/c7047cd2-7cc1-41b6-8a34-c0986774975f.jpg\"]","trial_type":"similarity","trial_index":206,"time_elapsed":1550580,"internal_node_id":"0.0-6.0-200.0"},{"sim_score":7,"rt":2616,"stimulus":"[\"img/0898/0af304a2-6a7a-4082-ab7c-4450cd08cc58.jpg\",\"img/0903/5c6b1f57-b3a2-40f5-9fb1-82785e24b6a0.jpg\"]","trial_type":"similarity","trial_index":207,"time_elapsed":1554208,"internal_node_id":"0.0-6.0-201.0"},{"sim_score":3,"rt":4515,"stimulus":"[\"img/0864/a248adb3-c70b-4652-b7a3-776d2a1e904b.jpg\",\"img/0894/2d2db7b3-e8a3-499b-b63a-14f51bf73882.jpg\"]","trial_type":"similarity","trial_index":208,"time_elapsed":1559724,"internal_node_id":"0.0-6.0-202.0"},{"sim_score":5,"rt":3752,"stimulus":"[\"img/0874/1016b306-087c-4afc-aa08-fa527b28dc76.jpg\",\"img/0860/e14d67c1-6d92-4f1e-9257-c8607159c19c.jpg\"]","trial_type":"similarity","trial_index":209,"time_elapsed":1564488,"internal_node_id":"0.0-6.0-203.0"},{"sim_score":1,"rt":3833,"stimulus":"[\"img/0862/99a99e39-8355-44ec-b993-e7bcec111e1c.jpg\",\"img/0875/99698b4d-b4a1-44bc-8c83-8ea755bbbf61.jpg\"]","trial_type":"similarity","trial_index":210,"time_elapsed":1569327,"internal_node_id":"0.0-6.0-204.0"},{"sim_score":3,"rt":3246,"stimulus":"[\"img/0867/de92135f-5b65-4ed9-b245-188292c7c2f8.jpg\",\"img/0881/44e09805-5a25-4f17-a716-4ad4a331b174.jpg\"]","trial_type":"similarity","trial_index":211,"time_elapsed":1573580,"internal_node_id":"0.0-6.0-205.0"},{"sim_score":6,"rt":3302,"stimulus":"[\"img/0901/58ec7fa9-b466-4651-90aa-c082df0972de.jpg\",\"img/0902/fbef27fa-ac83-4936-ab78-9d1c20a383e1.jpg\"]","trial_type":"similarity","trial_index":212,"time_elapsed":1577893,"internal_node_id":"0.0-6.0-206.0"},{"sim_score":5,"rt":3216,"stimulus":"[\"img/0899/b45c550b-96c3-4255-ad59-48a2b4db1c1e.jpg\",\"img/0864/b3c4e378-28f0-4699-9338-2a257b4bca04.jpg\"]","trial_type":"similarity","trial_index":213,"time_elapsed":1582113,"internal_node_id":"0.0-6.0-207.0"},{"sim_score":4,"rt":1954,"stimulus":"[\"img/0901/0f670aef-ac36-496d-8142-ee5fdb21dd82.jpg\",\"img/0769/82ab9db6-4578-4e79-874f-f09100439f09.jpg\"]","trial_type":"similarity","trial_index":214,"time_elapsed":1585073,"internal_node_id":"0.0-6.0-208.0"},{"sim_score":6,"rt":3717,"stimulus":"[\"img/0902/97022122-01e4-46c3-a34f-c6260ad28428.jpg\",\"img/0902/94198618-7047-4dc9-ad04-85f4ba913067.jpg\"]","trial_type":"similarity","trial_index":215,"time_elapsed":1605153,"internal_node_id":"0.0-6.0-209.0"},{"view_history":"[{\"page_index\":0,\"viewing_time\":7765}]","rt":7765,"trial_type":"instructions","trial_index":216,"time_elapsed":1613924,"internal_node_id":"0.0-7.0"},{"rt":23575,"responses":"{\"Q0\":\"Orange-crowned Warbler\"}","answer":["Nashville Warbler"],"trial_type":"image-multi-choice","trial_index":217,"time_elapsed":1638530,"internal_node_id":"0.0-8.0-0.0"},{"rt":3653,"responses":"{\"Q0\":\"Black-and-white Warbler\"}","answer":["Black-and-white Warbler"],"trial_type":"image-multi-choice","trial_index":218,"time_elapsed":1643205,"internal_node_id":"0.0-8.0-1.0"},{"rt":12483,"responses":"{\"Q0\":\"Townsend's Warbler\"}","answer":["Townsend's Warbler"],"trial_type":"image-multi-choice","trial_index":219,"time_elapsed":1656707,"internal_node_id":"0.0-8.0-2.0"},{"rt":3633,"responses":"{\"Q0\":\"Lark Sparrow\"}","answer":["Lark Sparrow"],"trial_type":"image-multi-choice","trial_index":220,"time_elapsed":1661366,"internal_node_id":"0.0-8.0-3.0"},{"rt":2760,"responses":"{\"Q0\":\"Yellow Warbler\"}","answer":["Yellow Warbler"],"trial_type":"image-multi-choice","trial_index":221,"time_elapsed":1665149,"internal_node_id":"0.0-8.0-4.0"},{"rt":9797,"responses":"{\"Q0\":\"Tennessee Warbler\"}","answer":["Orange-crowned Warbler"],"trial_type":"image-multi-choice","trial_index":222,"time_elapsed":1675965,"internal_node_id":"0.0-8.0-5.0"},{"rt":3888,"responses":"{\"Q0\":\"White-throated Sparrow\"}","answer":["White-throated Sparrow"],"trial_type":"image-multi-choice","trial_index":223,"time_elapsed":1680878,"internal_node_id":"0.0-8.0-6.0"},{"rt":3192,"responses":"{\"Q0\":\"Fox Sparrow\"}","answer":["Fox Sparrow"],"trial_type":"image-multi-choice","trial_index":224,"time_elapsed":1685091,"internal_node_id":"0.0-8.0-7.0"},{"rt":22423,"responses":"{\"Q0\":\"Song Sparrow\"}","answer":["Song Sparrow"],"trial_type":"image-multi-choice","trial_index":225,"time_elapsed":1708543,"internal_node_id":"0.0-8.0-8.0"},{"rt":17330,"responses":"{\"Q0\":\"Blackburnian Warbler\"}","answer":["Blackburnian Warbler"],"trial_type":"image-multi-choice","trial_index":226,"time_elapsed":1726894,"internal_node_id":"0.0-8.0-9.0"},{"rt":23049,"responses":"{\"Q0\":\"Lincoln's Sparrow\"}","answer":["Vesper Sparrow"],"trial_type":"image-multi-choice","trial_index":227,"time_elapsed":1750964,"internal_node_id":"0.0-8.0-10.0"},{"rt":3383,"responses":"{\"Q0\":\"White-crowned Sparrow\"}","answer":["White-crowned Sparrow"],"trial_type":"image-multi-choice","trial_index":228,"time_elapsed":1755376,"internal_node_id":"0.0-8.0-11.0"},{"rt":7222,"responses":"{\"Q0\":\"American Tree Sparrow\"}","answer":["American Tree Sparrow"],"trial_type":"image-multi-choice","trial_index":229,"time_elapsed":1763612,"internal_node_id":"0.0-8.0-12.0"},{"rt":10175,"responses":"{\"Q0\":\"Nashville Warbler\"}","answer":["Tennessee Warbler"],"trial_type":"image-multi-choice","trial_index":230,"time_elapsed":1774813,"internal_node_id":"0.0-8.0-13.0"},{"rt":5173,"responses":"{\"Q0\":\"Magnolia Warbler\"}","answer":["Magnolia Warbler"],"trial_type":"image-multi-choice","trial_index":231,"time_elapsed":1781002,"internal_node_id":"0.0-8.0-14.0"},{"rt":4110,"responses":"{\"Q0\":\"Northern Waterthrush\"}","answer":["Northern Waterthrush"],"trial_type":"image-multi-choice","trial_index":232,"time_elapsed":1786139,"internal_node_id":"0.0-8.0-15.0"},{"rt":17315,"responses":"{\"Q0\":\"Chipping Sparrow\"}","answer":["Chipping Sparrow"],"trial_type":"image-multi-choice","trial_index":233,"time_elapsed":1804475,"internal_node_id":"0.0-8.0-16.0"},{"rt":16642,"responses":"{\"Q0\":\"Swamp Sparrow\"}","answer":["Swamp Sparrow"],"trial_type":"image-multi-choice","trial_index":234,"time_elapsed":1822140,"internal_node_id":"0.0-8.0-17.0"},{"rt":32305,"responses":"{\"Q0\":\"Lincoln's Sparrow\"}","answer":["Lincoln's Sparrow"],"trial_type":"image-multi-choice","trial_index":235,"time_elapsed":1855465,"internal_node_id":"0.0-8.0-18.0"},{"rt":4595,"responses":"{\"Q0\":\"Ovenbird\"}","answer":["Ovenbird"],"trial_type":"image-multi-choice","trial_index":236,"time_elapsed":1861081,"internal_node_id":"0.0-8.0-19.0"}]