[{"view_history":"[{\"page_index\":0,\"viewing_time\":15686}]","rt":15687,"trial_type":"instructions","trial_index":0,"time_elapsed":15689,"internal_node_id":"0.0-0.0"},{"sim_score":2,"rt":5742,"stimulus":"[\"img/866.jpg\",\"img/868.jpg\"]","trial_type":"similarity_demo","trial_index":1,"time_elapsed":22438,"internal_node_id":"0.0-1.0"},{"view_history":"[{\"page_index\":0,\"viewing_time\":14554}]","rt":14555,"trial_type":"instructions","trial_index":2,"time_elapsed":37995,"internal_node_id":"0.0-2.0"},{"sim_score":2,"rt":4317,"stimulus":"[\"img/766.jpg\",\"img/867.jpg\"]","trial_type":"similarity_demo","trial_index":3,"time_elapsed":43317,"internal_node_id":"0.0-3.0"},{"view_history":"[{\"page_index\":0,\"viewing_time\":7435}]","rt":7435,"trial_type":"instructions","trial_index":4,"time_elapsed":51753,"internal_node_id":"0.0-4.0"},{"view_history":"[{\"page_index\":0,\"viewing_time\":37609}]","rt":37610,"trial_type":"instructions","trial_index":5,"time_elapsed":90364,"internal_node_id":"0.0-5.0"},{"sim_score":2,"rt":5745,"stimulus":"[\"img/0868/7b212364-ff5f-4e28-9241-7eb6ea00161b.jpg\",\"img/0901/233a6948-48eb-4b67-8259-222b916b2322.jpg\"]","trial_type":"similarity","trial_index":6,"time_elapsed":97115,"internal_node_id":"0.0-6.0-0.0"},{"sim_score":3,"rt":4609,"stimulus":"[\"img/0769/a1ce8d07-ba37-40de-bade-2778805521e0.jpg\",\"img/0867/075e0f95-856b-4cbb-acf5-092393aaf04e.jpg\"]","trial_type":"similarity","trial_index":7,"time_elapsed":102728,"internal_node_id":"0.0-6.0-1.0"},{"sim_score":2,"rt":4100,"stimulus":"[\"img/0766/09f646c8-a69e-4ed3-879c-8d29b04ad7f9.jpg\",\"img/0898/40f99fb2-64d2-4e72-8a7f-a1cf60741e69.jpg\"]","trial_type":"similarity","trial_index":8,"time_elapsed":107836,"internal_node_id":"0.0-6.0-2.0"},{"sim_score":2,"rt":3260,"stimulus":"[\"img/0902/168ebd47-9e82-4ab7-a18b-c3da85072db8.jpg\",\"img/0881/292e9b4b-fca0-4ba8-87f1-4048f9e37b7d.jpg\"]","trial_type":"similarity","trial_index":9,"time_elapsed":112099,"internal_node_id":"0.0-6.0-3.0"},{"sim_score":7,"rt":4441,"stimulus":"[\"img/0894/8cadb87a-7001-4e47-99fb-1867bebf1668.jpg\",\"img/0894/11674fa4-285d-44e2-939f-2228c6a64080.jpg\"]","trial_type":"similarity","trial_index":10,"time_elapsed":117545,"internal_node_id":"0.0-6.0-4.0"},{"sim_score":5,"rt":4610,"stimulus":"[\"img/0874/eba003b4-cdab-4eee-8bc3-f064c7d94165.jpg\",\"img/0899/00715b3f-851b-420b-a26b-d7f79f7759a9.jpg\"]","trial_type":"similarity","trial_index":11,"time_elapsed":123158,"internal_node_id":"0.0-6.0-5.0"},{"sim_score":3,"rt":4442,"stimulus":"[\"img/0904/73920552-103b-4c9c-9ece-e0b8376b4504.jpg\",\"img/0764/23ea9375-f801-4a96-9925-7d453da887c7.jpg\"]","trial_type":"similarity","trial_index":12,"time_elapsed":128603,"internal_node_id":"0.0-6.0-6.0"},{"sim_score":2,"rt":5792,"stimulus":"[\"img/0899/51a7a498-98c7-42d7-bca8-bc2d8f0b5831.jpg\",\"img/0898/cd3aaa3f-efa9-4ab3-8d6f-a6a9273ddf42.jpg\"]","trial_type":"similarity","trial_index":13,"time_elapsed":135398,"internal_node_id":"0.0-6.0-7.0"},{"sim_score":2,"rt":4262,"stimulus":"[\"img/0874/31e22c7c-99aa-40b1-bf03-dd73fa2df4d6.jpg\",\"img/0903/6378ee1e-3d2b-48d2-87be-bebda32c8268.jpg\"]","trial_type":"similarity","trial_index":14,"time_elapsed":140663,"internal_node_id":"0.0-6.0-8.0"},{"sim_score":5,"rt":4384,"stimulus":"[\"img/0881/e6746727-7f89-47ec-b939-d98abe78372d.jpg\",\"img/0758/caa93da2-9edf-49fa-96b9-32dedd8f5078.jpg\"]","trial_type":"similarity","trial_index":15,"time_elapsed":146052,"internal_node_id":"0.0-6.0-9.0"},{"sim_score":3,"rt":5656,"stimulus":"[\"img/0898/0c7dde4f-efce-4b7a-9387-6921635b7890.jpg\",\"img/0901/a6776381-91fe-43f8-ab73-261d318f95fd.jpg\"]","trial_type":"similarity","trial_index":16,"time_elapsed":152712,"internal_node_id":"0.0-6.0-10.0"},{"sim_score":2,"rt":4431,"stimulus":"[\"img/0903/6138142e-c84e-45fc-9487-c974f3d4968a.jpg\",\"img/0769/8c7cf147-1780-4d5c-8ddf-5ea23ff03ac9.jpg\"]","trial_type":"similarity","trial_index":17,"time_elapsed":158146,"internal_node_id":"0.0-6.0-11.0"},{"sim_score":1,"rt":3395,"stimulus":"[\"img/0764/4bec8d92-75aa-475a-954d-8215dbe538f5.jpg\",\"img/0868/4e626425-63c8-484a-8a1d-e66ee4e0bef8.jpg\"]","trial_type":"similarity","trial_index":18,"time_elapsed":162545,"internal_node_id":"0.0-6.0-12.0"},{"sim_score":1,"rt":4194,"stimulus":"[\"img/0867/2e1a0b58-cdb1-4107-a14e-452530d7b9b0.jpg\",\"img/0903/71dbc325-b588-4297-a5cf-7f268a722ad9.jpg\"]","trial_type":"similarity","trial_index":19,"time_elapsed":167742,"internal_node_id":"0.0-6.0-13.0"},{"sim_score":2,"rt":4486,"stimulus":"[\"img/0766/71b81ebd-0937-4d7f-b8bf-c4e46a4728fd.jpg\",\"img/0758/6cd8c362-ae2a-41eb-80a3-3a4f7ace1530.jpg\"]","trial_type":"similarity","trial_index":20,"time_elapsed":173232,"internal_node_id":"0.0-6.0-14.0"},{"sim_score":1,"rt":3699,"stimulus":"[\"img/0902/fbef27fa-ac83-4936-ab78-9d1c20a383e1.jpg\",\"img/0860/5bff793e-cbd5-4d7e-b628-0ac2b0e30b64.jpg\"]","trial_type":"similarity","trial_index":21,"time_elapsed":177935,"internal_node_id":"0.0-6.0-15.0"},{"sim_score":1,"rt":5060,"stimulus":"[\"img/0769/3c1efec9-f8fd-487d-8955-4be88e48c832.jpg\",\"img/0875/2e13d160-eea1-416b-aff1-d37ab99ecc1d.jpg\"]","trial_type":"similarity","trial_index":22,"time_elapsed":183998,"internal_node_id":"0.0-6.0-16.0"},{"sim_score":3,"rt":4441,"stimulus":"[\"img/0904/0d17b811-063e-416e-a23c-3b3cfa4fcce5.jpg\",\"img/0866/d266fece-59b3-46fa-b69f-96f6efb81b59.jpg\"]","trial_type":"similarity","trial_index":23,"time_elapsed":189443,"internal_node_id":"0.0-6.0-17.0"},{"sim_score":6,"rt":5252,"stimulus":"[\"img/0875/f87b67d7-c33e-40d1-b281-248c4be1cb6e.jpg\",\"img/0875/03c3c331-738b-4446-af92-3d7386b08c2e.jpg\"]","trial_type":"similarity","trial_index":24,"time_elapsed":195698,"internal_node_id":"0.0-6.0-18.0"},{"sim_score":7,"rt":4936,"stimulus":"[\"img/0758/821c68d3-5cb0-4eae-8659-30e6263fca39.jpg\",\"img/0758/7ffbc76b-1fc1-432c-8f7e-9ec8d1b3f643.jpg\"]","trial_type":"similarity","trial_index":25,"time_elapsed":201638,"internal_node_id":"0.0-6.0-19.0"},{"sim_score":3,"rt":3766,"stimulus":"[\"img/0902/3b243e54-0803-4c29-af42-4037c2118495.jpg\",\"img/0874/3f471690-9788-4d03-90c7-f615aecef149.jpg\"]","trial_type":"similarity","trial_index":26,"time_elapsed":206408,"internal_node_id":"0.0-6.0-20.0"},{"sim_score":6,"rt":5847,"stimulus":"[\"img/0764/e30dba15-e68a-4659-89db-e1654b52fe02.jpg\",\"img/0769/96556ef3-7fac-4c9d-8281-1cb0ea5081bc.jpg\"]","trial_type":"similarity","trial_index":27,"time_elapsed":213260,"internal_node_id":"0.0-6.0-21.0"},{"sim_score":1,"rt":3598,"stimulus":"[\"img/0901/0adb3bd6-d758-4ba7-9723-3ad6cac05bd5.jpg\",\"img/0874/a82926a3-0b43-4add-803c-d5f9ea7798ee.jpg\"]","trial_type":"similarity","trial_index":28,"time_elapsed":217861,"internal_node_id":"0.0-6.0-22.0"},{"sim_score":2,"rt":3587,"stimulus":"[\"img/0875/5a716432-c6ca-4b1c-955a-2b8ac25198ee.jpg\",\"img/0903/2a9c8033-3e70-47fa-816d-97ee1813a3a3.jpg\"]","trial_type":"similarity","trial_index":29,"time_elapsed":222451,"internal_node_id":"0.0-6.0-23.0"},{"sim_score":1,"rt":4711,"stimulus":"[\"img/0769/7c50e5f5-cc38-4d48-b009-fbe17bcea61c.jpg\",\"img/0881/e046471a-35b4-4159-bbf7-3cfd201bef66.jpg\"]","trial_type":"similarity","trial_index":30,"time_elapsed":228166,"internal_node_id":"0.0-6.0-24.0"},{"sim_score":2,"rt":4227,"stimulus":"[\"img/0867/c71dc569-f49c-4397-8381-68b8d726736d.jpg\",\"img/0904/9b3568cc-3cf7-42be-9df3-fdafde7a58b8.jpg\"]","trial_type":"similarity","trial_index":31,"time_elapsed":233397,"internal_node_id":"0.0-6.0-25.0"},{"sim_score":5,"rt":4183,"stimulus":"[\"img/0860/c7047cd2-7cc1-41b6-8a34-c0986774975f.jpg\",\"img/0881/db77fe00-aeb0-4d1d-aa66-f3a96fd077e4.jpg\"]","trial_type":"similarity","trial_index":32,"time_elapsed":238584,"internal_node_id":"0.0-6.0-26.0"},{"sim_score":6,"rt":4497,"stimulus":"[\"img/0866/11a1d141-be5e-443c-98c1-a9d4d9e3dec0.jpg\",\"img/0866/07c9c966-3c8d-40e7-8128-92b2acbaed5d.jpg\"]","trial_type":"similarity","trial_index":33,"time_elapsed":244085,"internal_node_id":"0.0-6.0-27.0"},{"sim_score":2,"rt":3856,"stimulus":"[\"img/0764/952d7adc-dc40-4aee-acce-18c2a1d02ea1.jpg\",\"img/0862/92f0146c-20c4-482e-aef5-adb693790338.jpg\"]","trial_type":"similarity","trial_index":34,"time_elapsed":248945,"internal_node_id":"0.0-6.0-28.0"},{"sim_score":2,"rt":3981,"stimulus":"[\"img/0904/56e73f28-7e64-489b-a161-e6b1a063878d.jpg\",\"img/0758/67c0be2f-9e91-48b3-8219-70ac0a1802fa.jpg\"]","trial_type":"similarity","trial_index":35,"time_elapsed":253929,"internal_node_id":"0.0-6.0-29.0"},{"sim_score":3,"rt":5623,"stimulus":"[\"img/0894/7fb082e0-ce79-485c-9109-04367fb32275.jpg\",\"img/0899/0adc0bc3-6fca-4078-be6f-d45ddf1653d5.jpg\"]","trial_type":"similarity","trial_index":36,"time_elapsed":260555,"internal_node_id":"0.0-6.0-30.0"},{"sim_score":1,"rt":3811,"stimulus":"[\"img/0860/9593362c-9fe5-4d12-9735-6000a11f6aa5.jpg\",\"img/0904/d23dd7be-7fe8-4435-82f7-bd592c01e6a1.jpg\"]","trial_type":"similarity","trial_index":37,"time_elapsed":265370,"internal_node_id":"0.0-6.0-31.0"},{"sim_score":2,"rt":5150,"stimulus":"[\"img/0874/2c9464dd-8a23-4baa-ac94-1ba3af5c15cc.jpg\",\"img/0881/609a5e93-38b5-4940-8627-2bf8fad7f802.jpg\"]","trial_type":"similarity","trial_index":38,"time_elapsed":271524,"internal_node_id":"0.0-6.0-32.0"},{"sim_score":6,"rt":4227,"stimulus":"[\"img/0881/4bd34581-94d8-4e88-8c89-5cef864ca3be.jpg\",\"img/0899/93494f3b-d539-4075-b027-d82e344563da.jpg\"]","trial_type":"similarity","trial_index":39,"time_elapsed":276755,"internal_node_id":"0.0-6.0-33.0"},{"sim_score":1,"rt":3993,"stimulus":"[\"img/0866/c446214b-a368-4c65-ae39-ea46894256ab.jpg\",\"img/0862/064818ee-13d5-4618-bb24-21c7368ea278.jpg\"]","trial_type":"similarity","trial_index":40,"time_elapsed":281750,"internal_node_id":"0.0-6.0-34.0"},{"sim_score":3,"rt":4948,"stimulus":"[\"img/0868/09a9ef4d-d000-4cfa-a6aa-ebec7c2edeb4.jpg\",\"img/0894/9b1333fd-3561-43bf-aee5-99b7b7ca3dc3.jpg\"]","trial_type":"similarity","trial_index":41,"time_elapsed":287701,"internal_node_id":"0.0-6.0-35.0"},{"sim_score":6,"rt":4519,"stimulus":"[\"img/0860/94ef7afc-e0e6-4a15-98c6-0bfac82bc832.jpg\",\"img/0860/17b44a7d-c5ca-479f-9e87-f65a64f5c80e.jpg\"]","trial_type":"similarity","trial_index":42,"time_elapsed":293225,"internal_node_id":"0.0-6.0-36.0"},{"sim_score":5,"rt":4274,"stimulus":"[\"img/0862/fad1d7c1-8187-43c3-942a-0fc12183e48e.jpg\",\"img/0864/4bd81bc6-c13d-46df-95a9-485886dc7c1b.jpg\"]","trial_type":"similarity","trial_index":43,"time_elapsed":298501,"internal_node_id":"0.0-6.0-37.0"},{"sim_score":2,"rt":3632,"stimulus":"[\"img/0766/0b48f9e0-7d37-4161-8adb-4e3f5b6b7583.jpg\",\"img/0866/0207e9a2-7dbb-40b5-9459-b472aaeceb2a.jpg\"]","trial_type":"similarity","trial_index":44,"time_elapsed":303136,"internal_node_id":"0.0-6.0-38.0"},{"sim_score":1,"rt":4419,"stimulus":"[\"img/0875/99698b4d-b4a1-44bc-8c83-8ea755bbbf61.jpg\",\"img/0898/661621d4-a14e-487c-8c74-354134a29710.jpg\"]","trial_type":"similarity","trial_index":45,"time_elapsed":308559,"internal_node_id":"0.0-6.0-39.0"},{"sim_score":2,"rt":4092,"stimulus":"[\"img/0766/d5d38751-8fa5-476f-93e9-86ed2d9045ef.jpg\",\"img/0769/f229321f-04dd-42d7-b14a-ffad6b509862.jpg\"]","trial_type":"similarity","trial_index":46,"time_elapsed":313655,"internal_node_id":"0.0-6.0-40.0"},{"sim_score":3,"rt":4216,"stimulus":"[\"img/0874/ca23d307-fc00-4d7d-9106-584c6eb21b4d.jpg\",\"img/0764/29072395-f595-4e3c-83d3-ff87010039fa.jpg\"]","trial_type":"similarity","trial_index":47,"time_elapsed":335198,"internal_node_id":"0.0-6.0-41.0"},{"sim_score":2,"rt":4295,"stimulus":"[\"img/0868/3a62db2d-97e9-44a3-b8e3-a48c6f0e423b.jpg\",\"img/0902/418b716e-63e5-4c77-93e9-95b1f5a3ddf0.jpg\"]","trial_type":"similarity","trial_index":48,"time_elapsed":340498,"internal_node_id":"0.0-6.0-42.0"},{"sim_score":3,"rt":3643,"stimulus":"[\"img/0875/42910c99-5463-450a-a0f8-d4d060a11455.jpg\",\"img/0899/565ccdd9-0933-4536-a625-3c0e25a713dd.jpg\"]","trial_type":"similarity","trial_index":49,"time_elapsed":345144,"internal_node_id":"0.0-6.0-43.0"},{"sim_score":2,"rt":4847,"stimulus":"[\"img/0866/386235d2-6857-41e7-88a8-25cfc3430025.jpg\",\"img/0860/87039971-2210-4aab-93c0-8e9b5f1655b2.jpg\"]","trial_type":"similarity","trial_index":50,"time_elapsed":350995,"internal_node_id":"0.0-6.0-44.0"},{"sim_score":3,"rt":4317,"stimulus":"[\"img/0766/33519c22-aaa4-49d7-8d49-ab551db1945e.jpg\",\"img/0903/2c7b4aed-6038-4aac-958a-e3e58341c313.jpg\"]","trial_type":"similarity","trial_index":51,"time_elapsed":356315,"internal_node_id":"0.0-6.0-45.0"},{"sim_score":3,"rt":3597,"stimulus":"[\"img/0901/8bb79e82-9c43-4b6f-a655-40655519598b.jpg\",\"img/0904/a8c3c7d2-9bcf-4347-9e03-8203adfc1fc5.jpg\"]","trial_type":"similarity","trial_index":52,"time_elapsed":360916,"internal_node_id":"0.0-6.0-46.0"},{"sim_score":2,"rt":3339,"stimulus":"[\"img/0758/7fba58df-2a7a-4b76-8a8f-62739f97f271.jpg\",\"img/0902/40d0b6ec-3907-4573-b227-e7d8e9cad1c3.jpg\"]","trial_type":"similarity","trial_index":53,"time_elapsed":365259,"internal_node_id":"0.0-6.0-47.0"},{"sim_score":6,"rt":3339,"stimulus":"[\"img/0764/50f1b062-d608-4bc0-ab25-b872dcf2ed93.jpg\",\"img/0764/1f95ab5f-fb65-4d70-b5db-d6bd6351a8aa.jpg\"]","trial_type":"similarity","trial_index":54,"time_elapsed":369601,"internal_node_id":"0.0-6.0-48.0"},{"sim_score":1,"rt":4217,"stimulus":"[\"img/0866/93a27239-8317-4e08-98ca-d8b1ff298e07.jpg\",\"img/0902/511abb54-0094-4f4d-b6dc-3f2c97050521.jpg\"]","trial_type":"similarity","trial_index":55,"time_elapsed":374821,"internal_node_id":"0.0-6.0-49.0"},{"sim_score":2,"rt":4228,"stimulus":"[\"img/0764/5d83b9db-3b2b-4dc8-9bd1-2b515b19c858.jpg\",\"img/0758/9fb5b2fe-3f00-4fe6-973c-1ce10d5f4cd5.jpg\"]","trial_type":"similarity","trial_index":56,"time_elapsed":380053,"internal_node_id":"0.0-6.0-50.0"},{"sim_score":3,"rt":5611,"stimulus":"[\"img/0898/82231d4c-218b-4d0a-b50d-35a49b524e97.jpg\",\"img/0894/5a49e858-2850-4892-9a06-e9f0efb5f94d.jpg\"]","trial_type":"similarity","trial_index":57,"time_elapsed":386668,"internal_node_id":"0.0-6.0-51.0"},{"sim_score":2,"rt":4374,"stimulus":"[\"img/0875/dbdd643e-6d0e-4a5c-ab57-b9c29b9c981a.jpg\",\"img/0866/02f5e6b9-52b7-448c-9708-5b460d0c9a23.jpg\"]","trial_type":"similarity","trial_index":58,"time_elapsed":392045,"internal_node_id":"0.0-6.0-52.0"},{"sim_score":3,"rt":5386,"stimulus":"[\"img/0904/e9423a8c-f946-43ad-ab7b-931acef870e2.jpg\",\"img/0904/b7c2a2c8-df33-4473-b3d4-ff7147c60db3.jpg\"]","trial_type":"similarity","trial_index":59,"time_elapsed":398435,"internal_node_id":"0.0-6.0-53.0"},{"sim_score":5,"rt":5263,"stimulus":"[\"img/0769/387a9744-d6a7-42b8-bab8-33007ec434aa.jpg\",\"img/0769/f6396414-6788-4d59-9683-de153298d89c.jpg\"]","trial_type":"similarity","trial_index":60,"time_elapsed":404702,"internal_node_id":"0.0-6.0-54.0"},{"sim_score":1,"rt":5060,"stimulus":"[\"img/0898/a114b375-cb89-44ba-9498-74213f1ecdee.jpg\",\"img/0758/e1ba5e53-addc-436a-b428-d34fc1b130dc.jpg\"]","trial_type":"similarity","trial_index":61,"time_elapsed":410765,"internal_node_id":"0.0-6.0-55.0"},{"sim_score":5,"rt":4407,"stimulus":"[\"img/0769/3adfa417-3b90-4aab-b437-5eaa474189cb.jpg\",\"img/0902/cf9dee9c-2bdf-4d64-9302-97f1660fe52c.jpg\"]","trial_type":"similarity","trial_index":62,"time_elapsed":416177,"internal_node_id":"0.0-6.0-56.0"},{"sim_score":7,"rt":4486,"stimulus":"[\"img/0864/da39ad34-04e0-40d4-a724-c08d53e0ea09.jpg\",\"img/0881/14236cf2-6b95-48b8-9368-78af09d2d27f.jpg\"]","trial_type":"similarity","trial_index":63,"time_elapsed":421667,"internal_node_id":"0.0-6.0-57.0"},{"sim_score":1,"rt":4736,"stimulus":"[\"img/0758/d540bee6-b460-4c32-ac57-bc282742d7d4.jpg\",\"img/0868/c8ac40c7-6904-4e13-8d61-c75d3052dc4e.jpg\"]","trial_type":"similarity","trial_index":64,"time_elapsed":427405,"internal_node_id":"0.0-6.0-58.0"},{"sim_score":2,"rt":5127,"stimulus":"[\"img/0862/ba89835a-408c-480b-8594-ed4ffa97eb5c.jpg\",\"img/0769/878531fd-e0e8-4ad1-b9ad-f018bb104ca0.jpg\"]","trial_type":"similarity","trial_index":65,"time_elapsed":433535,"internal_node_id":"0.0-6.0-59.0"},{"sim_score":3,"rt":6072,"stimulus":"[\"img/0764/03c07b98-3f18-4b71-bb70-ecff564a78d1.jpg\",\"img/0903/0e5c2854-42aa-48c0-9c3d-6e1ad2a400bd.jpg\"]","trial_type":"similarity","trial_index":66,"time_elapsed":440612,"internal_node_id":"0.0-6.0-60.0"},{"sim_score":5,"rt":5465,"stimulus":"[\"img/0899/7b7380d5-d2be-44e5-a09a-c1756f87ef71.jpg\",\"img/0899/57476fed-5962-4272-8fc9-b317bb777b54.jpg\"]","trial_type":"similarity","trial_index":67,"time_elapsed":447081,"internal_node_id":"0.0-6.0-61.0"},{"sim_score":2,"rt":4171,"stimulus":"[\"img/0860/524b2e98-5767-4d53-942c-ebae6925659b.jpg\",\"img/0875/90da8d75-108a-44ad-b999-e21fee3860d3.jpg\"]","trial_type":"similarity","trial_index":68,"time_elapsed":452256,"internal_node_id":"0.0-6.0-62.0"},{"sim_score":1,"rt":3249,"stimulus":"[\"img/0868/179a5502-ab5c-478e-8263-5a1fbcc101d2.jpg\",\"img/0874/8cdb1c07-1c32-46d2-981c-3636560fa6e5.jpg\"]","trial_type":"similarity","trial_index":69,"time_elapsed":456509,"internal_node_id":"0.0-6.0-63.0"},{"sim_score":2,"rt":4069,"stimulus":"[\"img/0758/f61ecdf8-a7d4-4db0-b84d-be46f7cfaffc.jpg\",\"img/0862/de9ad88c-b522-430a-8ee9-eb06a9f85df5.jpg\"]","trial_type":"similarity","trial_index":70,"time_elapsed":461582,"internal_node_id":"0.0-6.0-64.0"},{"sim_score":5,"rt":4249,"stimulus":"[\"img/0904/2fd488e9-960f-41f7-8a44-33375f7d5051.jpg\",\"img/0898/5f699581-3853-4547-856c-12f419ba5af7.jpg\"]","trial_type":"similarity","trial_index":71,"time_elapsed":466836,"internal_node_id":"0.0-6.0-65.0"},{"sim_score":2,"rt":4273,"stimulus":"[\"img/0881/f62bdcd1-a4b7-4d48-83da-d9c9e01c8727.jpg\",\"img/0866/d493a2c8-66eb-44b4-be02-2f327b700b7c.jpg\"]","trial_type":"similarity","trial_index":72,"time_elapsed":472112,"internal_node_id":"0.0-6.0-66.0"},{"sim_score":2,"rt":4138,"stimulus":"[\"img/0867/bf560d4f-dee3-4f11-a385-705cc1aa5f3c.jpg\",\"img/0898/0af304a2-6a7a-4082-ab7c-4450cd08cc58.jpg\"]","trial_type":"similarity","trial_index":73,"time_elapsed":477253,"internal_node_id":"0.0-6.0-67.0"},{"sim_score":2,"rt":3891,"stimulus":"[\"img/0902/44cd9b7e-fdfb-4f78-90de-8d4c9d279365.jpg\",\"img/0764/4952d0a0-c9be-471a-8ec7-94a37bf4051d.jpg\"]","trial_type":"similarity","trial_index":74,"time_elapsed":482147,"internal_node_id":"0.0-6.0-68.0"},{"sim_score":5,"rt":4274,"stimulus":"[\"img/0875/2c361b79-c3d1-4eda-812e-bf03192407bf.jpg\",\"img/0867/db7e032f-162b-46f5-ae67-2b29679adee4.jpg\"]","trial_type":"similarity","trial_index":75,"time_elapsed":487423,"internal_node_id":"0.0-6.0-69.0"},{"sim_score":7,"rt":4982,"stimulus":"[\"img/0766/2746b119-4bba-463e-acf0-88136dc6600c.jpg\",\"img/0764/da207710-e7e4-4f42-b2e6-99b5f357f433.jpg\"]","trial_type":"similarity","trial_index":76,"time_elapsed":493409,"internal_node_id":"0.0-6.0-70.0"},{"sim_score":2,"rt":4936,"stimulus":"[\"img/0894/1b3888e6-cf36-4c4a-a039-187aa5cb71ac.jpg\",\"img/0867/179ab87a-8eac-4c52-a41f-2e48e3120f09.jpg\"]","trial_type":"similarity","trial_index":77,"time_elapsed":499349,"internal_node_id":"0.0-6.0-71.0"},{"sim_score":1,"rt":4441,"stimulus":"[\"img/0875/5a1e5100-0d94-4fec-bbe9-ca9894d2cf8e.jpg\",\"img/0764/17b088f8-3053-4140-b544-d15654cc79ef.jpg\"]","trial_type":"similarity","trial_index":78,"time_elapsed":504793,"internal_node_id":"0.0-6.0-72.0"},{"sim_score":6,"rt":3677,"stimulus":"[\"img/0867/6e19c858-b606-45b2-a4c6-910a73f1d82c.jpg\",\"img/0866/6f2a90d7-14f1-4f1b-bd64-fc0af6b9fe44.jpg\"]","trial_type":"similarity","trial_index":79,"time_elapsed":509473,"internal_node_id":"0.0-6.0-73.0"},{"sim_score":2,"rt":5116,"stimulus":"[\"img/0903/c708d08f-a108-4e04-8288-c3fcf6375db4.jpg\",\"img/0758/20497cbe-ddae-489e-86e2-ab06985ed07c.jpg\"]","trial_type":"similarity","trial_index":80,"time_elapsed":515593,"internal_node_id":"0.0-6.0-74.0"},{"sim_score":1,"rt":3699,"stimulus":"[\"img/0766/f5f78e4e-d88f-4866-951a-118ba9fec4d0.jpg\",\"img/0868/83b4350a-3b70-4cea-b7f5-b5b56f3050a8.jpg\"]","trial_type":"similarity","trial_index":81,"time_elapsed":520296,"internal_node_id":"0.0-6.0-75.0"},{"sim_score":4,"rt":4588,"stimulus":"[\"img/0874/7e4f2150-3b59-4a36-b5da-a4e0ba410531.jpg\",\"img/0766/5d1b8041-c5a1-4b02-b4fe-3453d98a0d72.jpg\"]","trial_type":"similarity","trial_index":82,"time_elapsed":525887,"internal_node_id":"0.0-6.0-76.0"},{"sim_score":1,"rt":3249,"stimulus":"[\"img/0881/dea58fad-b4f1-41d9-bd3f-916eff19a3fd.jpg\",\"img/0868/15dd6fd7-791e-4b53-b203-195d617521a4.jpg\"]","trial_type":"similarity","trial_index":83,"time_elapsed":530140,"internal_node_id":"0.0-6.0-77.0"},{"sim_score":2,"rt":4171,"stimulus":"[\"img/0758/335851a0-a55b-46d8-ab05-8463eda48349.jpg\",\"img/0901/5657dd86-0ff9-4753-ba2b-9dfb223e5c89.jpg\"]","trial_type":"similarity","trial_index":84,"time_elapsed":535315,"internal_node_id":"0.0-6.0-78.0"},{"sim_score":2,"rt":2899,"stimulus":"[\"img/0881/adc02f34-ce97-4aef-850f-00519df06fd7.jpg\",\"img/0898/c3cecf20-f7fd-45fa-97d0-dc0a63e8d6c0.jpg\"]","trial_type":"similarity","trial_index":85,"time_elapsed":539221,"internal_node_id":"0.0-6.0-79.0"},{"sim_score":1,"rt":3077,"stimulus":"[\"img/0867/f8488a47-94ee-4166-952c-44e16cf172f6.jpg\",\"img/0758/7ee8bc8f-c40b-4b3a-84ec-3e83580622d4.jpg\"]","trial_type":"similarity","trial_index":86,"time_elapsed":543302,"internal_node_id":"0.0-6.0-80.0"},{"sim_score":2,"rt":4138,"stimulus":"[\"img/0769/ebef2ddc-ba59-4e0e-97f8-927864eb5081.jpg\",\"img/0899/ad8268c5-8199-48d0-ad70-c5b6d6c599ec.jpg\"]","trial_type":"similarity","trial_index":87,"time_elapsed":548445,"internal_node_id":"0.0-6.0-81.0"},{"sim_score":5,"rt":4305,"stimulus":"[\"img/0903/b0a3c45f-467e-412f-a183-c9c1827f2e63.jpg\",\"img/0903/c3cb4a01-2797-43ca-b216-88c67b323fbb.jpg\"]","trial_type":"similarity","trial_index":88,"time_elapsed":553753,"internal_node_id":"0.0-6.0-82.0"},{"sim_score":2,"rt":3856,"stimulus":"[\"img/0867/5e07b34d-b40f-4b1c-ac10-49975bace45f.jpg\",\"img/0766/908bc45b-7c9e-4f95-806e-86b196ebcb2c.jpg\"]","trial_type":"similarity","trial_index":89,"time_elapsed":564823,"internal_node_id":"0.0-6.0-83.0"},{"sim_score":2,"rt":3192,"stimulus":"[\"img/0902/b03129ba-b087-4558-af37-e8399d6217d6.jpg\",\"img/0867/50a1b60e-3a29-44bf-b606-d4bd3746fea9.jpg\"]","trial_type":"similarity","trial_index":90,"time_elapsed":569020,"internal_node_id":"0.0-6.0-84.0"},{"sim_score":3,"rt":2855,"stimulus":"[\"img/0901/fb0a8e69-7f19-4e6e-a6bb-a48f97f9b4f3.jpg\",\"img/0875/ebf7653f-ff45-4e9f-af58-2c042ab3cd2b.jpg\"]","trial_type":"similarity","trial_index":91,"time_elapsed":572879,"internal_node_id":"0.0-6.0-85.0"},{"sim_score":3,"rt":3012,"stimulus":"[\"img/0764/ec2dd087-c471-4370-b570-95a542506a96.jpg\",\"img/0866/23a224f3-2012-4fc8-8e0f-3c36f8de27fd.jpg\"]","trial_type":"similarity","trial_index":92,"time_elapsed":576895,"internal_node_id":"0.0-6.0-86.0"},{"sim_score":3,"rt":3777,"stimulus":"[\"img/0901/58978a6d-a3e2-4c59-8d62-f60693ecc0f6.jpg\",\"img/0894/2217bdcd-23a7-42d3-823b-23f2488d7e87.jpg\"]","trial_type":"similarity","trial_index":93,"time_elapsed":581676,"internal_node_id":"0.0-6.0-87.0"},{"sim_score":2,"rt":4058,"stimulus":"[\"img/0898/f3a3f225-1248-4ac7-b93b-f0ff28485bf3.jpg\",\"img/0769/1afb527f-9887-428c-bd26-a12c2f9efb68.jpg\"]","trial_type":"similarity","trial_index":94,"time_elapsed":586739,"internal_node_id":"0.0-6.0-88.0"},{"sim_score":3,"rt":3383,"stimulus":"[\"img/0769/458d9c77-b844-40b5-bb1b-1e3bbd4da64e.jpg\",\"img/0894/5f15154e-e72e-4ce5-aafb-bce6f0564006.jpg\"]","trial_type":"similarity","trial_index":95,"time_elapsed":591126,"internal_node_id":"0.0-6.0-89.0"},{"sim_score":1,"rt":3912,"stimulus":"[\"img/0862/7918ca67-5bd3-4606-a5ea-c39fb11a9297.jpg\",\"img/0874/29830da7-be5f-44e5-b141-652a0ccf7269.jpg\"]","trial_type":"similarity","trial_index":96,"time_elapsed":596042,"internal_node_id":"0.0-6.0-90.0"},{"sim_score":2,"rt":3350,"stimulus":"[\"img/0894/86201968-6e78-4d68-9b3a-d1692e066210.jpg\",\"img/0766/27f54113-8561-4568-9ffe-0a1650ae65ec.jpg\"]","trial_type":"similarity","trial_index":97,"time_elapsed":600396,"internal_node_id":"0.0-6.0-91.0"},{"sim_score":2,"rt":3406,"stimulus":"[\"img/0874/93d1f8dc-acf2-4f03-bd8d-8ec35df276ed.jpg\",\"img/0867/1719a35d-f085-48c0-9099-16c94fe418b4.jpg\"]","trial_type":"similarity","trial_index":98,"time_elapsed":604806,"internal_node_id":"0.0-6.0-92.0"},{"sim_score":1,"rt":4643,"stimulus":"[\"img/0899/b45c550b-96c3-4255-ad59-48a2b4db1c1e.jpg\",\"img/0868/77091fc7-a590-4ebb-b915-fdb2483a2399.jpg\"]","trial_type":"similarity","trial_index":99,"time_elapsed":610454,"internal_node_id":"0.0-6.0-93.0"},{"sim_score":2,"rt":3643,"stimulus":"[\"img/0903/f10e9eb5-0c21-4a6a-944c-5f10a6d0fa4d.jpg\",\"img/0862/f43ceabf-acc1-4107-b857-5d1849808f93.jpg\"]","trial_type":"similarity","trial_index":100,"time_elapsed":615101,"internal_node_id":"0.0-6.0-94.0"},{"sim_score":5,"rt":4733,"stimulus":"[\"img/0899/f95cbdb4-f804-4f5d-ad76-373ad343e658.jpg\",\"img/0766/3c526a07-9e0a-4ae2-8142-00085f0127da.jpg\"]","trial_type":"similarity","trial_index":101,"time_elapsed":620838,"internal_node_id":"0.0-6.0-95.0"},{"sim_score":6,"rt":3935,"stimulus":"[\"img/0867/aa05d113-fc19-4756-a8eb-7878f580bc92.jpg\",\"img/0868/5fa7f9d0-f0e5-454c-8224-74d964818f56.jpg\"]","trial_type":"similarity","trial_index":102,"time_elapsed":625776,"internal_node_id":"0.0-6.0-96.0"},{"sim_score":3,"rt":3237,"stimulus":"[\"img/0862/92fcd8a4-8193-4a6a-ae09-dd4a6338b0df.jpg\",\"img/0901/a0d65c84-3f20-476a-92d1-0c01e8019cf4.jpg\"]","trial_type":"similarity","trial_index":103,"time_elapsed":630018,"internal_node_id":"0.0-6.0-97.0"},{"sim_score":2,"rt":3822,"stimulus":"[\"img/0875/fb732ab5-013a-4366-9f65-27811ed157e9.jpg\",\"img/0766/db750ba0-ce04-46e1-b601-e1b80212bad2.jpg\"]","trial_type":"similarity","trial_index":104,"time_elapsed":634844,"internal_node_id":"0.0-6.0-98.0"},{"sim_score":4,"rt":4183,"stimulus":"[\"img/0758/e38fd80d-18d0-42f3-b848-f930788e8bd7.jpg\",\"img/0874/3ce41e7c-40c8-4d58-a546-171114521796.jpg\"]","trial_type":"similarity","trial_index":105,"time_elapsed":640030,"internal_node_id":"0.0-6.0-99.0"},{"sim_score":2,"rt":3924,"stimulus":"[\"img/0904/24fc38fe-842c-4831-ad8a-b1de5c25c0a8.jpg\",\"img/0868/e0aff734-077f-40dd-9781-74821abd3621.jpg\"]","trial_type":"similarity","trial_index":106,"time_elapsed":644958,"internal_node_id":"0.0-6.0-100.0"},{"sim_score":3,"rt":4194,"stimulus":"[\"img/0903/680ed18e-b311-4ecf-9b00-7dea32128334.jpg\",\"img/0866/f756f7d1-9ad8-4a34-9ef6-7a443d705bfe.jpg\"]","trial_type":"similarity","trial_index":107,"time_elapsed":650155,"internal_node_id":"0.0-6.0-101.0"},{"sim_score":2,"rt":4048,"stimulus":"[\"img/0868/4a8a45ed-2c4f-421b-9564-409a33ecd26c.jpg\",\"img/0769/e31b3bd8-efcb-413e-aa8c-75fac2b8f2ac.jpg\"]","trial_type":"similarity","trial_index":108,"time_elapsed":655206,"internal_node_id":"0.0-6.0-102.0"},{"sim_score":5,"rt":4430,"stimulus":"[\"img/0902/10d99c89-71f7-4c81-a31e-dfc7c59f5232.jpg\",\"img/0899/8de08897-b430-42fe-9d42-840670b80f94.jpg\"]","trial_type":"similarity","trial_index":109,"time_elapsed":660640,"internal_node_id":"0.0-6.0-103.0"},{"sim_score":2,"rt":3092,"stimulus":"[\"img/0868/fd307a36-9a3a-47d7-ab7c-f810d0b35040.jpg\",\"img/0862/1c20f772-3a51-4a80-aac0-f57dc9f86c28.jpg\"]","trial_type":"similarity","trial_index":110,"time_elapsed":664735,"internal_node_id":"0.0-6.0-104.0"},{"sim_score":3,"rt":5792,"stimulus":"[\"img/0903/81368973-de81-46f4-844f-b901f3bfd66d.jpg\",\"img/0894/492d2f29-d7b9-4422-8be8-47fd58bfaa8b.jpg\"]","trial_type":"similarity","trial_index":111,"time_elapsed":671530,"internal_node_id":"0.0-6.0-105.0"},{"sim_score":5,"rt":5623,"stimulus":"[\"img/0864/e336a4c5-6648-4fd7-b2f6-93a3fb83f8c6.jpg\",\"img/0874/a3bc679d-619f-4db6-bb68-116dcb757d9c.jpg\"]","trial_type":"similarity","trial_index":112,"time_elapsed":678157,"internal_node_id":"0.0-6.0-106.0"},{"sim_score":3,"rt":3542,"stimulus":"[\"img/0862/e0f1a4e9-e1b6-45f7-af67-89f334e6630d.jpg\",\"img/0902/97022122-01e4-46c3-a34f-c6260ad28428.jpg\"]","trial_type":"similarity","trial_index":113,"time_elapsed":682702,"internal_node_id":"0.0-6.0-107.0"},{"sim_score":6,"rt":3935,"stimulus":"[\"img/0904/96e503ea-6630-4996-85f2-0237688ce441.jpg\",\"img/0903/4cbdc464-e562-4ec2-9bb6-15f894fdf528.jpg\"]","trial_type":"similarity","trial_index":114,"time_elapsed":687641,"internal_node_id":"0.0-6.0-108.0"},{"sim_score":2,"rt":4329,"stimulus":"[\"img/0764/fb7d4a20-a475-465e-a74f-aa39a0d33d16.jpg\",\"img/0864/0f537697-a314-47c3-a8cc-8df23b7e536c.jpg\"]","trial_type":"similarity","trial_index":115,"time_elapsed":692973,"internal_node_id":"0.0-6.0-109.0"},{"sim_score":2,"rt":3869,"stimulus":"[\"img/0866/620cd1aa-0800-4414-8f6e-90342e7a99ad.jpg\",\"img/0894/4739e06d-c31e-4bf1-bf91-c97fa9afb456.jpg\"]","trial_type":"similarity","trial_index":116,"time_elapsed":697844,"internal_node_id":"0.0-6.0-110.0"},{"sim_score":1,"rt":3891,"stimulus":"[\"img/0899/76ad07e2-ca25-45eb-84f2-8d80b8ca3e26.jpg\",\"img/0903/6f343da5-00d9-4d50-89d1-2ed24cdb8319.jpg\"]","trial_type":"similarity","trial_index":117,"time_elapsed":702738,"internal_node_id":"0.0-6.0-111.0"},{"sim_score":6,"rt":5015,"stimulus":"[\"img/0902/1a120fb9-dbd6-443e-ba91-b4aceab963da.jpg\",\"img/0904/4d7d70a3-9477-4921-bda0-f9531d0a5c5b.jpg\"]","trial_type":"similarity","trial_index":118,"time_elapsed":708757,"internal_node_id":"0.0-6.0-112.0"},{"sim_score":1,"rt":4194,"stimulus":"[\"img/0864/65210d57-1153-4657-886a-32e758f49b4a.jpg\",\"img/0860/31ff6436-98bf-4652-bed2-40f627229568.jpg\"]","trial_type":"similarity","trial_index":119,"time_elapsed":713954,"internal_node_id":"0.0-6.0-113.0"},{"sim_score":2,"rt":3856,"stimulus":"[\"img/0860/e14d67c1-6d92-4f1e-9257-c8607159c19c.jpg\",\"img/0899/5b56dd3e-3f49-47cc-af84-16da6457753b.jpg\"]","trial_type":"similarity","trial_index":120,"time_elapsed":718815,"internal_node_id":"0.0-6.0-114.0"},{"sim_score":1,"rt":5397,"stimulus":"[\"img/0881/b1a136f7-8511-4d3a-a0f6-3879acf1e1a1.jpg\",\"img/0903/72197c2b-403e-4a26-b391-f1aa8dea4b76.jpg\"]","trial_type":"similarity","trial_index":121,"time_elapsed":725215,"internal_node_id":"0.0-6.0-115.0"},{"sim_score":3,"rt":3958,"stimulus":"[\"img/0894/38cf335f-f76f-4349-8d65-e20cd6859565.jpg\",\"img/0874/bf14b896-e930-4fd9-9c05-2e83317a2773.jpg\"]","trial_type":"similarity","trial_index":122,"time_elapsed":730177,"internal_node_id":"0.0-6.0-116.0"},{"sim_score":6,"rt":4149,"stimulus":"[\"img/0881/84397291-bc14-4fbf-90e8-241e486ab0fe.jpg\",\"img/0862/a0a3a7ba-7798-46a3-b4ca-05e1f6e581d0.jpg\"]","trial_type":"similarity","trial_index":123,"time_elapsed":735329,"internal_node_id":"0.0-6.0-117.0"},{"sim_score":3,"rt":4431,"stimulus":"[\"img/0868/0d3abd3a-b6c3-4584-a9f7-e2da63748b3d.jpg\",\"img/0875/cff79b3a-a797-4393-9757-6275f999ec04.jpg\"]","trial_type":"similarity","trial_index":124,"time_elapsed":740763,"internal_node_id":"0.0-6.0-118.0"},{"sim_score":2,"rt":4228,"stimulus":"[\"img/0860/c3379ff7-0763-48fe-a1ec-7ea3d611bc7a.jpg\",\"img/0758/6e95579b-5166-487c-b8cb-e417c6a218e3.jpg\"]","trial_type":"similarity","trial_index":125,"time_elapsed":745994,"internal_node_id":"0.0-6.0-119.0"},{"sim_score":1,"rt":3935,"stimulus":"[\"img/0864/b3c4e378-28f0-4699-9338-2a257b4bca04.jpg\",\"img/0875/34132396-d896-4c2d-8087-646dd867e769.jpg\"]","trial_type":"similarity","trial_index":126,"time_elapsed":750933,"internal_node_id":"0.0-6.0-120.0"},{"sim_score":3,"rt":3845,"stimulus":"[\"img/0898/e167334e-cc1d-4986-b3b1-c7bc7da64baa.jpg\",\"img/0866/bf14b5bd-fb55-47db-86b9-4f8aeb9a6dad.jpg\"]","trial_type":"similarity","trial_index":127,"time_elapsed":755782,"internal_node_id":"0.0-6.0-121.0"},{"sim_score":2,"rt":2981,"stimulus":"[\"img/0874/85eb9b8a-c4c6-4e5a-b8e7-363a87a82054.jpg\",\"img/0904/9dd5708f-3f8b-46a9-b49f-2f2fab87b357.jpg\"]","trial_type":"similarity","trial_index":128,"time_elapsed":759766,"internal_node_id":"0.0-6.0-122.0"},{"sim_score":6,"rt":5632,"stimulus":"[\"img/0904/4e58005d-a2ec-4aaa-b199-445343561396.jpg\",\"img/0864/1d15626a-2f7c-410f-819c-0fa2c967e95e.jpg\"]","trial_type":"similarity","trial_index":129,"time_elapsed":766402,"internal_node_id":"0.0-6.0-123.0"},{"sim_score":3,"rt":5128,"stimulus":"[\"img/0894/7f2f31fd-6618-41c6-b65a-0fd8b2851bc9.jpg\",\"img/0902/962f645e-9b55-4628-9b50-c703422bfe1a.jpg\"]","trial_type":"similarity","trial_index":130,"time_elapsed":772533,"internal_node_id":"0.0-6.0-124.0"},{"sim_score":1,"rt":3868,"stimulus":"[\"img/0868/4bd5105a-d2c3-4f82-8c80-57196106ba53.jpg\",\"img/0864/e8bd659f-aa43-4748-877e-3118e8b4e189.jpg\"]","trial_type":"similarity","trial_index":131,"time_elapsed":780340,"internal_node_id":"0.0-6.0-125.0"},{"sim_score":2,"rt":3800,"stimulus":"[\"img/0899/25ae6ec8-9565-49fe-a8bb-8d0666f52716.jpg\",\"img/0866/a15b02be-11bb-43e3-b0e0-ecc3bd7dfc49.jpg\"]","trial_type":"similarity","trial_index":132,"time_elapsed":785145,"internal_node_id":"0.0-6.0-126.0"},{"sim_score":3,"rt":3991,"stimulus":"[\"img/0875/8521fd58-3b1e-4dc5-97ae-804edfa6734a.jpg\",\"img/0904/06dacdc5-2206-4fb8-92b7-88042d22833c.jpg\"]","trial_type":"similarity","trial_index":133,"time_elapsed":790140,"internal_node_id":"0.0-6.0-127.0"},{"sim_score":2,"rt":4116,"stimulus":"[\"img/0867/c66898ba-b71b-4d50-84f9-f7f84853a98d.jpg\",\"img/0899/8abe6c69-822c-436c-9bf2-96c818b49ba5.jpg\"]","trial_type":"similarity","trial_index":134,"time_elapsed":795259,"internal_node_id":"0.0-6.0-128.0"},{"sim_score":1,"rt":3495,"stimulus":"[\"img/0901/148b747a-7392-437e-8823-33053c5dff3f.jpg\",\"img/0867/ac1797e4-8afc-48fe-b252-86d1defb1cca.jpg\"]","trial_type":"similarity","trial_index":135,"time_elapsed":799762,"internal_node_id":"0.0-6.0-129.0"},{"sim_score":6,"rt":3875,"stimulus":"[\"img/0864/6e846d43-94a6-4b37-a268-65eda979f052.jpg\",\"img/0769/11518cb3-13ea-4dd0-890c-30cfab728ade.jpg\"]","trial_type":"similarity","trial_index":136,"time_elapsed":804641,"internal_node_id":"0.0-6.0-130.0"},{"sim_score":1,"rt":3508,"stimulus":"[\"img/0903/0a92ec52-4e87-410a-857a-4455cde56a70.jpg\",\"img/0868/8b0b8473-e2c0-4331-aa56-c3a5c29369da.jpg\"]","trial_type":"similarity","trial_index":137,"time_elapsed":809153,"internal_node_id":"0.0-6.0-131.0"},{"sim_score":1,"rt":3383,"stimulus":"[\"img/0864/ea327690-500b-4137-bf91-451b309fe6a5.jpg\",\"img/0867/f8159067-056c-41f1-a136-c529fe5e970a.jpg\"]","trial_type":"similarity","trial_index":138,"time_elapsed":813540,"internal_node_id":"0.0-6.0-132.0"},{"sim_score":5,"rt":4341,"stimulus":"[\"img/0901/12da1841-e611-435c-9719-109413d536a8.jpg\",\"img/0860/c5ccd1a4-4bb7-48e1-9b25-72cfaf06909b.jpg\"]","trial_type":"similarity","trial_index":139,"time_elapsed":818883,"internal_node_id":"0.0-6.0-133.0"},{"sim_score":5,"rt":3778,"stimulus":"[\"img/0881/445edb15-bd7f-4af3-8bd5-c6ad9677bb31.jpg\",\"img/0766/ef3b15ce-abb7-4292-ad93-aec8e8b50520.jpg\"]","trial_type":"similarity","trial_index":140,"time_elapsed":823666,"internal_node_id":"0.0-6.0-134.0"},{"sim_score":1,"rt":3000,"stimulus":"[\"img/0903/9b60ef5b-234f-4239-892b-3d4c412accc2.jpg\",\"img/0864/efcfbb1b-8197-44c9-b723-40d6c608dd3c.jpg\"]","trial_type":"similarity","trial_index":141,"time_elapsed":827670,"internal_node_id":"0.0-6.0-135.0"},{"sim_score":1,"rt":3755,"stimulus":"[\"img/0758/2fa3e613-e676-4e6e-bd12-705327eeb3e1.jpg\",\"img/0894/3664e04c-c6d3-4c9b-afb6-25d89974b174.jpg\"]","trial_type":"similarity","trial_index":142,"time_elapsed":832428,"internal_node_id":"0.0-6.0-136.0"},{"sim_score":2,"rt":3631,"stimulus":"[\"img/0769/965c3c44-d9e5-47c5-b61a-2bbdf4215d9a.jpg\",\"img/0860/e8b8c51e-1834-4875-8b61-6c5bc9b178bd.jpg\"]","trial_type":"similarity","trial_index":143,"time_elapsed":837063,"internal_node_id":"0.0-6.0-137.0"},{"sim_score":1,"rt":4150,"stimulus":"[\"img/0904/4b8daf2a-13a9-4ea9-9e0b-b265b6e933e7.jpg\",\"img/0766/d50d734f-285c-4840-bc7a-c8dd4aff391e.jpg\"]","trial_type":"similarity","trial_index":144,"time_elapsed":842216,"internal_node_id":"0.0-6.0-138.0"},{"sim_score":1,"rt":3529,"stimulus":"[\"img/0868/1a62b2b2-18f5-466e-b564-5176a57c565e.jpg\",\"img/0860/702bd09d-df3a-40aa-a267-5f04474305b5.jpg\"]","trial_type":"similarity","trial_index":145,"time_elapsed":846750,"internal_node_id":"0.0-6.0-139.0"},{"sim_score":2,"rt":8165,"stimulus":"[\"img/0758/b76ceca7-95ac-46e4-ac13-da02c8e93be9.jpg\",\"img/0864/ef9cbca0-4be8-435d-ad49-977259e80409.jpg\"]","trial_type":"similarity","trial_index":146,"time_elapsed":855918,"internal_node_id":"0.0-6.0-140.0"},{"sim_score":7,"rt":4060,"stimulus":"[\"img/0867/a498eef3-9fa4-4ab2-9778-4ae82ac40dc5.jpg\",\"img/0867/85a96c62-548f-4994-9553-819e03c3135a.jpg\"]","trial_type":"similarity","trial_index":147,"time_elapsed":860981,"internal_node_id":"0.0-6.0-141.0"},{"sim_score":6,"rt":3958,"stimulus":"[\"img/0898/b2732712-71c2-45d8-834f-2b2ed5504910.jpg\",\"img/0898/881e2a85-d5c2-49be-a0c6-8a6ce2c4af08.jpg\"]","trial_type":"similarity","trial_index":148,"time_elapsed":865942,"internal_node_id":"0.0-6.0-142.0"},{"sim_score":2,"rt":4126,"stimulus":"[\"img/0866/8efcaa46-83ab-4dee-a35f-850402aa21ae.jpg\",\"img/0769/75f7e514-0548-4329-b1e4-93c05e74f038.jpg\"]","trial_type":"similarity","trial_index":149,"time_elapsed":871072,"internal_node_id":"0.0-6.0-143.0"},{"sim_score":5,"rt":5240,"stimulus":"[\"img/0860/fd4662f9-4c03-4d79-8593-06735e55a64b.jpg\",\"img/0898/81b08535-2020-4c15-9ce4-2f1e460755ae.jpg\"]","trial_type":"similarity","trial_index":150,"time_elapsed":877316,"internal_node_id":"0.0-6.0-144.0"},{"sim_score":5,"rt":5128,"stimulus":"[\"img/0766/69e486f7-dbef-456b-9d48-53d814248a28.jpg\",\"img/0864/e02eddb5-f468-499c-91bf-f7be3ffe979b.jpg\"]","trial_type":"similarity","trial_index":151,"time_elapsed":883447,"internal_node_id":"0.0-6.0-145.0"},{"sim_score":5,"rt":6534,"stimulus":"[\"img/0860/8fdba999-b946-4c7d-9891-336018b563ef.jpg\",\"img/0903/8f7f9939-b8e6-433f-93dd-b362496c80a7.jpg\"]","trial_type":"similarity","trial_index":152,"time_elapsed":890985,"internal_node_id":"0.0-6.0-146.0"},{"sim_score":4,"rt":3834,"stimulus":"[\"img/0867/de92135f-5b65-4ed9-b245-188292c7c2f8.jpg\",\"img/0764/55b3fab1-b809-4d38-a461-3f40ce062f52.jpg\"]","trial_type":"similarity","trial_index":153,"time_elapsed":895822,"internal_node_id":"0.0-6.0-147.0"},{"sim_score":5,"rt":4003,"stimulus":"[\"img/0769/662ab839-88d1-4ebf-af05-9b2980cad943.jpg\",\"img/0904/da170c1b-9651-4f08-b231-2bdd1d9a046f.jpg\"]","trial_type":"similarity","trial_index":154,"time_elapsed":900829,"internal_node_id":"0.0-6.0-148.0"},{"sim_score":2,"rt":3530,"stimulus":"[\"img/0764/0e7ed062-f798-4366-8a24-6f430926f919.jpg\",\"img/0901/3db47171-0139-4235-82cd-0b1787b6775f.jpg\"]","trial_type":"similarity","trial_index":155,"time_elapsed":905362,"internal_node_id":"0.0-6.0-149.0"},{"sim_score":2,"rt":3880,"stimulus":"[\"img/0904/2c98dc56-88d1-4fb5-a999-b6a7861f65f0.jpg\",\"img/0899/06b0fc99-0581-461a-9913-d1a5a941ac61.jpg\"]","trial_type":"similarity","trial_index":156,"time_elapsed":910246,"internal_node_id":"0.0-6.0-150.0"},{"sim_score":1,"rt":4293,"stimulus":"[\"img/0862/24cdc752-c2e5-4a17-86a6-6f2045d8553b.jpg\",\"img/0867/f26f6b60-f772-4f4c-95a4-addc62cfd692.jpg\"]","trial_type":"similarity","trial_index":157,"time_elapsed":915544,"internal_node_id":"0.0-6.0-151.0"},{"sim_score":7,"rt":4779,"stimulus":"[\"img/0766/fd064894-7147-4af5-97e9-2089d5472656.jpg\",\"img/0766/75c3d627-4f3b-40d5-9d9c-10c8a62db644.jpg\"]","trial_type":"similarity","trial_index":158,"time_elapsed":921327,"internal_node_id":"0.0-6.0-152.0"},{"sim_score":6,"rt":3799,"stimulus":"[\"img/0862/cdaed51d-9e2f-4807-801a-4663c40077e2.jpg\",\"img/0894/e6385e52-6c35-43bd-b0af-bc803d107b11.jpg\"]","trial_type":"similarity","trial_index":159,"time_elapsed":926130,"internal_node_id":"0.0-6.0-153.0"},{"sim_score":1,"rt":4442,"stimulus":"[\"img/0899/66bf4113-ee12-426c-84d2-ea410b6c803e.jpg\",\"img/0901/31c032fd-3c3d-4882-a226-da9a80198937.jpg\"]","trial_type":"similarity","trial_index":160,"time_elapsed":931575,"internal_node_id":"0.0-6.0-154.0"},{"sim_score":7,"rt":3463,"stimulus":"[\"img/0874/1016b306-087c-4afc-aa08-fa527b28dc76.jpg\",\"img/0874/c0378dac-9370-439a-8b79-db27c96fb390.jpg\"]","trial_type":"similarity","trial_index":161,"time_elapsed":936041,"internal_node_id":"0.0-6.0-155.0"},{"sim_score":1,"rt":4048,"stimulus":"[\"img/0860/4a022222-056d-461c-ab02-39fac9647552.jpg\",\"img/0867/12264664-1860-46df-8c21-162b9817cdda.jpg\"]","trial_type":"similarity","trial_index":162,"time_elapsed":941093,"internal_node_id":"0.0-6.0-156.0"},{"sim_score":1,"rt":4070,"stimulus":"[\"img/0901/d61f267a-c492-4db6-9bfb-61efd49cf072.jpg\",\"img/0881/b549bc99-a61c-4450-bab5-9efc3a197bf0.jpg\"]","trial_type":"similarity","trial_index":163,"time_elapsed":946166,"internal_node_id":"0.0-6.0-157.0"},{"sim_score":5,"rt":3957,"stimulus":"[\"img/0903/a0673b55-6040-47fe-9040-24bca27ca3c9.jpg\",\"img/0902/30c420f5-c714-4681-ae5a-c0ba8f636a26.jpg\"]","trial_type":"similarity","trial_index":164,"time_elapsed":951128,"internal_node_id":"0.0-6.0-158.0"},{"sim_score":1,"rt":3878,"stimulus":"[\"img/0860/99c589b9-9140-4d17-90c0-b344323edcda.jpg\",\"img/0764/e48e6c6f-9e28-420f-836a-8043b2319bb4.jpg\"]","trial_type":"similarity","trial_index":165,"time_elapsed":956011,"internal_node_id":"0.0-6.0-159.0"},{"sim_score":1,"rt":3879,"stimulus":"[\"img/0902/2a7ac123-414a-476a-9a96-4757b924baef.jpg\",\"img/0875/3ecb367d-e9eb-4826-8aaa-7aa72fb98019.jpg\"]","trial_type":"similarity","trial_index":166,"time_elapsed":960893,"internal_node_id":"0.0-6.0-160.0"},{"sim_score":2,"rt":3902,"stimulus":"[\"img/0898/04e39a7a-fcf6-4156-ab0e-f5871f335e1c.jpg\",\"img/0862/00c06b00-3b73-44e9-bc1e-c5aafb438321.jpg\"]","trial_type":"similarity","trial_index":167,"time_elapsed":965798,"internal_node_id":"0.0-6.0-161.0"},{"sim_score":1,"rt":4227,"stimulus":"[\"img/0894/792c83e9-a747-4000-bc72-5663d2439edb.jpg\",\"img/0875/d59ff733-eaff-4ee2-9443-06954dd0bcb6.jpg\"]","trial_type":"similarity","trial_index":168,"time_elapsed":971029,"internal_node_id":"0.0-6.0-162.0"},{"sim_score":1,"rt":2698,"stimulus":"[\"img/0866/be24ab58-230e-4db8-9f45-ff04c9aec6bb.jpg\",\"img/0864/0116ca98-293d-4fa6-a93b-5a6144ef64cc.jpg\"]","trial_type":"similarity","trial_index":169,"time_elapsed":974730,"internal_node_id":"0.0-6.0-163.0"},{"sim_score":2,"rt":4677,"stimulus":"[\"img/0766/79767d11-b612-4e8a-9e4b-a8ac95bb6a54.jpg\",\"img/0862/4f0a3b4c-afbf-486e-b248-1d54982f54b4.jpg\"]","trial_type":"similarity","trial_index":170,"time_elapsed":980412,"internal_node_id":"0.0-6.0-164.0"},{"sim_score":1,"rt":2980,"stimulus":"[\"img/0866/945c6710-d15b-4a5b-a8f6-69af0850357f.jpg\",\"img/0874/ca76a855-4e77-4f2f-872a-0a718153e7ed.jpg\"]","trial_type":"similarity","trial_index":171,"time_elapsed":984394,"internal_node_id":"0.0-6.0-165.0"},{"sim_score":5,"rt":3969,"stimulus":"[\"img/0862/5d887e9f-89e2-4ebc-80a0-6d46fe6480db.jpg\",\"img/0860/c47fdead-eb02-4989-b078-26f4852f44fe.jpg\"]","trial_type":"similarity","trial_index":172,"time_elapsed":989366,"internal_node_id":"0.0-6.0-166.0"},{"sim_score":2,"rt":2980,"stimulus":"[\"img/0766/00891401-e4c9-4ce1-bc19-f70740d174bc.jpg\",\"img/0901/62315ff5-ed95-46b4-b099-92552079659b.jpg\"]","trial_type":"similarity","trial_index":173,"time_elapsed":996138,"internal_node_id":"0.0-6.0-167.0"},{"sim_score":7,"rt":4161,"stimulus":"[\"img/0862/ee3b7bff-4a70-4e84-9bea-4a565e456acb.jpg\",\"img/0862/e8cc3bdf-cc43-4565-bccf-492626c70953.jpg\"]","trial_type":"similarity","trial_index":174,"time_elapsed":1001303,"internal_node_id":"0.0-6.0-168.0"},{"sim_score":5,"rt":4588,"stimulus":"[\"img/0894/05161000-f476-499b-a878-c13c7f347fd9.jpg\",\"img/0764/c643e165-df19-459f-8c2b-8357bf432a17.jpg\"]","trial_type":"similarity","trial_index":175,"time_elapsed":1006894,"internal_node_id":"0.0-6.0-169.0"},{"sim_score":2,"rt":4115,"stimulus":"[\"img/0874/99f6563c-8a8d-4c1c-a41d-667b618c3fd5.jpg\",\"img/0898/224c1572-56b9-4f16-a9e4-6f3bc9c114bd.jpg\"]","trial_type":"similarity","trial_index":176,"time_elapsed":1012013,"internal_node_id":"0.0-6.0-170.0"},{"sim_score":1,"rt":3024,"stimulus":"[\"img/0860/b03b963d-949b-4d8d-b19c-4950c89eeca2.jpg\",\"img/0766/d3bab2fc-ddcc-40a0-bb72-c0d0ebe19978.jpg\"]","trial_type":"similarity","trial_index":177,"time_elapsed":1016046,"internal_node_id":"0.0-6.0-171.0"},{"sim_score":2,"rt":5403,"stimulus":"[\"img/0898/79233891-305a-4a6a-8ddf-5c8604858203.jpg\",\"img/0864/a248adb3-c70b-4652-b7a3-776d2a1e904b.jpg\"]","trial_type":"similarity","trial_index":178,"time_elapsed":1022453,"internal_node_id":"0.0-6.0-172.0"},{"sim_score":2,"rt":3497,"stimulus":"[\"img/0881/405484ae-0d00-4b05-bc57-6420a36adfac.jpg\",\"img/0764/8740679b-b56f-4292-aece-14063457113a.jpg\"]","trial_type":"similarity","trial_index":179,"time_elapsed":1026953,"internal_node_id":"0.0-6.0-173.0"},{"sim_score":1,"rt":4082,"stimulus":"[\"img/0898/b3290bf9-215b-4b45-b21a-65bdf73f142f.jpg\",\"img/0868/d6d1f30d-4323-435a-b194-7892521bc57e.jpg\"]","trial_type":"similarity","trial_index":180,"time_elapsed":1032038,"internal_node_id":"0.0-6.0-174.0"},{"sim_score":6,"rt":5263,"stimulus":"[\"img/0864/afcba0a3-7e27-4757-b254-e9f05fad27e2.jpg\",\"img/0864/c3b63e8f-ea39-4d70-a1f2-b3fe4be8eb75.jpg\"]","trial_type":"similarity","trial_index":181,"time_elapsed":1038304,"internal_node_id":"0.0-6.0-175.0"},{"sim_score":2,"rt":4025,"stimulus":"[\"img/0899/d60714ae-98d7-4564-8c98-94dba1351135.jpg\",\"img/0862/e697469a-ec19-4414-b972-7b9f3564785b.jpg\"]","trial_type":"similarity","trial_index":182,"time_elapsed":1043333,"internal_node_id":"0.0-6.0-176.0"},{"sim_score":1,"rt":3013,"stimulus":"[\"img/0875/a4935837-7d3c-4df6-88c1-36a94d4991ca.jpg\",\"img/0758/53f35650-e455-4b53-8be4-c3c8271c6466.jpg\"]","trial_type":"similarity","trial_index":183,"time_elapsed":1047349,"internal_node_id":"0.0-6.0-177.0"},{"sim_score":2,"rt":3541,"stimulus":"[\"img/0866/9b38d691-1802-4959-ab3f-fc902f0e4ea6.jpg\",\"img/0901/a9b9c0a0-8aed-4888-a78a-65fb7e764d13.jpg\"]","trial_type":"similarity","trial_index":184,"time_elapsed":1051894,"internal_node_id":"0.0-6.0-178.0"},{"sim_score":6,"rt":4396,"stimulus":"[\"img/0769/48a1144d-fbda-4809-991b-fc8424a32ee4.jpg\",\"img/0874/adf9a8f1-c40b-402b-b95b-1e85a54a7b62.jpg\"]","trial_type":"similarity","trial_index":185,"time_elapsed":1057294,"internal_node_id":"0.0-6.0-179.0"},{"sim_score":2,"rt":2845,"stimulus":"[\"img/0875/527ced51-8e53-4aab-ab05-86df219104c0.jpg\",\"img/0881/f4e3e181-b3c9-4af2-a5a4-fc135ab70d2e.jpg\"]","trial_type":"similarity","trial_index":186,"time_elapsed":1061142,"internal_node_id":"0.0-6.0-180.0"},{"sim_score":2,"rt":2957,"stimulus":"[\"img/0866/a04d37f0-99dd-478a-b6c6-58b215138f84.jpg\",\"img/0868/6a28c3b0-3d76-498a-9fb7-ddafc665eca8.jpg\"]","trial_type":"similarity","trial_index":187,"time_elapsed":1065102,"internal_node_id":"0.0-6.0-181.0"},{"sim_score":2,"rt":4779,"stimulus":"[\"img/0899/0433d056-aa30-4f8a-9aa1-abbb951e4edd.jpg\",\"img/0758/dd559618-7f09-4a07-8018-d311c4a5ea29.jpg\"]","trial_type":"similarity","trial_index":188,"time_elapsed":1070885,"internal_node_id":"0.0-6.0-182.0"},{"sim_score":1,"rt":2990,"stimulus":"[\"img/0874/995f0332-0439-4eb4-add3-957335dbf6d9.jpg\",\"img/0875/e7e66b13-b573-431e-b85e-288ce04a35a3.jpg\"]","trial_type":"similarity","trial_index":189,"time_elapsed":1074878,"internal_node_id":"0.0-6.0-183.0"},{"sim_score":5,"rt":5229,"stimulus":"[\"img/0904/1d10df11-b5c8-4370-9a6b-097a7f965895.jpg\",\"img/0862/53a9cf7c-93c4-41b9-952f-07d17f7a17b2.jpg\"]","trial_type":"similarity","trial_index":190,"time_elapsed":1081111,"internal_node_id":"0.0-6.0-184.0"},{"sim_score":2,"rt":3418,"stimulus":"[\"img/0902/82d20e8c-2162-47a6-925b-52906558c046.jpg\",\"img/0766/717fd72f-a281-499b-a5ba-5e2ecc4d4866.jpg\"]","trial_type":"similarity","trial_index":191,"time_elapsed":1085532,"internal_node_id":"0.0-6.0-185.0"},{"sim_score":1,"rt":4566,"stimulus":"[\"img/0758/65d426d6-3ff6-415d-8654-a43b83ecc4fe.jpg\",\"img/0769/8056889f-2b14-4782-bb25-b4e8896ab65b.jpg\"]","trial_type":"similarity","trial_index":192,"time_elapsed":1091101,"internal_node_id":"0.0-6.0-186.0"},{"sim_score":6,"rt":5150,"stimulus":"[\"img/0881/20af39f5-373d-4a55-a437-2dc4c0382c46.jpg\",\"img/0881/62a64f90-7a72-4aee-a1a1-0c548ac9bdda.jpg\"]","trial_type":"similarity","trial_index":193,"time_elapsed":1097255,"internal_node_id":"0.0-6.0-187.0"},{"sim_score":2,"rt":3204,"stimulus":"[\"img/0758/d57c2592-a317-4f63-91be-91a3a9afd222.jpg\",\"img/0866/4a87911a-d5be-4d4e-ab8e-3d1f581bf507.jpg\"]","trial_type":"similarity","trial_index":194,"time_elapsed":1101462,"internal_node_id":"0.0-6.0-188.0"},{"sim_score":2,"rt":5780,"stimulus":"[\"img/0764/1def7b22-b054-4ec2-860b-73d25691823b.jpg\",\"img/0898/ec565187-2e31-4fdd-9a5c-153d0c789ae0.jpg\"]","trial_type":"similarity","trial_index":195,"time_elapsed":1108246,"internal_node_id":"0.0-6.0-189.0"},{"sim_score":3,"rt":4711,"stimulus":"[\"img/0903/0fb24af7-9a26-4e9d-aadc-959a36f683e2.jpg\",\"img/0901/effc03f6-8f9d-46db-a66c-16fc83891c5c.jpg\"]","trial_type":"similarity","trial_index":196,"time_elapsed":1113961,"internal_node_id":"0.0-6.0-190.0"},{"sim_score":3,"rt":6512,"stimulus":"[\"img/0902/d2c34af0-8c50-437d-8cc3-619195a3e8ba.jpg\",\"img/0898/8605a25b-6895-476d-8c13-df7a83f96093.jpg\"]","trial_type":"similarity","trial_index":197,"time_elapsed":1121476,"internal_node_id":"0.0-6.0-191.0"},{"sim_score":2,"rt":3992,"stimulus":"[\"img/0864/6f631579-acf1-415c-a42c-1207f62a8d99.jpg\",\"img/0901/b453df0b-4c39-49bb-8ced-6127efffa898.jpg\"]","trial_type":"similarity","trial_index":198,"time_elapsed":1126472,"internal_node_id":"0.0-6.0-192.0"},{"sim_score":1,"rt":3934,"stimulus":"[\"img/0894/76c1201f-8524-4865-85e6-dda8cb4ac986.jpg\",\"img/0881/44e09805-5a25-4f17-a716-4ad4a331b174.jpg\"]","trial_type":"similarity","trial_index":199,"time_elapsed":1131410,"internal_node_id":"0.0-6.0-193.0"},{"sim_score":6,"rt":3879,"stimulus":"[\"img/0868/293079b8-7e0c-4afd-a390-1e5d35fe3ded.jpg\",\"img/0868/d98ca254-b195-477f-b57e-5760a2717db8.jpg\"]","trial_type":"similarity","trial_index":200,"time_elapsed":1136292,"internal_node_id":"0.0-6.0-194.0"},{"sim_score":3,"rt":5477,"stimulus":"[\"img/0899/4f7bc593-8ddd-4da3-a0b9-84da730d3370.jpg\",\"img/0764/56441045-b648-4ede-9632-3e9c0227080b.jpg\"]","trial_type":"similarity","trial_index":201,"time_elapsed":1142773,"internal_node_id":"0.0-6.0-195.0"},{"sim_score":2,"rt":5137,"stimulus":"[\"img/0881/c843e210-bdfe-4a7c-8bbe-fcea1f90fe1c.jpg\",\"img/0904/65e2b70a-b184-4da3-b5c0-5038bdf9469a.jpg\"]","trial_type":"similarity","trial_index":202,"time_elapsed":1148915,"internal_node_id":"0.0-6.0-196.0"},{"sim_score":1,"rt":3767,"stimulus":"[\"img/0864/c22faebd-9c53-47bc-ada3-b9a30c688e75.jpg\",\"img/0902/d3e55000-c839-4bf9-9b9b-4af0a9925af1.jpg\"]","trial_type":"similarity","trial_index":203,"time_elapsed":1153685,"internal_node_id":"0.0-6.0-197.0"},{"sim_score":4,"rt":6388,"stimulus":"[\"img/0894/e5edf723-72a5-4673-8441-6c1734a8929b.jpg\",\"img/0904/b5855d6a-7ef9-46ca-9215-6e9fa046e543.jpg\"]","trial_type":"similarity","trial_index":204,"time_elapsed":1161076,"internal_node_id":"0.0-6.0-198.0"},{"sim_score":7,"rt":4172,"stimulus":"[\"img/0901/4f9cffe0-c0be-4d7f-bacd-9d51efd19b4a.jpg\",\"img/0901/f1116359-1ff1-4638-b3b3-700918d36d18.jpg\"]","trial_type":"similarity","trial_index":205,"time_elapsed":1166251,"internal_node_id":"0.0-6.0-199.0"},{"sim_score":2,"rt":3756,"stimulus":"[\"img/0894/43216a7f-27bc-4b5a-8841-d122a30da9d9.jpg\",\"img/0860/8277806e-b684-4474-8f7b-3fca946d7d4f.jpg\"]","trial_type":"similarity","trial_index":206,"time_elapsed":1171010,"internal_node_id":"0.0-6.0-200.0"},{"sim_score":6,"rt":4205,"stimulus":"[\"img/0898/a8f16b02-e19f-423b-86c3-a36562ae1f9b.jpg\",\"img/0903/f1fa0f8d-e62b-4b4a-a174-31a0fabfe61b.jpg\"]","trial_type":"similarity","trial_index":207,"time_elapsed":1176219,"internal_node_id":"0.0-6.0-201.0"},{"sim_score":2,"rt":5330,"stimulus":"[\"img/0864/300bb811-8b3c-4c42-8653-6097c3725197.jpg\",\"img/0894/e2446cf5-cd48-486a-badc-76498e087fbe.jpg\"]","trial_type":"similarity","trial_index":208,"time_elapsed":1182552,"internal_node_id":"0.0-6.0-202.0"},{"sim_score":1,"rt":3789,"stimulus":"[\"img/0874/767f289c-9814-4496-803f-745cc8913d1f.jpg\",\"img/0860/f44ba3fb-03a2-42f0-8509-2c1ded493086.jpg\"]","trial_type":"similarity","trial_index":209,"time_elapsed":1187345,"internal_node_id":"0.0-6.0-203.0"},{"sim_score":1,"rt":3384,"stimulus":"[\"img/0862/99a99e39-8355-44ec-b993-e7bcec111e1c.jpg\",\"img/0875/5a7c4e35-6514-4e12-8879-d16071da4cd6.jpg\"]","trial_type":"similarity","trial_index":210,"time_elapsed":1191732,"internal_node_id":"0.0-6.0-204.0"},{"sim_score":2,"rt":3282,"stimulus":"[\"img/0867/8ba0c5a7-c7e4-42cf-a80a-543763b90779.jpg\",\"img/0881/2a8413be-fec2-4de6-88ad-614dd4cccc9d.jpg\"]","trial_type":"similarity","trial_index":211,"time_elapsed":1196019,"internal_node_id":"0.0-6.0-205.0"},{"sim_score":5,"rt":4622,"stimulus":"[\"img/0901/deff6cfb-0072-4490-bc3e-206bbcd3e8bf.jpg\",\"img/0902/4e0baa32-988e-46f6-989d-f669225ab645.jpg\"]","trial_type":"similarity","trial_index":212,"time_elapsed":1201644,"internal_node_id":"0.0-6.0-206.0"},{"sim_score":5,"rt":5230,"stimulus":"[\"img/0899/ddf96ade-692e-4602-bd22-dedbb46401bc.jpg\",\"img/0864/87c467d3-abca-482f-ad80-3766c21b1bb3.jpg\"]","trial_type":"similarity","trial_index":213,"time_elapsed":1207877,"internal_node_id":"0.0-6.0-207.0"},{"sim_score":2,"rt":3586,"stimulus":"[\"img/0901/875dedb9-24c9-4443-9f8c-85e97d70ee5a.jpg\",\"img/0769/35364db7-e0d5-40ef-93dc-faf9dfb95136.jpg\"]","trial_type":"similarity","trial_index":214,"time_elapsed":1212466,"internal_node_id":"0.0-6.0-208.0"},{"sim_score":5,"rt":4836,"stimulus":"[\"img/0902/417d8b4a-3c72-4adc-ac78-820e833316f2.jpg\",\"img/0902/b56db912-c3c0-4fc2-b325-d640acd7cb58.jpg\"]","trial_type":"similarity","trial_index":215,"time_elapsed":1223502,"internal_node_id":"0.0-6.0-209.0"},{"view_history":"[{\"page_index\":0,\"viewing_time\":4838}]","rt":4839,"trial_type":"instructions","trial_index":216,"time_elapsed":1229342,"internal_node_id":"0.0-7.0"},{"rt":40588,"responses":"{\"Q0\":\"Tennessee Warbler\"}","answer":["Nashville Warbler"],"trial_type":"image-multi-choice","trial_index":217,"time_elapsed":1270946,"internal_node_id":"0.0-8.0-0.0"},{"rt":25717,"responses":"{\"Q0\":\"Townsend's Warbler\"}","answer":["Black-and-white Warbler"],"trial_type":"image-multi-choice","trial_index":218,"time_elapsed":1297674,"internal_node_id":"0.0-8.0-1.0"},{"rt":5987,"responses":"{\"Q0\":\"Blackburnian Warbler\"}","answer":["Townsend's Warbler"],"trial_type":"image-multi-choice","trial_index":219,"time_elapsed":1304672,"internal_node_id":"0.0-8.0-2.0"},{"rt":30997,"responses":"{\"Q0\":\"Lincoln's Sparrow\"}","answer":["Lark Sparrow"],"trial_type":"image-multi-choice","trial_index":220,"time_elapsed":1336678,"internal_node_id":"0.0-8.0-3.0"},{"rt":5302,"responses":"{\"Q0\":\"Yellow Warbler\"}","answer":["Yellow Warbler"],"trial_type":"image-multi-choice","trial_index":221,"time_elapsed":1342990,"internal_node_id":"0.0-8.0-4.0"},{"rt":21658,"responses":"{\"Q0\":\"Orange-crowned Warbler\"}","answer":["Orange-crowned Warbler"],"trial_type":"image-multi-choice","trial_index":222,"time_elapsed":1365658,"internal_node_id":"0.0-8.0-5.0"},{"rt":10859,"responses":"{\"Q0\":\"White-throated Sparrow\"}","answer":["White-throated Sparrow"],"trial_type":"image-multi-choice","trial_index":223,"time_elapsed":1377528,"internal_node_id":"0.0-8.0-6.0"},{"rt":12693,"responses":"{\"Q0\":\"Northern Waterthrush\"}","answer":["Fox Sparrow"],"trial_type":"image-multi-choice","trial_index":224,"time_elapsed":1391230,"internal_node_id":"0.0-8.0-7.0"},{"rt":6494,"responses":"{\"Q0\":\"Swamp Sparrow\"}","answer":["Song Sparrow"],"trial_type":"image-multi-choice","trial_index":225,"time_elapsed":1398734,"internal_node_id":"0.0-8.0-8.0"},{"rt":22841,"responses":"{\"Q0\":\"Magnolia Warbler\"}","answer":["Blackburnian Warbler"],"trial_type":"image-multi-choice","trial_index":226,"time_elapsed":1422584,"internal_node_id":"0.0-8.0-9.0"},{"rt":26429,"responses":"{\"Q0\":\"Swamp Sparrow\"}","answer":["Vesper Sparrow"],"trial_type":"image-multi-choice","trial_index":227,"time_elapsed":1450022,"internal_node_id":"0.0-8.0-10.0"},{"rt":17496,"responses":"{\"Q0\":\"White-crowned Sparrow\"}","answer":["White-crowned Sparrow"],"trial_type":"image-multi-choice","trial_index":228,"time_elapsed":1468529,"internal_node_id":"0.0-8.0-11.0"},{"rt":10128,"responses":"{\"Q0\":\"Chipping Sparrow\"}","answer":["American Tree Sparrow"],"trial_type":"image-multi-choice","trial_index":229,"time_elapsed":1479666,"internal_node_id":"0.0-8.0-12.0"},{"rt":33978,"responses":"{\"Q0\":\"Tennessee Warbler\"}","answer":["Tennessee Warbler"],"trial_type":"image-multi-choice","trial_index":230,"time_elapsed":1514654,"internal_node_id":"0.0-8.0-13.0"},{"rt":7306,"responses":"{\"Q0\":\"Magnolia Warbler\"}","answer":["Magnolia Warbler"],"trial_type":"image-multi-choice","trial_index":231,"time_elapsed":1522968,"internal_node_id":"0.0-8.0-14.0"},{"rt":7593,"responses":"{\"Q0\":\"Ovenbird\"}","answer":["Northern Waterthrush"],"trial_type":"image-multi-choice","trial_index":232,"time_elapsed":1531574,"internal_node_id":"0.0-8.0-15.0"},{"rt":6112,"responses":"{\"Q0\":\"Chipping Sparrow\"}","answer":["Chipping Sparrow"],"trial_type":"image-multi-choice","trial_index":233,"time_elapsed":1538695,"internal_node_id":"0.0-8.0-16.0"},{"rt":14673,"responses":"{\"Q0\":\"Lark Sparrow\"}","answer":["Swamp Sparrow"],"trial_type":"image-multi-choice","trial_index":234,"time_elapsed":1554378,"internal_node_id":"0.0-8.0-17.0"},{"rt":4885,"responses":"{\"Q0\":\"Northern Waterthrush\"}","answer":["Lincoln's Sparrow"],"trial_type":"image-multi-choice","trial_index":235,"time_elapsed":1560274,"internal_node_id":"0.0-8.0-18.0"},{"rt":9800,"responses":"{\"Q0\":\"Northern Waterthrush\"}","answer":["Ovenbird"],"trial_type":"image-multi-choice","trial_index":236,"time_elapsed":1571084,"internal_node_id":"0.0-8.0-19.0"}]