[{"view_history":"[{\"page_index\":0,\"viewing_time\":34788}]","rt":34790,"trial_type":"instructions","trial_index":0,"time_elapsed":34792,"internal_node_id":"0.0-0.0"},{"sim_score":6,"rt":9231,"stimulus":"[\"img/866.jpg\",\"img/868.jpg\"]","trial_type":"similarity_demo","trial_index":1,"time_elapsed":45044,"internal_node_id":"0.0-1.0"},{"view_history":"[{\"page_index\":0,\"viewing_time\":13998}]","rt":13999,"trial_type":"instructions","trial_index":2,"time_elapsed":60045,"internal_node_id":"0.0-2.0"},{"sim_score":1,"rt":5146,"stimulus":"[\"img/766.jpg\",\"img/867.jpg\"]","trial_type":"similarity_demo","trial_index":3,"time_elapsed":66199,"internal_node_id":"0.0-3.0"},{"view_history":"[{\"page_index\":0,\"viewing_time\":10857}]","rt":10859,"trial_type":"instructions","trial_index":4,"time_elapsed":78061,"internal_node_id":"0.0-4.0"},{"view_history":"[{\"page_index\":0,\"viewing_time\":90702}]","rt":90706,"trial_type":"instructions","trial_index":5,"time_elapsed":169768,"internal_node_id":"0.0-5.0"},{"sim_score":1,"rt":8475,"stimulus":"[\"img/0868/4bd5105a-d2c3-4f82-8c80-57196106ba53.jpg\",\"img/0901/d61f267a-c492-4db6-9bfb-61efd49cf072.jpg\"]","trial_type":"similarity","trial_index":6,"time_elapsed":179268,"internal_node_id":"0.0-6.0-0.0"},{"sim_score":1,"rt":5523,"stimulus":"[\"img/0769/6c0bac4c-5f59-43c7-898c-3ca93cf55cfe.jpg\",\"img/0867/5e07b34d-b40f-4b1c-ac10-49975bace45f.jpg\"]","trial_type":"similarity","trial_index":7,"time_elapsed":185798,"internal_node_id":"0.0-6.0-1.0"},{"sim_score":2,"rt":5321,"stimulus":"[\"img/0766/71b81ebd-0937-4d7f-b8bf-c4e46a4728fd.jpg\",\"img/0898/04e39a7a-fcf6-4156-ab0e-f5871f335e1c.jpg\"]","trial_type":"similarity","trial_index":8,"time_elapsed":192128,"internal_node_id":"0.0-6.0-2.0"},{"sim_score":1,"rt":6103,"stimulus":"[\"img/0902/c9c74d2d-9b82-42d7-a9d0-3b8ff67ff81e.jpg\",\"img/0881/84397291-bc14-4fbf-90e8-241e486ab0fe.jpg\"]","trial_type":"similarity","trial_index":9,"time_elapsed":199240,"internal_node_id":"0.0-6.0-3.0"},{"sim_score":6,"rt":6304,"stimulus":"[\"img/0894/5a49e858-2850-4892-9a06-e9f0efb5f94d.jpg\",\"img/0894/5f15154e-e72e-4ce5-aafb-bce6f0564006.jpg\"]","trial_type":"similarity","trial_index":10,"time_elapsed":206553,"internal_node_id":"0.0-6.0-4.0"},{"sim_score":5,"rt":6813,"stimulus":"[\"img/0874/1016b306-087c-4afc-aa08-fa527b28dc76.jpg\",\"img/0899/a05bea16-2bb4-4cb9-b8fb-4ff975db6971.jpg\"]","trial_type":"similarity","trial_index":11,"time_elapsed":214373,"internal_node_id":"0.0-6.0-5.0"},{"sim_score":7,"rt":10448,"stimulus":"[\"img/0904/9d30eff1-46ef-4453-b11e-124ef8145c00.jpg\",\"img/0764/ca9829fe-aaf8-45b8-b98a-6bae751c63dd.jpg\"]","trial_type":"similarity","trial_index":12,"time_elapsed":225830,"internal_node_id":"0.0-6.0-6.0"},{"sim_score":5,"rt":5417,"stimulus":"[\"img/0899/7b7380d5-d2be-44e5-a09a-c1756f87ef71.jpg\",\"img/0898/0af304a2-6a7a-4082-ab7c-4450cd08cc58.jpg\"]","trial_type":"similarity","trial_index":13,"time_elapsed":232255,"internal_node_id":"0.0-6.0-7.0"},{"sim_score":7,"rt":9816,"stimulus":"[\"img/0874/c0378dac-9370-439a-8b79-db27c96fb390.jpg\",\"img/0903/36e4ab1f-caa9-40b3-8616-faada076df94.jpg\"]","trial_type":"similarity","trial_index":14,"time_elapsed":243081,"internal_node_id":"0.0-6.0-8.0"},{"sim_score":5,"rt":6047,"stimulus":"[\"img/0881/566f45f8-5fed-4479-a60f-26377e60a62d.jpg\",\"img/0758/3ddd05d3-557e-4ee7-8b78-9d2d681d8ae2.jpg\"]","trial_type":"similarity","trial_index":15,"time_elapsed":250137,"internal_node_id":"0.0-6.0-9.0"},{"sim_score":1,"rt":4439,"stimulus":"[\"img/0898/c3cecf20-f7fd-45fa-97d0-dc0a63e8d6c0.jpg\",\"img/0901/c6c877e0-dd63-4e00-9657-33af29d55aab.jpg\"]","trial_type":"similarity","trial_index":16,"time_elapsed":255584,"internal_node_id":"0.0-6.0-10.0"},{"sim_score":5,"rt":5596,"stimulus":"[\"img/0903/5c6b1f57-b3a2-40f5-9fb1-82785e24b6a0.jpg\",\"img/0769/022c7e3b-c3f2-4119-b4bc-f22fa7cae18c.jpg\"]","trial_type":"similarity","trial_index":17,"time_elapsed":262191,"internal_node_id":"0.0-6.0-11.0"},{"sim_score":1,"rt":5280,"stimulus":"[\"img/0764/ef0e64c6-d0dd-4dc6-87b6-ce5c0665f421.jpg\",\"img/0868/7b212364-ff5f-4e28-9241-7eb6ea00161b.jpg\"]","trial_type":"similarity","trial_index":18,"time_elapsed":268479,"internal_node_id":"0.0-6.0-12.0"},{"sim_score":1,"rt":3760,"stimulus":"[\"img/0867/179ab87a-8eac-4c52-a41f-2e48e3120f09.jpg\",\"img/0903/8931c67c-a43d-47d3-a4c9-42aa2f81d344.jpg\"]","trial_type":"similarity","trial_index":19,"time_elapsed":273249,"internal_node_id":"0.0-6.0-13.0"},{"sim_score":5,"rt":5886,"stimulus":"[\"img/0766/a754e4b6-5019-4cf4-8f58-34c20547a1f5.jpg\",\"img/0758/65d426d6-3ff6-415d-8654-a43b83ecc4fe.jpg\"]","trial_type":"similarity","trial_index":20,"time_elapsed":280143,"internal_node_id":"0.0-6.0-14.0"},{"sim_score":1,"rt":3761,"stimulus":"[\"img/0902/01b41522-de46-4c3a-b0af-a61b2682b40e.jpg\",\"img/0860/c3379ff7-0763-48fe-a1ec-7ea3d611bc7a.jpg\"]","trial_type":"similarity","trial_index":21,"time_elapsed":284911,"internal_node_id":"0.0-6.0-15.0"},{"sim_score":2,"rt":4841,"stimulus":"[\"img/0769/48a1144d-fbda-4809-991b-fc8424a32ee4.jpg\",\"img/0875/2e13d160-eea1-416b-aff1-d37ab99ecc1d.jpg\"]","trial_type":"similarity","trial_index":22,"time_elapsed":290767,"internal_node_id":"0.0-6.0-16.0"},{"sim_score":5,"rt":5882,"stimulus":"[\"img/0904/9b3568cc-3cf7-42be-9df3-fdafde7a58b8.jpg\",\"img/0866/11a1d141-be5e-443c-98c1-a9d4d9e3dec0.jpg\"]","trial_type":"similarity","trial_index":23,"time_elapsed":297656,"internal_node_id":"0.0-6.0-17.0"},{"sim_score":7,"rt":4612,"stimulus":"[\"img/0875/8521fd58-3b1e-4dc5-97ae-804edfa6734a.jpg\",\"img/0875/d59ff733-eaff-4ee2-9443-06954dd0bcb6.jpg\"]","trial_type":"similarity","trial_index":24,"time_elapsed":303280,"internal_node_id":"0.0-6.0-18.0"},{"sim_score":7,"rt":4806,"stimulus":"[\"img/0758/e38fd80d-18d0-42f3-b848-f930788e8bd7.jpg\",\"img/0758/dd559618-7f09-4a07-8018-d311c4a5ea29.jpg\"]","trial_type":"similarity","trial_index":25,"time_elapsed":309094,"internal_node_id":"0.0-6.0-19.0"},{"sim_score":5,"rt":5369,"stimulus":"[\"img/0902/a323b62d-2fd5-4ac8-acc6-35b768f3c3f2.jpg\",\"img/0874/ca23d307-fc00-4d7d-9106-584c6eb21b4d.jpg\"]","trial_type":"similarity","trial_index":26,"time_elapsed":315471,"internal_node_id":"0.0-6.0-20.0"},{"sim_score":5,"rt":5248,"stimulus":"[\"img/0764/4bec8d92-75aa-475a-954d-8215dbe538f5.jpg\",\"img/0769/f6396414-6788-4d59-9683-de153298d89c.jpg\"]","trial_type":"similarity","trial_index":27,"time_elapsed":321727,"internal_node_id":"0.0-6.0-21.0"},{"sim_score":3,"rt":4799,"stimulus":"[\"img/0901/148b747a-7392-437e-8823-33053c5dff3f.jpg\",\"img/0874/2c9464dd-8a23-4baa-ac94-1ba3af5c15cc.jpg\"]","trial_type":"similarity","trial_index":28,"time_elapsed":327535,"internal_node_id":"0.0-6.0-22.0"},{"sim_score":5,"rt":4841,"stimulus":"[\"img/0875/a4935837-7d3c-4df6-88c1-36a94d4991ca.jpg\",\"img/0903/470acfd5-5571-4a7b-b3a4-28d87e098138.jpg\"]","trial_type":"similarity","trial_index":29,"time_elapsed":333383,"internal_node_id":"0.0-6.0-23.0"},{"sim_score":6,"rt":5592,"stimulus":"[\"img/0769/a1ce8d07-ba37-40de-bade-2778805521e0.jpg\",\"img/0881/f4e3e181-b3c9-4af2-a5a4-fc135ab70d2e.jpg\"]","trial_type":"similarity","trial_index":30,"time_elapsed":339982,"internal_node_id":"0.0-6.0-24.0"},{"sim_score":1,"rt":4256,"stimulus":"[\"img/0867/f8159067-056c-41f1-a136-c529fe5e970a.jpg\",\"img/0904/d23dd7be-7fe8-4435-82f7-bd592c01e6a1.jpg\"]","trial_type":"similarity","trial_index":31,"time_elapsed":345244,"internal_node_id":"0.0-6.0-25.0"},{"sim_score":4,"rt":5866,"stimulus":"[\"img/0860/9593362c-9fe5-4d12-9735-6000a11f6aa5.jpg\",\"img/0881/62a64f90-7a72-4aee-a1a1-0c548ac9bdda.jpg\"]","trial_type":"similarity","trial_index":32,"time_elapsed":352120,"internal_node_id":"0.0-6.0-26.0"},{"sim_score":5,"rt":5295,"stimulus":"[\"img/0866/6f2a90d7-14f1-4f1b-bd64-fc0af6b9fe44.jpg\",\"img/0866/be24ab58-230e-4db8-9f45-ff04c9aec6bb.jpg\"]","trial_type":"similarity","trial_index":33,"time_elapsed":358423,"internal_node_id":"0.0-6.0-27.0"},{"sim_score":5,"rt":5283,"stimulus":"[\"img/0764/55b3fab1-b809-4d38-a461-3f40ce062f52.jpg\",\"img/0862/53a9cf7c-93c4-41b9-952f-07d17f7a17b2.jpg\"]","trial_type":"similarity","trial_index":34,"time_elapsed":364719,"internal_node_id":"0.0-6.0-28.0"},{"sim_score":3,"rt":4752,"stimulus":"[\"img/0904/2fd488e9-960f-41f7-8a44-33375f7d5051.jpg\",\"img/0758/9fb5b2fe-3f00-4fe6-973c-1ce10d5f4cd5.jpg\"]","trial_type":"similarity","trial_index":35,"time_elapsed":370481,"internal_node_id":"0.0-6.0-29.0"},{"sim_score":3,"rt":6509,"stimulus":"[\"img/0894/9b1333fd-3561-43bf-aee5-99b7b7ca3dc3.jpg\",\"img/0899/f58b8d2f-b19d-4b59-8b94-8834be92e4ba.jpg\"]","trial_type":"similarity","trial_index":36,"time_elapsed":377997,"internal_node_id":"0.0-6.0-30.0"},{"sim_score":5,"rt":5124,"stimulus":"[\"img/0860/71e1aad0-2cdf-43bb-94a4-a8c016997c30.jpg\",\"img/0904/2f88ce53-02d0-4f95-a082-182c56a0eeb4.jpg\"]","trial_type":"similarity","trial_index":37,"time_elapsed":384129,"internal_node_id":"0.0-6.0-31.0"},{"sim_score":6,"rt":6335,"stimulus":"[\"img/0874/adf9a8f1-c40b-402b-b95b-1e85a54a7b62.jpg\",\"img/0881/1407b85b-a1c6-45b1-9884-3b24203efadb.jpg\"]","trial_type":"similarity","trial_index":38,"time_elapsed":391471,"internal_node_id":"0.0-6.0-32.0"},{"sim_score":6,"rt":6288,"stimulus":"[\"img/0881/54ea8e77-c7e5-4197-b7fa-00b7020849a7.jpg\",\"img/0899/ddf96ade-692e-4602-bd22-dedbb46401bc.jpg\"]","trial_type":"similarity","trial_index":39,"time_elapsed":398779,"internal_node_id":"0.0-6.0-33.0"},{"sim_score":2,"rt":5243,"stimulus":"[\"img/0866/8efcaa46-83ab-4dee-a35f-850402aa21ae.jpg\",\"img/0862/d0ca4c78-fc35-46ed-bdcc-8e124283c53e.jpg\"]","trial_type":"similarity","trial_index":40,"time_elapsed":405032,"internal_node_id":"0.0-6.0-34.0"},{"sim_score":4,"rt":5079,"stimulus":"[\"img/0868/e0aff734-077f-40dd-9781-74821abd3621.jpg\",\"img/0894/6aa5545f-fa7d-4286-bbaa-aaf34dc7ec96.jpg\"]","trial_type":"similarity","trial_index":41,"time_elapsed":411119,"internal_node_id":"0.0-6.0-35.0"},{"sim_score":7,"rt":5193,"stimulus":"[\"img/0860/c47fdead-eb02-4989-b078-26f4852f44fe.jpg\",\"img/0860/18dfed73-e36b-4487-a8bd-0b8cff8e3668.jpg\"]","trial_type":"similarity","trial_index":42,"time_elapsed":417321,"internal_node_id":"0.0-6.0-36.0"},{"sim_score":7,"rt":5471,"stimulus":"[\"img/0862/1c20f772-3a51-4a80-aac0-f57dc9f86c28.jpg\",\"img/0864/f92649a2-0590-4d31-9a7a-1bfb81666a2d.jpg\"]","trial_type":"similarity","trial_index":43,"time_elapsed":423802,"internal_node_id":"0.0-6.0-37.0"},{"sim_score":3,"rt":5484,"stimulus":"[\"img/0766/908bc45b-7c9e-4f95-806e-86b196ebcb2c.jpg\",\"img/0866/4a87911a-d5be-4d4e-ab8e-3d1f581bf507.jpg\"]","trial_type":"similarity","trial_index":44,"time_elapsed":430296,"internal_node_id":"0.0-6.0-38.0"},{"sim_score":1,"rt":3997,"stimulus":"[\"img/0875/5a716432-c6ca-4b1c-955a-2b8ac25198ee.jpg\",\"img/0898/a114b375-cb89-44ba-9498-74213f1ecdee.jpg\"]","trial_type":"similarity","trial_index":45,"time_elapsed":435303,"internal_node_id":"0.0-6.0-39.0"},{"sim_score":5,"rt":5199,"stimulus":"[\"img/0766/33519c22-aaa4-49d7-8d49-ab551db1945e.jpg\",\"img/0769/d1be2815-fa79-46e8-b5c3-7d81caaca490.jpg\"]","trial_type":"similarity","trial_index":46,"time_elapsed":441511,"internal_node_id":"0.0-6.0-40.0"},{"sim_score":2,"rt":4887,"stimulus":"[\"img/0874/995f0332-0439-4eb4-add3-957335dbf6d9.jpg\",\"img/0764/c643e165-df19-459f-8c2b-8357bf432a17.jpg\"]","trial_type":"similarity","trial_index":47,"time_elapsed":487989,"internal_node_id":"0.0-6.0-41.0"},{"sim_score":2,"rt":6210,"stimulus":"[\"img/0868/3a62db2d-97e9-44a3-b8e3-a48c6f0e423b.jpg\",\"img/0902/2db723b6-130f-454c-8c8d-88829edbcd65.jpg\"]","trial_type":"similarity","trial_index":48,"time_elapsed":495208,"internal_node_id":"0.0-6.0-42.0"},{"sim_score":1,"rt":5137,"stimulus":"[\"img/0875/99698b4d-b4a1-44bc-8c83-8ea755bbbf61.jpg\",\"img/0899/25ae6ec8-9565-49fe-a8bb-8d0666f52716.jpg\"]","trial_type":"similarity","trial_index":49,"time_elapsed":501358,"internal_node_id":"0.0-6.0-43.0"},{"sim_score":1,"rt":4674,"stimulus":"[\"img/0866/9b38d691-1802-4959-ab3f-fc902f0e4ea6.jpg\",\"img/0860/61fb959d-d4d9-4de4-9e4e-4fa62b4cfcd5.jpg\"]","trial_type":"similarity","trial_index":50,"time_elapsed":507043,"internal_node_id":"0.0-6.0-44.0"},{"sim_score":5,"rt":3350,"stimulus":"[\"img/0766/c23b5a20-e50f-4d85-841f-cf89212a4348.jpg\",\"img/0903/07b445ee-0cdb-4d2c-a23b-d727613f4059.jpg\"]","trial_type":"similarity","trial_index":51,"time_elapsed":511398,"internal_node_id":"0.0-6.0-45.0"},{"sim_score":6,"rt":7075,"stimulus":"[\"img/0901/f1116359-1ff1-4638-b3b3-700918d36d18.jpg\",\"img/0904/63dd06dd-dccb-47ba-9740-eb33239e18a7.jpg\"]","trial_type":"similarity","trial_index":52,"time_elapsed":519481,"internal_node_id":"0.0-6.0-46.0"},{"sim_score":5,"rt":4381,"stimulus":"[\"img/0758/a709631e-3705-4725-ac40-f0d916924f08.jpg\",\"img/0902/418b716e-63e5-4c77-93e9-95b1f5a3ddf0.jpg\"]","trial_type":"similarity","trial_index":53,"time_elapsed":524873,"internal_node_id":"0.0-6.0-47.0"},{"sim_score":7,"rt":4261,"stimulus":"[\"img/0764/f713847b-4832-42d1-8fb3-e17e37fd745c.jpg\",\"img/0764/f990b2e8-ecee-481e-be7c-0239fce350e2.jpg\"]","trial_type":"similarity","trial_index":54,"time_elapsed":530169,"internal_node_id":"0.0-6.0-48.0"},{"sim_score":1,"rt":4813,"stimulus":"[\"img/0866/0207e9a2-7dbb-40b5-9459-b472aaeceb2a.jpg\",\"img/0902/94198618-7047-4dc9-ad04-85f4ba913067.jpg\"]","trial_type":"similarity","trial_index":55,"time_elapsed":535989,"internal_node_id":"0.0-6.0-49.0"},{"sim_score":2,"rt":4307,"stimulus":"[\"img/0764/ca957454-126a-4bd3-b29c-7174a24c25dc.jpg\",\"img/0758/53f35650-e455-4b53-8be4-c3c8271c6466.jpg\"]","trial_type":"similarity","trial_index":56,"time_elapsed":541305,"internal_node_id":"0.0-6.0-50.0"},{"sim_score":5,"rt":4815,"stimulus":"[\"img/0898/81b08535-2020-4c15-9ce4-2f1e460755ae.jpg\",\"img/0894/86201968-6e78-4d68-9b3a-d1692e066210.jpg\"]","trial_type":"similarity","trial_index":57,"time_elapsed":547128,"internal_node_id":"0.0-6.0-51.0"},{"sim_score":3,"rt":4577,"stimulus":"[\"img/0875/34132396-d896-4c2d-8087-646dd867e769.jpg\",\"img/0866/f756f7d1-9ad8-4a34-9ef6-7a443d705bfe.jpg\"]","trial_type":"similarity","trial_index":58,"time_elapsed":552713,"internal_node_id":"0.0-6.0-52.0"},{"sim_score":7,"rt":5143,"stimulus":"[\"img/0904/5cceabc9-de1d-4c67-989b-c28a4ef77e79.jpg\",\"img/0904/96e503ea-6630-4996-85f2-0237688ce441.jpg\"]","trial_type":"similarity","trial_index":59,"time_elapsed":558864,"internal_node_id":"0.0-6.0-53.0"},{"sim_score":6,"rt":5815,"stimulus":"[\"img/0769/9ea27d61-3d55-418c-8d14-82e90f656f01.jpg\",\"img/0769/7c50e5f5-cc38-4d48-b009-fbe17bcea61c.jpg\"]","trial_type":"similarity","trial_index":60,"time_elapsed":565687,"internal_node_id":"0.0-6.0-54.0"},{"sim_score":6,"rt":4424,"stimulus":"[\"img/0898/8605a25b-6895-476d-8c13-df7a83f96093.jpg\",\"img/0758/d41c06bf-ebaf-454b-91c6-1a17f917b659.jpg\"]","trial_type":"similarity","trial_index":61,"time_elapsed":571119,"internal_node_id":"0.0-6.0-55.0"},{"sim_score":2,"rt":6106,"stimulus":"[\"img/0769/04347740-f8f6-48bb-887a-f68babd0a0d4.jpg\",\"img/0902/40d0b6ec-3907-4573-b227-e7d8e9cad1c3.jpg\"]","trial_type":"similarity","trial_index":62,"time_elapsed":578231,"internal_node_id":"0.0-6.0-56.0"},{"sim_score":5,"rt":4366,"stimulus":"[\"img/0864/4bd81bc6-c13d-46df-95a9-485886dc7c1b.jpg\",\"img/0881/6b1189e6-232d-4042-8885-16dc7b10e0d4.jpg\"]","trial_type":"similarity","trial_index":63,"time_elapsed":583606,"internal_node_id":"0.0-6.0-57.0"},{"sim_score":1,"rt":4512,"stimulus":"[\"img/0758/61d64021-9214-4951-bdf8-f871f9827cf9.jpg\",\"img/0868/179a5502-ab5c-478e-8263-5a1fbcc101d2.jpg\"]","trial_type":"similarity","trial_index":64,"time_elapsed":589127,"internal_node_id":"0.0-6.0-58.0"},{"sim_score":7,"rt":5513,"stimulus":"[\"img/0862/e8cc3bdf-cc43-4565-bccf-492626c70953.jpg\",\"img/0769/f2740c58-7c02-433f-920b-746b0b75435b.jpg\"]","trial_type":"similarity","trial_index":65,"time_elapsed":595645,"internal_node_id":"0.0-6.0-59.0"},{"sim_score":6,"rt":5283,"stimulus":"[\"img/0764/f2f23359-8e82-41d3-8900-5b9f4433991d.jpg\",\"img/0903/2c7b4aed-6038-4aac-958a-e3e58341c313.jpg\"]","trial_type":"similarity","trial_index":66,"time_elapsed":601936,"internal_node_id":"0.0-6.0-60.0"},{"sim_score":6,"rt":5270,"stimulus":"[\"img/0899/0e1d936a-dbe2-4afc-9f19-7b7a1ae6c9ed.jpg\",\"img/0899/a048912c-b12c-40e3-90af-46b69b0cc4fe.jpg\"]","trial_type":"similarity","trial_index":67,"time_elapsed":608215,"internal_node_id":"0.0-6.0-61.0"},{"sim_score":7,"rt":5432,"stimulus":"[\"img/0860/87039971-2210-4aab-93c0-8e9b5f1655b2.jpg\",\"img/0875/ebf7653f-ff45-4e9f-af58-2c042ab3cd2b.jpg\"]","trial_type":"similarity","trial_index":68,"time_elapsed":614658,"internal_node_id":"0.0-6.0-62.0"},{"sim_score":2,"rt":4501,"stimulus":"[\"img/0868/d6d1f30d-4323-435a-b194-7892521bc57e.jpg\",\"img/0874/7e4f2150-3b59-4a36-b5da-a4e0ba410531.jpg\"]","trial_type":"similarity","trial_index":69,"time_elapsed":620169,"internal_node_id":"0.0-6.0-63.0"},{"sim_score":6,"rt":7157,"stimulus":"[\"img/0758/67c0be2f-9e91-48b3-8219-70ac0a1802fa.jpg\",\"img/0862/fb26cb07-d5a9-4653-813c-f41609f26cd5.jpg\"]","trial_type":"similarity","trial_index":70,"time_elapsed":628334,"internal_node_id":"0.0-6.0-64.0"},{"sim_score":7,"rt":7056,"stimulus":"[\"img/0904/06dacdc5-2206-4fb8-92b7-88042d22833c.jpg\",\"img/0898/cd3aaa3f-efa9-4ab3-8d6f-a6a9273ddf42.jpg\"]","trial_type":"similarity","trial_index":71,"time_elapsed":636513,"internal_node_id":"0.0-6.0-65.0"},{"sim_score":4,"rt":4709,"stimulus":"[\"img/0881/609a5e93-38b5-4940-8627-2bf8fad7f802.jpg\",\"img/0866/c446214b-a368-4c65-ae39-ea46894256ab.jpg\"]","trial_type":"similarity","trial_index":72,"time_elapsed":642231,"internal_node_id":"0.0-6.0-66.0"},{"sim_score":3,"rt":4440,"stimulus":"[\"img/0867/50a1b60e-3a29-44bf-b606-d4bd3746fea9.jpg\",\"img/0898/08c72dac-f8ad-407a-9ce6-8c9a5d679c3a.jpg\"]","trial_type":"similarity","trial_index":73,"time_elapsed":647680,"internal_node_id":"0.0-6.0-67.0"},{"sim_score":7,"rt":5279,"stimulus":"[\"img/0902/22ed3536-288b-452e-9777-0fa0ab94deb0.jpg\",\"img/0764/6fbd1902-fa2a-48d8-bc11-705b8ab68d8f.jpg\"]","trial_type":"similarity","trial_index":74,"time_elapsed":653967,"internal_node_id":"0.0-6.0-68.0"},{"sim_score":4,"rt":6512,"stimulus":"[\"img/0875/527ced51-8e53-4aab-ab05-86df219104c0.jpg\",\"img/0867/c71dc569-f49c-4397-8381-68b8d726736d.jpg\"]","trial_type":"similarity","trial_index":75,"time_elapsed":661485,"internal_node_id":"0.0-6.0-69.0"},{"sim_score":5,"rt":4130,"stimulus":"[\"img/0766/ae0fce93-fe8d-4aa1-87ca-4c3e4b889f2f.jpg\",\"img/0764/4952d0a0-c9be-471a-8ec7-94a37bf4051d.jpg\"]","trial_type":"similarity","trial_index":76,"time_elapsed":666622,"internal_node_id":"0.0-6.0-70.0"},{"sim_score":3,"rt":5721,"stimulus":"[\"img/0894/05161000-f476-499b-a878-c13c7f347fd9.jpg\",\"img/0867/f26f6b60-f772-4f4c-95a4-addc62cfd692.jpg\"]","trial_type":"similarity","trial_index":77,"time_elapsed":673350,"internal_node_id":"0.0-6.0-71.0"},{"sim_score":2,"rt":5476,"stimulus":"[\"img/0875/5a1e5100-0d94-4fec-bbe9-ca9894d2cf8e.jpg\",\"img/0764/d7c215ab-ea9a-45be-8d5f-417d5b9a8a17.jpg\"]","trial_type":"similarity","trial_index":78,"time_elapsed":679832,"internal_node_id":"0.0-6.0-72.0"},{"sim_score":7,"rt":4825,"stimulus":"[\"img/0867/aa05d113-fc19-4756-a8eb-7878f580bc92.jpg\",\"img/0866/a04d37f0-99dd-478a-b6c6-58b215138f84.jpg\"]","trial_type":"similarity","trial_index":79,"time_elapsed":685661,"internal_node_id":"0.0-6.0-73.0"},{"sim_score":2,"rt":5507,"stimulus":"[\"img/0903/12bd8657-92e6-4c36-a06c-597e7a1d51f3.jpg\",\"img/0758/d540bee6-b460-4c32-ac57-bc282742d7d4.jpg\"]","trial_type":"similarity","trial_index":80,"time_elapsed":692173,"internal_node_id":"0.0-6.0-74.0"},{"sim_score":1,"rt":5001,"stimulus":"[\"img/0766/0b48f9e0-7d37-4161-8adb-4e3f5b6b7583.jpg\",\"img/0868/8b0b8473-e2c0-4331-aa56-c3a5c29369da.jpg\"]","trial_type":"similarity","trial_index":81,"time_elapsed":698181,"internal_node_id":"0.0-6.0-75.0"},{"sim_score":5,"rt":4361,"stimulus":"[\"img/0874/a3bc679d-619f-4db6-bb68-116dcb757d9c.jpg\",\"img/0766/2746b119-4bba-463e-acf0-88136dc6600c.jpg\"]","trial_type":"similarity","trial_index":82,"time_elapsed":703552,"internal_node_id":"0.0-6.0-76.0"},{"sim_score":1,"rt":5335,"stimulus":"[\"img/0881/f8bd891e-aa09-4782-89db-33e7cb2b0cf1.jpg\",\"img/0868/0d3abd3a-b6c3-4584-a9f7-e2da63748b3d.jpg\"]","trial_type":"similarity","trial_index":83,"time_elapsed":709895,"internal_node_id":"0.0-6.0-77.0"},{"sim_score":5,"rt":4200,"stimulus":"[\"img/0758/b76ceca7-95ac-46e4-ac13-da02c8e93be9.jpg\",\"img/0901/6e2957f8-f5ab-46f4-87cc-bb50155a098b.jpg\"]","trial_type":"similarity","trial_index":84,"time_elapsed":715103,"internal_node_id":"0.0-6.0-78.0"},{"sim_score":6,"rt":5657,"stimulus":"[\"img/0881/405484ae-0d00-4b05-bc57-6420a36adfac.jpg\",\"img/0898/6cd3830b-d44e-4915-be2b-88d31424b91c.jpg\"]","trial_type":"similarity","trial_index":85,"time_elapsed":721767,"internal_node_id":"0.0-6.0-79.0"},{"sim_score":2,"rt":4895,"stimulus":"[\"img/0867/ac1797e4-8afc-48fe-b252-86d1defb1cca.jpg\",\"img/0758/20497cbe-ddae-489e-86e2-ab06985ed07c.jpg\"]","trial_type":"similarity","trial_index":86,"time_elapsed":727668,"internal_node_id":"0.0-6.0-80.0"},{"sim_score":6,"rt":5722,"stimulus":"[\"img/0769/82ab9db6-4578-4e79-874f-f09100439f09.jpg\",\"img/0899/8abe6c69-822c-436c-9bf2-96c818b49ba5.jpg\"]","trial_type":"similarity","trial_index":87,"time_elapsed":734399,"internal_node_id":"0.0-6.0-81.0"},{"sim_score":7,"rt":5409,"stimulus":"[\"img/0903/5995f4a8-fa82-46f8-8760-fd7800a5ca34.jpg\",\"img/0903/e2e55a9e-0397-4dc0-8adf-4a54cfefe1fe.jpg\"]","trial_type":"similarity","trial_index":88,"time_elapsed":740816,"internal_node_id":"0.0-6.0-82.0"},{"sim_score":1,"rt":4686,"stimulus":"[\"img/0867/075e0f95-856b-4cbb-acf5-092393aaf04e.jpg\",\"img/0766/6d32752d-aa05-40dc-9541-640b6e9d6fa1.jpg\"]","trial_type":"similarity","trial_index":89,"time_elapsed":771150,"internal_node_id":"0.0-6.0-83.0"},{"sim_score":1,"rt":4689,"stimulus":"[\"img/0902/168ebd47-9e82-4ab7-a18b-c3da85072db8.jpg\",\"img/0867/db7e032f-162b-46f5-ae67-2b29679adee4.jpg\"]","trial_type":"similarity","trial_index":90,"time_elapsed":776847,"internal_node_id":"0.0-6.0-84.0"},{"sim_score":5,"rt":4528,"stimulus":"[\"img/0901/a6c90438-fa7c-4418-ac7c-16c2e772dd98.jpg\",\"img/0875/cff79b3a-a797-4393-9757-6275f999ec04.jpg\"]","trial_type":"similarity","trial_index":91,"time_elapsed":782382,"internal_node_id":"0.0-6.0-85.0"},{"sim_score":2,"rt":4320,"stimulus":"[\"img/0764/e30dba15-e68a-4659-89db-e1654b52fe02.jpg\",\"img/0866/d493a2c8-66eb-44b4-be02-2f327b700b7c.jpg\"]","trial_type":"similarity","trial_index":92,"time_elapsed":787711,"internal_node_id":"0.0-6.0-86.0"},{"sim_score":3,"rt":4793,"stimulus":"[\"img/0901/1e23ffbd-19de-4c4f-aa23-c54aaa3319a3.jpg\",\"img/0894/1a010553-d598-4b06-a772-81f1e7b3addb.jpg\"]","trial_type":"similarity","trial_index":93,"time_elapsed":793511,"internal_node_id":"0.0-6.0-87.0"},{"sim_score":6,"rt":4939,"stimulus":"[\"img/0898/26c41340-15bd-4ead-8fe4-c0d0ddca09c2.jpg\",\"img/0769/aad494cc-674d-4a08-9bfa-24a88ebe3c79.jpg\"]","trial_type":"similarity","trial_index":94,"time_elapsed":799458,"internal_node_id":"0.0-6.0-88.0"},{"sim_score":5,"rt":3517,"stimulus":"[\"img/0769/f73c5138-2f4c-4354-981c-129dff9cc734.jpg\",\"img/0894/2d2db7b3-e8a3-499b-b63a-14f51bf73882.jpg\"]","trial_type":"similarity","trial_index":95,"time_elapsed":803983,"internal_node_id":"0.0-6.0-89.0"},{"sim_score":4,"rt":6223,"stimulus":"[\"img/0862/a0a3a7ba-7798-46a3-b4ca-05e1f6e581d0.jpg\",\"img/0874/bf14b896-e930-4fd9-9c05-2e83317a2773.jpg\"]","trial_type":"similarity","trial_index":96,"time_elapsed":811212,"internal_node_id":"0.0-6.0-90.0"},{"sim_score":5,"rt":5862,"stimulus":"[\"img/0894/38f5931f-926d-414e-b498-66b188978b7a.jpg\",\"img/0766/1bc0dccc-a5b5-4375-87fa-28360ca42b12.jpg\"]","trial_type":"similarity","trial_index":97,"time_elapsed":818086,"internal_node_id":"0.0-6.0-91.0"},{"sim_score":1,"rt":4943,"stimulus":"[\"img/0874/8cdb1c07-1c32-46d2-981c-3636560fa6e5.jpg\",\"img/0867/8ba0c5a7-c7e4-42cf-a80a-543763b90779.jpg\"]","trial_type":"similarity","trial_index":98,"time_elapsed":824038,"internal_node_id":"0.0-6.0-92.0"},{"sim_score":2,"rt":4730,"stimulus":"[\"img/0899/56a605c3-d0a2-4215-89e1-779279d85a7c.jpg\",\"img/0868/15dd6fd7-791e-4b53-b203-195d617521a4.jpg\"]","trial_type":"similarity","trial_index":99,"time_elapsed":829775,"internal_node_id":"0.0-6.0-93.0"},{"sim_score":5,"rt":4592,"stimulus":"[\"img/0903/365f176c-25a4-4973-bd3c-279bf1b39476.jpg\",\"img/0862/00c06b00-3b73-44e9-bc1e-c5aafb438321.jpg\"]","trial_type":"similarity","trial_index":100,"time_elapsed":835375,"internal_node_id":"0.0-6.0-94.0"},{"sim_score":6,"rt":4943,"stimulus":"[\"img/0899/66bf4113-ee12-426c-84d2-ea410b6c803e.jpg\",\"img/0766/79767d11-b612-4e8a-9e4b-a8ac95bb6a54.jpg\"]","trial_type":"similarity","trial_index":101,"time_elapsed":841326,"internal_node_id":"0.0-6.0-95.0"},{"sim_score":7,"rt":4713,"stimulus":"[\"img/0867/a749dddb-69f0-44a6-acdc-2bf295cf6dcc.jpg\",\"img/0868/293079b8-7e0c-4afd-a390-1e5d35fe3ded.jpg\"]","trial_type":"similarity","trial_index":102,"time_elapsed":847047,"internal_node_id":"0.0-6.0-96.0"},{"sim_score":5,"rt":4592,"stimulus":"[\"img/0862/ba89835a-408c-480b-8594-ed4ffa97eb5c.jpg\",\"img/0901/1b86f2fc-7a1d-4aa8-9252-114f92edef3b.jpg\"]","trial_type":"similarity","trial_index":103,"time_elapsed":852646,"internal_node_id":"0.0-6.0-97.0"},{"sim_score":1,"rt":4003,"stimulus":"[\"img/0875/5a7c4e35-6514-4e12-8879-d16071da4cd6.jpg\",\"img/0766/0025de5e-f620-4079-8a0f-00326ff3a6b0.jpg\"]","trial_type":"similarity","trial_index":104,"time_elapsed":857671,"internal_node_id":"0.0-6.0-98.0"},{"sim_score":7,"rt":7368,"stimulus":"[\"img/0758/ddc336e9-a8b6-4bb9-937a-c7e25e0e9250.jpg\",\"img/0874/99f6563c-8a8d-4c1c-a41d-667b618c3fd5.jpg\"]","trial_type":"similarity","trial_index":105,"time_elapsed":866047,"internal_node_id":"0.0-6.0-99.0"},{"sim_score":2,"rt":4553,"stimulus":"[\"img/0904/25365108-e038-4021-aac9-797f2063b337.jpg\",\"img/0868/fd307a36-9a3a-47d7-ab7c-f810d0b35040.jpg\"]","trial_type":"similarity","trial_index":106,"time_elapsed":871608,"internal_node_id":"0.0-6.0-100.0"},{"sim_score":1,"rt":3639,"stimulus":"[\"img/0903/8c358e9e-a4f4-466e-8b93-7aec0d2358e8.jpg\",\"img/0866/386235d2-6857-41e7-88a8-25cfc3430025.jpg\"]","trial_type":"similarity","trial_index":107,"time_elapsed":876255,"internal_node_id":"0.0-6.0-101.0"},{"sim_score":2,"rt":5384,"stimulus":"[\"img/0868/1a62b2b2-18f5-466e-b564-5176a57c565e.jpg\",\"img/0769/50985283-d353-4abc-9abe-14a91d56ebe6.jpg\"]","trial_type":"similarity","trial_index":108,"time_elapsed":882645,"internal_node_id":"0.0-6.0-102.0"},{"sim_score":6,"rt":4593,"stimulus":"[\"img/0902/31abfa33-7cdb-44ad-968e-9f7b324d577a.jpg\",\"img/0899/0adc0bc3-6fca-4078-be6f-d45ddf1653d5.jpg\"]","trial_type":"similarity","trial_index":109,"time_elapsed":888244,"internal_node_id":"0.0-6.0-103.0"},{"sim_score":1,"rt":4579,"stimulus":"[\"img/0868/83b4350a-3b70-4cea-b7f5-b5b56f3050a8.jpg\",\"img/0862/47ed5efd-4ec9-4b74-bb4e-a5f5cf0c3e7d.jpg\"]","trial_type":"similarity","trial_index":110,"time_elapsed":893831,"internal_node_id":"0.0-6.0-104.0"},{"sim_score":5,"rt":4048,"stimulus":"[\"img/0903/8635cf25-2648-4fe9-8c42-79d2598e999c.jpg\",\"img/0894/1b3888e6-cf36-4c4a-a039-187aa5cb71ac.jpg\"]","trial_type":"similarity","trial_index":111,"time_elapsed":898887,"internal_node_id":"0.0-6.0-105.0"},{"sim_score":4,"rt":4346,"stimulus":"[\"img/0864/9b2490c5-a282-400a-9736-e1a0ecbf1cb7.jpg\",\"img/0874/85eb9b8a-c4c6-4e5a-b8e7-363a87a82054.jpg\"]","trial_type":"similarity","trial_index":112,"time_elapsed":904240,"internal_node_id":"0.0-6.0-106.0"},{"sim_score":5,"rt":4664,"stimulus":"[\"img/0862/847e5208-38ec-4f36-949c-296cdd7424ee.jpg\",\"img/0902/d3e55000-c839-4bf9-9b9b-4af0a9925af1.jpg\"]","trial_type":"similarity","trial_index":113,"time_elapsed":909911,"internal_node_id":"0.0-6.0-107.0"},{"sim_score":6,"rt":5191,"stimulus":"[\"img/0904/65e2b70a-b184-4da3-b5c0-5038bdf9469a.jpg\",\"img/0903/150cf64c-0bd2-4674-abbb-a1387cf1f3e9.jpg\"]","trial_type":"similarity","trial_index":114,"time_elapsed":916111,"internal_node_id":"0.0-6.0-108.0"},{"sim_score":3,"rt":3050,"stimulus":"[\"img/0764/fb92924f-5cfe-4b89-b130-0cce8cc5636b.jpg\",\"img/0864/e336a4c5-6648-4fd7-b2f6-93a3fb83f8c6.jpg\"]","trial_type":"similarity","trial_index":115,"time_elapsed":920174,"internal_node_id":"0.0-6.0-109.0"},{"sim_score":2,"rt":5112,"stimulus":"[\"img/0866/d266fece-59b3-46fa-b69f-96f6efb81b59.jpg\",\"img/0894/e2446cf5-cd48-486a-badc-76498e087fbe.jpg\"]","trial_type":"similarity","trial_index":116,"time_elapsed":926293,"internal_node_id":"0.0-6.0-110.0"},{"sim_score":6,"rt":7395,"stimulus":"[\"img/0899/66ab3178-c3fe-4455-ad17-d5952b08e018.jpg\",\"img/0903/f67c4ab9-f8c2-4fcd-848a-a54a7b031002.jpg\"]","trial_type":"similarity","trial_index":117,"time_elapsed":934696,"internal_node_id":"0.0-6.0-111.0"},{"sim_score":5,"rt":6262,"stimulus":"[\"img/0902/af45fe42-178c-4c1a-99ef-256e87e3b092.jpg\",\"img/0904/ba8e689e-9ca6-4608-a2a1-3b0940666ae6.jpg\"]","trial_type":"similarity","trial_index":118,"time_elapsed":941967,"internal_node_id":"0.0-6.0-112.0"},{"sim_score":4,"rt":5745,"stimulus":"[\"img/0864/efcfbb1b-8197-44c9-b723-40d6c608dd3c.jpg\",\"img/0860/94ef7afc-e0e6-4a15-98c6-0bfac82bc832.jpg\"]","trial_type":"similarity","trial_index":119,"time_elapsed":948718,"internal_node_id":"0.0-6.0-113.0"},{"sim_score":5,"rt":4871,"stimulus":"[\"img/0860/702bd09d-df3a-40aa-a267-5f04474305b5.jpg\",\"img/0899/ad8268c5-8199-48d0-ad70-c5b6d6c599ec.jpg\"]","trial_type":"similarity","trial_index":120,"time_elapsed":954598,"internal_node_id":"0.0-6.0-114.0"},{"sim_score":3,"rt":6826,"stimulus":"[\"img/0881/48ed65a5-471f-41af-86ec-3793805c116d.jpg\",\"img/0903/71dbc325-b588-4297-a5cf-7f268a722ad9.jpg\"]","trial_type":"similarity","trial_index":121,"time_elapsed":962431,"internal_node_id":"0.0-6.0-115.0"},{"sim_score":2,"rt":5321,"stimulus":"[\"img/0894/b2d2f66e-e480-46da-a02a-6d0c6b285d78.jpg\",\"img/0874/31e22c7c-99aa-40b1-bf03-dd73fa2df4d6.jpg\"]","trial_type":"similarity","trial_index":122,"time_elapsed":968759,"internal_node_id":"0.0-6.0-116.0"},{"sim_score":3,"rt":4809,"stimulus":"[\"img/0881/adc02f34-ce97-4aef-850f-00519df06fd7.jpg\",\"img/0862/7918ca67-5bd3-4606-a5ea-c39fb11a9297.jpg\"]","trial_type":"similarity","trial_index":123,"time_elapsed":974575,"internal_node_id":"0.0-6.0-117.0"},{"sim_score":6,"rt":4640,"stimulus":"[\"img/0868/4a8a45ed-2c4f-421b-9564-409a33ecd26c.jpg\",\"img/0875/f87b67d7-c33e-40d1-b281-248c4be1cb6e.jpg\"]","trial_type":"similarity","trial_index":124,"time_elapsed":980221,"internal_node_id":"0.0-6.0-118.0"},{"sim_score":2,"rt":5738,"stimulus":"[\"img/0860/5383b320-1518-4095-a58e-5cc1ae30b64c.jpg\",\"img/0758/7ffbc76b-1fc1-432c-8f7e-9ec8d1b3f643.jpg\"]","trial_type":"similarity","trial_index":125,"time_elapsed":986967,"internal_node_id":"0.0-6.0-119.0"},{"sim_score":1,"rt":4263,"stimulus":"[\"img/0864/3d4de670-b290-4285-9c3d-12a0e3af44e9.jpg\",\"img/0875/42910c99-5463-450a-a0f8-d4d060a11455.jpg\"]","trial_type":"similarity","trial_index":126,"time_elapsed":992236,"internal_node_id":"0.0-6.0-120.0"},{"sim_score":1,"rt":4179,"stimulus":"[\"img/0898/5f699581-3853-4547-856c-12f419ba5af7.jpg\",\"img/0866/bf14b5bd-fb55-47db-86b9-4f8aeb9a6dad.jpg\"]","trial_type":"similarity","trial_index":127,"time_elapsed":997424,"internal_node_id":"0.0-6.0-121.0"},{"sim_score":2,"rt":4247,"stimulus":"[\"img/0874/767f289c-9814-4496-803f-745cc8913d1f.jpg\",\"img/0904/b5855d6a-7ef9-46ca-9215-6e9fa046e543.jpg\"]","trial_type":"similarity","trial_index":128,"time_elapsed":1002679,"internal_node_id":"0.0-6.0-122.0"},{"sim_score":2,"rt":5416,"stimulus":"[\"img/0904/9dd5708f-3f8b-46a9-b49f-2f2fab87b357.jpg\",\"img/0864/8ddd2e30-a1d0-479f-9cbe-591213023893.jpg\"]","trial_type":"similarity","trial_index":129,"time_elapsed":1009102,"internal_node_id":"0.0-6.0-123.0"},{"sim_score":3,"rt":4522,"stimulus":"[\"img/0894/76c1201f-8524-4865-85e6-dda8cb4ac986.jpg\",\"img/0902/d2c34af0-8c50-437d-8cc3-619195a3e8ba.jpg\"]","trial_type":"similarity","trial_index":130,"time_elapsed":1014630,"internal_node_id":"0.0-6.0-124.0"},{"sim_score":1,"rt":4201,"stimulus":"[\"img/0868/d98ca254-b195-477f-b57e-5760a2717db8.jpg\",\"img/0864/da39ad34-04e0-40d4-a724-c08d53e0ea09.jpg\"]","trial_type":"similarity","trial_index":131,"time_elapsed":1038852,"internal_node_id":"0.0-6.0-125.0"},{"sim_score":2,"rt":3531,"stimulus":"[\"img/0899/51a7a498-98c7-42d7-bca8-bc2d8f0b5831.jpg\",\"img/0866/a15b02be-11bb-43e3-b0e0-ecc3bd7dfc49.jpg\"]","trial_type":"similarity","trial_index":132,"time_elapsed":1043391,"internal_node_id":"0.0-6.0-126.0"},{"sim_score":6,"rt":4312,"stimulus":"[\"img/0875/03c3c331-738b-4446-af92-3d7386b08c2e.jpg\",\"img/0904/56e73f28-7e64-489b-a161-e6b1a063878d.jpg\"]","trial_type":"similarity","trial_index":133,"time_elapsed":1048711,"internal_node_id":"0.0-6.0-127.0"},{"sim_score":1,"rt":4697,"stimulus":"[\"img/0867/f8488a47-94ee-4166-952c-44e16cf172f6.jpg\",\"img/0899/0433d056-aa30-4f8a-9aa1-abbb951e4edd.jpg\"]","trial_type":"similarity","trial_index":134,"time_elapsed":1054416,"internal_node_id":"0.0-6.0-128.0"},{"sim_score":4,"rt":4385,"stimulus":"[\"img/0901/58978a6d-a3e2-4c59-8d62-f60693ecc0f6.jpg\",\"img/0867/c66898ba-b71b-4d50-84f9-f7f84853a98d.jpg\"]","trial_type":"similarity","trial_index":135,"time_elapsed":1059807,"internal_node_id":"0.0-6.0-129.0"},{"sim_score":6,"rt":6960,"stimulus":"[\"img/0864/1ebbc554-99fa-49f9-8799-317375a79820.jpg\",\"img/0769/75f7e514-0548-4329-b1e4-93c05e74f038.jpg\"]","trial_type":"similarity","trial_index":136,"time_elapsed":1067777,"internal_node_id":"0.0-6.0-130.0"},{"sim_score":3,"rt":4244,"stimulus":"[\"img/0903/9b60ef5b-234f-4239-892b-3d4c412accc2.jpg\",\"img/0868/4e626425-63c8-484a-8a1d-e66ee4e0bef8.jpg\"]","trial_type":"similarity","trial_index":137,"time_elapsed":1073032,"internal_node_id":"0.0-6.0-131.0"},{"sim_score":1,"rt":3303,"stimulus":"[\"img/0864/5f74a653-3bdc-4308-8cca-ac667dc22e1f.jpg\",\"img/0867/26611f4e-d694-4460-b7e2-43c62753ddc3.jpg\"]","trial_type":"similarity","trial_index":138,"time_elapsed":1077343,"internal_node_id":"0.0-6.0-132.0"},{"sim_score":7,"rt":4769,"stimulus":"[\"img/0901/effc03f6-8f9d-46db-a66c-16fc83891c5c.jpg\",\"img/0860/8277806e-b684-4474-8f7b-3fca946d7d4f.jpg\"]","trial_type":"similarity","trial_index":139,"time_elapsed":1083120,"internal_node_id":"0.0-6.0-133.0"},{"sim_score":5,"rt":4160,"stimulus":"[\"img/0881/ed4c971f-0873-4fc8-b6d6-e8bbd82f0bcc.jpg\",\"img/0766/5d1b8041-c5a1-4b02-b4fe-3453d98a0d72.jpg\"]","trial_type":"similarity","trial_index":140,"time_elapsed":1088288,"internal_node_id":"0.0-6.0-134.0"},{"sim_score":4,"rt":4633,"stimulus":"[\"img/0903/b548d383-2a95-4575-8c13-647873751ff1.jpg\",\"img/0864/e8bd659f-aa43-4748-877e-3118e8b4e189.jpg\"]","trial_type":"similarity","trial_index":141,"time_elapsed":1093929,"internal_node_id":"0.0-6.0-135.0"},{"sim_score":3,"rt":5583,"stimulus":"[\"img/0758/2fa3e613-e676-4e6e-bd12-705327eeb3e1.jpg\",\"img/0894/c505c65a-cde2-4f2c-8cde-f8676f7c894d.jpg\"]","trial_type":"similarity","trial_index":142,"time_elapsed":1100518,"internal_node_id":"0.0-6.0-136.0"},{"sim_score":3,"rt":5386,"stimulus":"[\"img/0769/1ca58b80-2365-446d-9616-6c1719e6c46f.jpg\",\"img/0860/17b44a7d-c5ca-479f-9e87-f65a64f5c80e.jpg\"]","trial_type":"similarity","trial_index":143,"time_elapsed":1106911,"internal_node_id":"0.0-6.0-137.0"},{"sim_score":5,"rt":3306,"stimulus":"[\"img/0904/0d25eb24-bb20-4e8d-9787-8b489558b4cb.jpg\",\"img/0766/09f646c8-a69e-4ed3-879c-8d29b04ad7f9.jpg\"]","trial_type":"similarity","trial_index":144,"time_elapsed":1111261,"internal_node_id":"0.0-6.0-138.0"},{"sim_score":1,"rt":5362,"stimulus":"[\"img/0868/77091fc7-a590-4ebb-b915-fdb2483a2399.jpg\",\"img/0860/f44ba3fb-03a2-42f0-8509-2c1ded493086.jpg\"]","trial_type":"similarity","trial_index":145,"time_elapsed":1117642,"internal_node_id":"0.0-6.0-139.0"},{"sim_score":6,"rt":4365,"stimulus":"[\"img/0758/7fba58df-2a7a-4b76-8a8f-62739f97f271.jpg\",\"img/0864/c3b63e8f-ea39-4d70-a1f2-b3fe4be8eb75.jpg\"]","trial_type":"similarity","trial_index":146,"time_elapsed":1123017,"internal_node_id":"0.0-6.0-140.0"},{"sim_score":7,"rt":3414,"stimulus":"[\"img/0867/a498eef3-9fa4-4ab2-9778-4ae82ac40dc5.jpg\",\"img/0867/7d1c497b-c1b3-4ed8-abb5-d7f73306015f.jpg\"]","trial_type":"similarity","trial_index":147,"time_elapsed":1127440,"internal_node_id":"0.0-6.0-141.0"},{"sim_score":6,"rt":5878,"stimulus":"[\"img/0898/224c1572-56b9-4f16-a9e4-6f3bc9c114bd.jpg\",\"img/0898/881e2a85-d5c2-49be-a0c6-8a6ce2c4af08.jpg\"]","trial_type":"similarity","trial_index":148,"time_elapsed":1134326,"internal_node_id":"0.0-6.0-142.0"},{"sim_score":2,"rt":5250,"stimulus":"[\"img/0866/945c6710-d15b-4a5b-a8f6-69af0850357f.jpg\",\"img/0769/0fe124d3-bcad-45f6-b64d-8f6eb8ee5251.jpg\"]","trial_type":"similarity","trial_index":149,"time_elapsed":1140584,"internal_node_id":"0.0-6.0-143.0"},{"sim_score":7,"rt":3110,"stimulus":"[\"img/0860/b03b963d-949b-4d8d-b19c-4950c89eeca2.jpg\",\"img/0898/993d8f2d-bef7-4251-a193-0f93a32b7763.jpg\"]","trial_type":"similarity","trial_index":150,"time_elapsed":1144703,"internal_node_id":"0.0-6.0-144.0"},{"sim_score":7,"rt":6633,"stimulus":"[\"img/0766/d919cedb-f9b7-4f30-83bb-3e9c65001ceb.jpg\",\"img/0864/6e846d43-94a6-4b37-a268-65eda979f052.jpg\"]","trial_type":"similarity","trial_index":151,"time_elapsed":1152344,"internal_node_id":"0.0-6.0-145.0"},{"sim_score":4,"rt":5406,"stimulus":"[\"img/0860/4c530c3c-6aab-492a-94d1-9c01797bde40.jpg\",\"img/0903/f1fa0f8d-e62b-4b4a-a174-31a0fabfe61b.jpg\"]","trial_type":"similarity","trial_index":152,"time_elapsed":1158759,"internal_node_id":"0.0-6.0-146.0"},{"sim_score":2,"rt":4662,"stimulus":"[\"img/0867/cc72ed48-7704-422c-86d6-467a1145287a.jpg\",\"img/0764/6c7fe363-2d37-418f-9e5e-a3273af5d4fb.jpg\"]","trial_type":"similarity","trial_index":153,"time_elapsed":1164429,"internal_node_id":"0.0-6.0-147.0"},{"sim_score":6,"rt":4778,"stimulus":"[\"img/0769/db94b61b-a5a7-4861-9d32-7b02ad194fb0.jpg\",\"img/0904/a8c3c7d2-9bcf-4347-9e03-8203adfc1fc5.jpg\"]","trial_type":"similarity","trial_index":154,"time_elapsed":1170215,"internal_node_id":"0.0-6.0-148.0"},{"sim_score":3,"rt":4064,"stimulus":"[\"img/0764/62fafeea-6274-48ce-976f-35d3d3484c65.jpg\",\"img/0901/4d1bed7e-3c4e-4f6c-ada9-4beb66ba9e39.jpg\"]","trial_type":"similarity","trial_index":155,"time_elapsed":1175287,"internal_node_id":"0.0-6.0-149.0"},{"sim_score":7,"rt":5985,"stimulus":"[\"img/0904/1d10df11-b5c8-4370-9a6b-097a7f965895.jpg\",\"img/0899/5b56dd3e-3f49-47cc-af84-16da6457753b.jpg\"]","trial_type":"similarity","trial_index":156,"time_elapsed":1182281,"internal_node_id":"0.0-6.0-150.0"},{"sim_score":1,"rt":5862,"stimulus":"[\"img/0862/f43ceabf-acc1-4107-b857-5d1849808f93.jpg\",\"img/0867/12264664-1860-46df-8c21-162b9817cdda.jpg\"]","trial_type":"similarity","trial_index":157,"time_elapsed":1189151,"internal_node_id":"0.0-6.0-151.0"},{"sim_score":7,"rt":5840,"stimulus":"[\"img/0766/1865bfc9-2410-4765-a804-3ae4ba2393d0.jpg\",\"img/0766/214866ee-423d-4629-9bb9-41572bdc7dac.jpg\"]","trial_type":"similarity","trial_index":158,"time_elapsed":1195999,"internal_node_id":"0.0-6.0-152.0"},{"sim_score":2,"rt":4977,"stimulus":"[\"img/0862/eefa5588-9efd-4591-aa5f-a2e17c7d7bcc.jpg\",\"img/0894/10f22b96-040c-44f4-950b-a4963f3f506c.jpg\"]","trial_type":"similarity","trial_index":159,"time_elapsed":1201982,"internal_node_id":"0.0-6.0-153.0"},{"sim_score":2,"rt":4639,"stimulus":"[\"img/0899/565ccdd9-0933-4536-a625-3c0e25a713dd.jpg\",\"img/0901/1ede21d9-384f-4150-86b5-e1c57b5dc1d4.jpg\"]","trial_type":"similarity","trial_index":160,"time_elapsed":1207631,"internal_node_id":"0.0-6.0-154.0"},{"sim_score":7,"rt":5072,"stimulus":"[\"img/0874/eba003b4-cdab-4eee-8bc3-f064c7d94165.jpg\",\"img/0874/ca76a855-4e77-4f2f-872a-0a718153e7ed.jpg\"]","trial_type":"similarity","trial_index":161,"time_elapsed":1213711,"internal_node_id":"0.0-6.0-155.0"},{"sim_score":3,"rt":4519,"stimulus":"[\"img/0860/e14d67c1-6d92-4f1e-9257-c8607159c19c.jpg\",\"img/0867/de92135f-5b65-4ed9-b245-188292c7c2f8.jpg\"]","trial_type":"similarity","trial_index":162,"time_elapsed":1219238,"internal_node_id":"0.0-6.0-156.0"},{"sim_score":4,"rt":3745,"stimulus":"[\"img/0901/4ca4f962-40c0-4c59-b14a-3cd7b8c9029b.jpg\",\"img/0881/db77fe00-aeb0-4d1d-aa66-f3a96fd077e4.jpg\"]","trial_type":"similarity","trial_index":163,"time_elapsed":1223990,"internal_node_id":"0.0-6.0-157.0"},{"sim_score":7,"rt":4672,"stimulus":"[\"img/0903/8fcafe03-43df-4c45-9da5-0df3a1eeccc5.jpg\",\"img/0902/c920f0e1-1c81-480f-a164-c77f2dc6ce9a.jpg\"]","trial_type":"similarity","trial_index":164,"time_elapsed":1229671,"internal_node_id":"0.0-6.0-158.0"},{"sim_score":2,"rt":4784,"stimulus":"[\"img/0860/99c589b9-9140-4d17-90c0-b344323edcda.jpg\",\"img/0764/29072395-f595-4e3c-83d3-ff87010039fa.jpg\"]","trial_type":"similarity","trial_index":165,"time_elapsed":1235463,"internal_node_id":"0.0-6.0-159.0"},{"sim_score":1,"rt":3344,"stimulus":"[\"img/0902/2a7ac123-414a-476a-9a96-4757b924baef.jpg\",\"img/0875/90da8d75-108a-44ad-b999-e21fee3860d3.jpg\"]","trial_type":"similarity","trial_index":166,"time_elapsed":1239815,"internal_node_id":"0.0-6.0-160.0"},{"sim_score":5,"rt":5074,"stimulus":"[\"img/0898/e167334e-cc1d-4986-b3b1-c7bc7da64baa.jpg\",\"img/0862/f23038d4-c366-4f70-979f-66b62362efa4.jpg\"]","trial_type":"similarity","trial_index":167,"time_elapsed":1245897,"internal_node_id":"0.0-6.0-161.0"},{"sim_score":3,"rt":4070,"stimulus":"[\"img/0894/5c7677b0-a4f1-479e-b274-7822c415175a.jpg\",\"img/0875/fb732ab5-013a-4366-9f65-27811ed157e9.jpg\"]","trial_type":"similarity","trial_index":168,"time_elapsed":1250975,"internal_node_id":"0.0-6.0-162.0"},{"sim_score":1,"rt":3217,"stimulus":"[\"img/0866/23a224f3-2012-4fc8-8e0f-3c36f8de27fd.jpg\",\"img/0864/300bb811-8b3c-4c42-8653-6097c3725197.jpg\"]","trial_type":"similarity","trial_index":169,"time_elapsed":1255199,"internal_node_id":"0.0-6.0-163.0"},{"sim_score":4,"rt":5576,"stimulus":"[\"img/0766/51d3aab4-3d09-4dda-b99d-3dc7aaabc6f2.jpg\",\"img/0862/92fcd8a4-8193-4a6a-ae09-dd4a6338b0df.jpg\"]","trial_type":"similarity","trial_index":170,"time_elapsed":1261783,"internal_node_id":"0.0-6.0-164.0"},{"sim_score":1,"rt":4015,"stimulus":"[\"img/0866/07c9c966-3c8d-40e7-8128-92b2acbaed5d.jpg\",\"img/0874/a82926a3-0b43-4add-803c-d5f9ea7798ee.jpg\"]","trial_type":"similarity","trial_index":171,"time_elapsed":1266806,"internal_node_id":"0.0-6.0-165.0"},{"sim_score":3,"rt":3800,"stimulus":"[\"img/0862/f188d4f0-76a4-4102-818c-a209969d73a5.jpg\",\"img/0860/8a92e21b-6a32-4e4a-a445-2d5a487ed0a4.jpg\"]","trial_type":"similarity","trial_index":172,"time_elapsed":1271612,"internal_node_id":"0.0-6.0-166.0"},{"sim_score":2,"rt":5187,"stimulus":"[\"img/0766/dd3e18d0-0c98-4d05-b850-69976ee8cd75.jpg\",\"img/0901/b13fa50f-dbe0-4d0f-8647-6ac0fd8f40bd.jpg\"]","trial_type":"similarity","trial_index":173,"time_elapsed":1301701,"internal_node_id":"0.0-6.0-167.0"},{"sim_score":6,"rt":5425,"stimulus":"[\"img/0862/fad1d7c1-8187-43c3-942a-0fc12183e48e.jpg\",\"img/0862/5d887e9f-89e2-4ebc-80a0-6d46fe6480db.jpg\"]","trial_type":"similarity","trial_index":174,"time_elapsed":1308134,"internal_node_id":"0.0-6.0-168.0"},{"sim_score":4,"rt":4315,"stimulus":"[\"img/0894/3adef67d-7676-4995-80b2-bb31b8aca3ef.jpg\",\"img/0764/c0b03adb-bd0a-4b96-a915-a827c2fd5211.jpg\"]","trial_type":"similarity","trial_index":175,"time_elapsed":1313454,"internal_node_id":"0.0-6.0-169.0"},{"sim_score":5,"rt":3098,"stimulus":"[\"img/0874/93d1f8dc-acf2-4f03-bd8d-8ec35df276ed.jpg\",\"img/0898/40f99fb2-64d2-4e72-8a7f-a1cf60741e69.jpg\"]","trial_type":"similarity","trial_index":176,"time_elapsed":1317559,"internal_node_id":"0.0-6.0-170.0"},{"sim_score":3,"rt":4246,"stimulus":"[\"img/0860/5bff793e-cbd5-4d7e-b628-0ac2b0e30b64.jpg\",\"img/0766/af3be95e-e52e-4fae-899b-0ff02ec340aa.jpg\"]","trial_type":"similarity","trial_index":177,"time_elapsed":1322816,"internal_node_id":"0.0-6.0-171.0"},{"sim_score":3,"rt":3207,"stimulus":"[\"img/0898/a8f16b02-e19f-423b-86c3-a36562ae1f9b.jpg\",\"img/0864/afcba0a3-7e27-4757-b254-e9f05fad27e2.jpg\"]","trial_type":"similarity","trial_index":178,"time_elapsed":1327032,"internal_node_id":"0.0-6.0-172.0"},{"sim_score":7,"rt":5255,"stimulus":"[\"img/0881/dea58fad-b4f1-41d9-bd3f-916eff19a3fd.jpg\",\"img/0764/6ef77040-1fae-4afa-bfe7-eda98e6d0376.jpg\"]","trial_type":"similarity","trial_index":179,"time_elapsed":1333295,"internal_node_id":"0.0-6.0-173.0"},{"sim_score":2,"rt":4279,"stimulus":"[\"img/0898/0c7dde4f-efce-4b7a-9387-6921635b7890.jpg\",\"img/0868/09a9ef4d-d000-4cfa-a6aa-ebec7c2edeb4.jpg\"]","trial_type":"similarity","trial_index":180,"time_elapsed":1338585,"internal_node_id":"0.0-6.0-174.0"},{"sim_score":5,"rt":4750,"stimulus":"[\"img/0864/c22faebd-9c53-47bc-ada3-b9a30c688e75.jpg\",\"img/0864/b3c4e378-28f0-4699-9338-2a257b4bca04.jpg\"]","trial_type":"similarity","trial_index":181,"time_elapsed":1344343,"internal_node_id":"0.0-6.0-175.0"},{"sim_score":4,"rt":6040,"stimulus":"[\"img/0899/4408c14d-c168-4a7d-96f6-bc87bfb58f83.jpg\",\"img/0862/24cdc752-c2e5-4a17-86a6-6f2045d8553b.jpg\"]","trial_type":"similarity","trial_index":182,"time_elapsed":1351391,"internal_node_id":"0.0-6.0-176.0"},{"sim_score":2,"rt":4793,"stimulus":"[\"img/0875/2c361b79-c3d1-4eda-812e-bf03192407bf.jpg\",\"img/0758/6cd8c362-ae2a-41eb-80a3-3a4f7ace1530.jpg\"]","trial_type":"similarity","trial_index":183,"time_elapsed":1357190,"internal_node_id":"0.0-6.0-177.0"},{"sim_score":1,"rt":4545,"stimulus":"[\"img/0866/02f5e6b9-52b7-448c-9708-5b460d0c9a23.jpg\",\"img/0901/deff6cfb-0072-4490-bc3e-206bbcd3e8bf.jpg\"]","trial_type":"similarity","trial_index":184,"time_elapsed":1362744,"internal_node_id":"0.0-6.0-178.0"},{"sim_score":6,"rt":5543,"stimulus":"[\"img/0769/35364db7-e0d5-40ef-93dc-faf9dfb95136.jpg\",\"img/0874/29830da7-be5f-44e5-b141-652a0ccf7269.jpg\"]","trial_type":"similarity","trial_index":185,"time_elapsed":1369295,"internal_node_id":"0.0-6.0-179.0"},{"sim_score":1,"rt":4433,"stimulus":"[\"img/0875/3ecb367d-e9eb-4826-8aaa-7aa72fb98019.jpg\",\"img/0881/b549bc99-a61c-4450-bab5-9efc3a197bf0.jpg\"]","trial_type":"similarity","trial_index":186,"time_elapsed":1374735,"internal_node_id":"0.0-6.0-180.0"},{"sim_score":2,"rt":4472,"stimulus":"[\"img/0866/93a27239-8317-4e08-98ca-d8b1ff298e07.jpg\",\"img/0868/6a28c3b0-3d76-498a-9fb7-ddafc665eca8.jpg\"]","trial_type":"similarity","trial_index":187,"time_elapsed":1380216,"internal_node_id":"0.0-6.0-181.0"},{"sim_score":3,"rt":3664,"stimulus":"[\"img/0899/fd9efb43-701f-4cd6-baaa-4c38315f4bdc.jpg\",\"img/0758/caa93da2-9edf-49fa-96b9-32dedd8f5078.jpg\"]","trial_type":"similarity","trial_index":188,"time_elapsed":1384888,"internal_node_id":"0.0-6.0-182.0"},{"sim_score":4,"rt":3983,"stimulus":"[\"img/0874/3f471690-9788-4d03-90c7-f615aecef149.jpg\",\"img/0875/dbdd643e-6d0e-4a5c-ab57-b9c29b9c981a.jpg\"]","trial_type":"similarity","trial_index":189,"time_elapsed":1389879,"internal_node_id":"0.0-6.0-183.0"},{"sim_score":6,"rt":5553,"stimulus":"[\"img/0904/6291eb43-c10c-4810-a36a-101d09868b04.jpg\",\"img/0862/ad593cc7-cabe-4bb7-8e14-8a447a0717b4.jpg\"]","trial_type":"similarity","trial_index":190,"time_elapsed":1396437,"internal_node_id":"0.0-6.0-184.0"},{"sim_score":3,"rt":4657,"stimulus":"[\"img/0902/5b45a7a0-81c8-4a71-aaa2-2ce09adb5a29.jpg\",\"img/0766/f011ef45-fb48-44b8-8224-867ed2ccf786.jpg\"]","trial_type":"similarity","trial_index":191,"time_elapsed":1402103,"internal_node_id":"0.0-6.0-185.0"},{"sim_score":2,"rt":3958,"stimulus":"[\"img/0758/7ee8bc8f-c40b-4b3a-84ec-3e83580622d4.jpg\",\"img/0769/47700831-0ca2-4fdd-a498-a3bc5a528f43.jpg\"]","trial_type":"similarity","trial_index":192,"time_elapsed":1407070,"internal_node_id":"0.0-6.0-186.0"},{"sim_score":7,"rt":3744,"stimulus":"[\"img/0881/ee44e27f-d662-4608-b265-e7ffa19b216f.jpg\",\"img/0881/20af39f5-373d-4a55-a437-2dc4c0382c46.jpg\"]","trial_type":"similarity","trial_index":193,"time_elapsed":1411820,"internal_node_id":"0.0-6.0-187.0"},{"sim_score":2,"rt":3924,"stimulus":"[\"img/0758/e1ba5e53-addc-436a-b428-d34fc1b130dc.jpg\",\"img/0866/620cd1aa-0800-4414-8f6e-90342e7a99ad.jpg\"]","trial_type":"similarity","trial_index":194,"time_elapsed":1416751,"internal_node_id":"0.0-6.0-188.0"},{"sim_score":5,"rt":4208,"stimulus":"[\"img/0764/8389e74f-e0e0-435d-945f-da1f4c92ccb6.jpg\",\"img/0898/01bfe666-3510-4fc7-964f-d00d28732dc8.jpg\"]","trial_type":"similarity","trial_index":195,"time_elapsed":1421967,"internal_node_id":"0.0-6.0-189.0"},{"sim_score":4,"rt":4049,"stimulus":"[\"img/0903/24477210-856c-4550-9de0-9f85a32762eb.jpg\",\"img/0901/31c032fd-3c3d-4882-a226-da9a80198937.jpg\"]","trial_type":"similarity","trial_index":196,"time_elapsed":1427025,"internal_node_id":"0.0-6.0-190.0"},{"sim_score":5,"rt":6368,"stimulus":"[\"img/0902/962f645e-9b55-4628-9b50-c703422bfe1a.jpg\",\"img/0898/4184e5a2-84ea-4f36-9b42-ae58646f6f87.jpg\"]","trial_type":"similarity","trial_index":197,"time_elapsed":1434401,"internal_node_id":"0.0-6.0-191.0"},{"sim_score":1,"rt":4953,"stimulus":"[\"img/0864/a248adb3-c70b-4652-b7a3-776d2a1e904b.jpg\",\"img/0901/12da1841-e611-435c-9719-109413d536a8.jpg\"]","trial_type":"similarity","trial_index":198,"time_elapsed":1440361,"internal_node_id":"0.0-6.0-192.0"},{"sim_score":2,"rt":3772,"stimulus":"[\"img/0894/bd34223a-2f66-4e16-9d18-193a746b69ff.jpg\",\"img/0881/292e9b4b-fca0-4ba8-87f1-4048f9e37b7d.jpg\"]","trial_type":"similarity","trial_index":199,"time_elapsed":1445143,"internal_node_id":"0.0-6.0-193.0"},{"sim_score":7,"rt":4928,"stimulus":"[\"img/0868/5fa7f9d0-f0e5-454c-8224-74d964818f56.jpg\",\"img/0868/c8ac40c7-6904-4e13-8d61-c75d3052dc4e.jpg\"]","trial_type":"similarity","trial_index":200,"time_elapsed":1451079,"internal_node_id":"0.0-6.0-194.0"},{"sim_score":4,"rt":4745,"stimulus":"[\"img/0899/d8f2dd94-570e-4e8c-a087-d96090fb9e8c.jpg\",\"img/0764/ec2dd087-c471-4370-b570-95a542506a96.jpg\"]","trial_type":"similarity","trial_index":201,"time_elapsed":1456831,"internal_node_id":"0.0-6.0-195.0"},{"sim_score":3,"rt":4870,"stimulus":"[\"img/0881/7e31e5dc-2240-4b1b-b5a0-3acd980099ef.jpg\",\"img/0904/24fc38fe-842c-4831-ad8a-b1de5c25c0a8.jpg\"]","trial_type":"similarity","trial_index":202,"time_elapsed":1462710,"internal_node_id":"0.0-6.0-196.0"},{"sim_score":6,"rt":4985,"stimulus":"[\"img/0864/1d15626a-2f7c-410f-819c-0fa2c967e95e.jpg\",\"img/0902/62f11694-7ed7-4cb7-8a73-9e95c43824e7.jpg\"]","trial_type":"similarity","trial_index":203,"time_elapsed":1468705,"internal_node_id":"0.0-6.0-197.0"},{"sim_score":7,"rt":5455,"stimulus":"[\"img/0894/3664e04c-c6d3-4c9b-afb6-25d89974b174.jpg\",\"img/0904/e9423a8c-f946-43ad-ab7b-931acef870e2.jpg\"]","trial_type":"similarity","trial_index":204,"time_elapsed":1475168,"internal_node_id":"0.0-6.0-198.0"},{"sim_score":7,"rt":5551,"stimulus":"[\"img/0901/3db47171-0139-4235-82cd-0b1787b6775f.jpg\",\"img/0901/58ec7fa9-b466-4651-90aa-c082df0972de.jpg\"]","trial_type":"similarity","trial_index":205,"time_elapsed":1481725,"internal_node_id":"0.0-6.0-199.0"},{"sim_score":2,"rt":3410,"stimulus":"[\"img/0894/e6385e52-6c35-43bd-b0af-bc803d107b11.jpg\",\"img/0860/524b2e98-5767-4d53-942c-ebae6925659b.jpg\"]","trial_type":"similarity","trial_index":206,"time_elapsed":1486144,"internal_node_id":"0.0-6.0-200.0"},{"sim_score":6,"rt":5120,"stimulus":"[\"img/0898/b3290bf9-215b-4b45-b21a-65bdf73f142f.jpg\",\"img/0903/4cbdc464-e562-4ec2-9bb6-15f894fdf528.jpg\"]","trial_type":"similarity","trial_index":207,"time_elapsed":1492272,"internal_node_id":"0.0-6.0-201.0"},{"sim_score":4,"rt":4073,"stimulus":"[\"img/0864/0f537697-a314-47c3-a8cc-8df23b7e536c.jpg\",\"img/0894/a98416c0-51e2-4960-85da-d81d8688b9d5.jpg\"]","trial_type":"similarity","trial_index":208,"time_elapsed":1497352,"internal_node_id":"0.0-6.0-202.0"},{"sim_score":2,"rt":4376,"stimulus":"[\"img/0874/3ce41e7c-40c8-4d58-a546-171114521796.jpg\",\"img/0860/15b24a61-25be-4356-9eac-5ce95d0cb4a4.jpg\"]","trial_type":"similarity","trial_index":209,"time_elapsed":1502737,"internal_node_id":"0.0-6.0-203.0"},{"sim_score":1,"rt":3024,"stimulus":"[\"img/0862/de9ad88c-b522-430a-8ee9-eb06a9f85df5.jpg\",\"img/0875/e7e66b13-b573-431e-b85e-288ce04a35a3.jpg\"]","trial_type":"similarity","trial_index":210,"time_elapsed":1506768,"internal_node_id":"0.0-6.0-204.0"},{"sim_score":4,"rt":3479,"stimulus":"[\"img/0867/1719a35d-f085-48c0-9099-16c94fe418b4.jpg\",\"img/0881/d373cb9f-a719-4549-a2a4-82def79fb2a5.jpg\"]","trial_type":"similarity","trial_index":211,"time_elapsed":1511254,"internal_node_id":"0.0-6.0-205.0"},{"sim_score":3,"rt":2952,"stimulus":"[\"img/0901/f469cb1d-6d81-4a45-bab5-cd0b650c2b4f.jpg\",\"img/0902/04a6ad4a-afc6-4871-8225-56b299af7b6b.jpg\"]","trial_type":"similarity","trial_index":212,"time_elapsed":1515212,"internal_node_id":"0.0-6.0-206.0"},{"sim_score":6,"rt":8860,"stimulus":"[\"img/0899/06b0fc99-0581-461a-9913-d1a5a941ac61.jpg\",\"img/0864/49150900-7f25-4ce8-8d10-9b47a71d1997.jpg\"]","trial_type":"similarity","trial_index":213,"time_elapsed":1525079,"internal_node_id":"0.0-6.0-207.0"},{"sim_score":4,"rt":4673,"stimulus":"[\"img/0901/0adb3bd6-d758-4ba7-9723-3ad6cac05bd5.jpg\",\"img/0769/3c1203c5-2ce7-466e-957a-8d77b5905460.jpg\"]","trial_type":"similarity","trial_index":214,"time_elapsed":1530759,"internal_node_id":"0.0-6.0-208.0"},{"sim_score":7,"rt":4728,"stimulus":"[\"img/0902/7499db23-3a41-41ea-ab5b-6ab4d4c3ed35.jpg\",\"img/0902/6730b12a-f0a7-4587-8c10-a32fae16565b.jpg\"]","trial_type":"similarity","trial_index":215,"time_elapsed":1560237,"internal_node_id":"0.0-6.0-209.0"},{"view_history":"[{\"page_index\":0,\"viewing_time\":11799}]","rt":11801,"trial_type":"instructions","trial_index":216,"time_elapsed":1573039,"internal_node_id":"0.0-7.0"},{"rt":23578,"responses":"{\"Q0\":\"Orange-crowned Warbler\"}","answer":["Nashville Warbler"],"trial_type":"image-multi-choice","trial_index":217,"time_elapsed":1597676,"internal_node_id":"0.0-8.0-0.0"},{"rt":8200,"responses":"{\"Q0\":\"Blackburnian Warbler\"}","answer":["Black-and-white Warbler"],"trial_type":"image-multi-choice","trial_index":218,"time_elapsed":1606903,"internal_node_id":"0.0-8.0-1.0"},{"rt":9348,"responses":"{\"Q0\":\"Townsend's Warbler\"}","answer":["Townsend's Warbler"],"trial_type":"image-multi-choice","trial_index":219,"time_elapsed":1617289,"internal_node_id":"0.0-8.0-2.0"},{"rt":8354,"responses":"{\"Q0\":\"Lincoln's Sparrow\"}","answer":["Lark Sparrow"],"trial_type":"image-multi-choice","trial_index":220,"time_elapsed":1626673,"internal_node_id":"0.0-8.0-3.0"},{"rt":8651,"responses":"{\"Q0\":\"Yellow Warbler\"}","answer":["Yellow Warbler"],"trial_type":"image-multi-choice","trial_index":221,"time_elapsed":1636357,"internal_node_id":"0.0-8.0-4.0"},{"rt":24525,"responses":"{\"Q0\":\"Nashville Warbler\"}","answer":["Orange-crowned Warbler"],"trial_type":"image-multi-choice","trial_index":222,"time_elapsed":1661905,"internal_node_id":"0.0-8.0-5.0"},{"rt":19564,"responses":"{\"Q0\":\"White-throated Sparrow\"}","answer":["White-throated Sparrow"],"trial_type":"image-multi-choice","trial_index":223,"time_elapsed":1682498,"internal_node_id":"0.0-8.0-6.0"},{"rt":8033,"responses":"{\"Q0\":\"Fox Sparrow\"}","answer":["Fox Sparrow"],"trial_type":"image-multi-choice","trial_index":224,"time_elapsed":1691559,"internal_node_id":"0.0-8.0-7.0"},{"rt":5588,"responses":"{\"Q0\":\"Chipping Sparrow\"}","answer":["Song Sparrow"],"trial_type":"image-multi-choice","trial_index":225,"time_elapsed":1698170,"internal_node_id":"0.0-8.0-8.0"},{"rt":10545,"responses":"{\"Q0\":\"Black-and-white Warbler\"}","answer":["Blackburnian Warbler"],"trial_type":"image-multi-choice","trial_index":226,"time_elapsed":1709741,"internal_node_id":"0.0-8.0-9.0"},{"rt":10166,"responses":"{\"Q0\":\"Vesper Sparrow\"}","answer":["Vesper Sparrow"],"trial_type":"image-multi-choice","trial_index":227,"time_elapsed":1720927,"internal_node_id":"0.0-8.0-10.0"},{"rt":9777,"responses":"{\"Q0\":\"White-crowned Sparrow\"}","answer":["White-crowned Sparrow"],"trial_type":"image-multi-choice","trial_index":228,"time_elapsed":1731729,"internal_node_id":"0.0-8.0-11.0"},{"rt":12127,"responses":"{\"Q0\":\"American Tree Sparrow\"}","answer":["American Tree Sparrow"],"trial_type":"image-multi-choice","trial_index":229,"time_elapsed":1744880,"internal_node_id":"0.0-8.0-12.0"},{"rt":17534,"responses":"{\"Q0\":\"Ovenbird\"}","answer":["Tennessee Warbler"],"trial_type":"image-multi-choice","trial_index":230,"time_elapsed":1763442,"internal_node_id":"0.0-8.0-13.0"},{"rt":21069,"responses":"{\"Q0\":\"Tennessee Warbler\"}","answer":["Magnolia Warbler"],"trial_type":"image-multi-choice","trial_index":231,"time_elapsed":1785533,"internal_node_id":"0.0-8.0-14.0"},{"rt":20340,"responses":"{\"Q0\":\"Northern Waterthrush\"}","answer":["Northern Waterthrush"],"trial_type":"image-multi-choice","trial_index":232,"time_elapsed":1806905,"internal_node_id":"0.0-8.0-15.0"},{"rt":15349,"responses":"{\"Q0\":\"Vesper Sparrow\"}","answer":["Chipping Sparrow"],"trial_type":"image-multi-choice","trial_index":233,"time_elapsed":1823289,"internal_node_id":"0.0-8.0-16.0"},{"rt":14314,"responses":"{\"Q0\":\"Swamp Sparrow\"}","answer":["Swamp Sparrow"],"trial_type":"image-multi-choice","trial_index":234,"time_elapsed":1838633,"internal_node_id":"0.0-8.0-17.0"},{"rt":11034,"responses":"{\"Q0\":\"Song Sparrow\"}","answer":["Lincoln's Sparrow"],"trial_type":"image-multi-choice","trial_index":235,"time_elapsed":1850694,"internal_node_id":"0.0-8.0-18.0"},{"rt":17482,"responses":"{\"Q0\":\"Fox Sparrow\"}","answer":["Ovenbird"],"trial_type":"image-multi-choice","trial_index":236,"time_elapsed":1869209,"internal_node_id":"0.0-8.0-19.0"}]