"view_history","rt","trial_type","trial_index","time_elapsed","internal_node_id","sim_score","stimulus","responses","answer"
"[{""page_index"":0,""viewing_time"":13205}]","13206","instructions","0","13207","0.0-0.0","","","",""
"","8118","similarity_demo","1","22331","0.0-1.0","5","[""img/866.jpg"",""img/868.jpg""]","",""
"[{""page_index"":0,""viewing_time"":6690}]","6691","instructions","2","30024","0.0-2.0","","","",""
"","4936","similarity_demo","3","35965","0.0-3.0","3","[""img/766.jpg"",""img/867.jpg""]","",""
"[{""page_index"":0,""viewing_time"":5147}]","5148","instructions","4","42118","0.0-4.0","","","",""
"[{""page_index"":0,""viewing_time"":23152}]","23152","instructions","5","66272","0.0-5.0","","","",""
"","5225","similarity","6","72506","0.0-6.0-0.0","5","[""img/0868/4bd5105a-d2c3-4f82-8c80-57196106ba53.jpg"",""img/0901/443f2e59-199b-4f7b-9de9-c44ad97326a5.jpg""]","",""
"","5082","similarity","7","78592","0.0-6.0-1.0","5","[""img/0769/e31b3bd8-efcb-413e-aa8c-75fac2b8f2ac.jpg"",""img/0867/db7e032f-162b-46f5-ae67-2b29679adee4.jpg""]","",""
"","3548","similarity","8","83148","0.0-6.0-2.0","3","[""img/0766/c23b5a20-e50f-4d85-841f-cf89212a4348.jpg"",""img/0898/81b08535-2020-4c15-9ce4-2f1e460755ae.jpg""]","",""
"","5112","similarity","9","89268","0.0-6.0-3.0","5","[""img/0902/31abfa33-7cdb-44ad-968e-9f7b324d577a.jpg"",""img/0881/b549bc99-a61c-4450-bab5-9efc3a197bf0.jpg""]","",""
"","6779","similarity","10","97053","0.0-6.0-4.0","7","[""img/0894/b2d2f66e-e480-46da-a02a-6d0c6b285d78.jpg"",""img/0894/492d2f29-d7b9-4422-8be8-47fd58bfaa8b.jpg""]","",""
"","4946","similarity","11","103004","0.0-6.0-5.0","4","[""img/0874/a82926a3-0b43-4add-803c-d5f9ea7798ee.jpg"",""img/0899/93494f3b-d539-4075-b027-d82e344563da.jpg""]","",""
"","3429","similarity","12","107437","0.0-6.0-6.0","5","[""img/0904/b7c2a2c8-df33-4473-b3d4-ff7147c60db3.jpg"",""img/0764/cffc80b0-4a90-4acb-a530-6f480f3ca303.jpg""]","",""
"","4754","similarity","13","113197","0.0-6.0-7.0","3","[""img/0899/9de5e857-aa9a-4e0c-8ba2-46d79bd069a4.jpg"",""img/0898/5f699581-3853-4547-856c-12f419ba5af7.jpg""]","",""
"","3540","similarity","14","117741","0.0-6.0-8.0","3","[""img/0874/c0378dac-9370-439a-8b79-db27c96fb390.jpg"",""img/0903/c3cb4a01-2797-43ca-b216-88c67b323fbb.jpg""]","",""
"","2932","similarity","15","121679","0.0-6.0-9.0","5","[""img/0881/19e82c47-8e4b-45d2-a6c8-74181eb4155e.jpg"",""img/0758/3ddd05d3-557e-4ee7-8b78-9d2d681d8ae2.jpg""]","",""
"","4454","similarity","16","127136","0.0-6.0-10.0","5","[""img/0898/cd3aaa3f-efa9-4ab3-8d6f-a6a9273ddf42.jpg"",""img/0901/a0d65c84-3f20-476a-92d1-0c01e8019cf4.jpg""]","",""
"","4914","similarity","17","133054","0.0-6.0-11.0","3","[""img/0903/6378ee1e-3d2b-48d2-87be-bebda32c8268.jpg"",""img/0769/d1be2815-fa79-46e8-b5c3-7d81caaca490.jpg""]","",""
"","4191","similarity","18","138252","0.0-6.0-12.0","2","[""img/0764/8740679b-b56f-4292-aece-14063457113a.jpg"",""img/0868/4a8a45ed-2c4f-421b-9564-409a33ecd26c.jpg""]","",""
"","2922","similarity","19","142178","0.0-6.0-13.0","2","[""img/0867/2e1a0b58-cdb1-4107-a14e-452530d7b9b0.jpg"",""img/0903/24477210-856c-4550-9de0-9f85a32762eb.jpg""]","",""
"","3013","similarity","20","146194","0.0-6.0-14.0","2","[""img/0766/0bf3793e-c353-45e5-ac6f-753f5f484e10.jpg"",""img/0758/e1ba5e53-addc-436a-b428-d34fc1b130dc.jpg""]","",""
"","3177","similarity","21","150379","0.0-6.0-15.0","4","[""img/0902/d3e55000-c839-4bf9-9b9b-4af0a9925af1.jpg"",""img/0860/99c589b9-9140-4d17-90c0-b344323edcda.jpg""]","",""
"","2585","similarity","22","153967","0.0-6.0-16.0","3","[""img/0769/f229321f-04dd-42d7-b14a-ffad6b509862.jpg"",""img/0875/90da8d75-108a-44ad-b999-e21fee3860d3.jpg""]","",""
"","5557","similarity","23","160526","0.0-6.0-17.0","2","[""img/0904/09dac84f-3d1c-4445-a68e-d0389fdbf1e9.jpg"",""img/0866/945c6710-d15b-4a5b-a8f6-69af0850357f.jpg""]","",""
"","3238","similarity","24","164768","0.0-6.0-18.0","7","[""img/0875/a4935837-7d3c-4df6-88c1-36a94d4991ca.jpg"",""img/0875/5a1e5100-0d94-4fec-bbe9-ca9894d2cf8e.jpg""]","",""
"","3562","similarity","25","169335","0.0-6.0-19.0","7","[""img/0758/61d64021-9214-4951-bdf8-f871f9827cf9.jpg"",""img/0758/a085b443-b5d7-4cb2-9ad4-b9dab0fc23f1.jpg""]","",""
"","3224","similarity","26","173565","0.0-6.0-20.0","3","[""img/0902/a6fb6dd5-696c-47ec-be7d-d7b88f1544f1.jpg"",""img/0874/8cdb1c07-1c32-46d2-981c-3636560fa6e5.jpg""]","",""
"","3352","similarity","27","177919","0.0-6.0-21.0","4","[""img/0764/06ea144f-f4f3-4a14-ba47-f20f35c561e0.jpg"",""img/0769/7c50e5f5-cc38-4d48-b009-fbe17bcea61c.jpg""]","",""
"","3453","similarity","28","182374","0.0-6.0-22.0","2","[""img/0901/4ca4f962-40c0-4c59-b14a-3cd7b8c9029b.jpg"",""img/0874/bf14b896-e930-4fd9-9c05-2e83317a2773.jpg""]","",""
"","4385","similarity","29","187763","0.0-6.0-23.0","2","[""img/0875/cff79b3a-a797-4393-9757-6275f999ec04.jpg"",""img/0903/d987e220-f3e6-4b6d-a270-fe6757041f6d.jpg""]","",""
"","2743","similarity","30","191509","0.0-6.0-24.0","4","[""img/0769/14d393ce-e5be-4ca1-86ce-cc27d4b6074c.jpg"",""img/0881/62a64f90-7a72-4aee-a1a1-0c548ac9bdda.jpg""]","",""
"","2627","similarity","31","195143","0.0-6.0-25.0","3","[""img/0867/ac1797e4-8afc-48fe-b252-86d1defb1cca.jpg"",""img/0904/e9423a8c-f946-43ad-ab7b-931acef870e2.jpg""]","",""
"","3043","similarity","32","199193","0.0-6.0-26.0","3","[""img/0860/9593362c-9fe5-4d12-9735-6000a11f6aa5.jpg"",""img/0881/2a8413be-fec2-4de6-88ad-614dd4cccc9d.jpg""]","",""
"","3103","similarity","33","203299","0.0-6.0-27.0","7","[""img/0866/07c9c966-3c8d-40e7-8128-92b2acbaed5d.jpg"",""img/0866/6f2a90d7-14f1-4f1b-bd64-fc0af6b9fe44.jpg""]","",""
"","2830","similarity","34","207136","0.0-6.0-28.0","4","[""img/0764/d0bef2e0-e16b-4c82-9451-c1d16265eb67.jpg"",""img/0862/57b6f83f-c763-4858-830d-102f97bfefbf.jpg""]","",""
"","2683","similarity","35","210826","0.0-6.0-29.0","3","[""img/0904/73920552-103b-4c9c-9ece-e0b8376b4504.jpg"",""img/0758/6e95579b-5166-487c-b8cb-e417c6a218e3.jpg""]","",""
"","2698","similarity","36","214527","0.0-6.0-30.0","3","[""img/0894/7fb082e0-ce79-485c-9109-04367fb32275.jpg"",""img/0899/a05bea16-2bb4-4cb9-b8fb-4ff975db6971.jpg""]","",""
"","4878","similarity","37","220411","0.0-6.0-31.0","2","[""img/0860/5383b320-1518-4095-a58e-5cc1ae30b64c.jpg"",""img/0904/0d25eb24-bb20-4e8d-9787-8b489558b4cb.jpg""]","",""
"","3565","similarity","38","224978","0.0-6.0-32.0","6","[""img/0874/31e22c7c-99aa-40b1-bf03-dd73fa2df4d6.jpg"",""img/0881/7e31e5dc-2240-4b1b-b5a0-3acd980099ef.jpg""]","",""
"","3496","similarity","39","229478","0.0-6.0-33.0","3","[""img/0881/566f45f8-5fed-4479-a60f-26377e60a62d.jpg"",""img/0899/7f9d45d0-b2c6-40d3-aa41-c207db2c411b.jpg""]","",""
"","3171","similarity","40","233652","0.0-6.0-34.0","4","[""img/0866/c446214b-a368-4c65-ae39-ea46894256ab.jpg"",""img/0862/5d887e9f-89e2-4ebc-80a0-6d46fe6480db.jpg""]","",""
"","3325","similarity","41","237984","0.0-6.0-35.0","3","[""img/0868/09a9ef4d-d000-4cfa-a6aa-ebec7c2edeb4.jpg"",""img/0894/10f22b96-040c-44f4-950b-a4963f3f506c.jpg""]","",""
"","2732","similarity","42","241719","0.0-6.0-36.0","7","[""img/0860/18dfed73-e36b-4487-a8bd-0b8cff8e3668.jpg"",""img/0860/8fdba999-b946-4c7d-9891-336018b563ef.jpg""]","",""
"","3563","similarity","43","246286","0.0-6.0-37.0","5","[""img/0862/92f0146c-20c4-482e-aef5-adb693790338.jpg"",""img/0864/a248adb3-c70b-4652-b7a3-776d2a1e904b.jpg""]","",""
"","3867","similarity","44","251158","0.0-6.0-38.0","3","[""img/0766/d919cedb-f9b7-4f30-83bb-3e9c65001ceb.jpg"",""img/0866/93a27239-8317-4e08-98ca-d8b1ff298e07.jpg""]","",""
"","3201","similarity","45","255365","0.0-6.0-39.0","2","[""img/0875/e7e66b13-b573-431e-b85e-288ce04a35a3.jpg"",""img/0898/04e39a7a-fcf6-4156-ab0e-f5871f335e1c.jpg""]","",""
"","2943","similarity","46","259314","0.0-6.0-40.0","3","[""img/0766/91fc8c4d-862f-4d2b-b1a1-2db8d729b6b7.jpg"",""img/0769/4a1d0b52-3fe8-40fb-bb1c-c814fe49a68c.jpg""]","",""
"","3396","similarity","47","277101","0.0-6.0-41.0","2","[""img/0874/1016b306-087c-4afc-aa08-fa527b28dc76.jpg"",""img/0764/cbdc4f20-3a9a-4211-9b40-090699e0abcc.jpg""]","",""
"","4810","similarity","48","282917","0.0-6.0-42.0","5","[""img/0868/8b0b8473-e2c0-4331-aa56-c3a5c29369da.jpg"",""img/0902/6c2c243a-f663-45db-baf5-038d3d58c589.jpg""]","",""
"","3215","similarity","49","287136","0.0-6.0-43.0","1","[""img/0875/f87b67d7-c33e-40d1-b281-248c4be1cb6e.jpg"",""img/0899/f95cbdb4-f804-4f5d-ad76-373ad343e658.jpg""]","",""
"","3517","similarity","50","291658","0.0-6.0-44.0","5","[""img/0866/620cd1aa-0800-4414-8f6e-90342e7a99ad.jpg"",""img/0860/c47fdead-eb02-4989-b078-26f4852f44fe.jpg""]","",""
"","5329","similarity","51","297992","0.0-6.0-45.0","2","[""img/0766/908bc45b-7c9e-4f95-806e-86b196ebcb2c.jpg"",""img/0903/5c6b1f57-b3a2-40f5-9fb1-82785e24b6a0.jpg""]","",""
"","3629","similarity","52","302627","0.0-6.0-46.0","3","[""img/0901/bc47e078-bda4-40ed-b89a-bbd819164b95.jpg"",""img/0904/9d30eff1-46ef-4453-b11e-124ef8145c00.jpg""]","",""
"","2367","similarity","53","306002","0.0-6.0-47.0","2","[""img/0758/7ee8bc8f-c40b-4b3a-84ec-3e83580622d4.jpg"",""img/0902/d5e25767-e8ec-45f3-ac0a-7b4a6f7a9edc.jpg""]","",""
"","4665","similarity","54","311672","0.0-6.0-48.0","6","[""img/0764/e30dba15-e68a-4659-89db-e1654b52fe02.jpg"",""img/0764/1def7b22-b054-4ec2-860b-73d25691823b.jpg""]","",""
"","2923","similarity","55","315598","0.0-6.0-49.0","2","[""img/0866/f756f7d1-9ad8-4a34-9ef6-7a443d705bfe.jpg"",""img/0902/b03fee99-d5ca-4bf8-871c-a4a743a39842.jpg""]","",""
"","2899","similarity","56","319502","0.0-6.0-50.0","1","[""img/0764/21e3292f-01ad-4238-828b-61b817857d16.jpg"",""img/0758/335851a0-a55b-46d8-ab05-8463eda48349.jpg""]","",""
"","2765","similarity","57","323271","0.0-6.0-51.0","6","[""img/0898/c3cecf20-f7fd-45fa-97d0-dc0a63e8d6c0.jpg"",""img/0894/7dd6ff43-f8fc-408a-8a41-a2b261871820.jpg""]","",""
"","2136","similarity","58","326410","0.0-6.0-52.0","5","[""img/0875/527ced51-8e53-4aab-ab05-86df219104c0.jpg"",""img/0866/4a87911a-d5be-4d4e-ab8e-3d1f581bf507.jpg""]","",""
"","2755","similarity","59","330168","0.0-6.0-53.0","7","[""img/0904/5aec2708-cf14-4a58-aa30-9a8a61c1be0e.jpg"",""img/0904/56e73f28-7e64-489b-a161-e6b1a063878d.jpg""]","",""
"","2977","similarity","60","334151","0.0-6.0-54.0","7","[""img/0769/878531fd-e0e8-4ad1-b9ad-f018bb104ca0.jpg"",""img/0769/38a88f69-28fd-4bbd-99f0-f4c02bfd3995.jpg""]","",""
"","2672","similarity","61","337829","0.0-6.0-55.0","1","[""img/0898/6cd3830b-d44e-4915-be2b-88d31424b91c.jpg"",""img/0758/dd559618-7f09-4a07-8018-d311c4a5ea29.jpg""]","",""
"","2683","similarity","62","341519","0.0-6.0-56.0","4","[""img/0769/76eaa4a3-dfe9-4dc1-9efb-caebe86264e1.jpg"",""img/0902/0db94c50-f1fb-4091-953c-29ca0466bee2.jpg""]","",""
"","3598","similarity","63","346120","0.0-6.0-57.0","6","[""img/0864/66091c27-e588-4476-8af9-265dc6be4156.jpg"",""img/0881/c24f3051-eefa-42de-aba6-fccb56d93c70.jpg""]","",""
"","1954","similarity","64","349079","0.0-6.0-58.0","2","[""img/0758/d41c06bf-ebaf-454b-91c6-1a17f917b659.jpg"",""img/0868/d98ca254-b195-477f-b57e-5760a2717db8.jpg""]","",""
"","2608","similarity","65","352690","0.0-6.0-59.0","3","[""img/0862/53a9cf7c-93c4-41b9-952f-07d17f7a17b2.jpg"",""img/0769/ebef2ddc-ba59-4e0e-97f8-927864eb5081.jpg""]","",""
"","2312","similarity","66","356009","0.0-6.0-60.0","3","[""img/0764/d7c215ab-ea9a-45be-8d5f-417d5b9a8a17.jpg"",""img/0903/0fb24af7-9a26-4e9d-aadc-959a36f683e2.jpg""]","",""
"","3054","similarity","67","360070","0.0-6.0-61.0","7","[""img/0899/ddf96ade-692e-4602-bd22-dedbb46401bc.jpg"",""img/0899/0adc0bc3-6fca-4078-be6f-d45ddf1653d5.jpg""]","",""
"","2978","similarity","68","364053","0.0-6.0-62.0","5","[""img/0860/5bff793e-cbd5-4d7e-b628-0ac2b0e30b64.jpg"",""img/0875/8521fd58-3b1e-4dc5-97ae-804edfa6734a.jpg""]","",""
"","2549","similarity","69","367609","0.0-6.0-63.0","1","[""img/0868/293079b8-7e0c-4afd-a390-1e5d35fe3ded.jpg"",""img/0874/767f289c-9814-4496-803f-745cc8913d1f.jpg""]","",""
"","2491","similarity","70","371107","0.0-6.0-64.0","2","[""img/0758/d540bee6-b460-4c32-ac57-bc282742d7d4.jpg"",""img/0862/eefa5588-9efd-4591-aa5f-a2e17c7d7bcc.jpg""]","",""
"","2711","similarity","71","374821","0.0-6.0-65.0","6","[""img/0904/d23dd7be-7fe8-4435-82f7-bd592c01e6a1.jpg"",""img/0898/26c41340-15bd-4ead-8fe4-c0d0ddca09c2.jpg""]","",""
"","2367","similarity","72","378194","0.0-6.0-66.0","4","[""img/0881/c843e210-bdfe-4a7c-8bbe-fcea1f90fe1c.jpg"",""img/0866/a04d37f0-99dd-478a-b6c6-58b215138f84.jpg""]","",""
"","2686","similarity","73","381884","0.0-6.0-67.0","2","[""img/0867/179ab87a-8eac-4c52-a41f-2e48e3120f09.jpg"",""img/0898/01bfe666-3510-4fc7-964f-d00d28732dc8.jpg""]","",""
"","2246","similarity","74","385136","0.0-6.0-68.0","2","[""img/0902/e5a46bda-30d1-41ca-b36d-b8529b5a63d1.jpg"",""img/0764/5d6fa3ce-9083-410c-bbdb-336a49b94cfc.jpg""]","",""
"","2135","similarity","75","388274","0.0-6.0-69.0","4","[""img/0875/ebf7653f-ff45-4e9f-af58-2c042ab3cd2b.jpg"",""img/0867/12264664-1860-46df-8c21-162b9817cdda.jpg""]","",""
"","2452","similarity","76","391729","0.0-6.0-70.0","6","[""img/0766/79767d11-b612-4e8a-9e4b-a8ac95bb6a54.jpg"",""img/0764/1f95ab5f-fb65-4d70-b5db-d6bd6351a8aa.jpg""]","",""
"","2447","similarity","77","395182","0.0-6.0-71.0","4","[""img/0894/767a0eec-1064-46b1-b1aa-dfa02b0cd74e.jpg"",""img/0867/f8159067-056c-41f1-a136-c529fe5e970a.jpg""]","",""
"","2337","similarity","78","398523","0.0-6.0-72.0","2","[""img/0875/5a7c4e35-6514-4e12-8879-d16071da4cd6.jpg"",""img/0764/f64dfa83-333d-494c-87b5-73e942f1766e.jpg""]","",""
"","1955","similarity","79","401482","0.0-6.0-73.0","7","[""img/0867/7d1c497b-c1b3-4ed8-abb5-d7f73306015f.jpg"",""img/0866/d266fece-59b3-46fa-b69f-96f6efb81b59.jpg""]","",""
"","2115","similarity","80","404599","0.0-6.0-74.0","2","[""img/0903/8c358e9e-a4f4-466e-8b93-7aec0d2358e8.jpg"",""img/0758/7ffbc76b-1fc1-432c-8f7e-9ec8d1b3f643.jpg""]","",""
"","1931","similarity","81","407535","0.0-6.0-75.0","1","[""img/0766/26d3ae14-8275-4e08-99b2-a6598c193ddf.jpg"",""img/0868/d6d1f30d-4323-435a-b194-7892521bc57e.jpg""]","",""
"","3155","similarity","82","411697","0.0-6.0-76.0","1","[""img/0874/eba003b4-cdab-4eee-8bc3-f064c7d94165.jpg"",""img/0766/09f646c8-a69e-4ed3-879c-8d29b04ad7f9.jpg""]","",""
"","2496","similarity","83","415196","0.0-6.0-77.0","2","[""img/0881/1407b85b-a1c6-45b1-9884-3b24203efadb.jpg"",""img/0868/77091fc7-a590-4ebb-b915-fdb2483a2399.jpg""]","",""
"","2235","similarity","84","418436","0.0-6.0-78.0","2","[""img/0758/f61ecdf8-a7d4-4db0-b84d-be46f7cfaffc.jpg"",""img/0901/548d1110-7cb8-42a2-9927-9798875c8b5c.jpg""]","",""
"","3313","similarity","85","422758","0.0-6.0-79.0","2","[""img/0881/667e2147-d457-4f32-aa5f-6ab86e5848f1.jpg"",""img/0898/b2732712-71c2-45d8-834f-2b2ed5504910.jpg""]","",""
"","1828","similarity","86","425591","0.0-6.0-80.0","3","[""img/0867/8ba0c5a7-c7e4-42cf-a80a-543763b90779.jpg"",""img/0758/caa93da2-9edf-49fa-96b9-32dedd8f5078.jpg""]","",""
"","2585","similarity","87","429180","0.0-6.0-81.0","5","[""img/0769/662ab839-88d1-4ebf-af05-9b2980cad943.jpg"",""img/0899/66ab3178-c3fe-4455-ad17-d5952b08e018.jpg""]","",""
"","2744","similarity","88","432926","0.0-6.0-82.0","7","[""img/0903/ea75f240-fb62-4edb-a709-83e858b202c0.jpg"",""img/0903/3e9ee8a5-eb66-47f5-8973-8a5af1ddc87e.jpg""]","",""
"","2166","similarity","89","440959","0.0-6.0-83.0","1","[""img/0867/50a1b60e-3a29-44bf-b606-d4bd3746fea9.jpg"",""img/0766/6d32752d-aa05-40dc-9541-640b6e9d6fa1.jpg""]","",""
"","4094","similarity","90","446056","0.0-6.0-84.0","3","[""img/0902/b76efc44-a50f-4dac-b997-ff0222376067.jpg"",""img/0867/85a96c62-548f-4994-9553-819e03c3135a.jpg""]","",""
"","3441","similarity","91","450500","0.0-6.0-85.0","1","[""img/0901/875dedb9-24c9-4443-9f8c-85e97d70ee5a.jpg"",""img/0875/fb732ab5-013a-4366-9f65-27811ed157e9.jpg""]","",""
"","2334","similarity","92","453840","0.0-6.0-86.0","3","[""img/0764/c01e2d65-6586-441b-bef5-3c96fcd85380.jpg"",""img/0866/386235d2-6857-41e7-88a8-25cfc3430025.jpg""]","",""
"","2078","similarity","93","456923","0.0-6.0-87.0","4","[""img/0901/2a953e50-d237-405c-a38d-5ed21494c968.jpg"",""img/0894/2d2db7b3-e8a3-499b-b63a-14f51bf73882.jpg""]","",""
"","1997","similarity","94","459927","0.0-6.0-88.0","5","[""img/0898/79233891-305a-4a6a-8ddf-5c8604858203.jpg"",""img/0769/47700831-0ca2-4fdd-a498-a3bc5a528f43.jpg""]","",""
"","2562","similarity","95","463493","0.0-6.0-89.0","6","[""img/0769/387a9744-d6a7-42b8-bab8-33007ec434aa.jpg"",""img/0894/792c83e9-a747-4000-bc72-5663d2439edb.jpg""]","",""
"","1686","similarity","96","466182","0.0-6.0-90.0","5","[""img/0862/99a99e39-8355-44ec-b993-e7bcec111e1c.jpg"",""img/0874/3ce41e7c-40c8-4d58-a546-171114521796.jpg""]","",""
"","2223","similarity","97","469411","0.0-6.0-91.0","5","[""img/0894/c505c65a-cde2-4f2c-8cde-f8676f7c894d.jpg"",""img/0766/60033a74-9919-47e5-913c-71d0d483e7e5.jpg""]","",""
"","1998","similarity","98","472415","0.0-6.0-92.0","3","[""img/0874/ca76a855-4e77-4f2f-872a-0a718153e7ed.jpg"",""img/0867/a749dddb-69f0-44a6-acdc-2bf295cf6dcc.jpg""]","",""
"","2023","similarity","99","475441","0.0-6.0-93.0","2","[""img/0899/7b7380d5-d2be-44e5-a09a-c1756f87ef71.jpg"",""img/0868/4e626425-63c8-484a-8a1d-e66ee4e0bef8.jpg""]","",""
"","2583","similarity","100","479031","0.0-6.0-94.0","4","[""img/0903/12bd8657-92e6-4c36-a06c-597e7a1d51f3.jpg"",""img/0862/00c06b00-3b73-44e9-bc1e-c5aafb438321.jpg""]","",""
"","2131","similarity","101","482168","0.0-6.0-95.0","5","[""img/0899/66bf4113-ee12-426c-84d2-ea410b6c803e.jpg"",""img/0766/00891401-e4c9-4ce1-bc19-f70740d174bc.jpg""]","",""
"","3169","similarity","102","486342","0.0-6.0-96.0","6","[""img/0867/5e07b34d-b40f-4b1c-ac10-49975bace45f.jpg"",""img/0868/c8ac40c7-6904-4e13-8d61-c75d3052dc4e.jpg""]","",""
"","2146","similarity","103","489492","0.0-6.0-97.0","2","[""img/0862/fb26cb07-d5a9-4653-813c-f41609f26cd5.jpg"",""img/0901/b123d109-47b4-4f9a-80c9-9bb16da42efa.jpg""]","",""
"","3228","similarity","104","493723","0.0-6.0-98.0","3","[""img/0875/5a716432-c6ca-4b1c-955a-2b8ac25198ee.jpg"",""img/0766/2746b119-4bba-463e-acf0-88136dc6600c.jpg""]","",""
"","1876","similarity","105","496602","0.0-6.0-99.0","5","[""img/0758/6cd8c362-ae2a-41eb-80a3-3a4f7ace1530.jpg"",""img/0874/85eb9b8a-c4c6-4e5a-b8e7-363a87a82054.jpg""]","",""
"","2739","similarity","106","500349","0.0-6.0-100.0","2","[""img/0904/ba8e689e-9ca6-4608-a2a1-3b0940666ae6.jpg"",""img/0868/fd307a36-9a3a-47d7-ab7c-f810d0b35040.jpg""]","",""
"","3655","similarity","107","505006","0.0-6.0-101.0","2","[""img/0903/c708d08f-a108-4e04-8288-c3fcf6375db4.jpg"",""img/0866/11a1d141-be5e-443c-98c1-a9d4d9e3dec0.jpg""]","",""
"","4810","similarity","108","510823","0.0-6.0-102.0","4","[""img/0868/7b212364-ff5f-4e28-9241-7eb6ea00161b.jpg"",""img/0769/f6396414-6788-4d59-9683-de153298d89c.jpg""]","",""
"","2414","similarity","109","514243","0.0-6.0-103.0","3","[""img/0902/af45fe42-178c-4c1a-99ef-256e87e3b092.jpg"",""img/0899/8de08897-b430-42fe-9d42-840670b80f94.jpg""]","",""
"","2418","similarity","110","517663","0.0-6.0-104.0","1","[""img/0868/6a28c3b0-3d76-498a-9fb7-ddafc665eca8.jpg"",""img/0862/4f0a3b4c-afbf-486e-b248-1d54982f54b4.jpg""]","",""
"","2246","similarity","111","520914","0.0-6.0-105.0","6","[""img/0903/9b60ef5b-234f-4239-892b-3d4c412accc2.jpg"",""img/0894/133a1636-d123-4893-873c-1718050f832a.jpg""]","",""
"","2426","similarity","112","524345","0.0-6.0-106.0","4","[""img/0864/e02eddb5-f468-499c-91bf-f7be3ffe979b.jpg"",""img/0874/ca23d307-fc00-4d7d-9106-584c6eb21b4d.jpg""]","",""
"","2799","similarity","113","528148","0.0-6.0-107.0","2","[""img/0862/92fcd8a4-8193-4a6a-ae09-dd4a6338b0df.jpg"",""img/0902/d1083f2c-5520-44ec-81a8-3f856fbf0e80.jpg""]","",""
"","2617","similarity","114","531771","0.0-6.0-108.0","5","[""img/0904/2fd488e9-960f-41f7-8a44-33375f7d5051.jpg"",""img/0903/470acfd5-5571-4a7b-b3a4-28d87e098138.jpg""]","",""
"","2968","similarity","115","535742","0.0-6.0-109.0","3","[""img/0764/e42c1dc9-7831-4995-be19-7ca7b4d141fc.jpg"",""img/0864/afcba0a3-7e27-4757-b254-e9f05fad27e2.jpg""]","",""
"","2373","similarity","116","539117","0.0-6.0-110.0","1","[""img/0866/8efcaa46-83ab-4dee-a35f-850402aa21ae.jpg"",""img/0894/e2446cf5-cd48-486a-badc-76498e087fbe.jpg""]","",""
"","2238","similarity","117","542357","0.0-6.0-111.0","2","[""img/0899/8abe6c69-822c-436c-9bf2-96c818b49ba5.jpg"",""img/0903/31b5a5f4-b695-4af1-bad2-a19650a05498.jpg""]","",""
"","2754","similarity","118","546114","0.0-6.0-112.0","6","[""img/0902/94ee9c53-a9a2-4f95-b9b7-794a5fc62bb6.jpg"",""img/0904/06dacdc5-2206-4fb8-92b7-88042d22833c.jpg""]","",""
"","1990","similarity","119","549108","0.0-6.0-113.0","1","[""img/0864/1ebbc554-99fa-49f9-8799-317375a79820.jpg"",""img/0860/15b24a61-25be-4356-9eac-5ce95d0cb4a4.jpg""]","",""
"","2222","similarity","120","552336","0.0-6.0-114.0","1","[""img/0860/61fb959d-d4d9-4de4-9e4e-4fa62b4cfcd5.jpg"",""img/0899/fef567a2-c121-4481-9af0-ff108d199bbf.jpg""]","",""
"","3641","similarity","121","556982","0.0-6.0-115.0","2","[""img/0881/20af39f5-373d-4a55-a437-2dc4c0382c46.jpg"",""img/0903/bf0a7d60-eca5-44b0-bafd-baf21db9904b.jpg""]","",""
"","2698","similarity","122","560683","0.0-6.0-116.0","3","[""img/0894/3adef67d-7676-4995-80b2-bb31b8aca3ef.jpg"",""img/0874/3f471690-9788-4d03-90c7-f615aecef149.jpg""]","",""
"","3698","similarity","123","565386","0.0-6.0-117.0","4","[""img/0881/f037e3b0-09cb-4a83-b2d9-6a71fe474e63.jpg"",""img/0862/1c20f772-3a51-4a80-aac0-f57dc9f86c28.jpg""]","",""
"","2280","similarity","124","568671","0.0-6.0-118.0","5","[""img/0868/179a5502-ab5c-478e-8263-5a1fbcc101d2.jpg"",""img/0875/3ecb367d-e9eb-4826-8aaa-7aa72fb98019.jpg""]","",""
"","2078","similarity","125","571754","0.0-6.0-119.0","1","[""img/0860/524b2e98-5767-4d53-942c-ebae6925659b.jpg"",""img/0758/53f35650-e455-4b53-8be4-c3c8271c6466.jpg""]","",""
"","2774","similarity","126","575533","0.0-6.0-120.0","3","[""img/0864/4bd81bc6-c13d-46df-95a9-485886dc7c1b.jpg"",""img/0875/2e13d160-eea1-416b-aff1-d37ab99ecc1d.jpg""]","",""
"","1932","similarity","127","578469","0.0-6.0-121.0","1","[""img/0898/a8f16b02-e19f-423b-86c3-a36562ae1f9b.jpg"",""img/0866/bf14b5bd-fb55-47db-86b9-4f8aeb9a6dad.jpg""]","",""
"","2292","similarity","128","581766","0.0-6.0-122.0","3","[""img/0874/7e4f2150-3b59-4a36-b5da-a4e0ba410531.jpg"",""img/0904/63dd06dd-dccb-47ba-9740-eb33239e18a7.jpg""]","",""
"","2650","similarity","129","585422","0.0-6.0-123.0","3","[""img/0904/09934646-45d2-4147-8fec-64a22a5ac822.jpg"",""img/0864/0116ca98-293d-4fa6-a93b-5a6144ef64cc.jpg""]","",""
"","4083","similarity","130","590507","0.0-6.0-124.0","2","[""img/0894/38f5931f-926d-414e-b498-66b188978b7a.jpg"",""img/0902/d2c34af0-8c50-437d-8cc3-619195a3e8ba.jpg""]","",""
"","2045","similarity","131","599800","0.0-6.0-125.0","1","[""img/0868/15dd6fd7-791e-4b53-b203-195d617521a4.jpg"",""img/0864/65210d57-1153-4657-886a-32e758f49b4a.jpg""]","",""
"","2158","similarity","132","602962","0.0-6.0-126.0","2","[""img/0899/4408c14d-c168-4a7d-96f6-bc87bfb58f83.jpg"",""img/0866/23a224f3-2012-4fc8-8e0f-3c36f8de27fd.jpg""]","",""
"","3045","similarity","133","607011","0.0-6.0-127.0","1","[""img/0875/2c361b79-c3d1-4eda-812e-bf03192407bf.jpg"",""img/0904/1d10df11-b5c8-4370-9a6b-097a7f965895.jpg""]","",""
"","1852","similarity","134","609869","0.0-6.0-128.0","1","[""img/0867/aa05d113-fc19-4756-a8eb-7878f580bc92.jpg"",""img/0899/b45c550b-96c3-4255-ad59-48a2b4db1c1e.jpg""]","",""
"","2032","similarity","135","612907","0.0-6.0-129.0","2","[""img/0901/a6776381-91fe-43f8-ab73-261d318f95fd.jpg"",""img/0867/cc72ed48-7704-422c-86d6-467a1145287a.jpg""]","",""
"","2080","similarity","136","615989","0.0-6.0-130.0","4","[""img/0864/c3b63e8f-ea39-4d70-a1f2-b3fe4be8eb75.jpg"",""img/0769/f73c5138-2f4c-4354-981c-129dff9cc734.jpg""]","",""
"","2552","similarity","137","619544","0.0-6.0-131.0","4","[""img/0903/4cbdc464-e562-4ec2-9bb6-15f894fdf528.jpg"",""img/0868/1a62b2b2-18f5-466e-b564-5176a57c565e.jpg""]","",""
"","2913","similarity","138","623459","0.0-6.0-132.0","2","[""img/0864/6e846d43-94a6-4b37-a268-65eda979f052.jpg"",""img/0867/26611f4e-d694-4460-b7e2-43c62753ddc3.jpg""]","",""
"","1989","similarity","139","626452","0.0-6.0-133.0","4","[""img/0901/5657dd86-0ff9-4753-ba2b-9dfb223e5c89.jpg"",""img/0860/4c530c3c-6aab-492a-94d1-9c01797bde40.jpg""]","",""
"","2404","similarity","140","629860","0.0-6.0-134.0","4","[""img/0881/84397291-bc14-4fbf-90e8-241e486ab0fe.jpg"",""img/0766/214866ee-423d-4629-9bb9-41572bdc7dac.jpg""]","",""
"","2059","similarity","141","632921","0.0-6.0-135.0","3","[""img/0903/97a42b34-5462-4665-88c7-83c014b33d24.jpg"",""img/0864/e336a4c5-6648-4fd7-b2f6-93a3fb83f8c6.jpg""]","",""
"","2416","similarity","142","636341","0.0-6.0-136.0","2","[""img/0758/9fb5b2fe-3f00-4fe6-973c-1ce10d5f4cd5.jpg"",""img/0894/3664e04c-c6d3-4c9b-afb6-25d89974b174.jpg""]","",""
"","2024","similarity","143","639367","0.0-6.0-137.0","3","[""img/0769/48a1144d-fbda-4809-991b-fc8424a32ee4.jpg"",""img/0860/17b44a7d-c5ca-479f-9e87-f65a64f5c80e.jpg""]","",""
"","1986","similarity","144","642359","0.0-6.0-138.0","4","[""img/0904/25365108-e038-4021-aac9-797f2063b337.jpg"",""img/0766/006035d8-c736-4daf-bbe4-a9e373af9da6.jpg""]","",""
"","2044","similarity","145","645409","0.0-6.0-139.0","4","[""img/0868/0d3abd3a-b6c3-4584-a9f7-e2da63748b3d.jpg"",""img/0860/87039971-2210-4aab-93c0-8e9b5f1655b2.jpg""]","",""
"","2046","similarity","146","648457","0.0-6.0-140.0","5","[""img/0758/b76ceca7-95ac-46e4-ac13-da02c8e93be9.jpg"",""img/0864/efcfbb1b-8197-44c9-b723-40d6c608dd3c.jpg""]","",""
"","2058","similarity","147","651517","0.0-6.0-141.0","7","[""img/0867/f8488a47-94ee-4166-952c-44e16cf172f6.jpg"",""img/0867/6e19c858-b606-45b2-a4c6-910a73f1d82c.jpg""]","",""
"","1975","similarity","148","654499","0.0-6.0-142.0","7","[""img/0898/68476bbb-34a1-42d9-8bc1-deab783d4489.jpg"",""img/0898/82231d4c-218b-4d0a-b50d-35a49b524e97.jpg""]","",""
"","1978","similarity","149","657480","0.0-6.0-143.0","4","[""img/0866/a15b02be-11bb-43e3-b0e0-ecc3bd7dfc49.jpg"",""img/0769/1d8734c4-77ab-4165-9e71-5cfe672ff01c.jpg""]","",""
"","2009","similarity","150","660495","0.0-6.0-144.0","5","[""img/0860/702bd09d-df3a-40aa-a267-5f04474305b5.jpg"",""img/0898/993d8f2d-bef7-4251-a193-0f93a32b7763.jpg""]","",""
"","2090","similarity","151","663589","0.0-6.0-145.0","3","[""img/0766/75c3d627-4f3b-40d5-9d9c-10c8a62db644.jpg"",""img/0864/1d15626a-2f7c-410f-819c-0fa2c967e95e.jpg""]","",""
"","1763","similarity","152","666356","0.0-6.0-146.0","4","[""img/0860/c3379ff7-0763-48fe-a1ec-7ea3d611bc7a.jpg"",""img/0903/6b5dcc60-3ad3-4962-93e5-e6cf768477af.jpg""]","",""
"","2099","similarity","153","669461","0.0-6.0-147.0","1","[""img/0867/c71dc569-f49c-4397-8381-68b8d726736d.jpg"",""img/0764/bd2eaa3e-95a9-4a59-a78e-3f81c766eea9.jpg""]","",""
"","2167","similarity","154","672633","0.0-6.0-148.0","4","[""img/0769/35364db7-e0d5-40ef-93dc-faf9dfb95136.jpg"",""img/0904/4b8daf2a-13a9-4ea9-9e0b-b265b6e933e7.jpg""]","",""
"","3756","similarity","155","677392","0.0-6.0-149.0","3","[""img/0764/d7f3ac54-318a-4dac-a06b-62bed34d01a4.jpg"",""img/0901/50e1d53e-a49f-4806-8610-be6dec5a2475.jpg""]","",""
"","2832","similarity","156","681228","0.0-6.0-150.0","4","[""img/0904/65e2b70a-b184-4da3-b5c0-5038bdf9469a.jpg"",""img/0899/51a7a498-98c7-42d7-bca8-bc2d8f0b5831.jpg""]","",""
"","2268","similarity","157","684502","0.0-6.0-151.0","3","[""img/0862/e8cc3bdf-cc43-4565-bccf-492626c70953.jpg"",""img/0867/1719a35d-f085-48c0-9099-16c94fe418b4.jpg""]","",""
"","2290","similarity","158","687799","0.0-6.0-152.0","7","[""img/0766/33aa9ebb-c9f5-418f-8c8b-c77861889568.jpg"",""img/0766/fd064894-7147-4af5-97e9-2089d5472656.jpg""]","",""
"","1806","similarity","159","690611","0.0-6.0-153.0","3","[""img/0862/47ed5efd-4ec9-4b74-bb4e-a5f5cf0c3e7d.jpg"",""img/0894/9b1333fd-3561-43bf-aee5-99b7b7ca3dc3.jpg""]","",""
"","2045","similarity","160","693660","0.0-6.0-154.0","4","[""img/0899/f58b8d2f-b19d-4b59-8b94-8834be92e4ba.jpg"",""img/0901/d4d09bf5-093e-4050-838e-7c738be8e63c.jpg""]","",""
"","2068","similarity","161","696732","0.0-6.0-155.0","7","[""img/0874/99f6563c-8a8d-4c1c-a41d-667b618c3fd5.jpg"",""img/0874/2c9464dd-8a23-4baa-ac94-1ba3af5c15cc.jpg""]","",""
"","2867","similarity","162","700601","0.0-6.0-156.0","4","[""img/0860/8a92e21b-6a32-4e4a-a445-2d5a487ed0a4.jpg"",""img/0867/98d8cd96-1476-4fe0-a3a3-04f875500a1b.jpg""]","",""
"","1820","similarity","163","703425","0.0-6.0-157.0","3","[""img/0901/77087ed2-6e12-4329-b2a5-605bca6d972d.jpg"",""img/0881/dea58fad-b4f1-41d9-bd3f-916eff19a3fd.jpg""]","",""
"","2065","similarity","164","706497","0.0-6.0-158.0","6","[""img/0903/776b74ee-a8ab-4ab8-a78d-097c0747538d.jpg"",""img/0902/27b84584-948a-485b-8749-cb09929ef631.jpg""]","",""
"","2099","similarity","165","709602","0.0-6.0-159.0","3","[""img/0860/94ef7afc-e0e6-4a15-98c6-0bfac82bc832.jpg"",""img/0764/c84fbfa8-521c-407a-9bd3-24f7308d896c.jpg""]","",""
"","2148","similarity","166","712752","0.0-6.0-160.0","2","[""img/0902/44cd9b7e-fdfb-4f78-90de-8d4c9d279365.jpg"",""img/0875/d59ff733-eaff-4ee2-9443-06954dd0bcb6.jpg""]","",""
"","1955","similarity","167","715712","0.0-6.0-161.0","4","[""img/0898/8605a25b-6895-476d-8c13-df7a83f96093.jpg"",""img/0862/064818ee-13d5-4618-bb24-21c7368ea278.jpg""]","",""
"","2224","similarity","168","718940","0.0-6.0-162.0","2","[""img/0894/a3d4170b-b7d8-40e3-955f-87e76ed745fc.jpg"",""img/0875/dbdd643e-6d0e-4a5c-ab57-b9c29b9c981a.jpg""]","",""
"","1831","similarity","169","721774","0.0-6.0-163.0","3","[""img/0866/02f5e6b9-52b7-448c-9708-5b460d0c9a23.jpg"",""img/0864/b3c4e378-28f0-4699-9338-2a257b4bca04.jpg""]","",""
"","2932","similarity","170","725712","0.0-6.0-164.0","3","[""img/0766/dd3e18d0-0c98-4d05-b850-69976ee8cd75.jpg"",""img/0862/ba89835a-408c-480b-8594-ed4ffa97eb5c.jpg""]","",""
"","2201","similarity","171","728918","0.0-6.0-165.0","5","[""img/0866/be24ab58-230e-4db8-9f45-ff04c9aec6bb.jpg"",""img/0874/a3bc679d-619f-4db6-bb68-116dcb757d9c.jpg""]","",""
"","2259","similarity","172","732180","0.0-6.0-166.0","5","[""img/0862/e0f1a4e9-e1b6-45f7-af67-89f334e6630d.jpg"",""img/0860/c5ccd1a4-4bb7-48e1-9b25-72cfaf06909b.jpg""]","",""
"","1841","similarity","173","741777","0.0-6.0-167.0","2","[""img/0766/ae0fce93-fe8d-4aa1-87ca-4c3e4b889f2f.jpg"",""img/0901/fb0a8e69-7f19-4e6e-a6bb-a48f97f9b4f3.jpg""]","",""
"","2766","similarity","174","745546","0.0-6.0-168.0","7","[""img/0862/ad593cc7-cabe-4bb7-8e14-8a447a0717b4.jpg"",""img/0862/847e5208-38ec-4f36-949c-296cdd7424ee.jpg""]","",""
"","2111","similarity","175","748662","0.0-6.0-169.0","5","[""img/0894/7f2f31fd-6618-41c6-b65a-0fd8b2851bc9.jpg"",""img/0764/da207710-e7e4-4f42-b2e6-99b5f357f433.jpg""]","",""
"","1901","similarity","176","751565","0.0-6.0-170.0","2","[""img/0874/995f0332-0439-4eb4-add3-957335dbf6d9.jpg"",""img/0898/40f99fb2-64d2-4e72-8a7f-a1cf60741e69.jpg""]","",""
"","3160","similarity","177","755727","0.0-6.0-171.0","3","[""img/0860/c7047cd2-7cc1-41b6-8a34-c0986774975f.jpg"",""img/0766/d512b99c-a2dc-40d7-8e86-827323a0cbcf.jpg""]","",""
"","2935","similarity","178","759665","0.0-6.0-172.0","2","[""img/0898/a114b375-cb89-44ba-9498-74213f1ecdee.jpg"",""img/0864/300bb811-8b3c-4c42-8653-6097c3725197.jpg""]","",""
"","2451","similarity","179","763119","0.0-6.0-173.0","2","[""img/0881/6b1189e6-232d-4042-8885-16dc7b10e0d4.jpg"",""img/0764/4952d0a0-c9be-471a-8ec7-94a37bf4051d.jpg""]","",""
"","2459","similarity","180","766584","0.0-6.0-174.0","2","[""img/0898/4184e5a2-84ea-4f36-9b42-ae58646f6f87.jpg"",""img/0868/5fa7f9d0-f0e5-454c-8224-74d964818f56.jpg""]","",""
"","2057","similarity","181","769644","0.0-6.0-175.0","6","[""img/0864/6f631579-acf1-415c-a42c-1207f62a8d99.jpg"",""img/0864/da39ad34-04e0-40d4-a724-c08d53e0ea09.jpg""]","",""
"","1920","similarity","182","772569","0.0-6.0-176.0","4","[""img/0899/565ccdd9-0933-4536-a625-3c0e25a713dd.jpg"",""img/0862/e697469a-ec19-4414-b972-7b9f3564785b.jpg""]","",""
"","2110","similarity","183","775686","0.0-6.0-177.0","5","[""img/0875/03c3c331-738b-4446-af92-3d7386b08c2e.jpg"",""img/0758/e38fd80d-18d0-42f3-b848-f930788e8bd7.jpg""]","",""
"","2370","similarity","184","779060","0.0-6.0-178.0","3","[""img/0866/0207e9a2-7dbb-40b5-9459-b472aaeceb2a.jpg"",""img/0901/4f9cffe0-c0be-4d7f-bacd-9d51efd19b4a.jpg""]","",""
"","8963","similarity","185","789028","0.0-6.0-179.0","4","[""img/0769/c7cfacc3-7f07-46ff-9f5d-8073f4c4679b.jpg"",""img/0874/93d1f8dc-acf2-4f03-bd8d-8ec35df276ed.jpg""]","",""
"","4598","similarity","186","794630","0.0-6.0-180.0","3","[""img/0875/99698b4d-b4a1-44bc-8c83-8ea755bbbf61.jpg"",""img/0881/f7a8cc63-8842-40a4-9ff8-fe530310d62c.jpg""]","",""
"","1899","similarity","187","797533","0.0-6.0-181.0","6","[""img/0866/d493a2c8-66eb-44b4-be02-2f327b700b7c.jpg"",""img/0868/e0aff734-077f-40dd-9781-74821abd3621.jpg""]","",""
"","2259","similarity","188","800795","0.0-6.0-182.0","4","[""img/0899/1b3457ea-87d4-4946-a01c-aac1863ed46c.jpg"",""img/0758/20497cbe-ddae-489e-86e2-ab06985ed07c.jpg""]","",""
"","3800","similarity","189","805599","0.0-6.0-183.0","4","[""img/0874/29830da7-be5f-44e5-b141-652a0ccf7269.jpg"",""img/0875/34132396-d896-4c2d-8087-646dd867e769.jpg""]","",""
"","2549","similarity","190","809154","0.0-6.0-184.0","3","[""img/0904/6291eb43-c10c-4810-a36a-101d09868b04.jpg"",""img/0862/fad1d7c1-8187-43c3-942a-0fc12183e48e.jpg""]","",""
"","2529","similarity","191","812687","0.0-6.0-185.0","5","[""img/0902/3b243e54-0803-4c29-af42-4037c2118495.jpg"",""img/0766/f5f78e4e-d88f-4866-951a-118ba9fec4d0.jpg""]","",""
"","1908","similarity","192","815601","0.0-6.0-186.0","4","[""img/0758/ddc336e9-a8b6-4bb9-937a-c7e25e0e9250.jpg"",""img/0769/5bd04f55-d091-4f57-85db-38426f26bd1a.jpg""]","",""
"","2627","similarity","193","819234","0.0-6.0-187.0","6","[""img/0881/14236cf2-6b95-48b8-9368-78af09d2d27f.jpg"",""img/0881/609a5e93-38b5-4940-8627-2bf8fad7f802.jpg""]","",""
"","2193","similarity","194","822430","0.0-6.0-188.0","5","[""img/0758/67c0be2f-9e91-48b3-8219-70ac0a1802fa.jpg"",""img/0866/9b38d691-1802-4959-ab3f-fc902f0e4ea6.jpg""]","",""
"","2897","similarity","195","826333","0.0-6.0-189.0","4","[""img/0764/56441045-b648-4ede-9632-3e9c0227080b.jpg"",""img/0898/0c7dde4f-efce-4b7a-9387-6921635b7890.jpg""]","",""
"","2718","similarity","196","830057","0.0-6.0-190.0","4","[""img/0903/71dbc325-b588-4297-a5cf-7f268a722ad9.jpg"",""img/0901/b13fa50f-dbe0-4d0f-8647-6ac0fd8f40bd.jpg""]","",""
"","1954","similarity","197","833016","0.0-6.0-191.0","6","[""img/0902/d49743d6-67ae-4c2e-a939-8fd895a0f18e.jpg"",""img/0898/e167334e-cc1d-4986-b3b1-c7bc7da64baa.jpg""]","",""
"","1829","similarity","198","835851","0.0-6.0-192.0","3","[""img/0864/49150900-7f25-4ce8-8d10-9b47a71d1997.jpg"",""img/0901/1ede21d9-384f-4150-86b5-e1c57b5dc1d4.jpg""]","",""
"","2709","similarity","199","839563","0.0-6.0-193.0","3","[""img/0894/8cadb87a-7001-4e47-99fb-1867bebf1668.jpg"",""img/0881/48ed65a5-471f-41af-86ec-3793805c116d.jpg""]","",""
"","2447","similarity","200","843017","0.0-6.0-194.0","6","[""img/0868/3a62db2d-97e9-44a3-b8e3-a48c6f0e423b.jpg"",""img/0868/83b4350a-3b70-4cea-b7f5-b5b56f3050a8.jpg""]","",""
"","2875","similarity","201","846899","0.0-6.0-195.0","5","[""img/0899/d60714ae-98d7-4564-8c98-94dba1351135.jpg"",""img/0764/f713847b-4832-42d1-8fb3-e17e37fd745c.jpg""]","",""
"","1990","similarity","202","849892","0.0-6.0-196.0","3","[""img/0881/f6bd3b96-dc40-4e99-8681-bc3a35cf896d.jpg"",""img/0904/a8c3c7d2-9bcf-4347-9e03-8203adfc1fc5.jpg""]","",""
"","2673","similarity","203","853570","0.0-6.0-197.0","4","[""img/0864/ea327690-500b-4137-bf91-451b309fe6a5.jpg"",""img/0902/cdec1bc6-7f90-4f72-9e01-f5a4111bac1d.jpg""]","",""
"","3203","similarity","204","857777","0.0-6.0-198.0","5","[""img/0894/b422d5c6-3c5a-49ae-a53e-7e88ac993f49.jpg"",""img/0904/2f88ce53-02d0-4f95-a082-182c56a0eeb4.jpg""]","",""
"","2573","similarity","205","861355","0.0-6.0-199.0","7","[""img/0901/f1116359-1ff1-4638-b3b3-700918d36d18.jpg"",""img/0901/0f670aef-ac36-496d-8142-ee5fdb21dd82.jpg""]","",""
"","1863","similarity","206","864224","0.0-6.0-200.0","3","[""img/0894/5a49e858-2850-4892-9a06-e9f0efb5f94d.jpg"",""img/0860/b03b963d-949b-4d8d-b19c-4950c89eeca2.jpg""]","",""
"","2717","similarity","207","867948","0.0-6.0-201.0","7","[""img/0898/f3a3f225-1248-4ac7-b93b-f0ff28485bf3.jpg"",""img/0903/14f179a2-8786-48a2-8377-88d1d404341b.jpg""]","",""
"","2620","similarity","208","871570","0.0-6.0-202.0","2","[""img/0864/3651d070-2fc5-4848-b6a6-088a2d9ac5c9.jpg"",""img/0894/86201968-6e78-4d68-9b3a-d1692e066210.jpg""]","",""
"","2009","similarity","209","874585","0.0-6.0-203.0","3","[""img/0874/adf9a8f1-c40b-402b-b95b-1e85a54a7b62.jpg"",""img/0860/4f695df5-afac-4da7-9875-fee39b0b24ad.jpg""]","",""
"","2237","similarity","210","877825","0.0-6.0-204.0","1","[""img/0862/f23038d4-c366-4f70-979f-66b62362efa4.jpg"",""img/0875/42910c99-5463-450a-a0f8-d4d060a11455.jpg""]","",""
"","2640","similarity","211","881470","0.0-6.0-205.0","2","[""img/0867/bf560d4f-dee3-4f11-a385-705cc1aa5f3c.jpg"",""img/0881/b1a136f7-8511-4d3a-a0f6-3879acf1e1a1.jpg""]","",""
"","3497","similarity","212","885971","0.0-6.0-206.0","1","[""img/0901/31c032fd-3c3d-4882-a226-da9a80198937.jpg"",""img/0902/7f1dcd35-237a-4995-9e42-7f63f3f434d4.jpg""]","",""
"","1977","similarity","213","888952","0.0-6.0-207.0","4","[""img/0899/06b0fc99-0581-461a-9913-d1a5a941ac61.jpg"",""img/0864/87c467d3-abca-482f-ad80-3766c21b1bb3.jpg""]","",""
"","1749","similarity","214","891708","0.0-6.0-208.0","1","[""img/0901/d61f267a-c492-4db6-9bfb-61efd49cf072.jpg"",""img/0769/688d0c52-ad73-4065-a5eb-f8c10d076bff.jpg""]","",""
"","2441","similarity","215","901057","0.0-6.0-209.0","5","[""img/0902/22ed3536-288b-452e-9777-0fa0ab94deb0.jpg"",""img/0902/1f4a4c62-68c1-4993-b213-05652a173ed1.jpg""]","",""
"[{""page_index"":0,""viewing_time"":5317}]","5318","instructions","216","907380","0.0-7.0","","","",""
"","5719","image-multi-choice","217","914108","0.0-8.0-0.0","","","{""Q0"":""Nashville Warbler""}","Nashville Warbler"
"","3629","image-multi-choice","218","918742","0.0-8.0-1.0","","","{""Q0"":""Black-and-white Warbler""}","Black-and-white Warbler"
"","3065","image-multi-choice","219","922815","0.0-8.0-2.0","","","{""Q0"":""Townsend's Warbler""}","Townsend's Warbler"
"","3674","image-multi-choice","220","927495","0.0-8.0-3.0","","","{""Q0"":""Lark Sparrow""}","Lark Sparrow"
"","3300","image-multi-choice","221","931804","0.0-8.0-4.0","","","{""Q0"":""Yellow Warbler""}","Yellow Warbler"
"","2703","image-multi-choice","222","935516","0.0-8.0-5.0","","","{""Q0"":""Orange-crowned Warbler""}","Orange-crowned Warbler"
"","2446","image-multi-choice","223","938970","0.0-8.0-6.0","","","{""Q0"":""White-throated Sparrow""}","White-throated Sparrow"
"","2188","image-multi-choice","224","942165","0.0-8.0-7.0","","","{""Q0"":""Fox Sparrow""}","Fox Sparrow"
"","2817","image-multi-choice","225","945990","0.0-8.0-8.0","","","{""Q0"":""Song Sparrow""}","Song Sparrow"
"","3496","image-multi-choice","226","950490","0.0-8.0-9.0","","","{""Q0"":""Blackburnian Warbler""}","Blackburnian Warbler"
"","2242","image-multi-choice","227","953741","0.0-8.0-10.0","","","{""Q0"":""Vesper Sparrow""}","Vesper Sparrow"
"","2393","image-multi-choice","228","957139","0.0-8.0-11.0","","","{""Q0"":""White-crowned Sparrow""}","White-crowned Sparrow"
"","2640","image-multi-choice","229","960784","0.0-8.0-12.0","","","{""Q0"":""American Tree Sparrow""}","American Tree Sparrow"
"","2469","image-multi-choice","230","964261","0.0-8.0-13.0","","","{""Q0"":""Tennessee Warbler""}","Tennessee Warbler"
"","7193","image-multi-choice","231","972462","0.0-8.0-14.0","","","{""Q0"":""Magnolia Warbler""}","Magnolia Warbler"
"","2201","image-multi-choice","232","975668","0.0-8.0-15.0","","","{""Q0"":""Northern Waterthrush""}","Northern Waterthrush"
"","3538","image-multi-choice","233","980213","0.0-8.0-16.0","","","{""Q0"":""Chipping Sparrow""}","Chipping Sparrow"
"","3201","image-multi-choice","234","984421","0.0-8.0-17.0","","","{""Q0"":""Swamp Sparrow""}","Swamp Sparrow"
"","2737","image-multi-choice","235","988167","0.0-8.0-18.0","","","{""Q0"":""Lincoln's Sparrow""}","Lincoln's Sparrow"
"","2973","image-multi-choice","236","992149","0.0-8.0-19.0","","","{""Q0"":""Ovenbird""}","Ovenbird"
