[{"view_history":"[{\"page_index\":0,\"viewing_time\":13205}]","rt":13206,"trial_type":"instructions","trial_index":0,"time_elapsed":13207,"internal_node_id":"0.0-0.0"},{"sim_score":5,"rt":8118,"stimulus":"[\"img/866.jpg\",\"img/868.jpg\"]","trial_type":"similarity_demo","trial_index":1,"time_elapsed":22331,"internal_node_id":"0.0-1.0"},{"view_history":"[{\"page_index\":0,\"viewing_time\":6690}]","rt":6691,"trial_type":"instructions","trial_index":2,"time_elapsed":30024,"internal_node_id":"0.0-2.0"},{"sim_score":3,"rt":4936,"stimulus":"[\"img/766.jpg\",\"img/867.jpg\"]","trial_type":"similarity_demo","trial_index":3,"time_elapsed":35965,"internal_node_id":"0.0-3.0"},{"view_history":"[{\"page_index\":0,\"viewing_time\":5147}]","rt":5148,"trial_type":"instructions","trial_index":4,"time_elapsed":42118,"internal_node_id":"0.0-4.0"},{"view_history":"[{\"page_index\":0,\"viewing_time\":23152}]","rt":23152,"trial_type":"instructions","trial_index":5,"time_elapsed":66272,"internal_node_id":"0.0-5.0"},{"sim_score":5,"rt":5225,"stimulus":"[\"img/0868/4bd5105a-d2c3-4f82-8c80-57196106ba53.jpg\",\"img/0901/443f2e59-199b-4f7b-9de9-c44ad97326a5.jpg\"]","trial_type":"similarity","trial_index":6,"time_elapsed":72506,"internal_node_id":"0.0-6.0-0.0"},{"sim_score":5,"rt":5082,"stimulus":"[\"img/0769/e31b3bd8-efcb-413e-aa8c-75fac2b8f2ac.jpg\",\"img/0867/db7e032f-162b-46f5-ae67-2b29679adee4.jpg\"]","trial_type":"similarity","trial_index":7,"time_elapsed":78592,"internal_node_id":"0.0-6.0-1.0"},{"sim_score":3,"rt":3548,"stimulus":"[\"img/0766/c23b5a20-e50f-4d85-841f-cf89212a4348.jpg\",\"img/0898/81b08535-2020-4c15-9ce4-2f1e460755ae.jpg\"]","trial_type":"similarity","trial_index":8,"time_elapsed":83148,"internal_node_id":"0.0-6.0-2.0"},{"sim_score":5,"rt":5112,"stimulus":"[\"img/0902/31abfa33-7cdb-44ad-968e-9f7b324d577a.jpg\",\"img/0881/b549bc99-a61c-4450-bab5-9efc3a197bf0.jpg\"]","trial_type":"similarity","trial_index":9,"time_elapsed":89268,"internal_node_id":"0.0-6.0-3.0"},{"sim_score":7,"rt":6779,"stimulus":"[\"img/0894/b2d2f66e-e480-46da-a02a-6d0c6b285d78.jpg\",\"img/0894/492d2f29-d7b9-4422-8be8-47fd58bfaa8b.jpg\"]","trial_type":"similarity","trial_index":10,"time_elapsed":97053,"internal_node_id":"0.0-6.0-4.0"},{"sim_score":4,"rt":4946,"stimulus":"[\"img/0874/a82926a3-0b43-4add-803c-d5f9ea7798ee.jpg\",\"img/0899/93494f3b-d539-4075-b027-d82e344563da.jpg\"]","trial_type":"similarity","trial_index":11,"time_elapsed":103004,"internal_node_id":"0.0-6.0-5.0"},{"sim_score":5,"rt":3429,"stimulus":"[\"img/0904/b7c2a2c8-df33-4473-b3d4-ff7147c60db3.jpg\",\"img/0764/cffc80b0-4a90-4acb-a530-6f480f3ca303.jpg\"]","trial_type":"similarity","trial_index":12,"time_elapsed":107437,"internal_node_id":"0.0-6.0-6.0"},{"sim_score":3,"rt":4754,"stimulus":"[\"img/0899/9de5e857-aa9a-4e0c-8ba2-46d79bd069a4.jpg\",\"img/0898/5f699581-3853-4547-856c-12f419ba5af7.jpg\"]","trial_type":"similarity","trial_index":13,"time_elapsed":113197,"internal_node_id":"0.0-6.0-7.0"},{"sim_score":3,"rt":3540,"stimulus":"[\"img/0874/c0378dac-9370-439a-8b79-db27c96fb390.jpg\",\"img/0903/c3cb4a01-2797-43ca-b216-88c67b323fbb.jpg\"]","trial_type":"similarity","trial_index":14,"time_elapsed":117741,"internal_node_id":"0.0-6.0-8.0"},{"sim_score":5,"rt":2932,"stimulus":"[\"img/0881/19e82c47-8e4b-45d2-a6c8-74181eb4155e.jpg\",\"img/0758/3ddd05d3-557e-4ee7-8b78-9d2d681d8ae2.jpg\"]","trial_type":"similarity","trial_index":15,"time_elapsed":121679,"internal_node_id":"0.0-6.0-9.0"},{"sim_score":5,"rt":4454,"stimulus":"[\"img/0898/cd3aaa3f-efa9-4ab3-8d6f-a6a9273ddf42.jpg\",\"img/0901/a0d65c84-3f20-476a-92d1-0c01e8019cf4.jpg\"]","trial_type":"similarity","trial_index":16,"time_elapsed":127136,"internal_node_id":"0.0-6.0-10.0"},{"sim_score":3,"rt":4914,"stimulus":"[\"img/0903/6378ee1e-3d2b-48d2-87be-bebda32c8268.jpg\",\"img/0769/d1be2815-fa79-46e8-b5c3-7d81caaca490.jpg\"]","trial_type":"similarity","trial_index":17,"time_elapsed":133054,"internal_node_id":"0.0-6.0-11.0"},{"sim_score":2,"rt":4191,"stimulus":"[\"img/0764/8740679b-b56f-4292-aece-14063457113a.jpg\",\"img/0868/4a8a45ed-2c4f-421b-9564-409a33ecd26c.jpg\"]","trial_type":"similarity","trial_index":18,"time_elapsed":138252,"internal_node_id":"0.0-6.0-12.0"},{"sim_score":2,"rt":2922,"stimulus":"[\"img/0867/2e1a0b58-cdb1-4107-a14e-452530d7b9b0.jpg\",\"img/0903/24477210-856c-4550-9de0-9f85a32762eb.jpg\"]","trial_type":"similarity","trial_index":19,"time_elapsed":142178,"internal_node_id":"0.0-6.0-13.0"},{"sim_score":2,"rt":3013,"stimulus":"[\"img/0766/0bf3793e-c353-45e5-ac6f-753f5f484e10.jpg\",\"img/0758/e1ba5e53-addc-436a-b428-d34fc1b130dc.jpg\"]","trial_type":"similarity","trial_index":20,"time_elapsed":146194,"internal_node_id":"0.0-6.0-14.0"},{"sim_score":4,"rt":3177,"stimulus":"[\"img/0902/d3e55000-c839-4bf9-9b9b-4af0a9925af1.jpg\",\"img/0860/99c589b9-9140-4d17-90c0-b344323edcda.jpg\"]","trial_type":"similarity","trial_index":21,"time_elapsed":150379,"internal_node_id":"0.0-6.0-15.0"},{"sim_score":3,"rt":2585,"stimulus":"[\"img/0769/f229321f-04dd-42d7-b14a-ffad6b509862.jpg\",\"img/0875/90da8d75-108a-44ad-b999-e21fee3860d3.jpg\"]","trial_type":"similarity","trial_index":22,"time_elapsed":153967,"internal_node_id":"0.0-6.0-16.0"},{"sim_score":2,"rt":5557,"stimulus":"[\"img/0904/09dac84f-3d1c-4445-a68e-d0389fdbf1e9.jpg\",\"img/0866/945c6710-d15b-4a5b-a8f6-69af0850357f.jpg\"]","trial_type":"similarity","trial_index":23,"time_elapsed":160526,"internal_node_id":"0.0-6.0-17.0"},{"sim_score":7,"rt":3238,"stimulus":"[\"img/0875/a4935837-7d3c-4df6-88c1-36a94d4991ca.jpg\",\"img/0875/5a1e5100-0d94-4fec-bbe9-ca9894d2cf8e.jpg\"]","trial_type":"similarity","trial_index":24,"time_elapsed":164768,"internal_node_id":"0.0-6.0-18.0"},{"sim_score":7,"rt":3562,"stimulus":"[\"img/0758/61d64021-9214-4951-bdf8-f871f9827cf9.jpg\",\"img/0758/a085b443-b5d7-4cb2-9ad4-b9dab0fc23f1.jpg\"]","trial_type":"similarity","trial_index":25,"time_elapsed":169335,"internal_node_id":"0.0-6.0-19.0"},{"sim_score":3,"rt":3224,"stimulus":"[\"img/0902/a6fb6dd5-696c-47ec-be7d-d7b88f1544f1.jpg\",\"img/0874/8cdb1c07-1c32-46d2-981c-3636560fa6e5.jpg\"]","trial_type":"similarity","trial_index":26,"time_elapsed":173565,"internal_node_id":"0.0-6.0-20.0"},{"sim_score":4,"rt":3352,"stimulus":"[\"img/0764/06ea144f-f4f3-4a14-ba47-f20f35c561e0.jpg\",\"img/0769/7c50e5f5-cc38-4d48-b009-fbe17bcea61c.jpg\"]","trial_type":"similarity","trial_index":27,"time_elapsed":177919,"internal_node_id":"0.0-6.0-21.0"},{"sim_score":2,"rt":3453,"stimulus":"[\"img/0901/4ca4f962-40c0-4c59-b14a-3cd7b8c9029b.jpg\",\"img/0874/bf14b896-e930-4fd9-9c05-2e83317a2773.jpg\"]","trial_type":"similarity","trial_index":28,"time_elapsed":182374,"internal_node_id":"0.0-6.0-22.0"},{"sim_score":2,"rt":4385,"stimulus":"[\"img/0875/cff79b3a-a797-4393-9757-6275f999ec04.jpg\",\"img/0903/d987e220-f3e6-4b6d-a270-fe6757041f6d.jpg\"]","trial_type":"similarity","trial_index":29,"time_elapsed":187763,"internal_node_id":"0.0-6.0-23.0"},{"sim_score":4,"rt":2743,"stimulus":"[\"img/0769/14d393ce-e5be-4ca1-86ce-cc27d4b6074c.jpg\",\"img/0881/62a64f90-7a72-4aee-a1a1-0c548ac9bdda.jpg\"]","trial_type":"similarity","trial_index":30,"time_elapsed":191509,"internal_node_id":"0.0-6.0-24.0"},{"sim_score":3,"rt":2627,"stimulus":"[\"img/0867/ac1797e4-8afc-48fe-b252-86d1defb1cca.jpg\",\"img/0904/e9423a8c-f946-43ad-ab7b-931acef870e2.jpg\"]","trial_type":"similarity","trial_index":31,"time_elapsed":195143,"internal_node_id":"0.0-6.0-25.0"},{"sim_score":3,"rt":3043,"stimulus":"[\"img/0860/9593362c-9fe5-4d12-9735-6000a11f6aa5.jpg\",\"img/0881/2a8413be-fec2-4de6-88ad-614dd4cccc9d.jpg\"]","trial_type":"similarity","trial_index":32,"time_elapsed":199193,"internal_node_id":"0.0-6.0-26.0"},{"sim_score":7,"rt":3103,"stimulus":"[\"img/0866/07c9c966-3c8d-40e7-8128-92b2acbaed5d.jpg\",\"img/0866/6f2a90d7-14f1-4f1b-bd64-fc0af6b9fe44.jpg\"]","trial_type":"similarity","trial_index":33,"time_elapsed":203299,"internal_node_id":"0.0-6.0-27.0"},{"sim_score":4,"rt":2830,"stimulus":"[\"img/0764/d0bef2e0-e16b-4c82-9451-c1d16265eb67.jpg\",\"img/0862/57b6f83f-c763-4858-830d-102f97bfefbf.jpg\"]","trial_type":"similarity","trial_index":34,"time_elapsed":207136,"internal_node_id":"0.0-6.0-28.0"},{"sim_score":3,"rt":2683,"stimulus":"[\"img/0904/73920552-103b-4c9c-9ece-e0b8376b4504.jpg\",\"img/0758/6e95579b-5166-487c-b8cb-e417c6a218e3.jpg\"]","trial_type":"similarity","trial_index":35,"time_elapsed":210826,"internal_node_id":"0.0-6.0-29.0"},{"sim_score":3,"rt":2698,"stimulus":"[\"img/0894/7fb082e0-ce79-485c-9109-04367fb32275.jpg\",\"img/0899/a05bea16-2bb4-4cb9-b8fb-4ff975db6971.jpg\"]","trial_type":"similarity","trial_index":36,"time_elapsed":214527,"internal_node_id":"0.0-6.0-30.0"},{"sim_score":2,"rt":4878,"stimulus":"[\"img/0860/5383b320-1518-4095-a58e-5cc1ae30b64c.jpg\",\"img/0904/0d25eb24-bb20-4e8d-9787-8b489558b4cb.jpg\"]","trial_type":"similarity","trial_index":37,"time_elapsed":220411,"internal_node_id":"0.0-6.0-31.0"},{"sim_score":6,"rt":3565,"stimulus":"[\"img/0874/31e22c7c-99aa-40b1-bf03-dd73fa2df4d6.jpg\",\"img/0881/7e31e5dc-2240-4b1b-b5a0-3acd980099ef.jpg\"]","trial_type":"similarity","trial_index":38,"time_elapsed":224978,"internal_node_id":"0.0-6.0-32.0"},{"sim_score":3,"rt":3496,"stimulus":"[\"img/0881/566f45f8-5fed-4479-a60f-26377e60a62d.jpg\",\"img/0899/7f9d45d0-b2c6-40d3-aa41-c207db2c411b.jpg\"]","trial_type":"similarity","trial_index":39,"time_elapsed":229478,"internal_node_id":"0.0-6.0-33.0"},{"sim_score":4,"rt":3171,"stimulus":"[\"img/0866/c446214b-a368-4c65-ae39-ea46894256ab.jpg\",\"img/0862/5d887e9f-89e2-4ebc-80a0-6d46fe6480db.jpg\"]","trial_type":"similarity","trial_index":40,"time_elapsed":233652,"internal_node_id":"0.0-6.0-34.0"},{"sim_score":3,"rt":3325,"stimulus":"[\"img/0868/09a9ef4d-d000-4cfa-a6aa-ebec7c2edeb4.jpg\",\"img/0894/10f22b96-040c-44f4-950b-a4963f3f506c.jpg\"]","trial_type":"similarity","trial_index":41,"time_elapsed":237984,"internal_node_id":"0.0-6.0-35.0"},{"sim_score":7,"rt":2732,"stimulus":"[\"img/0860/18dfed73-e36b-4487-a8bd-0b8cff8e3668.jpg\",\"img/0860/8fdba999-b946-4c7d-9891-336018b563ef.jpg\"]","trial_type":"similarity","trial_index":42,"time_elapsed":241719,"internal_node_id":"0.0-6.0-36.0"},{"sim_score":5,"rt":3563,"stimulus":"[\"img/0862/92f0146c-20c4-482e-aef5-adb693790338.jpg\",\"img/0864/a248adb3-c70b-4652-b7a3-776d2a1e904b.jpg\"]","trial_type":"similarity","trial_index":43,"time_elapsed":246286,"internal_node_id":"0.0-6.0-37.0"},{"sim_score":3,"rt":3867,"stimulus":"[\"img/0766/d919cedb-f9b7-4f30-83bb-3e9c65001ceb.jpg\",\"img/0866/93a27239-8317-4e08-98ca-d8b1ff298e07.jpg\"]","trial_type":"similarity","trial_index":44,"time_elapsed":251158,"internal_node_id":"0.0-6.0-38.0"},{"sim_score":2,"rt":3201,"stimulus":"[\"img/0875/e7e66b13-b573-431e-b85e-288ce04a35a3.jpg\",\"img/0898/04e39a7a-fcf6-4156-ab0e-f5871f335e1c.jpg\"]","trial_type":"similarity","trial_index":45,"time_elapsed":255365,"internal_node_id":"0.0-6.0-39.0"},{"sim_score":3,"rt":2943,"stimulus":"[\"img/0766/91fc8c4d-862f-4d2b-b1a1-2db8d729b6b7.jpg\",\"img/0769/4a1d0b52-3fe8-40fb-bb1c-c814fe49a68c.jpg\"]","trial_type":"similarity","trial_index":46,"time_elapsed":259314,"internal_node_id":"0.0-6.0-40.0"},{"sim_score":2,"rt":3396,"stimulus":"[\"img/0874/1016b306-087c-4afc-aa08-fa527b28dc76.jpg\",\"img/0764/cbdc4f20-3a9a-4211-9b40-090699e0abcc.jpg\"]","trial_type":"similarity","trial_index":47,"time_elapsed":277101,"internal_node_id":"0.0-6.0-41.0"},{"sim_score":5,"rt":4810,"stimulus":"[\"img/0868/8b0b8473-e2c0-4331-aa56-c3a5c29369da.jpg\",\"img/0902/6c2c243a-f663-45db-baf5-038d3d58c589.jpg\"]","trial_type":"similarity","trial_index":48,"time_elapsed":282917,"internal_node_id":"0.0-6.0-42.0"},{"sim_score":1,"rt":3215,"stimulus":"[\"img/0875/f87b67d7-c33e-40d1-b281-248c4be1cb6e.jpg\",\"img/0899/f95cbdb4-f804-4f5d-ad76-373ad343e658.jpg\"]","trial_type":"similarity","trial_index":49,"time_elapsed":287136,"internal_node_id":"0.0-6.0-43.0"},{"sim_score":5,"rt":3517,"stimulus":"[\"img/0866/620cd1aa-0800-4414-8f6e-90342e7a99ad.jpg\",\"img/0860/c47fdead-eb02-4989-b078-26f4852f44fe.jpg\"]","trial_type":"similarity","trial_index":50,"time_elapsed":291658,"internal_node_id":"0.0-6.0-44.0"},{"sim_score":2,"rt":5329,"stimulus":"[\"img/0766/908bc45b-7c9e-4f95-806e-86b196ebcb2c.jpg\",\"img/0903/5c6b1f57-b3a2-40f5-9fb1-82785e24b6a0.jpg\"]","trial_type":"similarity","trial_index":51,"time_elapsed":297992,"internal_node_id":"0.0-6.0-45.0"},{"sim_score":3,"rt":3629,"stimulus":"[\"img/0901/bc47e078-bda4-40ed-b89a-bbd819164b95.jpg\",\"img/0904/9d30eff1-46ef-4453-b11e-124ef8145c00.jpg\"]","trial_type":"similarity","trial_index":52,"time_elapsed":302627,"internal_node_id":"0.0-6.0-46.0"},{"sim_score":2,"rt":2367,"stimulus":"[\"img/0758/7ee8bc8f-c40b-4b3a-84ec-3e83580622d4.jpg\",\"img/0902/d5e25767-e8ec-45f3-ac0a-7b4a6f7a9edc.jpg\"]","trial_type":"similarity","trial_index":53,"time_elapsed":306002,"internal_node_id":"0.0-6.0-47.0"},{"sim_score":6,"rt":4665,"stimulus":"[\"img/0764/e30dba15-e68a-4659-89db-e1654b52fe02.jpg\",\"img/0764/1def7b22-b054-4ec2-860b-73d25691823b.jpg\"]","trial_type":"similarity","trial_index":54,"time_elapsed":311672,"internal_node_id":"0.0-6.0-48.0"},{"sim_score":2,"rt":2923,"stimulus":"[\"img/0866/f756f7d1-9ad8-4a34-9ef6-7a443d705bfe.jpg\",\"img/0902/b03fee99-d5ca-4bf8-871c-a4a743a39842.jpg\"]","trial_type":"similarity","trial_index":55,"time_elapsed":315598,"internal_node_id":"0.0-6.0-49.0"},{"sim_score":1,"rt":2899,"stimulus":"[\"img/0764/21e3292f-01ad-4238-828b-61b817857d16.jpg\",\"img/0758/335851a0-a55b-46d8-ab05-8463eda48349.jpg\"]","trial_type":"similarity","trial_index":56,"time_elapsed":319502,"internal_node_id":"0.0-6.0-50.0"},{"sim_score":6,"rt":2765,"stimulus":"[\"img/0898/c3cecf20-f7fd-45fa-97d0-dc0a63e8d6c0.jpg\",\"img/0894/7dd6ff43-f8fc-408a-8a41-a2b261871820.jpg\"]","trial_type":"similarity","trial_index":57,"time_elapsed":323271,"internal_node_id":"0.0-6.0-51.0"},{"sim_score":5,"rt":2136,"stimulus":"[\"img/0875/527ced51-8e53-4aab-ab05-86df219104c0.jpg\",\"img/0866/4a87911a-d5be-4d4e-ab8e-3d1f581bf507.jpg\"]","trial_type":"similarity","trial_index":58,"time_elapsed":326410,"internal_node_id":"0.0-6.0-52.0"},{"sim_score":7,"rt":2755,"stimulus":"[\"img/0904/5aec2708-cf14-4a58-aa30-9a8a61c1be0e.jpg\",\"img/0904/56e73f28-7e64-489b-a161-e6b1a063878d.jpg\"]","trial_type":"similarity","trial_index":59,"time_elapsed":330168,"internal_node_id":"0.0-6.0-53.0"},{"sim_score":7,"rt":2977,"stimulus":"[\"img/0769/878531fd-e0e8-4ad1-b9ad-f018bb104ca0.jpg\",\"img/0769/38a88f69-28fd-4bbd-99f0-f4c02bfd3995.jpg\"]","trial_type":"similarity","trial_index":60,"time_elapsed":334151,"internal_node_id":"0.0-6.0-54.0"},{"sim_score":1,"rt":2672,"stimulus":"[\"img/0898/6cd3830b-d44e-4915-be2b-88d31424b91c.jpg\",\"img/0758/dd559618-7f09-4a07-8018-d311c4a5ea29.jpg\"]","trial_type":"similarity","trial_index":61,"time_elapsed":337829,"internal_node_id":"0.0-6.0-55.0"},{"sim_score":4,"rt":2683,"stimulus":"[\"img/0769/76eaa4a3-dfe9-4dc1-9efb-caebe86264e1.jpg\",\"img/0902/0db94c50-f1fb-4091-953c-29ca0466bee2.jpg\"]","trial_type":"similarity","trial_index":62,"time_elapsed":341519,"internal_node_id":"0.0-6.0-56.0"},{"sim_score":6,"rt":3598,"stimulus":"[\"img/0864/66091c27-e588-4476-8af9-265dc6be4156.jpg\",\"img/0881/c24f3051-eefa-42de-aba6-fccb56d93c70.jpg\"]","trial_type":"similarity","trial_index":63,"time_elapsed":346120,"internal_node_id":"0.0-6.0-57.0"},{"sim_score":2,"rt":1954,"stimulus":"[\"img/0758/d41c06bf-ebaf-454b-91c6-1a17f917b659.jpg\",\"img/0868/d98ca254-b195-477f-b57e-5760a2717db8.jpg\"]","trial_type":"similarity","trial_index":64,"time_elapsed":349079,"internal_node_id":"0.0-6.0-58.0"},{"sim_score":3,"rt":2608,"stimulus":"[\"img/0862/53a9cf7c-93c4-41b9-952f-07d17f7a17b2.jpg\",\"img/0769/ebef2ddc-ba59-4e0e-97f8-927864eb5081.jpg\"]","trial_type":"similarity","trial_index":65,"time_elapsed":352690,"internal_node_id":"0.0-6.0-59.0"},{"sim_score":3,"rt":2312,"stimulus":"[\"img/0764/d7c215ab-ea9a-45be-8d5f-417d5b9a8a17.jpg\",\"img/0903/0fb24af7-9a26-4e9d-aadc-959a36f683e2.jpg\"]","trial_type":"similarity","trial_index":66,"time_elapsed":356009,"internal_node_id":"0.0-6.0-60.0"},{"sim_score":7,"rt":3054,"stimulus":"[\"img/0899/ddf96ade-692e-4602-bd22-dedbb46401bc.jpg\",\"img/0899/0adc0bc3-6fca-4078-be6f-d45ddf1653d5.jpg\"]","trial_type":"similarity","trial_index":67,"time_elapsed":360070,"internal_node_id":"0.0-6.0-61.0"},{"sim_score":5,"rt":2978,"stimulus":"[\"img/0860/5bff793e-cbd5-4d7e-b628-0ac2b0e30b64.jpg\",\"img/0875/8521fd58-3b1e-4dc5-97ae-804edfa6734a.jpg\"]","trial_type":"similarity","trial_index":68,"time_elapsed":364053,"internal_node_id":"0.0-6.0-62.0"},{"sim_score":1,"rt":2549,"stimulus":"[\"img/0868/293079b8-7e0c-4afd-a390-1e5d35fe3ded.jpg\",\"img/0874/767f289c-9814-4496-803f-745cc8913d1f.jpg\"]","trial_type":"similarity","trial_index":69,"time_elapsed":367609,"internal_node_id":"0.0-6.0-63.0"},{"sim_score":2,"rt":2491,"stimulus":"[\"img/0758/d540bee6-b460-4c32-ac57-bc282742d7d4.jpg\",\"img/0862/eefa5588-9efd-4591-aa5f-a2e17c7d7bcc.jpg\"]","trial_type":"similarity","trial_index":70,"time_elapsed":371107,"internal_node_id":"0.0-6.0-64.0"},{"sim_score":6,"rt":2711,"stimulus":"[\"img/0904/d23dd7be-7fe8-4435-82f7-bd592c01e6a1.jpg\",\"img/0898/26c41340-15bd-4ead-8fe4-c0d0ddca09c2.jpg\"]","trial_type":"similarity","trial_index":71,"time_elapsed":374821,"internal_node_id":"0.0-6.0-65.0"},{"sim_score":4,"rt":2367,"stimulus":"[\"img/0881/c843e210-bdfe-4a7c-8bbe-fcea1f90fe1c.jpg\",\"img/0866/a04d37f0-99dd-478a-b6c6-58b215138f84.jpg\"]","trial_type":"similarity","trial_index":72,"time_elapsed":378194,"internal_node_id":"0.0-6.0-66.0"},{"sim_score":2,"rt":2686,"stimulus":"[\"img/0867/179ab87a-8eac-4c52-a41f-2e48e3120f09.jpg\",\"img/0898/01bfe666-3510-4fc7-964f-d00d28732dc8.jpg\"]","trial_type":"similarity","trial_index":73,"time_elapsed":381884,"internal_node_id":"0.0-6.0-67.0"},{"sim_score":2,"rt":2246,"stimulus":"[\"img/0902/e5a46bda-30d1-41ca-b36d-b8529b5a63d1.jpg\",\"img/0764/5d6fa3ce-9083-410c-bbdb-336a49b94cfc.jpg\"]","trial_type":"similarity","trial_index":74,"time_elapsed":385136,"internal_node_id":"0.0-6.0-68.0"},{"sim_score":4,"rt":2135,"stimulus":"[\"img/0875/ebf7653f-ff45-4e9f-af58-2c042ab3cd2b.jpg\",\"img/0867/12264664-1860-46df-8c21-162b9817cdda.jpg\"]","trial_type":"similarity","trial_index":75,"time_elapsed":388274,"internal_node_id":"0.0-6.0-69.0"},{"sim_score":6,"rt":2452,"stimulus":"[\"img/0766/79767d11-b612-4e8a-9e4b-a8ac95bb6a54.jpg\",\"img/0764/1f95ab5f-fb65-4d70-b5db-d6bd6351a8aa.jpg\"]","trial_type":"similarity","trial_index":76,"time_elapsed":391729,"internal_node_id":"0.0-6.0-70.0"},{"sim_score":4,"rt":2447,"stimulus":"[\"img/0894/767a0eec-1064-46b1-b1aa-dfa02b0cd74e.jpg\",\"img/0867/f8159067-056c-41f1-a136-c529fe5e970a.jpg\"]","trial_type":"similarity","trial_index":77,"time_elapsed":395182,"internal_node_id":"0.0-6.0-71.0"},{"sim_score":2,"rt":2337,"stimulus":"[\"img/0875/5a7c4e35-6514-4e12-8879-d16071da4cd6.jpg\",\"img/0764/f64dfa83-333d-494c-87b5-73e942f1766e.jpg\"]","trial_type":"similarity","trial_index":78,"time_elapsed":398523,"internal_node_id":"0.0-6.0-72.0"},{"sim_score":7,"rt":1955,"stimulus":"[\"img/0867/7d1c497b-c1b3-4ed8-abb5-d7f73306015f.jpg\",\"img/0866/d266fece-59b3-46fa-b69f-96f6efb81b59.jpg\"]","trial_type":"similarity","trial_index":79,"time_elapsed":401482,"internal_node_id":"0.0-6.0-73.0"},{"sim_score":2,"rt":2115,"stimulus":"[\"img/0903/8c358e9e-a4f4-466e-8b93-7aec0d2358e8.jpg\",\"img/0758/7ffbc76b-1fc1-432c-8f7e-9ec8d1b3f643.jpg\"]","trial_type":"similarity","trial_index":80,"time_elapsed":404599,"internal_node_id":"0.0-6.0-74.0"},{"sim_score":1,"rt":1931,"stimulus":"[\"img/0766/26d3ae14-8275-4e08-99b2-a6598c193ddf.jpg\",\"img/0868/d6d1f30d-4323-435a-b194-7892521bc57e.jpg\"]","trial_type":"similarity","trial_index":81,"time_elapsed":407535,"internal_node_id":"0.0-6.0-75.0"},{"sim_score":1,"rt":3155,"stimulus":"[\"img/0874/eba003b4-cdab-4eee-8bc3-f064c7d94165.jpg\",\"img/0766/09f646c8-a69e-4ed3-879c-8d29b04ad7f9.jpg\"]","trial_type":"similarity","trial_index":82,"time_elapsed":411697,"internal_node_id":"0.0-6.0-76.0"},{"sim_score":2,"rt":2496,"stimulus":"[\"img/0881/1407b85b-a1c6-45b1-9884-3b24203efadb.jpg\",\"img/0868/77091fc7-a590-4ebb-b915-fdb2483a2399.jpg\"]","trial_type":"similarity","trial_index":83,"time_elapsed":415196,"internal_node_id":"0.0-6.0-77.0"},{"sim_score":2,"rt":2235,"stimulus":"[\"img/0758/f61ecdf8-a7d4-4db0-b84d-be46f7cfaffc.jpg\",\"img/0901/548d1110-7cb8-42a2-9927-9798875c8b5c.jpg\"]","trial_type":"similarity","trial_index":84,"time_elapsed":418436,"internal_node_id":"0.0-6.0-78.0"},{"sim_score":2,"rt":3313,"stimulus":"[\"img/0881/667e2147-d457-4f32-aa5f-6ab86e5848f1.jpg\",\"img/0898/b2732712-71c2-45d8-834f-2b2ed5504910.jpg\"]","trial_type":"similarity","trial_index":85,"time_elapsed":422758,"internal_node_id":"0.0-6.0-79.0"},{"sim_score":3,"rt":1828,"stimulus":"[\"img/0867/8ba0c5a7-c7e4-42cf-a80a-543763b90779.jpg\",\"img/0758/caa93da2-9edf-49fa-96b9-32dedd8f5078.jpg\"]","trial_type":"similarity","trial_index":86,"time_elapsed":425591,"internal_node_id":"0.0-6.0-80.0"},{"sim_score":5,"rt":2585,"stimulus":"[\"img/0769/662ab839-88d1-4ebf-af05-9b2980cad943.jpg\",\"img/0899/66ab3178-c3fe-4455-ad17-d5952b08e018.jpg\"]","trial_type":"similarity","trial_index":87,"time_elapsed":429180,"internal_node_id":"0.0-6.0-81.0"},{"sim_score":7,"rt":2744,"stimulus":"[\"img/0903/ea75f240-fb62-4edb-a709-83e858b202c0.jpg\",\"img/0903/3e9ee8a5-eb66-47f5-8973-8a5af1ddc87e.jpg\"]","trial_type":"similarity","trial_index":88,"time_elapsed":432926,"internal_node_id":"0.0-6.0-82.0"},{"sim_score":1,"rt":2166,"stimulus":"[\"img/0867/50a1b60e-3a29-44bf-b606-d4bd3746fea9.jpg\",\"img/0766/6d32752d-aa05-40dc-9541-640b6e9d6fa1.jpg\"]","trial_type":"similarity","trial_index":89,"time_elapsed":440959,"internal_node_id":"0.0-6.0-83.0"},{"sim_score":3,"rt":4094,"stimulus":"[\"img/0902/b76efc44-a50f-4dac-b997-ff0222376067.jpg\",\"img/0867/85a96c62-548f-4994-9553-819e03c3135a.jpg\"]","trial_type":"similarity","trial_index":90,"time_elapsed":446056,"internal_node_id":"0.0-6.0-84.0"},{"sim_score":1,"rt":3441,"stimulus":"[\"img/0901/875dedb9-24c9-4443-9f8c-85e97d70ee5a.jpg\",\"img/0875/fb732ab5-013a-4366-9f65-27811ed157e9.jpg\"]","trial_type":"similarity","trial_index":91,"time_elapsed":450500,"internal_node_id":"0.0-6.0-85.0"},{"sim_score":3,"rt":2334,"stimulus":"[\"img/0764/c01e2d65-6586-441b-bef5-3c96fcd85380.jpg\",\"img/0866/386235d2-6857-41e7-88a8-25cfc3430025.jpg\"]","trial_type":"similarity","trial_index":92,"time_elapsed":453840,"internal_node_id":"0.0-6.0-86.0"},{"sim_score":4,"rt":2078,"stimulus":"[\"img/0901/2a953e50-d237-405c-a38d-5ed21494c968.jpg\",\"img/0894/2d2db7b3-e8a3-499b-b63a-14f51bf73882.jpg\"]","trial_type":"similarity","trial_index":93,"time_elapsed":456923,"internal_node_id":"0.0-6.0-87.0"},{"sim_score":5,"rt":1997,"stimulus":"[\"img/0898/79233891-305a-4a6a-8ddf-5c8604858203.jpg\",\"img/0769/47700831-0ca2-4fdd-a498-a3bc5a528f43.jpg\"]","trial_type":"similarity","trial_index":94,"time_elapsed":459927,"internal_node_id":"0.0-6.0-88.0"},{"sim_score":6,"rt":2562,"stimulus":"[\"img/0769/387a9744-d6a7-42b8-bab8-33007ec434aa.jpg\",\"img/0894/792c83e9-a747-4000-bc72-5663d2439edb.jpg\"]","trial_type":"similarity","trial_index":95,"time_elapsed":463493,"internal_node_id":"0.0-6.0-89.0"},{"sim_score":5,"rt":1686,"stimulus":"[\"img/0862/99a99e39-8355-44ec-b993-e7bcec111e1c.jpg\",\"img/0874/3ce41e7c-40c8-4d58-a546-171114521796.jpg\"]","trial_type":"similarity","trial_index":96,"time_elapsed":466182,"internal_node_id":"0.0-6.0-90.0"},{"sim_score":5,"rt":2223,"stimulus":"[\"img/0894/c505c65a-cde2-4f2c-8cde-f8676f7c894d.jpg\",\"img/0766/60033a74-9919-47e5-913c-71d0d483e7e5.jpg\"]","trial_type":"similarity","trial_index":97,"time_elapsed":469411,"internal_node_id":"0.0-6.0-91.0"},{"sim_score":3,"rt":1998,"stimulus":"[\"img/0874/ca76a855-4e77-4f2f-872a-0a718153e7ed.jpg\",\"img/0867/a749dddb-69f0-44a6-acdc-2bf295cf6dcc.jpg\"]","trial_type":"similarity","trial_index":98,"time_elapsed":472415,"internal_node_id":"0.0-6.0-92.0"},{"sim_score":2,"rt":2023,"stimulus":"[\"img/0899/7b7380d5-d2be-44e5-a09a-c1756f87ef71.jpg\",\"img/0868/4e626425-63c8-484a-8a1d-e66ee4e0bef8.jpg\"]","trial_type":"similarity","trial_index":99,"time_elapsed":475441,"internal_node_id":"0.0-6.0-93.0"},{"sim_score":4,"rt":2583,"stimulus":"[\"img/0903/12bd8657-92e6-4c36-a06c-597e7a1d51f3.jpg\",\"img/0862/00c06b00-3b73-44e9-bc1e-c5aafb438321.jpg\"]","trial_type":"similarity","trial_index":100,"time_elapsed":479031,"internal_node_id":"0.0-6.0-94.0"},{"sim_score":5,"rt":2131,"stimulus":"[\"img/0899/66bf4113-ee12-426c-84d2-ea410b6c803e.jpg\",\"img/0766/00891401-e4c9-4ce1-bc19-f70740d174bc.jpg\"]","trial_type":"similarity","trial_index":101,"time_elapsed":482168,"internal_node_id":"0.0-6.0-95.0"},{"sim_score":6,"rt":3169,"stimulus":"[\"img/0867/5e07b34d-b40f-4b1c-ac10-49975bace45f.jpg\",\"img/0868/c8ac40c7-6904-4e13-8d61-c75d3052dc4e.jpg\"]","trial_type":"similarity","trial_index":102,"time_elapsed":486342,"internal_node_id":"0.0-6.0-96.0"},{"sim_score":2,"rt":2146,"stimulus":"[\"img/0862/fb26cb07-d5a9-4653-813c-f41609f26cd5.jpg\",\"img/0901/b123d109-47b4-4f9a-80c9-9bb16da42efa.jpg\"]","trial_type":"similarity","trial_index":103,"time_elapsed":489492,"internal_node_id":"0.0-6.0-97.0"},{"sim_score":3,"rt":3228,"stimulus":"[\"img/0875/5a716432-c6ca-4b1c-955a-2b8ac25198ee.jpg\",\"img/0766/2746b119-4bba-463e-acf0-88136dc6600c.jpg\"]","trial_type":"similarity","trial_index":104,"time_elapsed":493723,"internal_node_id":"0.0-6.0-98.0"},{"sim_score":5,"rt":1876,"stimulus":"[\"img/0758/6cd8c362-ae2a-41eb-80a3-3a4f7ace1530.jpg\",\"img/0874/85eb9b8a-c4c6-4e5a-b8e7-363a87a82054.jpg\"]","trial_type":"similarity","trial_index":105,"time_elapsed":496602,"internal_node_id":"0.0-6.0-99.0"},{"sim_score":2,"rt":2739,"stimulus":"[\"img/0904/ba8e689e-9ca6-4608-a2a1-3b0940666ae6.jpg\",\"img/0868/fd307a36-9a3a-47d7-ab7c-f810d0b35040.jpg\"]","trial_type":"similarity","trial_index":106,"time_elapsed":500349,"internal_node_id":"0.0-6.0-100.0"},{"sim_score":2,"rt":3655,"stimulus":"[\"img/0903/c708d08f-a108-4e04-8288-c3fcf6375db4.jpg\",\"img/0866/11a1d141-be5e-443c-98c1-a9d4d9e3dec0.jpg\"]","trial_type":"similarity","trial_index":107,"time_elapsed":505006,"internal_node_id":"0.0-6.0-101.0"},{"sim_score":4,"rt":4810,"stimulus":"[\"img/0868/7b212364-ff5f-4e28-9241-7eb6ea00161b.jpg\",\"img/0769/f6396414-6788-4d59-9683-de153298d89c.jpg\"]","trial_type":"similarity","trial_index":108,"time_elapsed":510823,"internal_node_id":"0.0-6.0-102.0"},{"sim_score":3,"rt":2414,"stimulus":"[\"img/0902/af45fe42-178c-4c1a-99ef-256e87e3b092.jpg\",\"img/0899/8de08897-b430-42fe-9d42-840670b80f94.jpg\"]","trial_type":"similarity","trial_index":109,"time_elapsed":514243,"internal_node_id":"0.0-6.0-103.0"},{"sim_score":1,"rt":2418,"stimulus":"[\"img/0868/6a28c3b0-3d76-498a-9fb7-ddafc665eca8.jpg\",\"img/0862/4f0a3b4c-afbf-486e-b248-1d54982f54b4.jpg\"]","trial_type":"similarity","trial_index":110,"time_elapsed":517663,"internal_node_id":"0.0-6.0-104.0"},{"sim_score":6,"rt":2246,"stimulus":"[\"img/0903/9b60ef5b-234f-4239-892b-3d4c412accc2.jpg\",\"img/0894/133a1636-d123-4893-873c-1718050f832a.jpg\"]","trial_type":"similarity","trial_index":111,"time_elapsed":520914,"internal_node_id":"0.0-6.0-105.0"},{"sim_score":4,"rt":2426,"stimulus":"[\"img/0864/e02eddb5-f468-499c-91bf-f7be3ffe979b.jpg\",\"img/0874/ca23d307-fc00-4d7d-9106-584c6eb21b4d.jpg\"]","trial_type":"similarity","trial_index":112,"time_elapsed":524345,"internal_node_id":"0.0-6.0-106.0"},{"sim_score":2,"rt":2799,"stimulus":"[\"img/0862/92fcd8a4-8193-4a6a-ae09-dd4a6338b0df.jpg\",\"img/0902/d1083f2c-5520-44ec-81a8-3f856fbf0e80.jpg\"]","trial_type":"similarity","trial_index":113,"time_elapsed":528148,"internal_node_id":"0.0-6.0-107.0"},{"sim_score":5,"rt":2617,"stimulus":"[\"img/0904/2fd488e9-960f-41f7-8a44-33375f7d5051.jpg\",\"img/0903/470acfd5-5571-4a7b-b3a4-28d87e098138.jpg\"]","trial_type":"similarity","trial_index":114,"time_elapsed":531771,"internal_node_id":"0.0-6.0-108.0"},{"sim_score":3,"rt":2968,"stimulus":"[\"img/0764/e42c1dc9-7831-4995-be19-7ca7b4d141fc.jpg\",\"img/0864/afcba0a3-7e27-4757-b254-e9f05fad27e2.jpg\"]","trial_type":"similarity","trial_index":115,"time_elapsed":535742,"internal_node_id":"0.0-6.0-109.0"},{"sim_score":1,"rt":2373,"stimulus":"[\"img/0866/8efcaa46-83ab-4dee-a35f-850402aa21ae.jpg\",\"img/0894/e2446cf5-cd48-486a-badc-76498e087fbe.jpg\"]","trial_type":"similarity","trial_index":116,"time_elapsed":539117,"internal_node_id":"0.0-6.0-110.0"},{"sim_score":2,"rt":2238,"stimulus":"[\"img/0899/8abe6c69-822c-436c-9bf2-96c818b49ba5.jpg\",\"img/0903/31b5a5f4-b695-4af1-bad2-a19650a05498.jpg\"]","trial_type":"similarity","trial_index":117,"time_elapsed":542357,"internal_node_id":"0.0-6.0-111.0"},{"sim_score":6,"rt":2754,"stimulus":"[\"img/0902/94ee9c53-a9a2-4f95-b9b7-794a5fc62bb6.jpg\",\"img/0904/06dacdc5-2206-4fb8-92b7-88042d22833c.jpg\"]","trial_type":"similarity","trial_index":118,"time_elapsed":546114,"internal_node_id":"0.0-6.0-112.0"},{"sim_score":1,"rt":1990,"stimulus":"[\"img/0864/1ebbc554-99fa-49f9-8799-317375a79820.jpg\",\"img/0860/15b24a61-25be-4356-9eac-5ce95d0cb4a4.jpg\"]","trial_type":"similarity","trial_index":119,"time_elapsed":549108,"internal_node_id":"0.0-6.0-113.0"},{"sim_score":1,"rt":2222,"stimulus":"[\"img/0860/61fb959d-d4d9-4de4-9e4e-4fa62b4cfcd5.jpg\",\"img/0899/fef567a2-c121-4481-9af0-ff108d199bbf.jpg\"]","trial_type":"similarity","trial_index":120,"time_elapsed":552336,"internal_node_id":"0.0-6.0-114.0"},{"sim_score":2,"rt":3641,"stimulus":"[\"img/0881/20af39f5-373d-4a55-a437-2dc4c0382c46.jpg\",\"img/0903/bf0a7d60-eca5-44b0-bafd-baf21db9904b.jpg\"]","trial_type":"similarity","trial_index":121,"time_elapsed":556982,"internal_node_id":"0.0-6.0-115.0"},{"sim_score":3,"rt":2698,"stimulus":"[\"img/0894/3adef67d-7676-4995-80b2-bb31b8aca3ef.jpg\",\"img/0874/3f471690-9788-4d03-90c7-f615aecef149.jpg\"]","trial_type":"similarity","trial_index":122,"time_elapsed":560683,"internal_node_id":"0.0-6.0-116.0"},{"sim_score":4,"rt":3698,"stimulus":"[\"img/0881/f037e3b0-09cb-4a83-b2d9-6a71fe474e63.jpg\",\"img/0862/1c20f772-3a51-4a80-aac0-f57dc9f86c28.jpg\"]","trial_type":"similarity","trial_index":123,"time_elapsed":565386,"internal_node_id":"0.0-6.0-117.0"},{"sim_score":5,"rt":2280,"stimulus":"[\"img/0868/179a5502-ab5c-478e-8263-5a1fbcc101d2.jpg\",\"img/0875/3ecb367d-e9eb-4826-8aaa-7aa72fb98019.jpg\"]","trial_type":"similarity","trial_index":124,"time_elapsed":568671,"internal_node_id":"0.0-6.0-118.0"},{"sim_score":1,"rt":2078,"stimulus":"[\"img/0860/524b2e98-5767-4d53-942c-ebae6925659b.jpg\",\"img/0758/53f35650-e455-4b53-8be4-c3c8271c6466.jpg\"]","trial_type":"similarity","trial_index":125,"time_elapsed":571754,"internal_node_id":"0.0-6.0-119.0"},{"sim_score":3,"rt":2774,"stimulus":"[\"img/0864/4bd81bc6-c13d-46df-95a9-485886dc7c1b.jpg\",\"img/0875/2e13d160-eea1-416b-aff1-d37ab99ecc1d.jpg\"]","trial_type":"similarity","trial_index":126,"time_elapsed":575533,"internal_node_id":"0.0-6.0-120.0"},{"sim_score":1,"rt":1932,"stimulus":"[\"img/0898/a8f16b02-e19f-423b-86c3-a36562ae1f9b.jpg\",\"img/0866/bf14b5bd-fb55-47db-86b9-4f8aeb9a6dad.jpg\"]","trial_type":"similarity","trial_index":127,"time_elapsed":578469,"internal_node_id":"0.0-6.0-121.0"},{"sim_score":3,"rt":2292,"stimulus":"[\"img/0874/7e4f2150-3b59-4a36-b5da-a4e0ba410531.jpg\",\"img/0904/63dd06dd-dccb-47ba-9740-eb33239e18a7.jpg\"]","trial_type":"similarity","trial_index":128,"time_elapsed":581766,"internal_node_id":"0.0-6.0-122.0"},{"sim_score":3,"rt":2650,"stimulus":"[\"img/0904/09934646-45d2-4147-8fec-64a22a5ac822.jpg\",\"img/0864/0116ca98-293d-4fa6-a93b-5a6144ef64cc.jpg\"]","trial_type":"similarity","trial_index":129,"time_elapsed":585422,"internal_node_id":"0.0-6.0-123.0"},{"sim_score":2,"rt":4083,"stimulus":"[\"img/0894/38f5931f-926d-414e-b498-66b188978b7a.jpg\",\"img/0902/d2c34af0-8c50-437d-8cc3-619195a3e8ba.jpg\"]","trial_type":"similarity","trial_index":130,"time_elapsed":590507,"internal_node_id":"0.0-6.0-124.0"},{"sim_score":1,"rt":2045,"stimulus":"[\"img/0868/15dd6fd7-791e-4b53-b203-195d617521a4.jpg\",\"img/0864/65210d57-1153-4657-886a-32e758f49b4a.jpg\"]","trial_type":"similarity","trial_index":131,"time_elapsed":599800,"internal_node_id":"0.0-6.0-125.0"},{"sim_score":2,"rt":2158,"stimulus":"[\"img/0899/4408c14d-c168-4a7d-96f6-bc87bfb58f83.jpg\",\"img/0866/23a224f3-2012-4fc8-8e0f-3c36f8de27fd.jpg\"]","trial_type":"similarity","trial_index":132,"time_elapsed":602962,"internal_node_id":"0.0-6.0-126.0"},{"sim_score":1,"rt":3045,"stimulus":"[\"img/0875/2c361b79-c3d1-4eda-812e-bf03192407bf.jpg\",\"img/0904/1d10df11-b5c8-4370-9a6b-097a7f965895.jpg\"]","trial_type":"similarity","trial_index":133,"time_elapsed":607011,"internal_node_id":"0.0-6.0-127.0"},{"sim_score":1,"rt":1852,"stimulus":"[\"img/0867/aa05d113-fc19-4756-a8eb-7878f580bc92.jpg\",\"img/0899/b45c550b-96c3-4255-ad59-48a2b4db1c1e.jpg\"]","trial_type":"similarity","trial_index":134,"time_elapsed":609869,"internal_node_id":"0.0-6.0-128.0"},{"sim_score":2,"rt":2032,"stimulus":"[\"img/0901/a6776381-91fe-43f8-ab73-261d318f95fd.jpg\",\"img/0867/cc72ed48-7704-422c-86d6-467a1145287a.jpg\"]","trial_type":"similarity","trial_index":135,"time_elapsed":612907,"internal_node_id":"0.0-6.0-129.0"},{"sim_score":4,"rt":2080,"stimulus":"[\"img/0864/c3b63e8f-ea39-4d70-a1f2-b3fe4be8eb75.jpg\",\"img/0769/f73c5138-2f4c-4354-981c-129dff9cc734.jpg\"]","trial_type":"similarity","trial_index":136,"time_elapsed":615989,"internal_node_id":"0.0-6.0-130.0"},{"sim_score":4,"rt":2552,"stimulus":"[\"img/0903/4cbdc464-e562-4ec2-9bb6-15f894fdf528.jpg\",\"img/0868/1a62b2b2-18f5-466e-b564-5176a57c565e.jpg\"]","trial_type":"similarity","trial_index":137,"time_elapsed":619544,"internal_node_id":"0.0-6.0-131.0"},{"sim_score":2,"rt":2913,"stimulus":"[\"img/0864/6e846d43-94a6-4b37-a268-65eda979f052.jpg\",\"img/0867/26611f4e-d694-4460-b7e2-43c62753ddc3.jpg\"]","trial_type":"similarity","trial_index":138,"time_elapsed":623459,"internal_node_id":"0.0-6.0-132.0"},{"sim_score":4,"rt":1989,"stimulus":"[\"img/0901/5657dd86-0ff9-4753-ba2b-9dfb223e5c89.jpg\",\"img/0860/4c530c3c-6aab-492a-94d1-9c01797bde40.jpg\"]","trial_type":"similarity","trial_index":139,"time_elapsed":626452,"internal_node_id":"0.0-6.0-133.0"},{"sim_score":4,"rt":2404,"stimulus":"[\"img/0881/84397291-bc14-4fbf-90e8-241e486ab0fe.jpg\",\"img/0766/214866ee-423d-4629-9bb9-41572bdc7dac.jpg\"]","trial_type":"similarity","trial_index":140,"time_elapsed":629860,"internal_node_id":"0.0-6.0-134.0"},{"sim_score":3,"rt":2059,"stimulus":"[\"img/0903/97a42b34-5462-4665-88c7-83c014b33d24.jpg\",\"img/0864/e336a4c5-6648-4fd7-b2f6-93a3fb83f8c6.jpg\"]","trial_type":"similarity","trial_index":141,"time_elapsed":632921,"internal_node_id":"0.0-6.0-135.0"},{"sim_score":2,"rt":2416,"stimulus":"[\"img/0758/9fb5b2fe-3f00-4fe6-973c-1ce10d5f4cd5.jpg\",\"img/0894/3664e04c-c6d3-4c9b-afb6-25d89974b174.jpg\"]","trial_type":"similarity","trial_index":142,"time_elapsed":636341,"internal_node_id":"0.0-6.0-136.0"},{"sim_score":3,"rt":2024,"stimulus":"[\"img/0769/48a1144d-fbda-4809-991b-fc8424a32ee4.jpg\",\"img/0860/17b44a7d-c5ca-479f-9e87-f65a64f5c80e.jpg\"]","trial_type":"similarity","trial_index":143,"time_elapsed":639367,"internal_node_id":"0.0-6.0-137.0"},{"sim_score":4,"rt":1986,"stimulus":"[\"img/0904/25365108-e038-4021-aac9-797f2063b337.jpg\",\"img/0766/006035d8-c736-4daf-bbe4-a9e373af9da6.jpg\"]","trial_type":"similarity","trial_index":144,"time_elapsed":642359,"internal_node_id":"0.0-6.0-138.0"},{"sim_score":4,"rt":2044,"stimulus":"[\"img/0868/0d3abd3a-b6c3-4584-a9f7-e2da63748b3d.jpg\",\"img/0860/87039971-2210-4aab-93c0-8e9b5f1655b2.jpg\"]","trial_type":"similarity","trial_index":145,"time_elapsed":645409,"internal_node_id":"0.0-6.0-139.0"},{"sim_score":5,"rt":2046,"stimulus":"[\"img/0758/b76ceca7-95ac-46e4-ac13-da02c8e93be9.jpg\",\"img/0864/efcfbb1b-8197-44c9-b723-40d6c608dd3c.jpg\"]","trial_type":"similarity","trial_index":146,"time_elapsed":648457,"internal_node_id":"0.0-6.0-140.0"},{"sim_score":7,"rt":2058,"stimulus":"[\"img/0867/f8488a47-94ee-4166-952c-44e16cf172f6.jpg\",\"img/0867/6e19c858-b606-45b2-a4c6-910a73f1d82c.jpg\"]","trial_type":"similarity","trial_index":147,"time_elapsed":651517,"internal_node_id":"0.0-6.0-141.0"},{"sim_score":7,"rt":1975,"stimulus":"[\"img/0898/68476bbb-34a1-42d9-8bc1-deab783d4489.jpg\",\"img/0898/82231d4c-218b-4d0a-b50d-35a49b524e97.jpg\"]","trial_type":"similarity","trial_index":148,"time_elapsed":654499,"internal_node_id":"0.0-6.0-142.0"},{"sim_score":4,"rt":1978,"stimulus":"[\"img/0866/a15b02be-11bb-43e3-b0e0-ecc3bd7dfc49.jpg\",\"img/0769/1d8734c4-77ab-4165-9e71-5cfe672ff01c.jpg\"]","trial_type":"similarity","trial_index":149,"time_elapsed":657480,"internal_node_id":"0.0-6.0-143.0"},{"sim_score":5,"rt":2009,"stimulus":"[\"img/0860/702bd09d-df3a-40aa-a267-5f04474305b5.jpg\",\"img/0898/993d8f2d-bef7-4251-a193-0f93a32b7763.jpg\"]","trial_type":"similarity","trial_index":150,"time_elapsed":660495,"internal_node_id":"0.0-6.0-144.0"},{"sim_score":3,"rt":2090,"stimulus":"[\"img/0766/75c3d627-4f3b-40d5-9d9c-10c8a62db644.jpg\",\"img/0864/1d15626a-2f7c-410f-819c-0fa2c967e95e.jpg\"]","trial_type":"similarity","trial_index":151,"time_elapsed":663589,"internal_node_id":"0.0-6.0-145.0"},{"sim_score":4,"rt":1763,"stimulus":"[\"img/0860/c3379ff7-0763-48fe-a1ec-7ea3d611bc7a.jpg\",\"img/0903/6b5dcc60-3ad3-4962-93e5-e6cf768477af.jpg\"]","trial_type":"similarity","trial_index":152,"time_elapsed":666356,"internal_node_id":"0.0-6.0-146.0"},{"sim_score":1,"rt":2099,"stimulus":"[\"img/0867/c71dc569-f49c-4397-8381-68b8d726736d.jpg\",\"img/0764/bd2eaa3e-95a9-4a59-a78e-3f81c766eea9.jpg\"]","trial_type":"similarity","trial_index":153,"time_elapsed":669461,"internal_node_id":"0.0-6.0-147.0"},{"sim_score":4,"rt":2167,"stimulus":"[\"img/0769/35364db7-e0d5-40ef-93dc-faf9dfb95136.jpg\",\"img/0904/4b8daf2a-13a9-4ea9-9e0b-b265b6e933e7.jpg\"]","trial_type":"similarity","trial_index":154,"time_elapsed":672633,"internal_node_id":"0.0-6.0-148.0"},{"sim_score":3,"rt":3756,"stimulus":"[\"img/0764/d7f3ac54-318a-4dac-a06b-62bed34d01a4.jpg\",\"img/0901/50e1d53e-a49f-4806-8610-be6dec5a2475.jpg\"]","trial_type":"similarity","trial_index":155,"time_elapsed":677392,"internal_node_id":"0.0-6.0-149.0"},{"sim_score":4,"rt":2832,"stimulus":"[\"img/0904/65e2b70a-b184-4da3-b5c0-5038bdf9469a.jpg\",\"img/0899/51a7a498-98c7-42d7-bca8-bc2d8f0b5831.jpg\"]","trial_type":"similarity","trial_index":156,"time_elapsed":681228,"internal_node_id":"0.0-6.0-150.0"},{"sim_score":3,"rt":2268,"stimulus":"[\"img/0862/e8cc3bdf-cc43-4565-bccf-492626c70953.jpg\",\"img/0867/1719a35d-f085-48c0-9099-16c94fe418b4.jpg\"]","trial_type":"similarity","trial_index":157,"time_elapsed":684502,"internal_node_id":"0.0-6.0-151.0"},{"sim_score":7,"rt":2290,"stimulus":"[\"img/0766/33aa9ebb-c9f5-418f-8c8b-c77861889568.jpg\",\"img/0766/fd064894-7147-4af5-97e9-2089d5472656.jpg\"]","trial_type":"similarity","trial_index":158,"time_elapsed":687799,"internal_node_id":"0.0-6.0-152.0"},{"sim_score":3,"rt":1806,"stimulus":"[\"img/0862/47ed5efd-4ec9-4b74-bb4e-a5f5cf0c3e7d.jpg\",\"img/0894/9b1333fd-3561-43bf-aee5-99b7b7ca3dc3.jpg\"]","trial_type":"similarity","trial_index":159,"time_elapsed":690611,"internal_node_id":"0.0-6.0-153.0"},{"sim_score":4,"rt":2045,"stimulus":"[\"img/0899/f58b8d2f-b19d-4b59-8b94-8834be92e4ba.jpg\",\"img/0901/d4d09bf5-093e-4050-838e-7c738be8e63c.jpg\"]","trial_type":"similarity","trial_index":160,"time_elapsed":693660,"internal_node_id":"0.0-6.0-154.0"},{"sim_score":7,"rt":2068,"stimulus":"[\"img/0874/99f6563c-8a8d-4c1c-a41d-667b618c3fd5.jpg\",\"img/0874/2c9464dd-8a23-4baa-ac94-1ba3af5c15cc.jpg\"]","trial_type":"similarity","trial_index":161,"time_elapsed":696732,"internal_node_id":"0.0-6.0-155.0"},{"sim_score":4,"rt":2867,"stimulus":"[\"img/0860/8a92e21b-6a32-4e4a-a445-2d5a487ed0a4.jpg\",\"img/0867/98d8cd96-1476-4fe0-a3a3-04f875500a1b.jpg\"]","trial_type":"similarity","trial_index":162,"time_elapsed":700601,"internal_node_id":"0.0-6.0-156.0"},{"sim_score":3,"rt":1820,"stimulus":"[\"img/0901/77087ed2-6e12-4329-b2a5-605bca6d972d.jpg\",\"img/0881/dea58fad-b4f1-41d9-bd3f-916eff19a3fd.jpg\"]","trial_type":"similarity","trial_index":163,"time_elapsed":703425,"internal_node_id":"0.0-6.0-157.0"},{"sim_score":6,"rt":2065,"stimulus":"[\"img/0903/776b74ee-a8ab-4ab8-a78d-097c0747538d.jpg\",\"img/0902/27b84584-948a-485b-8749-cb09929ef631.jpg\"]","trial_type":"similarity","trial_index":164,"time_elapsed":706497,"internal_node_id":"0.0-6.0-158.0"},{"sim_score":3,"rt":2099,"stimulus":"[\"img/0860/94ef7afc-e0e6-4a15-98c6-0bfac82bc832.jpg\",\"img/0764/c84fbfa8-521c-407a-9bd3-24f7308d896c.jpg\"]","trial_type":"similarity","trial_index":165,"time_elapsed":709602,"internal_node_id":"0.0-6.0-159.0"},{"sim_score":2,"rt":2148,"stimulus":"[\"img/0902/44cd9b7e-fdfb-4f78-90de-8d4c9d279365.jpg\",\"img/0875/d59ff733-eaff-4ee2-9443-06954dd0bcb6.jpg\"]","trial_type":"similarity","trial_index":166,"time_elapsed":712752,"internal_node_id":"0.0-6.0-160.0"},{"sim_score":4,"rt":1955,"stimulus":"[\"img/0898/8605a25b-6895-476d-8c13-df7a83f96093.jpg\",\"img/0862/064818ee-13d5-4618-bb24-21c7368ea278.jpg\"]","trial_type":"similarity","trial_index":167,"time_elapsed":715712,"internal_node_id":"0.0-6.0-161.0"},{"sim_score":2,"rt":2224,"stimulus":"[\"img/0894/a3d4170b-b7d8-40e3-955f-87e76ed745fc.jpg\",\"img/0875/dbdd643e-6d0e-4a5c-ab57-b9c29b9c981a.jpg\"]","trial_type":"similarity","trial_index":168,"time_elapsed":718940,"internal_node_id":"0.0-6.0-162.0"},{"sim_score":3,"rt":1831,"stimulus":"[\"img/0866/02f5e6b9-52b7-448c-9708-5b460d0c9a23.jpg\",\"img/0864/b3c4e378-28f0-4699-9338-2a257b4bca04.jpg\"]","trial_type":"similarity","trial_index":169,"time_elapsed":721774,"internal_node_id":"0.0-6.0-163.0"},{"sim_score":3,"rt":2932,"stimulus":"[\"img/0766/dd3e18d0-0c98-4d05-b850-69976ee8cd75.jpg\",\"img/0862/ba89835a-408c-480b-8594-ed4ffa97eb5c.jpg\"]","trial_type":"similarity","trial_index":170,"time_elapsed":725712,"internal_node_id":"0.0-6.0-164.0"},{"sim_score":5,"rt":2201,"stimulus":"[\"img/0866/be24ab58-230e-4db8-9f45-ff04c9aec6bb.jpg\",\"img/0874/a3bc679d-619f-4db6-bb68-116dcb757d9c.jpg\"]","trial_type":"similarity","trial_index":171,"time_elapsed":728918,"internal_node_id":"0.0-6.0-165.0"},{"sim_score":5,"rt":2259,"stimulus":"[\"img/0862/e0f1a4e9-e1b6-45f7-af67-89f334e6630d.jpg\",\"img/0860/c5ccd1a4-4bb7-48e1-9b25-72cfaf06909b.jpg\"]","trial_type":"similarity","trial_index":172,"time_elapsed":732180,"internal_node_id":"0.0-6.0-166.0"},{"sim_score":2,"rt":1841,"stimulus":"[\"img/0766/ae0fce93-fe8d-4aa1-87ca-4c3e4b889f2f.jpg\",\"img/0901/fb0a8e69-7f19-4e6e-a6bb-a48f97f9b4f3.jpg\"]","trial_type":"similarity","trial_index":173,"time_elapsed":741777,"internal_node_id":"0.0-6.0-167.0"},{"sim_score":7,"rt":2766,"stimulus":"[\"img/0862/ad593cc7-cabe-4bb7-8e14-8a447a0717b4.jpg\",\"img/0862/847e5208-38ec-4f36-949c-296cdd7424ee.jpg\"]","trial_type":"similarity","trial_index":174,"time_elapsed":745546,"internal_node_id":"0.0-6.0-168.0"},{"sim_score":5,"rt":2111,"stimulus":"[\"img/0894/7f2f31fd-6618-41c6-b65a-0fd8b2851bc9.jpg\",\"img/0764/da207710-e7e4-4f42-b2e6-99b5f357f433.jpg\"]","trial_type":"similarity","trial_index":175,"time_elapsed":748662,"internal_node_id":"0.0-6.0-169.0"},{"sim_score":2,"rt":1901,"stimulus":"[\"img/0874/995f0332-0439-4eb4-add3-957335dbf6d9.jpg\",\"img/0898/40f99fb2-64d2-4e72-8a7f-a1cf60741e69.jpg\"]","trial_type":"similarity","trial_index":176,"time_elapsed":751565,"internal_node_id":"0.0-6.0-170.0"},{"sim_score":3,"rt":3160,"stimulus":"[\"img/0860/c7047cd2-7cc1-41b6-8a34-c0986774975f.jpg\",\"img/0766/d512b99c-a2dc-40d7-8e86-827323a0cbcf.jpg\"]","trial_type":"similarity","trial_index":177,"time_elapsed":755727,"internal_node_id":"0.0-6.0-171.0"},{"sim_score":2,"rt":2935,"stimulus":"[\"img/0898/a114b375-cb89-44ba-9498-74213f1ecdee.jpg\",\"img/0864/300bb811-8b3c-4c42-8653-6097c3725197.jpg\"]","trial_type":"similarity","trial_index":178,"time_elapsed":759665,"internal_node_id":"0.0-6.0-172.0"},{"sim_score":2,"rt":2451,"stimulus":"[\"img/0881/6b1189e6-232d-4042-8885-16dc7b10e0d4.jpg\",\"img/0764/4952d0a0-c9be-471a-8ec7-94a37bf4051d.jpg\"]","trial_type":"similarity","trial_index":179,"time_elapsed":763119,"internal_node_id":"0.0-6.0-173.0"},{"sim_score":2,"rt":2459,"stimulus":"[\"img/0898/4184e5a2-84ea-4f36-9b42-ae58646f6f87.jpg\",\"img/0868/5fa7f9d0-f0e5-454c-8224-74d964818f56.jpg\"]","trial_type":"similarity","trial_index":180,"time_elapsed":766584,"internal_node_id":"0.0-6.0-174.0"},{"sim_score":6,"rt":2057,"stimulus":"[\"img/0864/6f631579-acf1-415c-a42c-1207f62a8d99.jpg\",\"img/0864/da39ad34-04e0-40d4-a724-c08d53e0ea09.jpg\"]","trial_type":"similarity","trial_index":181,"time_elapsed":769644,"internal_node_id":"0.0-6.0-175.0"},{"sim_score":4,"rt":1920,"stimulus":"[\"img/0899/565ccdd9-0933-4536-a625-3c0e25a713dd.jpg\",\"img/0862/e697469a-ec19-4414-b972-7b9f3564785b.jpg\"]","trial_type":"similarity","trial_index":182,"time_elapsed":772569,"internal_node_id":"0.0-6.0-176.0"},{"sim_score":5,"rt":2110,"stimulus":"[\"img/0875/03c3c331-738b-4446-af92-3d7386b08c2e.jpg\",\"img/0758/e38fd80d-18d0-42f3-b848-f930788e8bd7.jpg\"]","trial_type":"similarity","trial_index":183,"time_elapsed":775686,"internal_node_id":"0.0-6.0-177.0"},{"sim_score":3,"rt":2370,"stimulus":"[\"img/0866/0207e9a2-7dbb-40b5-9459-b472aaeceb2a.jpg\",\"img/0901/4f9cffe0-c0be-4d7f-bacd-9d51efd19b4a.jpg\"]","trial_type":"similarity","trial_index":184,"time_elapsed":779060,"internal_node_id":"0.0-6.0-178.0"},{"sim_score":4,"rt":8963,"stimulus":"[\"img/0769/c7cfacc3-7f07-46ff-9f5d-8073f4c4679b.jpg\",\"img/0874/93d1f8dc-acf2-4f03-bd8d-8ec35df276ed.jpg\"]","trial_type":"similarity","trial_index":185,"time_elapsed":789028,"internal_node_id":"0.0-6.0-179.0"},{"sim_score":3,"rt":4598,"stimulus":"[\"img/0875/99698b4d-b4a1-44bc-8c83-8ea755bbbf61.jpg\",\"img/0881/f7a8cc63-8842-40a4-9ff8-fe530310d62c.jpg\"]","trial_type":"similarity","trial_index":186,"time_elapsed":794630,"internal_node_id":"0.0-6.0-180.0"},{"sim_score":6,"rt":1899,"stimulus":"[\"img/0866/d493a2c8-66eb-44b4-be02-2f327b700b7c.jpg\",\"img/0868/e0aff734-077f-40dd-9781-74821abd3621.jpg\"]","trial_type":"similarity","trial_index":187,"time_elapsed":797533,"internal_node_id":"0.0-6.0-181.0"},{"sim_score":4,"rt":2259,"stimulus":"[\"img/0899/1b3457ea-87d4-4946-a01c-aac1863ed46c.jpg\",\"img/0758/20497cbe-ddae-489e-86e2-ab06985ed07c.jpg\"]","trial_type":"similarity","trial_index":188,"time_elapsed":800795,"internal_node_id":"0.0-6.0-182.0"},{"sim_score":4,"rt":3800,"stimulus":"[\"img/0874/29830da7-be5f-44e5-b141-652a0ccf7269.jpg\",\"img/0875/34132396-d896-4c2d-8087-646dd867e769.jpg\"]","trial_type":"similarity","trial_index":189,"time_elapsed":805599,"internal_node_id":"0.0-6.0-183.0"},{"sim_score":3,"rt":2549,"stimulus":"[\"img/0904/6291eb43-c10c-4810-a36a-101d09868b04.jpg\",\"img/0862/fad1d7c1-8187-43c3-942a-0fc12183e48e.jpg\"]","trial_type":"similarity","trial_index":190,"time_elapsed":809154,"internal_node_id":"0.0-6.0-184.0"},{"sim_score":5,"rt":2529,"stimulus":"[\"img/0902/3b243e54-0803-4c29-af42-4037c2118495.jpg\",\"img/0766/f5f78e4e-d88f-4866-951a-118ba9fec4d0.jpg\"]","trial_type":"similarity","trial_index":191,"time_elapsed":812687,"internal_node_id":"0.0-6.0-185.0"},{"sim_score":4,"rt":1908,"stimulus":"[\"img/0758/ddc336e9-a8b6-4bb9-937a-c7e25e0e9250.jpg\",\"img/0769/5bd04f55-d091-4f57-85db-38426f26bd1a.jpg\"]","trial_type":"similarity","trial_index":192,"time_elapsed":815601,"internal_node_id":"0.0-6.0-186.0"},{"sim_score":6,"rt":2627,"stimulus":"[\"img/0881/14236cf2-6b95-48b8-9368-78af09d2d27f.jpg\",\"img/0881/609a5e93-38b5-4940-8627-2bf8fad7f802.jpg\"]","trial_type":"similarity","trial_index":193,"time_elapsed":819234,"internal_node_id":"0.0-6.0-187.0"},{"sim_score":5,"rt":2193,"stimulus":"[\"img/0758/67c0be2f-9e91-48b3-8219-70ac0a1802fa.jpg\",\"img/0866/9b38d691-1802-4959-ab3f-fc902f0e4ea6.jpg\"]","trial_type":"similarity","trial_index":194,"time_elapsed":822430,"internal_node_id":"0.0-6.0-188.0"},{"sim_score":4,"rt":2897,"stimulus":"[\"img/0764/56441045-b648-4ede-9632-3e9c0227080b.jpg\",\"img/0898/0c7dde4f-efce-4b7a-9387-6921635b7890.jpg\"]","trial_type":"similarity","trial_index":195,"time_elapsed":826333,"internal_node_id":"0.0-6.0-189.0"},{"sim_score":4,"rt":2718,"stimulus":"[\"img/0903/71dbc325-b588-4297-a5cf-7f268a722ad9.jpg\",\"img/0901/b13fa50f-dbe0-4d0f-8647-6ac0fd8f40bd.jpg\"]","trial_type":"similarity","trial_index":196,"time_elapsed":830057,"internal_node_id":"0.0-6.0-190.0"},{"sim_score":6,"rt":1954,"stimulus":"[\"img/0902/d49743d6-67ae-4c2e-a939-8fd895a0f18e.jpg\",\"img/0898/e167334e-cc1d-4986-b3b1-c7bc7da64baa.jpg\"]","trial_type":"similarity","trial_index":197,"time_elapsed":833016,"internal_node_id":"0.0-6.0-191.0"},{"sim_score":3,"rt":1829,"stimulus":"[\"img/0864/49150900-7f25-4ce8-8d10-9b47a71d1997.jpg\",\"img/0901/1ede21d9-384f-4150-86b5-e1c57b5dc1d4.jpg\"]","trial_type":"similarity","trial_index":198,"time_elapsed":835851,"internal_node_id":"0.0-6.0-192.0"},{"sim_score":3,"rt":2709,"stimulus":"[\"img/0894/8cadb87a-7001-4e47-99fb-1867bebf1668.jpg\",\"img/0881/48ed65a5-471f-41af-86ec-3793805c116d.jpg\"]","trial_type":"similarity","trial_index":199,"time_elapsed":839563,"internal_node_id":"0.0-6.0-193.0"},{"sim_score":6,"rt":2447,"stimulus":"[\"img/0868/3a62db2d-97e9-44a3-b8e3-a48c6f0e423b.jpg\",\"img/0868/83b4350a-3b70-4cea-b7f5-b5b56f3050a8.jpg\"]","trial_type":"similarity","trial_index":200,"time_elapsed":843017,"internal_node_id":"0.0-6.0-194.0"},{"sim_score":5,"rt":2875,"stimulus":"[\"img/0899/d60714ae-98d7-4564-8c98-94dba1351135.jpg\",\"img/0764/f713847b-4832-42d1-8fb3-e17e37fd745c.jpg\"]","trial_type":"similarity","trial_index":201,"time_elapsed":846899,"internal_node_id":"0.0-6.0-195.0"},{"sim_score":3,"rt":1990,"stimulus":"[\"img/0881/f6bd3b96-dc40-4e99-8681-bc3a35cf896d.jpg\",\"img/0904/a8c3c7d2-9bcf-4347-9e03-8203adfc1fc5.jpg\"]","trial_type":"similarity","trial_index":202,"time_elapsed":849892,"internal_node_id":"0.0-6.0-196.0"},{"sim_score":4,"rt":2673,"stimulus":"[\"img/0864/ea327690-500b-4137-bf91-451b309fe6a5.jpg\",\"img/0902/cdec1bc6-7f90-4f72-9e01-f5a4111bac1d.jpg\"]","trial_type":"similarity","trial_index":203,"time_elapsed":853570,"internal_node_id":"0.0-6.0-197.0"},{"sim_score":5,"rt":3203,"stimulus":"[\"img/0894/b422d5c6-3c5a-49ae-a53e-7e88ac993f49.jpg\",\"img/0904/2f88ce53-02d0-4f95-a082-182c56a0eeb4.jpg\"]","trial_type":"similarity","trial_index":204,"time_elapsed":857777,"internal_node_id":"0.0-6.0-198.0"},{"sim_score":7,"rt":2573,"stimulus":"[\"img/0901/f1116359-1ff1-4638-b3b3-700918d36d18.jpg\",\"img/0901/0f670aef-ac36-496d-8142-ee5fdb21dd82.jpg\"]","trial_type":"similarity","trial_index":205,"time_elapsed":861355,"internal_node_id":"0.0-6.0-199.0"},{"sim_score":3,"rt":1863,"stimulus":"[\"img/0894/5a49e858-2850-4892-9a06-e9f0efb5f94d.jpg\",\"img/0860/b03b963d-949b-4d8d-b19c-4950c89eeca2.jpg\"]","trial_type":"similarity","trial_index":206,"time_elapsed":864224,"internal_node_id":"0.0-6.0-200.0"},{"sim_score":7,"rt":2717,"stimulus":"[\"img/0898/f3a3f225-1248-4ac7-b93b-f0ff28485bf3.jpg\",\"img/0903/14f179a2-8786-48a2-8377-88d1d404341b.jpg\"]","trial_type":"similarity","trial_index":207,"time_elapsed":867948,"internal_node_id":"0.0-6.0-201.0"},{"sim_score":2,"rt":2620,"stimulus":"[\"img/0864/3651d070-2fc5-4848-b6a6-088a2d9ac5c9.jpg\",\"img/0894/86201968-6e78-4d68-9b3a-d1692e066210.jpg\"]","trial_type":"similarity","trial_index":208,"time_elapsed":871570,"internal_node_id":"0.0-6.0-202.0"},{"sim_score":3,"rt":2009,"stimulus":"[\"img/0874/adf9a8f1-c40b-402b-b95b-1e85a54a7b62.jpg\",\"img/0860/4f695df5-afac-4da7-9875-fee39b0b24ad.jpg\"]","trial_type":"similarity","trial_index":209,"time_elapsed":874585,"internal_node_id":"0.0-6.0-203.0"},{"sim_score":1,"rt":2237,"stimulus":"[\"img/0862/f23038d4-c366-4f70-979f-66b62362efa4.jpg\",\"img/0875/42910c99-5463-450a-a0f8-d4d060a11455.jpg\"]","trial_type":"similarity","trial_index":210,"time_elapsed":877825,"internal_node_id":"0.0-6.0-204.0"},{"sim_score":2,"rt":2640,"stimulus":"[\"img/0867/bf560d4f-dee3-4f11-a385-705cc1aa5f3c.jpg\",\"img/0881/b1a136f7-8511-4d3a-a0f6-3879acf1e1a1.jpg\"]","trial_type":"similarity","trial_index":211,"time_elapsed":881470,"internal_node_id":"0.0-6.0-205.0"},{"sim_score":1,"rt":3497,"stimulus":"[\"img/0901/31c032fd-3c3d-4882-a226-da9a80198937.jpg\",\"img/0902/7f1dcd35-237a-4995-9e42-7f63f3f434d4.jpg\"]","trial_type":"similarity","trial_index":212,"time_elapsed":885971,"internal_node_id":"0.0-6.0-206.0"},{"sim_score":4,"rt":1977,"stimulus":"[\"img/0899/06b0fc99-0581-461a-9913-d1a5a941ac61.jpg\",\"img/0864/87c467d3-abca-482f-ad80-3766c21b1bb3.jpg\"]","trial_type":"similarity","trial_index":213,"time_elapsed":888952,"internal_node_id":"0.0-6.0-207.0"},{"sim_score":1,"rt":1749,"stimulus":"[\"img/0901/d61f267a-c492-4db6-9bfb-61efd49cf072.jpg\",\"img/0769/688d0c52-ad73-4065-a5eb-f8c10d076bff.jpg\"]","trial_type":"similarity","trial_index":214,"time_elapsed":891708,"internal_node_id":"0.0-6.0-208.0"},{"sim_score":5,"rt":2441,"stimulus":"[\"img/0902/22ed3536-288b-452e-9777-0fa0ab94deb0.jpg\",\"img/0902/1f4a4c62-68c1-4993-b213-05652a173ed1.jpg\"]","trial_type":"similarity","trial_index":215,"time_elapsed":901057,"internal_node_id":"0.0-6.0-209.0"},{"view_history":"[{\"page_index\":0,\"viewing_time\":5317}]","rt":5318,"trial_type":"instructions","trial_index":216,"time_elapsed":907380,"internal_node_id":"0.0-7.0"},{"rt":5719,"responses":"{\"Q0\":\"Nashville Warbler\"}","answer":["Nashville Warbler"],"trial_type":"image-multi-choice","trial_index":217,"time_elapsed":914108,"internal_node_id":"0.0-8.0-0.0"},{"rt":3629,"responses":"{\"Q0\":\"Black-and-white Warbler\"}","answer":["Black-and-white Warbler"],"trial_type":"image-multi-choice","trial_index":218,"time_elapsed":918742,"internal_node_id":"0.0-8.0-1.0"},{"rt":3065,"responses":"{\"Q0\":\"Townsend's Warbler\"}","answer":["Townsend's Warbler"],"trial_type":"image-multi-choice","trial_index":219,"time_elapsed":922815,"internal_node_id":"0.0-8.0-2.0"},{"rt":3674,"responses":"{\"Q0\":\"Lark Sparrow\"}","answer":["Lark Sparrow"],"trial_type":"image-multi-choice","trial_index":220,"time_elapsed":927495,"internal_node_id":"0.0-8.0-3.0"},{"rt":3300,"responses":"{\"Q0\":\"Yellow Warbler\"}","answer":["Yellow Warbler"],"trial_type":"image-multi-choice","trial_index":221,"time_elapsed":931804,"internal_node_id":"0.0-8.0-4.0"},{"rt":2703,"responses":"{\"Q0\":\"Orange-crowned Warbler\"}","answer":["Orange-crowned Warbler"],"trial_type":"image-multi-choice","trial_index":222,"time_elapsed":935516,"internal_node_id":"0.0-8.0-5.0"},{"rt":2446,"responses":"{\"Q0\":\"White-throated Sparrow\"}","answer":["White-throated Sparrow"],"trial_type":"image-multi-choice","trial_index":223,"time_elapsed":938970,"internal_node_id":"0.0-8.0-6.0"},{"rt":2188,"responses":"{\"Q0\":\"Fox Sparrow\"}","answer":["Fox Sparrow"],"trial_type":"image-multi-choice","trial_index":224,"time_elapsed":942165,"internal_node_id":"0.0-8.0-7.0"},{"rt":2817,"responses":"{\"Q0\":\"Song Sparrow\"}","answer":["Song Sparrow"],"trial_type":"image-multi-choice","trial_index":225,"time_elapsed":945990,"internal_node_id":"0.0-8.0-8.0"},{"rt":3496,"responses":"{\"Q0\":\"Blackburnian Warbler\"}","answer":["Blackburnian Warbler"],"trial_type":"image-multi-choice","trial_index":226,"time_elapsed":950490,"internal_node_id":"0.0-8.0-9.0"},{"rt":2242,"responses":"{\"Q0\":\"Vesper Sparrow\"}","answer":["Vesper Sparrow"],"trial_type":"image-multi-choice","trial_index":227,"time_elapsed":953741,"internal_node_id":"0.0-8.0-10.0"},{"rt":2393,"responses":"{\"Q0\":\"White-crowned Sparrow\"}","answer":["White-crowned Sparrow"],"trial_type":"image-multi-choice","trial_index":228,"time_elapsed":957139,"internal_node_id":"0.0-8.0-11.0"},{"rt":2640,"responses":"{\"Q0\":\"American Tree Sparrow\"}","answer":["American Tree Sparrow"],"trial_type":"image-multi-choice","trial_index":229,"time_elapsed":960784,"internal_node_id":"0.0-8.0-12.0"},{"rt":2469,"responses":"{\"Q0\":\"Tennessee Warbler\"}","answer":["Tennessee Warbler"],"trial_type":"image-multi-choice","trial_index":230,"time_elapsed":964261,"internal_node_id":"0.0-8.0-13.0"},{"rt":7193,"responses":"{\"Q0\":\"Magnolia Warbler\"}","answer":["Magnolia Warbler"],"trial_type":"image-multi-choice","trial_index":231,"time_elapsed":972462,"internal_node_id":"0.0-8.0-14.0"},{"rt":2201,"responses":"{\"Q0\":\"Northern Waterthrush\"}","answer":["Northern Waterthrush"],"trial_type":"image-multi-choice","trial_index":232,"time_elapsed":975668,"internal_node_id":"0.0-8.0-15.0"},{"rt":3538,"responses":"{\"Q0\":\"Chipping Sparrow\"}","answer":["Chipping Sparrow"],"trial_type":"image-multi-choice","trial_index":233,"time_elapsed":980213,"internal_node_id":"0.0-8.0-16.0"},{"rt":3201,"responses":"{\"Q0\":\"Swamp Sparrow\"}","answer":["Swamp Sparrow"],"trial_type":"image-multi-choice","trial_index":234,"time_elapsed":984421,"internal_node_id":"0.0-8.0-17.0"},{"rt":2737,"responses":"{\"Q0\":\"Lincoln's Sparrow\"}","answer":["Lincoln's Sparrow"],"trial_type":"image-multi-choice","trial_index":235,"time_elapsed":988167,"internal_node_id":"0.0-8.0-18.0"},{"rt":2973,"responses":"{\"Q0\":\"Ovenbird\"}","answer":["Ovenbird"],"trial_type":"image-multi-choice","trial_index":236,"time_elapsed":992149,"internal_node_id":"0.0-8.0-19.0"}]