"view_history","rt","trial_type","trial_index","time_elapsed","internal_node_id","sim_score","stimulus","responses","answer"
"[{""page_index"":0,""viewing_time"":29878}]","29883","instructions","0","29885","0.0-0.0","","","",""
"","10015","similarity_demo","1","40941","0.0-1.0","5","[""img/866.jpg"",""img/868.jpg""]","",""
"[{""page_index"":0,""viewing_time"":20625}]","20625","instructions","2","62567","0.0-2.0","","","",""
"","8676","similarity_demo","3","72273","0.0-3.0","2","[""img/766.jpg"",""img/867.jpg""]","",""
"[{""page_index"":0,""viewing_time"":8805}]","8807","instructions","4","82081","0.0-4.0","","","",""
"[{""page_index"":0,""viewing_time"":24266}]","24268","instructions","5","107350","0.0-5.0","","","",""
"","11161","similarity","6","119563","0.0-6.0-0.0","3","[""img/0868/0d3abd3a-b6c3-4584-a9f7-e2da63748b3d.jpg"",""img/0901/3db47171-0139-4235-82cd-0b1787b6775f.jpg""]","",""
"","9067","similarity","7","129668","0.0-6.0-1.0","2","[""img/0769/965c3c44-d9e5-47c5-b61a-2bbdf4215d9a.jpg"",""img/0867/1719a35d-f085-48c0-9099-16c94fe418b4.jpg""]","",""
"","6005","similarity","8","136700","0.0-6.0-2.0","5","[""img/0766/e8052e17-9dae-4139-802b-6e590cb2d526.jpg"",""img/0898/f3a3f225-1248-4ac7-b93b-f0ff28485bf3.jpg""]","",""
"","5945","similarity","9","143673","0.0-6.0-3.0","3","[""img/0902/7499db23-3a41-41ea-ab5b-6ab4d4c3ed35.jpg"",""img/0881/4da99fdd-1f40-4bbb-8e21-8833eef313f5.jpg""]","",""
"","6427","similarity","10","151122","0.0-6.0-4.0","7","[""img/0894/1b3888e6-cf36-4c4a-a039-187aa5cb71ac.jpg"",""img/0894/661b9f9f-4bde-487a-b1ed-87085fde6948.jpg""]","",""
"","6021","similarity","11","158165","0.0-6.0-5.0","5","[""img/0874/29830da7-be5f-44e5-b141-652a0ccf7269.jpg"",""img/0899/7b7380d5-d2be-44e5-a09a-c1756f87ef71.jpg""]","",""
"","5741","similarity","12","164934","0.0-6.0-6.0","7","[""img/0904/9dd5708f-3f8b-46a9-b49f-2f2fab87b357.jpg"",""img/0764/b887d7c6-aa81-4637-af8e-05135757ac59.jpg""]","",""
"","6299","similarity","13","172271","0.0-6.0-7.0","5","[""img/0899/ddf96ade-692e-4602-bd22-dedbb46401bc.jpg"",""img/0898/8605a25b-6895-476d-8c13-df7a83f96093.jpg""]","",""
"","5806","similarity","14","179116","0.0-6.0-8.0","2","[""img/0874/ca76a855-4e77-4f2f-872a-0a718153e7ed.jpg"",""img/0903/6a87dbad-9b8d-4ff5-9c41-03c9aa24f0c3.jpg""]","",""
"","5448","similarity","15","185598","0.0-6.0-9.0","6","[""img/0881/6b1189e6-232d-4042-8885-16dc7b10e0d4.jpg"",""img/0758/335851a0-a55b-46d8-ab05-8463eda48349.jpg""]","",""
"","8489","similarity","16","195112","0.0-6.0-10.0","2","[""img/0898/81b08535-2020-4c15-9ce4-2f1e460755ae.jpg"",""img/0901/4f9cffe0-c0be-4d7f-bacd-9d51efd19b4a.jpg""]","",""
"","6850","similarity","17","202989","0.0-6.0-11.0","1","[""img/0903/31b5a5f4-b695-4af1-bad2-a19650a05498.jpg"",""img/0769/7c50e5f5-cc38-4d48-b009-fbe17bcea61c.jpg""]","",""
"","6592","similarity","18","210601","0.0-6.0-12.0","1","[""img/0764/e30dba15-e68a-4659-89db-e1654b52fe02.jpg"",""img/0868/d6d1f30d-4323-435a-b194-7892521bc57e.jpg""]","",""
"","7664","similarity","19","219286","0.0-6.0-13.0","3","[""img/0867/2e1a0b58-cdb1-4107-a14e-452530d7b9b0.jpg"",""img/0903/45e2d600-57ff-4d69-b22c-0c7896cd38f0.jpg""]","",""
"","6969","similarity","20","227277","0.0-6.0-14.0","1","[""img/0766/db750ba0-ce04-46e1-b601-e1b80212bad2.jpg"",""img/0758/ddc336e9-a8b6-4bb9-937a-c7e25e0e9250.jpg""]","",""
"","6488","similarity","21","234787","0.0-6.0-15.0","5","[""img/0902/3b243e54-0803-4c29-af42-4037c2118495.jpg"",""img/0860/94ef7afc-e0e6-4a15-98c6-0bfac82bc832.jpg""]","",""
"","5464","similarity","22","241319","0.0-6.0-16.0","1","[""img/0769/9ea27d61-3d55-418c-8d14-82e90f656f01.jpg"",""img/0875/2c361b79-c3d1-4eda-812e-bf03192407bf.jpg""]","",""
"","5958","similarity","23","248299","0.0-6.0-17.0","3","[""img/0904/4d7d70a3-9477-4921-bda0-f9531d0a5c5b.jpg"",""img/0866/9b38d691-1802-4959-ab3f-fc902f0e4ea6.jpg""]","",""
"","5049","similarity","24","254369","0.0-6.0-18.0","7","[""img/0875/a4935837-7d3c-4df6-88c1-36a94d4991ca.jpg"",""img/0875/99698b4d-b4a1-44bc-8c83-8ea755bbbf61.jpg""]","",""
"","4515","similarity","25","259906","0.0-6.0-19.0","7","[""img/0758/b76ceca7-95ac-46e4-ac13-da02c8e93be9.jpg"",""img/0758/e1ba5e53-addc-436a-b428-d34fc1b130dc.jpg""]","",""
"","4805","similarity","26","265736","0.0-6.0-20.0","1","[""img/0902/b03fee99-d5ca-4bf8-871c-a4a743a39842.jpg"",""img/0874/a82926a3-0b43-4add-803c-d5f9ea7798ee.jpg""]","",""
"","5076","similarity","27","271835","0.0-6.0-21.0","6","[""img/0764/3297a811-ea8b-4d74-9547-59cecab7293a.jpg"",""img/0769/688d0c52-ad73-4065-a5eb-f8c10d076bff.jpg""]","",""
"","4396","similarity","28","277249","0.0-6.0-22.0","1","[""img/0901/233a6948-48eb-4b67-8259-222b916b2322.jpg"",""img/0874/85eb9b8a-c4c6-4e5a-b8e7-363a87a82054.jpg""]","",""
"","6020","similarity","29","284292","0.0-6.0-23.0","3","[""img/0875/34132396-d896-4c2d-8087-646dd867e769.jpg"",""img/0903/4cbdc464-e562-4ec2-9bb6-15f894fdf528.jpg""]","",""
"","7467","similarity","30","292781","0.0-6.0-24.0","3","[""img/0769/aad494cc-674d-4a08-9bfa-24a88ebe3c79.jpg"",""img/0881/f8bd891e-aa09-4782-89db-33e7cb2b0cf1.jpg""]","",""
"","5726","similarity","31","299530","0.0-6.0-25.0","1","[""img/0867/c71dc569-f49c-4397-8381-68b8d726736d.jpg"",""img/0904/fe746a3f-8458-48d0-8a13-8cba2a9df9f8.jpg""]","",""
"","6052","similarity","32","306599","0.0-6.0-26.0","3","[""img/0860/f44ba3fb-03a2-42f0-8509-2c1ded493086.jpg"",""img/0881/d373cb9f-a719-4549-a2a4-82def79fb2a5.jpg""]","",""
"","5944","similarity","33","313562","0.0-6.0-27.0","6","[""img/0866/0207e9a2-7dbb-40b5-9459-b472aaeceb2a.jpg"",""img/0866/386235d2-6857-41e7-88a8-25cfc3430025.jpg""]","",""
"","4983","similarity","34","319564","0.0-6.0-28.0","1","[""img/0764/a3226bc4-dcc3-4608-bde8-1414d685ce5c.jpg"",""img/0862/92f0146c-20c4-482e-aef5-adb693790338.jpg""]","",""
"","6049","similarity","35","326633","0.0-6.0-29.0","1","[""img/0904/2fd488e9-960f-41f7-8a44-33375f7d5051.jpg"",""img/0758/a085b443-b5d7-4cb2-9ad4-b9dab0fc23f1.jpg""]","",""
"","5478","similarity","36","333133","0.0-6.0-30.0","5","[""img/0894/767a0eec-1064-46b1-b1aa-dfa02b0cd74e.jpg"",""img/0899/0adc0bc3-6fca-4078-be6f-d45ddf1653d5.jpg""]","",""
"","6061","similarity","37","340219","0.0-6.0-31.0","5","[""img/0860/71e1aad0-2cdf-43bb-94a4-a8c016997c30.jpg"",""img/0904/6291eb43-c10c-4810-a36a-101d09868b04.jpg""]","",""
"","5198","similarity","38","346434","0.0-6.0-32.0","6","[""img/0874/c0378dac-9370-439a-8b79-db27c96fb390.jpg"",""img/0881/54ea8e77-c7e5-4197-b7fa-00b7020849a7.jpg""]","",""
"","4505","similarity","39","351958","0.0-6.0-33.0","5","[""img/0881/48ed65a5-471f-41af-86ec-3793805c116d.jpg"",""img/0899/06b0fc99-0581-461a-9913-d1a5a941ac61.jpg""]","",""
"","5820","similarity","40","358797","0.0-6.0-34.0","6","[""img/0866/4a87911a-d5be-4d4e-ab8e-3d1f581bf507.jpg"",""img/0862/ba89835a-408c-480b-8594-ed4ffa97eb5c.jpg""]","",""
"","5651","similarity","41","365464","0.0-6.0-35.0","3","[""img/0868/8b0b8473-e2c0-4331-aa56-c3a5c29369da.jpg"",""img/0894/bd34223a-2f66-4e16-9d18-193a746b69ff.jpg""]","",""
"","4485","similarity","42","370973","0.0-6.0-36.0","7","[""img/0860/fd4662f9-4c03-4d79-8593-06735e55a64b.jpg"",""img/0860/5bff793e-cbd5-4d7e-b628-0ac2b0e30b64.jpg""]","",""
"","5061","similarity","43","377049","0.0-6.0-37.0","3","[""img/0862/f188d4f0-76a4-4102-818c-a209969d73a5.jpg"",""img/0864/5f33e097-23e3-4002-882d-76e8cb15f451.jpg""]","",""
"","4608","similarity","44","382672","0.0-6.0-38.0","1","[""img/0766/69e486f7-dbef-456b-9d48-53d814248a28.jpg"",""img/0866/07c9c966-3c8d-40e7-8128-92b2acbaed5d.jpg""]","",""
"","4183","similarity","45","387870","0.0-6.0-39.0","1","[""img/0875/5a716432-c6ca-4b1c-955a-2b8ac25198ee.jpg"",""img/0898/993d8f2d-bef7-4251-a193-0f93a32b7763.jpg""]","",""
"","5478","similarity","46","394366","0.0-6.0-40.0","6","[""img/0766/a0270213-fa0e-4972-8b56-228c3e01ff90.jpg"",""img/0769/a3cfbdeb-acb3-4eac-87fb-4b117f42d4f8.jpg""]","",""
"","8602","similarity","47","418316","0.0-6.0-41.0","3","[""img/0874/8cdb1c07-1c32-46d2-981c-3636560fa6e5.jpg"",""img/0764/06ea144f-f4f3-4a14-ba47-f20f35c561e0.jpg""]","",""
"","8603","similarity","48","427942","0.0-6.0-42.0","2","[""img/0868/e0aff734-077f-40dd-9781-74821abd3621.jpg"",""img/0902/01b41522-de46-4c3a-b0af-a61b2682b40e.jpg""]","",""
"","7343","similarity","49","436310","0.0-6.0-43.0","1","[""img/0875/dbdd643e-6d0e-4a5c-ab57-b9c29b9c981a.jpg"",""img/0899/0433d056-aa30-4f8a-9aa1-abbb951e4edd.jpg""]","",""
"","6933","similarity","50","444281","0.0-6.0-44.0","5","[""img/0866/11a1d141-be5e-443c-98c1-a9d4d9e3dec0.jpg"",""img/0860/9593362c-9fe5-4d12-9735-6000a11f6aa5.jpg""]","",""
"","5242","similarity","51","450549","0.0-6.0-45.0","6","[""img/0766/5d6e0d1d-4369-41f0-a64c-91f3503055c7.jpg"",""img/0903/14f179a2-8786-48a2-8377-88d1d404341b.jpg""]","",""
"","6065","similarity","52","457635","0.0-6.0-46.0","1","[""img/0901/b453df0b-4c39-49bb-8ced-6127efffa898.jpg"",""img/0904/0d17b811-063e-416e-a23c-3b3cfa4fcce5.jpg""]","",""
"","4536","similarity","53","463195","0.0-6.0-47.0","5","[""img/0758/d540bee6-b460-4c32-ac57-bc282742d7d4.jpg"",""img/0902/8af4182a-9af9-4212-a436-9195555112d6.jpg""]","",""
"","4678","similarity","54","468893","0.0-6.0-48.0","7","[""img/0764/e0788029-9d7f-414c-b747-46d2a99f7c86.jpg"",""img/0764/ca9829fe-aaf8-45b8-b98a-6bae751c63dd.jpg""]","",""
"","5623","similarity","55","475539","0.0-6.0-49.0","1","[""img/0866/d493a2c8-66eb-44b4-be02-2f327b700b7c.jpg"",""img/0902/b56db912-c3c0-4fc2-b325-d640acd7cb58.jpg""]","",""
"","8795","similarity","56","485356","0.0-6.0-50.0","4","[""img/0764/d0bef2e0-e16b-4c82-9451-c1d16265eb67.jpg"",""img/0758/3ddd05d3-557e-4ee7-8b78-9d2d681d8ae2.jpg""]","",""
"","5907","similarity","57","492285","0.0-6.0-51.0","6","[""img/0898/c3cecf20-f7fd-45fa-97d0-dc0a63e8d6c0.jpg"",""img/0894/6b2e9509-8699-42b7-9582-7741df0ba2d7.jpg""]","",""
"","4629","similarity","58","497955","0.0-6.0-52.0","6","[""img/0875/5a1e5100-0d94-4fec-bbe9-ca9894d2cf8e.jpg"",""img/0866/620cd1aa-0800-4414-8f6e-90342e7a99ad.jpg""]","",""
"","4478","similarity","59","503469","0.0-6.0-53.0","7","[""img/0904/9b3568cc-3cf7-42be-9df3-fdafde7a58b8.jpg"",""img/0904/2c98dc56-88d1-4fb5-a999-b6a7861f65f0.jpg""]","",""
"","5779","similarity","60","510272","0.0-6.0-54.0","6","[""img/0769/da36e3f7-2337-434f-ab57-11822dd7eed7.jpg"",""img/0769/458d9c77-b844-40b5-bb1b-1e3bbd4da64e.jpg""]","",""
"","4229","similarity","61","515524","0.0-6.0-55.0","3","[""img/0898/01bfe666-3510-4fc7-964f-d00d28732dc8.jpg"",""img/0758/20497cbe-ddae-489e-86e2-ab06985ed07c.jpg""]","",""
"","4717","similarity","62","521266","0.0-6.0-56.0","5","[""img/0769/76eaa4a3-dfe9-4dc1-9efb-caebe86264e1.jpg"",""img/0902/d3e55000-c839-4bf9-9b9b-4af0a9925af1.jpg""]","",""
"","4999","similarity","63","527285","0.0-6.0-57.0","6","[""img/0864/1ebbc554-99fa-49f9-8799-317375a79820.jpg"",""img/0881/344de456-b358-4887-bd0e-e4c3278af887.jpg""]","",""
"","4554","similarity","64","532861","0.0-6.0-58.0","2","[""img/0758/9fb5b2fe-3f00-4fe6-973c-1ce10d5f4cd5.jpg"",""img/0868/15dd6fd7-791e-4b53-b203-195d617521a4.jpg""]","",""
"","5078","similarity","65","538959","0.0-6.0-59.0","5","[""img/0862/ee3b7bff-4a70-4e84-9bea-4a565e456acb.jpg"",""img/0769/d1be2815-fa79-46e8-b5c3-7d81caaca490.jpg""]","",""
"","10059","similarity","66","550038","0.0-6.0-60.0","3","[""img/0764/03c07b98-3f18-4b71-bb70-ecff564a78d1.jpg"",""img/0903/71dbc325-b588-4297-a5cf-7f268a722ad9.jpg""]","",""
"","4360","similarity","67","555423","0.0-6.0-61.0","7","[""img/0899/4f7bc593-8ddd-4da3-a0b9-84da730d3370.jpg"",""img/0899/fd9efb43-701f-4cd6-baaa-4c38315f4bdc.jpg""]","",""
"","5165","similarity","68","561611","0.0-6.0-62.0","5","[""img/0860/b03b963d-949b-4d8d-b19c-4950c89eeca2.jpg"",""img/0875/2e13d160-eea1-416b-aff1-d37ab99ecc1d.jpg""]","",""
"","3794","similarity","69","566441","0.0-6.0-63.0","1","[""img/0868/7b212364-ff5f-4e28-9241-7eb6ea00161b.jpg"",""img/0874/eba003b4-cdab-4eee-8bc3-f064c7d94165.jpg""]","",""
"","4246","similarity","70","571719","0.0-6.0-64.0","6","[""img/0758/dd559618-7f09-4a07-8018-d311c4a5ea29.jpg"",""img/0862/847e5208-38ec-4f36-949c-296cdd7424ee.jpg""]","",""
"","4490","similarity","71","577233","0.0-6.0-65.0","7","[""img/0904/60d1a521-edf7-4696-9263-f21ac0e62a01.jpg"",""img/0898/661621d4-a14e-487c-8c74-354134a29710.jpg""]","",""
"","4815","similarity","72","583073","0.0-6.0-66.0","2","[""img/0881/ee44e27f-d662-4608-b265-e7ffa19b216f.jpg"",""img/0866/02f5e6b9-52b7-448c-9708-5b460d0c9a23.jpg""]","",""
"","3952","similarity","73","588048","0.0-6.0-67.0","1","[""img/0867/c66898ba-b71b-4d50-84f9-f7f84853a98d.jpg"",""img/0898/08c72dac-f8ad-407a-9ce6-8c9a5d679c3a.jpg""]","",""
"","5033","similarity","74","594100","0.0-6.0-68.0","6","[""img/0902/27b84584-948a-485b-8749-cb09929ef631.jpg"",""img/0764/6fbd1902-fa2a-48d8-bc11-705b8ab68d8f.jpg""]","",""
"","5330","similarity","75","600454","0.0-6.0-69.0","7","[""img/0875/90da8d75-108a-44ad-b999-e21fee3860d3.jpg"",""img/0867/7d1c497b-c1b3-4ed8-abb5-d7f73306015f.jpg""]","",""
"","6092","similarity","76","607566","0.0-6.0-70.0","7","[""img/0766/f3276cc4-65de-4c2d-88d5-6cfebce14b8f.jpg"",""img/0764/4bec8d92-75aa-475a-954d-8215dbe538f5.jpg""]","",""
"","4603","similarity","77","613190","0.0-6.0-71.0","1","[""img/0894/2217bdcd-23a7-42d3-823b-23f2488d7e87.jpg"",""img/0867/12264664-1860-46df-8c21-162b9817cdda.jpg""]","",""
"","3806","similarity","78","618030","0.0-6.0-72.0","1","[""img/0875/f87b67d7-c33e-40d1-b281-248c4be1cb6e.jpg"",""img/0764/c80b3e06-2ee3-4326-9678-340607eb5348.jpg""]","",""
"","4524","similarity","79","623573","0.0-6.0-73.0","7","[""img/0867/5e07b34d-b40f-4b1c-ac10-49975bace45f.jpg"",""img/0866/a04d37f0-99dd-478a-b6c6-58b215138f84.jpg""]","",""
"","5065","similarity","80","629668","0.0-6.0-74.0","2","[""img/0903/3e9ee8a5-eb66-47f5-8973-8a5af1ddc87e.jpg"",""img/0758/e38fd80d-18d0-42f3-b848-f930788e8bd7.jpg""]","",""
"","4411","similarity","81","635114","0.0-6.0-75.0","3","[""img/0766/b84598d0-5b41-4841-88b0-b441b48289f5.jpg"",""img/0868/4a8a45ed-2c4f-421b-9564-409a33ecd26c.jpg""]","",""
"","4061","similarity","82","640206","0.0-6.0-76.0","5","[""img/0874/995f0332-0439-4eb4-add3-957335dbf6d9.jpg"",""img/0766/3c526a07-9e0a-4ae2-8142-00085f0127da.jpg""]","",""
"","2761","similarity","83","643992","0.0-6.0-77.0","1","[""img/0881/20af39f5-373d-4a55-a437-2dc4c0382c46.jpg"",""img/0868/3a62db2d-97e9-44a3-b8e3-a48c6f0e423b.jpg""]","",""
"","3059","similarity","84","648075","0.0-6.0-78.0","1","[""img/0758/7ffbc76b-1fc1-432c-8f7e-9ec8d1b3f643.jpg"",""img/0901/33b51a81-06d9-46d9-9d4f-5a2d6d6b8058.jpg""]","",""
"","6600","similarity","85","655701","0.0-6.0-79.0","5","[""img/0881/f62bdcd1-a4b7-4d48-83da-d9c9e01c8727.jpg"",""img/0898/b2732712-71c2-45d8-834f-2b2ed5504910.jpg""]","",""
"","3886","similarity","86","660606","0.0-6.0-80.0","3","[""img/0867/a498eef3-9fa4-4ab2-9778-4ae82ac40dc5.jpg"",""img/0758/65d426d6-3ff6-415d-8654-a43b83ecc4fe.jpg""]","",""
"","3757","similarity","87","665384","0.0-6.0-81.0","6","[""img/0769/3adfa417-3b90-4aab-b437-5eaa474189cb.jpg"",""img/0899/565ccdd9-0933-4536-a625-3c0e25a713dd.jpg""]","",""
"","3918","similarity","88","670325","0.0-6.0-82.0","7","[""img/0903/70d764d9-1f35-4da7-a35d-4cc39834d270.jpg"",""img/0903/365f176c-25a4-4973-bd3c-279bf1b39476.jpg""]","",""
"","6409","similarity","89","683765","0.0-6.0-83.0","5","[""img/0867/f8159067-056c-41f1-a136-c529fe5e970a.jpg"",""img/0766/00891401-e4c9-4ce1-bc19-f70740d174bc.jpg""]","",""
"","4024","similarity","90","688807","0.0-6.0-84.0","2","[""img/0902/c018bd7a-d91a-4192-aea4-7259cfcdb6c4.jpg"",""img/0867/85a96c62-548f-4994-9553-819e03c3135a.jpg""]","",""
"","6736","similarity","91","696568","0.0-6.0-85.0","3","[""img/0901/875dedb9-24c9-4443-9f8c-85e97d70ee5a.jpg"",""img/0875/8521fd58-3b1e-4dc5-97ae-804edfa6734a.jpg""]","",""
"","3976","similarity","92","701580","0.0-6.0-86.0","1","[""img/0764/c643e165-df19-459f-8c2b-8357bf432a17.jpg"",""img/0866/945c6710-d15b-4a5b-a8f6-69af0850357f.jpg""]","",""
"","4567","similarity","93","707178","0.0-6.0-87.0","5","[""img/0901/58ec7fa9-b466-4651-90aa-c082df0972de.jpg"",""img/0894/5ff3c4f6-52e2-4075-8679-be0312e59703.jpg""]","",""
"","7483","similarity","94","715685","0.0-6.0-88.0","6","[""img/0898/cd3aaa3f-efa9-4ab3-8d6f-a6a9273ddf42.jpg"",""img/0769/11518cb3-13ea-4dd0-890c-30cfab728ade.jpg""]","",""
"","4951","similarity","95","721664","0.0-6.0-89.0","7","[""img/0769/1d8734c4-77ab-4165-9e71-5cfe672ff01c.jpg"",""img/0894/5a49e858-2850-4892-9a06-e9f0efb5f94d.jpg""]","",""
"","5281","similarity","96","727966","0.0-6.0-90.0","6","[""img/0862/47ed5efd-4ec9-4b74-bb4e-a5f5cf0c3e7d.jpg"",""img/0874/767f289c-9814-4496-803f-745cc8913d1f.jpg""]","",""
"","8511","similarity","97","737497","0.0-6.0-91.0","5","[""img/0894/38cf335f-f76f-4349-8d65-e20cd6859565.jpg"",""img/0766/a754e4b6-5019-4cf4-8f58-34c20547a1f5.jpg""]","",""
"","4043","similarity","98","742562","0.0-6.0-92.0","2","[""img/0874/93d1f8dc-acf2-4f03-bd8d-8ec35df276ed.jpg"",""img/0867/ac1797e4-8afc-48fe-b252-86d1defb1cca.jpg""]","",""
"","3680","similarity","99","747261","0.0-6.0-93.0","1","[""img/0899/d60714ae-98d7-4564-8c98-94dba1351135.jpg"",""img/0868/6a28c3b0-3d76-498a-9fb7-ddafc665eca8.jpg""]","",""
"","4191","similarity","100","752510","0.0-6.0-94.0","5","[""img/0903/0a92ec52-4e87-410a-857a-4455cde56a70.jpg"",""img/0862/eefa5588-9efd-4591-aa5f-a2e17c7d7bcc.jpg""]","",""
"","3413","similarity","101","756944","0.0-6.0-95.0","6","[""img/0899/f95cbdb4-f804-4f5d-ad76-373ad343e658.jpg"",""img/0766/71b81ebd-0937-4d7f-b8bf-c4e46a4728fd.jpg""]","",""
"","5066","similarity","102","763034","0.0-6.0-96.0","7","[""img/0867/075e0f95-856b-4cbb-acf5-092393aaf04e.jpg"",""img/0868/179a5502-ab5c-478e-8263-5a1fbcc101d2.jpg""]","",""
"","4488","similarity","103","768558","0.0-6.0-97.0","6","[""img/0862/f43ceabf-acc1-4107-b857-5d1849808f93.jpg"",""img/0901/a6776381-91fe-43f8-ab73-261d318f95fd.jpg""]","",""
"","3483","similarity","104","773073","0.0-6.0-98.0","2","[""img/0875/527ced51-8e53-4aab-ab05-86df219104c0.jpg"",""img/0766/2746b119-4bba-463e-acf0-88136dc6600c.jpg""]","",""
"","3058","similarity","105","777156","0.0-6.0-99.0","7","[""img/0758/eabcd7a8-56ad-4fd2-bc24-90f6b7b33265.jpg"",""img/0874/a3bc679d-619f-4db6-bb68-116dcb757d9c.jpg""]","",""
"","5239","similarity","106","783418","0.0-6.0-100.0","3","[""img/0904/25365108-e038-4021-aac9-797f2063b337.jpg"",""img/0868/c8ac40c7-6904-4e13-8d61-c75d3052dc4e.jpg""]","",""
"","5193","similarity","107","789634","0.0-6.0-101.0","3","[""img/0903/12bd8657-92e6-4c36-a06c-597e7a1d51f3.jpg"",""img/0866/bf14b5bd-fb55-47db-86b9-4f8aeb9a6dad.jpg""]","",""
"","3871","similarity","108","794525","0.0-6.0-102.0","2","[""img/0868/5fa7f9d0-f0e5-454c-8224-74d964818f56.jpg"",""img/0769/057eb0a0-aa5b-40c7-9852-21444f68d767.jpg""]","",""
"","3573","similarity","109","799120","0.0-6.0-103.0","5","[""img/0902/2a7ac123-414a-476a-9a96-4757b924baef.jpg"",""img/0899/51a7a498-98c7-42d7-bca8-bc2d8f0b5831.jpg""]","",""
"","4993","similarity","110","805136","0.0-6.0-104.0","1","[""img/0868/fd307a36-9a3a-47d7-ab7c-f810d0b35040.jpg"",""img/0862/00c06b00-3b73-44e9-bc1e-c5aafb438321.jpg""]","",""
"","3804","similarity","111","809957","0.0-6.0-105.0","6","[""img/0903/2a9c8033-3e70-47fa-816d-97ee1813a3a3.jpg"",""img/0894/b422d5c6-3c5a-49ae-a53e-7e88ac993f49.jpg""]","",""
"","6376","similarity","112","817364","0.0-6.0-106.0","7","[""img/0864/da39ad34-04e0-40d4-a724-c08d53e0ea09.jpg"",""img/0874/adf9a8f1-c40b-402b-b95b-1e85a54a7b62.jpg""]","",""
"","5760","similarity","113","824144","0.0-6.0-107.0","6","[""img/0862/5d887e9f-89e2-4ebc-80a0-6d46fe6480db.jpg"",""img/0902/12452bb1-b8c0-4e4d-ad4d-47e279e5933c.jpg""]","",""
"","3381","similarity","114","828553","0.0-6.0-108.0","7","[""img/0904/24fc38fe-842c-4831-ad8a-b1de5c25c0a8.jpg"",""img/0903/59defeb8-98bd-4570-a2f8-9bd189e68ef4.jpg""]","",""
"","7326","similarity","115","836913","0.0-6.0-109.0","5","[""img/0764/cbdc4f20-3a9a-4211-9b40-090699e0abcc.jpg"",""img/0864/3d4de670-b290-4285-9c3d-12a0e3af44e9.jpg""]","",""
"","4727","similarity","116","842671","0.0-6.0-110.0","4","[""img/0866/a15b02be-11bb-43e3-b0e0-ecc3bd7dfc49.jpg"",""img/0894/86201968-6e78-4d68-9b3a-d1692e066210.jpg""]","",""
"","3218","similarity","117","846882","0.0-6.0-111.0","6","[""img/0899/5b56dd3e-3f49-47cc-af84-16da6457753b.jpg"",""img/0903/36e4ab1f-caa9-40b3-8616-faada076df94.jpg""]","",""
"","3392","similarity","118","851298","0.0-6.0-112.0","7","[""img/0902/c9c74d2d-9b82-42d7-a9d0-3b8ff67ff81e.jpg"",""img/0904/4e58005d-a2ec-4aaa-b199-445343561396.jpg""]","",""
"","4223","similarity","119","856541","0.0-6.0-113.0","5","[""img/0864/c3b63e8f-ea39-4d70-a1f2-b3fe4be8eb75.jpg"",""img/0860/8fdba999-b946-4c7d-9891-336018b563ef.jpg""]","",""
"","3639","similarity","120","861203","0.0-6.0-114.0","3","[""img/0860/4f695df5-afac-4da7-9875-fee39b0b24ad.jpg"",""img/0899/93494f3b-d539-4075-b027-d82e344563da.jpg""]","",""
"","3343","similarity","121","865567","0.0-6.0-115.0","2","[""img/0881/445edb15-bd7f-4af3-8bd5-c6ad9677bb31.jpg"",""img/0903/9b60ef5b-234f-4239-892b-3d4c412accc2.jpg""]","",""
"","4853","similarity","122","871438","0.0-6.0-116.0","3","[""img/0894/5f15154e-e72e-4ce5-aafb-bce6f0564006.jpg"",""img/0874/3ce41e7c-40c8-4d58-a546-171114521796.jpg""]","",""
"","6256","similarity","123","878751","0.0-6.0-117.0","3","[""img/0881/adc02f34-ce97-4aef-850f-00519df06fd7.jpg"",""img/0862/d0ca4c78-fc35-46ed-bdcc-8e124283c53e.jpg""]","",""
"","5114","similarity","124","884892","0.0-6.0-118.0","5","[""img/0868/293079b8-7e0c-4afd-a390-1e5d35fe3ded.jpg"",""img/0875/fb732ab5-013a-4366-9f65-27811ed157e9.jpg""]","",""
"","5801","similarity","125","891713","0.0-6.0-119.0","1","[""img/0860/702bd09d-df3a-40aa-a267-5f04474305b5.jpg"",""img/0758/7ee8bc8f-c40b-4b3a-84ec-3e83580622d4.jpg""]","",""
"","3520","similarity","126","896259","0.0-6.0-120.0","2","[""img/0864/300bb811-8b3c-4c42-8653-6097c3725197.jpg"",""img/0875/03c3c331-738b-4446-af92-3d7386b08c2e.jpg""]","",""
"","3725","similarity","127","901021","0.0-6.0-121.0","1","[""img/0898/4184e5a2-84ea-4f36-9b42-ae58646f6f87.jpg"",""img/0866/6f2a90d7-14f1-4f1b-bd64-fc0af6b9fe44.jpg""]","",""
"","4635","similarity","128","906690","0.0-6.0-122.0","5","[""img/0874/ca23d307-fc00-4d7d-9106-584c6eb21b4d.jpg"",""img/0904/4b8daf2a-13a9-4ea9-9e0b-b265b6e933e7.jpg""]","",""
"","6177","similarity","129","913892","0.0-6.0-123.0","2","[""img/0904/d23dd7be-7fe8-4435-82f7-bd592c01e6a1.jpg"",""img/0864/1d15626a-2f7c-410f-819c-0fa2c967e95e.jpg""]","",""
"","4384","similarity","130","919298","0.0-6.0-124.0","5","[""img/0894/76c1201f-8524-4865-85e6-dda8cb4ac986.jpg"",""img/0902/07437a16-3d0f-4a5c-89ec-36d0efa4b3b8.jpg""]","",""
"","8663","similarity","131","933573","0.0-6.0-125.0","3","[""img/0868/83b4350a-3b70-4cea-b7f5-b5b56f3050a8.jpg"",""img/0864/6f631579-acf1-415c-a42c-1207f62a8d99.jpg""]","",""
"","3920","similarity","132","938520","0.0-6.0-126.0","3","[""img/0899/ad8268c5-8199-48d0-ad70-c5b6d6c599ec.jpg"",""img/0866/d266fece-59b3-46fa-b69f-96f6efb81b59.jpg""]","",""
"","3248","similarity","133","942790","0.0-6.0-127.0","1","[""img/0875/3ecb367d-e9eb-4826-8aaa-7aa72fb98019.jpg"",""img/0904/65e2b70a-b184-4da3-b5c0-5038bdf9469a.jpg""]","",""
"","3724","similarity","134","947531","0.0-6.0-128.0","2","[""img/0867/f8488a47-94ee-4166-952c-44e16cf172f6.jpg"",""img/0899/8de08897-b430-42fe-9d42-840670b80f94.jpg""]","",""
"","3367","similarity","135","951921","0.0-6.0-129.0","2","[""img/0901/ae1e6ce4-2e10-4ca9-b1e7-21628637ab74.jpg"",""img/0867/8ba0c5a7-c7e4-42cf-a80a-543763b90779.jpg""]","",""
"","4683","similarity","136","957634","0.0-6.0-130.0","5","[""img/0864/b3c4e378-28f0-4699-9338-2a257b4bca04.jpg"",""img/0769/0fe124d3-bcad-45f6-b64d-8f6eb8ee5251.jpg""]","",""
"","5788","similarity","137","964446","0.0-6.0-131.0","1","[""img/0903/b4a0f61e-a964-4b79-a9a7-f767a8f92f34.jpg"",""img/0868/1a62b2b2-18f5-466e-b564-5176a57c565e.jpg""]","",""
"","5015","similarity","138","970499","0.0-6.0-132.0","1","[""img/0864/f92649a2-0590-4d31-9a7a-1bfb81666a2d.jpg"",""img/0867/f26f6b60-f772-4f4c-95a4-addc62cfd692.jpg""]","",""
"","3754","similarity","139","975284","0.0-6.0-133.0","5","[""img/0901/08d6d1d1-c043-43c4-bb08-d45e062822b9.jpg"",""img/0860/87039971-2210-4aab-93c0-8e9b5f1655b2.jpg""]","",""
"","4110","similarity","140","980418","0.0-6.0-134.0","6","[""img/0881/e6746727-7f89-47ec-b939-d98abe78372d.jpg"",""img/0766/717fd72f-a281-499b-a5ba-5e2ecc4d4866.jpg""]","",""
"","4783","similarity","141","986223","0.0-6.0-135.0","5","[""img/0903/8635cf25-2648-4fe9-8c42-79d2598e999c.jpg"",""img/0864/5f74a653-3bdc-4308-8cca-ac667dc22e1f.jpg""]","",""
"","3065","similarity","142","990311","0.0-6.0-136.0","2","[""img/0758/7fba58df-2a7a-4b76-8a8f-62739f97f271.jpg"",""img/0894/792c83e9-a747-4000-bc72-5663d2439edb.jpg""]","",""
"","9391","similarity","143","1000721","0.0-6.0-137.0","2","[""img/0769/96556ef3-7fac-4c9d-8281-1cb0ea5081bc.jpg"",""img/0860/e8b8c51e-1834-4875-8b61-6c5bc9b178bd.jpg""]","",""
"","4010","similarity","144","1005756","0.0-6.0-138.0","6","[""img/0904/2f88ce53-02d0-4f95-a082-182c56a0eeb4.jpg"",""img/0766/60033a74-9919-47e5-913c-71d0d483e7e5.jpg""]","",""
"","4176","similarity","145","1010951","0.0-6.0-139.0","3","[""img/0868/4bd5105a-d2c3-4f82-8c80-57196106ba53.jpg"",""img/0860/c5ccd1a4-4bb7-48e1-9b25-72cfaf06909b.jpg""]","",""
"","10703","similarity","146","1022705","0.0-6.0-140.0","7","[""img/0758/61d64021-9214-4951-bdf8-f871f9827cf9.jpg"",""img/0864/0f537697-a314-47c3-a8cc-8df23b7e536c.jpg""]","",""
"","4105","similarity","147","1027836","0.0-6.0-141.0","7","[""img/0867/50a1b60e-3a29-44bf-b606-d4bd3746fea9.jpg"",""img/0867/bf560d4f-dee3-4f11-a385-705cc1aa5f3c.jpg""]","",""
"","3621","similarity","148","1032493","0.0-6.0-142.0","6","[""img/0898/82231d4c-218b-4d0a-b50d-35a49b524e97.jpg"",""img/0898/a114b375-cb89-44ba-9498-74213f1ecdee.jpg""]","",""
"","5431","similarity","149","1038955","0.0-6.0-143.0","1","[""img/0866/c446214b-a368-4c65-ae39-ea46894256ab.jpg"",""img/0769/5bd04f55-d091-4f57-85db-38426f26bd1a.jpg""]","",""
"","5495","similarity","150","1045481","0.0-6.0-144.0","3","[""img/0860/d9a0d117-6d1d-41c0-8fec-9aff0fd9e9f2.jpg"",""img/0898/6cd3830b-d44e-4915-be2b-88d31424b91c.jpg""]","",""
"","4218","similarity","151","1050724","0.0-6.0-145.0","2","[""img/0766/0bf3793e-c353-45e5-ac6f-753f5f484e10.jpg"",""img/0864/87c467d3-abca-482f-ad80-3766c21b1bb3.jpg""]","",""
"","4057","similarity","152","1055804","0.0-6.0-146.0","5","[""img/0860/29a21a9f-54bb-4093-ad3f-04823ceaa89f.jpg"",""img/0903/a0673b55-6040-47fe-9040-24bca27ca3c9.jpg""]","",""
"","5657","similarity","153","1062486","0.0-6.0-147.0","1","[""img/0867/de92135f-5b65-4ed9-b245-188292c7c2f8.jpg"",""img/0764/958b8576-3a3b-4acc-96dc-06b74de69f37.jpg""]","",""
"","5101","similarity","154","1068615","0.0-6.0-148.0","7","[""img/0769/4a1d0b52-3fe8-40fb-bb1c-c814fe49a68c.jpg"",""img/0904/ba8e689e-9ca6-4608-a2a1-3b0940666ae6.jpg""]","",""
"","5944","similarity","155","1075591","0.0-6.0-149.0","5","[""img/0764/a86eed5b-d0af-4c3f-8c7a-26e98e98cf1a.jpg"",""img/0901/b13fa50f-dbe0-4d0f-8647-6ac0fd8f40bd.jpg""]","",""
"","3689","similarity","156","1080304","0.0-6.0-150.0","6","[""img/0904/b5855d6a-7ef9-46ca-9215-6e9fa046e543.jpg"",""img/0899/76ad07e2-ca25-45eb-84f2-8d80b8ca3e26.jpg""]","",""
"","4420","similarity","157","1085748","0.0-6.0-151.0","1","[""img/0862/064818ee-13d5-4618-bb24-21c7368ea278.jpg"",""img/0867/26611f4e-d694-4460-b7e2-43c62753ddc3.jpg""]","",""
"","2806","similarity","158","1089576","0.0-6.0-152.0","7","[""img/0766/6d32752d-aa05-40dc-9541-640b6e9d6fa1.jpg"",""img/0766/ba35c0fc-4d5b-490d-959e-c94b279cdd02.jpg""]","",""
"","6598","similarity","159","1097198","0.0-6.0-153.0","2","[""img/0862/24cdc752-c2e5-4a17-86a6-6f2045d8553b.jpg"",""img/0894/9b1333fd-3561-43bf-aee5-99b7b7ca3dc3.jpg""]","",""
"","5449","similarity","160","1103678","0.0-6.0-154.0","5","[""img/0899/fef567a2-c121-4481-9af0-ff108d199bbf.jpg"",""img/0901/50e1d53e-a49f-4806-8610-be6dec5a2475.jpg""]","",""
"","4764","similarity","161","1109474","0.0-6.0-155.0","7","[""img/0874/99f6563c-8a8d-4c1c-a41d-667b618c3fd5.jpg"",""img/0874/2c9464dd-8a23-4baa-ac94-1ba3af5c15cc.jpg""]","",""
"","3759","similarity","162","1114264","0.0-6.0-156.0","1","[""img/0860/99c589b9-9140-4d17-90c0-b344323edcda.jpg"",""img/0867/6e19c858-b606-45b2-a4c6-910a73f1d82c.jpg""]","",""
"","5323","similarity","163","1120612","0.0-6.0-157.0","1","[""img/0901/7d4a3388-488d-4e9b-9d32-9d0def7aae8d.jpg"",""img/0881/1407b85b-a1c6-45b1-9884-3b24203efadb.jpg""]","",""
"","3966","similarity","164","1125607","0.0-6.0-158.0","6","[""img/0903/f67c4ab9-f8c2-4fcd-848a-a54a7b031002.jpg"",""img/0902/b03129ba-b087-4558-af37-e8399d6217d6.jpg""]","",""
"","7301","similarity","165","1133930","0.0-6.0-159.0","2","[""img/0860/4c530c3c-6aab-492a-94d1-9c01797bde40.jpg"",""img/0764/0e7ed062-f798-4366-8a24-6f430926f919.jpg""]","",""
"","3025","similarity","166","1137974","0.0-6.0-160.0","3","[""img/0902/aa6fca32-82b0-4414-b20a-8f6f8aa5a2d2.jpg"",""img/0875/d59ff733-eaff-4ee2-9443-06954dd0bcb6.jpg""]","",""
"","3948","similarity","167","1142945","0.0-6.0-161.0","5","[""img/0898/26c41340-15bd-4ead-8fe4-c0d0ddca09c2.jpg"",""img/0862/7918ca67-5bd3-4606-a5ea-c39fb11a9297.jpg""]","",""
"","4308","similarity","168","1148275","0.0-6.0-162.0","3","[""img/0894/492d2f29-d7b9-4422-8be8-47fd58bfaa8b.jpg"",""img/0875/e7e66b13-b573-431e-b85e-288ce04a35a3.jpg""]","",""
"","3879","similarity","169","1153174","0.0-6.0-163.0","1","[""img/0866/be24ab58-230e-4db8-9f45-ff04c9aec6bb.jpg"",""img/0864/3651d070-2fc5-4848-b6a6-088a2d9ac5c9.jpg""]","",""
"","3654","similarity","170","1157862","0.0-6.0-164.0","5","[""img/0766/f5f78e4e-d88f-4866-951a-118ba9fec4d0.jpg"",""img/0862/fad1d7c1-8187-43c3-942a-0fc12183e48e.jpg""]","",""
"","5629","similarity","171","1164510","0.0-6.0-165.0","4","[""img/0866/93a27239-8317-4e08-98ca-d8b1ff298e07.jpg"",""img/0874/31e22c7c-99aa-40b1-bf03-dd73fa2df4d6.jpg""]","",""
"","3682","similarity","172","1169221","0.0-6.0-166.0","6","[""img/0862/53a9cf7c-93c4-41b9-952f-07d17f7a17b2.jpg"",""img/0860/5383b320-1518-4095-a58e-5cc1ae30b64c.jpg""]","",""
"","4557","similarity","173","1178267","0.0-6.0-167.0","2","[""img/0766/2da002a4-05c9-4f5c-9ed7-433b4183e273.jpg"",""img/0901/f469cb1d-6d81-4a45-bab5-cd0b650c2b4f.jpg""]","",""
"","5011","similarity","174","1184308","0.0-6.0-168.0","7","[""img/0862/99a99e39-8355-44ec-b993-e7bcec111e1c.jpg"",""img/0862/e0f1a4e9-e1b6-45f7-af67-89f334e6630d.jpg""]","",""
"","4289","similarity","175","1189620","0.0-6.0-169.0","6","[""img/0894/7f2f31fd-6618-41c6-b65a-0fd8b2851bc9.jpg"",""img/0764/6ef77040-1fae-4afa-bfe7-eda98e6d0376.jpg""]","",""
"","4539","similarity","176","1195182","0.0-6.0-170.0","5","[""img/0874/bf14b896-e930-4fd9-9c05-2e83317a2773.jpg"",""img/0898/5f699581-3853-4547-856c-12f419ba5af7.jpg""]","",""
"","7566","similarity","177","1203773","0.0-6.0-171.0","1","[""img/0860/15b24a61-25be-4356-9eac-5ce95d0cb4a4.jpg"",""img/0766/33aa9ebb-c9f5-418f-8c8b-c77861889568.jpg""]","",""
"","3890","similarity","178","1208683","0.0-6.0-172.0","3","[""img/0898/0c7dde4f-efce-4b7a-9387-6921635b7890.jpg"",""img/0864/ef9cbca0-4be8-435d-ad49-977259e80409.jpg""]","",""
"","4210","similarity","179","1213914","0.0-6.0-173.0","5","[""img/0881/0c7068da-d0d9-4103-bda1-74ef7a2b32c3.jpg"",""img/0764/cffc80b0-4a90-4acb-a530-6f480f3ca303.jpg""]","",""
"","3885","similarity","180","1218817","0.0-6.0-174.0","2","[""img/0898/04e39a7a-fcf6-4156-ab0e-f5871f335e1c.jpg"",""img/0868/09a9ef4d-d000-4cfa-a6aa-ebec7c2edeb4.jpg""]","",""
"","5874","similarity","181","1225708","0.0-6.0-175.0","7","[""img/0864/66091c27-e588-4476-8af9-265dc6be4156.jpg"",""img/0864/6e846d43-94a6-4b37-a268-65eda979f052.jpg""]","",""
"","4429","similarity","182","1231164","0.0-6.0-176.0","5","[""img/0899/8abe6c69-822c-436c-9bf2-96c818b49ba5.jpg"",""img/0862/e8cc3bdf-cc43-4565-bccf-492626c70953.jpg""]","",""
"","5538","similarity","183","1237724","0.0-6.0-177.0","1","[""img/0875/42910c99-5463-450a-a0f8-d4d060a11455.jpg"",""img/0758/f61ecdf8-a7d4-4db0-b84d-be46f7cfaffc.jpg""]","",""
"","4051","similarity","184","1242812","0.0-6.0-178.0","1","[""img/0866/23a224f3-2012-4fc8-8e0f-3c36f8de27fd.jpg"",""img/0901/58978a6d-a3e2-4c59-8d62-f60693ecc0f6.jpg""]","",""
"","5265","similarity","185","1249108","0.0-6.0-179.0","5","[""img/0769/db94b61b-a5a7-4861-9d32-7b02ad194fb0.jpg"",""img/0874/3f471690-9788-4d03-90c7-f615aecef149.jpg""]","",""
"","9281","similarity","186","1259412","0.0-6.0-180.0","1","[""img/0875/ebf7653f-ff45-4e9f-af58-2c042ab3cd2b.jpg"",""img/0881/c24f3051-eefa-42de-aba6-fccb56d93c70.jpg""]","",""
"","4780","similarity","187","1265217","0.0-6.0-181.0","6","[""img/0866/8efcaa46-83ab-4dee-a35f-850402aa21ae.jpg"",""img/0868/4e626425-63c8-484a-8a1d-e66ee4e0bef8.jpg""]","",""
"","5331","similarity","188","1271575","0.0-6.0-182.0","5","[""img/0899/4408c14d-c168-4a7d-96f6-bc87bfb58f83.jpg"",""img/0758/6cd8c362-ae2a-41eb-80a3-3a4f7ace1530.jpg""]","",""
"","4900","similarity","189","1277496","0.0-6.0-183.0","2","[""img/0874/1016b306-087c-4afc-aa08-fa527b28dc76.jpg"",""img/0875/5a7c4e35-6514-4e12-8879-d16071da4cd6.jpg""]","",""
"","5192","similarity","190","1283711","0.0-6.0-184.0","3","[""img/0904/0d25eb24-bb20-4e8d-9787-8b489558b4cb.jpg"",""img/0862/cdaed51d-9e2f-4807-801a-4663c40077e2.jpg""]","",""
"","4673","similarity","191","1289405","0.0-6.0-185.0","5","[""img/0902/ca3160ba-ad5d-459f-a1b6-8b4f3c85ecd5.jpg"",""img/0766/fd064894-7147-4af5-97e9-2089d5472656.jpg""]","",""
"","8220","similarity","192","1298687","0.0-6.0-186.0","1","[""img/0758/53f35650-e455-4b53-8be4-c3c8271c6466.jpg"",""img/0769/75f7e514-0548-4329-b1e4-93c05e74f038.jpg""]","",""
"","3781","similarity","193","1303498","0.0-6.0-187.0","7","[""img/0881/b549bc99-a61c-4450-bab5-9efc3a197bf0.jpg"",""img/0881/7e822106-76f7-4b10-a805-14dc68b2cfaf.jpg""]","",""
"","4734","similarity","194","1309273","0.0-6.0-188.0","2","[""img/0758/67c0be2f-9e91-48b3-8219-70ac0a1802fa.jpg"",""img/0866/f756f7d1-9ad8-4a34-9ef6-7a443d705bfe.jpg""]","",""
"","4812","similarity","195","1315121","0.0-6.0-189.0","5","[""img/0764/d7f3ac54-318a-4dac-a06b-62bed34d01a4.jpg"",""img/0898/40f99fb2-64d2-4e72-8a7f-a1cf60741e69.jpg""]","",""
"","3648","similarity","196","1319794","0.0-6.0-190.0","3","[""img/0903/c3cb4a01-2797-43ca-b216-88c67b323fbb.jpg"",""img/0901/2a953e50-d237-405c-a38d-5ed21494c968.jpg""]","",""
"","4795","similarity","197","1325612","0.0-6.0-191.0","6","[""img/0902/cf9dee9c-2bdf-4d64-9302-97f1660fe52c.jpg"",""img/0898/79233891-305a-4a6a-8ddf-5c8604858203.jpg""]","",""
"","4788","similarity","198","1331423","0.0-6.0-192.0","1","[""img/0864/4bd81bc6-c13d-46df-95a9-485886dc7c1b.jpg"",""img/0901/8bb79e82-9c43-4b6f-a655-40655519598b.jpg""]","",""
"","5046","similarity","199","1337490","0.0-6.0-193.0","1","[""img/0894/7dd6ff43-f8fc-408a-8a41-a2b261871820.jpg"",""img/0881/44e09805-5a25-4f17-a716-4ad4a331b174.jpg""]","",""
"","4190","similarity","200","1342701","0.0-6.0-194.0","7","[""img/0868/77091fc7-a590-4ebb-b915-fdb2483a2399.jpg"",""img/0868/d98ca254-b195-477f-b57e-5760a2717db8.jpg""]","",""
"","4752","similarity","201","1348470","0.0-6.0-195.0","6","[""img/0899/a048912c-b12c-40e3-90af-46b69b0cc4fe.jpg"",""img/0764/bc3865c9-9004-4582-88a7-048478673f97.jpg""]","",""
"","5270","similarity","202","1354758","0.0-6.0-196.0","2","[""img/0881/c843e210-bdfe-4a7c-8bbe-fcea1f90fe1c.jpg"",""img/0904/5cceabc9-de1d-4c67-989b-c28a4ef77e79.jpg""]","",""
"","3341","similarity","203","1359131","0.0-6.0-197.0","3","[""img/0864/8ddd2e30-a1d0-479f-9cbe-591213023893.jpg"",""img/0902/0c760cc9-10ac-429e-8957-a7d51fc99683.jpg""]","",""
"","4276","similarity","204","1364426","0.0-6.0-198.0","7","[""img/0894/10f22b96-040c-44f4-950b-a4963f3f506c.jpg"",""img/0904/06dacdc5-2206-4fb8-92b7-88042d22833c.jpg""]","",""
"","3115","similarity","205","1368562","0.0-6.0-199.0","7","[""img/0901/da4fe30f-d12a-491e-96a2-5ab8ebaadd09.jpg"",""img/0901/a373612d-67e2-4fec-9764-21d3d6ef6359.jpg""]","",""
"","4179","similarity","206","1373778","0.0-6.0-200.0","5","[""img/0894/1a010553-d598-4b06-a772-81f1e7b3addb.jpg"",""img/0860/17b44a7d-c5ca-479f-9e87-f65a64f5c80e.jpg""]","",""
"","4132","similarity","207","1378938","0.0-6.0-201.0","7","[""img/0898/ec565187-2e31-4fdd-9a5c-153d0c789ae0.jpg"",""img/0903/0fb24af7-9a26-4e9d-aadc-959a36f683e2.jpg""]","",""
"","3675","similarity","208","1383641","0.0-6.0-202.0","3","[""img/0864/a248adb3-c70b-4652-b7a3-776d2a1e904b.jpg"",""img/0894/3664e04c-c6d3-4c9b-afb6-25d89974b174.jpg""]","",""
"","4147","similarity","209","1388811","0.0-6.0-203.0","3","[""img/0874/7e4f2150-3b59-4a36-b5da-a4e0ba410531.jpg"",""img/0860/c3379ff7-0763-48fe-a1ec-7ea3d611bc7a.jpg""]","",""
"","3963","similarity","210","1393799","0.0-6.0-204.0","5","[""img/0862/f23038d4-c366-4f70-979f-66b62362efa4.jpg"",""img/0875/cff79b3a-a797-4393-9757-6275f999ec04.jpg""]","",""
"","3606","similarity","211","1398428","0.0-6.0-205.0","1","[""img/0867/179ab87a-8eac-4c52-a41f-2e48e3120f09.jpg"",""img/0881/405484ae-0d00-4b05-bc57-6420a36adfac.jpg""]","",""
"","3839","similarity","212","1403288","0.0-6.0-206.0","6","[""img/0901/4d1bed7e-3c4e-4f6c-ada9-4beb66ba9e39.jpg"",""img/0902/c920f0e1-1c81-480f-a164-c77f2dc6ce9a.jpg""]","",""
"","4229","similarity","213","1408538","0.0-6.0-207.0","3","[""img/0899/00715b3f-851b-420b-a26b-d7f79f7759a9.jpg"",""img/0864/49150900-7f25-4ce8-8d10-9b47a71d1997.jpg""]","",""
"","5428","similarity","214","1414985","0.0-6.0-208.0","1","[""img/0901/0f670aef-ac36-496d-8142-ee5fdb21dd82.jpg"",""img/0769/f229321f-04dd-42d7-b14a-ffad6b509862.jpg""]","",""
"","4882","similarity","215","1428795","0.0-6.0-209.0","7","[""img/0902/22ed3536-288b-452e-9777-0fa0ab94deb0.jpg"",""img/0902/2db723b6-130f-454c-8c8d-88829edbcd65.jpg""]","",""
"[{""page_index"":0,""viewing_time"":7542}]","7545","instructions","216","1437342","0.0-7.0","","","",""
"","16750","image-multi-choice","217","1455175","0.0-8.0-0.0","","","{""Q0"":""Yellow Warbler""}","Nashville Warbler"
"","50479","image-multi-choice","218","1506728","0.0-8.0-1.0","","","{""Q0"":""Black-and-white Warbler""}","Black-and-white Warbler"
"","38605","image-multi-choice","219","1546407","0.0-8.0-2.0","","","{""Q0"":""Black-and-white Warbler""}","Townsend's Warbler"
"","4312","image-multi-choice","220","1551796","0.0-8.0-3.0","","","{""Q0"":""Lark Sparrow""}","Lark Sparrow"
"","3652","image-multi-choice","221","1556504","0.0-8.0-4.0","","","{""Q0"":""Yellow Warbler""}","Yellow Warbler"
"","7774","image-multi-choice","222","1565341","0.0-8.0-5.0","","","{""Q0"":""Orange-crowned Warbler""}","Orange-crowned Warbler"
"","8189","image-multi-choice","223","1574581","0.0-8.0-6.0","","","{""Q0"":""White-throated Sparrow""}","White-throated Sparrow"
"","3728","image-multi-choice","224","1579362","0.0-8.0-7.0","","","{""Q0"":""Fox Sparrow""}","Fox Sparrow"
"","20637","image-multi-choice","225","1601073","0.0-8.0-8.0","","","{""Q0"":""Lincoln's Sparrow""}","Song Sparrow"
"","7235","image-multi-choice","226","1609380","0.0-8.0-9.0","","","{""Q0"":""Blackburnian Warbler""}","Blackburnian Warbler"
"","22197","image-multi-choice","227","1632666","0.0-8.0-10.0","","","{""Q0"":""Lincoln's Sparrow""}","Vesper Sparrow"
"","4761","image-multi-choice","228","1638489","0.0-8.0-11.0","","","{""Q0"":""White-crowned Sparrow""}","White-crowned Sparrow"
"","9511","image-multi-choice","229","1649061","0.0-8.0-12.0","","","{""Q0"":""American Tree Sparrow""}","American Tree Sparrow"
"","20451","image-multi-choice","230","1670574","0.0-8.0-13.0","","","{""Q0"":""Orange-crowned Warbler""}","Tennessee Warbler"
"","24463","image-multi-choice","231","1696130","0.0-8.0-14.0","","","{""Q0"":""Blackburnian Warbler""}","Magnolia Warbler"
"","16044","image-multi-choice","232","1713247","0.0-8.0-15.0","","","{""Q0"":""Northern Waterthrush""}","Northern Waterthrush"
"","6532","image-multi-choice","233","1720837","0.0-8.0-16.0","","","{""Q0"":""Chipping Sparrow""}","Chipping Sparrow"
"","10469","image-multi-choice","234","1732364","0.0-8.0-17.0","","","{""Q0"":""Lincoln's Sparrow""}","Swamp Sparrow"
"","7019","image-multi-choice","235","1740459","0.0-8.0-18.0","","","{""Q0"":""Song Sparrow""}","Lincoln's Sparrow"
"","4078","image-multi-choice","236","1745636","0.0-8.0-19.0","","","{""Q0"":""Ovenbird""}","Ovenbird"
