"view_history","rt","trial_type","trial_index","time_elapsed","internal_node_id","sim_score","stimulus","responses","answer"
"[{""page_index"":0,""viewing_time"":19084}]","19084","instructions","0","19086","0.0-0.0","","","",""
"","8526","similarity_demo","1","28621","0.0-1.0","2","[""img/866.jpg"",""img/868.jpg""]","",""
"[{""page_index"":0,""viewing_time"":22532}]","22533","instructions","2","52155","0.0-2.0","","","",""
"","5786","similarity_demo","3","58947","0.0-3.0","1","[""img/766.jpg"",""img/867.jpg""]","",""
"[{""page_index"":0,""viewing_time"":7997}]","7997","instructions","4","67946","0.0-4.0","","","",""
"[{""page_index"":0,""viewing_time"":309673}]","309673","instructions","5","378620","0.0-5.0","","","",""
"","8576","similarity","6","388213","0.0-6.0-0.0","2","[""img/0868/c8ac40c7-6904-4e13-8d61-c75d3052dc4e.jpg"",""img/0901/33b51a81-06d9-46d9-9d4f-5a2d6d6b8058.jpg""]","",""
"","6117","similarity","7","395348","0.0-6.0-1.0","2","[""img/0769/878531fd-e0e8-4ad1-b9ad-f018bb104ca0.jpg"",""img/0867/5e07b34d-b40f-4b1c-ac10-49975bace45f.jpg""]","",""
"","4392","similarity","8","400749","0.0-6.0-2.0","6","[""img/0766/717fd72f-a281-499b-a5ba-5e2ecc4d4866.jpg"",""img/0898/b2732712-71c2-45d8-834f-2b2ed5504910.jpg""]","",""
"","5081","similarity","9","406837","0.0-6.0-3.0","3","[""img/0902/c9c74d2d-9b82-42d7-a9d0-3b8ff67ff81e.jpg"",""img/0881/e046471a-35b4-4159-bbf7-3cfd201bef66.jpg""]","",""
"","5448","similarity","10","413293","0.0-6.0-4.0","7","[""img/0894/a3d4170b-b7d8-40e3-955f-87e76ed745fc.jpg"",""img/0894/6b2e9509-8699-42b7-9582-7741df0ba2d7.jpg""]","",""
"","10983","similarity","11","425285","0.0-6.0-5.0","2","[""img/0874/a82926a3-0b43-4add-803c-d5f9ea7798ee.jpg"",""img/0899/ddf96ade-692e-4602-bd22-dedbb46401bc.jpg""]","",""
"","4392","similarity","12","430685","0.0-6.0-6.0","7","[""img/0904/9dd5708f-3f8b-46a9-b49f-2f2fab87b357.jpg"",""img/0764/d0bef2e0-e16b-4c82-9451-c1d16265eb67.jpg""]","",""
"","5033","similarity","13","436725","0.0-6.0-7.0","5","[""img/0899/25ae6ec8-9565-49fe-a8bb-8d0666f52716.jpg"",""img/0898/0af304a2-6a7a-4082-ab7c-4450cd08cc58.jpg""]","",""
"","4968","similarity","14","442701","0.0-6.0-8.0","2","[""img/0874/767f289c-9814-4496-803f-745cc8913d1f.jpg"",""img/0903/647ce311-8c71-479a-8361-961db1457139.jpg""]","",""
"","5008","similarity","15","448717","0.0-6.0-9.0","7","[""img/0881/4da99fdd-1f40-4bbb-8e21-8833eef313f5.jpg"",""img/0758/53f35650-e455-4b53-8be4-c3c8271c6466.jpg""]","",""
"","5889","similarity","16","455613","0.0-6.0-10.0","7","[""img/0898/224c1572-56b9-4f16-a9e4-6f3bc9c114bd.jpg"",""img/0901/a9b9c0a0-8aed-4888-a78a-65fb7e764d13.jpg""]","",""
"","5607","similarity","17","462228","0.0-6.0-11.0","6","[""img/0903/2c7b4aed-6038-4aac-958a-e3e58341c313.jpg"",""img/0769/458d9c77-b844-40b5-bb1b-1e3bbd4da64e.jpg""]","",""
"","4861","similarity","18","468108","0.0-6.0-12.0","1","[""img/0764/bd2eaa3e-95a9-4a59-a78e-3f81c766eea9.jpg"",""img/0868/15dd6fd7-791e-4b53-b203-195d617521a4.jpg""]","",""
"","6176","similarity","19","475292","0.0-6.0-13.0","1","[""img/0867/c66898ba-b71b-4d50-84f9-f7f84853a98d.jpg"",""img/0903/ea75f240-fb62-4edb-a709-83e858b202c0.jpg""]","",""
"","5577","similarity","20","481876","0.0-6.0-14.0","1","[""img/0766/ef3b15ce-abb7-4292-ad93-aec8e8b50520.jpg"",""img/0758/6e95579b-5166-487c-b8cb-e417c6a218e3.jpg""]","",""
"","5671","similarity","21","488556","0.0-6.0-15.0","6","[""img/0902/aa6fca32-82b0-4414-b20a-8f6f8aa5a2d2.jpg"",""img/0860/4a022222-056d-461c-ab02-39fac9647552.jpg""]","",""
"","5439","similarity","22","495004","0.0-6.0-16.0","1","[""img/0769/057eb0a0-aa5b-40c7-9852-21444f68d767.jpg"",""img/0875/ebf7653f-ff45-4e9f-af58-2c042ab3cd2b.jpg""]","",""
"","5433","similarity","23","501444","0.0-6.0-17.0","2","[""img/0904/d23dd7be-7fe8-4435-82f7-bd592c01e6a1.jpg"",""img/0866/f756f7d1-9ad8-4a34-9ef6-7a443d705bfe.jpg""]","",""
"","4041","similarity","24","506492","0.0-6.0-18.0","7","[""img/0875/03c3c331-738b-4446-af92-3d7386b08c2e.jpg"",""img/0875/3ecb367d-e9eb-4826-8aaa-7aa72fb98019.jpg""]","",""
"","6296","similarity","25","513796","0.0-6.0-19.0","7","[""img/0758/ddc336e9-a8b6-4bb9-937a-c7e25e0e9250.jpg"",""img/0758/7ee8bc8f-c40b-4b3a-84ec-3e83580622d4.jpg""]","",""
"","5126","similarity","26","519931","0.0-6.0-20.0","2","[""img/0902/7499db23-3a41-41ea-ab5b-6ab4d4c3ed35.jpg"",""img/0874/adf9a8f1-c40b-402b-b95b-1e85a54a7b62.jpg""]","",""
"","7415","similarity","27","528364","0.0-6.0-21.0","6","[""img/0764/b887d7c6-aa81-4637-af8e-05135757ac59.jpg"",""img/0769/35f2dd39-40aa-498e-b401-9f1ef2622d00.jpg""]","",""
"","6975","similarity","28","536347","0.0-6.0-22.0","2","[""img/0901/ae1e6ce4-2e10-4ca9-b1e7-21628637ab74.jpg"",""img/0874/bf14b896-e930-4fd9-9c05-2e83317a2773.jpg""]","",""
"","6950","similarity","29","544308","0.0-6.0-23.0","1","[""img/0875/5a716432-c6ca-4b1c-955a-2b8ac25198ee.jpg"",""img/0903/5248eedd-7e6a-4d39-91b0-06ec227f3ed0.jpg""]","",""
"","6129","similarity","30","551444","0.0-6.0-24.0","2","[""img/0769/38a88f69-28fd-4bbd-99f0-f4c02bfd3995.jpg"",""img/0881/db77fe00-aeb0-4d1d-aa66-f3a96fd077e4.jpg""]","",""
"","7004","similarity","31","559452","0.0-6.0-25.0","2","[""img/0867/12264664-1860-46df-8c21-162b9817cdda.jpg"",""img/0904/4e58005d-a2ec-4aaa-b199-445343561396.jpg""]","",""
"","5729","similarity","32","566188","0.0-6.0-26.0","6","[""img/0860/524b2e98-5767-4d53-942c-ebae6925659b.jpg"",""img/0881/48ed65a5-471f-41af-86ec-3793805c116d.jpg""]","",""
"","5081","similarity","33","572276","0.0-6.0-27.0","7","[""img/0866/a15b02be-11bb-43e3-b0e0-ecc3bd7dfc49.jpg"",""img/0866/0207e9a2-7dbb-40b5-9459-b472aaeceb2a.jpg""]","",""
"","7905","similarity","34","581189","0.0-6.0-28.0","5","[""img/0764/ca9829fe-aaf8-45b8-b98a-6bae751c63dd.jpg"",""img/0862/00c06b00-3b73-44e9-bc1e-c5aafb438321.jpg""]","",""
"","4953","similarity","35","587149","0.0-6.0-29.0","1","[""img/0904/63dd06dd-dccb-47ba-9740-eb33239e18a7.jpg"",""img/0758/20497cbe-ddae-489e-86e2-ab06985ed07c.jpg""]","",""
"","4288","similarity","36","592445","0.0-6.0-30.0","6","[""img/0894/4739e06d-c31e-4bf1-bf91-c97fa9afb456.jpg"",""img/0899/4f7bc593-8ddd-4da3-a0b9-84da730d3370.jpg""]","",""
"","6202","similarity","37","599654","0.0-6.0-31.0","3","[""img/0860/b03b963d-949b-4d8d-b19c-4950c89eeca2.jpg"",""img/0904/fe746a3f-8458-48d0-8a13-8cba2a9df9f8.jpg""]","",""
"","5783","similarity","38","606446","0.0-6.0-32.0","6","[""img/0874/31e22c7c-99aa-40b1-bf03-dd73fa2df4d6.jpg"",""img/0881/405484ae-0d00-4b05-bc57-6420a36adfac.jpg""]","",""
"","5560","similarity","39","613013","0.0-6.0-33.0","2","[""img/0881/d1982897-8d8d-4704-a940-1ee5d07a1f15.jpg"",""img/0899/06b0fc99-0581-461a-9913-d1a5a941ac61.jpg""]","",""
"","6681","similarity","40","620701","0.0-6.0-34.0","5","[""img/0866/6f2a90d7-14f1-4f1b-bd64-fc0af6b9fe44.jpg"",""img/0862/ee3b7bff-4a70-4e84-9bea-4a565e456acb.jpg""]","",""
"","5471","similarity","41","627181","0.0-6.0-35.0","1","[""img/0868/4bd5105a-d2c3-4f82-8c80-57196106ba53.jpg"",""img/0894/a98416c0-51e2-4960-85da-d81d8688b9d5.jpg""]","",""
"","4944","similarity","42","633146","0.0-6.0-36.0","7","[""img/0860/d9a0d117-6d1d-41c0-8fec-9aff0fd9e9f2.jpg"",""img/0860/c3379ff7-0763-48fe-a1ec-7ea3d611bc7a.jpg""]","",""
"","6695","similarity","43","640845","0.0-6.0-37.0","5","[""img/0862/847e5208-38ec-4f36-949c-296cdd7424ee.jpg"",""img/0864/6f631579-acf1-415c-a42c-1207f62a8d99.jpg""]","",""
"","12192","similarity","44","654045","0.0-6.0-38.0","4","[""img/0766/26d3ae14-8275-4e08-99b2-a6598c193ddf.jpg"",""img/0866/d266fece-59b3-46fa-b69f-96f6efb81b59.jpg""]","",""
"","5760","similarity","45","660813","0.0-6.0-39.0","2","[""img/0875/34132396-d896-4c2d-8087-646dd867e769.jpg"",""img/0898/c3cecf20-f7fd-45fa-97d0-dc0a63e8d6c0.jpg""]","",""
"","5720","similarity","46","667541","0.0-6.0-40.0","6","[""img/0766/60033a74-9919-47e5-913c-71d0d483e7e5.jpg"",""img/0769/8598a429-c671-4d2f-842c-32f681f5e412.jpg""]","",""
"","5512","similarity","47","680556","0.0-6.0-41.0","2","[""img/0874/3ce41e7c-40c8-4d58-a546-171114521796.jpg"",""img/0764/4952d0a0-c9be-471a-8ec7-94a37bf4051d.jpg""]","",""
"","3968","similarity","48","685533","0.0-6.0-42.0","1","[""img/0868/fd307a36-9a3a-47d7-ab7c-f810d0b35040.jpg"",""img/0902/1f4a4c62-68c1-4993-b213-05652a173ed1.jpg""]","",""
"","6451","similarity","49","692989","0.0-6.0-43.0","2","[""img/0875/f87b67d7-c33e-40d1-b281-248c4be1cb6e.jpg"",""img/0899/7b7380d5-d2be-44e5-a09a-c1756f87ef71.jpg""]","",""
"","4991","similarity","50","698989","0.0-6.0-44.0","5","[""img/0866/620cd1aa-0800-4414-8f6e-90342e7a99ad.jpg"",""img/0860/99c589b9-9140-4d17-90c0-b344323edcda.jpg""]","",""
"","5000","similarity","51","704997","0.0-6.0-45.0","6","[""img/0766/6d32752d-aa05-40dc-9541-640b6e9d6fa1.jpg"",""img/0903/b0df4094-a3be-4b5b-81bd-8d260f13f61b.jpg""]","",""
"","4664","similarity","52","710669","0.0-6.0-46.0","5","[""img/0901/5657dd86-0ff9-4753-ba2b-9dfb223e5c89.jpg"",""img/0904/5cceabc9-de1d-4c67-989b-c28a4ef77e79.jpg""]","",""
"","4458","similarity","53","716133","0.0-6.0-47.0","2","[""img/0758/d540bee6-b460-4c32-ac57-bc282742d7d4.jpg"",""img/0902/1a120fb9-dbd6-443e-ba91-b4aceab963da.jpg""]","",""
"","4718","similarity","54","721861","0.0-6.0-48.0","7","[""img/0764/f990b2e8-ecee-481e-be7c-0239fce350e2.jpg"",""img/0764/713cc27e-2338-4486-bfe9-5f5725fbd7a0.jpg""]","",""
"","4937","similarity","55","727805","0.0-6.0-49.0","1","[""img/0866/23a224f3-2012-4fc8-8e0f-3c36f8de27fd.jpg"",""img/0902/b56db912-c3c0-4fc2-b325-d640acd7cb58.jpg""]","",""
"","5624","similarity","56","734437","0.0-6.0-50.0","1","[""img/0764/c84fbfa8-521c-407a-9bd3-24f7308d896c.jpg"",""img/0758/61d64021-9214-4951-bdf8-f871f9827cf9.jpg""]","",""
"","6946","similarity","57","742398","0.0-6.0-51.0","5","[""img/0898/e167334e-cc1d-4986-b3b1-c7bc7da64baa.jpg"",""img/0894/b422d5c6-3c5a-49ae-a53e-7e88ac993f49.jpg""]","",""
"","4945","similarity","58","748349","0.0-6.0-52.0","5","[""img/0875/5a1e5100-0d94-4fec-bbe9-ca9894d2cf8e.jpg"",""img/0866/11a1d141-be5e-443c-98c1-a9d4d9e3dec0.jpg""]","",""
"","5217","similarity","59","754573","0.0-6.0-53.0","7","[""img/0904/4b8daf2a-13a9-4ea9-9e0b-b265b6e933e7.jpg"",""img/0904/65e2b70a-b184-4da3-b5c0-5038bdf9469a.jpg""]","",""
"","5143","similarity","60","760725","0.0-6.0-54.0","7","[""img/0769/48a1144d-fbda-4809-991b-fc8424a32ee4.jpg"",""img/0769/35364db7-e0d5-40ef-93dc-faf9dfb95136.jpg""]","",""
"","4461","similarity","61","766197","0.0-6.0-55.0","2","[""img/0898/26c41340-15bd-4ead-8fe4-c0d0ddca09c2.jpg"",""img/0758/65d426d6-3ff6-415d-8654-a43b83ecc4fe.jpg""]","",""
"","5009","similarity","62","772213","0.0-6.0-56.0","5","[""img/0769/3adfa417-3b90-4aab-b437-5eaa474189cb.jpg"",""img/0902/6730b12a-f0a7-4587-8c10-a32fae16565b.jpg""]","",""
"","7648","similarity","63","780869","0.0-6.0-57.0","5","[""img/0864/efcfbb1b-8197-44c9-b723-40d6c608dd3c.jpg"",""img/0881/c843e210-bdfe-4a7c-8bbe-fcea1f90fe1c.jpg""]","",""
"","6240","similarity","64","788117","0.0-6.0-58.0","5","[""img/0758/caa93da2-9edf-49fa-96b9-32dedd8f5078.jpg"",""img/0868/83b4350a-3b70-4cea-b7f5-b5b56f3050a8.jpg""]","",""
"","6346","similarity","65","795477","0.0-6.0-59.0","3","[""img/0862/53a9cf7c-93c4-41b9-952f-07d17f7a17b2.jpg"",""img/0769/96556ef3-7fac-4c9d-8281-1cb0ea5081bc.jpg""]","",""
"","5702","similarity","66","802183","0.0-6.0-60.0","5","[""img/0764/03c07b98-3f18-4b71-bb70-ecff564a78d1.jpg"",""img/0903/6a87dbad-9b8d-4ff5-9c41-03c9aa24f0c3.jpg""]","",""
"","7312","similarity","67","810501","0.0-6.0-61.0","7","[""img/0899/93494f3b-d539-4075-b027-d82e344563da.jpg"",""img/0899/a048912c-b12c-40e3-90af-46b69b0cc4fe.jpg""]","",""
"","5983","similarity","68","817493","0.0-6.0-62.0","5","[""img/0860/18dfed73-e36b-4487-a8bd-0b8cff8e3668.jpg"",""img/0875/d59ff733-eaff-4ee2-9443-06954dd0bcb6.jpg""]","",""
"","9192","similarity","69","827693","0.0-6.0-63.0","5","[""img/0868/0d3abd3a-b6c3-4584-a9f7-e2da63748b3d.jpg"",""img/0874/93d1f8dc-acf2-4f03-bd8d-8ec35df276ed.jpg""]","",""
"","4008","similarity","70","832710","0.0-6.0-64.0","6","[""img/0758/9fb5b2fe-3f00-4fe6-973c-1ce10d5f4cd5.jpg"",""img/0862/7918ca67-5bd3-4606-a5ea-c39fb11a9297.jpg""]","",""
"","5503","similarity","71","839221","0.0-6.0-65.0","5","[""img/0904/2fd488e9-960f-41f7-8a44-33375f7d5051.jpg"",""img/0898/5f699581-3853-4547-856c-12f419ba5af7.jpg""]","",""
"","4639","similarity","72","844877","0.0-6.0-66.0","5","[""img/0881/ed4c971f-0873-4fc8-b6d6-e8bbd82f0bcc.jpg"",""img/0866/07c9c966-3c8d-40e7-8128-92b2acbaed5d.jpg""]","",""
"","4665","similarity","73","850549","0.0-6.0-67.0","1","[""img/0867/f8159067-056c-41f1-a136-c529fe5e970a.jpg"",""img/0898/661621d4-a14e-487c-8c74-354134a29710.jpg""]","",""
"","6336","similarity","74","857893","0.0-6.0-68.0","5","[""img/0902/168ebd47-9e82-4ab7-a18b-c3da85072db8.jpg"",""img/0764/fb92924f-5cfe-4b89-b130-0cce8cc5636b.jpg""]","",""
"","5423","similarity","75","864325","0.0-6.0-69.0","5","[""img/0875/e7e66b13-b573-431e-b85e-288ce04a35a3.jpg"",""img/0867/f26f6b60-f772-4f4c-95a4-addc62cfd692.jpg""]","",""
"","3868","similarity","76","869205","0.0-6.0-70.0","6","[""img/0766/d50d734f-285c-4840-bc7a-c8dd4aff391e.jpg"",""img/0764/974d52cc-6318-4e7a-b294-2f3e92ff800f.jpg""]","",""
"","4894","similarity","77","875109","0.0-6.0-71.0","3","[""img/0894/e2446cf5-cd48-486a-badc-76498e087fbe.jpg"",""img/0867/a749dddb-69f0-44a6-acdc-2bf295cf6dcc.jpg""]","",""
"","5449","similarity","78","881565","0.0-6.0-72.0","2","[""img/0875/42910c99-5463-450a-a0f8-d4d060a11455.jpg"",""img/0764/1def7b22-b054-4ec2-860b-73d25691823b.jpg""]","",""
"","5072","similarity","79","887645","0.0-6.0-73.0","5","[""img/0867/50a1b60e-3a29-44bf-b606-d4bd3746fea9.jpg"",""img/0866/a04d37f0-99dd-478a-b6c6-58b215138f84.jpg""]","",""
"","5372","similarity","80","894021","0.0-6.0-74.0","3","[""img/0903/8c358e9e-a4f4-466e-8b93-7aec0d2358e8.jpg"",""img/0758/6cd8c362-ae2a-41eb-80a3-3a4f7ace1530.jpg""]","",""
"","5283","similarity","81","900317","0.0-6.0-75.0","3","[""img/0766/a754e4b6-5019-4cf4-8f58-34c20547a1f5.jpg"",""img/0868/3a62db2d-97e9-44a3-b8e3-a48c6f0e423b.jpg""]","",""
"","4678","similarity","82","906013","0.0-6.0-76.0","3","[""img/0874/1016b306-087c-4afc-aa08-fa527b28dc76.jpg"",""img/0766/a0270213-fa0e-4972-8b56-228c3e01ff90.jpg""]","",""
"","5032","similarity","83","912053","0.0-6.0-77.0","5","[""img/0881/609a5e93-38b5-4940-8627-2bf8fad7f802.jpg"",""img/0868/5fa7f9d0-f0e5-454c-8224-74d964818f56.jpg""]","",""
"","4471","similarity","84","917533","0.0-6.0-78.0","2","[""img/0758/e38fd80d-18d0-42f3-b848-f930788e8bd7.jpg"",""img/0901/58ec7fa9-b466-4651-90aa-c082df0972de.jpg""]","",""
"","5261","similarity","85","923813","0.0-6.0-79.0","3","[""img/0881/ee44e27f-d662-4608-b265-e7ffa19b216f.jpg"",""img/0898/08c72dac-f8ad-407a-9ce6-8c9a5d679c3a.jpg""]","",""
"","4487","similarity","86","929309","0.0-6.0-80.0","5","[""img/0867/ac1797e4-8afc-48fe-b252-86d1defb1cca.jpg"",""img/0758/7ffbc76b-1fc1-432c-8f7e-9ec8d1b3f643.jpg""]","",""
"","7543","similarity","87","937862","0.0-6.0-81.0","5","[""img/0769/965c3c44-d9e5-47c5-b61a-2bbdf4215d9a.jpg"",""img/0899/fd9efb43-701f-4cd6-baaa-4c38315f4bdc.jpg""]","",""
"","3749","similarity","88","942621","0.0-6.0-82.0","7","[""img/0903/b548d383-2a95-4575-8c13-647873751ff1.jpg"",""img/0903/776b74ee-a8ab-4ab8-a78d-097c0747538d.jpg""]","",""
"","4712","similarity","89","963493","0.0-6.0-83.0","2","[""img/0867/db7e032f-162b-46f5-ae67-2b29679adee4.jpg"",""img/0766/d512b99c-a2dc-40d7-8e86-827323a0cbcf.jpg""]","",""
"","7229","similarity","90","971725","0.0-6.0-84.0","3","[""img/0902/22ed3536-288b-452e-9777-0fa0ab94deb0.jpg"",""img/0867/c71dc569-f49c-4397-8381-68b8d726736d.jpg""]","",""
"","5157","similarity","91","977893","0.0-6.0-85.0","3","[""img/0901/4f9cffe0-c0be-4d7f-bacd-9d51efd19b4a.jpg"",""img/0875/527ced51-8e53-4aab-ab05-86df219104c0.jpg""]","",""
"","6707","similarity","92","985605","0.0-6.0-86.0","2","[""img/0764/bc3865c9-9004-4582-88a7-048478673f97.jpg"",""img/0866/d493a2c8-66eb-44b4-be02-2f327b700b7c.jpg""]","",""
"","11391","similarity","93","998005","0.0-6.0-87.0","3","[""img/0901/233a6948-48eb-4b67-8259-222b916b2322.jpg"",""img/0894/151063aa-6472-4745-837b-36603aba5966.jpg""]","",""
"","4528","similarity","94","1003541","0.0-6.0-88.0","5","[""img/0898/6cd3830b-d44e-4915-be2b-88d31424b91c.jpg"",""img/0769/8c7cf147-1780-4d5c-8ddf-5ea23ff03ac9.jpg""]","",""
"","4420","similarity","95","1008973","0.0-6.0-89.0","6","[""img/0769/5bd04f55-d091-4f57-85db-38426f26bd1a.jpg"",""img/0894/2217bdcd-23a7-42d3-823b-23f2488d7e87.jpg""]","",""
"","6678","similarity","96","1016662","0.0-6.0-90.0","5","[""img/0862/fad1d7c1-8187-43c3-942a-0fc12183e48e.jpg"",""img/0874/7e4f2150-3b59-4a36-b5da-a4e0ba410531.jpg""]","",""
"","6755","similarity","97","1024421","0.0-6.0-91.0","5","[""img/0894/bd34223a-2f66-4e16-9d18-193a746b69ff.jpg"",""img/0766/33aa9ebb-c9f5-418f-8c8b-c77861889568.jpg""]","",""
"","5934","similarity","98","1031373","0.0-6.0-92.0","3","[""img/0874/3f471690-9788-4d03-90c7-f615aecef149.jpg"",""img/0867/f8488a47-94ee-4166-952c-44e16cf172f6.jpg""]","",""
"","5303","similarity","99","1037686","0.0-6.0-93.0","2","[""img/0899/8de08897-b430-42fe-9d42-840670b80f94.jpg"",""img/0868/77091fc7-a590-4ebb-b915-fdb2483a2399.jpg""]","",""
"","7679","similarity","100","1046374","0.0-6.0-94.0","3","[""img/0903/2a9c8033-3e70-47fa-816d-97ee1813a3a3.jpg"",""img/0862/47ed5efd-4ec9-4b74-bb4e-a5f5cf0c3e7d.jpg""]","",""
"","8738","similarity","101","1056118","0.0-6.0-95.0","6","[""img/0899/0e1d936a-dbe2-4afc-9f19-7b7a1ae6c9ed.jpg"",""img/0766/ae0fce93-fe8d-4aa1-87ca-4c3e4b889f2f.jpg""]","",""
"","4283","similarity","102","1061406","0.0-6.0-96.0","7","[""img/0867/26611f4e-d694-4460-b7e2-43c62753ddc3.jpg"",""img/0868/179a5502-ab5c-478e-8263-5a1fbcc101d2.jpg""]","",""
"","5823","similarity","103","1068237","0.0-6.0-97.0","3","[""img/0862/92fcd8a4-8193-4a6a-ae09-dd4a6338b0df.jpg"",""img/0901/1b86f2fc-7a1d-4aa8-9252-114f92edef3b.jpg""]","",""
"","4283","similarity","104","1073533","0.0-6.0-98.0","1","[""img/0875/a4935837-7d3c-4df6-88c1-36a94d4991ca.jpg"",""img/0766/71b81ebd-0937-4d7f-b8bf-c4e46a4728fd.jpg""]","",""
"","4027","similarity","105","1078581","0.0-6.0-99.0","7","[""img/0758/821c68d3-5cb0-4eae-8659-30e6263fca39.jpg"",""img/0874/995f0332-0439-4eb4-add3-957335dbf6d9.jpg""]","",""
"","4345","similarity","106","1083933","0.0-6.0-100.0","2","[""img/0904/73920552-103b-4c9c-9ece-e0b8376b4504.jpg"",""img/0868/4e626425-63c8-484a-8a1d-e66ee4e0bef8.jpg""]","",""
"","6540","similarity","107","1091493","0.0-6.0-101.0","2","[""img/0903/f1fa0f8d-e62b-4b4a-a174-31a0fabfe61b.jpg"",""img/0866/945c6710-d15b-4a5b-a8f6-69af0850357f.jpg""]","",""
"","5393","similarity","108","1097894","0.0-6.0-102.0","3","[""img/0868/293079b8-7e0c-4afd-a390-1e5d35fe3ded.jpg"",""img/0769/0fe124d3-bcad-45f6-b64d-8f6eb8ee5251.jpg""]","",""
"","4776","similarity","109","1103678","0.0-6.0-103.0","5","[""img/0902/cdec1bc6-7f90-4f72-9e01-f5a4111bac1d.jpg"",""img/0899/f58b8d2f-b19d-4b59-8b94-8834be92e4ba.jpg""]","",""
"","6009","similarity","110","1110694","0.0-6.0-104.0","5","[""img/0868/4a8a45ed-2c4f-421b-9564-409a33ecd26c.jpg"",""img/0862/d0ca4c78-fc35-46ed-bdcc-8e124283c53e.jpg""]","",""
"","5288","similarity","111","1116989","0.0-6.0-105.0","5","[""img/0903/43ffd882-077a-40dd-a264-e58d519420a1.jpg"",""img/0894/43216a7f-27bc-4b5a-8841-d122a30da9d9.jpg""]","",""
"","4091","similarity","112","1122085","0.0-6.0-106.0","7","[""img/0864/5f33e097-23e3-4002-882d-76e8cb15f451.jpg"",""img/0874/2c9464dd-8a23-4baa-ac94-1ba3af5c15cc.jpg""]","",""
"","8216","similarity","113","1131308","0.0-6.0-107.0","3","[""img/0862/99a99e39-8355-44ec-b993-e7bcec111e1c.jpg"",""img/0902/b03129ba-b087-4558-af37-e8399d6217d6.jpg""]","",""
"","3521","similarity","114","1135836","0.0-6.0-108.0","7","[""img/0904/25365108-e038-4021-aac9-797f2063b337.jpg"",""img/0903/e2e55a9e-0397-4dc0-8adf-4a54cfefe1fe.jpg""]","",""
"","6119","similarity","115","1142972","0.0-6.0-109.0","2","[""img/0764/7f4ee8e3-9315-4a57-be7d-db8454b33766.jpg"",""img/0864/afcba0a3-7e27-4757-b254-e9f05fad27e2.jpg""]","",""
"","5449","similarity","116","1149428","0.0-6.0-110.0","3","[""img/0866/be24ab58-230e-4db8-9f45-ff04c9aec6bb.jpg"",""img/0894/1b3888e6-cf36-4c4a-a039-187aa5cb71ac.jpg""]","",""
"","5983","similarity","117","1156421","0.0-6.0-111.0","5","[""img/0899/f95cbdb4-f804-4f5d-ad76-373ad343e658.jpg"",""img/0903/39365c8e-a733-4801-ac7d-b87e38c3784b.jpg""]","",""
"","4072","similarity","118","1161501","0.0-6.0-112.0","5","[""img/0902/82d20e8c-2162-47a6-925b-52906558c046.jpg"",""img/0904/b7c2a2c8-df33-4473-b3d4-ff7147c60db3.jpg""]","",""
"","6951","similarity","119","1169461","0.0-6.0-113.0","2","[""img/0864/a248adb3-c70b-4652-b7a3-776d2a1e904b.jpg"",""img/0860/e8b8c51e-1834-4875-8b61-6c5bc9b178bd.jpg""]","",""
"","5848","similarity","120","1176317","0.0-6.0-114.0","1","[""img/0860/17b44a7d-c5ca-479f-9e87-f65a64f5c80e.jpg"",""img/0899/51a7a498-98c7-42d7-bca8-bc2d8f0b5831.jpg""]","",""
"","5178","similarity","121","1182502","0.0-6.0-115.0","2","[""img/0881/adc02f34-ce97-4aef-850f-00519df06fd7.jpg"",""img/0903/b7e3723f-fd03-4f3d-8820-f19496463a34.jpg""]","",""
"","7410","similarity","122","1190918","0.0-6.0-116.0","3","[""img/0894/38f5931f-926d-414e-b498-66b188978b7a.jpg"",""img/0874/ca76a855-4e77-4f2f-872a-0a718153e7ed.jpg""]","",""
"","6583","similarity","123","1198509","0.0-6.0-117.0","5","[""img/0881/c24f3051-eefa-42de-aba6-fccb56d93c70.jpg"",""img/0862/1c20f772-3a51-4a80-aac0-f57dc9f86c28.jpg""]","",""
"","5032","similarity","124","1204549","0.0-6.0-118.0","5","[""img/0868/e0aff734-077f-40dd-9781-74821abd3621.jpg"",""img/0875/fb732ab5-013a-4366-9f65-27811ed157e9.jpg""]","",""
"","5056","similarity","125","1210613","0.0-6.0-119.0","5","[""img/0860/c5ccd1a4-4bb7-48e1-9b25-72cfaf06909b.jpg"",""img/0758/d41c06bf-ebaf-454b-91c6-1a17f917b659.jpg""]","",""
"","4665","similarity","126","1216286","0.0-6.0-120.0","5","[""img/0864/3d4de670-b290-4285-9c3d-12a0e3af44e9.jpg"",""img/0875/2e13d160-eea1-416b-aff1-d37ab99ecc1d.jpg""]","",""
"","4032","similarity","127","1221326","0.0-6.0-121.0","1","[""img/0898/a8f16b02-e19f-423b-86c3-a36562ae1f9b.jpg"",""img/0866/02f5e6b9-52b7-448c-9708-5b460d0c9a23.jpg""]","",""
"","4665","similarity","128","1227006","0.0-6.0-122.0","1","[""img/0874/8cdb1c07-1c32-46d2-981c-3636560fa6e5.jpg"",""img/0904/09934646-45d2-4147-8fec-64a22a5ac822.jpg""]","",""
"","5088","similarity","129","1233101","0.0-6.0-123.0","2","[""img/0904/2f88ce53-02d0-4f95-a082-182c56a0eeb4.jpg"",""img/0864/b3c4e378-28f0-4699-9338-2a257b4bca04.jpg""]","",""
"","3650","similarity","130","1237758","0.0-6.0-124.0","5","[""img/0894/11674fa4-285d-44e2-939f-2228c6a64080.jpg"",""img/0902/24d10fe7-314f-4d5a-8c7b-b43121bba0a4.jpg""]","",""
"","5441","similarity","131","1256845","0.0-6.0-125.0","3","[""img/0868/d98ca254-b195-477f-b57e-5760a2717db8.jpg"",""img/0864/c22faebd-9c53-47bc-ada3-b9a30c688e75.jpg""]","",""
"","5879","similarity","132","1263733","0.0-6.0-126.0","3","[""img/0899/9de5e857-aa9a-4e0c-8ba2-46d79bd069a4.jpg"",""img/0866/8efcaa46-83ab-4dee-a35f-850402aa21ae.jpg""]","",""
"","5203","similarity","133","1269957","0.0-6.0-127.0","3","[""img/0875/2c361b79-c3d1-4eda-812e-bf03192407bf.jpg"",""img/0904/56e73f28-7e64-489b-a161-e6b1a063878d.jpg""]","",""
"","4000","similarity","134","1274965","0.0-6.0-128.0","2","[""img/0867/8ba0c5a7-c7e4-42cf-a80a-543763b90779.jpg"",""img/0899/fef567a2-c121-4481-9af0-ff108d199bbf.jpg""]","",""
"","6000","similarity","135","1281975","0.0-6.0-129.0","2","[""img/0901/7c16dd9c-44ad-4d5b-990c-6a0b9b48b1b1.jpg"",""img/0867/de92135f-5b65-4ed9-b245-188292c7c2f8.jpg""]","",""
"","3984","similarity","136","1286965","0.0-6.0-130.0","2","[""img/0864/87c467d3-abca-482f-ad80-3766c21b1bb3.jpg"",""img/0769/04347740-f8f6-48bb-887a-f68babd0a0d4.jpg""]","",""
"","3594","similarity","137","1291564","0.0-6.0-131.0","1","[""img/0903/365f176c-25a4-4973-bd3c-279bf1b39476.jpg"",""img/0868/d6d1f30d-4323-435a-b194-7892521bc57e.jpg""]","",""
"","4730","similarity","138","1297301","0.0-6.0-132.0","5","[""img/0864/e8bd659f-aa43-4748-877e-3118e8b4e189.jpg"",""img/0867/bf560d4f-dee3-4f11-a385-705cc1aa5f3c.jpg""]","",""
"","6287","similarity","139","1304596","0.0-6.0-133.0","3","[""img/0901/7d4a3388-488d-4e9b-9d32-9d0def7aae8d.jpg"",""img/0860/87039971-2210-4aab-93c0-8e9b5f1655b2.jpg""]","",""
"","6957","similarity","140","1312558","0.0-6.0-134.0","3","[""img/0881/7e31e5dc-2240-4b1b-b5a0-3acd980099ef.jpg"",""img/0766/51d3aab4-3d09-4dda-b99d-3dc7aaabc6f2.jpg""]","",""
"","6680","similarity","141","1320245","0.0-6.0-135.0","1","[""img/0903/31b5a5f4-b695-4af1-bad2-a19650a05498.jpg"",""img/0864/0116ca98-293d-4fa6-a93b-5a6144ef64cc.jpg""]","",""
"","4177","similarity","142","1325428","0.0-6.0-136.0","3","[""img/0758/dd559618-7f09-4a07-8018-d311c4a5ea29.jpg"",""img/0894/492d2f29-d7b9-4422-8be8-47fd58bfaa8b.jpg""]","",""
"","5414","similarity","143","1331853","0.0-6.0-137.0","1","[""img/0769/aad494cc-674d-4a08-9bfa-24a88ebe3c79.jpg"",""img/0860/9593362c-9fe5-4d12-9735-6000a11f6aa5.jpg""]","",""
"","4044","similarity","144","1336901","0.0-6.0-138.0","6","[""img/0904/96e503ea-6630-4996-85f2-0237688ce441.jpg"",""img/0766/09f646c8-a69e-4ed3-879c-8d29b04ad7f9.jpg""]","",""
"","5999","similarity","145","1343909","0.0-6.0-139.0","3","[""img/0868/09a9ef4d-d000-4cfa-a6aa-ebec7c2edeb4.jpg"",""img/0860/702bd09d-df3a-40aa-a267-5f04474305b5.jpg""]","",""
"","3920","similarity","146","1348837","0.0-6.0-140.0","3","[""img/0758/d57c2592-a317-4f63-91be-91a3a9afd222.jpg"",""img/0864/1ebbc554-99fa-49f9-8799-317375a79820.jpg""]","",""
"","3912","similarity","147","1353767","0.0-6.0-141.0","7","[""img/0867/2e1a0b58-cdb1-4107-a14e-452530d7b9b0.jpg"",""img/0867/1719a35d-f085-48c0-9099-16c94fe418b4.jpg""]","",""
"","4735","similarity","148","1359509","0.0-6.0-142.0","7","[""img/0898/79233891-305a-4a6a-8ddf-5c8604858203.jpg"",""img/0898/40f99fb2-64d2-4e72-8a7f-a1cf60741e69.jpg""]","",""
"","6129","similarity","149","1366645","0.0-6.0-143.0","1","[""img/0866/386235d2-6857-41e7-88a8-25cfc3430025.jpg"",""img/0769/180213e5-1e50-4b4e-87b6-add77ba04d39.jpg""]","",""
"","6650","similarity","150","1374301","0.0-6.0-144.0","2","[""img/0860/e14d67c1-6d92-4f1e-9257-c8607159c19c.jpg"",""img/0898/881e2a85-d5c2-49be-a0c6-8a6ce2c4af08.jpg""]","",""
"","4391","similarity","151","1379701","0.0-6.0-145.0","1","[""img/0766/33519c22-aaa4-49d7-8d49-ab551db1945e.jpg"",""img/0864/e336a4c5-6648-4fd7-b2f6-93a3fb83f8c6.jpg""]","",""
"","5408","similarity","152","1386117","0.0-6.0-146.0","3","[""img/0860/4f695df5-afac-4da7-9875-fee39b0b24ad.jpg"",""img/0903/aa842abe-6fa3-448a-bf71-88d3ad28663b.jpg""]","",""
"","6368","similarity","153","1393493","0.0-6.0-147.0","3","[""img/0867/cc72ed48-7704-422c-86d6-467a1145287a.jpg"",""img/0764/56441045-b648-4ede-9632-3e9c0227080b.jpg""]","",""
"","5423","similarity","154","1399925","0.0-6.0-148.0","6","[""img/0769/f229321f-04dd-42d7-b14a-ffad6b509862.jpg"",""img/0904/a8c3c7d2-9bcf-4347-9e03-8203adfc1fc5.jpg""]","",""
"","7344","similarity","155","1408285","0.0-6.0-149.0","5","[""img/0764/83c93cce-18d1-4aa7-9e23-2c268afe0a46.jpg"",""img/0901/b13fa50f-dbe0-4d0f-8647-6ac0fd8f40bd.jpg""]","",""
"","4668","similarity","156","1413957","0.0-6.0-150.0","6","[""img/0904/ba8e689e-9ca6-4608-a2a1-3b0940666ae6.jpg"",""img/0899/d60714ae-98d7-4564-8c98-94dba1351135.jpg""]","",""
"","5673","similarity","157","1420638","0.0-6.0-151.0","2","[""img/0862/e8cc3bdf-cc43-4565-bccf-492626c70953.jpg"",""img/0867/7d1c497b-c1b3-4ed8-abb5-d7f73306015f.jpg""]","",""
"","3345","similarity","158","1424989","0.0-6.0-152.0","7","[""img/0766/db750ba0-ce04-46e1-b601-e1b80212bad2.jpg"",""img/0766/ba35c0fc-4d5b-490d-959e-c94b279cdd02.jpg""]","",""
"","4713","similarity","159","1430710","0.0-6.0-153.0","1","[""img/0862/92f0146c-20c4-482e-aef5-adb693790338.jpg"",""img/0894/86201968-6e78-4d68-9b3a-d1692e066210.jpg""]","",""
"","6366","similarity","160","1438086","0.0-6.0-154.0","5","[""img/0899/7f9d45d0-b2c6-40d3-aa41-c207db2c411b.jpg"",""img/0901/548d1110-7cb8-42a2-9927-9798875c8b5c.jpg""]","",""
"","6120","similarity","161","1445214","0.0-6.0-155.0","6","[""img/0874/a3bc679d-619f-4db6-bb68-116dcb757d9c.jpg"",""img/0874/85eb9b8a-c4c6-4e5a-b8e7-363a87a82054.jpg""]","",""
"","6737","similarity","162","1452958","0.0-6.0-156.0","4","[""img/0860/94ef7afc-e0e6-4a15-98c6-0bfac82bc832.jpg"",""img/0867/6e19c858-b606-45b2-a4c6-910a73f1d82c.jpg""]","",""
"","4624","similarity","163","1458590","0.0-6.0-157.0","1","[""img/0901/1e23ffbd-19de-4c4f-aa23-c54aaa3319a3.jpg"",""img/0881/84397291-bc14-4fbf-90e8-241e486ab0fe.jpg""]","",""
"","5386","similarity","164","1464982","0.0-6.0-158.0","2","[""img/0903/0a92ec52-4e87-410a-857a-4455cde56a70.jpg"",""img/0902/cf9dee9c-2bdf-4d64-9302-97f1660fe52c.jpg""]","",""
"","5868","similarity","165","1471854","0.0-6.0-159.0","3","[""img/0860/5383b320-1518-4095-a58e-5cc1ae30b64c.jpg"",""img/0764/5d83b9db-3b2b-4dc8-9bd1-2b515b19c858.jpg""]","",""
"","5249","similarity","166","1478110","0.0-6.0-160.0","1","[""img/0902/40d0b6ec-3907-4573-b227-e7d8e9cad1c3.jpg"",""img/0875/5a7c4e35-6514-4e12-8879-d16071da4cd6.jpg""]","",""
"","6952","similarity","167","1486070","0.0-6.0-161.0","4","[""img/0898/8605a25b-6895-476d-8c13-df7a83f96093.jpg"",""img/0862/eefa5588-9efd-4591-aa5f-a2e17c7d7bcc.jpg""]","",""
"","4168","similarity","168","1491246","0.0-6.0-162.0","1","[""img/0894/e5edf723-72a5-4673-8441-6c1734a8929b.jpg"",""img/0875/dbdd643e-6d0e-4a5c-ab57-b9c29b9c981a.jpg""]","",""
"","6404","similarity","169","1498662","0.0-6.0-163.0","5","[""img/0866/4a87911a-d5be-4d4e-ab8e-3d1f581bf507.jpg"",""img/0864/da39ad34-04e0-40d4-a724-c08d53e0ea09.jpg""]","",""
"","3793","similarity","170","1503462","0.0-6.0-164.0","1","[""img/0766/5d6e0d1d-4369-41f0-a64c-91f3503055c7.jpg"",""img/0862/fb26cb07-d5a9-4653-813c-f41609f26cd5.jpg""]","",""
"","5743","similarity","171","1510214","0.0-6.0-165.0","5","[""img/0866/93a27239-8317-4e08-98ca-d8b1ff298e07.jpg"",""img/0874/c0378dac-9370-439a-8b79-db27c96fb390.jpg""]","",""
"","4520","similarity","172","1515742","0.0-6.0-166.0","6","[""img/0862/e697469a-ec19-4414-b972-7b9f3564785b.jpg"",""img/0860/29a21a9f-54bb-4093-ad3f-04823ceaa89f.jpg""]","",""
"","5713","similarity","173","1530565","0.0-6.0-167.0","5","[""img/0766/91fc8c4d-862f-4d2b-b1a1-2db8d729b6b7.jpg"",""img/0901/b123d109-47b4-4f9a-80c9-9bb16da42efa.jpg""]","",""
"","4570","similarity","174","1536142","0.0-6.0-168.0","7","[""img/0862/5d887e9f-89e2-4ebc-80a0-6d46fe6480db.jpg"",""img/0862/f188d4f0-76a4-4102-818c-a209969d73a5.jpg""]","",""
"","3951","similarity","175","1541101","0.0-6.0-169.0","6","[""img/0894/133a1636-d123-4893-873c-1718050f832a.jpg"",""img/0764/3297a811-ea8b-4d74-9547-59cecab7293a.jpg""]","",""
"","4072","similarity","176","1546181","0.0-6.0-170.0","3","[""img/0874/29830da7-be5f-44e5-b141-652a0ccf7269.jpg"",""img/0898/68476bbb-34a1-42d9-8bc1-deab783d4489.jpg""]","",""
"","4103","similarity","177","1551293","0.0-6.0-171.0","1","[""img/0860/f44ba3fb-03a2-42f0-8509-2c1ded493086.jpg"",""img/0766/5d1b8041-c5a1-4b02-b4fe-3453d98a0d72.jpg""]","",""
"","4992","similarity","178","1557293","0.0-6.0-172.0","3","[""img/0898/81b08535-2020-4c15-9ce4-2f1e460755ae.jpg"",""img/0864/8ddd2e30-a1d0-479f-9cbe-591213023893.jpg""]","",""
"","6017","similarity","179","1564317","0.0-6.0-173.0","3","[""img/0881/19e82c47-8e4b-45d2-a6c8-74181eb4155e.jpg"",""img/0764/952d7adc-dc40-4aee-acce-18c2a1d02ea1.jpg""]","",""
"","3936","similarity","180","1569261","0.0-6.0-174.0","1","[""img/0898/01bfe666-3510-4fc7-964f-d00d28732dc8.jpg"",""img/0868/7b212364-ff5f-4e28-9241-7eb6ea00161b.jpg""]","",""
"","3545","similarity","181","1573814","0.0-6.0-175.0","7","[""img/0864/49150900-7f25-4ce8-8d10-9b47a71d1997.jpg"",""img/0864/3651d070-2fc5-4848-b6a6-088a2d9ac5c9.jpg""]","",""
"","5367","similarity","182","1580189","0.0-6.0-176.0","1","[""img/0899/5b56dd3e-3f49-47cc-af84-16da6457753b.jpg"",""img/0862/064818ee-13d5-4618-bb24-21c7368ea278.jpg""]","",""
"","6344","similarity","183","1587541","0.0-6.0-177.0","2","[""img/0875/90da8d75-108a-44ad-b999-e21fee3860d3.jpg"",""img/0758/a085b443-b5d7-4cb2-9ad4-b9dab0fc23f1.jpg""]","",""
"","3868","similarity","184","1592413","0.0-6.0-178.0","1","[""img/0866/9b38d691-1802-4959-ab3f-fc902f0e4ea6.jpg"",""img/0901/effc03f6-8f9d-46db-a66c-16fc83891c5c.jpg""]","",""
"","5130","similarity","185","1598550","0.0-6.0-179.0","1","[""img/0769/022c7e3b-c3f2-4119-b4bc-f22fa7cae18c.jpg"",""img/0874/99f6563c-8a8d-4c1c-a41d-667b618c3fd5.jpg""]","",""
"","5561","similarity","186","1605118","0.0-6.0-180.0","5","[""img/0875/cff79b3a-a797-4393-9757-6275f999ec04.jpg"",""img/0881/0c7068da-d0d9-4103-bda1-74ef7a2b32c3.jpg""]","",""
"","4214","similarity","187","1610342","0.0-6.0-181.0","6","[""img/0866/bf14b5bd-fb55-47db-86b9-4f8aeb9a6dad.jpg"",""img/0868/6a28c3b0-3d76-498a-9fb7-ddafc665eca8.jpg""]","",""
"","4521","similarity","188","1615870","0.0-6.0-182.0","1","[""img/0899/ad8268c5-8199-48d0-ad70-c5b6d6c599ec.jpg"",""img/0758/2fa3e613-e676-4e6e-bd12-705327eeb3e1.jpg""]","",""
"","6440","similarity","189","1623318","0.0-6.0-183.0","3","[""img/0874/eba003b4-cdab-4eee-8bc3-f064c7d94165.jpg"",""img/0875/99698b4d-b4a1-44bc-8c83-8ea755bbbf61.jpg""]","",""
"","4145","similarity","190","1628470","0.0-6.0-184.0","2","[""img/0904/06dacdc5-2206-4fb8-92b7-88042d22833c.jpg"",""img/0862/a0a3a7ba-7798-46a3-b4ca-05e1f6e581d0.jpg""]","",""
"","4480","similarity","191","1633958","0.0-6.0-185.0","5","[""img/0902/af40b98b-3d23-4d95-b401-49ba5783ce39.jpg"",""img/0766/aaec5f42-7f0a-4a16-aeca-488d757acbcc.jpg""]","",""
"","4720","similarity","192","1639686","0.0-6.0-186.0","2","[""img/0758/a709631e-3705-4725-ac40-f0d916924f08.jpg"",""img/0769/db94b61b-a5a7-4861-9d32-7b02ad194fb0.jpg""]","",""
"","5936","similarity","193","1646630","0.0-6.0-187.0","6","[""img/0881/14236cf2-6b95-48b8-9368-78af09d2d27f.jpg"",""img/0881/62a64f90-7a72-4aee-a1a1-0c548ac9bdda.jpg""]","",""
"","4739","similarity","194","1652382","0.0-6.0-188.0","5","[""img/0758/eabcd7a8-56ad-4fd2-bc24-90f6b7b33265.jpg"",""img/0866/c446214b-a368-4c65-ae39-ea46894256ab.jpg""]","",""
"","4283","similarity","195","1657670","0.0-6.0-189.0","5","[""img/0764/da207710-e7e4-4f42-b2e6-99b5f357f433.jpg"",""img/0898/a114b375-cb89-44ba-9498-74213f1ecdee.jpg""]","",""
"","4385","similarity","196","1663062","0.0-6.0-190.0","6","[""img/0903/8931c67c-a43d-47d3-a4c9-42aa2f81d344.jpg"",""img/0901/1ede21d9-384f-4150-86b5-e1c57b5dc1d4.jpg""]","",""
"","3944","similarity","197","1668014","0.0-6.0-191.0","6","[""img/0902/9f543501-3cf1-45a7-a2f1-eeca87cc15b9.jpg"",""img/0898/4184e5a2-84ea-4f36-9b42-ae58646f6f87.jpg""]","",""
"","5247","similarity","198","1674270","0.0-6.0-192.0","3","[""img/0864/66091c27-e588-4476-8af9-265dc6be4156.jpg"",""img/0901/c6c877e0-dd63-4e00-9657-33af29d55aab.jpg""]","",""
"","4233","similarity","199","1679510","0.0-6.0-193.0","1","[""img/0894/05161000-f476-499b-a878-c13c7f347fd9.jpg"",""img/0881/f037e3b0-09cb-4a83-b2d9-6a71fe474e63.jpg""]","",""
"","3530","similarity","200","1684047","0.0-6.0-194.0","6","[""img/0868/8b0b8473-e2c0-4331-aa56-c3a5c29369da.jpg"",""img/0868/1a62b2b2-18f5-466e-b564-5176a57c565e.jpg""]","",""
"","5763","similarity","201","1690823","0.0-6.0-195.0","6","[""img/0899/66bf4113-ee12-426c-84d2-ea410b6c803e.jpg"",""img/0764/e0788029-9d7f-414c-b747-46d2a99f7c86.jpg""]","",""
"","4783","similarity","202","1696614","0.0-6.0-196.0","3","[""img/0881/5fe04dd0-5c74-47b7-99c8-b068db9ca26a.jpg"",""img/0904/da170c1b-9651-4f08-b231-2bdd1d9a046f.jpg""]","",""
"","4300","similarity","203","1701918","0.0-6.0-197.0","3","[""img/0864/f92649a2-0590-4d31-9a7a-1bfb81666a2d.jpg"",""img/0902/3b243e54-0803-4c29-af42-4037c2118495.jpg""]","",""
"","4520","similarity","204","1707446","0.0-6.0-198.0","6","[""img/0894/7dd6ff43-f8fc-408a-8a41-a2b261871820.jpg"",""img/0904/24fc38fe-842c-4831-ad8a-b1de5c25c0a8.jpg""]","",""
"","4219","similarity","205","1712678","0.0-6.0-199.0","7","[""img/0901/3db47171-0139-4235-82cd-0b1787b6775f.jpg"",""img/0901/b9141736-3041-4385-a586-b1fe911c76a5.jpg""]","",""
"","6369","similarity","206","1720054","0.0-6.0-200.0","2","[""img/0894/e6385e52-6c35-43bd-b0af-bc803d107b11.jpg"",""img/0860/8277806e-b684-4474-8f7b-3fca946d7d4f.jpg""]","",""
"","5167","similarity","207","1726230","0.0-6.0-201.0","6","[""img/0898/cd3aaa3f-efa9-4ab3-8d6f-a6a9273ddf42.jpg"",""img/0903/5c6b1f57-b3a2-40f5-9fb1-82785e24b6a0.jpg""]","",""
"","4538","similarity","208","1731783","0.0-6.0-202.0","1","[""img/0864/ea327690-500b-4137-bf91-451b309fe6a5.jpg"",""img/0894/767a0eec-1064-46b1-b1aa-dfa02b0cd74e.jpg""]","",""
"","5779","similarity","209","1738566","0.0-6.0-203.0","3","[""img/0874/ca23d307-fc00-4d7d-9106-584c6eb21b4d.jpg"",""img/0860/5bff793e-cbd5-4d7e-b628-0ac2b0e30b64.jpg""]","",""
"","6561","similarity","210","1746134","0.0-6.0-204.0","3","[""img/0862/e0f1a4e9-e1b6-45f7-af67-89f334e6630d.jpg"",""img/0875/8521fd58-3b1e-4dc5-97ae-804edfa6734a.jpg""]","",""
"","5663","similarity","211","1752806","0.0-6.0-205.0","3","[""img/0867/85a96c62-548f-4994-9553-819e03c3135a.jpg"",""img/0881/f62bdcd1-a4b7-4d48-83da-d9c9e01c8727.jpg""]","",""
"","5271","similarity","212","1759086","0.0-6.0-206.0","6","[""img/0901/a6c90438-fa7c-4418-ac7c-16c2e772dd98.jpg"",""img/0902/d49743d6-67ae-4c2e-a939-8fd895a0f18e.jpg""]","",""
"","4016","similarity","213","1764110","0.0-6.0-207.0","1","[""img/0899/76ad07e2-ca25-45eb-84f2-8d80b8ca3e26.jpg"",""img/0864/5f74a653-3bdc-4308-8cca-ac667dc22e1f.jpg""]","",""
"","4752","similarity","214","1769870","0.0-6.0-208.0","5","[""img/0901/58978a6d-a3e2-4c59-8d62-f60693ecc0f6.jpg"",""img/0769/14d393ce-e5be-4ca1-86ce-cc27d4b6074c.jpg""]","",""
"","4256","similarity","215","1784038","0.0-6.0-209.0","7","[""img/0902/5b45a7a0-81c8-4a71-aaa2-2ce09adb5a29.jpg"",""img/0902/0c760cc9-10ac-429e-8957-a7d51fc99683.jpg""]","",""
"[{""page_index"":0,""viewing_time"":6095}]","6095","instructions","216","1791134","0.0-7.0","","","",""
"","9266","image-multi-choice","217","1801449","0.0-8.0-0.0","","","{""Q0"":""Orange-crowned Warbler""}","Nashville Warbler"
"","7916","image-multi-choice","218","1810391","0.0-8.0-1.0","","","{""Q0"":""Black-and-white Warbler""}","Black-and-white Warbler"
"","6431","image-multi-choice","219","1817840","0.0-8.0-2.0","","","{""Q0"":""Townsend's Warbler""}","Townsend's Warbler"
"","5965","image-multi-choice","220","1824832","0.0-8.0-3.0","","","{""Q0"":""Lark Sparrow""}","Lark Sparrow"
"","4091","image-multi-choice","221","1829951","0.0-8.0-4.0","","","{""Q0"":""Yellow Warbler""}","Yellow Warbler"
"","8647","image-multi-choice","222","1839624","0.0-8.0-5.0","","","{""Q0"":""Orange-crowned Warbler""}","Orange-crowned Warbler"
"","4570","image-multi-choice","223","1845223","0.0-8.0-6.0","","","{""Q0"":""White-throated Sparrow""}","White-throated Sparrow"
"","4776","image-multi-choice","224","1851024","0.0-8.0-7.0","","","{""Q0"":""Fox Sparrow""}","Fox Sparrow"
"","7345","image-multi-choice","225","1859392","0.0-8.0-8.0","","","{""Q0"":""Vesper Sparrow""}","Song Sparrow"
"","10772","image-multi-choice","226","1871185","0.0-8.0-9.0","","","{""Q0"":""Blackburnian Warbler""}","Blackburnian Warbler"
"","7402","image-multi-choice","227","1879608","0.0-8.0-10.0","","","{""Q0"":""Vesper Sparrow""}","Vesper Sparrow"
"","5788","image-multi-choice","228","1886416","0.0-8.0-11.0","","","{""Q0"":""White-crowned Sparrow""}","White-crowned Sparrow"
"","6287","image-multi-choice","229","1893727","0.0-8.0-12.0","","","{""Q0"":""American Tree Sparrow""}","American Tree Sparrow"
"","12206","image-multi-choice","230","1906968","0.0-8.0-13.0","","","{""Q0"":""Orange-crowned Warbler""}","Tennessee Warbler"
"","12706","image-multi-choice","231","1920696","0.0-8.0-14.0","","","{""Q0"":""Magnolia Warbler""}","Magnolia Warbler"
"","15145","image-multi-choice","232","1936864","0.0-8.0-15.0","","","{""Q0"":""Northern Waterthrush""}","Northern Waterthrush"
"","6564","image-multi-choice","233","1944448","0.0-8.0-16.0","","","{""Q0"":""Chipping Sparrow""}","Chipping Sparrow"
"","29798","image-multi-choice","234","1975280","0.0-8.0-17.0","","","{""Q0"":""Swamp Sparrow""}","Swamp Sparrow"
"","5940","image-multi-choice","235","1982248","0.0-8.0-18.0","","","{""Q0"":""Lincoln's Sparrow""}","Lincoln's Sparrow"
"","4507","image-multi-choice","236","1987777","0.0-8.0-19.0","","","{""Q0"":""Ovenbird""}","Ovenbird"
