[{"view_history":"[{\"page_index\":0,\"viewing_time\":22742}]","rt":22743,"trial_type":"instructions","trial_index":0,"time_elapsed":22744,"internal_node_id":"0.0-0.0"},{"sim_score":4,"rt":15947,"stimulus":"[\"img/866.jpg\",\"img/868.jpg\"]","trial_type":"similarity_demo","trial_index":1,"time_elapsed":39699,"internal_node_id":"0.0-1.0"},{"view_history":"[{\"page_index\":0,\"viewing_time\":13037}]","rt":13037,"trial_type":"instructions","trial_index":2,"time_elapsed":53737,"internal_node_id":"0.0-2.0"},{"sim_score":1,"rt":6410,"stimulus":"[\"img/766.jpg\",\"img/867.jpg\"]","trial_type":"similarity_demo","trial_index":3,"time_elapsed":61152,"internal_node_id":"0.0-3.0"},{"view_history":"[{\"page_index\":0,\"viewing_time\":6579}]","rt":6580,"trial_type":"instructions","trial_index":4,"time_elapsed":68734,"internal_node_id":"0.0-4.0"},{"view_history":"[{\"page_index\":0,\"viewing_time\":9461}]","rt":9462,"trial_type":"instructions","trial_index":5,"time_elapsed":79197,"internal_node_id":"0.0-5.0"},{"sim_score":3,"rt":7299,"stimulus":"[\"img/0868/0d3abd3a-b6c3-4584-a9f7-e2da63748b3d.jpg\",\"img/0901/a0d65c84-3f20-476a-92d1-0c01e8019cf4.jpg\"]","trial_type":"similarity","trial_index":6,"time_elapsed":87501,"internal_node_id":"0.0-6.0-0.0"},{"sim_score":4,"rt":6328,"stimulus":"[\"img/0769/da36e3f7-2337-434f-ab57-11822dd7eed7.jpg\",\"img/0867/aa05d113-fc19-4756-a8eb-7878f580bc92.jpg\"]","trial_type":"similarity","trial_index":7,"time_elapsed":94834,"internal_node_id":"0.0-6.0-1.0"},{"sim_score":3,"rt":5162,"stimulus":"[\"img/0766/1bc0dccc-a5b5-4375-87fa-28360ca42b12.jpg\",\"img/0898/0c7dde4f-efce-4b7a-9387-6921635b7890.jpg\"]","trial_type":"similarity","trial_index":8,"time_elapsed":101001,"internal_node_id":"0.0-6.0-2.0"},{"sim_score":3,"rt":5858,"stimulus":"[\"img/0902/8af4182a-9af9-4212-a436-9195555112d6.jpg\",\"img/0881/c843e210-bdfe-4a7c-8bbe-fcea1f90fe1c.jpg\"]","trial_type":"similarity","trial_index":9,"time_elapsed":107864,"internal_node_id":"0.0-6.0-3.0"},{"sim_score":5,"rt":5217,"stimulus":"[\"img/0894/5f15154e-e72e-4ce5-aafb-bce6f0564006.jpg\",\"img/0894/1b3888e6-cf36-4c4a-a039-187aa5cb71ac.jpg\"]","trial_type":"similarity","trial_index":10,"time_elapsed":114085,"internal_node_id":"0.0-6.0-4.0"},{"sim_score":4,"rt":5374,"stimulus":"[\"img/0874/99f6563c-8a8d-4c1c-a41d-667b618c3fd5.jpg\",\"img/0899/4f7bc593-8ddd-4da3-a0b9-84da730d3370.jpg\"]","trial_type":"similarity","trial_index":11,"time_elapsed":120464,"internal_node_id":"0.0-6.0-5.0"},{"sim_score":2,"rt":7028,"stimulus":"[\"img/0904/ba8e689e-9ca6-4608-a2a1-3b0940666ae6.jpg\",\"img/0764/b328441c-f81c-486c-9eae-b947c70ba7cd.jpg\"]","trial_type":"similarity","trial_index":12,"time_elapsed":128496,"internal_node_id":"0.0-6.0-6.0"},{"sim_score":2,"rt":7073,"stimulus":"[\"img/0899/66bf4113-ee12-426c-84d2-ea410b6c803e.jpg\",\"img/0898/68476bbb-34a1-42d9-8bc1-deab783d4489.jpg\"]","trial_type":"similarity","trial_index":13,"time_elapsed":136574,"internal_node_id":"0.0-6.0-7.0"},{"sim_score":1,"rt":3316,"stimulus":"[\"img/0874/a82926a3-0b43-4add-803c-d5f9ea7798ee.jpg\",\"img/0903/81368973-de81-46f4-844f-b901f3bfd66d.jpg\"]","trial_type":"similarity","trial_index":14,"time_elapsed":140894,"internal_node_id":"0.0-6.0-8.0"},{"sim_score":6,"rt":5397,"stimulus":"[\"img/0881/44e09805-5a25-4f17-a716-4ad4a331b174.jpg\",\"img/0758/821c68d3-5cb0-4eae-8659-30e6263fca39.jpg\"]","trial_type":"similarity","trial_index":15,"time_elapsed":147296,"internal_node_id":"0.0-6.0-9.0"},{"sim_score":5,"rt":4081,"stimulus":"[\"img/0898/993d8f2d-bef7-4251-a193-0f93a32b7763.jpg\",\"img/0901/548d1110-7cb8-42a2-9927-9798875c8b5c.jpg\"]","trial_type":"similarity","trial_index":16,"time_elapsed":152381,"internal_node_id":"0.0-6.0-10.0"},{"sim_score":4,"rt":4981,"stimulus":"[\"img/0903/2a9c8033-3e70-47fa-816d-97ee1813a3a3.jpg\",\"img/0769/82ab9db6-4578-4e79-874f-f09100439f09.jpg\"]","trial_type":"similarity","trial_index":17,"time_elapsed":158366,"internal_node_id":"0.0-6.0-11.0"},{"sim_score":1,"rt":4510,"stimulus":"[\"img/0764/952d7adc-dc40-4aee-acce-18c2a1d02ea1.jpg\",\"img/0868/77091fc7-a590-4ebb-b915-fdb2483a2399.jpg\"]","trial_type":"similarity","trial_index":18,"time_elapsed":163879,"internal_node_id":"0.0-6.0-12.0"},{"sim_score":1,"rt":5623,"stimulus":"[\"img/0867/85a96c62-548f-4994-9553-819e03c3135a.jpg\",\"img/0903/8fcafe03-43df-4c45-9da5-0df3a1eeccc5.jpg\"]","trial_type":"similarity","trial_index":19,"time_elapsed":170506,"internal_node_id":"0.0-6.0-13.0"},{"sim_score":1,"rt":5735,"stimulus":"[\"img/0766/d919cedb-f9b7-4f30-83bb-3e9c65001ceb.jpg\",\"img/0758/6e95579b-5166-487c-b8cb-e417c6a218e3.jpg\"]","trial_type":"similarity","trial_index":20,"time_elapsed":177244,"internal_node_id":"0.0-6.0-14.0"},{"sim_score":3,"rt":5825,"stimulus":"[\"img/0902/7499db23-3a41-41ea-ab5b-6ab4d4c3ed35.jpg\",\"img/0860/61fb959d-d4d9-4de4-9e4e-4fa62b4cfcd5.jpg\"]","trial_type":"similarity","trial_index":21,"time_elapsed":184073,"internal_node_id":"0.0-6.0-15.0"},{"sim_score":3,"rt":7839,"stimulus":"[\"img/0769/8598a429-c671-4d2f-842c-32f681f5e412.jpg\",\"img/0875/34132396-d896-4c2d-8087-646dd867e769.jpg\"]","trial_type":"similarity","trial_index":22,"time_elapsed":192916,"internal_node_id":"0.0-6.0-16.0"},{"sim_score":2,"rt":4666,"stimulus":"[\"img/0904/63dd06dd-dccb-47ba-9740-eb33239e18a7.jpg\",\"img/0866/945c6710-d15b-4a5b-a8f6-69af0850357f.jpg\"]","trial_type":"similarity","trial_index":23,"time_elapsed":198586,"internal_node_id":"0.0-6.0-17.0"},{"sim_score":7,"rt":7029,"stimulus":"[\"img/0875/e7e66b13-b573-431e-b85e-288ce04a35a3.jpg\",\"img/0875/5a1e5100-0d94-4fec-bbe9-ca9894d2cf8e.jpg\"]","trial_type":"similarity","trial_index":24,"time_elapsed":206619,"internal_node_id":"0.0-6.0-18.0"},{"sim_score":7,"rt":4554,"stimulus":"[\"img/0758/7fba58df-2a7a-4b76-8a8f-62739f97f271.jpg\",\"img/0758/6cd8c362-ae2a-41eb-80a3-3a4f7ace1530.jpg\"]","trial_type":"similarity","trial_index":25,"time_elapsed":212177,"internal_node_id":"0.0-6.0-19.0"},{"sim_score":5,"rt":5196,"stimulus":"[\"img/0902/eb3e7e71-8ff1-4b88-a6a7-47e2c1ce1683.jpg\",\"img/0874/ca23d307-fc00-4d7d-9106-584c6eb21b4d.jpg\"]","trial_type":"similarity","trial_index":26,"time_elapsed":218376,"internal_node_id":"0.0-6.0-20.0"},{"sim_score":4,"rt":5813,"stimulus":"[\"img/0764/ca957454-126a-4bd3-b29c-7174a24c25dc.jpg\",\"img/0769/a3cfbdeb-acb3-4eac-87fb-4b117f42d4f8.jpg\"]","trial_type":"similarity","trial_index":27,"time_elapsed":225193,"internal_node_id":"0.0-6.0-21.0"},{"sim_score":1,"rt":4408,"stimulus":"[\"img/0901/168eb52c-c415-43f1-b5c8-e76e1a1ec247.jpg\",\"img/0874/c0378dac-9370-439a-8b79-db27c96fb390.jpg\"]","trial_type":"similarity","trial_index":28,"time_elapsed":230605,"internal_node_id":"0.0-6.0-22.0"},{"sim_score":2,"rt":3102,"stimulus":"[\"img/0875/d59ff733-eaff-4ee2-9443-06954dd0bcb6.jpg\",\"img/0903/776b74ee-a8ab-4ab8-a78d-097c0747538d.jpg\"]","trial_type":"similarity","trial_index":29,"time_elapsed":234711,"internal_node_id":"0.0-6.0-23.0"},{"sim_score":1,"rt":3316,"stimulus":"[\"img/0769/878531fd-e0e8-4ad1-b9ad-f018bb104ca0.jpg\",\"img/0881/7e822106-76f7-4b10-a805-14dc68b2cfaf.jpg\"]","trial_type":"similarity","trial_index":30,"time_elapsed":239031,"internal_node_id":"0.0-6.0-24.0"},{"sim_score":3,"rt":6950,"stimulus":"[\"img/0867/f8159067-056c-41f1-a136-c529fe5e970a.jpg\",\"img/0904/9b3568cc-3cf7-42be-9df3-fdafde7a58b8.jpg\"]","trial_type":"similarity","trial_index":31,"time_elapsed":246985,"internal_node_id":"0.0-6.0-25.0"},{"sim_score":3,"rt":4374,"stimulus":"[\"img/0860/71e1aad0-2cdf-43bb-94a4-a8c016997c30.jpg\",\"img/0881/e6746727-7f89-47ec-b939-d98abe78372d.jpg\"]","trial_type":"similarity","trial_index":32,"time_elapsed":252363,"internal_node_id":"0.0-6.0-26.0"},{"sim_score":7,"rt":5150,"stimulus":"[\"img/0866/bf14b5bd-fb55-47db-86b9-4f8aeb9a6dad.jpg\",\"img/0866/4a87911a-d5be-4d4e-ab8e-3d1f581bf507.jpg\"]","trial_type":"similarity","trial_index":33,"time_elapsed":258517,"internal_node_id":"0.0-6.0-27.0"},{"sim_score":5,"rt":8087,"stimulus":"[\"img/0764/1f95ab5f-fb65-4d70-b5db-d6bd6351a8aa.jpg\",\"img/0862/ad593cc7-cabe-4bb7-8e14-8a447a0717b4.jpg\"]","trial_type":"similarity","trial_index":34,"time_elapsed":267608,"internal_node_id":"0.0-6.0-28.0"},{"sim_score":1,"rt":4138,"stimulus":"[\"img/0904/09934646-45d2-4147-8fec-64a22a5ac822.jpg\",\"img/0758/9fb5b2fe-3f00-4fe6-973c-1ce10d5f4cd5.jpg\"]","trial_type":"similarity","trial_index":35,"time_elapsed":272749,"internal_node_id":"0.0-6.0-29.0"},{"sim_score":2,"rt":5444,"stimulus":"[\"img/0894/9b1333fd-3561-43bf-aee5-99b7b7ca3dc3.jpg\",\"img/0899/25ae6ec8-9565-49fe-a8bb-8d0666f52716.jpg\"]","trial_type":"similarity","trial_index":36,"time_elapsed":279195,"internal_node_id":"0.0-6.0-30.0"},{"sim_score":2,"rt":4151,"stimulus":"[\"img/0860/17b44a7d-c5ca-479f-9e87-f65a64f5c80e.jpg\",\"img/0904/9d30eff1-46ef-4453-b11e-124ef8145c00.jpg\"]","trial_type":"similarity","trial_index":37,"time_elapsed":284348,"internal_node_id":"0.0-6.0-31.0"},{"sim_score":6,"rt":4611,"stimulus":"[\"img/0874/31e22c7c-99aa-40b1-bf03-dd73fa2df4d6.jpg\",\"img/0881/f4e3e181-b3c9-4af2-a5a4-fc135ab70d2e.jpg\"]","trial_type":"similarity","trial_index":38,"time_elapsed":289962,"internal_node_id":"0.0-6.0-32.0"},{"sim_score":3,"rt":4847,"stimulus":"[\"img/0881/33d65d80-8a8e-4ecf-852d-0ad7725c17a2.jpg\",\"img/0899/93494f3b-d539-4075-b027-d82e344563da.jpg\"]","trial_type":"similarity","trial_index":39,"time_elapsed":295812,"internal_node_id":"0.0-6.0-33.0"},{"sim_score":4,"rt":6834,"stimulus":"[\"img/0866/386235d2-6857-41e7-88a8-25cfc3430025.jpg\",\"img/0862/e0f1a4e9-e1b6-45f7-af67-89f334e6630d.jpg\"]","trial_type":"similarity","trial_index":40,"time_elapsed":303649,"internal_node_id":"0.0-6.0-34.0"},{"sim_score":4,"rt":6043,"stimulus":"[\"img/0868/8b0b8473-e2c0-4331-aa56-c3a5c29369da.jpg\",\"img/0894/492d2f29-d7b9-4422-8be8-47fd58bfaa8b.jpg\"]","trial_type":"similarity","trial_index":41,"time_elapsed":310696,"internal_node_id":"0.0-6.0-35.0"},{"sim_score":7,"rt":3969,"stimulus":"[\"img/0860/c47fdead-eb02-4989-b078-26f4852f44fe.jpg\",\"img/0860/29a21a9f-54bb-4093-ad3f-04823ceaa89f.jpg\"]","trial_type":"similarity","trial_index":42,"time_elapsed":315669,"internal_node_id":"0.0-6.0-36.0"},{"sim_score":5,"rt":3249,"stimulus":"[\"img/0862/7918ca67-5bd3-4606-a5ea-c39fb11a9297.jpg\",\"img/0864/e336a4c5-6648-4fd7-b2f6-93a3fb83f8c6.jpg\"]","trial_type":"similarity","trial_index":43,"time_elapsed":319922,"internal_node_id":"0.0-6.0-37.0"},{"sim_score":4,"rt":6547,"stimulus":"[\"img/0766/db750ba0-ce04-46e1-b601-e1b80212bad2.jpg\",\"img/0866/23a224f3-2012-4fc8-8e0f-3c36f8de27fd.jpg\"]","trial_type":"similarity","trial_index":44,"time_elapsed":327471,"internal_node_id":"0.0-6.0-38.0"},{"sim_score":4,"rt":5746,"stimulus":"[\"img/0875/8521fd58-3b1e-4dc5-97ae-804edfa6734a.jpg\",\"img/0898/40f99fb2-64d2-4e72-8a7f-a1cf60741e69.jpg\"]","trial_type":"similarity","trial_index":45,"time_elapsed":334221,"internal_node_id":"0.0-6.0-39.0"},{"sim_score":6,"rt":4081,"stimulus":"[\"img/0766/00891401-e4c9-4ce1-bc19-f70740d174bc.jpg\",\"img/0769/688d0c52-ad73-4065-a5eb-f8c10d076bff.jpg\"]","trial_type":"similarity","trial_index":46,"time_elapsed":339306,"internal_node_id":"0.0-6.0-40.0"},{"sim_score":3,"rt":5375,"stimulus":"[\"img/0874/85eb9b8a-c4c6-4e5a-b8e7-363a87a82054.jpg\",\"img/0764/62fafeea-6274-48ce-976f-35d3d3484c65.jpg\"]","trial_type":"similarity","trial_index":47,"time_elapsed":358329,"internal_node_id":"0.0-6.0-41.0"},{"sim_score":3,"rt":3869,"stimulus":"[\"img/0868/d98ca254-b195-477f-b57e-5760a2717db8.jpg\",\"img/0902/24d10fe7-314f-4d5a-8c7b-b43121bba0a4.jpg\"]","trial_type":"similarity","trial_index":48,"time_elapsed":363202,"internal_node_id":"0.0-6.0-42.0"},{"sim_score":1,"rt":3034,"stimulus":"[\"img/0875/a4935837-7d3c-4df6-88c1-36a94d4991ca.jpg\",\"img/0899/8abe6c69-822c-436c-9bf2-96c818b49ba5.jpg\"]","trial_type":"similarity","trial_index":49,"time_elapsed":367240,"internal_node_id":"0.0-6.0-43.0"},{"sim_score":2,"rt":3621,"stimulus":"[\"img/0866/f756f7d1-9ad8-4a34-9ef6-7a443d705bfe.jpg\",\"img/0860/8277806e-b684-4474-8f7b-3fca946d7d4f.jpg\"]","trial_type":"similarity","trial_index":50,"time_elapsed":371865,"internal_node_id":"0.0-6.0-44.0"},{"sim_score":3,"rt":3553,"stimulus":"[\"img/0766/5d1b8041-c5a1-4b02-b4fe-3453d98a0d72.jpg\",\"img/0903/12bd8657-92e6-4c36-a06c-597e7a1d51f3.jpg\"]","trial_type":"similarity","trial_index":51,"time_elapsed":376420,"internal_node_id":"0.0-6.0-45.0"},{"sim_score":4,"rt":4095,"stimulus":"[\"img/0901/fb0a8e69-7f19-4e6e-a6bb-a48f97f9b4f3.jpg\",\"img/0904/2fd488e9-960f-41f7-8a44-33375f7d5051.jpg\"]","trial_type":"similarity","trial_index":52,"time_elapsed":381517,"internal_node_id":"0.0-6.0-46.0"},{"sim_score":2,"rt":2935,"stimulus":"[\"img/0758/dd559618-7f09-4a07-8018-d311c4a5ea29.jpg\",\"img/0902/fbef27fa-ac83-4936-ab78-9d1c20a383e1.jpg\"]","trial_type":"similarity","trial_index":53,"time_elapsed":385455,"internal_node_id":"0.0-6.0-47.0"},{"sim_score":7,"rt":3114,"stimulus":"[\"img/0764/b8e23f4f-ff19-4472-ad9b-2f85548ebca0.jpg\",\"img/0764/978aede9-4590-4ad0-b234-135c83e5d669.jpg\"]","trial_type":"similarity","trial_index":54,"time_elapsed":389573,"internal_node_id":"0.0-6.0-48.0"},{"sim_score":4,"rt":6074,"stimulus":"[\"img/0866/02f5e6b9-52b7-448c-9708-5b460d0c9a23.jpg\",\"img/0902/b03129ba-b087-4558-af37-e8399d6217d6.jpg\"]","trial_type":"similarity","trial_index":55,"time_elapsed":396649,"internal_node_id":"0.0-6.0-49.0"},{"sim_score":3,"rt":6096,"stimulus":"[\"img/0764/d7f3ac54-318a-4dac-a06b-62bed34d01a4.jpg\",\"img/0758/67c0be2f-9e91-48b3-8219-70ac0a1802fa.jpg\"]","trial_type":"similarity","trial_index":56,"time_elapsed":403748,"internal_node_id":"0.0-6.0-50.0"},{"sim_score":4,"rt":3936,"stimulus":"[\"img/0898/6cd3830b-d44e-4915-be2b-88d31424b91c.jpg\",\"img/0894/1a010553-d598-4b06-a772-81f1e7b3addb.jpg\"]","trial_type":"similarity","trial_index":57,"time_elapsed":408687,"internal_node_id":"0.0-6.0-51.0"},{"sim_score":6,"rt":4745,"stimulus":"[\"img/0875/5a716432-c6ca-4b1c-955a-2b8ac25198ee.jpg\",\"img/0866/11a1d141-be5e-443c-98c1-a9d4d9e3dec0.jpg\"]","trial_type":"similarity","trial_index":58,"time_elapsed":414436,"internal_node_id":"0.0-6.0-52.0"},{"sim_score":5,"rt":2710,"stimulus":"[\"img/0904/65e2b70a-b184-4da3-b5c0-5038bdf9469a.jpg\",\"img/0904/73920552-103b-4c9c-9ece-e0b8376b4504.jpg\"]","trial_type":"similarity","trial_index":59,"time_elapsed":418149,"internal_node_id":"0.0-6.0-53.0"},{"sim_score":6,"rt":3959,"stimulus":"[\"img/0769/50985283-d353-4abc-9abe-14a91d56ebe6.jpg\",\"img/0769/35f2dd39-40aa-498e-b401-9f1ef2622d00.jpg\"]","trial_type":"similarity","trial_index":60,"time_elapsed":423110,"internal_node_id":"0.0-6.0-54.0"},{"sim_score":2,"rt":7086,"stimulus":"[\"img/0898/cd3aaa3f-efa9-4ab3-8d6f-a6a9273ddf42.jpg\",\"img/0758/d57c2592-a317-4f63-91be-91a3a9afd222.jpg\"]","trial_type":"similarity","trial_index":61,"time_elapsed":431199,"internal_node_id":"0.0-6.0-55.0"},{"sim_score":4,"rt":4815,"stimulus":"[\"img/0769/ebef2ddc-ba59-4e0e-97f8-927864eb5081.jpg\",\"img/0902/e5a46bda-30d1-41ca-b36d-b8529b5a63d1.jpg\"]","trial_type":"similarity","trial_index":62,"time_elapsed":437016,"internal_node_id":"0.0-6.0-56.0"},{"sim_score":5,"rt":3565,"stimulus":"[\"img/0864/87c467d3-abca-482f-ad80-3766c21b1bb3.jpg\",\"img/0881/b549bc99-a61c-4450-bab5-9efc3a197bf0.jpg\"]","trial_type":"similarity","trial_index":63,"time_elapsed":441583,"internal_node_id":"0.0-6.0-57.0"},{"sim_score":3,"rt":3609,"stimulus":"[\"img/0758/335851a0-a55b-46d8-ab05-8463eda48349.jpg\",\"img/0868/e0aff734-077f-40dd-9781-74821abd3621.jpg\"]","trial_type":"similarity","trial_index":64,"time_elapsed":446196,"internal_node_id":"0.0-6.0-58.0"},{"sim_score":4,"rt":3070,"stimulus":"[\"img/0862/92fcd8a4-8193-4a6a-ae09-dd4a6338b0df.jpg\",\"img/0769/96556ef3-7fac-4c9d-8281-1cb0ea5081bc.jpg\"]","trial_type":"similarity","trial_index":65,"time_elapsed":450269,"internal_node_id":"0.0-6.0-59.0"},{"sim_score":3,"rt":6118,"stimulus":"[\"img/0764/a3226bc4-dcc3-4608-bde8-1414d685ce5c.jpg\",\"img/0903/f67c4ab9-f8c2-4fcd-848a-a54a7b031002.jpg\"]","trial_type":"similarity","trial_index":66,"time_elapsed":457390,"internal_node_id":"0.0-6.0-60.0"},{"sim_score":5,"rt":3250,"stimulus":"[\"img/0899/fef567a2-c121-4481-9af0-ff108d199bbf.jpg\",\"img/0899/565ccdd9-0933-4536-a625-3c0e25a713dd.jpg\"]","trial_type":"similarity","trial_index":67,"time_elapsed":461643,"internal_node_id":"0.0-6.0-61.0"},{"sim_score":3,"rt":2992,"stimulus":"[\"img/0860/c5ccd1a4-4bb7-48e1-9b25-72cfaf06909b.jpg\",\"img/0875/3ecb367d-e9eb-4826-8aaa-7aa72fb98019.jpg\"]","trial_type":"similarity","trial_index":68,"time_elapsed":465637,"internal_node_id":"0.0-6.0-62.0"},{"sim_score":2,"rt":2608,"stimulus":"[\"img/0868/1a62b2b2-18f5-466e-b564-5176a57c565e.jpg\",\"img/0874/7e4f2150-3b59-4a36-b5da-a4e0ba410531.jpg\"]","trial_type":"similarity","trial_index":69,"time_elapsed":469248,"internal_node_id":"0.0-6.0-63.0"},{"sim_score":3,"rt":3654,"stimulus":"[\"img/0758/20497cbe-ddae-489e-86e2-ab06985ed07c.jpg\",\"img/0862/d0ca4c78-fc35-46ed-bdcc-8e124283c53e.jpg\"]","trial_type":"similarity","trial_index":70,"time_elapsed":473906,"internal_node_id":"0.0-6.0-64.0"},{"sim_score":5,"rt":3710,"stimulus":"[\"img/0904/fe746a3f-8458-48d0-8a13-8cba2a9df9f8.jpg\",\"img/0898/661621d4-a14e-487c-8c74-354134a29710.jpg\"]","trial_type":"similarity","trial_index":71,"time_elapsed":478619,"internal_node_id":"0.0-6.0-65.0"},{"sim_score":3,"rt":3260,"stimulus":"[\"img/0881/7e31e5dc-2240-4b1b-b5a0-3acd980099ef.jpg\",\"img/0866/c446214b-a368-4c65-ae39-ea46894256ab.jpg\"]","trial_type":"similarity","trial_index":72,"time_elapsed":482883,"internal_node_id":"0.0-6.0-66.0"},{"sim_score":3,"rt":3238,"stimulus":"[\"img/0867/179ab87a-8eac-4c52-a41f-2e48e3120f09.jpg\",\"img/0898/a8f16b02-e19f-423b-86c3-a36562ae1f9b.jpg\"]","trial_type":"similarity","trial_index":73,"time_elapsed":487125,"internal_node_id":"0.0-6.0-67.0"},{"sim_score":2,"rt":3036,"stimulus":"[\"img/0902/6c2c243a-f663-45db-baf5-038d3d58c589.jpg\",\"img/0764/f9f890e6-3c2f-40cd-84e9-85e0b54cb28e.jpg\"]","trial_type":"similarity","trial_index":74,"time_elapsed":491164,"internal_node_id":"0.0-6.0-68.0"},{"sim_score":3,"rt":4881,"stimulus":"[\"img/0875/2c361b79-c3d1-4eda-812e-bf03192407bf.jpg\",\"img/0867/26611f4e-d694-4460-b7e2-43c62753ddc3.jpg\"]","trial_type":"similarity","trial_index":75,"time_elapsed":497048,"internal_node_id":"0.0-6.0-69.0"},{"sim_score":5,"rt":3396,"stimulus":"[\"img/0766/d50d734f-285c-4840-bc7a-c8dd4aff391e.jpg\",\"img/0764/39a9fc7e-b863-432c-9374-de43983f31a5.jpg\"]","trial_type":"similarity","trial_index":76,"time_elapsed":501447,"internal_node_id":"0.0-6.0-70.0"},{"sim_score":4,"rt":3924,"stimulus":"[\"img/0894/e6385e52-6c35-43bd-b0af-bc803d107b11.jpg\",\"img/0867/cc72ed48-7704-422c-86d6-467a1145287a.jpg\"]","trial_type":"similarity","trial_index":77,"time_elapsed":506374,"internal_node_id":"0.0-6.0-71.0"},{"sim_score":3,"rt":2855,"stimulus":"[\"img/0875/5a7c4e35-6514-4e12-8879-d16071da4cd6.jpg\",\"img/0764/b887d7c6-aa81-4637-af8e-05135757ac59.jpg\"]","trial_type":"similarity","trial_index":78,"time_elapsed":510233,"internal_node_id":"0.0-6.0-72.0"},{"sim_score":7,"rt":2450,"stimulus":"[\"img/0867/de92135f-5b65-4ed9-b245-188292c7c2f8.jpg\",\"img/0866/9b38d691-1802-4959-ab3f-fc902f0e4ea6.jpg\"]","trial_type":"similarity","trial_index":79,"time_elapsed":513687,"internal_node_id":"0.0-6.0-73.0"},{"sim_score":2,"rt":2900,"stimulus":"[\"img/0903/07b445ee-0cdb-4d2c-a23b-d727613f4059.jpg\",\"img/0758/65d426d6-3ff6-415d-8654-a43b83ecc4fe.jpg\"]","trial_type":"similarity","trial_index":80,"time_elapsed":517591,"internal_node_id":"0.0-6.0-74.0"},{"sim_score":2,"rt":5860,"stimulus":"[\"img/0766/09f646c8-a69e-4ed3-879c-8d29b04ad7f9.jpg\",\"img/0868/fd307a36-9a3a-47d7-ab7c-f810d0b35040.jpg\"]","trial_type":"similarity","trial_index":81,"time_elapsed":524454,"internal_node_id":"0.0-6.0-75.0"},{"sim_score":3,"rt":4375,"stimulus":"[\"img/0874/767f289c-9814-4496-803f-745cc8913d1f.jpg\",\"img/0766/71b81ebd-0937-4d7f-b8bf-c4e46a4728fd.jpg\"]","trial_type":"similarity","trial_index":82,"time_elapsed":529832,"internal_node_id":"0.0-6.0-76.0"},{"sim_score":2,"rt":3317,"stimulus":"[\"img/0881/48ed65a5-471f-41af-86ec-3793805c116d.jpg\",\"img/0868/4e626425-63c8-484a-8a1d-e66ee4e0bef8.jpg\"]","trial_type":"similarity","trial_index":83,"time_elapsed":534152,"internal_node_id":"0.0-6.0-77.0"},{"sim_score":2,"rt":3564,"stimulus":"[\"img/0758/eabcd7a8-56ad-4fd2-bc24-90f6b7b33265.jpg\",\"img/0901/8bb79e82-9c43-4b6f-a655-40655519598b.jpg\"]","trial_type":"similarity","trial_index":84,"time_elapsed":538719,"internal_node_id":"0.0-6.0-78.0"},{"sim_score":3,"rt":4025,"stimulus":"[\"img/0881/445edb15-bd7f-4af3-8bd5-c6ad9677bb31.jpg\",\"img/0898/79233891-305a-4a6a-8ddf-5c8604858203.jpg\"]","trial_type":"similarity","trial_index":85,"time_elapsed":543748,"internal_node_id":"0.0-6.0-79.0"},{"sim_score":1,"rt":2462,"stimulus":"[\"img/0867/2e1a0b58-cdb1-4107-a14e-452530d7b9b0.jpg\",\"img/0758/e38fd80d-18d0-42f3-b848-f930788e8bd7.jpg\"]","trial_type":"similarity","trial_index":86,"time_elapsed":547213,"internal_node_id":"0.0-6.0-80.0"},{"sim_score":4,"rt":3103,"stimulus":"[\"img/0769/e31b3bd8-efcb-413e-aa8c-75fac2b8f2ac.jpg\",\"img/0899/0433d056-aa30-4f8a-9aa1-abbb951e4edd.jpg\"]","trial_type":"similarity","trial_index":87,"time_elapsed":551320,"internal_node_id":"0.0-6.0-81.0"},{"sim_score":7,"rt":2811,"stimulus":"[\"img/0903/8f7f9939-b8e6-433f-93dd-b362496c80a7.jpg\",\"img/0903/24477210-856c-4550-9de0-9f85a32762eb.jpg\"]","trial_type":"similarity","trial_index":88,"time_elapsed":555134,"internal_node_id":"0.0-6.0-82.0"},{"sim_score":3,"rt":5060,"stimulus":"[\"img/0867/a498eef3-9fa4-4ab2-9778-4ae82ac40dc5.jpg\",\"img/0766/989c5c7f-1aff-4442-ac63-9d46acf4a891.jpg\"]","trial_type":"similarity","trial_index":89,"time_elapsed":571434,"internal_node_id":"0.0-6.0-83.0"},{"sim_score":5,"rt":7020,"stimulus":"[\"img/0902/b56db912-c3c0-4fc2-b325-d640acd7cb58.jpg\",\"img/0867/bf560d4f-dee3-4f11-a385-705cc1aa5f3c.jpg\"]","trial_type":"similarity","trial_index":90,"time_elapsed":579457,"internal_node_id":"0.0-6.0-84.0"},{"sim_score":3,"rt":2823,"stimulus":"[\"img/0901/00acf6c1-b66e-4060-bb04-4caf29b5a8b0.jpg\",\"img/0875/dbdd643e-6d0e-4a5c-ab57-b9c29b9c981a.jpg\"]","trial_type":"similarity","trial_index":91,"time_elapsed":583282,"internal_node_id":"0.0-6.0-85.0"},{"sim_score":3,"rt":4195,"stimulus":"[\"img/0764/03c07b98-3f18-4b71-bb70-ecff564a78d1.jpg\",\"img/0866/93a27239-8317-4e08-98ca-d8b1ff298e07.jpg\"]","trial_type":"similarity","trial_index":92,"time_elapsed":588480,"internal_node_id":"0.0-6.0-86.0"},{"sim_score":1,"rt":3677,"stimulus":"[\"img/0901/08d6d1d1-c043-43c4-bb08-d45e062822b9.jpg\",\"img/0894/e2446cf5-cd48-486a-badc-76498e087fbe.jpg\"]","trial_type":"similarity","trial_index":93,"time_elapsed":593160,"internal_node_id":"0.0-6.0-87.0"},{"sim_score":3,"rt":3947,"stimulus":"[\"img/0898/a114b375-cb89-44ba-9498-74213f1ecdee.jpg\",\"img/0769/db94b61b-a5a7-4861-9d32-7b02ad194fb0.jpg\"]","trial_type":"similarity","trial_index":94,"time_elapsed":598110,"internal_node_id":"0.0-6.0-88.0"},{"sim_score":7,"rt":3283,"stimulus":"[\"img/0769/04347740-f8f6-48bb-887a-f68babd0a0d4.jpg\",\"img/0894/05161000-f476-499b-a878-c13c7f347fd9.jpg\"]","trial_type":"similarity","trial_index":95,"time_elapsed":602396,"internal_node_id":"0.0-6.0-89.0"},{"sim_score":4,"rt":5939,"stimulus":"[\"img/0862/e8cc3bdf-cc43-4565-bccf-492626c70953.jpg\",\"img/0874/adf9a8f1-c40b-402b-b95b-1e85a54a7b62.jpg\"]","trial_type":"similarity","trial_index":96,"time_elapsed":609338,"internal_node_id":"0.0-6.0-90.0"},{"sim_score":3,"rt":3677,"stimulus":"[\"img/0894/bd34223a-2f66-4e16-9d18-193a746b69ff.jpg\",\"img/0766/fd74fdbb-ea40-4f3a-a091-38d08dfd636e.jpg\"]","trial_type":"similarity","trial_index":97,"time_elapsed":614018,"internal_node_id":"0.0-6.0-91.0"},{"sim_score":1,"rt":2901,"stimulus":"[\"img/0874/a3bc679d-619f-4db6-bb68-116dcb757d9c.jpg\",\"img/0867/5e07b34d-b40f-4b1c-ac10-49975bace45f.jpg\"]","trial_type":"similarity","trial_index":98,"time_elapsed":617922,"internal_node_id":"0.0-6.0-92.0"},{"sim_score":1,"rt":2788,"stimulus":"[\"img/0899/d8f2dd94-570e-4e8c-a087-d96090fb9e8c.jpg\",\"img/0868/179a5502-ab5c-478e-8263-5a1fbcc101d2.jpg\"]","trial_type":"similarity","trial_index":99,"time_elapsed":621713,"internal_node_id":"0.0-6.0-93.0"},{"sim_score":3,"rt":3654,"stimulus":"[\"img/0903/14f179a2-8786-48a2-8377-88d1d404341b.jpg\",\"img/0862/24cdc752-c2e5-4a17-86a6-6f2045d8553b.jpg\"]","trial_type":"similarity","trial_index":100,"time_elapsed":626371,"internal_node_id":"0.0-6.0-94.0"},{"sim_score":3,"rt":3598,"stimulus":"[\"img/0899/fd9efb43-701f-4cd6-baaa-4c38315f4bdc.jpg\",\"img/0766/ba35c0fc-4d5b-490d-959e-c94b279cdd02.jpg\"]","trial_type":"similarity","trial_index":101,"time_elapsed":630972,"internal_node_id":"0.0-6.0-95.0"},{"sim_score":7,"rt":2563,"stimulus":"[\"img/0867/075e0f95-856b-4cbb-acf5-092393aaf04e.jpg\",\"img/0868/83b4350a-3b70-4cea-b7f5-b5b56f3050a8.jpg\"]","trial_type":"similarity","trial_index":102,"time_elapsed":634539,"internal_node_id":"0.0-6.0-96.0"},{"sim_score":4,"rt":6309,"stimulus":"[\"img/0862/fb26cb07-d5a9-4653-813c-f41609f26cd5.jpg\",\"img/0901/4d1bed7e-3c4e-4f6c-ada9-4beb66ba9e39.jpg\"]","trial_type":"similarity","trial_index":103,"time_elapsed":641851,"internal_node_id":"0.0-6.0-97.0"},{"sim_score":1,"rt":3858,"stimulus":"[\"img/0875/527ced51-8e53-4aab-ab05-86df219104c0.jpg\",\"img/0766/dd3e18d0-0c98-4d05-b850-69976ee8cd75.jpg\"]","trial_type":"similarity","trial_index":104,"time_elapsed":646712,"internal_node_id":"0.0-6.0-98.0"},{"sim_score":5,"rt":3353,"stimulus":"[\"img/0758/a085b443-b5d7-4cb2-9ad4-b9dab0fc23f1.jpg\",\"img/0874/1016b306-087c-4afc-aa08-fa527b28dc76.jpg\"]","trial_type":"similarity","trial_index":105,"time_elapsed":651067,"internal_node_id":"0.0-6.0-99.0"},{"sim_score":2,"rt":3371,"stimulus":"[\"img/0904/1d10df11-b5c8-4370-9a6b-097a7f965895.jpg\",\"img/0868/293079b8-7e0c-4afd-a390-1e5d35fe3ded.jpg\"]","trial_type":"similarity","trial_index":106,"time_elapsed":655442,"internal_node_id":"0.0-6.0-100.0"},{"sim_score":2,"rt":3790,"stimulus":"[\"img/0903/2c7b4aed-6038-4aac-958a-e3e58341c313.jpg\",\"img/0866/d266fece-59b3-46fa-b69f-96f6efb81b59.jpg\"]","trial_type":"similarity","trial_index":107,"time_elapsed":660235,"internal_node_id":"0.0-6.0-101.0"},{"sim_score":3,"rt":3665,"stimulus":"[\"img/0868/6a28c3b0-3d76-498a-9fb7-ddafc665eca8.jpg\",\"img/0769/1ca58b80-2365-446d-9616-6c1719e6c46f.jpg\"]","trial_type":"similarity","trial_index":108,"time_elapsed":664903,"internal_node_id":"0.0-6.0-102.0"},{"sim_score":3,"rt":2968,"stimulus":"[\"img/0902/4e0baa32-988e-46f6-989d-f669225ab645.jpg\",\"img/0899/57476fed-5962-4272-8fc9-b317bb777b54.jpg\"]","trial_type":"similarity","trial_index":109,"time_elapsed":668875,"internal_node_id":"0.0-6.0-103.0"},{"sim_score":2,"rt":3060,"stimulus":"[\"img/0868/5fa7f9d0-f0e5-454c-8224-74d964818f56.jpg\",\"img/0862/1c20f772-3a51-4a80-aac0-f57dc9f86c28.jpg\"]","trial_type":"similarity","trial_index":110,"time_elapsed":672937,"internal_node_id":"0.0-6.0-104.0"},{"sim_score":3,"rt":3553,"stimulus":"[\"img/0903/39365c8e-a733-4801-ac7d-b87e38c3784b.jpg\",\"img/0894/76c1201f-8524-4865-85e6-dda8cb4ac986.jpg\"]","trial_type":"similarity","trial_index":111,"time_elapsed":677493,"internal_node_id":"0.0-6.0-105.0"},{"sim_score":5,"rt":3126,"stimulus":"[\"img/0864/ef9cbca0-4be8-435d-ad49-977259e80409.jpg\",\"img/0874/3ce41e7c-40c8-4d58-a546-171114521796.jpg\"]","trial_type":"similarity","trial_index":112,"time_elapsed":681622,"internal_node_id":"0.0-6.0-106.0"},{"sim_score":3,"rt":2844,"stimulus":"[\"img/0862/57b6f83f-c763-4858-830d-102f97bfefbf.jpg\",\"img/0902/97022122-01e4-46c3-a34f-c6260ad28428.jpg\"]","trial_type":"similarity","trial_index":113,"time_elapsed":685469,"internal_node_id":"0.0-6.0-107.0"},{"sim_score":5,"rt":2191,"stimulus":"[\"img/0904/a8c3c7d2-9bcf-4347-9e03-8203adfc1fc5.jpg\",\"img/0903/680ed18e-b311-4ecf-9b00-7dea32128334.jpg\"]","trial_type":"similarity","trial_index":114,"time_elapsed":688664,"internal_node_id":"0.0-6.0-108.0"},{"sim_score":3,"rt":3171,"stimulus":"[\"img/0764/06ea144f-f4f3-4a14-ba47-f20f35c561e0.jpg\",\"img/0864/c3b63e8f-ea39-4d70-a1f2-b3fe4be8eb75.jpg\"]","trial_type":"similarity","trial_index":115,"time_elapsed":692838,"internal_node_id":"0.0-6.0-109.0"},{"sim_score":3,"rt":3485,"stimulus":"[\"img/0866/a04d37f0-99dd-478a-b6c6-58b215138f84.jpg\",\"img/0894/a3d4170b-b7d8-40e3-955f-87e76ed745fc.jpg\"]","trial_type":"similarity","trial_index":116,"time_elapsed":697327,"internal_node_id":"0.0-6.0-110.0"},{"sim_score":2,"rt":2698,"stimulus":"[\"img/0899/a048912c-b12c-40e3-90af-46b69b0cc4fe.jpg\",\"img/0903/8c358e9e-a4f4-466e-8b93-7aec0d2358e8.jpg\"]","trial_type":"similarity","trial_index":117,"time_elapsed":701029,"internal_node_id":"0.0-6.0-111.0"},{"sim_score":3,"rt":3295,"stimulus":"[\"img/0902/c018bd7a-d91a-4192-aea4-7259cfcdb6c4.jpg\",\"img/0904/b5855d6a-7ef9-46ca-9215-6e9fa046e543.jpg\"]","trial_type":"similarity","trial_index":118,"time_elapsed":705326,"internal_node_id":"0.0-6.0-112.0"},{"sim_score":3,"rt":3091,"stimulus":"[\"img/0864/0f537697-a314-47c3-a8cc-8df23b7e536c.jpg\",\"img/0860/4a022222-056d-461c-ab02-39fac9647552.jpg\"]","trial_type":"similarity","trial_index":119,"time_elapsed":709421,"internal_node_id":"0.0-6.0-113.0"},{"sim_score":3,"rt":3002,"stimulus":"[\"img/0860/8a92e21b-6a32-4e4a-a445-2d5a487ed0a4.jpg\",\"img/0899/0adc0bc3-6fca-4078-be6f-d45ddf1653d5.jpg\"]","trial_type":"similarity","trial_index":120,"time_elapsed":713427,"internal_node_id":"0.0-6.0-114.0"},{"sim_score":2,"rt":2709,"stimulus":"[\"img/0881/d1982897-8d8d-4704-a940-1ee5d07a1f15.jpg\",\"img/0903/8931c67c-a43d-47d3-a4c9-42aa2f81d344.jpg\"]","trial_type":"similarity","trial_index":121,"time_elapsed":717139,"internal_node_id":"0.0-6.0-115.0"},{"sim_score":4,"rt":4318,"stimulus":"[\"img/0894/133a1636-d123-4893-873c-1718050f832a.jpg\",\"img/0874/29830da7-be5f-44e5-b141-652a0ccf7269.jpg\"]","trial_type":"similarity","trial_index":122,"time_elapsed":722461,"internal_node_id":"0.0-6.0-116.0"},{"sim_score":2,"rt":3768,"stimulus":"[\"img/0881/c24f3051-eefa-42de-aba6-fccb56d93c70.jpg\",\"img/0862/ee3b7bff-4a70-4e84-9bea-4a565e456acb.jpg\"]","trial_type":"similarity","trial_index":123,"time_elapsed":727231,"internal_node_id":"0.0-6.0-117.0"},{"sim_score":6,"rt":2417,"stimulus":"[\"img/0868/3a62db2d-97e9-44a3-b8e3-a48c6f0e423b.jpg\",\"img/0875/42910c99-5463-450a-a0f8-d4d060a11455.jpg\"]","trial_type":"similarity","trial_index":124,"time_elapsed":730650,"internal_node_id":"0.0-6.0-118.0"},{"sim_score":4,"rt":5838,"stimulus":"[\"img/0860/8fdba999-b946-4c7d-9891-336018b563ef.jpg\",\"img/0758/7ee8bc8f-c40b-4b3a-84ec-3e83580622d4.jpg\"]","trial_type":"similarity","trial_index":125,"time_elapsed":737491,"internal_node_id":"0.0-6.0-119.0"},{"sim_score":2,"rt":3339,"stimulus":"[\"img/0864/efcfbb1b-8197-44c9-b723-40d6c608dd3c.jpg\",\"img/0875/ebf7653f-ff45-4e9f-af58-2c042ab3cd2b.jpg\"]","trial_type":"similarity","trial_index":126,"time_elapsed":741833,"internal_node_id":"0.0-6.0-120.0"},{"sim_score":3,"rt":3790,"stimulus":"[\"img/0898/ec565187-2e31-4fdd-9a5c-153d0c789ae0.jpg\",\"img/0866/8efcaa46-83ab-4dee-a35f-850402aa21ae.jpg\"]","trial_type":"similarity","trial_index":127,"time_elapsed":746626,"internal_node_id":"0.0-6.0-121.0"},{"sim_score":2,"rt":3800,"stimulus":"[\"img/0874/eba003b4-cdab-4eee-8bc3-f064c7d94165.jpg\",\"img/0904/60d1a521-edf7-4696-9263-f21ac0e62a01.jpg\"]","trial_type":"similarity","trial_index":128,"time_elapsed":751430,"internal_node_id":"0.0-6.0-122.0"},{"sim_score":3,"rt":4306,"stimulus":"[\"img/0904/da170c1b-9651-4f08-b231-2bdd1d9a046f.jpg\",\"img/0864/c22faebd-9c53-47bc-ada3-b9a30c688e75.jpg\"]","trial_type":"similarity","trial_index":129,"time_elapsed":756740,"internal_node_id":"0.0-6.0-123.0"},{"sim_score":4,"rt":3735,"stimulus":"[\"img/0894/a98416c0-51e2-4960-85da-d81d8688b9d5.jpg\",\"img/0902/bd89a85f-3853-4786-acd6-98818ee29f1c.jpg\"]","trial_type":"similarity","trial_index":130,"time_elapsed":761478,"internal_node_id":"0.0-6.0-124.0"},{"sim_score":2,"rt":3788,"stimulus":"[\"img/0868/7b212364-ff5f-4e28-9241-7eb6ea00161b.jpg\",\"img/0864/6f631579-acf1-415c-a42c-1207f62a8d99.jpg\"]","trial_type":"similarity","trial_index":131,"time_elapsed":771027,"internal_node_id":"0.0-6.0-125.0"},{"sim_score":3,"rt":4083,"stimulus":"[\"img/0899/66ab3178-c3fe-4455-ad17-d5952b08e018.jpg\",\"img/0866/07c9c966-3c8d-40e7-8128-92b2acbaed5d.jpg\"]","trial_type":"similarity","trial_index":132,"time_elapsed":776113,"internal_node_id":"0.0-6.0-126.0"},{"sim_score":3,"rt":3993,"stimulus":"[\"img/0875/99698b4d-b4a1-44bc-8c83-8ea755bbbf61.jpg\",\"img/0904/4d7d70a3-9477-4921-bda0-f9531d0a5c5b.jpg\"]","trial_type":"similarity","trial_index":133,"time_elapsed":781108,"internal_node_id":"0.0-6.0-127.0"},{"sim_score":3,"rt":2754,"stimulus":"[\"img/0867/1719a35d-f085-48c0-9099-16c94fe418b4.jpg\",\"img/0899/d60714ae-98d7-4564-8c98-94dba1351135.jpg\"]","trial_type":"similarity","trial_index":134,"time_elapsed":784866,"internal_node_id":"0.0-6.0-128.0"},{"sim_score":2,"rt":4003,"stimulus":"[\"img/0901/bc47e078-bda4-40ed-b89a-bbd819164b95.jpg\",\"img/0867/f26f6b60-f772-4f4c-95a4-addc62cfd692.jpg\"]","trial_type":"similarity","trial_index":135,"time_elapsed":789873,"internal_node_id":"0.0-6.0-129.0"},{"sim_score":3,"rt":3418,"stimulus":"[\"img/0864/b3c4e378-28f0-4699-9338-2a257b4bca04.jpg\",\"img/0769/f229321f-04dd-42d7-b14a-ffad6b509862.jpg\"]","trial_type":"similarity","trial_index":136,"time_elapsed":794294,"internal_node_id":"0.0-6.0-130.0"},{"sim_score":3,"rt":3722,"stimulus":"[\"img/0903/70d764d9-1f35-4da7-a35d-4cc39834d270.jpg\",\"img/0868/09a9ef4d-d000-4cfa-a6aa-ebec7c2edeb4.jpg\"]","trial_type":"similarity","trial_index":137,"time_elapsed":799019,"internal_node_id":"0.0-6.0-131.0"},{"sim_score":2,"rt":2866,"stimulus":"[\"img/0864/49150900-7f25-4ce8-8d10-9b47a71d1997.jpg\",\"img/0867/6e19c858-b606-45b2-a4c6-910a73f1d82c.jpg\"]","trial_type":"similarity","trial_index":138,"time_elapsed":802889,"internal_node_id":"0.0-6.0-132.0"},{"sim_score":5,"rt":4115,"stimulus":"[\"img/0901/3db47171-0139-4235-82cd-0b1787b6775f.jpg\",\"img/0860/18dfed73-e36b-4487-a8bd-0b8cff8e3668.jpg\"]","trial_type":"similarity","trial_index":139,"time_elapsed":808008,"internal_node_id":"0.0-6.0-133.0"},{"sim_score":4,"rt":7479,"stimulus":"[\"img/0881/f6bd3b96-dc40-4e99-8681-bc3a35cf896d.jpg\",\"img/0766/2746b119-4bba-463e-acf0-88136dc6600c.jpg\"]","trial_type":"similarity","trial_index":140,"time_elapsed":816491,"internal_node_id":"0.0-6.0-134.0"},{"sim_score":3,"rt":2394,"stimulus":"[\"img/0903/b0a3c45f-467e-412f-a183-c9c1827f2e63.jpg\",\"img/0864/5f33e097-23e3-4002-882d-76e8cb15f451.jpg\"]","trial_type":"similarity","trial_index":141,"time_elapsed":819889,"internal_node_id":"0.0-6.0-135.0"},{"sim_score":1,"rt":3879,"stimulus":"[\"img/0758/d540bee6-b460-4c32-ac57-bc282742d7d4.jpg\",\"img/0894/7dd6ff43-f8fc-408a-8a41-a2b261871820.jpg\"]","trial_type":"similarity","trial_index":142,"time_elapsed":824771,"internal_node_id":"0.0-6.0-136.0"},{"sim_score":3,"rt":3114,"stimulus":"[\"img/0769/f6396414-6788-4d59-9683-de153298d89c.jpg\",\"img/0860/5bff793e-cbd5-4d7e-b628-0ac2b0e30b64.jpg\"]","trial_type":"similarity","trial_index":143,"time_elapsed":828889,"internal_node_id":"0.0-6.0-137.0"},{"sim_score":4,"rt":3307,"stimulus":"[\"img/0904/b7c2a2c8-df33-4473-b3d4-ff7147c60db3.jpg\",\"img/0766/a754e4b6-5019-4cf4-8f58-34c20547a1f5.jpg\"]","trial_type":"similarity","trial_index":144,"time_elapsed":833198,"internal_node_id":"0.0-6.0-138.0"},{"sim_score":4,"rt":4272,"stimulus":"[\"img/0868/4a8a45ed-2c4f-421b-9564-409a33ecd26c.jpg\",\"img/0860/15b24a61-25be-4356-9eac-5ce95d0cb4a4.jpg\"]","trial_type":"similarity","trial_index":145,"time_elapsed":838474,"internal_node_id":"0.0-6.0-139.0"},{"sim_score":4,"rt":5263,"stimulus":"[\"img/0758/caa93da2-9edf-49fa-96b9-32dedd8f5078.jpg\",\"img/0864/e8bd659f-aa43-4748-877e-3118e8b4e189.jpg\"]","trial_type":"similarity","trial_index":146,"time_elapsed":844741,"internal_node_id":"0.0-6.0-140.0"},{"sim_score":7,"rt":2574,"stimulus":"[\"img/0867/a749dddb-69f0-44a6-acdc-2bf295cf6dcc.jpg\",\"img/0867/c71dc569-f49c-4397-8381-68b8d726736d.jpg\"]","trial_type":"similarity","trial_index":147,"time_elapsed":848318,"internal_node_id":"0.0-6.0-141.0"},{"sim_score":6,"rt":3688,"stimulus":"[\"img/0898/8605a25b-6895-476d-8c13-df7a83f96093.jpg\",\"img/0898/01bfe666-3510-4fc7-964f-d00d28732dc8.jpg\"]","trial_type":"similarity","trial_index":148,"time_elapsed":853010,"internal_node_id":"0.0-6.0-142.0"},{"sim_score":4,"rt":3598,"stimulus":"[\"img/0866/6f2a90d7-14f1-4f1b-bd64-fc0af6b9fe44.jpg\",\"img/0769/057eb0a0-aa5b-40c7-9852-21444f68d767.jpg\"]","trial_type":"similarity","trial_index":149,"time_elapsed":857611,"internal_node_id":"0.0-6.0-143.0"},{"sim_score":4,"rt":3304,"stimulus":"[\"img/0860/9593362c-9fe5-4d12-9735-6000a11f6aa5.jpg\",\"img/0898/81b08535-2020-4c15-9ce4-2f1e460755ae.jpg\"]","trial_type":"similarity","trial_index":150,"time_elapsed":861919,"internal_node_id":"0.0-6.0-144.0"},{"sim_score":3,"rt":5456,"stimulus":"[\"img/0766/5d6e0d1d-4369-41f0-a64c-91f3503055c7.jpg\",\"img/0864/1ebbc554-99fa-49f9-8799-317375a79820.jpg\"]","trial_type":"similarity","trial_index":151,"time_elapsed":868378,"internal_node_id":"0.0-6.0-145.0"},{"sim_score":5,"rt":3171,"stimulus":"[\"img/0860/fd4662f9-4c03-4d79-8593-06735e55a64b.jpg\",\"img/0903/4cbdc464-e562-4ec2-9bb6-15f894fdf528.jpg\"]","trial_type":"similarity","trial_index":152,"time_elapsed":872552,"internal_node_id":"0.0-6.0-146.0"},{"sim_score":2,"rt":3317,"stimulus":"[\"img/0867/ac1797e4-8afc-48fe-b252-86d1defb1cca.jpg\",\"img/0764/f64dfa83-333d-494c-87b5-73e942f1766e.jpg\"]","trial_type":"similarity","trial_index":153,"time_elapsed":876872,"internal_node_id":"0.0-6.0-147.0"},{"sim_score":4,"rt":4971,"stimulus":"[\"img/0769/f73c5138-2f4c-4354-981c-129dff9cc734.jpg\",\"img/0904/2f88ce53-02d0-4f95-a082-182c56a0eeb4.jpg\"]","trial_type":"similarity","trial_index":154,"time_elapsed":882846,"internal_node_id":"0.0-6.0-148.0"},{"sim_score":3,"rt":3362,"stimulus":"[\"img/0764/6ef77040-1fae-4afa-bfe7-eda98e6d0376.jpg\",\"img/0901/deff6cfb-0072-4490-bc3e-206bbcd3e8bf.jpg\"]","trial_type":"similarity","trial_index":155,"time_elapsed":887211,"internal_node_id":"0.0-6.0-149.0"},{"sim_score":3,"rt":4431,"stimulus":"[\"img/0904/4e58005d-a2ec-4aaa-b199-445343561396.jpg\",\"img/0899/5b56dd3e-3f49-47cc-af84-16da6457753b.jpg\"]","trial_type":"similarity","trial_index":156,"time_elapsed":892645,"internal_node_id":"0.0-6.0-150.0"},{"sim_score":3,"rt":4217,"stimulus":"[\"img/0862/cdaed51d-9e2f-4807-801a-4663c40077e2.jpg\",\"img/0867/db7e032f-162b-46f5-ae67-2b29679adee4.jpg\"]","trial_type":"similarity","trial_index":157,"time_elapsed":897865,"internal_node_id":"0.0-6.0-151.0"},{"sim_score":7,"rt":2664,"stimulus":"[\"img/0766/33519c22-aaa4-49d7-8d49-ab551db1945e.jpg\",\"img/0766/d8221e53-2300-4d99-ae1b-0bfb0eabe579.jpg\"]","trial_type":"similarity","trial_index":158,"time_elapsed":901533,"internal_node_id":"0.0-6.0-152.0"},{"sim_score":3,"rt":4993,"stimulus":"[\"img/0862/4f0a3b4c-afbf-486e-b248-1d54982f54b4.jpg\",\"img/0894/6b2e9509-8699-42b7-9582-7741df0ba2d7.jpg\"]","trial_type":"similarity","trial_index":159,"time_elapsed":907529,"internal_node_id":"0.0-6.0-153.0"},{"sim_score":2,"rt":5285,"stimulus":"[\"img/0899/7b7380d5-d2be-44e5-a09a-c1756f87ef71.jpg\",\"img/0901/233a6948-48eb-4b67-8259-222b916b2322.jpg\"]","trial_type":"similarity","trial_index":160,"time_elapsed":913818,"internal_node_id":"0.0-6.0-154.0"},{"sim_score":6,"rt":3554,"stimulus":"[\"img/0874/2c9464dd-8a23-4baa-ac94-1ba3af5c15cc.jpg\",\"img/0874/8cdb1c07-1c32-46d2-981c-3636560fa6e5.jpg\"]","trial_type":"similarity","trial_index":161,"time_elapsed":918375,"internal_node_id":"0.0-6.0-155.0"},{"sim_score":5,"rt":4892,"stimulus":"[\"img/0860/87039971-2210-4aab-93c0-8e9b5f1655b2.jpg\",\"img/0867/8ba0c5a7-c7e4-42cf-a80a-543763b90779.jpg\"]","trial_type":"similarity","trial_index":162,"time_elapsed":924270,"internal_node_id":"0.0-6.0-156.0"},{"sim_score":2,"rt":2509,"stimulus":"[\"img/0901/a6c90438-fa7c-4418-ac7c-16c2e772dd98.jpg\",\"img/0881/566f45f8-5fed-4479-a60f-26377e60a62d.jpg\"]","trial_type":"similarity","trial_index":163,"time_elapsed":927780,"internal_node_id":"0.0-6.0-157.0"},{"sim_score":6,"rt":3172,"stimulus":"[\"img/0903/b7e3723f-fd03-4f3d-8820-f19496463a34.jpg\",\"img/0902/cdec1bc6-7f90-4f72-9e01-f5a4111bac1d.jpg\"]","trial_type":"similarity","trial_index":164,"time_elapsed":931954,"internal_node_id":"0.0-6.0-158.0"},{"sim_score":4,"rt":4341,"stimulus":"[\"img/0860/99c589b9-9140-4d17-90c0-b344323edcda.jpg\",\"img/0764/958b8576-3a3b-4acc-96dc-06b74de69f37.jpg\"]","trial_type":"similarity","trial_index":165,"time_elapsed":937298,"internal_node_id":"0.0-6.0-159.0"},{"sim_score":3,"rt":3588,"stimulus":"[\"img/0902/b03fee99-d5ca-4bf8-871c-a4a743a39842.jpg\",\"img/0875/90da8d75-108a-44ad-b999-e21fee3860d3.jpg\"]","trial_type":"similarity","trial_index":166,"time_elapsed":941888,"internal_node_id":"0.0-6.0-160.0"},{"sim_score":3,"rt":3576,"stimulus":"[\"img/0898/224c1572-56b9-4f16-a9e4-6f3bc9c114bd.jpg\",\"img/0862/f23038d4-c366-4f70-979f-66b62362efa4.jpg\"]","trial_type":"similarity","trial_index":167,"time_elapsed":946467,"internal_node_id":"0.0-6.0-161.0"},{"sim_score":3,"rt":4025,"stimulus":"[\"img/0894/38f5931f-926d-414e-b498-66b188978b7a.jpg\",\"img/0875/03c3c331-738b-4446-af92-3d7386b08c2e.jpg\"]","trial_type":"similarity","trial_index":168,"time_elapsed":951495,"internal_node_id":"0.0-6.0-162.0"},{"sim_score":2,"rt":3014,"stimulus":"[\"img/0866/620cd1aa-0800-4414-8f6e-90342e7a99ad.jpg\",\"img/0864/4bd81bc6-c13d-46df-95a9-485886dc7c1b.jpg\"]","trial_type":"similarity","trial_index":169,"time_elapsed":955512,"internal_node_id":"0.0-6.0-163.0"},{"sim_score":3,"rt":3475,"stimulus":"[\"img/0766/91fc8c4d-862f-4d2b-b1a1-2db8d729b6b7.jpg\",\"img/0862/53a9cf7c-93c4-41b9-952f-07d17f7a17b2.jpg\"]","trial_type":"similarity","trial_index":170,"time_elapsed":959990,"internal_node_id":"0.0-6.0-164.0"},{"sim_score":4,"rt":3047,"stimulus":"[\"img/0866/d493a2c8-66eb-44b4-be02-2f327b700b7c.jpg\",\"img/0874/bf14b896-e930-4fd9-9c05-2e83317a2773.jpg\"]","trial_type":"similarity","trial_index":171,"time_elapsed":964040,"internal_node_id":"0.0-6.0-165.0"},{"sim_score":3,"rt":3272,"stimulus":"[\"img/0862/47ed5efd-4ec9-4b74-bb4e-a5f5cf0c3e7d.jpg\",\"img/0860/c7047cd2-7cc1-41b6-8a34-c0986774975f.jpg\"]","trial_type":"similarity","trial_index":172,"time_elapsed":968315,"internal_node_id":"0.0-6.0-166.0"},{"sim_score":3,"rt":4644,"stimulus":"[\"img/0766/0025de5e-f620-4079-8a0f-00326ff3a6b0.jpg\",\"img/0901/effc03f6-8f9d-46db-a66c-16fc83891c5c.jpg\"]","trial_type":"similarity","trial_index":173,"time_elapsed":976921,"internal_node_id":"0.0-6.0-167.0"},{"sim_score":7,"rt":3104,"stimulus":"[\"img/0862/064818ee-13d5-4618-bb24-21c7368ea278.jpg\",\"img/0862/a0a3a7ba-7798-46a3-b4ca-05e1f6e581d0.jpg\"]","trial_type":"similarity","trial_index":174,"time_elapsed":981028,"internal_node_id":"0.0-6.0-168.0"},{"sim_score":3,"rt":4622,"stimulus":"[\"img/0894/11674fa4-285d-44e2-939f-2228c6a64080.jpg\",\"img/0764/8740679b-b56f-4292-aece-14063457113a.jpg\"]","trial_type":"similarity","trial_index":175,"time_elapsed":986653,"internal_node_id":"0.0-6.0-169.0"},{"sim_score":3,"rt":3026,"stimulus":"[\"img/0874/ca76a855-4e77-4f2f-872a-0a718153e7ed.jpg\",\"img/0898/26c41340-15bd-4ead-8fe4-c0d0ddca09c2.jpg\"]","trial_type":"similarity","trial_index":176,"time_elapsed":990681,"internal_node_id":"0.0-6.0-170.0"},{"sim_score":3,"rt":3126,"stimulus":"[\"img/0860/e8b8c51e-1834-4875-8b61-6c5bc9b178bd.jpg\",\"img/0766/f011ef45-fb48-44b8-8224-867ed2ccf786.jpg\"]","trial_type":"similarity","trial_index":177,"time_elapsed":994810,"internal_node_id":"0.0-6.0-171.0"},{"sim_score":3,"rt":3542,"stimulus":"[\"img/0898/08c72dac-f8ad-407a-9ce6-8c9a5d679c3a.jpg\",\"img/0864/8ddd2e30-a1d0-479f-9cbe-591213023893.jpg\"]","trial_type":"similarity","trial_index":178,"time_elapsed":999355,"internal_node_id":"0.0-6.0-172.0"},{"sim_score":3,"rt":5028,"stimulus":"[\"img/0881/1407b85b-a1c6-45b1-9884-3b24203efadb.jpg\",\"img/0764/ef0e64c6-d0dd-4dc6-87b6-ce5c0665f421.jpg\"]","trial_type":"similarity","trial_index":179,"time_elapsed":1005385,"internal_node_id":"0.0-6.0-173.0"},{"sim_score":4,"rt":2991,"stimulus":"[\"img/0898/82231d4c-218b-4d0a-b50d-35a49b524e97.jpg\",\"img/0868/4bd5105a-d2c3-4f82-8c80-57196106ba53.jpg\"]","trial_type":"similarity","trial_index":180,"time_elapsed":1009379,"internal_node_id":"0.0-6.0-174.0"},{"sim_score":7,"rt":2621,"stimulus":"[\"img/0864/3651d070-2fc5-4848-b6a6-088a2d9ac5c9.jpg\",\"img/0864/300bb811-8b3c-4c42-8653-6097c3725197.jpg\"]","trial_type":"similarity","trial_index":181,"time_elapsed":1013001,"internal_node_id":"0.0-6.0-175.0"},{"sim_score":4,"rt":4082,"stimulus":"[\"img/0899/0e1d936a-dbe2-4afc-9f19-7b7a1ae6c9ed.jpg\",\"img/0862/f188d4f0-76a4-4102-818c-a209969d73a5.jpg\"]","trial_type":"similarity","trial_index":182,"time_elapsed":1018087,"internal_node_id":"0.0-6.0-176.0"},{"sim_score":1,"rt":2271,"stimulus":"[\"img/0875/2e13d160-eea1-416b-aff1-d37ab99ecc1d.jpg\",\"img/0758/2fa3e613-e676-4e6e-bd12-705327eeb3e1.jpg\"]","trial_type":"similarity","trial_index":183,"time_elapsed":1021361,"internal_node_id":"0.0-6.0-177.0"},{"sim_score":5,"rt":2945,"stimulus":"[\"img/0866/0207e9a2-7dbb-40b5-9459-b472aaeceb2a.jpg\",\"img/0901/71e551a2-9ce2-409c-9c7c-dd556a0791e9.jpg\"]","trial_type":"similarity","trial_index":184,"time_elapsed":1025309,"internal_node_id":"0.0-6.0-178.0"},{"sim_score":5,"rt":3205,"stimulus":"[\"img/0769/e8ed913b-8a88-44f6-9327-d34afec3116b.jpg\",\"img/0874/3f471690-9788-4d03-90c7-f615aecef149.jpg\"]","trial_type":"similarity","trial_index":185,"time_elapsed":1029517,"internal_node_id":"0.0-6.0-179.0"},{"sim_score":3,"rt":3192,"stimulus":"[\"img/0875/cff79b3a-a797-4393-9757-6275f999ec04.jpg\",\"img/0881/0c7068da-d0d9-4103-bda1-74ef7a2b32c3.jpg\"]","trial_type":"similarity","trial_index":186,"time_elapsed":1033712,"internal_node_id":"0.0-6.0-180.0"},{"sim_score":6,"rt":4916,"stimulus":"[\"img/0866/be24ab58-230e-4db8-9f45-ff04c9aec6bb.jpg\",\"img/0868/15dd6fd7-791e-4b53-b203-195d617521a4.jpg\"]","trial_type":"similarity","trial_index":187,"time_elapsed":1039631,"internal_node_id":"0.0-6.0-181.0"},{"sim_score":4,"rt":3068,"stimulus":"[\"img/0899/56a605c3-d0a2-4215-89e1-779279d85a7c.jpg\",\"img/0758/7ffbc76b-1fc1-432c-8f7e-9ec8d1b3f643.jpg\"]","trial_type":"similarity","trial_index":188,"time_elapsed":1043703,"internal_node_id":"0.0-6.0-182.0"},{"sim_score":2,"rt":2464,"stimulus":"[\"img/0874/995f0332-0439-4eb4-add3-957335dbf6d9.jpg\",\"img/0875/f87b67d7-c33e-40d1-b281-248c4be1cb6e.jpg\"]","trial_type":"similarity","trial_index":189,"time_elapsed":1047169,"internal_node_id":"0.0-6.0-183.0"},{"sim_score":4,"rt":4802,"stimulus":"[\"img/0904/96e503ea-6630-4996-85f2-0237688ce441.jpg\",\"img/0862/92f0146c-20c4-482e-aef5-adb693790338.jpg\"]","trial_type":"similarity","trial_index":190,"time_elapsed":1052974,"internal_node_id":"0.0-6.0-184.0"},{"sim_score":3,"rt":2383,"stimulus":"[\"img/0902/6730b12a-f0a7-4587-8c10-a32fae16565b.jpg\",\"img/0766/af3be95e-e52e-4fae-899b-0ff02ec340aa.jpg\"]","trial_type":"similarity","trial_index":191,"time_elapsed":1056361,"internal_node_id":"0.0-6.0-185.0"},{"sim_score":2,"rt":2688,"stimulus":"[\"img/0758/f61ecdf8-a7d4-4db0-b84d-be46f7cfaffc.jpg\",\"img/0769/662ab839-88d1-4ebf-af05-9b2980cad943.jpg\"]","trial_type":"similarity","trial_index":192,"time_elapsed":1060052,"internal_node_id":"0.0-6.0-186.0"},{"sim_score":6,"rt":2763,"stimulus":"[\"img/0881/54ea8e77-c7e5-4197-b7fa-00b7020849a7.jpg\",\"img/0881/d373cb9f-a719-4549-a2a4-82def79fb2a5.jpg\"]","trial_type":"similarity","trial_index":193,"time_elapsed":1063819,"internal_node_id":"0.0-6.0-187.0"},{"sim_score":1,"rt":2529,"stimulus":"[\"img/0758/61d64021-9214-4951-bdf8-f871f9827cf9.jpg\",\"img/0866/a15b02be-11bb-43e3-b0e0-ecc3bd7dfc49.jpg\"]","trial_type":"similarity","trial_index":194,"time_elapsed":1067352,"internal_node_id":"0.0-6.0-188.0"},{"sim_score":4,"rt":3812,"stimulus":"[\"img/0764/4eff630a-6426-4f8d-b2ba-b4d9842a0962.jpg\",\"img/0898/881e2a85-d5c2-49be-a0c6-8a6ce2c4af08.jpg\"]","trial_type":"similarity","trial_index":195,"time_elapsed":1072168,"internal_node_id":"0.0-6.0-189.0"},{"sim_score":5,"rt":5770,"stimulus":"[\"img/0903/bf0a7d60-eca5-44b0-bafd-baf21db9904b.jpg\",\"img/0901/b9141736-3041-4385-a586-b1fe911c76a5.jpg\"]","trial_type":"similarity","trial_index":196,"time_elapsed":1078940,"internal_node_id":"0.0-6.0-190.0"},{"sim_score":6,"rt":3508,"stimulus":"[\"img/0902/d49743d6-67ae-4c2e-a939-8fd895a0f18e.jpg\",\"img/0898/b2732712-71c2-45d8-834f-2b2ed5504910.jpg\"]","trial_type":"similarity","trial_index":197,"time_elapsed":1083452,"internal_node_id":"0.0-6.0-191.0"},{"sim_score":3,"rt":3440,"stimulus":"[\"img/0864/afcba0a3-7e27-4757-b254-e9f05fad27e2.jpg\",\"img/0901/d4d09bf5-093e-4050-838e-7c738be8e63c.jpg\"]","trial_type":"similarity","trial_index":198,"time_elapsed":1087895,"internal_node_id":"0.0-6.0-192.0"},{"sim_score":3,"rt":4127,"stimulus":"[\"img/0894/7f2f31fd-6618-41c6-b65a-0fd8b2851bc9.jpg\",\"img/0881/62a64f90-7a72-4aee-a1a1-0c548ac9bdda.jpg\"]","trial_type":"similarity","trial_index":199,"time_elapsed":1093025,"internal_node_id":"0.0-6.0-193.0"},{"sim_score":6,"rt":3935,"stimulus":"[\"img/0868/c8ac40c7-6904-4e13-8d61-c75d3052dc4e.jpg\",\"img/0868/d6d1f30d-4323-435a-b194-7892521bc57e.jpg\"]","trial_type":"similarity","trial_index":200,"time_elapsed":1097964,"internal_node_id":"0.0-6.0-194.0"},{"sim_score":5,"rt":3665,"stimulus":"[\"img/0899/f58b8d2f-b19d-4b59-8b94-8834be92e4ba.jpg\",\"img/0764/4952d0a0-c9be-471a-8ec7-94a37bf4051d.jpg\"]","trial_type":"similarity","trial_index":201,"time_elapsed":1102633,"internal_node_id":"0.0-6.0-195.0"},{"sim_score":2,"rt":2699,"stimulus":"[\"img/0881/4bd34581-94d8-4e88-8c89-5cef864ca3be.jpg\",\"img/0904/6291eb43-c10c-4810-a36a-101d09868b04.jpg\"]","trial_type":"similarity","trial_index":202,"time_elapsed":1106335,"internal_node_id":"0.0-6.0-196.0"},{"sim_score":3,"rt":4813,"stimulus":"[\"img/0864/5f74a653-3bdc-4308-8cca-ac667dc22e1f.jpg\",\"img/0902/1f4a4c62-68c1-4993-b213-05652a173ed1.jpg\"]","trial_type":"similarity","trial_index":203,"time_elapsed":1112151,"internal_node_id":"0.0-6.0-197.0"},{"sim_score":5,"rt":2945,"stimulus":"[\"img/0894/86201968-6e78-4d68-9b3a-d1692e066210.jpg\",\"img/0904/0d17b811-063e-416e-a23c-3b3cfa4fcce5.jpg\"]","trial_type":"similarity","trial_index":204,"time_elapsed":1116100,"internal_node_id":"0.0-6.0-198.0"},{"sim_score":6,"rt":2540,"stimulus":"[\"img/0901/58978a6d-a3e2-4c59-8d62-f60693ecc0f6.jpg\",\"img/0901/b453df0b-4c39-49bb-8ced-6127efffa898.jpg\"]","trial_type":"similarity","trial_index":205,"time_elapsed":1119644,"internal_node_id":"0.0-6.0-199.0"},{"sim_score":3,"rt":4588,"stimulus":"[\"img/0894/e5edf723-72a5-4673-8441-6c1734a8929b.jpg\",\"img/0860/5383b320-1518-4095-a58e-5cc1ae30b64c.jpg\"]","trial_type":"similarity","trial_index":206,"time_elapsed":1125235,"internal_node_id":"0.0-6.0-200.0"},{"sim_score":6,"rt":2495,"stimulus":"[\"img/0898/e167334e-cc1d-4986-b3b1-c7bc7da64baa.jpg\",\"img/0903/c708d08f-a108-4e04-8288-c3fcf6375db4.jpg\"]","trial_type":"similarity","trial_index":207,"time_elapsed":1128734,"internal_node_id":"0.0-6.0-201.0"},{"sim_score":4,"rt":4879,"stimulus":"[\"img/0864/da39ad34-04e0-40d4-a724-c08d53e0ea09.jpg\",\"img/0894/2d2db7b3-e8a3-499b-b63a-14f51bf73882.jpg\"]","trial_type":"similarity","trial_index":208,"time_elapsed":1134616,"internal_node_id":"0.0-6.0-202.0"},{"sim_score":3,"rt":3207,"stimulus":"[\"img/0874/93d1f8dc-acf2-4f03-bd8d-8ec35df276ed.jpg\",\"img/0860/4f695df5-afac-4da7-9875-fee39b0b24ad.jpg\"]","trial_type":"similarity","trial_index":209,"time_elapsed":1138826,"internal_node_id":"0.0-6.0-203.0"},{"sim_score":4,"rt":2867,"stimulus":"[\"img/0862/ba89835a-408c-480b-8594-ed4ffa97eb5c.jpg\",\"img/0875/fb732ab5-013a-4366-9f65-27811ed157e9.jpg\"]","trial_type":"similarity","trial_index":210,"time_elapsed":1142696,"internal_node_id":"0.0-6.0-204.0"},{"sim_score":2,"rt":2485,"stimulus":"[\"img/0867/50a1b60e-3a29-44bf-b606-d4bd3746fea9.jpg\",\"img/0881/19e82c47-8e4b-45d2-a6c8-74181eb4155e.jpg\"]","trial_type":"similarity","trial_index":211,"time_elapsed":1146183,"internal_node_id":"0.0-6.0-205.0"},{"sim_score":5,"rt":2158,"stimulus":"[\"img/0901/50e1d53e-a49f-4806-8610-be6dec5a2475.jpg\",\"img/0902/51493fab-2a10-4385-aa88-bee3db441626.jpg\"]","trial_type":"similarity","trial_index":212,"time_elapsed":1149345,"internal_node_id":"0.0-6.0-206.0"},{"sim_score":4,"rt":2947,"stimulus":"[\"img/0899/ddf96ade-692e-4602-bd22-dedbb46401bc.jpg\",\"img/0864/0116ca98-293d-4fa6-a93b-5a6144ef64cc.jpg\"]","trial_type":"similarity","trial_index":213,"time_elapsed":1153294,"internal_node_id":"0.0-6.0-207.0"},{"sim_score":4,"rt":6051,"stimulus":"[\"img/0901/31c032fd-3c3d-4882-a226-da9a80198937.jpg\",\"img/0769/387a9744-d6a7-42b8-bab8-33007ec434aa.jpg\"]","trial_type":"similarity","trial_index":214,"time_elapsed":1160348,"internal_node_id":"0.0-6.0-208.0"},{"sim_score":7,"rt":3970,"stimulus":"[\"img/0902/30c420f5-c714-4681-ae5a-c0ba8f636a26.jpg\",\"img/0902/94198618-7047-4dc9-ad04-85f4ba913067.jpg\"]","trial_type":"similarity","trial_index":215,"time_elapsed":1174016,"internal_node_id":"0.0-6.0-209.0"},{"view_history":"[{\"page_index\":0,\"viewing_time\":7482}]","rt":7482,"trial_type":"instructions","trial_index":216,"time_elapsed":1182499,"internal_node_id":"0.0-7.0"},{"rt":38909,"responses":"{\"Q0\":\"Nashville Warbler\"}","answer":["Nashville Warbler"],"trial_type":"image-multi-choice","trial_index":217,"time_elapsed":1222418,"internal_node_id":"0.0-8.0-0.0"},{"rt":4358,"responses":"{\"Q0\":\"Black-and-white Warbler\"}","answer":["Black-and-white Warbler"],"trial_type":"image-multi-choice","trial_index":218,"time_elapsed":1227784,"internal_node_id":"0.0-8.0-1.0"},{"rt":7441,"responses":"{\"Q0\":\"Townsend's Warbler\"}","answer":["Townsend's Warbler"],"trial_type":"image-multi-choice","trial_index":219,"time_elapsed":1236233,"internal_node_id":"0.0-8.0-2.0"},{"rt":3019,"responses":"{\"Q0\":\"Lark Sparrow\"}","answer":["Lark Sparrow"],"trial_type":"image-multi-choice","trial_index":220,"time_elapsed":1240260,"internal_node_id":"0.0-8.0-3.0"},{"rt":3271,"responses":"{\"Q0\":\"Yellow Warbler\"}","answer":["Yellow Warbler"],"trial_type":"image-multi-choice","trial_index":221,"time_elapsed":1244536,"internal_node_id":"0.0-8.0-4.0"},{"rt":34309,"responses":"{\"Q0\":\"Orange-crowned Warbler\"}","answer":["Orange-crowned Warbler"],"trial_type":"image-multi-choice","trial_index":222,"time_elapsed":1279851,"internal_node_id":"0.0-8.0-5.0"},{"rt":4574,"responses":"{\"Q0\":\"White-throated Sparrow\"}","answer":["White-throated Sparrow"],"trial_type":"image-multi-choice","trial_index":223,"time_elapsed":1285431,"internal_node_id":"0.0-8.0-6.0"},{"rt":3076,"responses":"{\"Q0\":\"Fox Sparrow\"}","answer":["Fox Sparrow"],"trial_type":"image-multi-choice","trial_index":224,"time_elapsed":1289514,"internal_node_id":"0.0-8.0-7.0"},{"rt":6497,"responses":"{\"Q0\":\"Song Sparrow\"}","answer":["Song Sparrow"],"trial_type":"image-multi-choice","trial_index":225,"time_elapsed":1297018,"internal_node_id":"0.0-8.0-8.0"},{"rt":4596,"responses":"{\"Q0\":\"Blackburnian Warbler\"}","answer":["Blackburnian Warbler"],"trial_type":"image-multi-choice","trial_index":226,"time_elapsed":1302621,"internal_node_id":"0.0-8.0-9.0"},{"rt":5326,"responses":"{\"Q0\":\"Vesper Sparrow\"}","answer":["Vesper Sparrow"],"trial_type":"image-multi-choice","trial_index":227,"time_elapsed":1308955,"internal_node_id":"0.0-8.0-10.0"},{"rt":2728,"responses":"{\"Q0\":\"White-crowned Sparrow\"}","answer":["White-crowned Sparrow"],"trial_type":"image-multi-choice","trial_index":228,"time_elapsed":1312690,"internal_node_id":"0.0-8.0-11.0"},{"rt":3414,"responses":"{\"Q0\":\"American Tree Sparrow\"}","answer":["American Tree Sparrow"],"trial_type":"image-multi-choice","trial_index":229,"time_elapsed":1317111,"internal_node_id":"0.0-8.0-12.0"},{"rt":6947,"responses":"{\"Q0\":\"Tennessee Warbler\"}","answer":["Tennessee Warbler"],"trial_type":"image-multi-choice","trial_index":230,"time_elapsed":1325065,"internal_node_id":"0.0-8.0-13.0"},{"rt":3965,"responses":"{\"Q0\":\"Magnolia Warbler\"}","answer":["Magnolia Warbler"],"trial_type":"image-multi-choice","trial_index":231,"time_elapsed":1330038,"internal_node_id":"0.0-8.0-14.0"},{"rt":5867,"responses":"{\"Q0\":\"Northern Waterthrush\"}","answer":["Northern Waterthrush"],"trial_type":"image-multi-choice","trial_index":232,"time_elapsed":1336912,"internal_node_id":"0.0-8.0-15.0"},{"rt":3392,"responses":"{\"Q0\":\"Chipping Sparrow\"}","answer":["Chipping Sparrow"],"trial_type":"image-multi-choice","trial_index":233,"time_elapsed":1341311,"internal_node_id":"0.0-8.0-16.0"},{"rt":10513,"responses":"{\"Q0\":\"Lincoln's Sparrow\"}","answer":["Swamp Sparrow"],"trial_type":"image-multi-choice","trial_index":234,"time_elapsed":1352831,"internal_node_id":"0.0-8.0-17.0"},{"rt":6800,"responses":"{\"Q0\":\"Lincoln's Sparrow\"}","answer":["Lincoln's Sparrow"],"trial_type":"image-multi-choice","trial_index":235,"time_elapsed":1360639,"internal_node_id":"0.0-8.0-18.0"},{"rt":2907,"responses":"{\"Q0\":\"Ovenbird\"}","answer":["Ovenbird"],"trial_type":"image-multi-choice","trial_index":236,"time_elapsed":1364554,"internal_node_id":"0.0-8.0-19.0"}]