"view_history","rt","trial_type","trial_index","time_elapsed","internal_node_id","sim_score","stimulus","responses","answer"
"[{""page_index"":0,""viewing_time"":41957}]","41958","instructions","0","41959","0.0-0.0","","","",""
"","6903","similarity_demo","1","49891","0.0-1.0","5","[""img/866.jpg"",""img/868.jpg""]","",""
"[{""page_index"":0,""viewing_time"":21559}]","21560","instructions","2","72451","0.0-2.0","","","",""
"","6084","similarity_demo","3","79556","0.0-3.0","1","[""img/766.jpg"",""img/867.jpg""]","",""
"[{""page_index"":0,""viewing_time"":7416}]","7416","instructions","4","87986","0.0-4.0","","","",""
"[{""page_index"":0,""viewing_time"":24613}]","24614","instructions","5","113609","0.0-5.0","","","",""
"","6584","similarity","6","121203","0.0-6.0-0.0","4","[""img/0868/4e626425-63c8-484a-8a1d-e66ee4e0bef8.jpg"",""img/0901/d6d15b1c-4a30-4f74-a3fd-d4c8ee4169ca.jpg""]","",""
"","4516","similarity","7","126739","0.0-6.0-1.0","1","[""img/0769/f2740c58-7c02-433f-920b-746b0b75435b.jpg"",""img/0867/f8159067-056c-41f1-a136-c529fe5e970a.jpg""]","",""
"","7769","similarity","8","135529","0.0-6.0-2.0","4","[""img/0766/d512b99c-a2dc-40d7-8e86-827323a0cbcf.jpg"",""img/0898/5f699581-3853-4547-856c-12f419ba5af7.jpg""]","",""
"","4250","similarity","9","140802","0.0-6.0-3.0","1","[""img/0902/d49743d6-67ae-4c2e-a939-8fd895a0f18e.jpg"",""img/0881/adc02f34-ce97-4aef-850f-00519df06fd7.jpg""]","",""
"","5412","similarity","10","147242","0.0-6.0-4.0","4","[""img/0894/e5edf723-72a5-4673-8441-6c1734a8929b.jpg"",""img/0894/5f15154e-e72e-4ce5-aafb-bce6f0564006.jpg""]","",""
"","4361","similarity","11","152625","0.0-6.0-5.0","1","[""img/0874/1016b306-087c-4afc-aa08-fa527b28dc76.jpg"",""img/0899/9de5e857-aa9a-4e0c-8ba2-46d79bd069a4.jpg""]","",""
"","4649","similarity","12","158289","0.0-6.0-6.0","4","[""img/0904/5aec2708-cf14-4a58-aa30-9a8a61c1be0e.jpg"",""img/0764/5d83b9db-3b2b-4dc8-9bd1-2b515b19c858.jpg""]","",""
"","10583","similarity","13","169896","0.0-6.0-7.0","2","[""img/0899/8abe6c69-822c-436c-9bf2-96c818b49ba5.jpg"",""img/0898/cd3aaa3f-efa9-4ab3-8d6f-a6a9273ddf42.jpg""]","",""
"","7014","similarity","14","177936","0.0-6.0-8.0","1","[""img/0874/7e4f2150-3b59-4a36-b5da-a4e0ba410531.jpg"",""img/0903/8fcafe03-43df-4c45-9da5-0df3a1eeccc5.jpg""]","",""
"","4746","similarity","15","183712","0.0-6.0-9.0","7","[""img/0881/0c7068da-d0d9-4103-bda1-74ef7a2b32c3.jpg"",""img/0758/335851a0-a55b-46d8-ab05-8463eda48349.jpg""]","",""
"","5432","similarity","16","190167","0.0-6.0-10.0","6","[""img/0898/4184e5a2-84ea-4f36-9b42-ae58646f6f87.jpg"",""img/0901/58978a6d-a3e2-4c59-8d62-f60693ecc0f6.jpg""]","",""
"","5064","similarity","17","196256","0.0-6.0-11.0","7","[""img/0903/39365c8e-a733-4801-ac7d-b87e38c3784b.jpg"",""img/0769/38a88f69-28fd-4bbd-99f0-f4c02bfd3995.jpg""]","",""
"","4240","similarity","18","201519","0.0-6.0-12.0","1","[""img/0764/c643e165-df19-459f-8c2b-8357bf432a17.jpg"",""img/0868/e0aff734-077f-40dd-9781-74821abd3621.jpg""]","",""
"","4096","similarity","19","206631","0.0-6.0-13.0","1","[""img/0867/5e07b34d-b40f-4b1c-ac10-49975bace45f.jpg"",""img/0903/47e39de8-6959-469f-8be9-6999a6db207c.jpg""]","",""
"","5151","similarity","20","212807","0.0-6.0-14.0","2","[""img/0766/0b48f9e0-7d37-4161-8adb-4e3f5b6b7583.jpg"",""img/0758/7ffbc76b-1fc1-432c-8f7e-9ec8d1b3f643.jpg""]","",""
"","7420","similarity","21","221247","0.0-6.0-15.0","3","[""img/0902/3b243e54-0803-4c29-af42-4037c2118495.jpg"",""img/0860/b03b963d-949b-4d8d-b19c-4950c89eeca2.jpg""]","",""
"","4738","similarity","22","227006","0.0-6.0-16.0","1","[""img/0769/a3cfbdeb-acb3-4eac-87fb-4b117f42d4f8.jpg"",""img/0875/2c361b79-c3d1-4eda-812e-bf03192407bf.jpg""]","",""
"","4244","similarity","23","232263","0.0-6.0-17.0","1","[""img/0904/9d30eff1-46ef-4453-b11e-124ef8145c00.jpg"",""img/0866/02f5e6b9-52b7-448c-9708-5b460d0c9a23.jpg""]","",""
"","4315","similarity","24","237598","0.0-6.0-18.0","7","[""img/0875/dbdd643e-6d0e-4a5c-ab57-b9c29b9c981a.jpg"",""img/0875/03c3c331-738b-4446-af92-3d7386b08c2e.jpg""]","",""
"","5001","similarity","25","243614","0.0-6.0-19.0","7","[""img/0758/eabcd7a8-56ad-4fd2-bc24-90f6b7b33265.jpg"",""img/0758/2fa3e613-e676-4e6e-bd12-705327eeb3e1.jpg""]","",""
"","4202","similarity","26","248822","0.0-6.0-20.0","1","[""img/0902/b03fee99-d5ca-4bf8-871c-a4a743a39842.jpg"",""img/0874/3ce41e7c-40c8-4d58-a546-171114521796.jpg""]","",""
"","4790","similarity","27","254637","0.0-6.0-21.0","6","[""img/0764/50f1b062-d608-4bc0-ab25-b872dcf2ed93.jpg"",""img/0769/c7cfacc3-7f07-46ff-9f5d-8073f4c4679b.jpg""]","",""
"","4537","similarity","28","260189","0.0-6.0-22.0","1","[""img/0901/04a53755-6da5-44d4-a7a6-48a6bc0a2280.jpg"",""img/0874/29830da7-be5f-44e5-b141-652a0ccf7269.jpg""]","",""
"","3444","similarity","29","264653","0.0-6.0-23.0","1","[""img/0875/f87b67d7-c33e-40d1-b281-248c4be1cb6e.jpg"",""img/0903/e2e55a9e-0397-4dc0-8adf-4a54cfefe1fe.jpg""]","",""
"","3942","similarity","30","269621","0.0-6.0-24.0","2","[""img/0769/662ab839-88d1-4ebf-af05-9b2980cad943.jpg"",""img/0881/33d65d80-8a8e-4ecf-852d-0ad7725c17a2.jpg""]","",""
"","4440","similarity","31","275077","0.0-6.0-25.0","1","[""img/0867/12264664-1860-46df-8c21-162b9817cdda.jpg"",""img/0904/63dd06dd-dccb-47ba-9740-eb33239e18a7.jpg""]","",""
"","4576","similarity","32","280668","0.0-6.0-26.0","4","[""img/0860/d9a0d117-6d1d-41c0-8fec-9aff0fd9e9f2.jpg"",""img/0881/f037e3b0-09cb-4a83-b2d9-6a71fe474e63.jpg""]","",""
"","3841","similarity","33","285532","0.0-6.0-27.0","7","[""img/0866/d493a2c8-66eb-44b4-be02-2f327b700b7c.jpg"",""img/0866/d266fece-59b3-46fa-b69f-96f6efb81b59.jpg""]","",""
"","4309","similarity","34","290860","0.0-6.0-28.0","2","[""img/0764/bd2eaa3e-95a9-4a59-a78e-3f81c766eea9.jpg"",""img/0862/e0f1a4e9-e1b6-45f7-af67-89f334e6630d.jpg""]","",""
"","5018","similarity","35","296892","0.0-6.0-29.0","1","[""img/0904/e9423a8c-f946-43ad-ab7b-931acef870e2.jpg"",""img/0758/f61ecdf8-a7d4-4db0-b84d-be46f7cfaffc.jpg""]","",""
"","5773","similarity","36","303684","0.0-6.0-30.0","4","[""img/0894/792c83e9-a747-4000-bc72-5663d2439edb.jpg"",""img/0899/0e1d936a-dbe2-4afc-9f19-7b7a1ae6c9ed.jpg""]","",""
"","5088","similarity","37","309796","0.0-6.0-31.0","2","[""img/0860/8a92e21b-6a32-4e4a-a445-2d5a487ed0a4.jpg"",""img/0904/4e58005d-a2ec-4aaa-b199-445343561396.jpg""]","",""
"","4806","similarity","38","315628","0.0-6.0-32.0","7","[""img/0874/ca76a855-4e77-4f2f-872a-0a718153e7ed.jpg"",""img/0881/b549bc99-a61c-4450-bab5-9efc3a197bf0.jpg""]","",""
"","4540","similarity","39","321188","0.0-6.0-33.0","1","[""img/0881/d1982897-8d8d-4704-a940-1ee5d07a1f15.jpg"",""img/0899/ddf96ade-692e-4602-bd22-dedbb46401bc.jpg""]","",""
"","5374","similarity","40","327579","0.0-6.0-34.0","5","[""img/0866/6f2a90d7-14f1-4f1b-bd64-fc0af6b9fe44.jpg"",""img/0862/847e5208-38ec-4f36-949c-296cdd7424ee.jpg""]","",""
"","4324","similarity","41","332930","0.0-6.0-35.0","1","[""img/0868/83b4350a-3b70-4cea-b7f5-b5b56f3050a8.jpg"",""img/0894/11674fa4-285d-44e2-939f-2228c6a64080.jpg""]","",""
"","5624","similarity","42","339570","0.0-6.0-36.0","7","[""img/0860/5bff793e-cbd5-4d7e-b628-0ac2b0e30b64.jpg"",""img/0860/5383b320-1518-4095-a58e-5cc1ae30b64c.jpg""]","",""
"","4660","similarity","43","345250","0.0-6.0-37.0","6","[""img/0862/eefa5588-9efd-4591-aa5f-a2e17c7d7bcc.jpg"",""img/0864/6e846d43-94a6-4b37-a268-65eda979f052.jpg""]","",""
"","5641","similarity","44","351914","0.0-6.0-38.0","2","[""img/0766/3c526a07-9e0a-4ae2-8142-00085f0127da.jpg"",""img/0866/c446214b-a368-4c65-ae39-ea46894256ab.jpg""]","",""
"","4590","similarity","45","357522","0.0-6.0-39.0","1","[""img/0875/2e13d160-eea1-416b-aff1-d37ab99ecc1d.jpg"",""img/0898/b3290bf9-215b-4b45-b21a-65bdf73f142f.jpg""]","",""
"","5448","similarity","46","363985","0.0-6.0-40.0","4","[""img/0766/26d3ae14-8275-4e08-99b2-a6598c193ddf.jpg"",""img/0769/c34b7763-8ff2-46d5-9e92-f1d8f3bedbd8.jpg""]","",""
"","5042","similarity","47","404847","0.0-6.0-41.0","7","[""img/0874/c0378dac-9370-439a-8b79-db27c96fb390.jpg"",""img/0764/c80b3e06-2ee3-4326-9678-340607eb5348.jpg""]","",""
"","5072","similarity","48","410935","0.0-6.0-42.0","1","[""img/0868/c8ac40c7-6904-4e13-8d61-c75d3052dc4e.jpg"",""img/0902/794606a0-d8a8-4e58-8bf8-9d114ed5a548.jpg""]","",""
"","4206","similarity","49","416159","0.0-6.0-43.0","1","[""img/0875/5a716432-c6ca-4b1c-955a-2b8ac25198ee.jpg"",""img/0899/8de08897-b430-42fe-9d42-840670b80f94.jpg""]","",""
"","5493","similarity","50","422663","0.0-6.0-44.0","6","[""img/0866/386235d2-6857-41e7-88a8-25cfc3430025.jpg"",""img/0860/8277806e-b684-4474-8f7b-3fca946d7d4f.jpg""]","",""
"","4252","similarity","51","427935","0.0-6.0-45.0","6","[""img/0766/0bf3793e-c353-45e5-ac6f-753f5f484e10.jpg"",""img/0903/2c7b4aed-6038-4aac-958a-e3e58341c313.jpg""]","",""
"","7196","similarity","52","436143","0.0-6.0-46.0","3","[""img/0901/4f9cffe0-c0be-4d7f-bacd-9d51efd19b4a.jpg"",""img/0904/2fd488e9-960f-41f7-8a44-33375f7d5051.jpg""]","",""
"","8174","similarity","53","445342","0.0-6.0-47.0","3","[""img/0758/821c68d3-5cb0-4eae-8659-30e6263fca39.jpg"",""img/0902/04a6ad4a-afc6-4871-8225-56b299af7b6b.jpg""]","",""
"","4977","similarity","54","451334","0.0-6.0-48.0","7","[""img/0764/ca957454-126a-4bd3-b29c-7174a24c25dc.jpg"",""img/0764/5d6fa3ce-9083-410c-bbdb-336a49b94cfc.jpg""]","",""
"","4366","similarity","55","456727","0.0-6.0-49.0","1","[""img/0866/07c9c966-3c8d-40e7-8128-92b2acbaed5d.jpg"",""img/0902/82d20e8c-2162-47a6-925b-52906558c046.jpg""]","",""
"","5079","similarity","56","462829","0.0-6.0-50.0","2","[""img/0764/5c8fbafc-e62e-43ed-9b37-f73e8e45147d.jpg"",""img/0758/61d64021-9214-4951-bdf8-f871f9827cf9.jpg""]","",""
"","7026","similarity","57","470877","0.0-6.0-51.0","6","[""img/0898/e167334e-cc1d-4986-b3b1-c7bc7da64baa.jpg"",""img/0894/9b1333fd-3561-43bf-aee5-99b7b7ca3dc3.jpg""]","",""
"","3652","similarity","58","475550","0.0-6.0-52.0","5","[""img/0875/e7e66b13-b573-431e-b85e-288ce04a35a3.jpg"",""img/0866/23a224f3-2012-4fc8-8e0f-3c36f8de27fd.jpg""]","",""
"","5315","similarity","59","481894","0.0-6.0-53.0","7","[""img/0904/56e73f28-7e64-489b-a161-e6b1a063878d.jpg"",""img/0904/25365108-e038-4021-aac9-797f2063b337.jpg""]","",""
"","4945","similarity","60","487861","0.0-6.0-54.0","7","[""img/0769/82ab9db6-4578-4e79-874f-f09100439f09.jpg"",""img/0769/1ca58b80-2365-446d-9616-6c1719e6c46f.jpg""]","",""
"","3882","similarity","61","492764","0.0-6.0-55.0","1","[""img/0898/881e2a85-d5c2-49be-a0c6-8a6ce2c4af08.jpg"",""img/0758/7ee8bc8f-c40b-4b3a-84ec-3e83580622d4.jpg""]","",""
"","5682","similarity","62","499469","0.0-6.0-56.0","5","[""img/0769/1afb527f-9887-428c-bd26-a12c2f9efb68.jpg"",""img/0902/7f1dcd35-237a-4995-9e42-7f63f3f434d4.jpg""]","",""
"","4371","similarity","63","504861","0.0-6.0-57.0","6","[""img/0864/0f537697-a314-47c3-a8cc-8df23b7e536c.jpg"",""img/0881/db77fe00-aeb0-4d1d-aa66-f3a96fd077e4.jpg""]","",""
"","3461","similarity","64","509341","0.0-6.0-58.0","4","[""img/0758/20497cbe-ddae-489e-86e2-ab06985ed07c.jpg"",""img/0868/6a28c3b0-3d76-498a-9fb7-ddafc665eca8.jpg""]","",""
"","5156","similarity","65","515524","0.0-6.0-59.0","2","[""img/0862/e8cc3bdf-cc43-4565-bccf-492626c70953.jpg"",""img/0769/3adfa417-3b90-4aab-b437-5eaa474189cb.jpg""]","",""
"","7311","similarity","66","523852","0.0-6.0-60.0","4","[""img/0764/ca9829fe-aaf8-45b8-b98a-6bae751c63dd.jpg"",""img/0903/c708d08f-a108-4e04-8288-c3fcf6375db4.jpg""]","",""
"","4478","similarity","67","529340","0.0-6.0-61.0","7","[""img/0899/ad8268c5-8199-48d0-ad70-c5b6d6c599ec.jpg"",""img/0899/f95cbdb4-f804-4f5d-ad76-373ad343e658.jpg""]","",""
"","5094","similarity","68","535459","0.0-6.0-62.0","5","[""img/0860/4f695df5-afac-4da7-9875-fee39b0b24ad.jpg"",""img/0875/fb732ab5-013a-4366-9f65-27811ed157e9.jpg""]","",""
"","4671","similarity","69","541147","0.0-6.0-63.0","4","[""img/0868/0d3abd3a-b6c3-4584-a9f7-e2da63748b3d.jpg"",""img/0874/767f289c-9814-4496-803f-745cc8913d1f.jpg""]","",""
"","4597","similarity","70","546763","0.0-6.0-64.0","4","[""img/0758/7fba58df-2a7a-4b76-8a8f-62739f97f271.jpg"",""img/0862/f188d4f0-76a4-4102-818c-a209969d73a5.jpg""]","",""
"","5750","similarity","71","553538","0.0-6.0-65.0","5","[""img/0904/fe746a3f-8458-48d0-8a13-8cba2a9df9f8.jpg"",""img/0898/224c1572-56b9-4f16-a9e4-6f3bc9c114bd.jpg""]","",""
"","6050","similarity","72","560610","0.0-6.0-66.0","5","[""img/0881/48ed65a5-471f-41af-86ec-3793805c116d.jpg"",""img/0866/8efcaa46-83ab-4dee-a35f-850402aa21ae.jpg""]","",""
"","3550","similarity","73","565170","0.0-6.0-67.0","2","[""img/0867/7d1c497b-c1b3-4ed8-abb5-d7f73306015f.jpg"",""img/0898/c3cecf20-f7fd-45fa-97d0-dc0a63e8d6c0.jpg""]","",""
"","4188","similarity","74","570378","0.0-6.0-68.0","6","[""img/0902/af40b98b-3d23-4d95-b401-49ba5783ce39.jpg"",""img/0764/a86eed5b-d0af-4c3f-8c7a-26e98e98cf1a.jpg""]","",""
"","4457","similarity","75","575858","0.0-6.0-69.0","6","[""img/0875/42910c99-5463-450a-a0f8-d4d060a11455.jpg"",""img/0867/db7e032f-162b-46f5-ae67-2b29679adee4.jpg""]","",""
"","3908","similarity","76","580779","0.0-6.0-70.0","7","[""img/0766/fd74fdbb-ea40-4f3a-a091-38d08dfd636e.jpg"",""img/0764/c0b03adb-bd0a-4b96-a915-a827c2fd5211.jpg""]","",""
"","4440","similarity","77","586241","0.0-6.0-71.0","2","[""img/0894/5c7677b0-a4f1-479e-b274-7822c415175a.jpg"",""img/0867/de92135f-5b65-4ed9-b245-188292c7c2f8.jpg""]","",""
"","3485","similarity","78","590746","0.0-6.0-72.0","1","[""img/0875/527ced51-8e53-4aab-ab05-86df219104c0.jpg"",""img/0764/f2f23359-8e82-41d3-8900-5b9f4433991d.jpg""]","",""
"","3514","similarity","79","595281","0.0-6.0-73.0","6","[""img/0867/ac1797e4-8afc-48fe-b252-86d1defb1cca.jpg"",""img/0866/f756f7d1-9ad8-4a34-9ef6-7a443d705bfe.jpg""]","",""
"","6537","similarity","80","602841","0.0-6.0-74.0","3","[""img/0903/680ed18e-b311-4ecf-9b00-7dea32128334.jpg"",""img/0758/caa93da2-9edf-49fa-96b9-32dedd8f5078.jpg""]","",""
"","4315","similarity","81","608169","0.0-6.0-75.0","1","[""img/0766/00891401-e4c9-4ce1-bc19-f70740d174bc.jpg"",""img/0868/d6d1f30d-4323-435a-b194-7892521bc57e.jpg""]","",""
"","4650","similarity","82","613832","0.0-6.0-76.0","3","[""img/0874/bf14b896-e930-4fd9-9c05-2e83317a2773.jpg"",""img/0766/79767d11-b612-4e8a-9e4b-a8ac95bb6a54.jpg""]","",""
"","6826","similarity","83","621680","0.0-6.0-77.0","4","[""img/0881/dea58fad-b4f1-41d9-bd3f-916eff19a3fd.jpg"",""img/0868/3a62db2d-97e9-44a3-b8e3-a48c6f0e423b.jpg""]","",""
"","4295","similarity","84","626985","0.0-6.0-78.0","1","[""img/0758/65d426d6-3ff6-415d-8654-a43b83ecc4fe.jpg"",""img/0901/62315ff5-ed95-46b4-b099-92552079659b.jpg""]","",""
"","3615","similarity","85","631624","0.0-6.0-79.0","1","[""img/0881/344de456-b358-4887-bd0e-e4c3278af887.jpg"",""img/0898/a8f16b02-e19f-423b-86c3-a36562ae1f9b.jpg""]","",""
"","3568","similarity","86","636208","0.0-6.0-80.0","4","[""img/0867/f8488a47-94ee-4166-952c-44e16cf172f6.jpg"",""img/0758/d57c2592-a317-4f63-91be-91a3a9afd222.jpg""]","",""
"","3748","similarity","87","640976","0.0-6.0-81.0","5","[""img/0769/d1be2815-fa79-46e8-b5c3-7d81caaca490.jpg"",""img/0899/66bf4113-ee12-426c-84d2-ea410b6c803e.jpg""]","",""
"","2996","similarity","88","644991","0.0-6.0-82.0","7","[""img/0903/f45a103c-9bfe-49fd-ad96-bdd8d2589195.jpg"",""img/0903/5248eedd-7e6a-4d39-91b0-06ec227f3ed0.jpg""]","",""
"","3749","similarity","89","666614","0.0-6.0-83.0","1","[""img/0867/26611f4e-d694-4460-b7e2-43c62753ddc3.jpg"",""img/0766/af3be95e-e52e-4fae-899b-0ff02ec340aa.jpg""]","",""
"","5408","similarity","90","673038","0.0-6.0-84.0","1","[""img/0902/a323b62d-2fd5-4ac8-acc6-35b768f3c3f2.jpg"",""img/0867/f26f6b60-f772-4f4c-95a4-addc62cfd692.jpg""]","",""
"","4165","similarity","91","678214","0.0-6.0-85.0","1","[""img/0901/a9b9c0a0-8aed-4888-a78a-65fb7e764d13.jpg"",""img/0875/5a7c4e35-6514-4e12-8879-d16071da4cd6.jpg""]","",""
"","4035","similarity","92","683270","0.0-6.0-86.0","1","[""img/0764/d0bef2e0-e16b-4c82-9451-c1d16265eb67.jpg"",""img/0866/945c6710-d15b-4a5b-a8f6-69af0850357f.jpg""]","",""
"","3871","similarity","93","688166","0.0-6.0-87.0","2","[""img/0901/0adb3bd6-d758-4ba7-9723-3ad6cac05bd5.jpg"",""img/0894/c505c65a-cde2-4f2c-8cde-f8676f7c894d.jpg""]","",""
"","3620","similarity","94","692814","0.0-6.0-88.0","6","[""img/0898/81b08535-2020-4c15-9ce4-2f1e460755ae.jpg"",""img/0769/48a1144d-fbda-4809-991b-fc8424a32ee4.jpg""]","",""
"","4235","similarity","95","698069","0.0-6.0-89.0","6","[""img/0769/04347740-f8f6-48bb-887a-f68babd0a0d4.jpg"",""img/0894/3adef67d-7676-4995-80b2-bb31b8aca3ef.jpg""]","",""
"","3705","similarity","96","702792","0.0-6.0-90.0","5","[""img/0862/ee3b7bff-4a70-4e84-9bea-4a565e456acb.jpg"",""img/0874/a82926a3-0b43-4add-803c-d5f9ea7798ee.jpg""]","",""
"","3662","similarity","97","707469","0.0-6.0-91.0","5","[""img/0894/2217bdcd-23a7-42d3-823b-23f2488d7e87.jpg"",""img/0766/fd064894-7147-4af5-97e9-2089d5472656.jpg""]","",""
"","3975","similarity","98","712461","0.0-6.0-92.0","6","[""img/0874/3f471690-9788-4d03-90c7-f615aecef149.jpg"",""img/0867/8ba0c5a7-c7e4-42cf-a80a-543763b90779.jpg""]","",""
"","4094","similarity","99","717582","0.0-6.0-93.0","1","[""img/0899/56a605c3-d0a2-4215-89e1-779279d85a7c.jpg"",""img/0868/7b212364-ff5f-4e28-9241-7eb6ea00161b.jpg""]","",""
"","3559","similarity","100","722164","0.0-6.0-94.0","1","[""img/0903/8635cf25-2648-4fe9-8c42-79d2598e999c.jpg"",""img/0862/92f0146c-20c4-482e-aef5-adb693790338.jpg""]","",""
"","3810","similarity","101","726989","0.0-6.0-95.0","6","[""img/0899/b45c550b-96c3-4255-ad59-48a2b4db1c1e.jpg"",""img/0766/e8052e17-9dae-4139-802b-6e590cb2d526.jpg""]","",""
"","3900","similarity","102","731916","0.0-6.0-96.0","6","[""img/0867/bf560d4f-dee3-4f11-a385-705cc1aa5f3c.jpg"",""img/0868/4bd5105a-d2c3-4f82-8c80-57196106ba53.jpg""]","",""
"","4365","similarity","103","737300","0.0-6.0-97.0","5","[""img/0862/fad1d7c1-8187-43c3-942a-0fc12183e48e.jpg"",""img/0901/1ede21d9-384f-4150-86b5-e1c57b5dc1d4.jpg""]","",""
"","3915","similarity","104","742236","0.0-6.0-98.0","3","[""img/0875/90da8d75-108a-44ad-b999-e21fee3860d3.jpg"",""img/0766/5d6e0d1d-4369-41f0-a64c-91f3503055c7.jpg""]","",""
"","3714","similarity","105","746972","0.0-6.0-99.0","6","[""img/0758/67c0be2f-9e91-48b3-8219-70ac0a1802fa.jpg"",""img/0874/ca23d307-fc00-4d7d-9106-584c6eb21b4d.jpg""]","",""
"","4074","similarity","106","752060","0.0-6.0-100.0","2","[""img/0904/b7c2a2c8-df33-4473-b3d4-ff7147c60db3.jpg"",""img/0868/09a9ef4d-d000-4cfa-a6aa-ebec7c2edeb4.jpg""]","",""
"","5280","similarity","107","758355","0.0-6.0-101.0","2","[""img/0903/59defeb8-98bd-4570-a2f8-9bd189e68ef4.jpg"",""img/0866/a15b02be-11bb-43e3-b0e0-ecc3bd7dfc49.jpg""]","",""
"","3988","similarity","108","763363","0.0-6.0-102.0","1","[""img/0868/77091fc7-a590-4ebb-b915-fdb2483a2399.jpg"",""img/0769/e8ed913b-8a88-44f6-9327-d34afec3116b.jpg""]","",""
"","3976","similarity","109","768379","0.0-6.0-103.0","5","[""img/0902/71c03003-03ef-4b0f-8229-e0c857150a5d.jpg"",""img/0899/7b7380d5-d2be-44e5-a09a-c1756f87ef71.jpg""]","",""
"","3732","similarity","110","773139","0.0-6.0-104.0","4","[""img/0868/15dd6fd7-791e-4b53-b203-195d617521a4.jpg"",""img/0862/47ed5efd-4ec9-4b74-bb4e-a5f5cf0c3e7d.jpg""]","",""
"","4658","similarity","111","778819","0.0-6.0-105.0","7","[""img/0903/b548d383-2a95-4575-8c13-647873751ff1.jpg"",""img/0894/a3d4170b-b7d8-40e3-955f-87e76ed745fc.jpg""]","",""
"","5821","similarity","112","785652","0.0-6.0-106.0","7","[""img/0864/ea327690-500b-4137-bf91-451b309fe6a5.jpg"",""img/0874/93d1f8dc-acf2-4f03-bd8d-8ec35df276ed.jpg""]","",""
"","4253","similarity","113","790931","0.0-6.0-107.0","5","[""img/0862/53a9cf7c-93c4-41b9-952f-07d17f7a17b2.jpg"",""img/0902/3f0eeac5-c996-4026-a376-563ce8f28521.jpg""]","",""
"","3321","similarity","114","795267","0.0-6.0-108.0","6","[""img/0904/6291eb43-c10c-4810-a36a-101d09868b04.jpg"",""img/0903/b0df4094-a3be-4b5b-81bd-8d260f13f61b.jpg""]","",""
"","3440","similarity","115","799733","0.0-6.0-109.0","1","[""img/0764/e30dba15-e68a-4659-89db-e1654b52fe02.jpg"",""img/0864/3d4de670-b290-4285-9c3d-12a0e3af44e9.jpg""]","",""
"","5819","similarity","116","806578","0.0-6.0-110.0","2","[""img/0866/a04d37f0-99dd-478a-b6c6-58b215138f84.jpg"",""img/0894/38f5931f-926d-414e-b498-66b188978b7a.jpg""]","",""
"","4106","similarity","117","811699","0.0-6.0-111.0","5","[""img/0899/fd9efb43-701f-4cd6-baaa-4c38315f4bdc.jpg"",""img/0903/647ce311-8c71-479a-8361-961db1457139.jpg""]","",""
"","4500","similarity","118","817211","0.0-6.0-112.0","6","[""img/0902/01b41522-de46-4c3a-b0af-a61b2682b40e.jpg"",""img/0904/9dd5708f-3f8b-46a9-b49f-2f2fab87b357.jpg""]","",""
"","4072","similarity","119","822306","0.0-6.0-113.0","5","[""img/0864/8ddd2e30-a1d0-479f-9cbe-591213023893.jpg"",""img/0860/9593362c-9fe5-4d12-9735-6000a11f6aa5.jpg""]","",""
"","3483","similarity","120","826810","0.0-6.0-114.0","4","[""img/0860/e8b8c51e-1834-4875-8b61-6c5bc9b178bd.jpg"",""img/0899/fef567a2-c121-4481-9af0-ff108d199bbf.jpg""]","",""
"","4204","similarity","121","832034","0.0-6.0-115.0","2","[""img/0881/c24f3051-eefa-42de-aba6-fccb56d93c70.jpg"",""img/0903/f1fa0f8d-e62b-4b4a-a174-31a0fabfe61b.jpg""]","",""
"","4181","similarity","122","837242","0.0-6.0-116.0","2","[""img/0894/e6385e52-6c35-43bd-b0af-bc803d107b11.jpg"",""img/0874/eba003b4-cdab-4eee-8bc3-f064c7d94165.jpg""]","",""
"","3504","similarity","123","841769","0.0-6.0-117.0","5","[""img/0881/f4e3e181-b3c9-4af2-a5a4-fc135ab70d2e.jpg"",""img/0862/99a99e39-8355-44ec-b993-e7bcec111e1c.jpg""]","",""
"","3906","similarity","124","846688","0.0-6.0-118.0","4","[""img/0868/4a8a45ed-2c4f-421b-9564-409a33ecd26c.jpg"",""img/0875/ebf7653f-ff45-4e9f-af58-2c042ab3cd2b.jpg""]","",""
"","3908","similarity","125","851646","0.0-6.0-119.0","2","[""img/0860/c5ccd1a4-4bb7-48e1-9b25-72cfaf06909b.jpg"",""img/0758/6e95579b-5166-487c-b8cb-e417c6a218e3.jpg""]","",""
"","6120","similarity","126","858792","0.0-6.0-120.0","4","[""img/0864/1d15626a-2f7c-410f-819c-0fa2c967e95e.jpg"",""img/0875/5a1e5100-0d94-4fec-bbe9-ca9894d2cf8e.jpg""]","",""
"","4598","similarity","127","864400","0.0-6.0-121.0","2","[""img/0898/01bfe666-3510-4fc7-964f-d00d28732dc8.jpg"",""img/0866/620cd1aa-0800-4414-8f6e-90342e7a99ad.jpg""]","",""
"","5862","similarity","128","871279","0.0-6.0-122.0","2","[""img/0874/995f0332-0439-4eb4-add3-957335dbf6d9.jpg"",""img/0904/09dac84f-3d1c-4445-a68e-d0389fdbf1e9.jpg""]","",""
"","4765","similarity","129","877072","0.0-6.0-123.0","3","[""img/0904/696ebb60-8891-417a-91fd-c53218907a95.jpg"",""img/0864/4bd81bc6-c13d-46df-95a9-485886dc7c1b.jpg""]","",""
"","4733","similarity","130","882823","0.0-6.0-124.0","7","[""img/0894/76c1201f-8524-4865-85e6-dda8cb4ac986.jpg"",""img/0902/c9c74d2d-9b82-42d7-a9d0-3b8ff67ff81e.jpg""]","",""
"","3626","similarity","131","897334","0.0-6.0-125.0","4","[""img/0868/5fa7f9d0-f0e5-454c-8224-74d964818f56.jpg"",""img/0864/e02eddb5-f468-499c-91bf-f7be3ffe979b.jpg""]","",""
"","5198","similarity","132","903558","0.0-6.0-126.0","2","[""img/0899/a05bea16-2bb4-4cb9-b8fb-4ff975db6971.jpg"",""img/0866/bf14b5bd-fb55-47db-86b9-4f8aeb9a6dad.jpg""]","",""
"","4113","similarity","133","908686","0.0-6.0-127.0","2","[""img/0875/99698b4d-b4a1-44bc-8c83-8ea755bbbf61.jpg"",""img/0904/2c98dc56-88d1-4fb5-a999-b6a7861f65f0.jpg""]","",""
"","2861","similarity","134","912574","0.0-6.0-128.0","2","[""img/0867/85a96c62-548f-4994-9553-819e03c3135a.jpg"",""img/0899/5b56dd3e-3f49-47cc-af84-16da6457753b.jpg""]","",""
"","3074","similarity","135","916672","0.0-6.0-129.0","5","[""img/0901/4ca4f962-40c0-4c59-b14a-3cd7b8c9029b.jpg"",""img/0867/075e0f95-856b-4cbb-acf5-092393aaf04e.jpg""]","",""
"","4514","similarity","136","922198","0.0-6.0-130.0","3","[""img/0864/efcfbb1b-8197-44c9-b723-40d6c608dd3c.jpg"",""img/0769/da36e3f7-2337-434f-ab57-11822dd7eed7.jpg""]","",""
"","3712","similarity","137","926933","0.0-6.0-131.0","2","[""img/0903/31b5a5f4-b695-4af1-bad2-a19650a05498.jpg"",""img/0868/8b0b8473-e2c0-4331-aa56-c3a5c29369da.jpg""]","",""
"","3717","similarity","138","931653","0.0-6.0-132.0","4","[""img/0864/c22faebd-9c53-47bc-ada3-b9a30c688e75.jpg"",""img/0867/a498eef3-9fa4-4ab2-9778-4ae82ac40dc5.jpg""]","",""
"","4863","similarity","139","937533","0.0-6.0-133.0","7","[""img/0901/58ec7fa9-b466-4651-90aa-c082df0972de.jpg"",""img/0860/524b2e98-5767-4d53-942c-ebae6925659b.jpg""]","",""
"","5031","similarity","140","943581","0.0-6.0-134.0","2","[""img/0881/f62bdcd1-a4b7-4d48-83da-d9c9e01c8727.jpg"",""img/0766/d50d734f-285c-4840-bc7a-c8dd4aff391e.jpg""]","",""
"","3659","similarity","141","948253","0.0-6.0-135.0","1","[""img/0903/776b74ee-a8ab-4ab8-a78d-097c0747538d.jpg"",""img/0864/5f33e097-23e3-4002-882d-76e8cb15f451.jpg""]","",""
"","5611","similarity","142","954884","0.0-6.0-136.0","1","[""img/0758/e38fd80d-18d0-42f3-b848-f930788e8bd7.jpg"",""img/0894/a98416c0-51e2-4960-85da-d81d8688b9d5.jpg""]","",""
"","4361","similarity","143","960259","0.0-6.0-137.0","3","[""img/0769/878531fd-e0e8-4ad1-b9ad-f018bb104ca0.jpg"",""img/0860/c47fdead-eb02-4989-b078-26f4852f44fe.jpg""]","",""
"","4416","similarity","144","965693","0.0-6.0-138.0","5","[""img/0904/b5855d6a-7ef9-46ca-9215-6e9fa046e543.jpg"",""img/0766/b84598d0-5b41-4841-88b0-b441b48289f5.jpg""]","",""
"","4539","similarity","145","971252","0.0-6.0-139.0","5","[""img/0868/1a62b2b2-18f5-466e-b564-5176a57c565e.jpg"",""img/0860/702bd09d-df3a-40aa-a267-5f04474305b5.jpg""]","",""
"","3597","similarity","146","975868","0.0-6.0-140.0","6","[""img/0758/b76ceca7-95ac-46e4-ac13-da02c8e93be9.jpg"",""img/0864/a248adb3-c70b-4652-b7a3-776d2a1e904b.jpg""]","",""
"","2814","similarity","147","979700","0.0-6.0-141.0","7","[""img/0867/98d8cd96-1476-4fe0-a3a3-04f875500a1b.jpg"",""img/0867/cc72ed48-7704-422c-86d6-467a1145287a.jpg""]","",""
"","4191","similarity","148","984907","0.0-6.0-142.0","7","[""img/0898/b2732712-71c2-45d8-834f-2b2ed5504910.jpg"",""img/0898/ec565187-2e31-4fdd-9a5c-153d0c789ae0.jpg""]","",""
"","5594","similarity","149","991524","0.0-6.0-143.0","4","[""img/0866/11a1d141-be5e-443c-98c1-a9d4d9e3dec0.jpg"",""img/0769/3c1efec9-f8fd-487d-8955-4be88e48c832.jpg""]","",""
"","3429","similarity","150","995971","0.0-6.0-144.0","4","[""img/0860/61fb959d-d4d9-4de4-9e4e-4fa62b4cfcd5.jpg"",""img/0898/04e39a7a-fcf6-4156-ab0e-f5871f335e1c.jpg""]","",""
"","3700","similarity","151","1000683","0.0-6.0-145.0","4","[""img/0766/989c5c7f-1aff-4442-ac63-9d46acf4a891.jpg"",""img/0864/e8bd659f-aa43-4748-877e-3118e8b4e189.jpg""]","",""
"","4796","similarity","152","1006506","0.0-6.0-146.0","4","[""img/0860/4c530c3c-6aab-492a-94d1-9c01797bde40.jpg"",""img/0903/005ad0de-4f52-433c-b515-dbe8d46184a3.jpg""]","",""
"","4783","similarity","153","1012306","0.0-6.0-147.0","1","[""img/0867/6e19c858-b606-45b2-a4c6-910a73f1d82c.jpg"",""img/0764/b887d7c6-aa81-4637-af8e-05135757ac59.jpg""]","",""
"","3667","similarity","154","1016986","0.0-6.0-148.0","4","[""img/0769/75f7e514-0548-4329-b1e4-93c05e74f038.jpg"",""img/0904/5cceabc9-de1d-4c67-989b-c28a4ef77e79.jpg""]","",""
"","5778","similarity","155","1023778","0.0-6.0-149.0","5","[""img/0764/b8e23f4f-ff19-4472-ad9b-2f85548ebca0.jpg"",""img/0901/443f2e59-199b-4f7b-9de9-c44ad97326a5.jpg""]","",""
"","4733","similarity","156","1029538","0.0-6.0-150.0","5","[""img/0904/0d25eb24-bb20-4e8d-9787-8b489558b4cb.jpg"",""img/0899/0433d056-aa30-4f8a-9aa1-abbb951e4edd.jpg""]","",""
"","4130","similarity","157","1034681","0.0-6.0-151.0","4","[""img/0862/7918ca67-5bd3-4606-a5ea-c39fb11a9297.jpg"",""img/0867/179ab87a-8eac-4c52-a41f-2e48e3120f09.jpg""]","",""
"","5509","similarity","158","1041211","0.0-6.0-152.0","7","[""img/0766/75c3d627-4f3b-40d5-9d9c-10c8a62db644.jpg"",""img/0766/908bc45b-7c9e-4f95-806e-86b196ebcb2c.jpg""]","",""
"","4456","similarity","159","1046681","0.0-6.0-153.0","4","[""img/0862/00c06b00-3b73-44e9-bc1e-c5aafb438321.jpg"",""img/0894/0130a973-d993-41f8-874a-fee23d9ac11f.jpg""]","",""
"","3481","similarity","160","1051177","0.0-6.0-154.0","4","[""img/0899/d60714ae-98d7-4564-8c98-94dba1351135.jpg"",""img/0901/b123d109-47b4-4f9a-80c9-9bb16da42efa.jpg""]","",""
"","3129","similarity","161","1055329","0.0-6.0-155.0","7","[""img/0874/99f6563c-8a8d-4c1c-a41d-667b618c3fd5.jpg"",""img/0874/2c9464dd-8a23-4baa-ac94-1ba3af5c15cc.jpg""]","",""
"","2944","similarity","162","1059297","0.0-6.0-156.0","5","[""img/0860/17b44a7d-c5ca-479f-9e87-f65a64f5c80e.jpg"",""img/0867/c71dc569-f49c-4397-8381-68b8d726736d.jpg""]","",""
"","5558","similarity","163","1065881","0.0-6.0-157.0","1","[""img/0901/50e1d53e-a49f-4806-8610-be6dec5a2475.jpg"",""img/0881/44e09805-5a25-4f17-a716-4ad4a331b174.jpg""]","",""
"","4944","similarity","164","1071840","0.0-6.0-158.0","7","[""img/0903/3e9ee8a5-eb66-47f5-8973-8a5af1ddc87e.jpg"",""img/0902/d3e55000-c839-4bf9-9b9b-4af0a9925af1.jpg""]","",""
"","4036","similarity","165","1076888","0.0-6.0-159.0","2","[""img/0860/8fdba999-b946-4c7d-9891-336018b563ef.jpg"",""img/0764/da207710-e7e4-4f42-b2e6-99b5f357f433.jpg""]","",""
"","3840","similarity","166","1081744","0.0-6.0-160.0","1","[""img/0902/24d10fe7-314f-4d5a-8c7b-b43121bba0a4.jpg"",""img/0875/34132396-d896-4c2d-8087-646dd867e769.jpg""]","",""
"","4142","similarity","167","1086903","0.0-6.0-161.0","2","[""img/0898/79233891-305a-4a6a-8ddf-5c8604858203.jpg"",""img/0862/f23038d4-c366-4f70-979f-66b62362efa4.jpg""]","",""
"","4167","similarity","168","1092088","0.0-6.0-162.0","1","[""img/0894/492d2f29-d7b9-4422-8be8-47fd58bfaa8b.jpg"",""img/0875/cff79b3a-a797-4393-9757-6275f999ec04.jpg""]","",""
"","4899","similarity","169","1098007","0.0-6.0-163.0","4","[""img/0866/9b38d691-1802-4959-ab3f-fc902f0e4ea6.jpg"",""img/0864/1ebbc554-99fa-49f9-8799-317375a79820.jpg""]","",""
"","4999","similarity","170","1104022","0.0-6.0-164.0","1","[""img/0766/717fd72f-a281-499b-a5ba-5e2ecc4d4866.jpg"",""img/0862/f43ceabf-acc1-4107-b857-5d1849808f93.jpg""]","",""
"","3605","similarity","171","1108639","0.0-6.0-165.0","4","[""img/0866/be24ab58-230e-4db8-9f45-ff04c9aec6bb.jpg"",""img/0874/adf9a8f1-c40b-402b-b95b-1e85a54a7b62.jpg""]","",""
"","3686","similarity","172","1113343","0.0-6.0-166.0","5","[""img/0862/d0ca4c78-fc35-46ed-bdcc-8e124283c53e.jpg"",""img/0860/31ff6436-98bf-4652-bed2-40f627229568.jpg""]","",""
"","4359","similarity","173","1129446","0.0-6.0-167.0","5","[""img/0766/535849cc-ff5d-4df9-8f31-0ce94a97d571.jpg"",""img/0901/168eb52c-c415-43f1-b5c8-e76e1a1ec247.jpg""]","",""
"","4575","similarity","174","1135029","0.0-6.0-168.0","7","[""img/0862/de9ad88c-b522-430a-8ee9-eb06a9f85df5.jpg"",""img/0862/4f0a3b4c-afbf-486e-b248-1d54982f54b4.jpg""]","",""
"","5264","similarity","175","1141309","0.0-6.0-169.0","5","[""img/0894/86201968-6e78-4d68-9b3a-d1692e066210.jpg"",""img/0764/f64dfa83-333d-494c-87b5-73e942f1766e.jpg""]","",""
"","3940","similarity","176","1146262","0.0-6.0-170.0","3","[""img/0874/a3bc679d-619f-4db6-bb68-116dcb757d9c.jpg"",""img/0898/993d8f2d-bef7-4251-a193-0f93a32b7763.jpg""]","",""
"","5010","similarity","177","1152293","0.0-6.0-171.0","5","[""img/0860/71e1aad0-2cdf-43bb-94a4-a8c016997c30.jpg"",""img/0766/db750ba0-ce04-46e1-b601-e1b80212bad2.jpg""]","",""
"","4227","similarity","178","1157541","0.0-6.0-172.0","3","[""img/0898/661621d4-a14e-487c-8c74-354134a29710.jpg"",""img/0864/65210d57-1153-4657-886a-32e758f49b4a.jpg""]","",""
"","84033","similarity","179","1242586","0.0-6.0-173.0","3","[""img/0881/62a64f90-7a72-4aee-a1a1-0c548ac9bdda.jpg"",""img/0764/978aede9-4590-4ad0-b234-135c83e5d669.jpg""]","",""
"","5032","similarity","180","1248635","0.0-6.0-174.0","2","[""img/0898/68476bbb-34a1-42d9-8bc1-deab783d4489.jpg"",""img/0868/d98ca254-b195-477f-b57e-5760a2717db8.jpg""]","",""
"","3508","similarity","181","1253163","0.0-6.0-175.0","7","[""img/0864/300bb811-8b3c-4c42-8653-6097c3725197.jpg"",""img/0864/ef9cbca0-4be8-435d-ad49-977259e80409.jpg""]","",""
"","3886","similarity","182","1258066","0.0-6.0-176.0","3","[""img/0899/25ae6ec8-9565-49fe-a8bb-8d0666f52716.jpg"",""img/0862/5d887e9f-89e2-4ebc-80a0-6d46fe6480db.jpg""]","",""
"","3307","similarity","183","1262393","0.0-6.0-177.0","5","[""img/0875/d59ff733-eaff-4ee2-9443-06954dd0bcb6.jpg"",""img/0758/6cd8c362-ae2a-41eb-80a3-3a4f7ace1530.jpg""]","",""
"","3899","similarity","184","1267305","0.0-6.0-178.0","5","[""img/0866/93a27239-8317-4e08-98ca-d8b1ff298e07.jpg"",""img/0901/d61f267a-c492-4db6-9bfb-61efd49cf072.jpg""]","",""
"","5651","similarity","185","1273969","0.0-6.0-179.0","3","[""img/0769/50985283-d353-4abc-9abe-14a91d56ebe6.jpg"",""img/0874/31e22c7c-99aa-40b1-bf03-dd73fa2df4d6.jpg""]","",""
"","62933","similarity","186","1337911","0.0-6.0-180.0","5","[""img/0875/3ecb367d-e9eb-4826-8aaa-7aa72fb98019.jpg"",""img/0881/f7a8cc63-8842-40a4-9ff8-fe530310d62c.jpg""]","",""
"","3581","similarity","187","1342512","0.0-6.0-181.0","7","[""img/0866/0207e9a2-7dbb-40b5-9459-b472aaeceb2a.jpg"",""img/0868/179a5502-ab5c-478e-8263-5a1fbcc101d2.jpg""]","",""
"","4657","similarity","188","1348183","0.0-6.0-182.0","4","[""img/0899/51a7a498-98c7-42d7-bca8-bc2d8f0b5831.jpg"",""img/0758/d41c06bf-ebaf-454b-91c6-1a17f917b659.jpg""]","",""
"","4056","similarity","189","1353254","0.0-6.0-183.0","3","[""img/0874/8cdb1c07-1c32-46d2-981c-3636560fa6e5.jpg"",""img/0875/8521fd58-3b1e-4dc5-97ae-804edfa6734a.jpg""]","",""
"","4903","similarity","190","1359182","0.0-6.0-184.0","3","[""img/0904/4b8daf2a-13a9-4ea9-9e0b-b265b6e933e7.jpg"",""img/0862/1c20f772-3a51-4a80-aac0-f57dc9f86c28.jpg""]","",""
"","9707","similarity","191","1369910","0.0-6.0-185.0","5","[""img/0902/5b45a7a0-81c8-4a71-aaa2-2ce09adb5a29.jpg"",""img/0766/33aa9ebb-c9f5-418f-8c8b-c77861889568.jpg""]","",""
"","5639","similarity","192","1376565","0.0-6.0-186.0","3","[""img/0758/3ddd05d3-557e-4ee7-8b78-9d2d681d8ae2.jpg"",""img/0769/4a1d0b52-3fe8-40fb-bb1c-c814fe49a68c.jpg""]","",""
"","5795","similarity","193","1383390","0.0-6.0-187.0","5","[""img/0881/f6bd3b96-dc40-4e99-8681-bc3a35cf896d.jpg"",""img/0881/445edb15-bd7f-4af3-8bd5-c6ad9677bb31.jpg""]","",""
"","2715","similarity","194","1387125","0.0-6.0-188.0","4","[""img/0758/a085b443-b5d7-4cb2-9ad4-b9dab0fc23f1.jpg"",""img/0866/4a87911a-d5be-4d4e-ab8e-3d1f581bf507.jpg""]","",""
"","4808","similarity","195","1392949","0.0-6.0-189.0","4","[""img/0764/952d7adc-dc40-4aee-acce-18c2a1d02ea1.jpg"",""img/0898/0c7dde4f-efce-4b7a-9387-6921635b7890.jpg""]","",""
"","5060","similarity","196","1399021","0.0-6.0-190.0","5","[""img/0903/45e2d600-57ff-4d69-b22c-0c7896cd38f0.jpg"",""img/0901/2a953e50-d237-405c-a38d-5ed21494c968.jpg""]","",""
"","3909","similarity","197","1403957","0.0-6.0-191.0","6","[""img/0902/af45fe42-178c-4c1a-99ef-256e87e3b092.jpg"",""img/0898/8605a25b-6895-476d-8c13-df7a83f96093.jpg""]","",""
"","4633","similarity","198","1409612","0.0-6.0-192.0","2","[""img/0864/9b2490c5-a282-400a-9736-e1a0ecbf1cb7.jpg"",""img/0901/fb0a8e69-7f19-4e6e-a6bb-a48f97f9b4f3.jpg""]","",""
"","4011","similarity","199","1414647","0.0-6.0-193.0","1","[""img/0894/133a1636-d123-4893-873c-1718050f832a.jpg"",""img/0881/5fe04dd0-5c74-47b7-99c8-b068db9ca26a.jpg""]","",""
"","4372","similarity","200","1420044","0.0-6.0-194.0","7","[""img/0868/293079b8-7e0c-4afd-a390-1e5d35fe3ded.jpg"",""img/0868/fd307a36-9a3a-47d7-ab7c-f810d0b35040.jpg""]","",""
"","8445","similarity","201","1429516","0.0-6.0-195.0","6","[""img/0899/565ccdd9-0933-4536-a625-3c0e25a713dd.jpg"",""img/0764/4eff630a-6426-4f8d-b2ba-b4d9842a0962.jpg""]","",""
"","5914","similarity","202","1436451","0.0-6.0-196.0","3","[""img/0881/20af39f5-373d-4a55-a437-2dc4c0382c46.jpg"",""img/0904/da170c1b-9651-4f08-b231-2bdd1d9a046f.jpg""]","",""
"","4432","similarity","203","1441908","0.0-6.0-197.0","3","[""img/0864/c3b63e8f-ea39-4d70-a1f2-b3fe4be8eb75.jpg"",""img/0902/51493fab-2a10-4385-aa88-bee3db441626.jpg""]","",""
"","3070","similarity","204","1446002","0.0-6.0-198.0","5","[""img/0894/b2d2f66e-e480-46da-a02a-6d0c6b285d78.jpg"",""img/0904/2f88ce53-02d0-4f95-a082-182c56a0eeb4.jpg""]","",""
"","3745","similarity","205","1450763","0.0-6.0-199.0","7","[""img/0901/148b747a-7392-437e-8823-33053c5dff3f.jpg"",""img/0901/b453df0b-4c39-49bb-8ced-6127efffa898.jpg""]","",""
"","61468","similarity","206","1513257","0.0-6.0-200.0","1","[""img/0894/6b2e9509-8699-42b7-9582-7741df0ba2d7.jpg"",""img/0860/15b24a61-25be-4356-9eac-5ce95d0cb4a4.jpg""]","",""
"","2895","similarity","207","1517177","0.0-6.0-201.0","7","[""img/0898/f3a3f225-1248-4ac7-b93b-f0ff28485bf3.jpg"",""img/0903/b4a0f61e-a964-4b79-a9a7-f767a8f92f34.jpg""]","",""
"","3452","similarity","208","1521641","0.0-6.0-202.0","2","[""img/0864/66091c27-e588-4476-8af9-265dc6be4156.jpg"",""img/0894/05161000-f476-499b-a878-c13c7f347fd9.jpg""]","",""
"","3942","similarity","209","1526601","0.0-6.0-203.0","5","[""img/0874/85eb9b8a-c4c6-4e5a-b8e7-363a87a82054.jpg"",""img/0860/e14d67c1-6d92-4f1e-9257-c8607159c19c.jpg""]","",""
"","33072","similarity","210","1560688","0.0-6.0-204.0","5","[""img/0862/e697469a-ec19-4414-b972-7b9f3564785b.jpg"",""img/0875/a4935837-7d3c-4df6-88c1-36a94d4991ca.jpg""]","",""
"","3893","similarity","211","1565608","0.0-6.0-205.0","4","[""img/0867/2e1a0b58-cdb1-4107-a14e-452530d7b9b0.jpg"",""img/0881/4bd34581-94d8-4e88-8c89-5cef864ca3be.jpg""]","",""
"","6505","similarity","212","1573127","0.0-6.0-206.0","3","[""img/0901/d4d09bf5-093e-4050-838e-7c738be8e63c.jpg"",""img/0902/1a120fb9-dbd6-443e-ba91-b4aceab963da.jpg""]","",""
"","4119","similarity","213","1578262","0.0-6.0-207.0","3","[""img/0899/a048912c-b12c-40e3-90af-46b69b0cc4fe.jpg"",""img/0864/afcba0a3-7e27-4757-b254-e9f05fad27e2.jpg""]","",""
"","5275","similarity","214","1584558","0.0-6.0-208.0","4","[""img/0901/33b51a81-06d9-46d9-9d4f-5a2d6d6b8058.jpg"",""img/0769/0fe124d3-bcad-45f6-b64d-8f6eb8ee5251.jpg""]","",""
"","6200","similarity","215","1598133","0.0-6.0-209.0","7","[""img/0902/27b84584-948a-485b-8749-cb09929ef631.jpg"",""img/0902/0db94c50-f1fb-4091-953c-29ca0466bee2.jpg""]","",""
"[{""page_index"":0,""viewing_time"":6612}]","6613","instructions","216","1605757","0.0-7.0","","","",""
"","74007","image-multi-choice","217","1680813","0.0-8.0-0.0","","","{""Q0"":""Orange-crowned Warbler""}","Nashville Warbler"
"","16265","image-multi-choice","218","1698107","0.0-8.0-1.0","","","{""Q0"":""Black-and-white Warbler""}","Black-and-white Warbler"
"","6918","image-multi-choice","219","1706066","0.0-8.0-2.0","","","{""Q0"":""Townsend's Warbler""}","Townsend's Warbler"
"","5811","image-multi-choice","220","1712914","0.0-8.0-3.0","","","{""Q0"":""Lark Sparrow""}","Lark Sparrow"
"","4348","image-multi-choice","221","1718289","0.0-8.0-4.0","","","{""Q0"":""Yellow Warbler""}","Yellow Warbler"
"","44931","image-multi-choice","222","1764272","0.0-8.0-5.0","","","{""Q0"":""Tennessee Warbler""}","Orange-crowned Warbler"
"","12454","image-multi-choice","223","1777768","0.0-8.0-6.0","","","{""Q0"":""White-throated Sparrow""}","White-throated Sparrow"
"","5035","image-multi-choice","224","1783847","0.0-8.0-7.0","","","{""Q0"":""Fox Sparrow""}","Fox Sparrow"
"","14324","image-multi-choice","225","1799190","0.0-8.0-8.0","","","{""Q0"":""Song Sparrow""}","Song Sparrow"
"","10018","image-multi-choice","226","1810243","0.0-8.0-9.0","","","{""Q0"":""Blackburnian Warbler""}","Blackburnian Warbler"
"","24681","image-multi-choice","227","1835957","0.0-8.0-10.0","","","{""Q0"":""Lincoln's Sparrow""}","Vesper Sparrow"
"","6924","image-multi-choice","228","1843917","0.0-8.0-11.0","","","{""Q0"":""White-crowned Sparrow""}","White-crowned Sparrow"
"","7445","image-multi-choice","229","1852389","0.0-8.0-12.0","","","{""Q0"":""American Tree Sparrow""}","American Tree Sparrow"
"","32809","image-multi-choice","230","1886220","0.0-8.0-13.0","","","{""Q0"":""Orange-crowned Warbler""}","Tennessee Warbler"
"","7324","image-multi-choice","231","1894579","0.0-8.0-14.0","","","{""Q0"":""Magnolia Warbler""}","Magnolia Warbler"
"","4082","image-multi-choice","232","1899691","0.0-8.0-15.0","","","{""Q0"":""Northern Waterthrush""}","Northern Waterthrush"
"","9560","image-multi-choice","233","1910283","0.0-8.0-16.0","","","{""Q0"":""Chipping Sparrow""}","Chipping Sparrow"
"","17469","image-multi-choice","234","1928794","0.0-8.0-17.0","","","{""Q0"":""Swamp Sparrow""}","Swamp Sparrow"
"","21979","image-multi-choice","235","1951809","0.0-8.0-18.0","","","{""Q0"":""Lincoln's Sparrow""}","Lincoln's Sparrow"
"","4130","image-multi-choice","236","1956977","0.0-8.0-19.0","","","{""Q0"":""Ovenbird""}","Ovenbird"
