[{"view_history":"[{\"page_index\":0,\"viewing_time\":27879}]","rt":27882,"trial_type":"instructions","trial_index":0,"time_elapsed":27887,"internal_node_id":"0.0-0.0"},{"sim_score":3,"rt":12892,"stimulus":"[\"img/866.jpg\",\"img/868.jpg\"]","trial_type":"similarity_demo","trial_index":1,"time_elapsed":41827,"internal_node_id":"0.0-1.0"},{"view_history":"[{\"page_index\":0,\"viewing_time\":16697}]","rt":16703,"trial_type":"instructions","trial_index":2,"time_elapsed":59536,"internal_node_id":"0.0-2.0"},{"sim_score":1,"rt":4894,"stimulus":"[\"img/766.jpg\",\"img/867.jpg\"]","trial_type":"similarity_demo","trial_index":3,"time_elapsed":65511,"internal_node_id":"0.0-3.0"},{"view_history":"[{\"page_index\":0,\"viewing_time\":8405}]","rt":8408,"trial_type":"instructions","trial_index":4,"time_elapsed":74958,"internal_node_id":"0.0-4.0"},{"view_history":"[{\"page_index\":0,\"viewing_time\":45678}]","rt":45681,"trial_type":"instructions","trial_index":5,"time_elapsed":121651,"internal_node_id":"0.0-5.0"},{"sim_score":1,"rt":5148,"stimulus":"[\"img/0868/e0aff734-077f-40dd-9781-74821abd3621.jpg\",\"img/0901/4d1bed7e-3c4e-4f6c-ada9-4beb66ba9e39.jpg\"]","trial_type":"similarity","trial_index":6,"time_elapsed":127869,"internal_node_id":"0.0-6.0-0.0"},{"sim_score":1,"rt":5671,"stimulus":"[\"img/0769/91acb237-65a3-4d0b-9748-af5c7b83d3c7.jpg\",\"img/0867/aa05d113-fc19-4756-a8eb-7878f580bc92.jpg\"]","trial_type":"similarity","trial_index":7,"time_elapsed":134613,"internal_node_id":"0.0-6.0-1.0"},{"sim_score":2,"rt":8156,"stimulus":"[\"img/0766/006035d8-c736-4daf-bbe4-a9e373af9da6.jpg\",\"img/0898/b3290bf9-215b-4b45-b21a-65bdf73f142f.jpg\"]","trial_type":"similarity","trial_index":8,"time_elapsed":143857,"internal_node_id":"0.0-6.0-2.0"},{"sim_score":3,"rt":5980,"stimulus":"[\"img/0902/3f0eeac5-c996-4026-a376-563ce8f28521.jpg\",\"img/0881/adc02f34-ce97-4aef-850f-00519df06fd7.jpg\"]","trial_type":"similarity","trial_index":9,"time_elapsed":150933,"internal_node_id":"0.0-6.0-3.0"},{"sim_score":6,"rt":6286,"stimulus":"[\"img/0894/133a1636-d123-4893-873c-1718050f832a.jpg\",\"img/0894/7f2f31fd-6618-41c6-b65a-0fd8b2851bc9.jpg\"]","trial_type":"similarity","trial_index":10,"time_elapsed":158300,"internal_node_id":"0.0-6.0-4.0"},{"sim_score":3,"rt":5259,"stimulus":"[\"img/0874/2c9464dd-8a23-4baa-ac94-1ba3af5c15cc.jpg\",\"img/0899/a048912c-b12c-40e3-90af-46b69b0cc4fe.jpg\"]","trial_type":"similarity","trial_index":11,"time_elapsed":164645,"internal_node_id":"0.0-6.0-5.0"},{"sim_score":5,"rt":5890,"stimulus":"[\"img/0904/6291eb43-c10c-4810-a36a-101d09868b04.jpg\",\"img/0764/e0788029-9d7f-414c-b747-46d2a99f7c86.jpg\"]","trial_type":"similarity","trial_index":12,"time_elapsed":171615,"internal_node_id":"0.0-6.0-6.0"},{"sim_score":3,"rt":6437,"stimulus":"[\"img/0899/57476fed-5962-4272-8fc9-b317bb777b54.jpg\",\"img/0898/ec565187-2e31-4fdd-9a5c-153d0c789ae0.jpg\"]","trial_type":"similarity","trial_index":13,"time_elapsed":179129,"internal_node_id":"0.0-6.0-7.0"},{"sim_score":1,"rt":4495,"stimulus":"[\"img/0874/c0378dac-9370-439a-8b79-db27c96fb390.jpg\",\"img/0903/005ad0de-4f52-433c-b515-dbe8d46184a3.jpg\"]","trial_type":"similarity","trial_index":14,"time_elapsed":184704,"internal_node_id":"0.0-6.0-8.0"},{"sim_score":2,"rt":4366,"stimulus":"[\"img/0881/ed4c971f-0873-4fc8-b6d6-e8bbd82f0bcc.jpg\",\"img/0758/d57c2592-a317-4f63-91be-91a3a9afd222.jpg\"]","trial_type":"similarity","trial_index":15,"time_elapsed":190144,"internal_node_id":"0.0-6.0-9.0"},{"sim_score":2,"rt":5248,"stimulus":"[\"img/0898/68476bbb-34a1-42d9-8bc1-deab783d4489.jpg\",\"img/0901/71e551a2-9ce2-409c-9c7c-dd556a0791e9.jpg\"]","trial_type":"similarity","trial_index":16,"time_elapsed":196472,"internal_node_id":"0.0-6.0-10.0"},{"sim_score":4,"rt":6909,"stimulus":"[\"img/0903/b4a0f61e-a964-4b79-a9a7-f767a8f92f34.jpg\",\"img/0769/1d8734c4-77ab-4165-9e71-5cfe672ff01c.jpg\"]","trial_type":"similarity","trial_index":17,"time_elapsed":204445,"internal_node_id":"0.0-6.0-11.0"},{"sim_score":1,"rt":3867,"stimulus":"[\"img/0764/4bec8d92-75aa-475a-954d-8215dbe538f5.jpg\",\"img/0868/4bd5105a-d2c3-4f82-8c80-57196106ba53.jpg\"]","trial_type":"similarity","trial_index":18,"time_elapsed":209401,"internal_node_id":"0.0-6.0-12.0"},{"sim_score":2,"rt":4282,"stimulus":"[\"img/0867/f8159067-056c-41f1-a136-c529fe5e970a.jpg\",\"img/0903/70d764d9-1f35-4da7-a35d-4cc39834d270.jpg\"]","trial_type":"similarity","trial_index":19,"time_elapsed":214754,"internal_node_id":"0.0-6.0-13.0"},{"sim_score":1,"rt":3989,"stimulus":"[\"img/0766/91fc8c4d-862f-4d2b-b1a1-2db8d729b6b7.jpg\",\"img/0758/dd559618-7f09-4a07-8018-d311c4a5ea29.jpg\"]","trial_type":"similarity","trial_index":20,"time_elapsed":219826,"internal_node_id":"0.0-6.0-14.0"},{"sim_score":2,"rt":3930,"stimulus":"[\"img/0902/8065aa6b-4aef-4368-afa2-02c6465ca582.jpg\",\"img/0860/15b24a61-25be-4356-9eac-5ce95d0cb4a4.jpg\"]","trial_type":"similarity","trial_index":21,"time_elapsed":224837,"internal_node_id":"0.0-6.0-15.0"},{"sim_score":2,"rt":4767,"stimulus":"[\"img/0769/f73c5138-2f4c-4354-981c-129dff9cc734.jpg\",\"img/0875/d59ff733-eaff-4ee2-9443-06954dd0bcb6.jpg\"]","trial_type":"similarity","trial_index":22,"time_elapsed":230687,"internal_node_id":"0.0-6.0-16.0"},{"sim_score":1,"rt":4341,"stimulus":"[\"img/0904/09934646-45d2-4147-8fec-64a22a5ac822.jpg\",\"img/0866/23a224f3-2012-4fc8-8e0f-3c36f8de27fd.jpg\"]","trial_type":"similarity","trial_index":23,"time_elapsed":236101,"internal_node_id":"0.0-6.0-17.0"},{"sim_score":6,"rt":4610,"stimulus":"[\"img/0875/42910c99-5463-450a-a0f8-d4d060a11455.jpg\",\"img/0875/03c3c331-738b-4446-af92-3d7386b08c2e.jpg\"]","trial_type":"similarity","trial_index":24,"time_elapsed":241798,"internal_node_id":"0.0-6.0-18.0"},{"sim_score":5,"rt":5100,"stimulus":"[\"img/0758/3ddd05d3-557e-4ee7-8b78-9d2d681d8ae2.jpg\",\"img/0758/6cd8c362-ae2a-41eb-80a3-3a4f7ace1530.jpg\"]","trial_type":"similarity","trial_index":25,"time_elapsed":247974,"internal_node_id":"0.0-6.0-19.0"},{"sim_score":1,"rt":4060,"stimulus":"[\"img/0902/44cd9b7e-fdfb-4f78-90de-8d4c9d279365.jpg\",\"img/0874/31e22c7c-99aa-40b1-bf03-dd73fa2df4d6.jpg\"]","trial_type":"similarity","trial_index":26,"time_elapsed":253126,"internal_node_id":"0.0-6.0-20.0"},{"sim_score":5,"rt":6679,"stimulus":"[\"img/0764/b8e23f4f-ff19-4472-ad9b-2f85548ebca0.jpg\",\"img/0769/04347740-f8f6-48bb-887a-f68babd0a0d4.jpg\"]","trial_type":"similarity","trial_index":27,"time_elapsed":260886,"internal_node_id":"0.0-6.0-21.0"},{"sim_score":1,"rt":3574,"stimulus":"[\"img/0901/50e1d53e-a49f-4806-8610-be6dec5a2475.jpg\",\"img/0874/7e4f2150-3b59-4a36-b5da-a4e0ba410531.jpg\"]","trial_type":"similarity","trial_index":28,"time_elapsed":265532,"internal_node_id":"0.0-6.0-22.0"},{"sim_score":2,"rt":3817,"stimulus":"[\"img/0875/dbdd643e-6d0e-4a5c-ab57-b9c29b9c981a.jpg\",\"img/0903/a0673b55-6040-47fe-9040-24bca27ca3c9.jpg\"]","trial_type":"similarity","trial_index":29,"time_elapsed":270428,"internal_node_id":"0.0-6.0-23.0"},{"sim_score":2,"rt":3991,"stimulus":"[\"img/0769/f6396414-6788-4d59-9683-de153298d89c.jpg\",\"img/0881/609a5e93-38b5-4940-8627-2bf8fad7f802.jpg\"]","trial_type":"similarity","trial_index":30,"time_elapsed":275501,"internal_node_id":"0.0-6.0-24.0"},{"sim_score":1,"rt":4248,"stimulus":"[\"img/0867/12264664-1860-46df-8c21-162b9817cdda.jpg\",\"img/0904/9d30eff1-46ef-4453-b11e-124ef8145c00.jpg\"]","trial_type":"similarity","trial_index":31,"time_elapsed":280836,"internal_node_id":"0.0-6.0-25.0"},{"sim_score":3,"rt":5448,"stimulus":"[\"img/0860/8277806e-b684-4474-8f7b-3fca946d7d4f.jpg\",\"img/0881/f4e3e181-b3c9-4af2-a5a4-fc135ab70d2e.jpg\"]","trial_type":"similarity","trial_index":32,"time_elapsed":287363,"internal_node_id":"0.0-6.0-26.0"},{"sim_score":7,"rt":4749,"stimulus":"[\"img/0866/be24ab58-230e-4db8-9f45-ff04c9aec6bb.jpg\",\"img/0866/9b38d691-1802-4959-ab3f-fc902f0e4ea6.jpg\"]","trial_type":"similarity","trial_index":33,"time_elapsed":293204,"internal_node_id":"0.0-6.0-27.0"},{"sim_score":3,"rt":5993,"stimulus":"[\"img/0764/974d52cc-6318-4e7a-b294-2f3e92ff800f.jpg\",\"img/0862/ee3b7bff-4a70-4e84-9bea-4a565e456acb.jpg\"]","trial_type":"similarity","trial_index":34,"time_elapsed":300274,"internal_node_id":"0.0-6.0-28.0"},{"sim_score":2,"rt":4666,"stimulus":"[\"img/0904/ba8e689e-9ca6-4608-a2a1-3b0940666ae6.jpg\",\"img/0758/335851a0-a55b-46d8-ab05-8463eda48349.jpg\"]","trial_type":"similarity","trial_index":35,"time_elapsed":306019,"internal_node_id":"0.0-6.0-29.0"},{"sim_score":5,"rt":6443,"stimulus":"[\"img/0894/7dd6ff43-f8fc-408a-8a41-a2b261871820.jpg\",\"img/0899/d60714ae-98d7-4564-8c98-94dba1351135.jpg\"]","trial_type":"similarity","trial_index":36,"time_elapsed":313540,"internal_node_id":"0.0-6.0-30.0"},{"sim_score":1,"rt":4347,"stimulus":"[\"img/0860/61fb959d-d4d9-4de4-9e4e-4fa62b4cfcd5.jpg\",\"img/0904/0d25eb24-bb20-4e8d-9787-8b489558b4cb.jpg\"]","trial_type":"similarity","trial_index":37,"time_elapsed":319032,"internal_node_id":"0.0-6.0-31.0"},{"sim_score":7,"rt":4588,"stimulus":"[\"img/0874/ca76a855-4e77-4f2f-872a-0a718153e7ed.jpg\",\"img/0881/c24f3051-eefa-42de-aba6-fccb56d93c70.jpg\"]","trial_type":"similarity","trial_index":38,"time_elapsed":324706,"internal_node_id":"0.0-6.0-32.0"},{"sim_score":5,"rt":5967,"stimulus":"[\"img/0881/0c7068da-d0d9-4103-bda1-74ef7a2b32c3.jpg\",\"img/0899/00715b3f-851b-420b-a26b-d7f79f7759a9.jpg\"]","trial_type":"similarity","trial_index":39,"time_elapsed":331767,"internal_node_id":"0.0-6.0-33.0"},{"sim_score":2,"rt":4481,"stimulus":"[\"img/0866/0207e9a2-7dbb-40b5-9459-b472aaeceb2a.jpg\",\"img/0862/24cdc752-c2e5-4a17-86a6-6f2045d8553b.jpg\"]","trial_type":"similarity","trial_index":40,"time_elapsed":337331,"internal_node_id":"0.0-6.0-34.0"},{"sim_score":2,"rt":5831,"stimulus":"[\"img/0868/09a9ef4d-d000-4cfa-a6aa-ebec7c2edeb4.jpg\",\"img/0894/76c1201f-8524-4865-85e6-dda8cb4ac986.jpg\"]","trial_type":"similarity","trial_index":41,"time_elapsed":344241,"internal_node_id":"0.0-6.0-35.0"},{"sim_score":7,"rt":4228,"stimulus":"[\"img/0860/99c589b9-9140-4d17-90c0-b344323edcda.jpg\",\"img/0860/18dfed73-e36b-4487-a8bd-0b8cff8e3668.jpg\"]","trial_type":"similarity","trial_index":42,"time_elapsed":349553,"internal_node_id":"0.0-6.0-36.0"},{"sim_score":3,"rt":6121,"stimulus":"[\"img/0862/92fcd8a4-8193-4a6a-ae09-dd4a6338b0df.jpg\",\"img/0864/49150900-7f25-4ce8-8d10-9b47a71d1997.jpg\"]","trial_type":"similarity","trial_index":43,"time_elapsed":356753,"internal_node_id":"0.0-6.0-37.0"},{"sim_score":1,"rt":4300,"stimulus":"[\"img/0766/908bc45b-7c9e-4f95-806e-86b196ebcb2c.jpg\",\"img/0866/6f2a90d7-14f1-4f1b-bd64-fc0af6b9fe44.jpg\"]","trial_type":"similarity","trial_index":44,"time_elapsed":362128,"internal_node_id":"0.0-6.0-38.0"},{"sim_score":1,"rt":4052,"stimulus":"[\"img/0875/2c361b79-c3d1-4eda-812e-bf03192407bf.jpg\",\"img/0898/79233891-305a-4a6a-8ddf-5c8604858203.jpg\"]","trial_type":"similarity","trial_index":45,"time_elapsed":367258,"internal_node_id":"0.0-6.0-39.0"},{"sim_score":5,"rt":5454,"stimulus":"[\"img/0766/71b81ebd-0937-4d7f-b8bf-c4e46a4728fd.jpg\",\"img/0769/1ca58b80-2365-446d-9616-6c1719e6c46f.jpg\"]","trial_type":"similarity","trial_index":46,"time_elapsed":373799,"internal_node_id":"0.0-6.0-40.0"},{"sim_score":2,"rt":5137,"stimulus":"[\"img/0874/93d1f8dc-acf2-4f03-bd8d-8ec35df276ed.jpg\",\"img/0764/c0b03adb-bd0a-4b96-a915-a827c2fd5211.jpg\"]","trial_type":"similarity","trial_index":47,"time_elapsed":403833,"internal_node_id":"0.0-6.0-41.0"},{"sim_score":1,"rt":4116,"stimulus":"[\"img/0868/d6d1f30d-4323-435a-b194-7892521bc57e.jpg\",\"img/0902/10d99c89-71f7-4c81-a31e-dfc7c59f5232.jpg\"]","trial_type":"similarity","trial_index":48,"time_elapsed":409038,"internal_node_id":"0.0-6.0-42.0"},{"sim_score":1,"rt":3515,"stimulus":"[\"img/0875/99698b4d-b4a1-44bc-8c83-8ea755bbbf61.jpg\",\"img/0899/4f7bc593-8ddd-4da3-a0b9-84da730d3370.jpg\"]","trial_type":"similarity","trial_index":49,"time_elapsed":413629,"internal_node_id":"0.0-6.0-43.0"},{"sim_score":4,"rt":7554,"stimulus":"[\"img/0866/f756f7d1-9ad8-4a34-9ef6-7a443d705bfe.jpg\",\"img/0860/4f695df5-afac-4da7-9875-fee39b0b24ad.jpg\"]","trial_type":"similarity","trial_index":50,"time_elapsed":422250,"internal_node_id":"0.0-6.0-44.0"},{"sim_score":5,"rt":4612,"stimulus":"[\"img/0766/5d1b8041-c5a1-4b02-b4fe-3453d98a0d72.jpg\",\"img/0903/0fb24af7-9a26-4e9d-aadc-959a36f683e2.jpg\"]","trial_type":"similarity","trial_index":51,"time_elapsed":427929,"internal_node_id":"0.0-6.0-45.0"},{"sim_score":4,"rt":4512,"stimulus":"[\"img/0901/693e0535-ef7e-4d60-af9d-fac2f38e8307.jpg\",\"img/0904/24fc38fe-842c-4831-ad8a-b1de5c25c0a8.jpg\"]","trial_type":"similarity","trial_index":52,"time_elapsed":433524,"internal_node_id":"0.0-6.0-46.0"},{"sim_score":3,"rt":3871,"stimulus":"[\"img/0758/61d64021-9214-4951-bdf8-f871f9827cf9.jpg\",\"img/0902/e5a46bda-30d1-41ca-b36d-b8529b5a63d1.jpg\"]","trial_type":"similarity","trial_index":53,"time_elapsed":438481,"internal_node_id":"0.0-6.0-47.0"},{"sim_score":6,"rt":4630,"stimulus":"[\"img/0764/a86eed5b-d0af-4c3f-8c7a-26e98e98cf1a.jpg\",\"img/0764/438c0217-036f-43c9-9b87-f43144e46011.jpg\"]","trial_type":"similarity","trial_index":54,"time_elapsed":444189,"internal_node_id":"0.0-6.0-48.0"},{"sim_score":2,"rt":3529,"stimulus":"[\"img/0866/a15b02be-11bb-43e3-b0e0-ecc3bd7dfc49.jpg\",\"img/0902/af40b98b-3d23-4d95-b401-49ba5783ce39.jpg\"]","trial_type":"similarity","trial_index":55,"time_elapsed":448838,"internal_node_id":"0.0-6.0-49.0"},{"sim_score":3,"rt":6436,"stimulus":"[\"img/0764/bc3865c9-9004-4582-88a7-048478673f97.jpg\",\"img/0758/65d426d6-3ff6-415d-8654-a43b83ecc4fe.jpg\"]","trial_type":"similarity","trial_index":56,"time_elapsed":456343,"internal_node_id":"0.0-6.0-50.0"},{"sim_score":5,"rt":4113,"stimulus":"[\"img/0898/b2732712-71c2-45d8-834f-2b2ed5504910.jpg\",\"img/0894/5a49e858-2850-4892-9a06-e9f0efb5f94d.jpg\"]","trial_type":"similarity","trial_index":57,"time_elapsed":461539,"internal_node_id":"0.0-6.0-51.0"},{"sim_score":3,"rt":4249,"stimulus":"[\"img/0875/90da8d75-108a-44ad-b999-e21fee3860d3.jpg\",\"img/0866/945c6710-d15b-4a5b-a8f6-69af0850357f.jpg\"]","trial_type":"similarity","trial_index":58,"time_elapsed":466854,"internal_node_id":"0.0-6.0-52.0"},{"sim_score":6,"rt":4995,"stimulus":"[\"img/0904/2fd488e9-960f-41f7-8a44-33375f7d5051.jpg\",\"img/0904/1d10df11-b5c8-4370-9a6b-097a7f965895.jpg\"]","trial_type":"similarity","trial_index":59,"time_elapsed":472932,"internal_node_id":"0.0-6.0-53.0"},{"sim_score":5,"rt":5587,"stimulus":"[\"img/0769/bb8c4e53-6f32-4814-97ee-392d4decfb2e.jpg\",\"img/0769/a1ce8d07-ba37-40de-bade-2778805521e0.jpg\"]","trial_type":"similarity","trial_index":60,"time_elapsed":479599,"internal_node_id":"0.0-6.0-54.0"},{"sim_score":2,"rt":3411,"stimulus":"[\"img/0898/993d8f2d-bef7-4251-a193-0f93a32b7763.jpg\",\"img/0758/20497cbe-ddae-489e-86e2-ab06985ed07c.jpg\"]","trial_type":"similarity","trial_index":61,"time_elapsed":484099,"internal_node_id":"0.0-6.0-55.0"},{"sim_score":5,"rt":5070,"stimulus":"[\"img/0769/022c7e3b-c3f2-4119-b4bc-f22fa7cae18c.jpg\",\"img/0902/cf9dee9c-2bdf-4d64-9302-97f1660fe52c.jpg\"]","trial_type":"similarity","trial_index":62,"time_elapsed":490246,"internal_node_id":"0.0-6.0-56.0"},{"sim_score":6,"rt":3966,"stimulus":"[\"img/0864/3651d070-2fc5-4848-b6a6-088a2d9ac5c9.jpg\",\"img/0881/d373cb9f-a719-4549-a2a4-82def79fb2a5.jpg\"]","trial_type":"similarity","trial_index":63,"time_elapsed":495291,"internal_node_id":"0.0-6.0-57.0"},{"sim_score":3,"rt":3804,"stimulus":"[\"img/0758/7fba58df-2a7a-4b76-8a8f-62739f97f271.jpg\",\"img/0868/293079b8-7e0c-4afd-a390-1e5d35fe3ded.jpg\"]","trial_type":"similarity","trial_index":64,"time_elapsed":500227,"internal_node_id":"0.0-6.0-58.0"},{"sim_score":2,"rt":5786,"stimulus":"[\"img/0862/92f0146c-20c4-482e-aef5-adb693790338.jpg\",\"img/0769/11518cb3-13ea-4dd0-890c-30cfab728ade.jpg\"]","trial_type":"similarity","trial_index":65,"time_elapsed":507077,"internal_node_id":"0.0-6.0-59.0"},{"sim_score":5,"rt":5107,"stimulus":"[\"img/0764/713cc27e-2338-4486-bfe9-5f5725fbd7a0.jpg\",\"img/0903/e2e55a9e-0397-4dc0-8adf-4a54cfefe1fe.jpg\"]","trial_type":"similarity","trial_index":66,"time_elapsed":513260,"internal_node_id":"0.0-6.0-60.0"},{"sim_score":7,"rt":4505,"stimulus":"[\"img/0899/fd9efb43-701f-4cd6-baaa-4c38315f4bdc.jpg\",\"img/0899/7f9d45d0-b2c6-40d3-aa41-c207db2c411b.jpg\"]","trial_type":"similarity","trial_index":67,"time_elapsed":518850,"internal_node_id":"0.0-6.0-61.0"},{"sim_score":3,"rt":4999,"stimulus":"[\"img/0860/9593362c-9fe5-4d12-9735-6000a11f6aa5.jpg\",\"img/0875/3ecb367d-e9eb-4826-8aaa-7aa72fb98019.jpg\"]","trial_type":"similarity","trial_index":68,"time_elapsed":524942,"internal_node_id":"0.0-6.0-62.0"},{"sim_score":2,"rt":4625,"stimulus":"[\"img/0868/4a8a45ed-2c4f-421b-9564-409a33ecd26c.jpg\",\"img/0874/ca23d307-fc00-4d7d-9106-584c6eb21b4d.jpg\"]","trial_type":"similarity","trial_index":69,"time_elapsed":530647,"internal_node_id":"0.0-6.0-63.0"},{"sim_score":3,"rt":4998,"stimulus":"[\"img/0758/e1ba5e53-addc-436a-b428-d34fc1b130dc.jpg\",\"img/0862/57b6f83f-c763-4858-830d-102f97bfefbf.jpg\"]","trial_type":"similarity","trial_index":70,"time_elapsed":536709,"internal_node_id":"0.0-6.0-64.0"},{"sim_score":6,"rt":4470,"stimulus":"[\"img/0904/d23dd7be-7fe8-4435-82f7-bd592c01e6a1.jpg\",\"img/0898/40f99fb2-64d2-4e72-8a7f-a1cf60741e69.jpg\"]","trial_type":"similarity","trial_index":71,"time_elapsed":542263,"internal_node_id":"0.0-6.0-65.0"},{"sim_score":3,"rt":3880,"stimulus":"[\"img/0881/14236cf2-6b95-48b8-9368-78af09d2d27f.jpg\",\"img/0866/c446214b-a368-4c65-ae39-ea46894256ab.jpg\"]","trial_type":"similarity","trial_index":72,"time_elapsed":547239,"internal_node_id":"0.0-6.0-66.0"},{"sim_score":1,"rt":3988,"stimulus":"[\"img/0867/bf560d4f-dee3-4f11-a385-705cc1aa5f3c.jpg\",\"img/0898/661621d4-a14e-487c-8c74-354134a29710.jpg\"]","trial_type":"similarity","trial_index":73,"time_elapsed":552301,"internal_node_id":"0.0-6.0-67.0"},{"sim_score":5,"rt":4164,"stimulus":"[\"img/0902/c018bd7a-d91a-4192-aea4-7259cfcdb6c4.jpg\",\"img/0764/b328441c-f81c-486c-9eae-b947c70ba7cd.jpg\"]","trial_type":"similarity","trial_index":74,"time_elapsed":557542,"internal_node_id":"0.0-6.0-68.0"},{"sim_score":4,"rt":3948,"stimulus":"[\"img/0875/cff79b3a-a797-4393-9757-6275f999ec04.jpg\",\"img/0867/85a96c62-548f-4994-9553-819e03c3135a.jpg\"]","trial_type":"similarity","trial_index":75,"time_elapsed":562578,"internal_node_id":"0.0-6.0-69.0"},{"sim_score":5,"rt":4340,"stimulus":"[\"img/0766/d14acac4-7db1-4b07-8f8f-302437326fc0.jpg\",\"img/0764/c80b3e06-2ee3-4326-9678-340607eb5348.jpg\"]","trial_type":"similarity","trial_index":76,"time_elapsed":567990,"internal_node_id":"0.0-6.0-70.0"},{"sim_score":3,"rt":4596,"stimulus":"[\"img/0894/43216a7f-27bc-4b5a-8841-d122a30da9d9.jpg\",\"img/0867/c71dc569-f49c-4397-8381-68b8d726736d.jpg\"]","trial_type":"similarity","trial_index":77,"time_elapsed":573680,"internal_node_id":"0.0-6.0-71.0"},{"sim_score":1,"rt":3179,"stimulus":"[\"img/0875/e7e66b13-b573-431e-b85e-288ce04a35a3.jpg\",\"img/0764/0e7ed062-f798-4366-8a24-6f430926f919.jpg\"]","trial_type":"similarity","trial_index":78,"time_elapsed":577950,"internal_node_id":"0.0-6.0-72.0"},{"sim_score":6,"rt":4388,"stimulus":"[\"img/0867/c66898ba-b71b-4d50-84f9-f7f84853a98d.jpg\",\"img/0866/620cd1aa-0800-4414-8f6e-90342e7a99ad.jpg\"]","trial_type":"similarity","trial_index":79,"time_elapsed":583421,"internal_node_id":"0.0-6.0-73.0"},{"sim_score":2,"rt":3626,"stimulus":"[\"img/0903/0e5c2854-42aa-48c0-9c3d-6e1ad2a400bd.jpg\",\"img/0758/7ee8bc8f-c40b-4b3a-84ec-3e83580622d4.jpg\"]","trial_type":"similarity","trial_index":80,"time_elapsed":588156,"internal_node_id":"0.0-6.0-74.0"},{"sim_score":2,"rt":4720,"stimulus":"[\"img/0766/c23b5a20-e50f-4d85-841f-cf89212a4348.jpg\",\"img/0868/1a62b2b2-18f5-466e-b564-5176a57c565e.jpg\"]","trial_type":"similarity","trial_index":81,"time_elapsed":593957,"internal_node_id":"0.0-6.0-75.0"},{"sim_score":3,"rt":3966,"stimulus":"[\"img/0874/767f289c-9814-4496-803f-745cc8913d1f.jpg\",\"img/0766/09f646c8-a69e-4ed3-879c-8d29b04ad7f9.jpg\"]","trial_type":"similarity","trial_index":82,"time_elapsed":599003,"internal_node_id":"0.0-6.0-76.0"},{"sim_score":2,"rt":4644,"stimulus":"[\"img/0881/b1a136f7-8511-4d3a-a0f6-3879acf1e1a1.jpg\",\"img/0868/4e626425-63c8-484a-8a1d-e66ee4e0bef8.jpg\"]","trial_type":"similarity","trial_index":83,"time_elapsed":604715,"internal_node_id":"0.0-6.0-77.0"},{"sim_score":2,"rt":3727,"stimulus":"[\"img/0758/eabcd7a8-56ad-4fd2-bc24-90f6b7b33265.jpg\",\"img/0901/b123d109-47b4-4f9a-80c9-9bb16da42efa.jpg\"]","trial_type":"similarity","trial_index":84,"time_elapsed":609535,"internal_node_id":"0.0-6.0-78.0"},{"sim_score":3,"rt":4171,"stimulus":"[\"img/0881/f8bd891e-aa09-4782-89db-33e7cb2b0cf1.jpg\",\"img/0898/8605a25b-6895-476d-8c13-df7a83f96093.jpg\"]","trial_type":"similarity","trial_index":85,"time_elapsed":614781,"internal_node_id":"0.0-6.0-79.0"},{"sim_score":4,"rt":4306,"stimulus":"[\"img/0867/a749dddb-69f0-44a6-acdc-2bf295cf6dcc.jpg\",\"img/0758/a085b443-b5d7-4cb2-9ad4-b9dab0fc23f1.jpg\"]","trial_type":"similarity","trial_index":86,"time_elapsed":620163,"internal_node_id":"0.0-6.0-80.0"},{"sim_score":5,"rt":4578,"stimulus":"[\"img/0769/7c50e5f5-cc38-4d48-b009-fbe17bcea61c.jpg\",\"img/0899/06b0fc99-0581-461a-9913-d1a5a941ac61.jpg\"]","trial_type":"similarity","trial_index":87,"time_elapsed":625811,"internal_node_id":"0.0-6.0-81.0"},{"sim_score":6,"rt":4904,"stimulus":"[\"img/0903/6138142e-c84e-45fc-9487-c974f3d4968a.jpg\",\"img/0903/c708d08f-a108-4e04-8288-c3fcf6375db4.jpg\"]","trial_type":"similarity","trial_index":88,"time_elapsed":631795,"internal_node_id":"0.0-6.0-82.0"},{"sim_score":1,"rt":3305,"stimulus":"[\"img/0867/5e07b34d-b40f-4b1c-ac10-49975bace45f.jpg\",\"img/0766/75c3d627-4f3b-40d5-9d9c-10c8a62db644.jpg\"]","trial_type":"similarity","trial_index":89,"time_elapsed":776321,"internal_node_id":"0.0-6.0-83.0"},{"sim_score":1,"rt":4452,"stimulus":"[\"img/0902/2a7ac123-414a-476a-9a96-4757b924baef.jpg\",\"img/0867/ac1797e4-8afc-48fe-b252-86d1defb1cca.jpg\"]","trial_type":"similarity","trial_index":90,"time_elapsed":781844,"internal_node_id":"0.0-6.0-84.0"},{"sim_score":3,"rt":4320,"stimulus":"[\"img/0901/08d6d1d1-c043-43c4-bb08-d45e062822b9.jpg\",\"img/0875/ebf7653f-ff45-4e9f-af58-2c042ab3cd2b.jpg\"]","trial_type":"similarity","trial_index":91,"time_elapsed":787236,"internal_node_id":"0.0-6.0-85.0"},{"sim_score":1,"rt":3272,"stimulus":"[\"img/0764/29072395-f595-4e3c-83d3-ff87010039fa.jpg\",\"img/0866/bf14b5bd-fb55-47db-86b9-4f8aeb9a6dad.jpg\"]","trial_type":"similarity","trial_index":92,"time_elapsed":791585,"internal_node_id":"0.0-6.0-86.0"},{"sim_score":3,"rt":13739,"stimulus":"[\"img/0901/7d4a3388-488d-4e9b-9d32-9d0def7aae8d.jpg\",\"img/0894/a3d4170b-b7d8-40e3-955f-87e76ed745fc.jpg\"]","trial_type":"similarity","trial_index":93,"time_elapsed":806400,"internal_node_id":"0.0-6.0-87.0"},{"sim_score":6,"rt":4193,"stimulus":"[\"img/0898/81b08535-2020-4c15-9ce4-2f1e460755ae.jpg\",\"img/0769/f2740c58-7c02-433f-920b-746b0b75435b.jpg\"]","trial_type":"similarity","trial_index":94,"time_elapsed":811648,"internal_node_id":"0.0-6.0-88.0"},{"sim_score":6,"rt":4851,"stimulus":"[\"img/0769/35364db7-e0d5-40ef-93dc-faf9dfb95136.jpg\",\"img/0894/9b1333fd-3561-43bf-aee5-99b7b7ca3dc3.jpg\"]","trial_type":"similarity","trial_index":95,"time_elapsed":817581,"internal_node_id":"0.0-6.0-89.0"},{"sim_score":3,"rt":3995,"stimulus":"[\"img/0862/f43ceabf-acc1-4107-b857-5d1849808f93.jpg\",\"img/0874/a3bc679d-619f-4db6-bb68-116dcb757d9c.jpg\"]","trial_type":"similarity","trial_index":96,"time_elapsed":822661,"internal_node_id":"0.0-6.0-90.0"},{"sim_score":4,"rt":8348,"stimulus":"[\"img/0894/767a0eec-1064-46b1-b1aa-dfa02b0cd74e.jpg\",\"img/0766/33aa9ebb-c9f5-418f-8c8b-c77861889568.jpg\"]","trial_type":"similarity","trial_index":97,"time_elapsed":832087,"internal_node_id":"0.0-6.0-91.0"},{"sim_score":2,"rt":3661,"stimulus":"[\"img/0874/8cdb1c07-1c32-46d2-981c-3636560fa6e5.jpg\",\"img/0867/cc72ed48-7704-422c-86d6-467a1145287a.jpg\"]","trial_type":"similarity","trial_index":98,"time_elapsed":836828,"internal_node_id":"0.0-6.0-92.0"},{"sim_score":2,"rt":3528,"stimulus":"[\"img/0899/ddf96ade-692e-4602-bd22-dedbb46401bc.jpg\",\"img/0868/c8ac40c7-6904-4e13-8d61-c75d3052dc4e.jpg\"]","trial_type":"similarity","trial_index":99,"time_elapsed":841439,"internal_node_id":"0.0-6.0-93.0"},{"sim_score":3,"rt":4798,"stimulus":"[\"img/0903/4cbdc464-e562-4ec2-9bb6-15f894fdf528.jpg\",\"img/0862/d0ca4c78-fc35-46ed-bdcc-8e124283c53e.jpg\"]","trial_type":"similarity","trial_index":100,"time_elapsed":847322,"internal_node_id":"0.0-6.0-94.0"},{"sim_score":5,"rt":4494,"stimulus":"[\"img/0899/d8f2dd94-570e-4e8c-a087-d96090fb9e8c.jpg\",\"img/0766/a0270213-fa0e-4972-8b56-228c3e01ff90.jpg\"]","trial_type":"similarity","trial_index":101,"time_elapsed":852927,"internal_node_id":"0.0-6.0-95.0"},{"sim_score":7,"rt":3243,"stimulus":"[\"img/0867/50a1b60e-3a29-44bf-b606-d4bd3746fea9.jpg\",\"img/0868/179a5502-ab5c-478e-8263-5a1fbcc101d2.jpg\"]","trial_type":"similarity","trial_index":102,"time_elapsed":857252,"internal_node_id":"0.0-6.0-96.0"},{"sim_score":3,"rt":4278,"stimulus":"[\"img/0862/fb26cb07-d5a9-4653-813c-f41609f26cd5.jpg\",\"img/0901/0f670aef-ac36-496d-8142-ee5fdb21dd82.jpg\"]","trial_type":"similarity","trial_index":103,"time_elapsed":862632,"internal_node_id":"0.0-6.0-97.0"},{"sim_score":1,"rt":3246,"stimulus":"[\"img/0875/8521fd58-3b1e-4dc5-97ae-804edfa6734a.jpg\",\"img/0766/d512b99c-a2dc-40d7-8e86-827323a0cbcf.jpg\"]","trial_type":"similarity","trial_index":104,"time_elapsed":866957,"internal_node_id":"0.0-6.0-98.0"},{"sim_score":4,"rt":5806,"stimulus":"[\"img/0758/e38fd80d-18d0-42f3-b848-f930788e8bd7.jpg\",\"img/0874/3f471690-9788-4d03-90c7-f615aecef149.jpg\"]","trial_type":"similarity","trial_index":105,"time_elapsed":873842,"internal_node_id":"0.0-6.0-99.0"},{"sim_score":3,"rt":3913,"stimulus":"[\"img/0904/63dd06dd-dccb-47ba-9740-eb33239e18a7.jpg\",\"img/0868/15dd6fd7-791e-4b53-b203-195d617521a4.jpg\"]","trial_type":"similarity","trial_index":106,"time_elapsed":878815,"internal_node_id":"0.0-6.0-100.0"},{"sim_score":2,"rt":3675,"stimulus":"[\"img/0903/5248eedd-7e6a-4d39-91b0-06ec227f3ed0.jpg\",\"img/0866/386235d2-6857-41e7-88a8-25cfc3430025.jpg\"]","trial_type":"similarity","trial_index":107,"time_elapsed":883554,"internal_node_id":"0.0-6.0-101.0"},{"sim_score":1,"rt":2877,"stimulus":"[\"img/0868/77091fc7-a590-4ebb-b915-fdb2483a2399.jpg\",\"img/0769/180213e5-1e50-4b4e-87b6-add77ba04d39.jpg\"]","trial_type":"similarity","trial_index":108,"time_elapsed":887486,"internal_node_id":"0.0-6.0-102.0"},{"sim_score":6,"rt":4503,"stimulus":"[\"img/0902/aa6fca32-82b0-4414-b20a-8f6f8aa5a2d2.jpg\",\"img/0899/8abe6c69-822c-436c-9bf2-96c818b49ba5.jpg\"]","trial_type":"similarity","trial_index":109,"time_elapsed":893067,"internal_node_id":"0.0-6.0-103.0"},{"sim_score":2,"rt":3533,"stimulus":"[\"img/0868/5fa7f9d0-f0e5-454c-8224-74d964818f56.jpg\",\"img/0862/a0a3a7ba-7798-46a3-b4ca-05e1f6e581d0.jpg\"]","trial_type":"similarity","trial_index":110,"time_elapsed":897677,"internal_node_id":"0.0-6.0-104.0"},{"sim_score":5,"rt":3650,"stimulus":"[\"img/0903/6378ee1e-3d2b-48d2-87be-bebda32c8268.jpg\",\"img/0894/86201968-6e78-4d68-9b3a-d1692e066210.jpg\"]","trial_type":"similarity","trial_index":111,"time_elapsed":902405,"internal_node_id":"0.0-6.0-105.0"},{"sim_score":6,"rt":4297,"stimulus":"[\"img/0864/ea327690-500b-4137-bf91-451b309fe6a5.jpg\",\"img/0874/99f6563c-8a8d-4c1c-a41d-667b618c3fd5.jpg\"]","trial_type":"similarity","trial_index":112,"time_elapsed":907781,"internal_node_id":"0.0-6.0-106.0"},{"sim_score":5,"rt":3894,"stimulus":"[\"img/0862/1c20f772-3a51-4a80-aac0-f57dc9f86c28.jpg\",\"img/0902/168ebd47-9e82-4ab7-a18b-c3da85072db8.jpg\"]","trial_type":"similarity","trial_index":113,"time_elapsed":912760,"internal_node_id":"0.0-6.0-107.0"},{"sim_score":5,"rt":3886,"stimulus":"[\"img/0904/60d1a521-edf7-4696-9263-f21ac0e62a01.jpg\",\"img/0903/5c6b1f57-b3a2-40f5-9fb1-82785e24b6a0.jpg\"]","trial_type":"similarity","trial_index":114,"time_elapsed":917725,"internal_node_id":"0.0-6.0-108.0"},{"sim_score":3,"rt":4335,"stimulus":"[\"img/0764/4eff630a-6426-4f8d-b2ba-b4d9842a0962.jpg\",\"img/0864/87c467d3-abca-482f-ad80-3766c21b1bb3.jpg\"]","trial_type":"similarity","trial_index":115,"time_elapsed":923140,"internal_node_id":"0.0-6.0-109.0"},{"sim_score":3,"rt":3916,"stimulus":"[\"img/0866/8efcaa46-83ab-4dee-a35f-850402aa21ae.jpg\",\"img/0894/b422d5c6-3c5a-49ae-a53e-7e88ac993f49.jpg\"]","trial_type":"similarity","trial_index":116,"time_elapsed":928152,"internal_node_id":"0.0-6.0-110.0"},{"sim_score":5,"rt":3623,"stimulus":"[\"img/0899/f58b8d2f-b19d-4b59-8b94-8834be92e4ba.jpg\",\"img/0903/365f176c-25a4-4973-bd3c-279bf1b39476.jpg\"]","trial_type":"similarity","trial_index":117,"time_elapsed":932852,"internal_node_id":"0.0-6.0-111.0"},{"sim_score":5,"rt":4500,"stimulus":"[\"img/0902/0eb85fbc-27c8-41df-9d0b-a5f9efd417d1.jpg\",\"img/0904/9b3568cc-3cf7-42be-9df3-fdafde7a58b8.jpg\"]","trial_type":"similarity","trial_index":118,"time_elapsed":938448,"internal_node_id":"0.0-6.0-112.0"},{"sim_score":3,"rt":4066,"stimulus":"[\"img/0864/9b2490c5-a282-400a-9736-e1a0ecbf1cb7.jpg\",\"img/0860/c7047cd2-7cc1-41b6-8a34-c0986774975f.jpg\"]","trial_type":"similarity","trial_index":119,"time_elapsed":943592,"internal_node_id":"0.0-6.0-113.0"},{"sim_score":2,"rt":3891,"stimulus":"[\"img/0860/31ff6436-98bf-4652-bed2-40f627229568.jpg\",\"img/0899/76ad07e2-ca25-45eb-84f2-8d80b8ca3e26.jpg\"]","trial_type":"similarity","trial_index":120,"time_elapsed":948587,"internal_node_id":"0.0-6.0-114.0"},{"sim_score":2,"rt":4165,"stimulus":"[\"img/0881/33d65d80-8a8e-4ecf-852d-0ad7725c17a2.jpg\",\"img/0903/f1fa0f8d-e62b-4b4a-a174-31a0fabfe61b.jpg\"]","trial_type":"similarity","trial_index":121,"time_elapsed":953829,"internal_node_id":"0.0-6.0-115.0"},{"sim_score":2,"rt":4218,"stimulus":"[\"img/0894/661b9f9f-4bde-487a-b1ed-87085fde6948.jpg\",\"img/0874/eba003b4-cdab-4eee-8bc3-f064c7d94165.jpg\"]","trial_type":"similarity","trial_index":122,"time_elapsed":959135,"internal_node_id":"0.0-6.0-116.0"},{"sim_score":3,"rt":3827,"stimulus":"[\"img/0881/4bd34581-94d8-4e88-8c89-5cef864ca3be.jpg\",\"img/0862/e697469a-ec19-4414-b972-7b9f3564785b.jpg\"]","trial_type":"similarity","trial_index":123,"time_elapsed":964035,"internal_node_id":"0.0-6.0-117.0"},{"sim_score":4,"rt":4002,"stimulus":"[\"img/0868/d98ca254-b195-477f-b57e-5760a2717db8.jpg\",\"img/0875/34132396-d896-4c2d-8087-646dd867e769.jpg\"]","trial_type":"similarity","trial_index":124,"time_elapsed":969115,"internal_node_id":"0.0-6.0-118.0"},{"sim_score":4,"rt":5135,"stimulus":"[\"img/0860/17b44a7d-c5ca-479f-9e87-f65a64f5c80e.jpg\",\"img/0758/821c68d3-5cb0-4eae-8659-30e6263fca39.jpg\"]","trial_type":"similarity","trial_index":125,"time_elapsed":975333,"internal_node_id":"0.0-6.0-119.0"},{"sim_score":3,"rt":3210,"stimulus":"[\"img/0864/6e846d43-94a6-4b37-a268-65eda979f052.jpg\",\"img/0875/5a7c4e35-6514-4e12-8879-d16071da4cd6.jpg\"]","trial_type":"similarity","trial_index":126,"time_elapsed":979604,"internal_node_id":"0.0-6.0-120.0"},{"sim_score":2,"rt":4272,"stimulus":"[\"img/0898/0af304a2-6a7a-4082-ab7c-4450cd08cc58.jpg\",\"img/0866/07c9c966-3c8d-40e7-8128-92b2acbaed5d.jpg\"]","trial_type":"similarity","trial_index":127,"time_elapsed":984952,"internal_node_id":"0.0-6.0-121.0"},{"sim_score":1,"rt":3360,"stimulus":"[\"img/0874/1016b306-087c-4afc-aa08-fa527b28dc76.jpg\",\"img/0904/96e503ea-6630-4996-85f2-0237688ce441.jpg\"]","trial_type":"similarity","trial_index":128,"time_elapsed":989395,"internal_node_id":"0.0-6.0-122.0"},{"sim_score":2,"rt":3391,"stimulus":"[\"img/0904/4b8daf2a-13a9-4ea9-9e0b-b265b6e933e7.jpg\",\"img/0864/e02eddb5-f468-499c-91bf-f7be3ffe979b.jpg\"]","trial_type":"similarity","trial_index":129,"time_elapsed":993903,"internal_node_id":"0.0-6.0-123.0"},{"sim_score":3,"rt":5277,"stimulus":"[\"img/0894/2217bdcd-23a7-42d3-823b-23f2488d7e87.jpg\",\"img/0902/1f4a4c62-68c1-4993-b213-05652a173ed1.jpg\"]","trial_type":"similarity","trial_index":130,"time_elapsed":1000258,"internal_node_id":"0.0-6.0-124.0"},{"sim_score":2,"rt":3014,"stimulus":"[\"img/0868/8b0b8473-e2c0-4331-aa56-c3a5c29369da.jpg\",\"img/0864/4bd81bc6-c13d-46df-95a9-485886dc7c1b.jpg\"]","trial_type":"similarity","trial_index":131,"time_elapsed":1023562,"internal_node_id":"0.0-6.0-125.0"},{"sim_score":3,"rt":4280,"stimulus":"[\"img/0899/9de5e857-aa9a-4e0c-8ba2-46d79bd069a4.jpg\",\"img/0866/02f5e6b9-52b7-448c-9708-5b460d0c9a23.jpg\"]","trial_type":"similarity","trial_index":132,"time_elapsed":1028917,"internal_node_id":"0.0-6.0-126.0"},{"sim_score":3,"rt":4405,"stimulus":"[\"img/0875/f87b67d7-c33e-40d1-b281-248c4be1cb6e.jpg\",\"img/0904/9dd5708f-3f8b-46a9-b49f-2f2fab87b357.jpg\"]","trial_type":"similarity","trial_index":133,"time_elapsed":1034400,"internal_node_id":"0.0-6.0-127.0"},{"sim_score":1,"rt":3579,"stimulus":"[\"img/0867/a498eef3-9fa4-4ab2-9778-4ae82ac40dc5.jpg\",\"img/0899/51a7a498-98c7-42d7-bca8-bc2d8f0b5831.jpg\"]","trial_type":"similarity","trial_index":134,"time_elapsed":1039051,"internal_node_id":"0.0-6.0-128.0"},{"sim_score":1,"rt":3608,"stimulus":"[\"img/0901/875dedb9-24c9-4443-9f8c-85e97d70ee5a.jpg\",\"img/0867/f26f6b60-f772-4f4c-95a4-addc62cfd692.jpg\"]","trial_type":"similarity","trial_index":135,"time_elapsed":1043751,"internal_node_id":"0.0-6.0-129.0"},{"sim_score":2,"rt":4040,"stimulus":"[\"img/0864/b3c4e378-28f0-4699-9338-2a257b4bca04.jpg\",\"img/0769/6c0bac4c-5f59-43c7-898c-3ca93cf55cfe.jpg\"]","trial_type":"similarity","trial_index":136,"time_elapsed":1048853,"internal_node_id":"0.0-6.0-130.0"},{"sim_score":2,"rt":3727,"stimulus":"[\"img/0903/bf0a7d60-eca5-44b0-bafd-baf21db9904b.jpg\",\"img/0868/6a28c3b0-3d76-498a-9fb7-ddafc665eca8.jpg\"]","trial_type":"similarity","trial_index":137,"time_elapsed":1053662,"internal_node_id":"0.0-6.0-131.0"},{"sim_score":2,"rt":2857,"stimulus":"[\"img/0864/5f74a653-3bdc-4308-8cca-ac667dc22e1f.jpg\",\"img/0867/98d8cd96-1476-4fe0-a3a3-04f875500a1b.jpg\"]","trial_type":"similarity","trial_index":138,"time_elapsed":1057597,"internal_node_id":"0.0-6.0-132.0"},{"sim_score":2,"rt":3647,"stimulus":"[\"img/0901/d6d15b1c-4a30-4f74-a3fd-d4c8ee4169ca.jpg\",\"img/0860/d9a0d117-6d1d-41c0-8fec-9aff0fd9e9f2.jpg\"]","trial_type":"similarity","trial_index":139,"time_elapsed":1062324,"internal_node_id":"0.0-6.0-133.0"},{"sim_score":3,"rt":4583,"stimulus":"[\"img/0881/667e2147-d457-4f32-aa5f-6ab86e5848f1.jpg\",\"img/0766/d50d734f-285c-4840-bc7a-c8dd4aff391e.jpg\"]","trial_type":"similarity","trial_index":140,"time_elapsed":1067990,"internal_node_id":"0.0-6.0-134.0"},{"sim_score":2,"rt":4146,"stimulus":"[\"img/0903/8635cf25-2648-4fe9-8c42-79d2598e999c.jpg\",\"img/0864/c3b63e8f-ea39-4d70-a1f2-b3fe4be8eb75.jpg\"]","trial_type":"similarity","trial_index":141,"time_elapsed":1073220,"internal_node_id":"0.0-6.0-135.0"},{"sim_score":2,"rt":4160,"stimulus":"[\"img/0758/caa93da2-9edf-49fa-96b9-32dedd8f5078.jpg\",\"img/0894/5f15154e-e72e-4ce5-aafb-bce6f0564006.jpg\"]","trial_type":"similarity","trial_index":142,"time_elapsed":1078448,"internal_node_id":"0.0-6.0-136.0"},{"sim_score":4,"rt":6850,"stimulus":"[\"img/0769/3adfa417-3b90-4aab-b437-5eaa474189cb.jpg\",\"img/0860/c3379ff7-0763-48fe-a1ec-7ea3d611bc7a.jpg\"]","trial_type":"similarity","trial_index":143,"time_elapsed":1086365,"internal_node_id":"0.0-6.0-137.0"},{"sim_score":5,"rt":4816,"stimulus":"[\"img/0904/0d17b811-063e-416e-a23c-3b3cfa4fcce5.jpg\",\"img/0766/51d3aab4-3d09-4dda-b99d-3dc7aaabc6f2.jpg\"]","trial_type":"similarity","trial_index":144,"time_elapsed":1092264,"internal_node_id":"0.0-6.0-138.0"},{"sim_score":3,"rt":4279,"stimulus":"[\"img/0868/fd307a36-9a3a-47d7-ab7c-f810d0b35040.jpg\",\"img/0860/8a92e21b-6a32-4e4a-a445-2d5a487ed0a4.jpg\"]","trial_type":"similarity","trial_index":145,"time_elapsed":1097630,"internal_node_id":"0.0-6.0-139.0"},{"sim_score":5,"rt":3464,"stimulus":"[\"img/0758/ddc336e9-a8b6-4bb9-937a-c7e25e0e9250.jpg\",\"img/0864/1d15626a-2f7c-410f-819c-0fa2c967e95e.jpg\"]","trial_type":"similarity","trial_index":146,"time_elapsed":1102169,"internal_node_id":"0.0-6.0-140.0"},{"sim_score":6,"rt":4268,"stimulus":"[\"img/0867/8ba0c5a7-c7e4-42cf-a80a-543763b90779.jpg\",\"img/0867/6e19c858-b606-45b2-a4c6-910a73f1d82c.jpg\"]","trial_type":"similarity","trial_index":147,"time_elapsed":1107513,"internal_node_id":"0.0-6.0-141.0"},{"sim_score":6,"rt":4929,"stimulus":"[\"img/0898/01bfe666-3510-4fc7-964f-d00d28732dc8.jpg\",\"img/0898/04e39a7a-fcf6-4156-ab0e-f5871f335e1c.jpg\"]","trial_type":"similarity","trial_index":148,"time_elapsed":1113526,"internal_node_id":"0.0-6.0-142.0"},{"sim_score":2,"rt":3782,"stimulus":"[\"img/0866/4a87911a-d5be-4d4e-ab8e-3d1f581bf507.jpg\",\"img/0769/9ea27d61-3d55-418c-8d14-82e90f656f01.jpg\"]","trial_type":"similarity","trial_index":149,"time_elapsed":1118376,"internal_node_id":"0.0-6.0-143.0"},{"sim_score":3,"rt":3578,"stimulus":"[\"img/0860/4a022222-056d-461c-ab02-39fac9647552.jpg\",\"img/0898/c3cecf20-f7fd-45fa-97d0-dc0a63e8d6c0.jpg\"]","trial_type":"similarity","trial_index":150,"time_elapsed":1123038,"internal_node_id":"0.0-6.0-144.0"},{"sim_score":2,"rt":3342,"stimulus":"[\"img/0766/d5d38751-8fa5-476f-93e9-86ed2d9045ef.jpg\",\"img/0864/efcfbb1b-8197-44c9-b723-40d6c608dd3c.jpg\"]","trial_type":"similarity","trial_index":151,"time_elapsed":1127462,"internal_node_id":"0.0-6.0-145.0"},{"sim_score":2,"rt":3839,"stimulus":"[\"img/0860/f44ba3fb-03a2-42f0-8509-2c1ded493086.jpg\",\"img/0903/d987e220-f3e6-4b6d-a270-fe6757041f6d.jpg\"]","trial_type":"similarity","trial_index":152,"time_elapsed":1132387,"internal_node_id":"0.0-6.0-146.0"},{"sim_score":2,"rt":7414,"stimulus":"[\"img/0867/1719a35d-f085-48c0-9099-16c94fe418b4.jpg\",\"img/0764/f9f890e6-3c2f-40cd-84e9-85e0b54cb28e.jpg\"]","trial_type":"similarity","trial_index":153,"time_elapsed":1140868,"internal_node_id":"0.0-6.0-147.0"},{"sim_score":6,"rt":6901,"stimulus":"[\"img/0769/aad494cc-674d-4a08-9bfa-24a88ebe3c79.jpg\",\"img/0904/da170c1b-9651-4f08-b231-2bdd1d9a046f.jpg\"]","trial_type":"similarity","trial_index":154,"time_elapsed":1148848,"internal_node_id":"0.0-6.0-148.0"},{"sim_score":3,"rt":3138,"stimulus":"[\"img/0764/6fbd1902-fa2a-48d8-bc11-705b8ab68d8f.jpg\",\"img/0901/fb0a8e69-7f19-4e6e-a6bb-a48f97f9b4f3.jpg\"]","trial_type":"similarity","trial_index":155,"time_elapsed":1153070,"internal_node_id":"0.0-6.0-149.0"},{"sim_score":5,"rt":4012,"stimulus":"[\"img/0904/06dacdc5-2206-4fb8-92b7-88042d22833c.jpg\",\"img/0899/66ab3178-c3fe-4455-ad17-d5952b08e018.jpg\"]","trial_type":"similarity","trial_index":156,"time_elapsed":1158152,"internal_node_id":"0.0-6.0-150.0"},{"sim_score":2,"rt":3201,"stimulus":"[\"img/0862/4f0a3b4c-afbf-486e-b248-1d54982f54b4.jpg\",\"img/0867/179ab87a-8eac-4c52-a41f-2e48e3120f09.jpg\"]","trial_type":"similarity","trial_index":157,"time_elapsed":1162433,"internal_node_id":"0.0-6.0-151.0"},{"sim_score":7,"rt":4177,"stimulus":"[\"img/0766/69e486f7-dbef-456b-9d48-53d814248a28.jpg\",\"img/0766/1bc0dccc-a5b5-4375-87fa-28360ca42b12.jpg\"]","trial_type":"similarity","trial_index":158,"time_elapsed":1167701,"internal_node_id":"0.0-6.0-152.0"},{"sim_score":2,"rt":5118,"stimulus":"[\"img/0862/ba89835a-408c-480b-8594-ed4ffa97eb5c.jpg\",\"img/0894/151063aa-6472-4745-837b-36603aba5966.jpg\"]","trial_type":"similarity","trial_index":159,"time_elapsed":1173903,"internal_node_id":"0.0-6.0-153.0"},{"sim_score":3,"rt":3558,"stimulus":"[\"img/0899/66bf4113-ee12-426c-84d2-ea410b6c803e.jpg\",\"img/0901/d4d09bf5-093e-4050-838e-7c738be8e63c.jpg\"]","trial_type":"similarity","trial_index":160,"time_elapsed":1178556,"internal_node_id":"0.0-6.0-154.0"},{"sim_score":7,"rt":4853,"stimulus":"[\"img/0874/85eb9b8a-c4c6-4e5a-b8e7-363a87a82054.jpg\",\"img/0874/3ce41e7c-40c8-4d58-a546-171114521796.jpg\"]","trial_type":"similarity","trial_index":161,"time_elapsed":1184486,"internal_node_id":"0.0-6.0-155.0"},{"sim_score":3,"rt":4492,"stimulus":"[\"img/0860/8fdba999-b946-4c7d-9891-336018b563ef.jpg\",\"img/0867/f8488a47-94ee-4166-952c-44e16cf172f6.jpg\"]","trial_type":"similarity","trial_index":162,"time_elapsed":1190052,"internal_node_id":"0.0-6.0-156.0"},{"sim_score":2,"rt":3009,"stimulus":"[\"img/0901/c6df1a21-44ed-47c2-960e-7c52220e329e.jpg\",\"img/0881/f6bd3b96-dc40-4e99-8681-bc3a35cf896d.jpg\"]","trial_type":"similarity","trial_index":163,"time_elapsed":1194139,"internal_node_id":"0.0-6.0-157.0"},{"sim_score":6,"rt":3822,"stimulus":"[\"img/0903/36e4ab1f-caa9-40b3-8616-faada076df94.jpg\",\"img/0902/9f543501-3cf1-45a7-a2f1-eeca87cc15b9.jpg\"]","trial_type":"similarity","trial_index":164,"time_elapsed":1199029,"internal_node_id":"0.0-6.0-158.0"},{"sim_score":2,"rt":3372,"stimulus":"[\"img/0860/c47fdead-eb02-4989-b078-26f4852f44fe.jpg\",\"img/0764/5d83b9db-3b2b-4dc8-9bd1-2b515b19c858.jpg\"]","trial_type":"similarity","trial_index":165,"time_elapsed":1203472,"internal_node_id":"0.0-6.0-159.0"},{"sim_score":1,"rt":3323,"stimulus":"[\"img/0902/c9c74d2d-9b82-42d7-a9d0-3b8ff67ff81e.jpg\",\"img/0875/5a716432-c6ca-4b1c-955a-2b8ac25198ee.jpg\"]","trial_type":"similarity","trial_index":166,"time_elapsed":1207864,"internal_node_id":"0.0-6.0-160.0"},{"sim_score":4,"rt":4374,"stimulus":"[\"img/0898/4184e5a2-84ea-4f36-9b42-ae58646f6f87.jpg\",\"img/0862/847e5208-38ec-4f36-949c-296cdd7424ee.jpg\"]","trial_type":"similarity","trial_index":167,"time_elapsed":1213315,"internal_node_id":"0.0-6.0-161.0"},{"sim_score":2,"rt":4164,"stimulus":"[\"img/0894/2d2db7b3-e8a3-499b-b63a-14f51bf73882.jpg\",\"img/0875/a4935837-7d3c-4df6-88c1-36a94d4991ca.jpg\"]","trial_type":"similarity","trial_index":168,"time_elapsed":1218553,"internal_node_id":"0.0-6.0-162.0"},{"sim_score":1,"rt":3275,"stimulus":"[\"img/0866/11a1d141-be5e-443c-98c1-a9d4d9e3dec0.jpg\",\"img/0864/6f631579-acf1-415c-a42c-1207f62a8d99.jpg\"]","trial_type":"similarity","trial_index":169,"time_elapsed":1222905,"internal_node_id":"0.0-6.0-163.0"},{"sim_score":2,"rt":3143,"stimulus":"[\"img/0766/535849cc-ff5d-4df9-8f31-0ce94a97d571.jpg\",\"img/0862/de9ad88c-b522-430a-8ee9-eb06a9f85df5.jpg\"]","trial_type":"similarity","trial_index":170,"time_elapsed":1227122,"internal_node_id":"0.0-6.0-164.0"},{"sim_score":3,"rt":5048,"stimulus":"[\"img/0866/d493a2c8-66eb-44b4-be02-2f327b700b7c.jpg\",\"img/0874/29830da7-be5f-44e5-b141-652a0ccf7269.jpg\"]","trial_type":"similarity","trial_index":171,"time_elapsed":1233238,"internal_node_id":"0.0-6.0-165.0"},{"sim_score":4,"rt":4517,"stimulus":"[\"img/0862/eefa5588-9efd-4591-aa5f-a2e17c7d7bcc.jpg\",\"img/0860/4c530c3c-6aab-492a-94d1-9c01797bde40.jpg\"]","trial_type":"similarity","trial_index":172,"time_elapsed":1238823,"internal_node_id":"0.0-6.0-166.0"},{"sim_score":3,"rt":4205,"stimulus":"[\"img/0766/ef3b15ce-abb7-4292-ad93-aec8e8b50520.jpg\",\"img/0901/548d1110-7cb8-42a2-9927-9798875c8b5c.jpg\"]","trial_type":"similarity","trial_index":173,"time_elapsed":1253049,"internal_node_id":"0.0-6.0-167.0"},{"sim_score":4,"rt":5169,"stimulus":"[\"img/0862/064818ee-13d5-4618-bb24-21c7368ea278.jpg\",\"img/0862/f188d4f0-76a4-4102-818c-a209969d73a5.jpg\"]","trial_type":"similarity","trial_index":174,"time_elapsed":1259304,"internal_node_id":"0.0-6.0-168.0"},{"sim_score":4,"rt":5716,"stimulus":"[\"img/0894/792c83e9-a747-4000-bc72-5663d2439edb.jpg\",\"img/0764/f713847b-4832-42d1-8fb3-e17e37fd745c.jpg\"]","trial_type":"similarity","trial_index":175,"time_elapsed":1266083,"internal_node_id":"0.0-6.0-169.0"},{"sim_score":4,"rt":4806,"stimulus":"[\"img/0874/adf9a8f1-c40b-402b-b95b-1e85a54a7b62.jpg\",\"img/0898/08c72dac-f8ad-407a-9ce6-8c9a5d679c3a.jpg\"]","trial_type":"similarity","trial_index":176,"time_elapsed":1271969,"internal_node_id":"0.0-6.0-170.0"},{"sim_score":2,"rt":3733,"stimulus":"[\"img/0860/524b2e98-5767-4d53-942c-ebae6925659b.jpg\",\"img/0766/3c526a07-9e0a-4ae2-8142-00085f0127da.jpg\"]","trial_type":"similarity","trial_index":177,"time_elapsed":1276776,"internal_node_id":"0.0-6.0-171.0"},{"sim_score":2,"rt":4274,"stimulus":"[\"img/0898/82231d4c-218b-4d0a-b50d-35a49b524e97.jpg\",\"img/0864/afcba0a3-7e27-4757-b254-e9f05fad27e2.jpg\"]","trial_type":"similarity","trial_index":178,"time_elapsed":1282113,"internal_node_id":"0.0-6.0-172.0"},{"sim_score":3,"rt":3837,"stimulus":"[\"img/0881/5fe04dd0-5c74-47b7-99c8-b068db9ca26a.jpg\",\"img/0764/8389e74f-e0e0-435d-945f-da1f4c92ccb6.jpg\"]","trial_type":"similarity","trial_index":179,"time_elapsed":1287031,"internal_node_id":"0.0-6.0-173.0"},{"sim_score":2,"rt":3311,"stimulus":"[\"img/0898/a114b375-cb89-44ba-9498-74213f1ecdee.jpg\",\"img/0868/3a62db2d-97e9-44a3-b8e3-a48c6f0e423b.jpg\"]","trial_type":"similarity","trial_index":180,"time_elapsed":1291422,"internal_node_id":"0.0-6.0-174.0"},{"sim_score":7,"rt":3922,"stimulus":"[\"img/0864/3d4de670-b290-4285-9c3d-12a0e3af44e9.jpg\",\"img/0864/da39ad34-04e0-40d4-a724-c08d53e0ea09.jpg\"]","trial_type":"similarity","trial_index":181,"time_elapsed":1296421,"internal_node_id":"0.0-6.0-175.0"},{"sim_score":3,"rt":5096,"stimulus":"[\"img/0899/4408c14d-c168-4a7d-96f6-bc87bfb58f83.jpg\",\"img/0862/e0f1a4e9-e1b6-45f7-af67-89f334e6630d.jpg\"]","trial_type":"similarity","trial_index":182,"time_elapsed":1302594,"internal_node_id":"0.0-6.0-176.0"},{"sim_score":1,"rt":2942,"stimulus":"[\"img/0875/5a1e5100-0d94-4fec-bbe9-ca9894d2cf8e.jpg\",\"img/0758/2fa3e613-e676-4e6e-bd12-705327eeb3e1.jpg\"]","trial_type":"similarity","trial_index":183,"time_elapsed":1306619,"internal_node_id":"0.0-6.0-177.0"},{"sim_score":2,"rt":3172,"stimulus":"[\"img/0866/a04d37f0-99dd-478a-b6c6-58b215138f84.jpg\",\"img/0901/f1116359-1ff1-4638-b3b3-700918d36d18.jpg\"]","trial_type":"similarity","trial_index":184,"time_elapsed":1310866,"internal_node_id":"0.0-6.0-178.0"},{"sim_score":4,"rt":4188,"stimulus":"[\"img/0769/ebef2ddc-ba59-4e0e-97f8-927864eb5081.jpg\",\"img/0874/bf14b896-e930-4fd9-9c05-2e83317a2773.jpg\"]","trial_type":"similarity","trial_index":185,"time_elapsed":1316129,"internal_node_id":"0.0-6.0-179.0"},{"sim_score":3,"rt":3552,"stimulus":"[\"img/0875/fb732ab5-013a-4366-9f65-27811ed157e9.jpg\",\"img/0881/ee44e27f-d662-4608-b265-e7ffa19b216f.jpg\"]","trial_type":"similarity","trial_index":186,"time_elapsed":1320748,"internal_node_id":"0.0-6.0-180.0"},{"sim_score":6,"rt":4727,"stimulus":"[\"img/0866/93a27239-8317-4e08-98ca-d8b1ff298e07.jpg\",\"img/0868/0d3abd3a-b6c3-4584-a9f7-e2da63748b3d.jpg\"]","trial_type":"similarity","trial_index":187,"time_elapsed":1326580,"internal_node_id":"0.0-6.0-181.0"},{"sim_score":4,"rt":4086,"stimulus":"[\"img/0899/0433d056-aa30-4f8a-9aa1-abbb951e4edd.jpg\",\"img/0758/b76ceca7-95ac-46e4-ac13-da02c8e93be9.jpg\"]","trial_type":"similarity","trial_index":188,"time_elapsed":1331739,"internal_node_id":"0.0-6.0-182.0"},{"sim_score":2,"rt":3894,"stimulus":"[\"img/0874/a82926a3-0b43-4add-803c-d5f9ea7798ee.jpg\",\"img/0875/527ced51-8e53-4aab-ab05-86df219104c0.jpg\"]","trial_type":"similarity","trial_index":189,"time_elapsed":1336720,"internal_node_id":"0.0-6.0-183.0"},{"sim_score":4,"rt":4484,"stimulus":"[\"img/0904/696ebb60-8891-417a-91fd-c53218907a95.jpg\",\"img/0862/f23038d4-c366-4f70-979f-66b62362efa4.jpg\"]","trial_type":"similarity","trial_index":190,"time_elapsed":1342285,"internal_node_id":"0.0-6.0-184.0"},{"sim_score":5,"rt":4012,"stimulus":"[\"img/0902/51493fab-2a10-4385-aa88-bee3db441626.jpg\",\"img/0766/a754e4b6-5019-4cf4-8f58-34c20547a1f5.jpg\"]","trial_type":"similarity","trial_index":191,"time_elapsed":1347380,"internal_node_id":"0.0-6.0-185.0"},{"sim_score":4,"rt":4638,"stimulus":"[\"img/0758/d41c06bf-ebaf-454b-91c6-1a17f917b659.jpg\",\"img/0769/878531fd-e0e8-4ad1-b9ad-f018bb104ca0.jpg\"]","trial_type":"similarity","trial_index":192,"time_elapsed":1353092,"internal_node_id":"0.0-6.0-186.0"},{"sim_score":5,"rt":3576,"stimulus":"[\"img/0881/e6746727-7f89-47ec-b939-d98abe78372d.jpg\",\"img/0881/6b1189e6-232d-4042-8885-16dc7b10e0d4.jpg\"]","trial_type":"similarity","trial_index":193,"time_elapsed":1357745,"internal_node_id":"0.0-6.0-187.0"},{"sim_score":2,"rt":4990,"stimulus":"[\"img/0758/d540bee6-b460-4c32-ac57-bc282742d7d4.jpg\",\"img/0866/d266fece-59b3-46fa-b69f-96f6efb81b59.jpg\"]","trial_type":"similarity","trial_index":194,"time_elapsed":1363816,"internal_node_id":"0.0-6.0-188.0"},{"sim_score":5,"rt":3815,"stimulus":"[\"img/0764/f990b2e8-ecee-481e-be7c-0239fce350e2.jpg\",\"img/0898/26c41340-15bd-4ead-8fe4-c0d0ddca09c2.jpg\"]","trial_type":"similarity","trial_index":195,"time_elapsed":1368703,"internal_node_id":"0.0-6.0-189.0"},{"sim_score":4,"rt":3640,"stimulus":"[\"img/0903/776b74ee-a8ab-4ab8-a78d-097c0747538d.jpg\",\"img/0901/77087ed2-6e12-4329-b2a5-605bca6d972d.jpg\"]","trial_type":"similarity","trial_index":196,"time_elapsed":1373425,"internal_node_id":"0.0-6.0-190.0"},{"sim_score":5,"rt":4198,"stimulus":"[\"img/0902/04a6ad4a-afc6-4871-8225-56b299af7b6b.jpg\",\"img/0898/5f699581-3853-4547-856c-12f419ba5af7.jpg\"]","trial_type":"similarity","trial_index":197,"time_elapsed":1378684,"internal_node_id":"0.0-6.0-191.0"},{"sim_score":3,"rt":3849,"stimulus":"[\"img/0864/1ebbc554-99fa-49f9-8799-317375a79820.jpg\",\"img/0901/da4fe30f-d12a-491e-96a2-5ab8ebaadd09.jpg\"]","trial_type":"similarity","trial_index":198,"time_elapsed":1383597,"internal_node_id":"0.0-6.0-192.0"},{"sim_score":2,"rt":4369,"stimulus":"[\"img/0894/1b3888e6-cf36-4c4a-a039-187aa5cb71ac.jpg\",\"img/0881/62a64f90-7a72-4aee-a1a1-0c548ac9bdda.jpg\"]","trial_type":"similarity","trial_index":199,"time_elapsed":1389043,"internal_node_id":"0.0-6.0-193.0"},{"sim_score":7,"rt":3541,"stimulus":"[\"img/0868/7b212364-ff5f-4e28-9241-7eb6ea00161b.jpg\",\"img/0868/83b4350a-3b70-4cea-b7f5-b5b56f3050a8.jpg\"]","trial_type":"similarity","trial_index":200,"time_elapsed":1393660,"internal_node_id":"0.0-6.0-194.0"},{"sim_score":5,"rt":3978,"stimulus":"[\"img/0899/93494f3b-d539-4075-b027-d82e344563da.jpg\",\"img/0764/17b088f8-3053-4140-b544-d15654cc79ef.jpg\"]","trial_type":"similarity","trial_index":201,"time_elapsed":1398701,"internal_node_id":"0.0-6.0-195.0"},{"sim_score":4,"rt":5786,"stimulus":"[\"img/0881/dea58fad-b4f1-41d9-bd3f-916eff19a3fd.jpg\",\"img/0904/b7c2a2c8-df33-4473-b3d4-ff7147c60db3.jpg\"]","trial_type":"similarity","trial_index":202,"time_elapsed":1405547,"internal_node_id":"0.0-6.0-196.0"},{"sim_score":4,"rt":3856,"stimulus":"[\"img/0864/300bb811-8b3c-4c42-8653-6097c3725197.jpg\",\"img/0902/cdec1bc6-7f90-4f72-9e01-f5a4111bac1d.jpg\"]","trial_type":"similarity","trial_index":203,"time_elapsed":1410487,"internal_node_id":"0.0-6.0-197.0"},{"sim_score":6,"rt":4696,"stimulus":"[\"img/0894/8cadb87a-7001-4e47-99fb-1867bebf1668.jpg\",\"img/0904/4e58005d-a2ec-4aaa-b199-445343561396.jpg\"]","trial_type":"similarity","trial_index":204,"time_elapsed":1416261,"internal_node_id":"0.0-6.0-198.0"},{"sim_score":7,"rt":3585,"stimulus":"[\"img/0901/7c16dd9c-44ad-4d5b-990c-6a0b9b48b1b1.jpg\",\"img/0901/5b97abf9-f0c8-4fd1-b921-36d574779078.jpg\"]","trial_type":"similarity","trial_index":205,"time_elapsed":1420932,"internal_node_id":"0.0-6.0-199.0"},{"sim_score":3,"rt":3693,"stimulus":"[\"img/0894/e6385e52-6c35-43bd-b0af-bc803d107b11.jpg\",\"img/0860/702bd09d-df3a-40aa-a267-5f04474305b5.jpg\"]","trial_type":"similarity","trial_index":206,"time_elapsed":1425698,"internal_node_id":"0.0-6.0-200.0"},{"sim_score":4,"rt":4966,"stimulus":"[\"img/0898/6cd3830b-d44e-4915-be2b-88d31424b91c.jpg\",\"img/0903/43ffd882-077a-40dd-a264-e58d519420a1.jpg\"]","trial_type":"similarity","trial_index":207,"time_elapsed":1431753,"internal_node_id":"0.0-6.0-201.0"},{"sim_score":3,"rt":3774,"stimulus":"[\"img/0864/65210d57-1153-4657-886a-32e758f49b4a.jpg\",\"img/0894/e5edf723-72a5-4673-8441-6c1734a8929b.jpg\"]","trial_type":"similarity","trial_index":208,"time_elapsed":1436616,"internal_node_id":"0.0-6.0-202.0"},{"sim_score":2,"rt":3872,"stimulus":"[\"img/0874/995f0332-0439-4eb4-add3-957335dbf6d9.jpg\",\"img/0860/87039971-2210-4aab-93c0-8e9b5f1655b2.jpg\"]","trial_type":"similarity","trial_index":209,"time_elapsed":1441561,"internal_node_id":"0.0-6.0-203.0"},{"sim_score":3,"rt":3903,"stimulus":"[\"img/0862/cdaed51d-9e2f-4807-801a-4663c40077e2.jpg\",\"img/0875/2e13d160-eea1-416b-aff1-d37ab99ecc1d.jpg\"]","trial_type":"similarity","trial_index":210,"time_elapsed":1446568,"internal_node_id":"0.0-6.0-204.0"},{"sim_score":2,"rt":3575,"stimulus":"[\"img/0867/26611f4e-d694-4460-b7e2-43c62753ddc3.jpg\",\"img/0881/48ed65a5-471f-41af-86ec-3793805c116d.jpg\"]","trial_type":"similarity","trial_index":211,"time_elapsed":1451224,"internal_node_id":"0.0-6.0-205.0"},{"sim_score":5,"rt":5149,"stimulus":"[\"img/0901/0adb3bd6-d758-4ba7-9723-3ad6cac05bd5.jpg\",\"img/0902/6730b12a-f0a7-4587-8c10-a32fae16565b.jpg\"]","trial_type":"similarity","trial_index":212,"time_elapsed":1457454,"internal_node_id":"0.0-6.0-206.0"},{"sim_score":3,"rt":3764,"stimulus":"[\"img/0899/25ae6ec8-9565-49fe-a8bb-8d0666f52716.jpg\",\"img/0864/66091c27-e588-4476-8af9-265dc6be4156.jpg\"]","trial_type":"similarity","trial_index":213,"time_elapsed":1462293,"internal_node_id":"0.0-6.0-207.0"},{"sim_score":4,"rt":3852,"stimulus":"[\"img/0901/a6c90438-fa7c-4418-ac7c-16c2e772dd98.jpg\",\"img/0769/75f7e514-0548-4329-b1e4-93c05e74f038.jpg\"]","trial_type":"similarity","trial_index":214,"time_elapsed":1467264,"internal_node_id":"0.0-6.0-208.0"},{"sim_score":7,"rt":4057,"stimulus":"[\"img/0902/22ed3536-288b-452e-9777-0fa0ab94deb0.jpg\",\"img/0902/30c420f5-c714-4681-ae5a-c0ba8f636a26.jpg\"]","trial_type":"similarity","trial_index":215,"time_elapsed":1485784,"internal_node_id":"0.0-6.0-209.0"},{"view_history":"[{\"page_index\":0,\"viewing_time\":11209}]","rt":11213,"trial_type":"instructions","trial_index":216,"time_elapsed":1498026,"internal_node_id":"0.0-7.0"},{"rt":59458,"responses":"{\"Q0\":\"Tennessee Warbler\"}","answer":["Nashville Warbler"],"trial_type":"image-multi-choice","trial_index":217,"time_elapsed":1558898,"internal_node_id":"0.0-8.0-0.0"},{"rt":6132,"responses":"{\"Q0\":\"Black-and-white Warbler\"}","answer":["Black-and-white Warbler"],"trial_type":"image-multi-choice","trial_index":218,"time_elapsed":1566401,"internal_node_id":"0.0-8.0-1.0"},{"rt":165094,"responses":"{\"Q0\":\"Townsend's Warbler\"}","answer":["Townsend's Warbler"],"trial_type":"image-multi-choice","trial_index":219,"time_elapsed":1732865,"internal_node_id":"0.0-8.0-2.0"},{"rt":6337,"responses":"{\"Q0\":\"Lark Sparrow\"}","answer":["Lark Sparrow"],"trial_type":"image-multi-choice","trial_index":220,"time_elapsed":1740585,"internal_node_id":"0.0-8.0-3.0"},{"rt":5098,"responses":"{\"Q0\":\"Yellow Warbler\"}","answer":["Yellow Warbler"],"trial_type":"image-multi-choice","trial_index":221,"time_elapsed":1746995,"internal_node_id":"0.0-8.0-4.0"},{"rt":27006,"responses":"{\"Q0\":\"Orange-crowned Warbler\"}","answer":["Orange-crowned Warbler"],"trial_type":"image-multi-choice","trial_index":222,"time_elapsed":1775405,"internal_node_id":"0.0-8.0-5.0"},{"rt":6697,"responses":"{\"Q0\":\"White-throated Sparrow\"}","answer":["White-throated Sparrow"],"trial_type":"image-multi-choice","trial_index":223,"time_elapsed":1783481,"internal_node_id":"0.0-8.0-6.0"},{"rt":5236,"responses":"{\"Q0\":\"Fox Sparrow\"}","answer":["Fox Sparrow"],"trial_type":"image-multi-choice","trial_index":224,"time_elapsed":1790101,"internal_node_id":"0.0-8.0-7.0"},{"rt":90939,"responses":"{\"Q0\":\"Song Sparrow\"}","answer":["Song Sparrow"],"trial_type":"image-multi-choice","trial_index":225,"time_elapsed":1882367,"internal_node_id":"0.0-8.0-8.0"},{"rt":28461,"responses":"{\"Q0\":\"Blackburnian Warbler\"}","answer":["Blackburnian Warbler"],"trial_type":"image-multi-choice","trial_index":226,"time_elapsed":1912172,"internal_node_id":"0.0-8.0-9.0"},{"rt":39755,"responses":"{\"Q0\":\"Vesper Sparrow\"}","answer":["Vesper Sparrow"],"trial_type":"image-multi-choice","trial_index":227,"time_elapsed":1953163,"internal_node_id":"0.0-8.0-10.0"},{"rt":4894,"responses":"{\"Q0\":\"White-crowned Sparrow\"}","answer":["White-crowned Sparrow"],"trial_type":"image-multi-choice","trial_index":228,"time_elapsed":1959422,"internal_node_id":"0.0-8.0-11.0"},{"rt":29628,"responses":"{\"Q0\":\"American Tree Sparrow\"}","answer":["American Tree Sparrow"],"trial_type":"image-multi-choice","trial_index":229,"time_elapsed":1990458,"internal_node_id":"0.0-8.0-12.0"},{"rt":78043,"responses":"{\"Q0\":\"Tennessee Warbler\"}","answer":["Tennessee Warbler"],"trial_type":"image-multi-choice","trial_index":230,"time_elapsed":2069875,"internal_node_id":"0.0-8.0-13.0"},{"rt":30101,"responses":"{\"Q0\":\"Magnolia Warbler\"}","answer":["Magnolia Warbler"],"trial_type":"image-multi-choice","trial_index":231,"time_elapsed":2101383,"internal_node_id":"0.0-8.0-14.0"},{"rt":10533,"responses":"{\"Q0\":\"Northern Waterthrush\"}","answer":["Northern Waterthrush"],"trial_type":"image-multi-choice","trial_index":232,"time_elapsed":2113284,"internal_node_id":"0.0-8.0-15.0"},{"rt":12118,"responses":"{\"Q0\":\"Chipping Sparrow\"}","answer":["Chipping Sparrow"],"trial_type":"image-multi-choice","trial_index":233,"time_elapsed":2126787,"internal_node_id":"0.0-8.0-16.0"},{"rt":10443,"responses":"{\"Q0\":\"Lincoln's Sparrow\"}","answer":["Swamp Sparrow"],"trial_type":"image-multi-choice","trial_index":234,"time_elapsed":2138673,"internal_node_id":"0.0-8.0-17.0"},{"rt":96273,"responses":"{\"Q0\":\"Song Sparrow\"}","answer":["Lincoln's Sparrow"],"trial_type":"image-multi-choice","trial_index":235,"time_elapsed":2236317,"internal_node_id":"0.0-8.0-18.0"},{"rt":6632,"responses":"{\"Q0\":\"Ovenbird\"}","answer":["Ovenbird"],"trial_type":"image-multi-choice","trial_index":236,"time_elapsed":2244360,"internal_node_id":"0.0-8.0-19.0"}]