[{"view_history":"[{\"page_index\":0,\"viewing_time\":13744}]","rt":13745,"trial_type":"instructions","trial_index":0,"time_elapsed":13748,"internal_node_id":"0.0-0.0"},{"sim_score":6,"rt":9556,"stimulus":"[\"img/866.jpg\",\"img/868.jpg\"]","trial_type":"similarity_demo","trial_index":1,"time_elapsed":24329,"internal_node_id":"0.0-1.0"},{"view_history":"[{\"page_index\":0,\"viewing_time\":9390}]","rt":9391,"trial_type":"instructions","trial_index":2,"time_elapsed":34722,"internal_node_id":"0.0-2.0"},{"sim_score":2,"rt":5253,"stimulus":"[\"img/766.jpg\",\"img/867.jpg\"]","trial_type":"similarity_demo","trial_index":3,"time_elapsed":40988,"internal_node_id":"0.0-3.0"},{"view_history":"[{\"page_index\":0,\"viewing_time\":4151}]","rt":4152,"trial_type":"instructions","trial_index":4,"time_elapsed":46140,"internal_node_id":"0.0-4.0"},{"view_history":"[{\"page_index\":0,\"viewing_time\":7342}]","rt":7343,"trial_type":"instructions","trial_index":5,"time_elapsed":54483,"internal_node_id":"0.0-5.0"},{"sim_score":3,"rt":5017,"stimulus":"[\"img/0868/5fa7f9d0-f0e5-454c-8224-74d964818f56.jpg\",\"img/0901/50e1d53e-a49f-4806-8610-be6dec5a2475.jpg\"]","trial_type":"similarity","trial_index":6,"time_elapsed":60521,"internal_node_id":"0.0-6.0-0.0"},{"sim_score":2,"rt":4228,"stimulus":"[\"img/0769/76eaa4a3-dfe9-4dc1-9efb-caebe86264e1.jpg\",\"img/0867/db7e032f-162b-46f5-ae67-2b29679adee4.jpg\"]","trial_type":"similarity","trial_index":7,"time_elapsed":65760,"internal_node_id":"0.0-6.0-1.0"},{"sim_score":5,"rt":3926,"stimulus":"[\"img/0766/d8221e53-2300-4d99-ae1b-0bfb0eabe579.jpg\",\"img/0898/b3290bf9-215b-4b45-b21a-65bdf73f142f.jpg\"]","trial_type":"similarity","trial_index":8,"time_elapsed":70707,"internal_node_id":"0.0-6.0-2.0"},{"sim_score":3,"rt":6419,"stimulus":"[\"img/0902/511abb54-0094-4f4d-b6dc-3f2c97050521.jpg\",\"img/0881/e046471a-35b4-4159-bbf7-3cfd201bef66.jpg\"]","trial_type":"similarity","trial_index":9,"time_elapsed":78141,"internal_node_id":"0.0-6.0-3.0"},{"sim_score":7,"rt":4960,"stimulus":"[\"img/0894/492d2f29-d7b9-4422-8be8-47fd58bfaa8b.jpg\",\"img/0894/5f15154e-e72e-4ce5-aafb-bce6f0564006.jpg\"]","trial_type":"similarity","trial_index":10,"time_elapsed":84118,"internal_node_id":"0.0-6.0-4.0"},{"sim_score":3,"rt":7191,"stimulus":"[\"img/0874/eba003b4-cdab-4eee-8bc3-f064c7d94165.jpg\",\"img/0899/a05bea16-2bb4-4cb9-b8fb-4ff975db6971.jpg\"]","trial_type":"similarity","trial_index":11,"time_elapsed":92325,"internal_node_id":"0.0-6.0-5.0"},{"sim_score":6,"rt":4830,"stimulus":"[\"img/0904/1d10df11-b5c8-4370-9a6b-097a7f965895.jpg\",\"img/0764/b887d7c6-aa81-4637-af8e-05135757ac59.jpg\"]","trial_type":"similarity","trial_index":12,"time_elapsed":98173,"internal_node_id":"0.0-6.0-6.0"},{"sim_score":7,"rt":4890,"stimulus":"[\"img/0899/66ab3178-c3fe-4455-ad17-d5952b08e018.jpg\",\"img/0898/b2732712-71c2-45d8-834f-2b2ed5504910.jpg\"]","trial_type":"similarity","trial_index":13,"time_elapsed":104085,"internal_node_id":"0.0-6.0-7.0"},{"sim_score":2,"rt":4708,"stimulus":"[\"img/0874/767f289c-9814-4496-803f-745cc8913d1f.jpg\",\"img/0903/ea75f240-fb62-4edb-a709-83e858b202c0.jpg\"]","trial_type":"similarity","trial_index":14,"time_elapsed":109802,"internal_node_id":"0.0-6.0-8.0"},{"sim_score":6,"rt":4540,"stimulus":"[\"img/0881/f7a8cc63-8842-40a4-9ff8-fe530310d62c.jpg\",\"img/0758/f61ecdf8-a7d4-4db0-b84d-be46f7cfaffc.jpg\"]","trial_type":"similarity","trial_index":15,"time_elapsed":115355,"internal_node_id":"0.0-6.0-9.0"},{"sim_score":5,"rt":4671,"stimulus":"[\"img/0898/68476bbb-34a1-42d9-8bc1-deab783d4489.jpg\",\"img/0901/bc47e078-bda4-40ed-b89a-bbd819164b95.jpg\"]","trial_type":"similarity","trial_index":16,"time_elapsed":121042,"internal_node_id":"0.0-6.0-10.0"},{"sim_score":5,"rt":4250,"stimulus":"[\"img/0903/2a9c8033-3e70-47fa-816d-97ee1813a3a3.jpg\",\"img/0769/91acb237-65a3-4d0b-9748-af5c7b83d3c7.jpg\"]","trial_type":"similarity","trial_index":17,"time_elapsed":126302,"internal_node_id":"0.0-6.0-11.0"},{"sim_score":2,"rt":4843,"stimulus":"[\"img/0764/c643e165-df19-459f-8c2b-8357bf432a17.jpg\",\"img/0868/4e626425-63c8-484a-8a1d-e66ee4e0bef8.jpg\"]","trial_type":"similarity","trial_index":18,"time_elapsed":132154,"internal_node_id":"0.0-6.0-12.0"},{"sim_score":5,"rt":6499,"stimulus":"[\"img/0867/a749dddb-69f0-44a6-acdc-2bf295cf6dcc.jpg\",\"img/0903/6a87dbad-9b8d-4ff5-9c41-03c9aa24f0c3.jpg\"]","trial_type":"similarity","trial_index":19,"time_elapsed":139663,"internal_node_id":"0.0-6.0-13.0"},{"sim_score":4,"rt":4395,"stimulus":"[\"img/0766/d3bab2fc-ddcc-40a0-bb72-c0d0ebe19978.jpg\",\"img/0758/caa93da2-9edf-49fa-96b9-32dedd8f5078.jpg\"]","trial_type":"similarity","trial_index":20,"time_elapsed":145066,"internal_node_id":"0.0-6.0-14.0"},{"sim_score":3,"rt":6208,"stimulus":"[\"img/0902/b56db912-c3c0-4fc2-b325-d640acd7cb58.jpg\",\"img/0860/c7047cd2-7cc1-41b6-8a34-c0986774975f.jpg\"]","trial_type":"similarity","trial_index":21,"time_elapsed":152280,"internal_node_id":"0.0-6.0-15.0"},{"sim_score":3,"rt":5141,"stimulus":"[\"img/0769/9ea9ceb6-049e-4ad9-be8f-00645cd35803.jpg\",\"img/0875/a4935837-7d3c-4df6-88c1-36a94d4991ca.jpg\"]","trial_type":"similarity","trial_index":22,"time_elapsed":158428,"internal_node_id":"0.0-6.0-16.0"},{"sim_score":2,"rt":6634,"stimulus":"[\"img/0904/63dd06dd-dccb-47ba-9740-eb33239e18a7.jpg\",\"img/0866/be24ab58-230e-4db8-9f45-ff04c9aec6bb.jpg\"]","trial_type":"similarity","trial_index":23,"time_elapsed":166069,"internal_node_id":"0.0-6.0-17.0"},{"sim_score":7,"rt":4057,"stimulus":"[\"img/0875/5a7c4e35-6514-4e12-8879-d16071da4cd6.jpg\",\"img/0875/dbdd643e-6d0e-4a5c-ab57-b9c29b9c981a.jpg\"]","trial_type":"similarity","trial_index":24,"time_elapsed":171134,"internal_node_id":"0.0-6.0-18.0"},{"sim_score":7,"rt":4845,"stimulus":"[\"img/0758/b76ceca7-95ac-46e4-ac13-da02c8e93be9.jpg\",\"img/0758/7ee8bc8f-c40b-4b3a-84ec-3e83580622d4.jpg\"]","trial_type":"similarity","trial_index":25,"time_elapsed":176988,"internal_node_id":"0.0-6.0-19.0"},{"sim_score":3,"rt":5156,"stimulus":"[\"img/0902/1f4a4c62-68c1-4993-b213-05652a173ed1.jpg\",\"img/0874/ca23d307-fc00-4d7d-9106-584c6eb21b4d.jpg\"]","trial_type":"similarity","trial_index":26,"time_elapsed":183151,"internal_node_id":"0.0-6.0-20.0"},{"sim_score":7,"rt":6282,"stimulus":"[\"img/0764/5c8fbafc-e62e-43ed-9b37-f73e8e45147d.jpg\",\"img/0769/1ca58b80-2365-446d-9616-6c1719e6c46f.jpg\"]","trial_type":"similarity","trial_index":27,"time_elapsed":190441,"internal_node_id":"0.0-6.0-21.0"},{"sim_score":2,"rt":6457,"stimulus":"[\"img/0901/875dedb9-24c9-4443-9f8c-85e97d70ee5a.jpg\",\"img/0874/31e22c7c-99aa-40b1-bf03-dd73fa2df4d6.jpg\"]","trial_type":"similarity","trial_index":28,"time_elapsed":197907,"internal_node_id":"0.0-6.0-22.0"},{"sim_score":2,"rt":5076,"stimulus":"[\"img/0875/34132396-d896-4c2d-8087-646dd867e769.jpg\",\"img/0903/39365c8e-a733-4801-ac7d-b87e38c3784b.jpg\"]","trial_type":"similarity","trial_index":29,"time_elapsed":203992,"internal_node_id":"0.0-6.0-23.0"},{"sim_score":1,"rt":8217,"stimulus":"[\"img/0769/04347740-f8f6-48bb-887a-f68babd0a0d4.jpg\",\"img/0881/292e9b4b-fca0-4ba8-87f1-4048f9e37b7d.jpg\"]","trial_type":"similarity","trial_index":30,"time_elapsed":213217,"internal_node_id":"0.0-6.0-24.0"},{"sim_score":1,"rt":5410,"stimulus":"[\"img/0867/f8488a47-94ee-4166-952c-44e16cf172f6.jpg\",\"img/0904/06dacdc5-2206-4fb8-92b7-88042d22833c.jpg\"]","trial_type":"similarity","trial_index":31,"time_elapsed":219636,"internal_node_id":"0.0-6.0-25.0"},{"sim_score":3,"rt":5016,"stimulus":"[\"img/0860/15b24a61-25be-4356-9eac-5ce95d0cb4a4.jpg\",\"img/0881/14236cf2-6b95-48b8-9368-78af09d2d27f.jpg\"]","trial_type":"similarity","trial_index":32,"time_elapsed":225659,"internal_node_id":"0.0-6.0-26.0"},{"sim_score":7,"rt":4711,"stimulus":"[\"img/0866/a15b02be-11bb-43e3-b0e0-ecc3bd7dfc49.jpg\",\"img/0866/bf14b5bd-fb55-47db-86b9-4f8aeb9a6dad.jpg\"]","trial_type":"similarity","trial_index":33,"time_elapsed":231380,"internal_node_id":"0.0-6.0-27.0"},{"sim_score":2,"rt":4479,"stimulus":"[\"img/0764/3297a811-ea8b-4d74-9547-59cecab7293a.jpg\",\"img/0862/4f0a3b4c-afbf-486e-b248-1d54982f54b4.jpg\"]","trial_type":"similarity","trial_index":34,"time_elapsed":236869,"internal_node_id":"0.0-6.0-28.0"},{"sim_score":2,"rt":4003,"stimulus":"[\"img/0904/0d17b811-063e-416e-a23c-3b3cfa4fcce5.jpg\",\"img/0758/d540bee6-b460-4c32-ac57-bc282742d7d4.jpg\"]","trial_type":"similarity","trial_index":35,"time_elapsed":241886,"internal_node_id":"0.0-6.0-29.0"},{"sim_score":5,"rt":3209,"stimulus":"[\"img/0894/1a010553-d598-4b06-a772-81f1e7b3addb.jpg\",\"img/0899/b45c550b-96c3-4255-ad59-48a2b4db1c1e.jpg\"]","trial_type":"similarity","trial_index":36,"time_elapsed":246111,"internal_node_id":"0.0-6.0-30.0"},{"sim_score":2,"rt":5230,"stimulus":"[\"img/0860/61fb959d-d4d9-4de4-9e4e-4fa62b4cfcd5.jpg\",\"img/0904/9dd5708f-3f8b-46a9-b49f-2f2fab87b357.jpg\"]","trial_type":"similarity","trial_index":37,"time_elapsed":252360,"internal_node_id":"0.0-6.0-31.0"},{"sim_score":6,"rt":3992,"stimulus":"[\"img/0874/bf14b896-e930-4fd9-9c05-2e83317a2773.jpg\",\"img/0881/62a64f90-7a72-4aee-a1a1-0c548ac9bdda.jpg\"]","trial_type":"similarity","trial_index":38,"time_elapsed":257365,"internal_node_id":"0.0-6.0-32.0"},{"sim_score":3,"rt":5293,"stimulus":"[\"img/0881/19e82c47-8e4b-45d2-a6c8-74181eb4155e.jpg\",\"img/0899/06b0fc99-0581-461a-9913-d1a5a941ac61.jpg\"]","trial_type":"similarity","trial_index":39,"time_elapsed":263672,"internal_node_id":"0.0-6.0-33.0"},{"sim_score":5,"rt":6107,"stimulus":"[\"img/0866/c446214b-a368-4c65-ae39-ea46894256ab.jpg\",\"img/0862/e697469a-ec19-4414-b972-7b9f3564785b.jpg\"]","trial_type":"similarity","trial_index":40,"time_elapsed":270791,"internal_node_id":"0.0-6.0-34.0"},{"sim_score":3,"rt":3585,"stimulus":"[\"img/0868/15dd6fd7-791e-4b53-b203-195d617521a4.jpg\",\"img/0894/7dd6ff43-f8fc-408a-8a41-a2b261871820.jpg\"]","trial_type":"similarity","trial_index":41,"time_elapsed":275387,"internal_node_id":"0.0-6.0-35.0"},{"sim_score":7,"rt":4649,"stimulus":"[\"img/0860/99c589b9-9140-4d17-90c0-b344323edcda.jpg\",\"img/0860/524b2e98-5767-4d53-942c-ebae6925659b.jpg\"]","trial_type":"similarity","trial_index":42,"time_elapsed":281048,"internal_node_id":"0.0-6.0-36.0"},{"sim_score":5,"rt":4190,"stimulus":"[\"img/0862/f43ceabf-acc1-4107-b857-5d1849808f93.jpg\",\"img/0864/8ddd2e30-a1d0-479f-9cbe-591213023893.jpg\"]","trial_type":"similarity","trial_index":43,"time_elapsed":286251,"internal_node_id":"0.0-6.0-37.0"},{"sim_score":3,"rt":5902,"stimulus":"[\"img/0766/989c5c7f-1aff-4442-ac63-9d46acf4a891.jpg\",\"img/0866/4a87911a-d5be-4d4e-ab8e-3d1f581bf507.jpg\"]","trial_type":"similarity","trial_index":44,"time_elapsed":293164,"internal_node_id":"0.0-6.0-38.0"},{"sim_score":2,"rt":7536,"stimulus":"[\"img/0875/e7e66b13-b573-431e-b85e-288ce04a35a3.jpg\",\"img/0898/4184e5a2-84ea-4f36-9b42-ae58646f6f87.jpg\"]","trial_type":"similarity","trial_index":45,"time_elapsed":301711,"internal_node_id":"0.0-6.0-39.0"},{"sim_score":6,"rt":8283,"stimulus":"[\"img/0766/33519c22-aaa4-49d7-8d49-ab551db1945e.jpg\",\"img/0769/35364db7-e0d5-40ef-93dc-faf9dfb95136.jpg\"]","trial_type":"similarity","trial_index":46,"time_elapsed":311009,"internal_node_id":"0.0-6.0-40.0"},{"sim_score":2,"rt":5286,"stimulus":"[\"img/0874/c0378dac-9370-439a-8b79-db27c96fb390.jpg\",\"img/0764/cffc80b0-4a90-4acb-a530-6f480f3ca303.jpg\"]","trial_type":"similarity","trial_index":47,"time_elapsed":327055,"internal_node_id":"0.0-6.0-41.0"},{"sim_score":3,"rt":6926,"stimulus":"[\"img/0868/1a62b2b2-18f5-466e-b564-5176a57c565e.jpg\",\"img/0902/eb3e7e71-8ff1-4b88-a6a7-47e2c1ce1683.jpg\"]","trial_type":"similarity","trial_index":48,"time_elapsed":334995,"internal_node_id":"0.0-6.0-42.0"},{"sim_score":1,"rt":5074,"stimulus":"[\"img/0875/2e13d160-eea1-416b-aff1-d37ab99ecc1d.jpg\",\"img/0899/f95cbdb4-f804-4f5d-ad76-373ad343e658.jpg\"]","trial_type":"similarity","trial_index":49,"time_elapsed":341087,"internal_node_id":"0.0-6.0-43.0"},{"sim_score":4,"rt":6504,"stimulus":"[\"img/0866/386235d2-6857-41e7-88a8-25cfc3430025.jpg\",\"img/0860/31ff6436-98bf-4652-bed2-40f627229568.jpg\"]","trial_type":"similarity","trial_index":50,"time_elapsed":348605,"internal_node_id":"0.0-6.0-44.0"},{"sim_score":5,"rt":7798,"stimulus":"[\"img/0766/fd74fdbb-ea40-4f3a-a091-38d08dfd636e.jpg\",\"img/0903/776b74ee-a8ab-4ab8-a78d-097c0747538d.jpg\"]","trial_type":"similarity","trial_index":51,"time_elapsed":357415,"internal_node_id":"0.0-6.0-45.0"},{"sim_score":6,"rt":4720,"stimulus":"[\"img/0901/4f9cffe0-c0be-4d7f-bacd-9d51efd19b4a.jpg\",\"img/0904/56e73f28-7e64-489b-a161-e6b1a063878d.jpg\"]","trial_type":"similarity","trial_index":52,"time_elapsed":363144,"internal_node_id":"0.0-6.0-46.0"},{"sim_score":4,"rt":5008,"stimulus":"[\"img/0758/dd559618-7f09-4a07-8018-d311c4a5ea29.jpg\",\"img/0902/8af4182a-9af9-4212-a436-9195555112d6.jpg\"]","trial_type":"similarity","trial_index":53,"time_elapsed":369167,"internal_node_id":"0.0-6.0-47.0"},{"sim_score":7,"rt":7621,"stimulus":"[\"img/0764/da207710-e7e4-4f42-b2e6-99b5f357f433.jpg\",\"img/0764/55b3fab1-b809-4d38-a461-3f40ce062f52.jpg\"]","trial_type":"similarity","trial_index":54,"time_elapsed":377799,"internal_node_id":"0.0-6.0-48.0"},{"sim_score":2,"rt":4621,"stimulus":"[\"img/0866/23a224f3-2012-4fc8-8e0f-3c36f8de27fd.jpg\",\"img/0902/f3cfec34-482c-4bdb-9c92-19ea6cfce183.jpg\"]","trial_type":"similarity","trial_index":55,"time_elapsed":383431,"internal_node_id":"0.0-6.0-49.0"},{"sim_score":3,"rt":5173,"stimulus":"[\"img/0764/ec2dd087-c471-4370-b570-95a542506a96.jpg\",\"img/0758/335851a0-a55b-46d8-ab05-8463eda48349.jpg\"]","trial_type":"similarity","trial_index":56,"time_elapsed":389620,"internal_node_id":"0.0-6.0-50.0"},{"sim_score":3,"rt":6038,"stimulus":"[\"img/0898/8605a25b-6895-476d-8c13-df7a83f96093.jpg\",\"img/0894/11674fa4-285d-44e2-939f-2228c6a64080.jpg\"]","trial_type":"similarity","trial_index":57,"time_elapsed":396670,"internal_node_id":"0.0-6.0-51.0"},{"sim_score":5,"rt":6352,"stimulus":"[\"img/0875/2c361b79-c3d1-4eda-812e-bf03192407bf.jpg\",\"img/0866/93a27239-8317-4e08-98ca-d8b1ff298e07.jpg\"]","trial_type":"similarity","trial_index":58,"time_elapsed":404031,"internal_node_id":"0.0-6.0-52.0"},{"sim_score":6,"rt":4207,"stimulus":"[\"img/0904/6291eb43-c10c-4810-a36a-101d09868b04.jpg\",\"img/0904/b5855d6a-7ef9-46ca-9215-6e9fa046e543.jpg\"]","trial_type":"similarity","trial_index":59,"time_elapsed":409251,"internal_node_id":"0.0-6.0-53.0"},{"sim_score":6,"rt":6688,"stimulus":"[\"img/0769/35f2dd39-40aa-498e-b401-9f1ef2622d00.jpg\",\"img/0769/662ab839-88d1-4ebf-af05-9b2980cad943.jpg\"]","trial_type":"similarity","trial_index":60,"time_elapsed":416955,"internal_node_id":"0.0-6.0-54.0"},{"sim_score":1,"rt":6669,"stimulus":"[\"img/0898/04e39a7a-fcf6-4156-ab0e-f5871f335e1c.jpg\",\"img/0758/ddc336e9-a8b6-4bb9-937a-c7e25e0e9250.jpg\"]","trial_type":"similarity","trial_index":61,"time_elapsed":424639,"internal_node_id":"0.0-6.0-55.0"},{"sim_score":5,"rt":5768,"stimulus":"[\"img/0769/ebef2ddc-ba59-4e0e-97f8-927864eb5081.jpg\",\"img/0902/af45fe42-178c-4c1a-99ef-256e87e3b092.jpg\"]","trial_type":"similarity","trial_index":62,"time_elapsed":431422,"internal_node_id":"0.0-6.0-56.0"},{"sim_score":4,"rt":2402,"stimulus":"[\"img/0864/1ebbc554-99fa-49f9-8799-317375a79820.jpg\",\"img/0881/6b1189e6-232d-4042-8885-16dc7b10e0d4.jpg\"]","trial_type":"similarity","trial_index":63,"time_elapsed":434835,"internal_node_id":"0.0-6.0-57.0"},{"sim_score":4,"rt":3074,"stimulus":"[\"img/0758/65d426d6-3ff6-415d-8654-a43b83ecc4fe.jpg\",\"img/0868/09a9ef4d-d000-4cfa-a6aa-ebec7c2edeb4.jpg\"]","trial_type":"similarity","trial_index":64,"time_elapsed":438919,"internal_node_id":"0.0-6.0-58.0"},{"sim_score":4,"rt":4337,"stimulus":"[\"img/0862/ba89835a-408c-480b-8594-ed4ffa97eb5c.jpg\",\"img/0769/1afb527f-9887-428c-bd26-a12c2f9efb68.jpg\"]","trial_type":"similarity","trial_index":65,"time_elapsed":444267,"internal_node_id":"0.0-6.0-59.0"},{"sim_score":5,"rt":5234,"stimulus":"[\"img/0764/952d7adc-dc40-4aee-acce-18c2a1d02ea1.jpg\",\"img/0903/8fcafe03-43df-4c45-9da5-0df3a1eeccc5.jpg\"]","trial_type":"similarity","trial_index":66,"time_elapsed":450512,"internal_node_id":"0.0-6.0-60.0"},{"sim_score":7,"rt":5614,"stimulus":"[\"img/0899/4f7bc593-8ddd-4da3-a0b9-84da730d3370.jpg\",\"img/0899/f58b8d2f-b19d-4b59-8b94-8834be92e4ba.jpg\"]","trial_type":"similarity","trial_index":67,"time_elapsed":457138,"internal_node_id":"0.0-6.0-61.0"},{"sim_score":3,"rt":4811,"stimulus":"[\"img/0860/29a21a9f-54bb-4093-ad3f-04823ceaa89f.jpg\",\"img/0875/f87b67d7-c33e-40d1-b281-248c4be1cb6e.jpg\"]","trial_type":"similarity","trial_index":68,"time_elapsed":462965,"internal_node_id":"0.0-6.0-62.0"},{"sim_score":5,"rt":4432,"stimulus":"[\"img/0868/d6d1f30d-4323-435a-b194-7892521bc57e.jpg\",\"img/0874/1016b306-087c-4afc-aa08-fa527b28dc76.jpg\"]","trial_type":"similarity","trial_index":69,"time_elapsed":468409,"internal_node_id":"0.0-6.0-63.0"},{"sim_score":5,"rt":5149,"stimulus":"[\"img/0758/3ddd05d3-557e-4ee7-8b78-9d2d681d8ae2.jpg\",\"img/0862/fb26cb07-d5a9-4653-813c-f41609f26cd5.jpg\"]","trial_type":"similarity","trial_index":70,"time_elapsed":474568,"internal_node_id":"0.0-6.0-64.0"},{"sim_score":6,"rt":6977,"stimulus":"[\"img/0904/2c98dc56-88d1-4fb5-a999-b6a7861f65f0.jpg\",\"img/0898/a114b375-cb89-44ba-9498-74213f1ecdee.jpg\"]","trial_type":"similarity","trial_index":71,"time_elapsed":482562,"internal_node_id":"0.0-6.0-65.0"},{"sim_score":4,"rt":4390,"stimulus":"[\"img/0881/4bd34581-94d8-4e88-8c89-5cef864ca3be.jpg\",\"img/0866/d266fece-59b3-46fa-b69f-96f6efb81b59.jpg\"]","trial_type":"similarity","trial_index":72,"time_elapsed":487965,"internal_node_id":"0.0-6.0-66.0"},{"sim_score":2,"rt":4675,"stimulus":"[\"img/0867/85a96c62-548f-4994-9553-819e03c3135a.jpg\",\"img/0898/81b08535-2020-4c15-9ce4-2f1e460755ae.jpg\"]","trial_type":"similarity","trial_index":73,"time_elapsed":493653,"internal_node_id":"0.0-6.0-67.0"},{"sim_score":3,"rt":6756,"stimulus":"[\"img/0902/95a36b6b-9601-4fa5-8fd9-606ea62f9425.jpg\",\"img/0764/8740679b-b56f-4292-aece-14063457113a.jpg\"]","trial_type":"similarity","trial_index":74,"time_elapsed":501422,"internal_node_id":"0.0-6.0-68.0"},{"sim_score":6,"rt":4961,"stimulus":"[\"img/0875/cff79b3a-a797-4393-9757-6275f999ec04.jpg\",\"img/0867/075e0f95-856b-4cbb-acf5-092393aaf04e.jpg\"]","trial_type":"similarity","trial_index":75,"time_elapsed":507395,"internal_node_id":"0.0-6.0-69.0"},{"sim_score":4,"rt":5484,"stimulus":"[\"img/0766/d14acac4-7db1-4b07-8f8f-302437326fc0.jpg\",\"img/0764/4eff630a-6426-4f8d-b2ba-b4d9842a0962.jpg\"]","trial_type":"similarity","trial_index":76,"time_elapsed":513893,"internal_node_id":"0.0-6.0-70.0"},{"sim_score":3,"rt":5785,"stimulus":"[\"img/0894/e2446cf5-cd48-486a-badc-76498e087fbe.jpg\",\"img/0867/5e07b34d-b40f-4b1c-ac10-49975bace45f.jpg\"]","trial_type":"similarity","trial_index":77,"time_elapsed":520685,"internal_node_id":"0.0-6.0-71.0"},{"sim_score":1,"rt":5136,"stimulus":"[\"img/0875/527ced51-8e53-4aab-ab05-86df219104c0.jpg\",\"img/0764/978aede9-4590-4ad0-b234-135c83e5d669.jpg\"]","trial_type":"similarity","trial_index":78,"time_elapsed":526829,"internal_node_id":"0.0-6.0-72.0"},{"sim_score":5,"rt":4839,"stimulus":"[\"img/0867/50a1b60e-3a29-44bf-b606-d4bd3746fea9.jpg\",\"img/0866/11a1d141-be5e-443c-98c1-a9d4d9e3dec0.jpg\"]","trial_type":"similarity","trial_index":79,"time_elapsed":532682,"internal_node_id":"0.0-6.0-73.0"},{"sim_score":1,"rt":5730,"stimulus":"[\"img/0903/a0673b55-6040-47fe-9040-24bca27ca3c9.jpg\",\"img/0758/a085b443-b5d7-4cb2-9ad4-b9dab0fc23f1.jpg\"]","trial_type":"similarity","trial_index":80,"time_elapsed":539425,"internal_node_id":"0.0-6.0-74.0"},{"sim_score":1,"rt":5104,"stimulus":"[\"img/0766/09f646c8-a69e-4ed3-879c-8d29b04ad7f9.jpg\",\"img/0868/6a28c3b0-3d76-498a-9fb7-ddafc665eca8.jpg\"]","trial_type":"similarity","trial_index":81,"time_elapsed":545541,"internal_node_id":"0.0-6.0-75.0"},{"sim_score":2,"rt":7117,"stimulus":"[\"img/0874/8cdb1c07-1c32-46d2-981c-3636560fa6e5.jpg\",\"img/0766/ba35c0fc-4d5b-490d-959e-c94b279cdd02.jpg\"]","trial_type":"similarity","trial_index":82,"time_elapsed":553669,"internal_node_id":"0.0-6.0-76.0"},{"sim_score":4,"rt":2526,"stimulus":"[\"img/0881/c24f3051-eefa-42de-aba6-fccb56d93c70.jpg\",\"img/0868/4bd5105a-d2c3-4f82-8c80-57196106ba53.jpg\"]","trial_type":"similarity","trial_index":83,"time_elapsed":557208,"internal_node_id":"0.0-6.0-77.0"},{"sim_score":2,"rt":3960,"stimulus":"[\"img/0758/7ffbc76b-1fc1-432c-8f7e-9ec8d1b3f643.jpg\",\"img/0901/f1116359-1ff1-4638-b3b3-700918d36d18.jpg\"]","trial_type":"similarity","trial_index":84,"time_elapsed":562179,"internal_node_id":"0.0-6.0-78.0"},{"sim_score":3,"rt":9463,"stimulus":"[\"img/0881/1407b85b-a1c6-45b1-9884-3b24203efadb.jpg\",\"img/0898/0c7dde4f-efce-4b7a-9387-6921635b7890.jpg\"]","trial_type":"similarity","trial_index":85,"time_elapsed":572658,"internal_node_id":"0.0-6.0-79.0"},{"sim_score":3,"rt":6557,"stimulus":"[\"img/0867/cc72ed48-7704-422c-86d6-467a1145287a.jpg\",\"img/0758/6e95579b-5166-487c-b8cb-e417c6a218e3.jpg\"]","trial_type":"similarity","trial_index":86,"time_elapsed":580224,"internal_node_id":"0.0-6.0-80.0"},{"sim_score":5,"rt":4089,"stimulus":"[\"img/0769/96556ef3-7fac-4c9d-8281-1cb0ea5081bc.jpg\",\"img/0899/5b56dd3e-3f49-47cc-af84-16da6457753b.jpg\"]","trial_type":"similarity","trial_index":87,"time_elapsed":585331,"internal_node_id":"0.0-6.0-81.0"},{"sim_score":7,"rt":3840,"stimulus":"[\"img/0903/72197c2b-403e-4a26-b391-f1aa8dea4b76.jpg\",\"img/0903/2c7b4aed-6038-4aac-958a-e3e58341c313.jpg\"]","trial_type":"similarity","trial_index":88,"time_elapsed":590187,"internal_node_id":"0.0-6.0-82.0"},{"sim_score":2,"rt":5670,"stimulus":"[\"img/0867/bf560d4f-dee3-4f11-a385-705cc1aa5f3c.jpg\",\"img/0766/c23b5a20-e50f-4d85-841f-cf89212a4348.jpg\"]","trial_type":"similarity","trial_index":89,"time_elapsed":605978,"internal_node_id":"0.0-6.0-83.0"},{"sim_score":1,"rt":6180,"stimulus":"[\"img/0902/a323b62d-2fd5-4ac8-acc6-35b768f3c3f2.jpg\",\"img/0867/2e1a0b58-cdb1-4107-a14e-452530d7b9b0.jpg\"]","trial_type":"similarity","trial_index":90,"time_elapsed":613168,"internal_node_id":"0.0-6.0-84.0"},{"sim_score":1,"rt":6967,"stimulus":"[\"img/0901/a6776381-91fe-43f8-ab73-261d318f95fd.jpg\",\"img/0875/99698b4d-b4a1-44bc-8c83-8ea755bbbf61.jpg\"]","trial_type":"similarity","trial_index":91,"time_elapsed":621151,"internal_node_id":"0.0-6.0-85.0"},{"sim_score":3,"rt":4538,"stimulus":"[\"img/0764/d7c215ab-ea9a-45be-8d5f-417d5b9a8a17.jpg\",\"img/0866/d493a2c8-66eb-44b4-be02-2f327b700b7c.jpg\"]","trial_type":"similarity","trial_index":92,"time_elapsed":626700,"internal_node_id":"0.0-6.0-86.0"},{"sim_score":4,"rt":2367,"stimulus":"[\"img/0901/d6d15b1c-4a30-4f74-a3fd-d4c8ee4169ca.jpg\",\"img/0894/3adef67d-7676-4995-80b2-bb31b8aca3ef.jpg\"]","trial_type":"similarity","trial_index":93,"time_elapsed":630081,"internal_node_id":"0.0-6.0-87.0"},{"sim_score":6,"rt":3873,"stimulus":"[\"img/0898/82231d4c-218b-4d0a-b50d-35a49b524e97.jpg\",\"img/0769/c7cfacc3-7f07-46ff-9f5d-8073f4c4679b.jpg\"]","trial_type":"similarity","trial_index":94,"time_elapsed":634967,"internal_node_id":"0.0-6.0-88.0"},{"sim_score":5,"rt":6483,"stimulus":"[\"img/0769/e8ed913b-8a88-44f6-9327-d34afec3116b.jpg\",\"img/0894/38cf335f-f76f-4349-8d65-e20cd6859565.jpg\"]","trial_type":"similarity","trial_index":95,"time_elapsed":642460,"internal_node_id":"0.0-6.0-89.0"},{"sim_score":4,"rt":11801,"stimulus":"[\"img/0862/cdaed51d-9e2f-4807-801a-4663c40077e2.jpg\",\"img/0874/85eb9b8a-c4c6-4e5a-b8e7-363a87a82054.jpg\"]","trial_type":"similarity","trial_index":96,"time_elapsed":655275,"internal_node_id":"0.0-6.0-90.0"},{"sim_score":5,"rt":5309,"stimulus":"[\"img/0894/4739e06d-c31e-4bf1-bf91-c97fa9afb456.jpg\",\"img/0766/2e1cf445-9aef-40e7-92f4-5facf48b64c5.jpg\"]","trial_type":"similarity","trial_index":97,"time_elapsed":661605,"internal_node_id":"0.0-6.0-91.0"},{"sim_score":4,"rt":8909,"stimulus":"[\"img/0874/a3bc679d-619f-4db6-bb68-116dcb757d9c.jpg\",\"img/0867/179ab87a-8eac-4c52-a41f-2e48e3120f09.jpg\"]","trial_type":"similarity","trial_index":98,"time_elapsed":671522,"internal_node_id":"0.0-6.0-92.0"},{"sim_score":1,"rt":5727,"stimulus":"[\"img/0899/00715b3f-851b-420b-a26b-d7f79f7759a9.jpg\",\"img/0868/77091fc7-a590-4ebb-b915-fdb2483a2399.jpg\"]","trial_type":"similarity","trial_index":99,"time_elapsed":678256,"internal_node_id":"0.0-6.0-93.0"},{"sim_score":1,"rt":6387,"stimulus":"[\"img/0903/3e9ee8a5-eb66-47f5-8973-8a5af1ddc87e.jpg\",\"img/0862/e8cc3bdf-cc43-4565-bccf-492626c70953.jpg\"]","trial_type":"similarity","trial_index":100,"time_elapsed":685653,"internal_node_id":"0.0-6.0-94.0"},{"sim_score":6,"rt":5903,"stimulus":"[\"img/0899/1b3457ea-87d4-4946-a01c-aac1863ed46c.jpg\",\"img/0766/aaec5f42-7f0a-4a16-aeca-488d757acbcc.jpg\"]","trial_type":"similarity","trial_index":101,"time_elapsed":692571,"internal_node_id":"0.0-6.0-95.0"},{"sim_score":6,"rt":3578,"stimulus":"[\"img/0867/f26f6b60-f772-4f4c-95a4-addc62cfd692.jpg\",\"img/0868/0d3abd3a-b6c3-4584-a9f7-e2da63748b3d.jpg\"]","trial_type":"similarity","trial_index":102,"time_elapsed":697164,"internal_node_id":"0.0-6.0-96.0"},{"sim_score":3,"rt":4363,"stimulus":"[\"img/0862/99a99e39-8355-44ec-b993-e7bcec111e1c.jpg\",\"img/0901/5b97abf9-f0c8-4fd1-b921-36d574779078.jpg\"]","trial_type":"similarity","trial_index":103,"time_elapsed":702540,"internal_node_id":"0.0-6.0-97.0"},{"sim_score":2,"rt":4155,"stimulus":"[\"img/0875/ebf7653f-ff45-4e9f-af58-2c042ab3cd2b.jpg\",\"img/0766/a0270213-fa0e-4972-8b56-228c3e01ff90.jpg\"]","trial_type":"similarity","trial_index":104,"time_elapsed":707709,"internal_node_id":"0.0-6.0-98.0"},{"sim_score":6,"rt":4591,"stimulus":"[\"img/0758/7fba58df-2a7a-4b76-8a8f-62739f97f271.jpg\",\"img/0874/995f0332-0439-4eb4-add3-957335dbf6d9.jpg\"]","trial_type":"similarity","trial_index":105,"time_elapsed":713308,"internal_node_id":"0.0-6.0-99.0"},{"sim_score":2,"rt":5075,"stimulus":"[\"img/0904/5cceabc9-de1d-4c67-989b-c28a4ef77e79.jpg\",\"img/0868/e0aff734-077f-40dd-9781-74821abd3621.jpg\"]","trial_type":"similarity","trial_index":106,"time_elapsed":719397,"internal_node_id":"0.0-6.0-100.0"},{"sim_score":1,"rt":3796,"stimulus":"[\"img/0903/f45a103c-9bfe-49fd-ad96-bdd8d2589195.jpg\",\"img/0866/f756f7d1-9ad8-4a34-9ef6-7a443d705bfe.jpg\"]","trial_type":"similarity","trial_index":107,"time_elapsed":724206,"internal_node_id":"0.0-6.0-101.0"},{"sim_score":4,"rt":5487,"stimulus":"[\"img/0868/c8ac40c7-6904-4e13-8d61-c75d3052dc4e.jpg\",\"img/0769/75f7e514-0548-4329-b1e4-93c05e74f038.jpg\"]","trial_type":"similarity","trial_index":108,"time_elapsed":730704,"internal_node_id":"0.0-6.0-102.0"},{"sim_score":6,"rt":6242,"stimulus":"[\"img/0902/12452bb1-b8c0-4e4d-ad4d-47e279e5933c.jpg\",\"img/0899/7f9d45d0-b2c6-40d3-aa41-c207db2c411b.jpg\"]","trial_type":"similarity","trial_index":109,"time_elapsed":737955,"internal_node_id":"0.0-6.0-103.0"},{"sim_score":2,"rt":6951,"stimulus":"[\"img/0868/d98ca254-b195-477f-b57e-5760a2717db8.jpg\",\"img/0862/92f0146c-20c4-482e-aef5-adb693790338.jpg\"]","trial_type":"similarity","trial_index":110,"time_elapsed":745921,"internal_node_id":"0.0-6.0-104.0"},{"sim_score":7,"rt":5521,"stimulus":"[\"img/0903/8f7f9939-b8e6-433f-93dd-b362496c80a7.jpg\",\"img/0894/43216a7f-27bc-4b5a-8841-d122a30da9d9.jpg\"]","trial_type":"similarity","trial_index":111,"time_elapsed":752458,"internal_node_id":"0.0-6.0-105.0"},{"sim_score":6,"rt":4455,"stimulus":"[\"img/0864/65210d57-1153-4657-886a-32e758f49b4a.jpg\",\"img/0874/7e4f2150-3b59-4a36-b5da-a4e0ba410531.jpg\"]","trial_type":"similarity","trial_index":112,"time_elapsed":757921,"internal_node_id":"0.0-6.0-106.0"},{"sim_score":2,"rt":7970,"stimulus":"[\"img/0862/a0a3a7ba-7798-46a3-b4ca-05e1f6e581d0.jpg\",\"img/0902/22ed3536-288b-452e-9777-0fa0ab94deb0.jpg\"]","trial_type":"similarity","trial_index":113,"time_elapsed":766901,"internal_node_id":"0.0-6.0-107.0"},{"sim_score":7,"rt":5806,"stimulus":"[\"img/0904/73920552-103b-4c9c-9ece-e0b8376b4504.jpg\",\"img/0903/70d764d9-1f35-4da7-a35d-4cc39834d270.jpg\"]","trial_type":"similarity","trial_index":114,"time_elapsed":773722,"internal_node_id":"0.0-6.0-108.0"},{"sim_score":4,"rt":2455,"stimulus":"[\"img/0764/6ef77040-1fae-4afa-bfe7-eda98e6d0376.jpg\",\"img/0864/ea327690-500b-4137-bf91-451b309fe6a5.jpg\"]","trial_type":"similarity","trial_index":115,"time_elapsed":777190,"internal_node_id":"0.0-6.0-109.0"},{"sim_score":2,"rt":6723,"stimulus":"[\"img/0866/02f5e6b9-52b7-448c-9708-5b460d0c9a23.jpg\",\"img/0894/0130a973-d993-41f8-874a-fee23d9ac11f.jpg\"]","trial_type":"similarity","trial_index":116,"time_elapsed":784931,"internal_node_id":"0.0-6.0-110.0"},{"sim_score":4,"rt":3257,"stimulus":"[\"img/0899/9de5e857-aa9a-4e0c-8ba2-46d79bd069a4.jpg\",\"img/0903/59defeb8-98bd-4570-a2f8-9bd189e68ef4.jpg\"]","trial_type":"similarity","trial_index":117,"time_elapsed":789201,"internal_node_id":"0.0-6.0-111.0"},{"sim_score":5,"rt":5684,"stimulus":"[\"img/0902/a6fb6dd5-696c-47ec-be7d-d7b88f1544f1.jpg\",\"img/0904/4d7d70a3-9477-4921-bda0-f9531d0a5c5b.jpg\"]","trial_type":"similarity","trial_index":118,"time_elapsed":795896,"internal_node_id":"0.0-6.0-112.0"},{"sim_score":4,"rt":7375,"stimulus":"[\"img/0864/e336a4c5-6648-4fd7-b2f6-93a3fb83f8c6.jpg\",\"img/0860/17b44a7d-c5ca-479f-9e87-f65a64f5c80e.jpg\"]","trial_type":"similarity","trial_index":119,"time_elapsed":804280,"internal_node_id":"0.0-6.0-113.0"},{"sim_score":3,"rt":6534,"stimulus":"[\"img/0860/c3379ff7-0763-48fe-a1ec-7ea3d611bc7a.jpg\",\"img/0899/fd9efb43-701f-4cd6-baaa-4c38315f4bdc.jpg\"]","trial_type":"similarity","trial_index":120,"time_elapsed":811824,"internal_node_id":"0.0-6.0-114.0"},{"sim_score":2,"rt":6207,"stimulus":"[\"img/0881/db77fe00-aeb0-4d1d-aa66-f3a96fd077e4.jpg\",\"img/0903/9b60ef5b-234f-4239-892b-3d4c412accc2.jpg\"]","trial_type":"similarity","trial_index":121,"time_elapsed":819048,"internal_node_id":"0.0-6.0-115.0"},{"sim_score":5,"rt":8531,"stimulus":"[\"img/0894/767a0eec-1064-46b1-b1aa-dfa02b0cd74e.jpg\",\"img/0874/2c9464dd-8a23-4baa-ac94-1ba3af5c15cc.jpg\"]","trial_type":"similarity","trial_index":122,"time_elapsed":828589,"internal_node_id":"0.0-6.0-116.0"},{"sim_score":4,"rt":2809,"stimulus":"[\"img/0881/445edb15-bd7f-4af3-8bd5-c6ad9677bb31.jpg\",\"img/0862/f23038d4-c366-4f70-979f-66b62362efa4.jpg\"]","trial_type":"similarity","trial_index":123,"time_elapsed":832411,"internal_node_id":"0.0-6.0-117.0"},{"sim_score":5,"rt":6905,"stimulus":"[\"img/0868/8b0b8473-e2c0-4331-aa56-c3a5c29369da.jpg\",\"img/0875/42910c99-5463-450a-a0f8-d4d060a11455.jpg\"]","trial_type":"similarity","trial_index":124,"time_elapsed":840326,"internal_node_id":"0.0-6.0-118.0"},{"sim_score":3,"rt":5601,"stimulus":"[\"img/0860/5383b320-1518-4095-a58e-5cc1ae30b64c.jpg\",\"img/0758/67c0be2f-9e91-48b3-8219-70ac0a1802fa.jpg\"]","trial_type":"similarity","trial_index":125,"time_elapsed":846943,"internal_node_id":"0.0-6.0-119.0"},{"sim_score":4,"rt":3673,"stimulus":"[\"img/0864/a248adb3-c70b-4652-b7a3-776d2a1e904b.jpg\",\"img/0875/03c3c331-738b-4446-af92-3d7386b08c2e.jpg\"]","trial_type":"similarity","trial_index":126,"time_elapsed":851624,"internal_node_id":"0.0-6.0-120.0"},{"sim_score":2,"rt":6503,"stimulus":"[\"img/0898/a8f16b02-e19f-423b-86c3-a36562ae1f9b.jpg\",\"img/0866/620cd1aa-0800-4414-8f6e-90342e7a99ad.jpg\"]","trial_type":"similarity","trial_index":127,"time_elapsed":859138,"internal_node_id":"0.0-6.0-121.0"},{"sim_score":2,"rt":3994,"stimulus":"[\"img/0874/ca76a855-4e77-4f2f-872a-0a718153e7ed.jpg\",\"img/0904/24fc38fe-842c-4831-ad8a-b1de5c25c0a8.jpg\"]","trial_type":"similarity","trial_index":128,"time_elapsed":864143,"internal_node_id":"0.0-6.0-122.0"},{"sim_score":1,"rt":6964,"stimulus":"[\"img/0904/9d30eff1-46ef-4453-b11e-124ef8145c00.jpg\",\"img/0864/5f33e097-23e3-4002-882d-76e8cb15f451.jpg\"]","trial_type":"similarity","trial_index":129,"time_elapsed":872117,"internal_node_id":"0.0-6.0-123.0"},{"sim_score":6,"rt":4235,"stimulus":"[\"img/0894/8cadb87a-7001-4e47-99fb-1867bebf1668.jpg\",\"img/0902/10d99c89-71f7-4c81-a31e-dfc7c59f5232.jpg\"]","trial_type":"similarity","trial_index":130,"time_elapsed":877365,"internal_node_id":"0.0-6.0-124.0"},{"sim_score":4,"rt":3435,"stimulus":"[\"img/0868/83b4350a-3b70-4cea-b7f5-b5b56f3050a8.jpg\",\"img/0864/f92649a2-0590-4d31-9a7a-1bfb81666a2d.jpg\"]","trial_type":"similarity","trial_index":131,"time_elapsed":890522,"internal_node_id":"0.0-6.0-125.0"},{"sim_score":3,"rt":4133,"stimulus":"[\"img/0899/25ae6ec8-9565-49fe-a8bb-8d0666f52716.jpg\",\"img/0866/a04d37f0-99dd-478a-b6c6-58b215138f84.jpg\"]","trial_type":"similarity","trial_index":132,"time_elapsed":895667,"internal_node_id":"0.0-6.0-126.0"},{"sim_score":3,"rt":4901,"stimulus":"[\"img/0875/90da8d75-108a-44ad-b999-e21fee3860d3.jpg\",\"img/0904/fe746a3f-8458-48d0-8a13-8cba2a9df9f8.jpg\"]","trial_type":"similarity","trial_index":133,"time_elapsed":901580,"internal_node_id":"0.0-6.0-127.0"},{"sim_score":3,"rt":3973,"stimulus":"[\"img/0867/f8159067-056c-41f1-a136-c529fe5e970a.jpg\",\"img/0899/56a605c3-d0a2-4215-89e1-779279d85a7c.jpg\"]","trial_type":"similarity","trial_index":134,"time_elapsed":906566,"internal_node_id":"0.0-6.0-128.0"},{"sim_score":1,"rt":3616,"stimulus":"[\"img/0901/00acf6c1-b66e-4060-bb04-4caf29b5a8b0.jpg\",\"img/0867/26611f4e-d694-4460-b7e2-43c62753ddc3.jpg\"]","trial_type":"similarity","trial_index":135,"time_elapsed":911201,"internal_node_id":"0.0-6.0-129.0"},{"sim_score":4,"rt":3881,"stimulus":"[\"img/0864/87c467d3-abca-482f-ad80-3766c21b1bb3.jpg\",\"img/0769/c34b7763-8ff2-46d5-9e92-f1d8f3bedbd8.jpg\"]","trial_type":"similarity","trial_index":136,"time_elapsed":916095,"internal_node_id":"0.0-6.0-130.0"},{"sim_score":2,"rt":4145,"stimulus":"[\"img/0903/150cf64c-0bd2-4674-abbb-a1387cf1f3e9.jpg\",\"img/0868/293079b8-7e0c-4afd-a390-1e5d35fe3ded.jpg\"]","trial_type":"similarity","trial_index":137,"time_elapsed":921257,"internal_node_id":"0.0-6.0-131.0"},{"sim_score":3,"rt":4644,"stimulus":"[\"img/0864/3651d070-2fc5-4848-b6a6-088a2d9ac5c9.jpg\",\"img/0867/c71dc569-f49c-4397-8381-68b8d726736d.jpg\"]","trial_type":"similarity","trial_index":138,"time_elapsed":926914,"internal_node_id":"0.0-6.0-132.0"},{"sim_score":4,"rt":2916,"stimulus":"[\"img/0901/c6df1a21-44ed-47c2-960e-7c52220e329e.jpg\",\"img/0860/4f695df5-afac-4da7-9875-fee39b0b24ad.jpg\"]","trial_type":"similarity","trial_index":139,"time_elapsed":930843,"internal_node_id":"0.0-6.0-133.0"},{"sim_score":2,"rt":3574,"stimulus":"[\"img/0881/0c7068da-d0d9-4103-bda1-74ef7a2b32c3.jpg\",\"img/0766/2da002a4-05c9-4f5c-9ed7-433b4183e273.jpg\"]","trial_type":"similarity","trial_index":140,"time_elapsed":935426,"internal_node_id":"0.0-6.0-134.0"},{"sim_score":2,"rt":4709,"stimulus":"[\"img/0903/f67c4ab9-f8c2-4fcd-848a-a54a7b031002.jpg\",\"img/0864/5f74a653-3bdc-4308-8cca-ac667dc22e1f.jpg\"]","trial_type":"similarity","trial_index":141,"time_elapsed":941143,"internal_node_id":"0.0-6.0-135.0"},{"sim_score":1,"rt":4060,"stimulus":"[\"img/0758/6cd8c362-ae2a-41eb-80a3-3a4f7ace1530.jpg\",\"img/0894/1b3888e6-cf36-4c4a-a039-187aa5cb71ac.jpg\"]","trial_type":"similarity","trial_index":142,"time_elapsed":946216,"internal_node_id":"0.0-6.0-136.0"},{"sim_score":2,"rt":4092,"stimulus":"[\"img/0769/50985283-d353-4abc-9abe-14a91d56ebe6.jpg\",\"img/0860/94ef7afc-e0e6-4a15-98c6-0bfac82bc832.jpg\"]","trial_type":"similarity","trial_index":143,"time_elapsed":951319,"internal_node_id":"0.0-6.0-137.0"},{"sim_score":6,"rt":3443,"stimulus":"[\"img/0904/2fd488e9-960f-41f7-8a44-33375f7d5051.jpg\",\"img/0766/5d6e0d1d-4369-41f0-a64c-91f3503055c7.jpg\"]","trial_type":"similarity","trial_index":144,"time_elapsed":955775,"internal_node_id":"0.0-6.0-138.0"},{"sim_score":3,"rt":4027,"stimulus":"[\"img/0868/179a5502-ab5c-478e-8263-5a1fbcc101d2.jpg\",\"img/0860/18dfed73-e36b-4487-a8bd-0b8cff8e3668.jpg\"]","trial_type":"similarity","trial_index":145,"time_elapsed":960808,"internal_node_id":"0.0-6.0-139.0"},{"sim_score":7,"rt":5422,"stimulus":"[\"img/0758/2fa3e613-e676-4e6e-bd12-705327eeb3e1.jpg\",\"img/0864/3d4de670-b290-4285-9c3d-12a0e3af44e9.jpg\"]","trial_type":"similarity","trial_index":146,"time_elapsed":967239,"internal_node_id":"0.0-6.0-140.0"},{"sim_score":7,"rt":4704,"stimulus":"[\"img/0867/7d1c497b-c1b3-4ed8-abb5-d7f73306015f.jpg\",\"img/0867/8ba0c5a7-c7e4-42cf-a80a-543763b90779.jpg\"]","trial_type":"similarity","trial_index":147,"time_elapsed":972956,"internal_node_id":"0.0-6.0-141.0"},{"sim_score":7,"rt":4952,"stimulus":"[\"img/0898/01bfe666-3510-4fc7-964f-d00d28732dc8.jpg\",\"img/0898/ec565187-2e31-4fdd-9a5c-153d0c789ae0.jpg\"]","trial_type":"similarity","trial_index":148,"time_elapsed":978918,"internal_node_id":"0.0-6.0-142.0"},{"sim_score":2,"rt":6050,"stimulus":"[\"img/0866/9b38d691-1802-4959-ab3f-fc902f0e4ea6.jpg\",\"img/0769/8598a429-c671-4d2f-842c-32f681f5e412.jpg\"]","trial_type":"similarity","trial_index":149,"time_elapsed":985984,"internal_node_id":"0.0-6.0-143.0"},{"sim_score":3,"rt":3345,"stimulus":"[\"img/0860/8fdba999-b946-4c7d-9891-336018b563ef.jpg\",\"img/0898/5f699581-3853-4547-856c-12f419ba5af7.jpg\"]","trial_type":"similarity","trial_index":150,"time_elapsed":990341,"internal_node_id":"0.0-6.0-144.0"},{"sim_score":4,"rt":3383,"stimulus":"[\"img/0766/006035d8-c736-4daf-bbe4-a9e373af9da6.jpg\",\"img/0864/da39ad34-04e0-40d4-a724-c08d53e0ea09.jpg\"]","trial_type":"similarity","trial_index":151,"time_elapsed":994738,"internal_node_id":"0.0-6.0-145.0"},{"sim_score":2,"rt":4206,"stimulus":"[\"img/0860/702bd09d-df3a-40aa-a267-5f04474305b5.jpg\",\"img/0903/0a92ec52-4e87-410a-857a-4455cde56a70.jpg\"]","trial_type":"similarity","trial_index":152,"time_elapsed":999957,"internal_node_id":"0.0-6.0-146.0"},{"sim_score":1,"rt":5112,"stimulus":"[\"img/0867/ac1797e4-8afc-48fe-b252-86d1defb1cca.jpg\",\"img/0764/c80b3e06-2ee3-4326-9678-340607eb5348.jpg\"]","trial_type":"similarity","trial_index":153,"time_elapsed":1006085,"internal_node_id":"0.0-6.0-147.0"},{"sim_score":6,"rt":5235,"stimulus":"[\"img/0769/38a88f69-28fd-4bbd-99f0-f4c02bfd3995.jpg\",\"img/0904/4b8daf2a-13a9-4ea9-9e0b-b265b6e933e7.jpg\"]","trial_type":"similarity","trial_index":154,"time_elapsed":1012328,"internal_node_id":"0.0-6.0-148.0"},{"sim_score":4,"rt":3989,"stimulus":"[\"img/0764/83c93cce-18d1-4aa7-9e23-2c268afe0a46.jpg\",\"img/0901/693e0535-ef7e-4d60-af9d-fac2f38e8307.jpg\"]","trial_type":"similarity","trial_index":155,"time_elapsed":1017342,"internal_node_id":"0.0-6.0-149.0"},{"sim_score":5,"rt":6238,"stimulus":"[\"img/0904/696ebb60-8891-417a-91fd-c53218907a95.jpg\",\"img/0899/7b7380d5-d2be-44e5-a09a-c1756f87ef71.jpg\"]","trial_type":"similarity","trial_index":156,"time_elapsed":1024592,"internal_node_id":"0.0-6.0-150.0"},{"sim_score":5,"rt":7071,"stimulus":"[\"img/0862/f188d4f0-76a4-4102-818c-a209969d73a5.jpg\",\"img/0867/1719a35d-f085-48c0-9099-16c94fe418b4.jpg\"]","trial_type":"similarity","trial_index":157,"time_elapsed":1032672,"internal_node_id":"0.0-6.0-151.0"},{"sim_score":7,"rt":4796,"stimulus":"[\"img/0766/fd064894-7147-4af5-97e9-2089d5472656.jpg\",\"img/0766/3c526a07-9e0a-4ae2-8142-00085f0127da.jpg\"]","trial_type":"similarity","trial_index":158,"time_elapsed":1038476,"internal_node_id":"0.0-6.0-152.0"},{"sim_score":4,"rt":3831,"stimulus":"[\"img/0862/847e5208-38ec-4f36-949c-296cdd7424ee.jpg\",\"img/0894/e5edf723-72a5-4673-8441-6c1734a8929b.jpg\"]","trial_type":"similarity","trial_index":159,"time_elapsed":1043322,"internal_node_id":"0.0-6.0-153.0"},{"sim_score":4,"rt":2370,"stimulus":"[\"img/0899/8abe6c69-822c-436c-9bf2-96c818b49ba5.jpg\",\"img/0901/b9141736-3041-4385-a586-b1fe911c76a5.jpg\"]","trial_type":"similarity","trial_index":160,"time_elapsed":1046704,"internal_node_id":"0.0-6.0-154.0"},{"sim_score":6,"rt":5043,"stimulus":"[\"img/0874/adf9a8f1-c40b-402b-b95b-1e85a54a7b62.jpg\",\"img/0874/99f6563c-8a8d-4c1c-a41d-667b618c3fd5.jpg\"]","trial_type":"similarity","trial_index":161,"time_elapsed":1052755,"internal_node_id":"0.0-6.0-155.0"},{"sim_score":5,"rt":4931,"stimulus":"[\"img/0860/fd4662f9-4c03-4d79-8593-06735e55a64b.jpg\",\"img/0867/de92135f-5b65-4ed9-b245-188292c7c2f8.jpg\"]","trial_type":"similarity","trial_index":162,"time_elapsed":1058692,"internal_node_id":"0.0-6.0-156.0"},{"sim_score":2,"rt":5444,"stimulus":"[\"img/0901/ae1e6ce4-2e10-4ca9-b1e7-21628637ab74.jpg\",\"img/0881/2a8413be-fec2-4de6-88ad-614dd4cccc9d.jpg\"]","trial_type":"similarity","trial_index":163,"time_elapsed":1065151,"internal_node_id":"0.0-6.0-157.0"},{"sim_score":3,"rt":5427,"stimulus":"[\"img/0903/365f176c-25a4-4973-bd3c-279bf1b39476.jpg\",\"img/0902/4e0baa32-988e-46f6-989d-f669225ab645.jpg\"]","trial_type":"similarity","trial_index":164,"time_elapsed":1071590,"internal_node_id":"0.0-6.0-158.0"},{"sim_score":3,"rt":5476,"stimulus":"[\"img/0860/8277806e-b684-4474-8f7b-3fca946d7d4f.jpg\",\"img/0764/a3226bc4-dcc3-4608-bde8-1414d685ce5c.jpg\"]","trial_type":"similarity","trial_index":165,"time_elapsed":1078078,"internal_node_id":"0.0-6.0-159.0"},{"sim_score":2,"rt":3610,"stimulus":"[\"img/0902/962f645e-9b55-4628-9b50-c703422bfe1a.jpg\",\"img/0875/d59ff733-eaff-4ee2-9443-06954dd0bcb6.jpg\"]","trial_type":"similarity","trial_index":166,"time_elapsed":1082700,"internal_node_id":"0.0-6.0-160.0"},{"sim_score":4,"rt":3366,"stimulus":"[\"img/0898/26c41340-15bd-4ead-8fe4-c0d0ddca09c2.jpg\",\"img/0862/7918ca67-5bd3-4606-a5ea-c39fb11a9297.jpg\"]","trial_type":"similarity","trial_index":167,"time_elapsed":1087082,"internal_node_id":"0.0-6.0-161.0"},{"sim_score":1,"rt":3944,"stimulus":"[\"img/0894/38f5931f-926d-414e-b498-66b188978b7a.jpg\",\"img/0875/5a716432-c6ca-4b1c-955a-2b8ac25198ee.jpg\"]","trial_type":"similarity","trial_index":168,"time_elapsed":1092040,"internal_node_id":"0.0-6.0-162.0"},{"sim_score":4,"rt":4361,"stimulus":"[\"img/0866/8efcaa46-83ab-4dee-a35f-850402aa21ae.jpg\",\"img/0864/6f631579-acf1-415c-a42c-1207f62a8d99.jpg\"]","trial_type":"similarity","trial_index":169,"time_elapsed":1097414,"internal_node_id":"0.0-6.0-163.0"},{"sim_score":2,"rt":4335,"stimulus":"[\"img/0766/0025de5e-f620-4079-8a0f-00326ff3a6b0.jpg\",\"img/0862/5d887e9f-89e2-4ebc-80a0-6d46fe6480db.jpg\"]","trial_type":"similarity","trial_index":170,"time_elapsed":1102759,"internal_node_id":"0.0-6.0-164.0"},{"sim_score":5,"rt":10786,"stimulus":"[\"img/0866/945c6710-d15b-4a5b-a8f6-69af0850357f.jpg\",\"img/0874/29830da7-be5f-44e5-b141-652a0ccf7269.jpg\"]","trial_type":"similarity","trial_index":171,"time_elapsed":1114559,"internal_node_id":"0.0-6.0-165.0"},{"sim_score":6,"rt":4754,"stimulus":"[\"img/0862/fad1d7c1-8187-43c3-942a-0fc12183e48e.jpg\",\"img/0860/e8b8c51e-1834-4875-8b61-6c5bc9b178bd.jpg\"]","trial_type":"similarity","trial_index":172,"time_elapsed":1120322,"internal_node_id":"0.0-6.0-166.0"},{"sim_score":4,"rt":4763,"stimulus":"[\"img/0766/d50d734f-285c-4840-bc7a-c8dd4aff391e.jpg\",\"img/0901/a2d7b2f6-396b-4d91-8403-de5361c74af7.jpg\"]","trial_type":"similarity","trial_index":173,"time_elapsed":1130195,"internal_node_id":"0.0-6.0-167.0"},{"sim_score":7,"rt":4141,"stimulus":"[\"img/0862/1c20f772-3a51-4a80-aac0-f57dc9f86c28.jpg\",\"img/0862/24cdc752-c2e5-4a17-86a6-6f2045d8553b.jpg\"]","trial_type":"similarity","trial_index":174,"time_elapsed":1135342,"internal_node_id":"0.0-6.0-168.0"},{"sim_score":6,"rt":6755,"stimulus":"[\"img/0894/a98416c0-51e2-4960-85da-d81d8688b9d5.jpg\",\"img/0764/a86eed5b-d0af-4c3f-8c7a-26e98e98cf1a.jpg\"]","trial_type":"similarity","trial_index":175,"time_elapsed":1143108,"internal_node_id":"0.0-6.0-169.0"},{"sim_score":1,"rt":5633,"stimulus":"[\"img/0874/3f471690-9788-4d03-90c7-f615aecef149.jpg\",\"img/0898/e167334e-cc1d-4986-b3b1-c7bc7da64baa.jpg\"]","trial_type":"similarity","trial_index":176,"time_elapsed":1149751,"internal_node_id":"0.0-6.0-170.0"},{"sim_score":3,"rt":7466,"stimulus":"[\"img/0860/c5ccd1a4-4bb7-48e1-9b25-72cfaf06909b.jpg\",\"img/0766/1865bfc9-2410-4765-a804-3ae4ba2393d0.jpg\"]","trial_type":"similarity","trial_index":177,"time_elapsed":1158240,"internal_node_id":"0.0-6.0-171.0"},{"sim_score":1,"rt":4647,"stimulus":"[\"img/0898/993d8f2d-bef7-4251-a193-0f93a32b7763.jpg\",\"img/0864/ef9cbca0-4be8-435d-ad49-977259e80409.jpg\"]","trial_type":"similarity","trial_index":178,"time_elapsed":1163896,"internal_node_id":"0.0-6.0-172.0"},{"sim_score":2,"rt":4908,"stimulus":"[\"img/0881/7e822106-76f7-4b10-a805-14dc68b2cfaf.jpg\",\"img/0764/f64dfa83-333d-494c-87b5-73e942f1766e.jpg\"]","trial_type":"similarity","trial_index":179,"time_elapsed":1169816,"internal_node_id":"0.0-6.0-173.0"},{"sim_score":1,"rt":3896,"stimulus":"[\"img/0898/881e2a85-d5c2-49be-a0c6-8a6ce2c4af08.jpg\",\"img/0868/fd307a36-9a3a-47d7-ab7c-f810d0b35040.jpg\"]","trial_type":"similarity","trial_index":180,"time_elapsed":1174720,"internal_node_id":"0.0-6.0-174.0"},{"sim_score":3,"rt":4956,"stimulus":"[\"img/0864/1d15626a-2f7c-410f-819c-0fa2c967e95e.jpg\",\"img/0864/efcfbb1b-8197-44c9-b723-40d6c608dd3c.jpg\"]","trial_type":"similarity","trial_index":181,"time_elapsed":1180688,"internal_node_id":"0.0-6.0-175.0"},{"sim_score":1,"rt":4015,"stimulus":"[\"img/0899/8de08897-b430-42fe-9d42-840670b80f94.jpg\",\"img/0862/ee3b7bff-4a70-4e84-9bea-4a565e456acb.jpg\"]","trial_type":"similarity","trial_index":182,"time_elapsed":1185710,"internal_node_id":"0.0-6.0-176.0"},{"sim_score":5,"rt":5029,"stimulus":"[\"img/0875/5a1e5100-0d94-4fec-bbe9-ca9894d2cf8e.jpg\",\"img/0758/20497cbe-ddae-489e-86e2-ab06985ed07c.jpg\"]","trial_type":"similarity","trial_index":183,"time_elapsed":1191745,"internal_node_id":"0.0-6.0-177.0"},{"sim_score":1,"rt":5494,"stimulus":"[\"img/0866/0207e9a2-7dbb-40b5-9459-b472aaeceb2a.jpg\",\"img/0901/a9b9c0a0-8aed-4888-a78a-65fb7e764d13.jpg\"]","trial_type":"similarity","trial_index":184,"time_elapsed":1198249,"internal_node_id":"0.0-6.0-178.0"},{"sim_score":4,"rt":7916,"stimulus":"[\"img/0769/8c7cf147-1780-4d5c-8ddf-5ea23ff03ac9.jpg\",\"img/0874/3ce41e7c-40c8-4d58-a546-171114521796.jpg\"]","trial_type":"similarity","trial_index":185,"time_elapsed":1207179,"internal_node_id":"0.0-6.0-179.0"},{"sim_score":6,"rt":3316,"stimulus":"[\"img/0875/fb732ab5-013a-4366-9f65-27811ed157e9.jpg\",\"img/0881/f8bd891e-aa09-4782-89db-33e7cb2b0cf1.jpg\"]","trial_type":"similarity","trial_index":186,"time_elapsed":1211504,"internal_node_id":"0.0-6.0-180.0"},{"sim_score":7,"rt":4224,"stimulus":"[\"img/0866/07c9c966-3c8d-40e7-8128-92b2acbaed5d.jpg\",\"img/0868/3a62db2d-97e9-44a3-b8e3-a48c6f0e423b.jpg\"]","trial_type":"similarity","trial_index":187,"time_elapsed":1216739,"internal_node_id":"0.0-6.0-181.0"},{"sim_score":3,"rt":4077,"stimulus":"[\"img/0899/93494f3b-d539-4075-b027-d82e344563da.jpg\",\"img/0758/d41c06bf-ebaf-454b-91c6-1a17f917b659.jpg\"]","trial_type":"similarity","trial_index":188,"time_elapsed":1221829,"internal_node_id":"0.0-6.0-182.0"},{"sim_score":5,"rt":4275,"stimulus":"[\"img/0874/a82926a3-0b43-4add-803c-d5f9ea7798ee.jpg\",\"img/0875/3ecb367d-e9eb-4826-8aaa-7aa72fb98019.jpg\"]","trial_type":"similarity","trial_index":189,"time_elapsed":1227112,"internal_node_id":"0.0-6.0-183.0"},{"sim_score":1,"rt":4879,"stimulus":"[\"img/0904/60d1a521-edf7-4696-9263-f21ac0e62a01.jpg\",\"img/0862/064818ee-13d5-4618-bb24-21c7368ea278.jpg\"]","trial_type":"similarity","trial_index":190,"time_elapsed":1233000,"internal_node_id":"0.0-6.0-184.0"},{"sim_score":4,"rt":3270,"stimulus":"[\"img/0902/31abfa33-7cdb-44ad-968e-9f7b324d577a.jpg\",\"img/0766/b84598d0-5b41-4841-88b0-b441b48289f5.jpg\"]","trial_type":"similarity","trial_index":191,"time_elapsed":1237288,"internal_node_id":"0.0-6.0-185.0"},{"sim_score":5,"rt":6362,"stimulus":"[\"img/0758/eabcd7a8-56ad-4fd2-bc24-90f6b7b33265.jpg\",\"img/0769/d1be2815-fa79-46e8-b5c3-7d81caaca490.jpg\"]","trial_type":"similarity","trial_index":192,"time_elapsed":1244662,"internal_node_id":"0.0-6.0-186.0"},{"sim_score":6,"rt":4395,"stimulus":"[\"img/0881/d1982897-8d8d-4704-a940-1ee5d07a1f15.jpg\",\"img/0881/ed4c971f-0873-4fc8-b6d6-e8bbd82f0bcc.jpg\"]","trial_type":"similarity","trial_index":193,"time_elapsed":1250072,"internal_node_id":"0.0-6.0-187.0"},{"sim_score":5,"rt":3556,"stimulus":"[\"img/0758/e38fd80d-18d0-42f3-b848-f930788e8bd7.jpg\",\"img/0866/6f2a90d7-14f1-4f1b-bd64-fc0af6b9fe44.jpg\"]","trial_type":"similarity","trial_index":194,"time_elapsed":1254634,"internal_node_id":"0.0-6.0-188.0"},{"sim_score":5,"rt":8180,"stimulus":"[\"img/0764/56441045-b648-4ede-9632-3e9c0227080b.jpg\",\"img/0898/224c1572-56b9-4f16-a9e4-6f3bc9c114bd.jpg\"]","trial_type":"similarity","trial_index":195,"time_elapsed":1263824,"internal_node_id":"0.0-6.0-189.0"},{"sim_score":5,"rt":3892,"stimulus":"[\"img/0903/b0a3c45f-467e-412f-a183-c9c1827f2e63.jpg\",\"img/0901/1b86f2fc-7a1d-4aa8-9252-114f92edef3b.jpg\"]","trial_type":"similarity","trial_index":196,"time_elapsed":1268726,"internal_node_id":"0.0-6.0-190.0"},{"sim_score":7,"rt":3958,"stimulus":"[\"img/0902/d3e55000-c839-4bf9-9b9b-4af0a9925af1.jpg\",\"img/0898/6cd3830b-d44e-4915-be2b-88d31424b91c.jpg\"]","trial_type":"similarity","trial_index":197,"time_elapsed":1273701,"internal_node_id":"0.0-6.0-191.0"},{"sim_score":2,"rt":7112,"stimulus":"[\"img/0864/6e846d43-94a6-4b37-a268-65eda979f052.jpg\",\"img/0901/4d1bed7e-3c4e-4f6c-ada9-4beb66ba9e39.jpg\"]","trial_type":"similarity","trial_index":198,"time_elapsed":1281824,"internal_node_id":"0.0-6.0-192.0"},{"sim_score":1,"rt":4400,"stimulus":"[\"img/0894/86201968-6e78-4d68-9b3a-d1692e066210.jpg\",\"img/0881/4da99fdd-1f40-4bbb-8e21-8833eef313f5.jpg\"]","trial_type":"similarity","trial_index":199,"time_elapsed":1287234,"internal_node_id":"0.0-6.0-193.0"},{"sim_score":7,"rt":3893,"stimulus":"[\"img/0868/4a8a45ed-2c4f-421b-9564-409a33ecd26c.jpg\",\"img/0868/7b212364-ff5f-4e28-9241-7eb6ea00161b.jpg\"]","trial_type":"similarity","trial_index":200,"time_elapsed":1292139,"internal_node_id":"0.0-6.0-194.0"},{"sim_score":6,"rt":4240,"stimulus":"[\"img/0899/fef567a2-c121-4481-9af0-ff108d199bbf.jpg\",\"img/0764/fb92924f-5cfe-4b89-b130-0cce8cc5636b.jpg\"]","trial_type":"similarity","trial_index":201,"time_elapsed":1297393,"internal_node_id":"0.0-6.0-195.0"},{"sim_score":3,"rt":6053,"stimulus":"[\"img/0881/54ea8e77-c7e5-4197-b7fa-00b7020849a7.jpg\",\"img/0904/b7c2a2c8-df33-4473-b3d4-ff7147c60db3.jpg\"]","trial_type":"similarity","trial_index":202,"time_elapsed":1304463,"internal_node_id":"0.0-6.0-196.0"},{"sim_score":1,"rt":3425,"stimulus":"[\"img/0864/c22faebd-9c53-47bc-ada3-b9a30c688e75.jpg\",\"img/0902/cdec1bc6-7f90-4f72-9e01-f5a4111bac1d.jpg\"]","trial_type":"similarity","trial_index":203,"time_elapsed":1308898,"internal_node_id":"0.0-6.0-197.0"},{"sim_score":7,"rt":3645,"stimulus":"[\"img/0894/5c7677b0-a4f1-479e-b274-7822c415175a.jpg\",\"img/0904/09934646-45d2-4147-8fec-64a22a5ac822.jpg\"]","trial_type":"similarity","trial_index":204,"time_elapsed":1313556,"internal_node_id":"0.0-6.0-198.0"},{"sim_score":7,"rt":3881,"stimulus":"[\"img/0901/b123d109-47b4-4f9a-80c9-9bb16da42efa.jpg\",\"img/0901/12da1841-e611-435c-9719-109413d536a8.jpg\"]","trial_type":"similarity","trial_index":205,"time_elapsed":1318449,"internal_node_id":"0.0-6.0-199.0"},{"sim_score":1,"rt":3960,"stimulus":"[\"img/0894/05161000-f476-499b-a878-c13c7f347fd9.jpg\",\"img/0860/b03b963d-949b-4d8d-b19c-4950c89eeca2.jpg\"]","trial_type":"similarity","trial_index":206,"time_elapsed":1323420,"internal_node_id":"0.0-6.0-200.0"},{"sim_score":7,"rt":5171,"stimulus":"[\"img/0898/79233891-305a-4a6a-8ddf-5c8604858203.jpg\",\"img/0903/8931c67c-a43d-47d3-a4c9-42aa2f81d344.jpg\"]","trial_type":"similarity","trial_index":207,"time_elapsed":1329604,"internal_node_id":"0.0-6.0-201.0"},{"sim_score":3,"rt":4910,"stimulus":"[\"img/0864/9b2490c5-a282-400a-9736-e1a0ecbf1cb7.jpg\",\"img/0894/5a49e858-2850-4892-9a06-e9f0efb5f94d.jpg\"]","trial_type":"similarity","trial_index":208,"time_elapsed":1335522,"internal_node_id":"0.0-6.0-202.0"},{"sim_score":3,"rt":6933,"stimulus":"[\"img/0874/93d1f8dc-acf2-4f03-bd8d-8ec35df276ed.jpg\",\"img/0860/9593362c-9fe5-4d12-9735-6000a11f6aa5.jpg\"]","trial_type":"similarity","trial_index":209,"time_elapsed":1343463,"internal_node_id":"0.0-6.0-203.0"},{"sim_score":4,"rt":2426,"stimulus":"[\"img/0862/d0ca4c78-fc35-46ed-bdcc-8e124283c53e.jpg\",\"img/0875/8521fd58-3b1e-4dc5-97ae-804edfa6734a.jpg\"]","trial_type":"similarity","trial_index":210,"time_elapsed":1346901,"internal_node_id":"0.0-6.0-204.0"},{"sim_score":5,"rt":3766,"stimulus":"[\"img/0867/6e19c858-b606-45b2-a4c6-910a73f1d82c.jpg\",\"img/0881/d373cb9f-a719-4549-a2a4-82def79fb2a5.jpg\"]","trial_type":"similarity","trial_index":211,"time_elapsed":1351677,"internal_node_id":"0.0-6.0-205.0"},{"sim_score":7,"rt":4353,"stimulus":"[\"img/0901/fb0a8e69-7f19-4e6e-a6bb-a48f97f9b4f3.jpg\",\"img/0902/0eb85fbc-27c8-41df-9d0b-a5f9efd417d1.jpg\"]","trial_type":"similarity","trial_index":212,"time_elapsed":1357039,"internal_node_id":"0.0-6.0-206.0"},{"sim_score":2,"rt":4754,"stimulus":"[\"img/0899/0e1d936a-dbe2-4afc-9f19-7b7a1ae6c9ed.jpg\",\"img/0864/66091c27-e588-4476-8af9-265dc6be4156.jpg\"]","trial_type":"similarity","trial_index":213,"time_elapsed":1362803,"internal_node_id":"0.0-6.0-207.0"},{"sim_score":1,"rt":3123,"stimulus":"[\"img/0901/04a53755-6da5-44d4-a7a6-48a6bc0a2280.jpg\",\"img/0769/14d393ce-e5be-4ca1-86ce-cc27d4b6074c.jpg\"]","trial_type":"similarity","trial_index":214,"time_elapsed":1366935,"internal_node_id":"0.0-6.0-208.0"},{"sim_score":6,"rt":4631,"stimulus":"[\"img/0902/44cd9b7e-fdfb-4f78-90de-8d4c9d279365.jpg\",\"img/0902/cf9dee9c-2bdf-4d64-9302-97f1660fe52c.jpg\"]","trial_type":"similarity","trial_index":215,"time_elapsed":1376350,"internal_node_id":"0.0-6.0-209.0"},{"view_history":"[{\"page_index\":0,\"viewing_time\":2305}]","rt":2307,"trial_type":"instructions","trial_index":216,"time_elapsed":1379658,"internal_node_id":"0.0-7.0"},{"rt":13719,"responses":"{\"Q0\":\"Nashville Warbler\"}","answer":["Nashville Warbler"],"trial_type":"image-multi-choice","trial_index":217,"time_elapsed":1394437,"internal_node_id":"0.0-8.0-0.0"},{"rt":6448,"responses":"{\"Q0\":\"Black-and-white Warbler\"}","answer":["Black-and-white Warbler"],"trial_type":"image-multi-choice","trial_index":218,"time_elapsed":1401928,"internal_node_id":"0.0-8.0-1.0"},{"rt":6102,"responses":"{\"Q0\":\"Magnolia Warbler\"}","answer":["Townsend's Warbler"],"trial_type":"image-multi-choice","trial_index":219,"time_elapsed":1409069,"internal_node_id":"0.0-8.0-2.0"},{"rt":10518,"responses":"{\"Q0\":\"Lark Sparrow\"}","answer":["Lark Sparrow"],"trial_type":"image-multi-choice","trial_index":220,"time_elapsed":1420616,"internal_node_id":"0.0-8.0-3.0"},{"rt":4813,"responses":"{\"Q0\":\"Yellow Warbler\"}","answer":["Yellow Warbler"],"trial_type":"image-multi-choice","trial_index":221,"time_elapsed":1426467,"internal_node_id":"0.0-8.0-4.0"},{"rt":9434,"responses":"{\"Q0\":\"Tennessee Warbler\"}","answer":["Orange-crowned Warbler"],"trial_type":"image-multi-choice","trial_index":222,"time_elapsed":1436940,"internal_node_id":"0.0-8.0-5.0"},{"rt":8274,"responses":"{\"Q0\":\"White-throated Sparrow\"}","answer":["White-throated Sparrow"],"trial_type":"image-multi-choice","trial_index":223,"time_elapsed":1446251,"internal_node_id":"0.0-8.0-6.0"},{"rt":4555,"responses":"{\"Q0\":\"Fox Sparrow\"}","answer":["Fox Sparrow"],"trial_type":"image-multi-choice","trial_index":224,"time_elapsed":1451849,"internal_node_id":"0.0-8.0-7.0"},{"rt":4671,"responses":"{\"Q0\":\"Swamp Sparrow\"}","answer":["Song Sparrow"],"trial_type":"image-multi-choice","trial_index":225,"time_elapsed":1457555,"internal_node_id":"0.0-8.0-8.0"},{"rt":6243,"responses":"{\"Q0\":\"Blackburnian Warbler\"}","answer":["Blackburnian Warbler"],"trial_type":"image-multi-choice","trial_index":226,"time_elapsed":1464833,"internal_node_id":"0.0-8.0-9.0"},{"rt":7574,"responses":"{\"Q0\":\"Vesper Sparrow\"}","answer":["Vesper Sparrow"],"trial_type":"image-multi-choice","trial_index":227,"time_elapsed":1473440,"internal_node_id":"0.0-8.0-10.0"},{"rt":4381,"responses":"{\"Q0\":\"White-crowned Sparrow\"}","answer":["White-crowned Sparrow"],"trial_type":"image-multi-choice","trial_index":228,"time_elapsed":1478852,"internal_node_id":"0.0-8.0-11.0"},{"rt":6120,"responses":"{\"Q0\":\"American Tree Sparrow\"}","answer":["American Tree Sparrow"],"trial_type":"image-multi-choice","trial_index":229,"time_elapsed":1486014,"internal_node_id":"0.0-8.0-12.0"},{"rt":6459,"responses":"{\"Q0\":\"Orange-crowned Warbler\"}","answer":["Tennessee Warbler"],"trial_type":"image-multi-choice","trial_index":230,"time_elapsed":1493507,"internal_node_id":"0.0-8.0-13.0"},{"rt":14750,"responses":"{\"Q0\":\"Magnolia Warbler\"}","answer":["Magnolia Warbler"],"trial_type":"image-multi-choice","trial_index":231,"time_elapsed":1509294,"internal_node_id":"0.0-8.0-14.0"},{"rt":4486,"responses":"{\"Q0\":\"Northern Waterthrush\"}","answer":["Northern Waterthrush"],"trial_type":"image-multi-choice","trial_index":232,"time_elapsed":1514834,"internal_node_id":"0.0-8.0-15.0"},{"rt":9416,"responses":"{\"Q0\":\"Chipping Sparrow\"}","answer":["Chipping Sparrow"],"trial_type":"image-multi-choice","trial_index":233,"time_elapsed":1525288,"internal_node_id":"0.0-8.0-16.0"},{"rt":7818,"responses":"{\"Q0\":\"Lincoln's Sparrow\"}","answer":["Swamp Sparrow"],"trial_type":"image-multi-choice","trial_index":234,"time_elapsed":1534168,"internal_node_id":"0.0-8.0-17.0"},{"rt":11450,"responses":"{\"Q0\":\"Swamp Sparrow\"}","answer":["Lincoln's Sparrow"],"trial_type":"image-multi-choice","trial_index":235,"time_elapsed":1546654,"internal_node_id":"0.0-8.0-18.0"},{"rt":4075,"responses":"{\"Q0\":\"Ovenbird\"}","answer":["Ovenbird"],"trial_type":"image-multi-choice","trial_index":236,"time_elapsed":1551773,"internal_node_id":"0.0-8.0-19.0"}]