[{"view_history":"[{\"page_index\":0,\"viewing_time\":25558}]","rt":25559,"trial_type":"instructions","trial_index":0,"time_elapsed":25559,"internal_node_id":"0.0-0.0"},{"sim_score":6,"rt":10806,"stimulus":"[\"img/866.jpg\",\"img/868.jpg\"]","trial_type":"similarity_demo","trial_index":1,"time_elapsed":37371,"internal_node_id":"0.0-1.0"},{"view_history":"[{\"page_index\":0,\"viewing_time\":11147}]","rt":11147,"trial_type":"instructions","trial_index":2,"time_elapsed":49519,"internal_node_id":"0.0-2.0"},{"sim_score":1,"rt":9212,"stimulus":"[\"img/766.jpg\",\"img/867.jpg\"]","trial_type":"similarity_demo","trial_index":3,"time_elapsed":59736,"internal_node_id":"0.0-3.0"},{"view_history":"[{\"page_index\":0,\"viewing_time\":5872}]","rt":5872,"trial_type":"instructions","trial_index":4,"time_elapsed":66608,"internal_node_id":"0.0-4.0"},{"view_history":"[{\"page_index\":0,\"viewing_time\":89236}]","rt":89236,"trial_type":"instructions","trial_index":5,"time_elapsed":156845,"internal_node_id":"0.0-5.0"},{"sim_score":5,"rt":14432,"stimulus":"[\"img/0868/6a28c3b0-3d76-498a-9fb7-ddafc665eca8.jpg\",\"img/0901/71e551a2-9ce2-409c-9c7c-dd556a0791e9.jpg\"]","trial_type":"similarity","trial_index":6,"time_elapsed":172282,"internal_node_id":"0.0-6.0-0.0"},{"sim_score":2,"rt":15826,"stimulus":"[\"img/0769/da36e3f7-2337-434f-ab57-11822dd7eed7.jpg\",\"img/0867/f26f6b60-f772-4f4c-95a4-addc62cfd692.jpg\"]","trial_type":"similarity","trial_index":7,"time_elapsed":189111,"internal_node_id":"0.0-6.0-1.0"},{"sim_score":1,"rt":10054,"stimulus":"[\"img/0766/3c526a07-9e0a-4ae2-8142-00085f0127da.jpg\",\"img/0898/ec565187-2e31-4fdd-9a5c-153d0c789ae0.jpg\"]","trial_type":"similarity","trial_index":8,"time_elapsed":200170,"internal_node_id":"0.0-6.0-2.0"},{"sim_score":5,"rt":5634,"stimulus":"[\"img/0902/aa6fca32-82b0-4414-b20a-8f6f8aa5a2d2.jpg\",\"img/0881/19e82c47-8e4b-45d2-a6c8-74181eb4155e.jpg\"]","trial_type":"similarity","trial_index":9,"time_elapsed":206807,"internal_node_id":"0.0-6.0-3.0"},{"sim_score":1,"rt":4475,"stimulus":"[\"img/0894/b422d5c6-3c5a-49ae-a53e-7e88ac993f49.jpg\",\"img/0894/133a1636-d123-4893-873c-1718050f832a.jpg\"]","trial_type":"similarity","trial_index":10,"time_elapsed":212286,"internal_node_id":"0.0-6.0-4.0"},{"sim_score":6,"rt":4824,"stimulus":"[\"img/0874/3ce41e7c-40c8-4d58-a546-171114521796.jpg\",\"img/0899/a048912c-b12c-40e3-90af-46b69b0cc4fe.jpg\"]","trial_type":"similarity","trial_index":11,"time_elapsed":218113,"internal_node_id":"0.0-6.0-5.0"},{"sim_score":5,"rt":5904,"stimulus":"[\"img/0904/b5855d6a-7ef9-46ca-9215-6e9fa046e543.jpg\",\"img/0764/03c07b98-3f18-4b71-bb70-ecff564a78d1.jpg\"]","trial_type":"similarity","trial_index":12,"time_elapsed":225021,"internal_node_id":"0.0-6.0-6.0"},{"sim_score":5,"rt":4194,"stimulus":"[\"img/0899/51a7a498-98c7-42d7-bca8-bc2d8f0b5831.jpg\",\"img/0898/e167334e-cc1d-4986-b3b1-c7bc7da64baa.jpg\"]","trial_type":"similarity","trial_index":13,"time_elapsed":230218,"internal_node_id":"0.0-6.0-7.0"},{"sim_score":2,"rt":4565,"stimulus":"[\"img/0874/eba003b4-cdab-4eee-8bc3-f064c7d94165.jpg\",\"img/0903/f45a103c-9bfe-49fd-ad96-bdd8d2589195.jpg\"]","trial_type":"similarity","trial_index":14,"time_elapsed":235787,"internal_node_id":"0.0-6.0-8.0"},{"sim_score":5,"rt":4385,"stimulus":"[\"img/0881/adc02f34-ce97-4aef-850f-00519df06fd7.jpg\",\"img/0758/20497cbe-ddae-489e-86e2-ab06985ed07c.jpg\"]","trial_type":"similarity","trial_index":15,"time_elapsed":241176,"internal_node_id":"0.0-6.0-9.0"},{"sim_score":6,"rt":3665,"stimulus":"[\"img/0898/40f99fb2-64d2-4e72-8a7f-a1cf60741e69.jpg\",\"img/0901/12da1841-e611-435c-9719-109413d536a8.jpg\"]","trial_type":"similarity","trial_index":16,"time_elapsed":245845,"internal_node_id":"0.0-6.0-10.0"},{"sim_score":6,"rt":4746,"stimulus":"[\"img/0903/43ffd882-077a-40dd-a264-e58d519420a1.jpg\",\"img/0769/878531fd-e0e8-4ad1-b9ad-f018bb104ca0.jpg\"]","trial_type":"similarity","trial_index":17,"time_elapsed":251594,"internal_node_id":"0.0-6.0-11.0"},{"sim_score":2,"rt":4059,"stimulus":"[\"img/0764/55b3fab1-b809-4d38-a461-3f40ce062f52.jpg\",\"img/0868/fd307a36-9a3a-47d7-ab7c-f810d0b35040.jpg\"]","trial_type":"similarity","trial_index":18,"time_elapsed":256656,"internal_node_id":"0.0-6.0-12.0"},{"sim_score":6,"rt":4273,"stimulus":"[\"img/0867/50a1b60e-3a29-44bf-b606-d4bd3746fea9.jpg\",\"img/0903/3e9ee8a5-eb66-47f5-8973-8a5af1ddc87e.jpg\"]","trial_type":"similarity","trial_index":19,"time_elapsed":261932,"internal_node_id":"0.0-6.0-13.0"},{"sim_score":6,"rt":4385,"stimulus":"[\"img/0766/0025de5e-f620-4079-8a0f-00326ff3a6b0.jpg\",\"img/0758/7fba58df-2a7a-4b76-8a8f-62739f97f271.jpg\"]","trial_type":"similarity","trial_index":20,"time_elapsed":267321,"internal_node_id":"0.0-6.0-14.0"},{"sim_score":7,"rt":3406,"stimulus":"[\"img/0902/9f543501-3cf1-45a7-a2f1-eeca87cc15b9.jpg\",\"img/0860/8a92e21b-6a32-4e4a-a445-2d5a487ed0a4.jpg\"]","trial_type":"similarity","trial_index":21,"time_elapsed":271731,"internal_node_id":"0.0-6.0-15.0"},{"sim_score":5,"rt":5511,"stimulus":"[\"img/0769/bb8c4e53-6f32-4814-97ee-392d4decfb2e.jpg\",\"img/0875/42910c99-5463-450a-a0f8-d4d060a11455.jpg\"]","trial_type":"similarity","trial_index":22,"time_elapsed":278245,"internal_node_id":"0.0-6.0-16.0"},{"sim_score":2,"rt":11349,"stimulus":"[\"img/0904/96e503ea-6630-4996-85f2-0237688ce441.jpg\",\"img/0866/945c6710-d15b-4a5b-a8f6-69af0850357f.jpg\"]","trial_type":"similarity","trial_index":23,"time_elapsed":290597,"internal_node_id":"0.0-6.0-17.0"},{"sim_score":6,"rt":4251,"stimulus":"[\"img/0875/cff79b3a-a797-4393-9757-6275f999ec04.jpg\",\"img/0875/e7e66b13-b573-431e-b85e-288ce04a35a3.jpg\"]","trial_type":"similarity","trial_index":24,"time_elapsed":295851,"internal_node_id":"0.0-6.0-18.0"},{"sim_score":7,"rt":5759,"stimulus":"[\"img/0758/3ddd05d3-557e-4ee7-8b78-9d2d681d8ae2.jpg\",\"img/0758/67c0be2f-9e91-48b3-8219-70ac0a1802fa.jpg\"]","trial_type":"similarity","trial_index":25,"time_elapsed":302613,"internal_node_id":"0.0-6.0-19.0"},{"sim_score":6,"rt":4846,"stimulus":"[\"img/0902/22ed3536-288b-452e-9777-0fa0ab94deb0.jpg\",\"img/0874/3f471690-9788-4d03-90c7-f615aecef149.jpg\"]","trial_type":"similarity","trial_index":26,"time_elapsed":308462,"internal_node_id":"0.0-6.0-20.0"},{"sim_score":6,"rt":5792,"stimulus":"[\"img/0764/7f4ee8e3-9315-4a57-be7d-db8454b33766.jpg\",\"img/0769/8056889f-2b14-4782-bb25-b4e8896ab65b.jpg\"]","trial_type":"similarity","trial_index":27,"time_elapsed":315257,"internal_node_id":"0.0-6.0-21.0"},{"sim_score":5,"rt":7244,"stimulus":"[\"img/0901/b453df0b-4c39-49bb-8ced-6127efffa898.jpg\",\"img/0874/995f0332-0439-4eb4-add3-957335dbf6d9.jpg\"]","trial_type":"similarity","trial_index":28,"time_elapsed":323504,"internal_node_id":"0.0-6.0-22.0"},{"sim_score":6,"rt":4487,"stimulus":"[\"img/0875/a4935837-7d3c-4df6-88c1-36a94d4991ca.jpg\",\"img/0903/0a92ec52-4e87-410a-857a-4455cde56a70.jpg\"]","trial_type":"similarity","trial_index":29,"time_elapsed":328994,"internal_node_id":"0.0-6.0-23.0"},{"sim_score":3,"rt":4386,"stimulus":"[\"img/0769/3adfa417-3b90-4aab-b437-5eaa474189cb.jpg\",\"img/0881/4da99fdd-1f40-4bbb-8e21-8833eef313f5.jpg\"]","trial_type":"similarity","trial_index":30,"time_elapsed":334382,"internal_node_id":"0.0-6.0-24.0"},{"sim_score":3,"rt":4025,"stimulus":"[\"img/0867/5e07b34d-b40f-4b1c-ac10-49975bace45f.jpg\",\"img/0904/73920552-103b-4c9c-9ece-e0b8376b4504.jpg\"]","trial_type":"similarity","trial_index":31,"time_elapsed":339411,"internal_node_id":"0.0-6.0-25.0"},{"sim_score":6,"rt":5184,"stimulus":"[\"img/0860/94ef7afc-e0e6-4a15-98c6-0bfac82bc832.jpg\",\"img/0881/b1a136f7-8511-4d3a-a0f6-3879acf1e1a1.jpg\"]","trial_type":"similarity","trial_index":32,"time_elapsed":345599,"internal_node_id":"0.0-6.0-26.0"},{"sim_score":7,"rt":6310,"stimulus":"[\"img/0866/d493a2c8-66eb-44b4-be02-2f327b700b7c.jpg\",\"img/0866/8efcaa46-83ab-4dee-a35f-850402aa21ae.jpg\"]","trial_type":"similarity","trial_index":33,"time_elapsed":352912,"internal_node_id":"0.0-6.0-27.0"},{"sim_score":6,"rt":5769,"stimulus":"[\"img/0764/f64dfa83-333d-494c-87b5-73e942f1766e.jpg\",\"img/0862/847e5208-38ec-4f36-949c-296cdd7424ee.jpg\"]","trial_type":"similarity","trial_index":34,"time_elapsed":359684,"internal_node_id":"0.0-6.0-28.0"},{"sim_score":6,"rt":4171,"stimulus":"[\"img/0904/63dd06dd-dccb-47ba-9740-eb33239e18a7.jpg\",\"img/0758/61d64021-9214-4951-bdf8-f871f9827cf9.jpg\"]","trial_type":"similarity","trial_index":35,"time_elapsed":364859,"internal_node_id":"0.0-6.0-29.0"},{"sim_score":6,"rt":4059,"stimulus":"[\"img/0894/1b3888e6-cf36-4c4a-a039-187aa5cb71ac.jpg\",\"img/0899/66bf4113-ee12-426c-84d2-ea410b6c803e.jpg\"]","trial_type":"similarity","trial_index":36,"time_elapsed":369922,"internal_node_id":"0.0-6.0-30.0"},{"sim_score":6,"rt":5240,"stimulus":"[\"img/0860/4a022222-056d-461c-ab02-39fac9647552.jpg\",\"img/0904/9dd5708f-3f8b-46a9-b49f-2f2fab87b357.jpg\"]","trial_type":"similarity","trial_index":37,"time_elapsed":376165,"internal_node_id":"0.0-6.0-31.0"},{"sim_score":7,"rt":3901,"stimulus":"[\"img/0874/8cdb1c07-1c32-46d2-981c-3636560fa6e5.jpg\",\"img/0881/44e09805-5a25-4f17-a716-4ad4a331b174.jpg\"]","trial_type":"similarity","trial_index":38,"time_elapsed":381070,"internal_node_id":"0.0-6.0-32.0"},{"sim_score":6,"rt":5680,"stimulus":"[\"img/0881/48ed65a5-471f-41af-86ec-3793805c116d.jpg\",\"img/0899/06b0fc99-0581-461a-9913-d1a5a941ac61.jpg\"]","trial_type":"similarity","trial_index":39,"time_elapsed":387753,"internal_node_id":"0.0-6.0-33.0"},{"sim_score":2,"rt":3981,"stimulus":"[\"img/0866/23a224f3-2012-4fc8-8e0f-3c36f8de27fd.jpg\",\"img/0862/e0f1a4e9-e1b6-45f7-af67-89f334e6630d.jpg\"]","trial_type":"similarity","trial_index":40,"time_elapsed":392737,"internal_node_id":"0.0-6.0-34.0"},{"sim_score":2,"rt":3722,"stimulus":"[\"img/0868/83b4350a-3b70-4cea-b7f5-b5b56f3050a8.jpg\",\"img/0894/1a010553-d598-4b06-a772-81f1e7b3addb.jpg\"]","trial_type":"similarity","trial_index":41,"time_elapsed":397462,"internal_node_id":"0.0-6.0-35.0"},{"sim_score":7,"rt":6230,"stimulus":"[\"img/0860/b03b963d-949b-4d8d-b19c-4950c89eeca2.jpg\",\"img/0860/fd4662f9-4c03-4d79-8593-06735e55a64b.jpg\"]","trial_type":"similarity","trial_index":42,"time_elapsed":404695,"internal_node_id":"0.0-6.0-36.0"},{"sim_score":6,"rt":6828,"stimulus":"[\"img/0862/5d887e9f-89e2-4ebc-80a0-6d46fe6480db.jpg\",\"img/0864/4bd81bc6-c13d-46df-95a9-485886dc7c1b.jpg\"]","trial_type":"similarity","trial_index":43,"time_elapsed":412527,"internal_node_id":"0.0-6.0-37.0"},{"sim_score":3,"rt":6994,"stimulus":"[\"img/0766/6d32752d-aa05-40dc-9541-640b6e9d6fa1.jpg\",\"img/0866/11a1d141-be5e-443c-98c1-a9d4d9e3dec0.jpg\"]","trial_type":"similarity","trial_index":44,"time_elapsed":420525,"internal_node_id":"0.0-6.0-38.0"},{"sim_score":1,"rt":9009,"stimulus":"[\"img/0875/5a7c4e35-6514-4e12-8879-d16071da4cd6.jpg\",\"img/0898/a8f16b02-e19f-423b-86c3-a36562ae1f9b.jpg\"]","trial_type":"similarity","trial_index":45,"time_elapsed":430537,"internal_node_id":"0.0-6.0-39.0"},{"sim_score":6,"rt":3889,"stimulus":"[\"img/0766/ba35c0fc-4d5b-490d-959e-c94b279cdd02.jpg\",\"img/0769/76eaa4a3-dfe9-4dc1-9efb-caebe86264e1.jpg\"]","trial_type":"similarity","trial_index":46,"time_elapsed":435430,"internal_node_id":"0.0-6.0-40.0"},{"sim_score":5,"rt":4836,"stimulus":"[\"img/0874/767f289c-9814-4496-803f-745cc8913d1f.jpg\",\"img/0764/50f1b062-d608-4bc0-ab25-b872dcf2ed93.jpg\"]","trial_type":"similarity","trial_index":47,"time_elapsed":484154,"internal_node_id":"0.0-6.0-41.0"},{"sim_score":1,"rt":4588,"stimulus":"[\"img/0868/0d3abd3a-b6c3-4584-a9f7-e2da63748b3d.jpg\",\"img/0902/3b243e54-0803-4c29-af42-4037c2118495.jpg\"]","trial_type":"similarity","trial_index":48,"time_elapsed":489746,"internal_node_id":"0.0-6.0-42.0"},{"sim_score":1,"rt":11990,"stimulus":"[\"img/0875/f87b67d7-c33e-40d1-b281-248c4be1cb6e.jpg\",\"img/0899/25ae6ec8-9565-49fe-a8bb-8d0666f52716.jpg\"]","trial_type":"similarity","trial_index":49,"time_elapsed":502740,"internal_node_id":"0.0-6.0-43.0"},{"sim_score":1,"rt":4115,"stimulus":"[\"img/0866/bf14b5bd-fb55-47db-86b9-4f8aeb9a6dad.jpg\",\"img/0860/5383b320-1518-4095-a58e-5cc1ae30b64c.jpg\"]","trial_type":"similarity","trial_index":50,"time_elapsed":507859,"internal_node_id":"0.0-6.0-44.0"},{"sim_score":5,"rt":7456,"stimulus":"[\"img/0766/91fc8c4d-862f-4d2b-b1a1-2db8d729b6b7.jpg\",\"img/0903/b0df4094-a3be-4b5b-81bd-8d260f13f61b.jpg\"]","trial_type":"similarity","trial_index":51,"time_elapsed":516318,"internal_node_id":"0.0-6.0-45.0"},{"sim_score":5,"rt":11282,"stimulus":"[\"img/0901/bc47e078-bda4-40ed-b89a-bbd819164b95.jpg\",\"img/0904/4e58005d-a2ec-4aaa-b199-445343561396.jpg\"]","trial_type":"similarity","trial_index":52,"time_elapsed":528603,"internal_node_id":"0.0-6.0-46.0"},{"sim_score":1,"rt":13700,"stimulus":"[\"img/0758/caa93da2-9edf-49fa-96b9-32dedd8f5078.jpg\",\"img/0902/3f0eeac5-c996-4026-a376-563ce8f28521.jpg\"]","trial_type":"similarity","trial_index":53,"time_elapsed":543307,"internal_node_id":"0.0-6.0-47.0"},{"sim_score":7,"rt":5229,"stimulus":"[\"img/0764/f990b2e8-ecee-481e-be7c-0239fce350e2.jpg\",\"img/0764/1def7b22-b054-4ec2-860b-73d25691823b.jpg\"]","trial_type":"similarity","trial_index":54,"time_elapsed":549540,"internal_node_id":"0.0-6.0-48.0"},{"sim_score":1,"rt":5567,"stimulus":"[\"img/0866/9b38d691-1802-4959-ab3f-fc902f0e4ea6.jpg\",\"img/0902/af45fe42-178c-4c1a-99ef-256e87e3b092.jpg\"]","trial_type":"similarity","trial_index":55,"time_elapsed":556110,"internal_node_id":"0.0-6.0-49.0"},{"sim_score":5,"rt":6759,"stimulus":"[\"img/0764/39a9fc7e-b863-432c-9374-de43983f31a5.jpg\",\"img/0758/e1ba5e53-addc-436a-b428-d34fc1b130dc.jpg\"]","trial_type":"similarity","trial_index":56,"time_elapsed":563872,"internal_node_id":"0.0-6.0-50.0"},{"sim_score":7,"rt":4970,"stimulus":"[\"img/0898/c3cecf20-f7fd-45fa-97d0-dc0a63e8d6c0.jpg\",\"img/0894/a3d4170b-b7d8-40e3-955f-87e76ed745fc.jpg\"]","trial_type":"similarity","trial_index":57,"time_elapsed":569846,"internal_node_id":"0.0-6.0-51.0"},{"sim_score":1,"rt":6106,"stimulus":"[\"img/0875/dbdd643e-6d0e-4a5c-ab57-b9c29b9c981a.jpg\",\"img/0866/02f5e6b9-52b7-448c-9708-5b460d0c9a23.jpg\"]","trial_type":"similarity","trial_index":58,"time_elapsed":576956,"internal_node_id":"0.0-6.0-52.0"},{"sim_score":7,"rt":5476,"stimulus":"[\"img/0904/06dacdc5-2206-4fb8-92b7-88042d22833c.jpg\",\"img/0904/2f88ce53-02d0-4f95-a082-182c56a0eeb4.jpg\"]","trial_type":"similarity","trial_index":59,"time_elapsed":583436,"internal_node_id":"0.0-6.0-53.0"},{"sim_score":7,"rt":4261,"stimulus":"[\"img/0769/a1ce8d07-ba37-40de-bade-2778805521e0.jpg\",\"img/0769/f6396414-6788-4d59-9683-de153298d89c.jpg\"]","trial_type":"similarity","trial_index":60,"time_elapsed":588701,"internal_node_id":"0.0-6.0-54.0"},{"sim_score":6,"rt":6781,"stimulus":"[\"img/0898/6cd3830b-d44e-4915-be2b-88d31424b91c.jpg\",\"img/0758/dd559618-7f09-4a07-8018-d311c4a5ea29.jpg\"]","trial_type":"similarity","trial_index":61,"time_elapsed":596486,"internal_node_id":"0.0-6.0-55.0"},{"sim_score":7,"rt":5780,"stimulus":"[\"img/0769/f73c5138-2f4c-4354-981c-129dff9cc734.jpg\",\"img/0902/0c760cc9-10ac-429e-8957-a7d51fc99683.jpg\"]","trial_type":"similarity","trial_index":62,"time_elapsed":603270,"internal_node_id":"0.0-6.0-56.0"},{"sim_score":6,"rt":4555,"stimulus":"[\"img/0864/a248adb3-c70b-4652-b7a3-776d2a1e904b.jpg\",\"img/0881/14236cf2-6b95-48b8-9368-78af09d2d27f.jpg\"]","trial_type":"similarity","trial_index":63,"time_elapsed":608827,"internal_node_id":"0.0-6.0-57.0"},{"sim_score":1,"rt":3755,"stimulus":"[\"img/0758/eabcd7a8-56ad-4fd2-bc24-90f6b7b33265.jpg\",\"img/0868/179a5502-ab5c-478e-8263-5a1fbcc101d2.jpg\"]","trial_type":"similarity","trial_index":64,"time_elapsed":613586,"internal_node_id":"0.0-6.0-58.0"},{"sim_score":7,"rt":4205,"stimulus":"[\"img/0862/92f0146c-20c4-482e-aef5-adb693790338.jpg\",\"img/0769/4680bcc3-8fbc-4643-8f9a-12aa0e780b64.jpg\"]","trial_type":"similarity","trial_index":65,"time_elapsed":618795,"internal_node_id":"0.0-6.0-59.0"},{"sim_score":6,"rt":5600,"stimulus":"[\"img/0764/a86eed5b-d0af-4c3f-8c7a-26e98e98cf1a.jpg\",\"img/0903/f1fa0f8d-e62b-4b4a-a174-31a0fabfe61b.jpg\"]","trial_type":"similarity","trial_index":66,"time_elapsed":625399,"internal_node_id":"0.0-6.0-60.0"},{"sim_score":7,"rt":4195,"stimulus":"[\"img/0899/4408c14d-c168-4a7d-96f6-bc87bfb58f83.jpg\",\"img/0899/b45c550b-96c3-4255-ad59-48a2b4db1c1e.jpg\"]","trial_type":"similarity","trial_index":67,"time_elapsed":630596,"internal_node_id":"0.0-6.0-61.0"},{"sim_score":3,"rt":14162,"stimulus":"[\"img/0860/c7047cd2-7cc1-41b6-8a34-c0986774975f.jpg\",\"img/0875/2e13d160-eea1-416b-aff1-d37ab99ecc1d.jpg\"]","trial_type":"similarity","trial_index":68,"time_elapsed":645762,"internal_node_id":"0.0-6.0-62.0"},{"sim_score":2,"rt":10472,"stimulus":"[\"img/0868/09a9ef4d-d000-4cfa-a6aa-ebec7c2edeb4.jpg\",\"img/0874/a3bc679d-619f-4db6-bb68-116dcb757d9c.jpg\"]","trial_type":"similarity","trial_index":69,"time_elapsed":657237,"internal_node_id":"0.0-6.0-63.0"},{"sim_score":1,"rt":5027,"stimulus":"[\"img/0758/f61ecdf8-a7d4-4db0-b84d-be46f7cfaffc.jpg\",\"img/0862/57b6f83f-c763-4858-830d-102f97bfefbf.jpg\"]","trial_type":"similarity","trial_index":70,"time_elapsed":663267,"internal_node_id":"0.0-6.0-64.0"},{"sim_score":6,"rt":5634,"stimulus":"[\"img/0904/da170c1b-9651-4f08-b231-2bdd1d9a046f.jpg\",\"img/0898/5f699581-3853-4547-856c-12f419ba5af7.jpg\"]","trial_type":"similarity","trial_index":71,"time_elapsed":669904,"internal_node_id":"0.0-6.0-65.0"},{"sim_score":1,"rt":3991,"stimulus":"[\"img/0881/c843e210-bdfe-4a7c-8bbe-fcea1f90fe1c.jpg\",\"img/0866/a04d37f0-99dd-478a-b6c6-58b215138f84.jpg\"]","trial_type":"similarity","trial_index":72,"time_elapsed":674899,"internal_node_id":"0.0-6.0-66.0"},{"sim_score":1,"rt":4566,"stimulus":"[\"img/0867/2e1a0b58-cdb1-4107-a14e-452530d7b9b0.jpg\",\"img/0898/b3290bf9-215b-4b45-b21a-65bdf73f142f.jpg\"]","trial_type":"similarity","trial_index":73,"time_elapsed":680468,"internal_node_id":"0.0-6.0-67.0"},{"sim_score":6,"rt":4016,"stimulus":"[\"img/0902/b03fee99-d5ca-4bf8-871c-a4a743a39842.jpg\",\"img/0764/06ea144f-f4f3-4a14-ba47-f20f35c561e0.jpg\"]","trial_type":"similarity","trial_index":74,"time_elapsed":685485,"internal_node_id":"0.0-6.0-68.0"},{"sim_score":6,"rt":8874,"stimulus":"[\"img/0875/34132396-d896-4c2d-8087-646dd867e769.jpg\",\"img/0867/cc72ed48-7704-422c-86d6-467a1145287a.jpg\"]","trial_type":"similarity","trial_index":75,"time_elapsed":695363,"internal_node_id":"0.0-6.0-69.0"},{"sim_score":7,"rt":4193,"stimulus":"[\"img/0766/2746b119-4bba-463e-acf0-88136dc6600c.jpg\",\"img/0764/c80b3e06-2ee3-4326-9678-340607eb5348.jpg\"]","trial_type":"similarity","trial_index":76,"time_elapsed":700560,"internal_node_id":"0.0-6.0-70.0"},{"sim_score":1,"rt":5229,"stimulus":"[\"img/0894/4739e06d-c31e-4bf1-bf91-c97fa9afb456.jpg\",\"img/0867/ac1797e4-8afc-48fe-b252-86d1defb1cca.jpg\"]","trial_type":"similarity","trial_index":77,"time_elapsed":706793,"internal_node_id":"0.0-6.0-71.0"},{"sim_score":1,"rt":5319,"stimulus":"[\"img/0875/5a716432-c6ca-4b1c-955a-2b8ac25198ee.jpg\",\"img/0764/e30dba15-e68a-4659-89db-e1654b52fe02.jpg\"]","trial_type":"similarity","trial_index":78,"time_elapsed":713116,"internal_node_id":"0.0-6.0-72.0"},{"sim_score":7,"rt":4464,"stimulus":"[\"img/0867/f8488a47-94ee-4166-952c-44e16cf172f6.jpg\",\"img/0866/4a87911a-d5be-4d4e-ab8e-3d1f581bf507.jpg\"]","trial_type":"similarity","trial_index":79,"time_elapsed":718583,"internal_node_id":"0.0-6.0-73.0"},{"sim_score":5,"rt":7546,"stimulus":"[\"img/0903/4cbdc464-e562-4ec2-9bb6-15f894fdf528.jpg\",\"img/0758/335851a0-a55b-46d8-ab05-8463eda48349.jpg\"]","trial_type":"similarity","trial_index":80,"time_elapsed":727133,"internal_node_id":"0.0-6.0-74.0"},{"sim_score":1,"rt":3519,"stimulus":"[\"img/0766/fd74fdbb-ea40-4f3a-a091-38d08dfd636e.jpg\",\"img/0868/4e626425-63c8-484a-8a1d-e66ee4e0bef8.jpg\"]","trial_type":"similarity","trial_index":81,"time_elapsed":731655,"internal_node_id":"0.0-6.0-75.0"},{"sim_score":7,"rt":4025,"stimulus":"[\"img/0874/adf9a8f1-c40b-402b-b95b-1e85a54a7b62.jpg\",\"img/0766/a754e4b6-5019-4cf4-8f58-34c20547a1f5.jpg\"]","trial_type":"similarity","trial_index":82,"time_elapsed":736684,"internal_node_id":"0.0-6.0-76.0"},{"sim_score":1,"rt":4937,"stimulus":"[\"img/0881/7e822106-76f7-4b10-a805-14dc68b2cfaf.jpg\",\"img/0868/d98ca254-b195-477f-b57e-5760a2717db8.jpg\"]","trial_type":"similarity","trial_index":83,"time_elapsed":742625,"internal_node_id":"0.0-6.0-77.0"},{"sim_score":1,"rt":5229,"stimulus":"[\"img/0758/a085b443-b5d7-4cb2-9ad4-b9dab0fc23f1.jpg\",\"img/0901/1b86f2fc-7a1d-4aa8-9252-114f92edef3b.jpg\"]","trial_type":"similarity","trial_index":84,"time_elapsed":748857,"internal_node_id":"0.0-6.0-78.0"},{"sim_score":6,"rt":4476,"stimulus":"[\"img/0881/c24f3051-eefa-42de-aba6-fccb56d93c70.jpg\",\"img/0898/224c1572-56b9-4f16-a9e4-6f3bc9c114bd.jpg\"]","trial_type":"similarity","trial_index":85,"time_elapsed":754336,"internal_node_id":"0.0-6.0-79.0"},{"sim_score":1,"rt":4588,"stimulus":"[\"img/0867/85a96c62-548f-4994-9553-819e03c3135a.jpg\",\"img/0758/d540bee6-b460-4c32-ac57-bc282742d7d4.jpg\"]","trial_type":"similarity","trial_index":86,"time_elapsed":759927,"internal_node_id":"0.0-6.0-80.0"},{"sim_score":7,"rt":4216,"stimulus":"[\"img/0769/3c1203c5-2ce7-466e-957a-8d77b5905460.jpg\",\"img/0899/ddf96ade-692e-4602-bd22-dedbb46401bc.jpg\"]","trial_type":"similarity","trial_index":87,"time_elapsed":765147,"internal_node_id":"0.0-6.0-81.0"},{"sim_score":7,"rt":3181,"stimulus":"[\"img/0903/6b5dcc60-3ad3-4962-93e5-e6cf768477af.jpg\",\"img/0903/47e39de8-6959-469f-8be9-6999a6db207c.jpg\"]","trial_type":"similarity","trial_index":88,"time_elapsed":769332,"internal_node_id":"0.0-6.0-82.0"},{"sim_score":3,"rt":4273,"stimulus":"[\"img/0867/26611f4e-d694-4460-b7e2-43c62753ddc3.jpg\",\"img/0766/db750ba0-ce04-46e1-b601-e1b80212bad2.jpg\"]","trial_type":"similarity","trial_index":89,"time_elapsed":1010836,"internal_node_id":"0.0-6.0-83.0"},{"sim_score":1,"rt":7210,"stimulus":"[\"img/0902/71c03003-03ef-4b0f-8229-e0c857150a5d.jpg\",\"img/0867/98d8cd96-1476-4fe0-a3a3-04f875500a1b.jpg\"]","trial_type":"similarity","trial_index":90,"time_elapsed":1019049,"internal_node_id":"0.0-6.0-84.0"},{"sim_score":2,"rt":6231,"stimulus":"[\"img/0901/8bb79e82-9c43-4b6f-a655-40655519598b.jpg\",\"img/0875/5a1e5100-0d94-4fec-bbe9-ca9894d2cf8e.jpg\"]","trial_type":"similarity","trial_index":91,"time_elapsed":1026284,"internal_node_id":"0.0-6.0-85.0"},{"sim_score":1,"rt":4846,"stimulus":"[\"img/0764/d7f3ac54-318a-4dac-a06b-62bed34d01a4.jpg\",\"img/0866/c446214b-a368-4c65-ae39-ea46894256ab.jpg\"]","trial_type":"similarity","trial_index":92,"time_elapsed":1032133,"internal_node_id":"0.0-6.0-86.0"},{"sim_score":6,"rt":4487,"stimulus":"[\"img/0901/f1116359-1ff1-4638-b3b3-700918d36d18.jpg\",\"img/0894/05161000-f476-499b-a878-c13c7f347fd9.jpg\"]","trial_type":"similarity","trial_index":93,"time_elapsed":1037623,"internal_node_id":"0.0-6.0-87.0"},{"sim_score":6,"rt":3958,"stimulus":"[\"img/0898/82231d4c-218b-4d0a-b50d-35a49b524e97.jpg\",\"img/0769/38a88f69-28fd-4bbd-99f0-f4c02bfd3995.jpg\"]","trial_type":"similarity","trial_index":94,"time_elapsed":1042585,"internal_node_id":"0.0-6.0-88.0"},{"sim_score":6,"rt":6433,"stimulus":"[\"img/0769/11518cb3-13ea-4dd0-890c-30cfab728ade.jpg\",\"img/0894/e2446cf5-cd48-486a-badc-76498e087fbe.jpg\"]","trial_type":"similarity","trial_index":95,"time_elapsed":1050021,"internal_node_id":"0.0-6.0-89.0"},{"sim_score":7,"rt":7356,"stimulus":"[\"img/0862/064818ee-13d5-4618-bb24-21c7368ea278.jpg\",\"img/0874/93d1f8dc-acf2-4f03-bd8d-8ec35df276ed.jpg\"]","trial_type":"similarity","trial_index":96,"time_elapsed":1058380,"internal_node_id":"0.0-6.0-90.0"},{"sim_score":6,"rt":7153,"stimulus":"[\"img/0894/767a0eec-1064-46b1-b1aa-dfa02b0cd74e.jpg\",\"img/0766/2da002a4-05c9-4f5c-9ed7-433b4183e273.jpg\"]","trial_type":"similarity","trial_index":97,"time_elapsed":1066536,"internal_node_id":"0.0-6.0-91.0"},{"sim_score":1,"rt":4644,"stimulus":"[\"img/0874/1016b306-087c-4afc-aa08-fa527b28dc76.jpg\",\"img/0867/de92135f-5b65-4ed9-b245-188292c7c2f8.jpg\"]","trial_type":"similarity","trial_index":98,"time_elapsed":1072184,"internal_node_id":"0.0-6.0-92.0"},{"sim_score":1,"rt":6084,"stimulus":"[\"img/0899/56a605c3-d0a2-4215-89e1-779279d85a7c.jpg\",\"img/0868/15dd6fd7-791e-4b53-b203-195d617521a4.jpg\"]","trial_type":"similarity","trial_index":99,"time_elapsed":1079271,"internal_node_id":"0.0-6.0-93.0"},{"sim_score":6,"rt":4037,"stimulus":"[\"img/0903/f10e9eb5-0c21-4a6a-944c-5f10a6d0fa4d.jpg\",\"img/0862/fad1d7c1-8187-43c3-942a-0fc12183e48e.jpg\"]","trial_type":"similarity","trial_index":100,"time_elapsed":1084311,"internal_node_id":"0.0-6.0-94.0"},{"sim_score":6,"rt":5275,"stimulus":"[\"img/0899/1b3457ea-87d4-4946-a01c-aac1863ed46c.jpg\",\"img/0766/f011ef45-fb48-44b8-8224-867ed2ccf786.jpg\"]","trial_type":"similarity","trial_index":101,"time_elapsed":1090588,"internal_node_id":"0.0-6.0-95.0"},{"sim_score":7,"rt":6332,"stimulus":"[\"img/0867/db7e032f-162b-46f5-ae67-2b29679adee4.jpg\",\"img/0868/5fa7f9d0-f0e5-454c-8224-74d964818f56.jpg\"]","trial_type":"similarity","trial_index":102,"time_elapsed":1097924,"internal_node_id":"0.0-6.0-96.0"},{"sim_score":3,"rt":8402,"stimulus":"[\"img/0862/cdaed51d-9e2f-4807-801a-4663c40077e2.jpg\",\"img/0901/443f2e59-199b-4f7b-9de9-c44ad97326a5.jpg\"]","trial_type":"similarity","trial_index":103,"time_elapsed":1107329,"internal_node_id":"0.0-6.0-97.0"},{"sim_score":1,"rt":6366,"stimulus":"[\"img/0875/d59ff733-eaff-4ee2-9443-06954dd0bcb6.jpg\",\"img/0766/d3bab2fc-ddcc-40a0-bb72-c0d0ebe19978.jpg\"]","trial_type":"similarity","trial_index":104,"time_elapsed":1114698,"internal_node_id":"0.0-6.0-98.0"},{"sim_score":6,"rt":5476,"stimulus":"[\"img/0758/d57c2592-a317-4f63-91be-91a3a9afd222.jpg\",\"img/0874/29830da7-be5f-44e5-b141-652a0ccf7269.jpg\"]","trial_type":"similarity","trial_index":105,"time_elapsed":1121177,"internal_node_id":"0.0-6.0-99.0"},{"sim_score":2,"rt":6243,"stimulus":"[\"img/0904/60d1a521-edf7-4696-9263-f21ac0e62a01.jpg\",\"img/0868/3a62db2d-97e9-44a3-b8e3-a48c6f0e423b.jpg\"]","trial_type":"similarity","trial_index":106,"time_elapsed":1128422,"internal_node_id":"0.0-6.0-100.0"},{"sim_score":2,"rt":17413,"stimulus":"[\"img/0903/647ce311-8c71-479a-8361-961db1457139.jpg\",\"img/0866/620cd1aa-0800-4414-8f6e-90342e7a99ad.jpg\"]","trial_type":"similarity","trial_index":107,"time_elapsed":1146839,"internal_node_id":"0.0-6.0-101.0"},{"sim_score":5,"rt":7603,"stimulus":"[\"img/0868/4a8a45ed-2c4f-421b-9564-409a33ecd26c.jpg\",\"img/0769/8c7cf147-1780-4d5c-8ddf-5ea23ff03ac9.jpg\"]","trial_type":"similarity","trial_index":108,"time_elapsed":1155445,"internal_node_id":"0.0-6.0-102.0"},{"sim_score":5,"rt":4565,"stimulus":"[\"img/0902/ca3160ba-ad5d-459f-a1b6-8b4f3c85ecd5.jpg\",\"img/0899/f95cbdb4-f804-4f5d-ad76-373ad343e658.jpg\"]","trial_type":"similarity","trial_index":109,"time_elapsed":1161014,"internal_node_id":"0.0-6.0-103.0"},{"sim_score":3,"rt":5904,"stimulus":"[\"img/0868/7b212364-ff5f-4e28-9241-7eb6ea00161b.jpg\",\"img/0862/a0a3a7ba-7798-46a3-b4ca-05e1f6e581d0.jpg\"]","trial_type":"similarity","trial_index":110,"time_elapsed":1167921,"internal_node_id":"0.0-6.0-104.0"},{"sim_score":5,"rt":5060,"stimulus":"[\"img/0903/6a87dbad-9b8d-4ff5-9c41-03c9aa24f0c3.jpg\",\"img/0894/bd34223a-2f66-4e16-9d18-193a746b69ff.jpg\"]","trial_type":"similarity","trial_index":111,"time_elapsed":1173985,"internal_node_id":"0.0-6.0-105.0"},{"sim_score":6,"rt":3418,"stimulus":"[\"img/0864/6f631579-acf1-415c-a42c-1207f62a8d99.jpg\",\"img/0874/31e22c7c-99aa-40b1-bf03-dd73fa2df4d6.jpg\"]","trial_type":"similarity","trial_index":112,"time_elapsed":1178406,"internal_node_id":"0.0-6.0-106.0"},{"sim_score":6,"rt":3497,"stimulus":"[\"img/0862/fb26cb07-d5a9-4653-813c-f41609f26cd5.jpg\",\"img/0902/c920f0e1-1c81-480f-a164-c77f2dc6ce9a.jpg\"]","trial_type":"similarity","trial_index":113,"time_elapsed":1182907,"internal_node_id":"0.0-6.0-107.0"},{"sim_score":6,"rt":5106,"stimulus":"[\"img/0904/09dac84f-3d1c-4445-a68e-d0389fdbf1e9.jpg\",\"img/0903/12bd8657-92e6-4c36-a06c-597e7a1d51f3.jpg\"]","trial_type":"similarity","trial_index":114,"time_elapsed":1189015,"internal_node_id":"0.0-6.0-108.0"},{"sim_score":7,"rt":5724,"stimulus":"[\"img/0764/17b088f8-3053-4140-b544-d15654cc79ef.jpg\",\"img/0864/b3c4e378-28f0-4699-9338-2a257b4bca04.jpg\"]","trial_type":"similarity","trial_index":115,"time_elapsed":1195743,"internal_node_id":"0.0-6.0-109.0"},{"sim_score":3,"rt":8481,"stimulus":"[\"img/0866/0207e9a2-7dbb-40b5-9459-b472aaeceb2a.jpg\",\"img/0894/11674fa4-285d-44e2-939f-2228c6a64080.jpg\"]","trial_type":"similarity","trial_index":116,"time_elapsed":1205227,"internal_node_id":"0.0-6.0-110.0"},{"sim_score":3,"rt":7096,"stimulus":"[\"img/0899/66ab3178-c3fe-4455-ad17-d5952b08e018.jpg\",\"img/0903/6138142e-c84e-45fc-9487-c974f3d4968a.jpg\"]","trial_type":"similarity","trial_index":117,"time_elapsed":1213326,"internal_node_id":"0.0-6.0-111.0"},{"sim_score":3,"rt":8582,"stimulus":"[\"img/0902/2db723b6-130f-454c-8c8d-88829edbcd65.jpg\",\"img/0904/1d10df11-b5c8-4370-9a6b-097a7f965895.jpg\"]","trial_type":"similarity","trial_index":118,"time_elapsed":1222912,"internal_node_id":"0.0-6.0-112.0"},{"sim_score":6,"rt":7175,"stimulus":"[\"img/0864/0f537697-a314-47c3-a8cc-8df23b7e536c.jpg\",\"img/0860/c47fdead-eb02-4989-b078-26f4852f44fe.jpg\"]","trial_type":"similarity","trial_index":119,"time_elapsed":1231090,"internal_node_id":"0.0-6.0-113.0"},{"sim_score":3,"rt":8930,"stimulus":"[\"img/0860/61fb959d-d4d9-4de4-9e4e-4fa62b4cfcd5.jpg\",\"img/0899/d8f2dd94-570e-4e8c-a087-d96090fb9e8c.jpg\"]","trial_type":"similarity","trial_index":120,"time_elapsed":1241024,"internal_node_id":"0.0-6.0-114.0"},{"sim_score":2,"rt":4903,"stimulus":"[\"img/0881/6b1189e6-232d-4042-8885-16dc7b10e0d4.jpg\",\"img/0903/005ad0de-4f52-433c-b515-dbe8d46184a3.jpg\"]","trial_type":"similarity","trial_index":121,"time_elapsed":1246930,"internal_node_id":"0.0-6.0-115.0"},{"sim_score":1,"rt":3959,"stimulus":"[\"img/0894/86201968-6e78-4d68-9b3a-d1692e066210.jpg\",\"img/0874/a82926a3-0b43-4add-803c-d5f9ea7798ee.jpg\"]","trial_type":"similarity","trial_index":122,"time_elapsed":1251892,"internal_node_id":"0.0-6.0-116.0"},{"sim_score":5,"rt":4937,"stimulus":"[\"img/0881/f037e3b0-09cb-4a83-b2d9-6a71fe474e63.jpg\",\"img/0862/eefa5588-9efd-4591-aa5f-a2e17c7d7bcc.jpg\"]","trial_type":"similarity","trial_index":123,"time_elapsed":1257832,"internal_node_id":"0.0-6.0-117.0"},{"sim_score":5,"rt":4172,"stimulus":"[\"img/0868/293079b8-7e0c-4afd-a390-1e5d35fe3ded.jpg\",\"img/0875/3ecb367d-e9eb-4826-8aaa-7aa72fb98019.jpg\"]","trial_type":"similarity","trial_index":124,"time_elapsed":1263007,"internal_node_id":"0.0-6.0-118.0"},{"sim_score":2,"rt":5938,"stimulus":"[\"img/0860/5bff793e-cbd5-4d7e-b628-0ac2b0e30b64.jpg\",\"img/0758/6cd8c362-ae2a-41eb-80a3-3a4f7ace1530.jpg\"]","trial_type":"similarity","trial_index":125,"time_elapsed":1269948,"internal_node_id":"0.0-6.0-119.0"},{"sim_score":5,"rt":5106,"stimulus":"[\"img/0864/3d4de670-b290-4285-9c3d-12a0e3af44e9.jpg\",\"img/0875/8521fd58-3b1e-4dc5-97ae-804edfa6734a.jpg\"]","trial_type":"similarity","trial_index":126,"time_elapsed":1276057,"internal_node_id":"0.0-6.0-120.0"},{"sim_score":5,"rt":5556,"stimulus":"[\"img/0898/0c7dde4f-efce-4b7a-9387-6921635b7890.jpg\",\"img/0866/386235d2-6857-41e7-88a8-25cfc3430025.jpg\"]","trial_type":"similarity","trial_index":127,"time_elapsed":1282615,"internal_node_id":"0.0-6.0-121.0"},{"sim_score":5,"rt":4172,"stimulus":"[\"img/0874/85eb9b8a-c4c6-4e5a-b8e7-363a87a82054.jpg\",\"img/0904/6291eb43-c10c-4810-a36a-101d09868b04.jpg\"]","trial_type":"similarity","trial_index":128,"time_elapsed":1287791,"internal_node_id":"0.0-6.0-122.0"},{"sim_score":3,"rt":5398,"stimulus":"[\"img/0904/ba8e689e-9ca6-4608-a2a1-3b0940666ae6.jpg\",\"img/0864/e8bd659f-aa43-4748-877e-3118e8b4e189.jpg\"]","trial_type":"similarity","trial_index":129,"time_elapsed":1294192,"internal_node_id":"0.0-6.0-123.0"},{"sim_score":3,"rt":3092,"stimulus":"[\"img/0894/7f2f31fd-6618-41c6-b65a-0fd8b2851bc9.jpg\",\"img/0902/d5e25767-e8ec-45f3-ac0a-7b4a6f7a9edc.jpg\"]","trial_type":"similarity","trial_index":130,"time_elapsed":1298287,"internal_node_id":"0.0-6.0-124.0"},{"sim_score":1,"rt":4408,"stimulus":"[\"img/0868/77091fc7-a590-4ebb-b915-fdb2483a2399.jpg\",\"img/0864/f92649a2-0590-4d31-9a7a-1bfb81666a2d.jpg\"]","trial_type":"similarity","trial_index":131,"time_elapsed":1359115,"internal_node_id":"0.0-6.0-125.0"},{"sim_score":2,"rt":6018,"stimulus":"[\"img/0899/fd9efb43-701f-4cd6-baaa-4c38315f4bdc.jpg\",\"img/0866/f756f7d1-9ad8-4a34-9ef6-7a443d705bfe.jpg\"]","trial_type":"similarity","trial_index":132,"time_elapsed":1366136,"internal_node_id":"0.0-6.0-126.0"},{"sim_score":5,"rt":6939,"stimulus":"[\"img/0875/90da8d75-108a-44ad-b999-e21fee3860d3.jpg\",\"img/0904/2fd488e9-960f-41f7-8a44-33375f7d5051.jpg\"]","trial_type":"similarity","trial_index":133,"time_elapsed":1374078,"internal_node_id":"0.0-6.0-127.0"},{"sim_score":1,"rt":4239,"stimulus":"[\"img/0867/c66898ba-b71b-4d50-84f9-f7f84853a98d.jpg\",\"img/0899/0433d056-aa30-4f8a-9aa1-abbb951e4edd.jpg\"]","trial_type":"similarity","trial_index":134,"time_elapsed":1379321,"internal_node_id":"0.0-6.0-128.0"},{"sim_score":2,"rt":7333,"stimulus":"[\"img/0901/148b747a-7392-437e-8823-33053c5dff3f.jpg\",\"img/0867/a749dddb-69f0-44a6-acdc-2bf295cf6dcc.jpg\"]","trial_type":"similarity","trial_index":135,"time_elapsed":1387657,"internal_node_id":"0.0-6.0-129.0"},{"sim_score":5,"rt":7715,"stimulus":"[\"img/0864/e02eddb5-f468-499c-91bf-f7be3ffe979b.jpg\",\"img/0769/6c0bac4c-5f59-43c7-898c-3ca93cf55cfe.jpg\"]","trial_type":"similarity","trial_index":136,"time_elapsed":1396376,"internal_node_id":"0.0-6.0-130.0"},{"sim_score":3,"rt":12227,"stimulus":"[\"img/0903/b548d383-2a95-4575-8c13-647873751ff1.jpg\",\"img/0868/e0aff734-077f-40dd-9781-74821abd3621.jpg\"]","trial_type":"similarity","trial_index":137,"time_elapsed":1409606,"internal_node_id":"0.0-6.0-131.0"},{"sim_score":2,"rt":9280,"stimulus":"[\"img/0864/1ebbc554-99fa-49f9-8799-317375a79820.jpg\",\"img/0867/075e0f95-856b-4cbb-acf5-092393aaf04e.jpg\"]","trial_type":"similarity","trial_index":138,"time_elapsed":1419889,"internal_node_id":"0.0-6.0-132.0"},{"sim_score":6,"rt":6883,"stimulus":"[\"img/0901/3db47171-0139-4235-82cd-0b1787b6775f.jpg\",\"img/0860/29a21a9f-54bb-4093-ad3f-04823ceaa89f.jpg\"]","trial_type":"similarity","trial_index":139,"time_elapsed":1427775,"internal_node_id":"0.0-6.0-133.0"},{"sim_score":3,"rt":12373,"stimulus":"[\"img/0881/db77fe00-aeb0-4d1d-aa66-f3a96fd077e4.jpg\",\"img/0766/dd3e18d0-0c98-4d05-b850-69976ee8cd75.jpg\"]","trial_type":"similarity","trial_index":140,"time_elapsed":1441151,"internal_node_id":"0.0-6.0-134.0"},{"sim_score":3,"rt":4104,"stimulus":"[\"img/0903/a0673b55-6040-47fe-9040-24bca27ca3c9.jpg\",\"img/0864/da39ad34-04e0-40d4-a724-c08d53e0ea09.jpg\"]","trial_type":"similarity","trial_index":141,"time_elapsed":1446259,"internal_node_id":"0.0-6.0-135.0"},{"sim_score":3,"rt":4723,"stimulus":"[\"img/0758/a709631e-3705-4725-ac40-f0d916924f08.jpg\",\"img/0894/2217bdcd-23a7-42d3-823b-23f2488d7e87.jpg\"]","trial_type":"similarity","trial_index":142,"time_elapsed":1451985,"internal_node_id":"0.0-6.0-136.0"},{"sim_score":3,"rt":3464,"stimulus":"[\"img/0769/3c1efec9-f8fd-487d-8955-4be88e48c832.jpg\",\"img/0860/99c589b9-9140-4d17-90c0-b344323edcda.jpg\"]","trial_type":"similarity","trial_index":143,"time_elapsed":1456451,"internal_node_id":"0.0-6.0-137.0"},{"sim_score":5,"rt":4419,"stimulus":"[\"img/0904/56e73f28-7e64-489b-a161-e6b1a063878d.jpg\",\"img/0766/09f646c8-a69e-4ed3-879c-8d29b04ad7f9.jpg\"]","trial_type":"similarity","trial_index":144,"time_elapsed":1461874,"internal_node_id":"0.0-6.0-138.0"},{"sim_score":2,"rt":5083,"stimulus":"[\"img/0868/1a62b2b2-18f5-466e-b564-5176a57c565e.jpg\",\"img/0860/9593362c-9fe5-4d12-9735-6000a11f6aa5.jpg\"]","trial_type":"similarity","trial_index":145,"time_elapsed":1467960,"internal_node_id":"0.0-6.0-139.0"},{"sim_score":2,"rt":7165,"stimulus":"[\"img/0758/b76ceca7-95ac-46e4-ac13-da02c8e93be9.jpg\",\"img/0864/0116ca98-293d-4fa6-a93b-5a6144ef64cc.jpg\"]","trial_type":"similarity","trial_index":146,"time_elapsed":1476128,"internal_node_id":"0.0-6.0-140.0"},{"sim_score":6,"rt":5600,"stimulus":"[\"img/0867/8ba0c5a7-c7e4-42cf-a80a-543763b90779.jpg\",\"img/0867/bf560d4f-dee3-4f11-a385-705cc1aa5f3c.jpg\"]","trial_type":"similarity","trial_index":147,"time_elapsed":1482731,"internal_node_id":"0.0-6.0-141.0"},{"sim_score":6,"rt":3576,"stimulus":"[\"img/0898/01bfe666-3510-4fc7-964f-d00d28732dc8.jpg\",\"img/0898/04e39a7a-fcf6-4156-ab0e-f5871f335e1c.jpg\"]","trial_type":"similarity","trial_index":148,"time_elapsed":1487310,"internal_node_id":"0.0-6.0-142.0"},{"sim_score":2,"rt":3654,"stimulus":"[\"img/0866/a15b02be-11bb-43e3-b0e0-ecc3bd7dfc49.jpg\",\"img/0769/4a1d0b52-3fe8-40fb-bb1c-c814fe49a68c.jpg\"]","trial_type":"similarity","trial_index":149,"time_elapsed":1491968,"internal_node_id":"0.0-6.0-143.0"},{"sim_score":2,"rt":14117,"stimulus":"[\"img/0860/17b44a7d-c5ca-479f-9e87-f65a64f5c80e.jpg\",\"img/0898/993d8f2d-bef7-4251-a193-0f93a32b7763.jpg\"]","trial_type":"similarity","trial_index":150,"time_elapsed":1507088,"internal_node_id":"0.0-6.0-144.0"},{"sim_score":2,"rt":5759,"stimulus":"[\"img/0766/fd064894-7147-4af5-97e9-2089d5472656.jpg\",\"img/0864/5f74a653-3bdc-4308-8cca-ac667dc22e1f.jpg\"]","trial_type":"similarity","trial_index":151,"time_elapsed":1513849,"internal_node_id":"0.0-6.0-145.0"},{"sim_score":6,"rt":5364,"stimulus":"[\"img/0860/8277806e-b684-4474-8f7b-3fca946d7d4f.jpg\",\"img/0903/d987e220-f3e6-4b6d-a270-fe6757041f6d.jpg\"]","trial_type":"similarity","trial_index":152,"time_elapsed":1520217,"internal_node_id":"0.0-6.0-146.0"},{"sim_score":2,"rt":6377,"stimulus":"[\"img/0867/1719a35d-f085-48c0-9099-16c94fe418b4.jpg\",\"img/0764/0e7ed062-f798-4366-8a24-6f430926f919.jpg\"]","trial_type":"similarity","trial_index":153,"time_elapsed":1527597,"internal_node_id":"0.0-6.0-147.0"},{"sim_score":6,"rt":5061,"stimulus":"[\"img/0769/14d393ce-e5be-4ca1-86ce-cc27d4b6074c.jpg\",\"img/0904/5aec2708-cf14-4a58-aa30-9a8a61c1be0e.jpg\"]","trial_type":"similarity","trial_index":154,"time_elapsed":1533660,"internal_node_id":"0.0-6.0-148.0"},{"sim_score":2,"rt":4948,"stimulus":"[\"img/0764/bd2eaa3e-95a9-4a59-a78e-3f81c766eea9.jpg\",\"img/0901/a6c90438-fa7c-4418-ac7c-16c2e772dd98.jpg\"]","trial_type":"similarity","trial_index":155,"time_elapsed":1539612,"internal_node_id":"0.0-6.0-149.0"},{"sim_score":6,"rt":5803,"stimulus":"[\"img/0904/696ebb60-8891-417a-91fd-c53218907a95.jpg\",\"img/0899/7f9d45d0-b2c6-40d3-aa41-c207db2c411b.jpg\"]","trial_type":"similarity","trial_index":156,"time_elapsed":1546418,"internal_node_id":"0.0-6.0-150.0"},{"sim_score":1,"rt":5421,"stimulus":"[\"img/0862/1c20f772-3a51-4a80-aac0-f57dc9f86c28.jpg\",\"img/0867/6e19c858-b606-45b2-a4c6-910a73f1d82c.jpg\"]","trial_type":"similarity","trial_index":157,"time_elapsed":1552842,"internal_node_id":"0.0-6.0-151.0"},{"sim_score":7,"rt":5162,"stimulus":"[\"img/0766/a1ed3f0f-e338-4a26-8fe4-4370f0c9fa6e.jpg\",\"img/0766/60033a74-9919-47e5-913c-71d0d483e7e5.jpg\"]","trial_type":"similarity","trial_index":158,"time_elapsed":1559007,"internal_node_id":"0.0-6.0-152.0"},{"sim_score":6,"rt":7041,"stimulus":"[\"img/0862/4f0a3b4c-afbf-486e-b248-1d54982f54b4.jpg\",\"img/0894/6b2e9509-8699-42b7-9582-7741df0ba2d7.jpg\"]","trial_type":"similarity","trial_index":159,"time_elapsed":1567051,"internal_node_id":"0.0-6.0-153.0"},{"sim_score":2,"rt":5589,"stimulus":"[\"img/0899/00715b3f-851b-420b-a26b-d7f79f7759a9.jpg\",\"img/0901/f469cb1d-6d81-4a45-bab5-cd0b650c2b4f.jpg\"]","trial_type":"similarity","trial_index":160,"time_elapsed":1573643,"internal_node_id":"0.0-6.0-154.0"},{"sim_score":7,"rt":4172,"stimulus":"[\"img/0874/c0378dac-9370-439a-8b79-db27c96fb390.jpg\",\"img/0874/2c9464dd-8a23-4baa-ac94-1ba3af5c15cc.jpg\"]","trial_type":"similarity","trial_index":161,"time_elapsed":1578818,"internal_node_id":"0.0-6.0-155.0"},{"sim_score":2,"rt":4587,"stimulus":"[\"img/0860/702bd09d-df3a-40aa-a267-5f04474305b5.jpg\",\"img/0867/a498eef3-9fa4-4ab2-9778-4ae82ac40dc5.jpg\"]","trial_type":"similarity","trial_index":162,"time_elapsed":1584409,"internal_node_id":"0.0-6.0-156.0"},{"sim_score":2,"rt":5116,"stimulus":"[\"img/0901/233a6948-48eb-4b67-8259-222b916b2322.jpg\",\"img/0881/7e31e5dc-2240-4b1b-b5a0-3acd980099ef.jpg\"]","trial_type":"similarity","trial_index":163,"time_elapsed":1590529,"internal_node_id":"0.0-6.0-157.0"},{"sim_score":6,"rt":4173,"stimulus":"[\"img/0903/b4a0f61e-a964-4b79-a9a7-f767a8f92f34.jpg\",\"img/0902/95a36b6b-9601-4fa5-8fd9-606ea62f9425.jpg\"]","trial_type":"similarity","trial_index":164,"time_elapsed":1595705,"internal_node_id":"0.0-6.0-158.0"},{"sim_score":2,"rt":8537,"stimulus":"[\"img/0860/4c530c3c-6aab-492a-94d1-9c01797bde40.jpg\",\"img/0764/d7c215ab-ea9a-45be-8d5f-417d5b9a8a17.jpg\"]","trial_type":"similarity","trial_index":165,"time_elapsed":1605245,"internal_node_id":"0.0-6.0-159.0"},{"sim_score":6,"rt":4206,"stimulus":"[\"img/0902/5b45a7a0-81c8-4a71-aaa2-2ce09adb5a29.jpg\",\"img/0875/fb732ab5-013a-4366-9f65-27811ed157e9.jpg\"]","trial_type":"similarity","trial_index":166,"time_elapsed":1610453,"internal_node_id":"0.0-6.0-160.0"},{"sim_score":5,"rt":4588,"stimulus":"[\"img/0898/8605a25b-6895-476d-8c13-df7a83f96093.jpg\",\"img/0862/00c06b00-3b73-44e9-bc1e-c5aafb438321.jpg\"]","trial_type":"similarity","trial_index":167,"time_elapsed":1616045,"internal_node_id":"0.0-6.0-161.0"},{"sim_score":5,"rt":3497,"stimulus":"[\"img/0894/9b1333fd-3561-43bf-aee5-99b7b7ca3dc3.jpg\",\"img/0875/03c3c331-738b-4446-af92-3d7386b08c2e.jpg\"]","trial_type":"similarity","trial_index":168,"time_elapsed":1620545,"internal_node_id":"0.0-6.0-162.0"},{"sim_score":5,"rt":4307,"stimulus":"[\"img/0866/07c9c966-3c8d-40e7-8128-92b2acbaed5d.jpg\",\"img/0864/3651d070-2fc5-4848-b6a6-088a2d9ac5c9.jpg\"]","trial_type":"similarity","trial_index":169,"time_elapsed":1625855,"internal_node_id":"0.0-6.0-163.0"},{"sim_score":5,"rt":3407,"stimulus":"[\"img/0766/717fd72f-a281-499b-a5ba-5e2ecc4d4866.jpg\",\"img/0862/53a9cf7c-93c4-41b9-952f-07d17f7a17b2.jpg\"]","trial_type":"similarity","trial_index":170,"time_elapsed":1630265,"internal_node_id":"0.0-6.0-164.0"},{"sim_score":1,"rt":5263,"stimulus":"[\"img/0866/d266fece-59b3-46fa-b69f-96f6efb81b59.jpg\",\"img/0874/7e4f2150-3b59-4a36-b5da-a4e0ba410531.jpg\"]","trial_type":"similarity","trial_index":171,"time_elapsed":1636531,"internal_node_id":"0.0-6.0-165.0"},{"sim_score":3,"rt":5050,"stimulus":"[\"img/0862/47ed5efd-4ec9-4b74-bb4e-a5f5cf0c3e7d.jpg\",\"img/0860/f44ba3fb-03a2-42f0-8509-2c1ded493086.jpg\"]","trial_type":"similarity","trial_index":172,"time_elapsed":1642584,"internal_node_id":"0.0-6.0-166.0"},{"sim_score":3,"rt":5049,"stimulus":"[\"img/0766/5d1b8041-c5a1-4b02-b4fe-3453d98a0d72.jpg\",\"img/0901/a9b9c0a0-8aed-4888-a78a-65fb7e764d13.jpg\"]","trial_type":"similarity","trial_index":173,"time_elapsed":1768493,"internal_node_id":"0.0-6.0-167.0"},{"sim_score":7,"rt":6771,"stimulus":"[\"img/0862/99a99e39-8355-44ec-b993-e7bcec111e1c.jpg\",\"img/0862/ad593cc7-cabe-4bb7-8e14-8a447a0717b4.jpg\"]","trial_type":"similarity","trial_index":174,"time_elapsed":1776268,"internal_node_id":"0.0-6.0-168.0"},{"sim_score":3,"rt":4161,"stimulus":"[\"img/0894/661b9f9f-4bde-487a-b1ed-87085fde6948.jpg\",\"img/0764/ec2dd087-c471-4370-b570-95a542506a96.jpg\"]","trial_type":"similarity","trial_index":175,"time_elapsed":1781431,"internal_node_id":"0.0-6.0-169.0"},{"sim_score":5,"rt":4149,"stimulus":"[\"img/0874/99f6563c-8a8d-4c1c-a41d-667b618c3fd5.jpg\",\"img/0898/81b08535-2020-4c15-9ce4-2f1e460755ae.jpg\"]","trial_type":"similarity","trial_index":176,"time_elapsed":1786584,"internal_node_id":"0.0-6.0-170.0"},{"sim_score":2,"rt":7457,"stimulus":"[\"img/0860/e14d67c1-6d92-4f1e-9257-c8607159c19c.jpg\",\"img/0766/535849cc-ff5d-4df9-8f31-0ce94a97d571.jpg\"]","trial_type":"similarity","trial_index":177,"time_elapsed":1795044,"internal_node_id":"0.0-6.0-171.0"},{"sim_score":5,"rt":5815,"stimulus":"[\"img/0898/a114b375-cb89-44ba-9498-74213f1ecdee.jpg\",\"img/0864/6e846d43-94a6-4b37-a268-65eda979f052.jpg\"]","trial_type":"similarity","trial_index":178,"time_elapsed":1801862,"internal_node_id":"0.0-6.0-172.0"},{"sim_score":5,"rt":3441,"stimulus":"[\"img/0881/e046471a-35b4-4159-bbf7-3cfd201bef66.jpg\",\"img/0764/974d52cc-6318-4e7a-b294-2f3e92ff800f.jpg\"]","trial_type":"similarity","trial_index":179,"time_elapsed":1806305,"internal_node_id":"0.0-6.0-173.0"},{"sim_score":3,"rt":9290,"stimulus":"[\"img/0898/cd3aaa3f-efa9-4ab3-8d6f-a6a9273ddf42.jpg\",\"img/0868/8b0b8473-e2c0-4331-aa56-c3a5c29369da.jpg\"]","trial_type":"similarity","trial_index":180,"time_elapsed":1816599,"internal_node_id":"0.0-6.0-174.0"},{"sim_score":7,"rt":5196,"stimulus":"[\"img/0864/66091c27-e588-4476-8af9-265dc6be4156.jpg\",\"img/0864/5f33e097-23e3-4002-882d-76e8cb15f451.jpg\"]","trial_type":"similarity","trial_index":181,"time_elapsed":1822798,"internal_node_id":"0.0-6.0-175.0"},{"sim_score":6,"rt":5352,"stimulus":"[\"img/0899/57476fed-5962-4272-8fc9-b317bb777b54.jpg\",\"img/0862/f43ceabf-acc1-4107-b857-5d1849808f93.jpg\"]","trial_type":"similarity","trial_index":182,"time_elapsed":1829154,"internal_node_id":"0.0-6.0-176.0"},{"sim_score":5,"rt":8863,"stimulus":"[\"img/0875/ebf7653f-ff45-4e9f-af58-2c042ab3cd2b.jpg\",\"img/0758/6e95579b-5166-487c-b8cb-e417c6a218e3.jpg\"]","trial_type":"similarity","trial_index":183,"time_elapsed":1839020,"internal_node_id":"0.0-6.0-177.0"},{"sim_score":1,"rt":4869,"stimulus":"[\"img/0866/6f2a90d7-14f1-4f1b-bd64-fc0af6b9fe44.jpg\",\"img/0901/a2d7b2f6-396b-4d91-8403-de5361c74af7.jpg\"]","trial_type":"similarity","trial_index":184,"time_elapsed":1844893,"internal_node_id":"0.0-6.0-178.0"},{"sim_score":3,"rt":5139,"stimulus":"[\"img/0769/7c50e5f5-cc38-4d48-b009-fbe17bcea61c.jpg\",\"img/0874/ca76a855-4e77-4f2f-872a-0a718153e7ed.jpg\"]","trial_type":"similarity","trial_index":185,"time_elapsed":1851036,"internal_node_id":"0.0-6.0-179.0"},{"sim_score":3,"rt":6523,"stimulus":"[\"img/0875/99698b4d-b4a1-44bc-8c83-8ea755bbbf61.jpg\",\"img/0881/33d65d80-8a8e-4ecf-852d-0ad7725c17a2.jpg\"]","trial_type":"similarity","trial_index":186,"time_elapsed":1858562,"internal_node_id":"0.0-6.0-180.0"},{"sim_score":5,"rt":7412,"stimulus":"[\"img/0866/93a27239-8317-4e08-98ca-d8b1ff298e07.jpg\",\"img/0868/d6d1f30d-4323-435a-b194-7892521bc57e.jpg\"]","trial_type":"similarity","trial_index":187,"time_elapsed":1866977,"internal_node_id":"0.0-6.0-181.0"},{"sim_score":5,"rt":6961,"stimulus":"[\"img/0899/ad8268c5-8199-48d0-ad70-c5b6d6c599ec.jpg\",\"img/0758/7ee8bc8f-c40b-4b3a-84ec-3e83580622d4.jpg\"]","trial_type":"similarity","trial_index":188,"time_elapsed":1874942,"internal_node_id":"0.0-6.0-182.0"},{"sim_score":3,"rt":8301,"stimulus":"[\"img/0874/ca23d307-fc00-4d7d-9106-584c6eb21b4d.jpg\",\"img/0875/2c361b79-c3d1-4eda-812e-bf03192407bf.jpg\"]","trial_type":"similarity","trial_index":189,"time_elapsed":1884246,"internal_node_id":"0.0-6.0-183.0"},{"sim_score":3,"rt":4903,"stimulus":"[\"img/0904/e9423a8c-f946-43ad-ab7b-931acef870e2.jpg\",\"img/0862/f188d4f0-76a4-4102-818c-a209969d73a5.jpg\"]","trial_type":"similarity","trial_index":190,"time_elapsed":1890152,"internal_node_id":"0.0-6.0-184.0"},{"sim_score":5,"rt":5758,"stimulus":"[\"img/0902/168ebd47-9e82-4ab7-a18b-c3da85072db8.jpg\",\"img/0766/33aa9ebb-c9f5-418f-8c8b-c77861889568.jpg\"]","trial_type":"similarity","trial_index":191,"time_elapsed":1896913,"internal_node_id":"0.0-6.0-185.0"},{"sim_score":5,"rt":6243,"stimulus":"[\"img/0758/9fb5b2fe-3f00-4fe6-973c-1ce10d5f4cd5.jpg\",\"img/0769/aad494cc-674d-4a08-9bfa-24a88ebe3c79.jpg\"]","trial_type":"similarity","trial_index":192,"time_elapsed":1904158,"internal_node_id":"0.0-6.0-186.0"},{"sim_score":7,"rt":5994,"stimulus":"[\"img/0881/405484ae-0d00-4b05-bc57-6420a36adfac.jpg\",\"img/0881/f62bdcd1-a4b7-4d48-83da-d9c9e01c8727.jpg\"]","trial_type":"similarity","trial_index":193,"time_elapsed":1911156,"internal_node_id":"0.0-6.0-187.0"},{"sim_score":2,"rt":6321,"stimulus":"[\"img/0758/e38fd80d-18d0-42f3-b848-f930788e8bd7.jpg\",\"img/0866/be24ab58-230e-4db8-9f45-ff04c9aec6bb.jpg\"]","trial_type":"similarity","trial_index":194,"time_elapsed":1918480,"internal_node_id":"0.0-6.0-188.0"},{"sim_score":5,"rt":5252,"stimulus":"[\"img/0764/5c8fbafc-e62e-43ed-9b37-f73e8e45147d.jpg\",\"img/0898/26c41340-15bd-4ead-8fe4-c0d0ddca09c2.jpg\"]","trial_type":"similarity","trial_index":195,"time_elapsed":1924735,"internal_node_id":"0.0-6.0-189.0"},{"sim_score":5,"rt":5454,"stimulus":"[\"img/0903/9b60ef5b-234f-4239-892b-3d4c412accc2.jpg\",\"img/0901/58ec7fa9-b466-4651-90aa-c082df0972de.jpg\"]","trial_type":"similarity","trial_index":196,"time_elapsed":1931192,"internal_node_id":"0.0-6.0-190.0"},{"sim_score":6,"rt":6400,"stimulus":"[\"img/0902/e5a46bda-30d1-41ca-b36d-b8529b5a63d1.jpg\",\"img/0898/08c72dac-f8ad-407a-9ce6-8c9a5d679c3a.jpg\"]","trial_type":"similarity","trial_index":197,"time_elapsed":1938595,"internal_node_id":"0.0-6.0-191.0"},{"sim_score":2,"rt":9774,"stimulus":"[\"img/0864/e336a4c5-6648-4fd7-b2f6-93a3fb83f8c6.jpg\",\"img/0901/5b97abf9-f0c8-4fd1-b921-36d574779078.jpg\"]","trial_type":"similarity","trial_index":198,"time_elapsed":1949372,"internal_node_id":"0.0-6.0-192.0"},{"sim_score":5,"rt":4060,"stimulus":"[\"img/0894/e6385e52-6c35-43bd-b0af-bc803d107b11.jpg\",\"img/0881/ed4c971f-0873-4fc8-b6d6-e8bbd82f0bcc.jpg\"]","trial_type":"similarity","trial_index":199,"time_elapsed":1954435,"internal_node_id":"0.0-6.0-193.0"},{"sim_score":6,"rt":3373,"stimulus":"[\"img/0868/c8ac40c7-6904-4e13-8d61-c75d3052dc4e.jpg\",\"img/0868/4bd5105a-d2c3-4f82-8c80-57196106ba53.jpg\"]","trial_type":"similarity","trial_index":200,"time_elapsed":1958811,"internal_node_id":"0.0-6.0-194.0"},{"sim_score":6,"rt":3361,"stimulus":"[\"img/0899/f58b8d2f-b19d-4b59-8b94-8834be92e4ba.jpg\",\"img/0764/4bec8d92-75aa-475a-954d-8215dbe538f5.jpg\"]","trial_type":"similarity","trial_index":201,"time_elapsed":1963176,"internal_node_id":"0.0-6.0-195.0"},{"sim_score":5,"rt":3339,"stimulus":"[\"img/0881/d373cb9f-a719-4549-a2a4-82def79fb2a5.jpg\",\"img/0904/2c98dc56-88d1-4fb5-a999-b6a7861f65f0.jpg\"]","trial_type":"similarity","trial_index":202,"time_elapsed":1967519,"internal_node_id":"0.0-6.0-196.0"},{"sim_score":6,"rt":5466,"stimulus":"[\"img/0864/c22faebd-9c53-47bc-ada3-b9a30c688e75.jpg\",\"img/0902/bd89a85f-3853-4786-acd6-98818ee29f1c.jpg\"]","trial_type":"similarity","trial_index":203,"time_elapsed":1973988,"internal_node_id":"0.0-6.0-197.0"},{"sim_score":7,"rt":5072,"stimulus":"[\"img/0894/7fb082e0-ce79-485c-9109-04367fb32275.jpg\",\"img/0904/9b3568cc-3cf7-42be-9df3-fdafde7a58b8.jpg\"]","trial_type":"similarity","trial_index":204,"time_elapsed":1980062,"internal_node_id":"0.0-6.0-198.0"},{"sim_score":7,"rt":3845,"stimulus":"[\"img/0901/da4fe30f-d12a-491e-96a2-5ab8ebaadd09.jpg\",\"img/0901/b123d109-47b4-4f9a-80c9-9bb16da42efa.jpg\"]","trial_type":"similarity","trial_index":205,"time_elapsed":1984911,"internal_node_id":"0.0-6.0-199.0"},{"sim_score":5,"rt":5286,"stimulus":"[\"img/0894/6aa5545f-fa7d-4286-bbaa-aaf34dc7ec96.jpg\",\"img/0860/18dfed73-e36b-4487-a8bd-0b8cff8e3668.jpg\"]","trial_type":"similarity","trial_index":206,"time_elapsed":1991200,"internal_node_id":"0.0-6.0-200.0"},{"sim_score":6,"rt":3733,"stimulus":"[\"img/0898/661621d4-a14e-487c-8c74-354134a29710.jpg\",\"img/0903/365f176c-25a4-4973-bd3c-279bf1b39476.jpg\"]","trial_type":"similarity","trial_index":207,"time_elapsed":1995936,"internal_node_id":"0.0-6.0-201.0"},{"sim_score":3,"rt":7749,"stimulus":"[\"img/0864/ef9cbca0-4be8-435d-ad49-977259e80409.jpg\",\"img/0894/a98416c0-51e2-4960-85da-d81d8688b9d5.jpg\"]","trial_type":"similarity","trial_index":208,"time_elapsed":2004689,"internal_node_id":"0.0-6.0-202.0"},{"sim_score":3,"rt":5173,"stimulus":"[\"img/0874/bf14b896-e930-4fd9-9c05-2e83317a2773.jpg\",\"img/0860/4f695df5-afac-4da7-9875-fee39b0b24ad.jpg\"]","trial_type":"similarity","trial_index":209,"time_elapsed":2010865,"internal_node_id":"0.0-6.0-203.0"},{"sim_score":2,"rt":5500,"stimulus":"[\"img/0862/ba89835a-408c-480b-8594-ed4ffa97eb5c.jpg\",\"img/0875/527ced51-8e53-4aab-ab05-86df219104c0.jpg\"]","trial_type":"similarity","trial_index":210,"time_elapsed":2017368,"internal_node_id":"0.0-6.0-204.0"},{"sim_score":1,"rt":3384,"stimulus":"[\"img/0867/179ab87a-8eac-4c52-a41f-2e48e3120f09.jpg\",\"img/0881/4bd34581-94d8-4e88-8c89-5cef864ca3be.jpg\"]","trial_type":"similarity","trial_index":211,"time_elapsed":2021755,"internal_node_id":"0.0-6.0-205.0"},{"sim_score":6,"rt":3575,"stimulus":"[\"img/0901/7c16dd9c-44ad-4d5b-990c-6a0b9b48b1b1.jpg\",\"img/0902/b56db912-c3c0-4fc2-b325-d640acd7cb58.jpg\"]","trial_type":"similarity","trial_index":212,"time_elapsed":2026334,"internal_node_id":"0.0-6.0-206.0"},{"sim_score":6,"rt":4791,"stimulus":"[\"img/0899/0adc0bc3-6fca-4078-be6f-d45ddf1653d5.jpg\",\"img/0864/8ddd2e30-a1d0-479f-9cbe-591213023893.jpg\"]","trial_type":"similarity","trial_index":213,"time_elapsed":2032127,"internal_node_id":"0.0-6.0-207.0"},{"sim_score":2,"rt":6231,"stimulus":"[\"img/0901/04a53755-6da5-44d4-a7a6-48a6bc0a2280.jpg\",\"img/0769/48a1144d-fbda-4809-991b-fc8424a32ee4.jpg\"]","trial_type":"similarity","trial_index":214,"time_elapsed":2039361,"internal_node_id":"0.0-6.0-208.0"},{"sim_score":7,"rt":6039,"stimulus":"[\"img/0902/8065aa6b-4aef-4368-afa2-02c6465ca582.jpg\",\"img/0902/31abfa33-7cdb-44ad-968e-9f7b324d577a.jpg\"]","trial_type":"similarity","trial_index":215,"time_elapsed":2053536,"internal_node_id":"0.0-6.0-209.0"},{"view_history":"[{\"page_index\":0,\"viewing_time\":7706}]","rt":7706,"trial_type":"instructions","trial_index":216,"time_elapsed":2062243,"internal_node_id":"0.0-7.0"},{"rt":38696,"responses":"{\"Q0\":\"Orange-crowned Warbler\"}","answer":["Nashville Warbler"],"trial_type":"image-multi-choice","trial_index":217,"time_elapsed":2101948,"internal_node_id":"0.0-8.0-0.0"},{"rt":23044,"responses":"{\"Q0\":\"Black-and-white Warbler\"}","answer":["Black-and-white Warbler"],"trial_type":"image-multi-choice","trial_index":218,"time_elapsed":2126000,"internal_node_id":"0.0-8.0-1.0"},{"rt":14215,"responses":"{\"Q0\":\"Townsend's Warbler\"}","answer":["Townsend's Warbler"],"trial_type":"image-multi-choice","trial_index":219,"time_elapsed":2141221,"internal_node_id":"0.0-8.0-2.0"},{"rt":9791,"responses":"{\"Q0\":\"Lark Sparrow\"}","answer":["Lark Sparrow"],"trial_type":"image-multi-choice","trial_index":220,"time_elapsed":2152021,"internal_node_id":"0.0-8.0-3.0"},{"rt":4540,"responses":"{\"Q0\":\"Yellow Warbler\"}","answer":["Yellow Warbler"],"trial_type":"image-multi-choice","trial_index":221,"time_elapsed":2157567,"internal_node_id":"0.0-8.0-4.0"},{"rt":59666,"responses":"{\"Q0\":\"Tennessee Warbler\"}","answer":["Orange-crowned Warbler"],"trial_type":"image-multi-choice","trial_index":222,"time_elapsed":2218239,"internal_node_id":"0.0-8.0-5.0"},{"rt":11199,"responses":"{\"Q0\":\"White-throated Sparrow\"}","answer":["White-throated Sparrow"],"trial_type":"image-multi-choice","trial_index":223,"time_elapsed":2230445,"internal_node_id":"0.0-8.0-6.0"},{"rt":6800,"responses":"{\"Q0\":\"Fox Sparrow\"}","answer":["Fox Sparrow"],"trial_type":"image-multi-choice","trial_index":224,"time_elapsed":2238252,"internal_node_id":"0.0-8.0-7.0"},{"rt":13213,"responses":"{\"Q0\":\"Song Sparrow\"}","answer":["Song Sparrow"],"trial_type":"image-multi-choice","trial_index":225,"time_elapsed":2252473,"internal_node_id":"0.0-8.0-8.0"},{"rt":13495,"responses":"{\"Q0\":\"Magnolia Warbler\"}","answer":["Blackburnian Warbler"],"trial_type":"image-multi-choice","trial_index":226,"time_elapsed":2266973,"internal_node_id":"0.0-8.0-9.0"},{"rt":20864,"responses":"{\"Q0\":\"Vesper Sparrow\"}","answer":["Vesper Sparrow"],"trial_type":"image-multi-choice","trial_index":227,"time_elapsed":2288844,"internal_node_id":"0.0-8.0-10.0"},{"rt":5517,"responses":"{\"Q0\":\"White-crowned Sparrow\"}","answer":["White-crowned Sparrow"],"trial_type":"image-multi-choice","trial_index":228,"time_elapsed":2295369,"internal_node_id":"0.0-8.0-11.0"},{"rt":8903,"responses":"{\"Q0\":\"Chipping Sparrow\"}","answer":["American Tree Sparrow"],"trial_type":"image-multi-choice","trial_index":229,"time_elapsed":2305280,"internal_node_id":"0.0-8.0-12.0"},{"rt":75764,"responses":"{\"Q0\":\"Tennessee Warbler\"}","answer":["Tennessee Warbler"],"trial_type":"image-multi-choice","trial_index":230,"time_elapsed":2382050,"internal_node_id":"0.0-8.0-13.0"},{"rt":10829,"responses":"{\"Q0\":\"Townsend's Warbler\"}","answer":["Magnolia Warbler"],"trial_type":"image-multi-choice","trial_index":231,"time_elapsed":2393885,"internal_node_id":"0.0-8.0-14.0"},{"rt":10839,"responses":"{\"Q0\":\"Northern Waterthrush\"}","answer":["Northern Waterthrush"],"trial_type":"image-multi-choice","trial_index":232,"time_elapsed":2405731,"internal_node_id":"0.0-8.0-15.0"},{"rt":25476,"responses":"{\"Q0\":\"American Tree Sparrow\"}","answer":["Chipping Sparrow"],"trial_type":"image-multi-choice","trial_index":233,"time_elapsed":2432214,"internal_node_id":"0.0-8.0-16.0"},{"rt":11570,"responses":"{\"Q0\":\"Swamp Sparrow\"}","answer":["Swamp Sparrow"],"trial_type":"image-multi-choice","trial_index":234,"time_elapsed":2444792,"internal_node_id":"0.0-8.0-17.0"},{"rt":8858,"responses":"{\"Q0\":\"Lincoln's Sparrow\"}","answer":["Lincoln's Sparrow"],"trial_type":"image-multi-choice","trial_index":235,"time_elapsed":2454658,"internal_node_id":"0.0-8.0-18.0"},{"rt":20030,"responses":"{\"Q0\":\"Ovenbird\"}","answer":["Ovenbird"],"trial_type":"image-multi-choice","trial_index":236,"time_elapsed":2475695,"internal_node_id":"0.0-8.0-19.0"}]