"view_history","rt","trial_type","trial_index","time_elapsed","internal_node_id","sim_score","stimulus","responses","answer"
"[{""page_index"":0,""viewing_time"":25558}]","25559","instructions","0","25559","0.0-0.0","","","",""
"","10806","similarity_demo","1","37371","0.0-1.0","6","[""img/866.jpg"",""img/868.jpg""]","",""
"[{""page_index"":0,""viewing_time"":11147}]","11147","instructions","2","49519","0.0-2.0","","","",""
"","9212","similarity_demo","3","59736","0.0-3.0","1","[""img/766.jpg"",""img/867.jpg""]","",""
"[{""page_index"":0,""viewing_time"":5872}]","5872","instructions","4","66608","0.0-4.0","","","",""
"[{""page_index"":0,""viewing_time"":89236}]","89236","instructions","5","156845","0.0-5.0","","","",""
"","14432","similarity","6","172282","0.0-6.0-0.0","5","[""img/0868/6a28c3b0-3d76-498a-9fb7-ddafc665eca8.jpg"",""img/0901/71e551a2-9ce2-409c-9c7c-dd556a0791e9.jpg""]","",""
"","15826","similarity","7","189111","0.0-6.0-1.0","2","[""img/0769/da36e3f7-2337-434f-ab57-11822dd7eed7.jpg"",""img/0867/f26f6b60-f772-4f4c-95a4-addc62cfd692.jpg""]","",""
"","10054","similarity","8","200170","0.0-6.0-2.0","1","[""img/0766/3c526a07-9e0a-4ae2-8142-00085f0127da.jpg"",""img/0898/ec565187-2e31-4fdd-9a5c-153d0c789ae0.jpg""]","",""
"","5634","similarity","9","206807","0.0-6.0-3.0","5","[""img/0902/aa6fca32-82b0-4414-b20a-8f6f8aa5a2d2.jpg"",""img/0881/19e82c47-8e4b-45d2-a6c8-74181eb4155e.jpg""]","",""
"","4475","similarity","10","212286","0.0-6.0-4.0","1","[""img/0894/b422d5c6-3c5a-49ae-a53e-7e88ac993f49.jpg"",""img/0894/133a1636-d123-4893-873c-1718050f832a.jpg""]","",""
"","4824","similarity","11","218113","0.0-6.0-5.0","6","[""img/0874/3ce41e7c-40c8-4d58-a546-171114521796.jpg"",""img/0899/a048912c-b12c-40e3-90af-46b69b0cc4fe.jpg""]","",""
"","5904","similarity","12","225021","0.0-6.0-6.0","5","[""img/0904/b5855d6a-7ef9-46ca-9215-6e9fa046e543.jpg"",""img/0764/03c07b98-3f18-4b71-bb70-ecff564a78d1.jpg""]","",""
"","4194","similarity","13","230218","0.0-6.0-7.0","5","[""img/0899/51a7a498-98c7-42d7-bca8-bc2d8f0b5831.jpg"",""img/0898/e167334e-cc1d-4986-b3b1-c7bc7da64baa.jpg""]","",""
"","4565","similarity","14","235787","0.0-6.0-8.0","2","[""img/0874/eba003b4-cdab-4eee-8bc3-f064c7d94165.jpg"",""img/0903/f45a103c-9bfe-49fd-ad96-bdd8d2589195.jpg""]","",""
"","4385","similarity","15","241176","0.0-6.0-9.0","5","[""img/0881/adc02f34-ce97-4aef-850f-00519df06fd7.jpg"",""img/0758/20497cbe-ddae-489e-86e2-ab06985ed07c.jpg""]","",""
"","3665","similarity","16","245845","0.0-6.0-10.0","6","[""img/0898/40f99fb2-64d2-4e72-8a7f-a1cf60741e69.jpg"",""img/0901/12da1841-e611-435c-9719-109413d536a8.jpg""]","",""
"","4746","similarity","17","251594","0.0-6.0-11.0","6","[""img/0903/43ffd882-077a-40dd-a264-e58d519420a1.jpg"",""img/0769/878531fd-e0e8-4ad1-b9ad-f018bb104ca0.jpg""]","",""
"","4059","similarity","18","256656","0.0-6.0-12.0","2","[""img/0764/55b3fab1-b809-4d38-a461-3f40ce062f52.jpg"",""img/0868/fd307a36-9a3a-47d7-ab7c-f810d0b35040.jpg""]","",""
"","4273","similarity","19","261932","0.0-6.0-13.0","6","[""img/0867/50a1b60e-3a29-44bf-b606-d4bd3746fea9.jpg"",""img/0903/3e9ee8a5-eb66-47f5-8973-8a5af1ddc87e.jpg""]","",""
"","4385","similarity","20","267321","0.0-6.0-14.0","6","[""img/0766/0025de5e-f620-4079-8a0f-00326ff3a6b0.jpg"",""img/0758/7fba58df-2a7a-4b76-8a8f-62739f97f271.jpg""]","",""
"","3406","similarity","21","271731","0.0-6.0-15.0","7","[""img/0902/9f543501-3cf1-45a7-a2f1-eeca87cc15b9.jpg"",""img/0860/8a92e21b-6a32-4e4a-a445-2d5a487ed0a4.jpg""]","",""
"","5511","similarity","22","278245","0.0-6.0-16.0","5","[""img/0769/bb8c4e53-6f32-4814-97ee-392d4decfb2e.jpg"",""img/0875/42910c99-5463-450a-a0f8-d4d060a11455.jpg""]","",""
"","11349","similarity","23","290597","0.0-6.0-17.0","2","[""img/0904/96e503ea-6630-4996-85f2-0237688ce441.jpg"",""img/0866/945c6710-d15b-4a5b-a8f6-69af0850357f.jpg""]","",""
"","4251","similarity","24","295851","0.0-6.0-18.0","6","[""img/0875/cff79b3a-a797-4393-9757-6275f999ec04.jpg"",""img/0875/e7e66b13-b573-431e-b85e-288ce04a35a3.jpg""]","",""
"","5759","similarity","25","302613","0.0-6.0-19.0","7","[""img/0758/3ddd05d3-557e-4ee7-8b78-9d2d681d8ae2.jpg"",""img/0758/67c0be2f-9e91-48b3-8219-70ac0a1802fa.jpg""]","",""
"","4846","similarity","26","308462","0.0-6.0-20.0","6","[""img/0902/22ed3536-288b-452e-9777-0fa0ab94deb0.jpg"",""img/0874/3f471690-9788-4d03-90c7-f615aecef149.jpg""]","",""
"","5792","similarity","27","315257","0.0-6.0-21.0","6","[""img/0764/7f4ee8e3-9315-4a57-be7d-db8454b33766.jpg"",""img/0769/8056889f-2b14-4782-bb25-b4e8896ab65b.jpg""]","",""
"","7244","similarity","28","323504","0.0-6.0-22.0","5","[""img/0901/b453df0b-4c39-49bb-8ced-6127efffa898.jpg"",""img/0874/995f0332-0439-4eb4-add3-957335dbf6d9.jpg""]","",""
"","4487","similarity","29","328994","0.0-6.0-23.0","6","[""img/0875/a4935837-7d3c-4df6-88c1-36a94d4991ca.jpg"",""img/0903/0a92ec52-4e87-410a-857a-4455cde56a70.jpg""]","",""
"","4386","similarity","30","334382","0.0-6.0-24.0","3","[""img/0769/3adfa417-3b90-4aab-b437-5eaa474189cb.jpg"",""img/0881/4da99fdd-1f40-4bbb-8e21-8833eef313f5.jpg""]","",""
"","4025","similarity","31","339411","0.0-6.0-25.0","3","[""img/0867/5e07b34d-b40f-4b1c-ac10-49975bace45f.jpg"",""img/0904/73920552-103b-4c9c-9ece-e0b8376b4504.jpg""]","",""
"","5184","similarity","32","345599","0.0-6.0-26.0","6","[""img/0860/94ef7afc-e0e6-4a15-98c6-0bfac82bc832.jpg"",""img/0881/b1a136f7-8511-4d3a-a0f6-3879acf1e1a1.jpg""]","",""
"","6310","similarity","33","352912","0.0-6.0-27.0","7","[""img/0866/d493a2c8-66eb-44b4-be02-2f327b700b7c.jpg"",""img/0866/8efcaa46-83ab-4dee-a35f-850402aa21ae.jpg""]","",""
"","5769","similarity","34","359684","0.0-6.0-28.0","6","[""img/0764/f64dfa83-333d-494c-87b5-73e942f1766e.jpg"",""img/0862/847e5208-38ec-4f36-949c-296cdd7424ee.jpg""]","",""
"","4171","similarity","35","364859","0.0-6.0-29.0","6","[""img/0904/63dd06dd-dccb-47ba-9740-eb33239e18a7.jpg"",""img/0758/61d64021-9214-4951-bdf8-f871f9827cf9.jpg""]","",""
"","4059","similarity","36","369922","0.0-6.0-30.0","6","[""img/0894/1b3888e6-cf36-4c4a-a039-187aa5cb71ac.jpg"",""img/0899/66bf4113-ee12-426c-84d2-ea410b6c803e.jpg""]","",""
"","5240","similarity","37","376165","0.0-6.0-31.0","6","[""img/0860/4a022222-056d-461c-ab02-39fac9647552.jpg"",""img/0904/9dd5708f-3f8b-46a9-b49f-2f2fab87b357.jpg""]","",""
"","3901","similarity","38","381070","0.0-6.0-32.0","7","[""img/0874/8cdb1c07-1c32-46d2-981c-3636560fa6e5.jpg"",""img/0881/44e09805-5a25-4f17-a716-4ad4a331b174.jpg""]","",""
"","5680","similarity","39","387753","0.0-6.0-33.0","6","[""img/0881/48ed65a5-471f-41af-86ec-3793805c116d.jpg"",""img/0899/06b0fc99-0581-461a-9913-d1a5a941ac61.jpg""]","",""
"","3981","similarity","40","392737","0.0-6.0-34.0","2","[""img/0866/23a224f3-2012-4fc8-8e0f-3c36f8de27fd.jpg"",""img/0862/e0f1a4e9-e1b6-45f7-af67-89f334e6630d.jpg""]","",""
"","3722","similarity","41","397462","0.0-6.0-35.0","2","[""img/0868/83b4350a-3b70-4cea-b7f5-b5b56f3050a8.jpg"",""img/0894/1a010553-d598-4b06-a772-81f1e7b3addb.jpg""]","",""
"","6230","similarity","42","404695","0.0-6.0-36.0","7","[""img/0860/b03b963d-949b-4d8d-b19c-4950c89eeca2.jpg"",""img/0860/fd4662f9-4c03-4d79-8593-06735e55a64b.jpg""]","",""
"","6828","similarity","43","412527","0.0-6.0-37.0","6","[""img/0862/5d887e9f-89e2-4ebc-80a0-6d46fe6480db.jpg"",""img/0864/4bd81bc6-c13d-46df-95a9-485886dc7c1b.jpg""]","",""
"","6994","similarity","44","420525","0.0-6.0-38.0","3","[""img/0766/6d32752d-aa05-40dc-9541-640b6e9d6fa1.jpg"",""img/0866/11a1d141-be5e-443c-98c1-a9d4d9e3dec0.jpg""]","",""
"","9009","similarity","45","430537","0.0-6.0-39.0","1","[""img/0875/5a7c4e35-6514-4e12-8879-d16071da4cd6.jpg"",""img/0898/a8f16b02-e19f-423b-86c3-a36562ae1f9b.jpg""]","",""
"","3889","similarity","46","435430","0.0-6.0-40.0","6","[""img/0766/ba35c0fc-4d5b-490d-959e-c94b279cdd02.jpg"",""img/0769/76eaa4a3-dfe9-4dc1-9efb-caebe86264e1.jpg""]","",""
"","4836","similarity","47","484154","0.0-6.0-41.0","5","[""img/0874/767f289c-9814-4496-803f-745cc8913d1f.jpg"",""img/0764/50f1b062-d608-4bc0-ab25-b872dcf2ed93.jpg""]","",""
"","4588","similarity","48","489746","0.0-6.0-42.0","1","[""img/0868/0d3abd3a-b6c3-4584-a9f7-e2da63748b3d.jpg"",""img/0902/3b243e54-0803-4c29-af42-4037c2118495.jpg""]","",""
"","11990","similarity","49","502740","0.0-6.0-43.0","1","[""img/0875/f87b67d7-c33e-40d1-b281-248c4be1cb6e.jpg"",""img/0899/25ae6ec8-9565-49fe-a8bb-8d0666f52716.jpg""]","",""
"","4115","similarity","50","507859","0.0-6.0-44.0","1","[""img/0866/bf14b5bd-fb55-47db-86b9-4f8aeb9a6dad.jpg"",""img/0860/5383b320-1518-4095-a58e-5cc1ae30b64c.jpg""]","",""
"","7456","similarity","51","516318","0.0-6.0-45.0","5","[""img/0766/91fc8c4d-862f-4d2b-b1a1-2db8d729b6b7.jpg"",""img/0903/b0df4094-a3be-4b5b-81bd-8d260f13f61b.jpg""]","",""
"","11282","similarity","52","528603","0.0-6.0-46.0","5","[""img/0901/bc47e078-bda4-40ed-b89a-bbd819164b95.jpg"",""img/0904/4e58005d-a2ec-4aaa-b199-445343561396.jpg""]","",""
"","13700","similarity","53","543307","0.0-6.0-47.0","1","[""img/0758/caa93da2-9edf-49fa-96b9-32dedd8f5078.jpg"",""img/0902/3f0eeac5-c996-4026-a376-563ce8f28521.jpg""]","",""
"","5229","similarity","54","549540","0.0-6.0-48.0","7","[""img/0764/f990b2e8-ecee-481e-be7c-0239fce350e2.jpg"",""img/0764/1def7b22-b054-4ec2-860b-73d25691823b.jpg""]","",""
"","5567","similarity","55","556110","0.0-6.0-49.0","1","[""img/0866/9b38d691-1802-4959-ab3f-fc902f0e4ea6.jpg"",""img/0902/af45fe42-178c-4c1a-99ef-256e87e3b092.jpg""]","",""
"","6759","similarity","56","563872","0.0-6.0-50.0","5","[""img/0764/39a9fc7e-b863-432c-9374-de43983f31a5.jpg"",""img/0758/e1ba5e53-addc-436a-b428-d34fc1b130dc.jpg""]","",""
"","4970","similarity","57","569846","0.0-6.0-51.0","7","[""img/0898/c3cecf20-f7fd-45fa-97d0-dc0a63e8d6c0.jpg"",""img/0894/a3d4170b-b7d8-40e3-955f-87e76ed745fc.jpg""]","",""
"","6106","similarity","58","576956","0.0-6.0-52.0","1","[""img/0875/dbdd643e-6d0e-4a5c-ab57-b9c29b9c981a.jpg"",""img/0866/02f5e6b9-52b7-448c-9708-5b460d0c9a23.jpg""]","",""
"","5476","similarity","59","583436","0.0-6.0-53.0","7","[""img/0904/06dacdc5-2206-4fb8-92b7-88042d22833c.jpg"",""img/0904/2f88ce53-02d0-4f95-a082-182c56a0eeb4.jpg""]","",""
"","4261","similarity","60","588701","0.0-6.0-54.0","7","[""img/0769/a1ce8d07-ba37-40de-bade-2778805521e0.jpg"",""img/0769/f6396414-6788-4d59-9683-de153298d89c.jpg""]","",""
"","6781","similarity","61","596486","0.0-6.0-55.0","6","[""img/0898/6cd3830b-d44e-4915-be2b-88d31424b91c.jpg"",""img/0758/dd559618-7f09-4a07-8018-d311c4a5ea29.jpg""]","",""
"","5780","similarity","62","603270","0.0-6.0-56.0","7","[""img/0769/f73c5138-2f4c-4354-981c-129dff9cc734.jpg"",""img/0902/0c760cc9-10ac-429e-8957-a7d51fc99683.jpg""]","",""
"","4555","similarity","63","608827","0.0-6.0-57.0","6","[""img/0864/a248adb3-c70b-4652-b7a3-776d2a1e904b.jpg"",""img/0881/14236cf2-6b95-48b8-9368-78af09d2d27f.jpg""]","",""
"","3755","similarity","64","613586","0.0-6.0-58.0","1","[""img/0758/eabcd7a8-56ad-4fd2-bc24-90f6b7b33265.jpg"",""img/0868/179a5502-ab5c-478e-8263-5a1fbcc101d2.jpg""]","",""
"","4205","similarity","65","618795","0.0-6.0-59.0","7","[""img/0862/92f0146c-20c4-482e-aef5-adb693790338.jpg"",""img/0769/4680bcc3-8fbc-4643-8f9a-12aa0e780b64.jpg""]","",""
"","5600","similarity","66","625399","0.0-6.0-60.0","6","[""img/0764/a86eed5b-d0af-4c3f-8c7a-26e98e98cf1a.jpg"",""img/0903/f1fa0f8d-e62b-4b4a-a174-31a0fabfe61b.jpg""]","",""
"","4195","similarity","67","630596","0.0-6.0-61.0","7","[""img/0899/4408c14d-c168-4a7d-96f6-bc87bfb58f83.jpg"",""img/0899/b45c550b-96c3-4255-ad59-48a2b4db1c1e.jpg""]","",""
"","14162","similarity","68","645762","0.0-6.0-62.0","3","[""img/0860/c7047cd2-7cc1-41b6-8a34-c0986774975f.jpg"",""img/0875/2e13d160-eea1-416b-aff1-d37ab99ecc1d.jpg""]","",""
"","10472","similarity","69","657237","0.0-6.0-63.0","2","[""img/0868/09a9ef4d-d000-4cfa-a6aa-ebec7c2edeb4.jpg"",""img/0874/a3bc679d-619f-4db6-bb68-116dcb757d9c.jpg""]","",""
"","5027","similarity","70","663267","0.0-6.0-64.0","1","[""img/0758/f61ecdf8-a7d4-4db0-b84d-be46f7cfaffc.jpg"",""img/0862/57b6f83f-c763-4858-830d-102f97bfefbf.jpg""]","",""
"","5634","similarity","71","669904","0.0-6.0-65.0","6","[""img/0904/da170c1b-9651-4f08-b231-2bdd1d9a046f.jpg"",""img/0898/5f699581-3853-4547-856c-12f419ba5af7.jpg""]","",""
"","3991","similarity","72","674899","0.0-6.0-66.0","1","[""img/0881/c843e210-bdfe-4a7c-8bbe-fcea1f90fe1c.jpg"",""img/0866/a04d37f0-99dd-478a-b6c6-58b215138f84.jpg""]","",""
"","4566","similarity","73","680468","0.0-6.0-67.0","1","[""img/0867/2e1a0b58-cdb1-4107-a14e-452530d7b9b0.jpg"",""img/0898/b3290bf9-215b-4b45-b21a-65bdf73f142f.jpg""]","",""
"","4016","similarity","74","685485","0.0-6.0-68.0","6","[""img/0902/b03fee99-d5ca-4bf8-871c-a4a743a39842.jpg"",""img/0764/06ea144f-f4f3-4a14-ba47-f20f35c561e0.jpg""]","",""
"","8874","similarity","75","695363","0.0-6.0-69.0","6","[""img/0875/34132396-d896-4c2d-8087-646dd867e769.jpg"",""img/0867/cc72ed48-7704-422c-86d6-467a1145287a.jpg""]","",""
"","4193","similarity","76","700560","0.0-6.0-70.0","7","[""img/0766/2746b119-4bba-463e-acf0-88136dc6600c.jpg"",""img/0764/c80b3e06-2ee3-4326-9678-340607eb5348.jpg""]","",""
"","5229","similarity","77","706793","0.0-6.0-71.0","1","[""img/0894/4739e06d-c31e-4bf1-bf91-c97fa9afb456.jpg"",""img/0867/ac1797e4-8afc-48fe-b252-86d1defb1cca.jpg""]","",""
"","5319","similarity","78","713116","0.0-6.0-72.0","1","[""img/0875/5a716432-c6ca-4b1c-955a-2b8ac25198ee.jpg"",""img/0764/e30dba15-e68a-4659-89db-e1654b52fe02.jpg""]","",""
"","4464","similarity","79","718583","0.0-6.0-73.0","7","[""img/0867/f8488a47-94ee-4166-952c-44e16cf172f6.jpg"",""img/0866/4a87911a-d5be-4d4e-ab8e-3d1f581bf507.jpg""]","",""
"","7546","similarity","80","727133","0.0-6.0-74.0","5","[""img/0903/4cbdc464-e562-4ec2-9bb6-15f894fdf528.jpg"",""img/0758/335851a0-a55b-46d8-ab05-8463eda48349.jpg""]","",""
"","3519","similarity","81","731655","0.0-6.0-75.0","1","[""img/0766/fd74fdbb-ea40-4f3a-a091-38d08dfd636e.jpg"",""img/0868/4e626425-63c8-484a-8a1d-e66ee4e0bef8.jpg""]","",""
"","4025","similarity","82","736684","0.0-6.0-76.0","7","[""img/0874/adf9a8f1-c40b-402b-b95b-1e85a54a7b62.jpg"",""img/0766/a754e4b6-5019-4cf4-8f58-34c20547a1f5.jpg""]","",""
"","4937","similarity","83","742625","0.0-6.0-77.0","1","[""img/0881/7e822106-76f7-4b10-a805-14dc68b2cfaf.jpg"",""img/0868/d98ca254-b195-477f-b57e-5760a2717db8.jpg""]","",""
"","5229","similarity","84","748857","0.0-6.0-78.0","1","[""img/0758/a085b443-b5d7-4cb2-9ad4-b9dab0fc23f1.jpg"",""img/0901/1b86f2fc-7a1d-4aa8-9252-114f92edef3b.jpg""]","",""
"","4476","similarity","85","754336","0.0-6.0-79.0","6","[""img/0881/c24f3051-eefa-42de-aba6-fccb56d93c70.jpg"",""img/0898/224c1572-56b9-4f16-a9e4-6f3bc9c114bd.jpg""]","",""
"","4588","similarity","86","759927","0.0-6.0-80.0","1","[""img/0867/85a96c62-548f-4994-9553-819e03c3135a.jpg"",""img/0758/d540bee6-b460-4c32-ac57-bc282742d7d4.jpg""]","",""
"","4216","similarity","87","765147","0.0-6.0-81.0","7","[""img/0769/3c1203c5-2ce7-466e-957a-8d77b5905460.jpg"",""img/0899/ddf96ade-692e-4602-bd22-dedbb46401bc.jpg""]","",""
"","3181","similarity","88","769332","0.0-6.0-82.0","7","[""img/0903/6b5dcc60-3ad3-4962-93e5-e6cf768477af.jpg"",""img/0903/47e39de8-6959-469f-8be9-6999a6db207c.jpg""]","",""
"","4273","similarity","89","1010836","0.0-6.0-83.0","3","[""img/0867/26611f4e-d694-4460-b7e2-43c62753ddc3.jpg"",""img/0766/db750ba0-ce04-46e1-b601-e1b80212bad2.jpg""]","",""
"","7210","similarity","90","1019049","0.0-6.0-84.0","1","[""img/0902/71c03003-03ef-4b0f-8229-e0c857150a5d.jpg"",""img/0867/98d8cd96-1476-4fe0-a3a3-04f875500a1b.jpg""]","",""
"","6231","similarity","91","1026284","0.0-6.0-85.0","2","[""img/0901/8bb79e82-9c43-4b6f-a655-40655519598b.jpg"",""img/0875/5a1e5100-0d94-4fec-bbe9-ca9894d2cf8e.jpg""]","",""
"","4846","similarity","92","1032133","0.0-6.0-86.0","1","[""img/0764/d7f3ac54-318a-4dac-a06b-62bed34d01a4.jpg"",""img/0866/c446214b-a368-4c65-ae39-ea46894256ab.jpg""]","",""
"","4487","similarity","93","1037623","0.0-6.0-87.0","6","[""img/0901/f1116359-1ff1-4638-b3b3-700918d36d18.jpg"",""img/0894/05161000-f476-499b-a878-c13c7f347fd9.jpg""]","",""
"","3958","similarity","94","1042585","0.0-6.0-88.0","6","[""img/0898/82231d4c-218b-4d0a-b50d-35a49b524e97.jpg"",""img/0769/38a88f69-28fd-4bbd-99f0-f4c02bfd3995.jpg""]","",""
"","6433","similarity","95","1050021","0.0-6.0-89.0","6","[""img/0769/11518cb3-13ea-4dd0-890c-30cfab728ade.jpg"",""img/0894/e2446cf5-cd48-486a-badc-76498e087fbe.jpg""]","",""
"","7356","similarity","96","1058380","0.0-6.0-90.0","7","[""img/0862/064818ee-13d5-4618-bb24-21c7368ea278.jpg"",""img/0874/93d1f8dc-acf2-4f03-bd8d-8ec35df276ed.jpg""]","",""
"","7153","similarity","97","1066536","0.0-6.0-91.0","6","[""img/0894/767a0eec-1064-46b1-b1aa-dfa02b0cd74e.jpg"",""img/0766/2da002a4-05c9-4f5c-9ed7-433b4183e273.jpg""]","",""
"","4644","similarity","98","1072184","0.0-6.0-92.0","1","[""img/0874/1016b306-087c-4afc-aa08-fa527b28dc76.jpg"",""img/0867/de92135f-5b65-4ed9-b245-188292c7c2f8.jpg""]","",""
"","6084","similarity","99","1079271","0.0-6.0-93.0","1","[""img/0899/56a605c3-d0a2-4215-89e1-779279d85a7c.jpg"",""img/0868/15dd6fd7-791e-4b53-b203-195d617521a4.jpg""]","",""
"","4037","similarity","100","1084311","0.0-6.0-94.0","6","[""img/0903/f10e9eb5-0c21-4a6a-944c-5f10a6d0fa4d.jpg"",""img/0862/fad1d7c1-8187-43c3-942a-0fc12183e48e.jpg""]","",""
"","5275","similarity","101","1090588","0.0-6.0-95.0","6","[""img/0899/1b3457ea-87d4-4946-a01c-aac1863ed46c.jpg"",""img/0766/f011ef45-fb48-44b8-8224-867ed2ccf786.jpg""]","",""
"","6332","similarity","102","1097924","0.0-6.0-96.0","7","[""img/0867/db7e032f-162b-46f5-ae67-2b29679adee4.jpg"",""img/0868/5fa7f9d0-f0e5-454c-8224-74d964818f56.jpg""]","",""
"","8402","similarity","103","1107329","0.0-6.0-97.0","3","[""img/0862/cdaed51d-9e2f-4807-801a-4663c40077e2.jpg"",""img/0901/443f2e59-199b-4f7b-9de9-c44ad97326a5.jpg""]","",""
"","6366","similarity","104","1114698","0.0-6.0-98.0","1","[""img/0875/d59ff733-eaff-4ee2-9443-06954dd0bcb6.jpg"",""img/0766/d3bab2fc-ddcc-40a0-bb72-c0d0ebe19978.jpg""]","",""
"","5476","similarity","105","1121177","0.0-6.0-99.0","6","[""img/0758/d57c2592-a317-4f63-91be-91a3a9afd222.jpg"",""img/0874/29830da7-be5f-44e5-b141-652a0ccf7269.jpg""]","",""
"","6243","similarity","106","1128422","0.0-6.0-100.0","2","[""img/0904/60d1a521-edf7-4696-9263-f21ac0e62a01.jpg"",""img/0868/3a62db2d-97e9-44a3-b8e3-a48c6f0e423b.jpg""]","",""
"","17413","similarity","107","1146839","0.0-6.0-101.0","2","[""img/0903/647ce311-8c71-479a-8361-961db1457139.jpg"",""img/0866/620cd1aa-0800-4414-8f6e-90342e7a99ad.jpg""]","",""
"","7603","similarity","108","1155445","0.0-6.0-102.0","5","[""img/0868/4a8a45ed-2c4f-421b-9564-409a33ecd26c.jpg"",""img/0769/8c7cf147-1780-4d5c-8ddf-5ea23ff03ac9.jpg""]","",""
"","4565","similarity","109","1161014","0.0-6.0-103.0","5","[""img/0902/ca3160ba-ad5d-459f-a1b6-8b4f3c85ecd5.jpg"",""img/0899/f95cbdb4-f804-4f5d-ad76-373ad343e658.jpg""]","",""
"","5904","similarity","110","1167921","0.0-6.0-104.0","3","[""img/0868/7b212364-ff5f-4e28-9241-7eb6ea00161b.jpg"",""img/0862/a0a3a7ba-7798-46a3-b4ca-05e1f6e581d0.jpg""]","",""
"","5060","similarity","111","1173985","0.0-6.0-105.0","5","[""img/0903/6a87dbad-9b8d-4ff5-9c41-03c9aa24f0c3.jpg"",""img/0894/bd34223a-2f66-4e16-9d18-193a746b69ff.jpg""]","",""
"","3418","similarity","112","1178406","0.0-6.0-106.0","6","[""img/0864/6f631579-acf1-415c-a42c-1207f62a8d99.jpg"",""img/0874/31e22c7c-99aa-40b1-bf03-dd73fa2df4d6.jpg""]","",""
"","3497","similarity","113","1182907","0.0-6.0-107.0","6","[""img/0862/fb26cb07-d5a9-4653-813c-f41609f26cd5.jpg"",""img/0902/c920f0e1-1c81-480f-a164-c77f2dc6ce9a.jpg""]","",""
"","5106","similarity","114","1189015","0.0-6.0-108.0","6","[""img/0904/09dac84f-3d1c-4445-a68e-d0389fdbf1e9.jpg"",""img/0903/12bd8657-92e6-4c36-a06c-597e7a1d51f3.jpg""]","",""
"","5724","similarity","115","1195743","0.0-6.0-109.0","7","[""img/0764/17b088f8-3053-4140-b544-d15654cc79ef.jpg"",""img/0864/b3c4e378-28f0-4699-9338-2a257b4bca04.jpg""]","",""
"","8481","similarity","116","1205227","0.0-6.0-110.0","3","[""img/0866/0207e9a2-7dbb-40b5-9459-b472aaeceb2a.jpg"",""img/0894/11674fa4-285d-44e2-939f-2228c6a64080.jpg""]","",""
"","7096","similarity","117","1213326","0.0-6.0-111.0","3","[""img/0899/66ab3178-c3fe-4455-ad17-d5952b08e018.jpg"",""img/0903/6138142e-c84e-45fc-9487-c974f3d4968a.jpg""]","",""
"","8582","similarity","118","1222912","0.0-6.0-112.0","3","[""img/0902/2db723b6-130f-454c-8c8d-88829edbcd65.jpg"",""img/0904/1d10df11-b5c8-4370-9a6b-097a7f965895.jpg""]","",""
"","7175","similarity","119","1231090","0.0-6.0-113.0","6","[""img/0864/0f537697-a314-47c3-a8cc-8df23b7e536c.jpg"",""img/0860/c47fdead-eb02-4989-b078-26f4852f44fe.jpg""]","",""
"","8930","similarity","120","1241024","0.0-6.0-114.0","3","[""img/0860/61fb959d-d4d9-4de4-9e4e-4fa62b4cfcd5.jpg"",""img/0899/d8f2dd94-570e-4e8c-a087-d96090fb9e8c.jpg""]","",""
"","4903","similarity","121","1246930","0.0-6.0-115.0","2","[""img/0881/6b1189e6-232d-4042-8885-16dc7b10e0d4.jpg"",""img/0903/005ad0de-4f52-433c-b515-dbe8d46184a3.jpg""]","",""
"","3959","similarity","122","1251892","0.0-6.0-116.0","1","[""img/0894/86201968-6e78-4d68-9b3a-d1692e066210.jpg"",""img/0874/a82926a3-0b43-4add-803c-d5f9ea7798ee.jpg""]","",""
"","4937","similarity","123","1257832","0.0-6.0-117.0","5","[""img/0881/f037e3b0-09cb-4a83-b2d9-6a71fe474e63.jpg"",""img/0862/eefa5588-9efd-4591-aa5f-a2e17c7d7bcc.jpg""]","",""
"","4172","similarity","124","1263007","0.0-6.0-118.0","5","[""img/0868/293079b8-7e0c-4afd-a390-1e5d35fe3ded.jpg"",""img/0875/3ecb367d-e9eb-4826-8aaa-7aa72fb98019.jpg""]","",""
"","5938","similarity","125","1269948","0.0-6.0-119.0","2","[""img/0860/5bff793e-cbd5-4d7e-b628-0ac2b0e30b64.jpg"",""img/0758/6cd8c362-ae2a-41eb-80a3-3a4f7ace1530.jpg""]","",""
"","5106","similarity","126","1276057","0.0-6.0-120.0","5","[""img/0864/3d4de670-b290-4285-9c3d-12a0e3af44e9.jpg"",""img/0875/8521fd58-3b1e-4dc5-97ae-804edfa6734a.jpg""]","",""
"","5556","similarity","127","1282615","0.0-6.0-121.0","5","[""img/0898/0c7dde4f-efce-4b7a-9387-6921635b7890.jpg"",""img/0866/386235d2-6857-41e7-88a8-25cfc3430025.jpg""]","",""
"","4172","similarity","128","1287791","0.0-6.0-122.0","5","[""img/0874/85eb9b8a-c4c6-4e5a-b8e7-363a87a82054.jpg"",""img/0904/6291eb43-c10c-4810-a36a-101d09868b04.jpg""]","",""
"","5398","similarity","129","1294192","0.0-6.0-123.0","3","[""img/0904/ba8e689e-9ca6-4608-a2a1-3b0940666ae6.jpg"",""img/0864/e8bd659f-aa43-4748-877e-3118e8b4e189.jpg""]","",""
"","3092","similarity","130","1298287","0.0-6.0-124.0","3","[""img/0894/7f2f31fd-6618-41c6-b65a-0fd8b2851bc9.jpg"",""img/0902/d5e25767-e8ec-45f3-ac0a-7b4a6f7a9edc.jpg""]","",""
"","4408","similarity","131","1359115","0.0-6.0-125.0","1","[""img/0868/77091fc7-a590-4ebb-b915-fdb2483a2399.jpg"",""img/0864/f92649a2-0590-4d31-9a7a-1bfb81666a2d.jpg""]","",""
"","6018","similarity","132","1366136","0.0-6.0-126.0","2","[""img/0899/fd9efb43-701f-4cd6-baaa-4c38315f4bdc.jpg"",""img/0866/f756f7d1-9ad8-4a34-9ef6-7a443d705bfe.jpg""]","",""
"","6939","similarity","133","1374078","0.0-6.0-127.0","5","[""img/0875/90da8d75-108a-44ad-b999-e21fee3860d3.jpg"",""img/0904/2fd488e9-960f-41f7-8a44-33375f7d5051.jpg""]","",""
"","4239","similarity","134","1379321","0.0-6.0-128.0","1","[""img/0867/c66898ba-b71b-4d50-84f9-f7f84853a98d.jpg"",""img/0899/0433d056-aa30-4f8a-9aa1-abbb951e4edd.jpg""]","",""
"","7333","similarity","135","1387657","0.0-6.0-129.0","2","[""img/0901/148b747a-7392-437e-8823-33053c5dff3f.jpg"",""img/0867/a749dddb-69f0-44a6-acdc-2bf295cf6dcc.jpg""]","",""
"","7715","similarity","136","1396376","0.0-6.0-130.0","5","[""img/0864/e02eddb5-f468-499c-91bf-f7be3ffe979b.jpg"",""img/0769/6c0bac4c-5f59-43c7-898c-3ca93cf55cfe.jpg""]","",""
"","12227","similarity","137","1409606","0.0-6.0-131.0","3","[""img/0903/b548d383-2a95-4575-8c13-647873751ff1.jpg"",""img/0868/e0aff734-077f-40dd-9781-74821abd3621.jpg""]","",""
"","9280","similarity","138","1419889","0.0-6.0-132.0","2","[""img/0864/1ebbc554-99fa-49f9-8799-317375a79820.jpg"",""img/0867/075e0f95-856b-4cbb-acf5-092393aaf04e.jpg""]","",""
"","6883","similarity","139","1427775","0.0-6.0-133.0","6","[""img/0901/3db47171-0139-4235-82cd-0b1787b6775f.jpg"",""img/0860/29a21a9f-54bb-4093-ad3f-04823ceaa89f.jpg""]","",""
"","12373","similarity","140","1441151","0.0-6.0-134.0","3","[""img/0881/db77fe00-aeb0-4d1d-aa66-f3a96fd077e4.jpg"",""img/0766/dd3e18d0-0c98-4d05-b850-69976ee8cd75.jpg""]","",""
"","4104","similarity","141","1446259","0.0-6.0-135.0","3","[""img/0903/a0673b55-6040-47fe-9040-24bca27ca3c9.jpg"",""img/0864/da39ad34-04e0-40d4-a724-c08d53e0ea09.jpg""]","",""
"","4723","similarity","142","1451985","0.0-6.0-136.0","3","[""img/0758/a709631e-3705-4725-ac40-f0d916924f08.jpg"",""img/0894/2217bdcd-23a7-42d3-823b-23f2488d7e87.jpg""]","",""
"","3464","similarity","143","1456451","0.0-6.0-137.0","3","[""img/0769/3c1efec9-f8fd-487d-8955-4be88e48c832.jpg"",""img/0860/99c589b9-9140-4d17-90c0-b344323edcda.jpg""]","",""
"","4419","similarity","144","1461874","0.0-6.0-138.0","5","[""img/0904/56e73f28-7e64-489b-a161-e6b1a063878d.jpg"",""img/0766/09f646c8-a69e-4ed3-879c-8d29b04ad7f9.jpg""]","",""
"","5083","similarity","145","1467960","0.0-6.0-139.0","2","[""img/0868/1a62b2b2-18f5-466e-b564-5176a57c565e.jpg"",""img/0860/9593362c-9fe5-4d12-9735-6000a11f6aa5.jpg""]","",""
"","7165","similarity","146","1476128","0.0-6.0-140.0","2","[""img/0758/b76ceca7-95ac-46e4-ac13-da02c8e93be9.jpg"",""img/0864/0116ca98-293d-4fa6-a93b-5a6144ef64cc.jpg""]","",""
"","5600","similarity","147","1482731","0.0-6.0-141.0","6","[""img/0867/8ba0c5a7-c7e4-42cf-a80a-543763b90779.jpg"",""img/0867/bf560d4f-dee3-4f11-a385-705cc1aa5f3c.jpg""]","",""
"","3576","similarity","148","1487310","0.0-6.0-142.0","6","[""img/0898/01bfe666-3510-4fc7-964f-d00d28732dc8.jpg"",""img/0898/04e39a7a-fcf6-4156-ab0e-f5871f335e1c.jpg""]","",""
"","3654","similarity","149","1491968","0.0-6.0-143.0","2","[""img/0866/a15b02be-11bb-43e3-b0e0-ecc3bd7dfc49.jpg"",""img/0769/4a1d0b52-3fe8-40fb-bb1c-c814fe49a68c.jpg""]","",""
"","14117","similarity","150","1507088","0.0-6.0-144.0","2","[""img/0860/17b44a7d-c5ca-479f-9e87-f65a64f5c80e.jpg"",""img/0898/993d8f2d-bef7-4251-a193-0f93a32b7763.jpg""]","",""
"","5759","similarity","151","1513849","0.0-6.0-145.0","2","[""img/0766/fd064894-7147-4af5-97e9-2089d5472656.jpg"",""img/0864/5f74a653-3bdc-4308-8cca-ac667dc22e1f.jpg""]","",""
"","5364","similarity","152","1520217","0.0-6.0-146.0","6","[""img/0860/8277806e-b684-4474-8f7b-3fca946d7d4f.jpg"",""img/0903/d987e220-f3e6-4b6d-a270-fe6757041f6d.jpg""]","",""
"","6377","similarity","153","1527597","0.0-6.0-147.0","2","[""img/0867/1719a35d-f085-48c0-9099-16c94fe418b4.jpg"",""img/0764/0e7ed062-f798-4366-8a24-6f430926f919.jpg""]","",""
"","5061","similarity","154","1533660","0.0-6.0-148.0","6","[""img/0769/14d393ce-e5be-4ca1-86ce-cc27d4b6074c.jpg"",""img/0904/5aec2708-cf14-4a58-aa30-9a8a61c1be0e.jpg""]","",""
"","4948","similarity","155","1539612","0.0-6.0-149.0","2","[""img/0764/bd2eaa3e-95a9-4a59-a78e-3f81c766eea9.jpg"",""img/0901/a6c90438-fa7c-4418-ac7c-16c2e772dd98.jpg""]","",""
"","5803","similarity","156","1546418","0.0-6.0-150.0","6","[""img/0904/696ebb60-8891-417a-91fd-c53218907a95.jpg"",""img/0899/7f9d45d0-b2c6-40d3-aa41-c207db2c411b.jpg""]","",""
"","5421","similarity","157","1552842","0.0-6.0-151.0","1","[""img/0862/1c20f772-3a51-4a80-aac0-f57dc9f86c28.jpg"",""img/0867/6e19c858-b606-45b2-a4c6-910a73f1d82c.jpg""]","",""
"","5162","similarity","158","1559007","0.0-6.0-152.0","7","[""img/0766/a1ed3f0f-e338-4a26-8fe4-4370f0c9fa6e.jpg"",""img/0766/60033a74-9919-47e5-913c-71d0d483e7e5.jpg""]","",""
"","7041","similarity","159","1567051","0.0-6.0-153.0","6","[""img/0862/4f0a3b4c-afbf-486e-b248-1d54982f54b4.jpg"",""img/0894/6b2e9509-8699-42b7-9582-7741df0ba2d7.jpg""]","",""
"","5589","similarity","160","1573643","0.0-6.0-154.0","2","[""img/0899/00715b3f-851b-420b-a26b-d7f79f7759a9.jpg"",""img/0901/f469cb1d-6d81-4a45-bab5-cd0b650c2b4f.jpg""]","",""
"","4172","similarity","161","1578818","0.0-6.0-155.0","7","[""img/0874/c0378dac-9370-439a-8b79-db27c96fb390.jpg"",""img/0874/2c9464dd-8a23-4baa-ac94-1ba3af5c15cc.jpg""]","",""
"","4587","similarity","162","1584409","0.0-6.0-156.0","2","[""img/0860/702bd09d-df3a-40aa-a267-5f04474305b5.jpg"",""img/0867/a498eef3-9fa4-4ab2-9778-4ae82ac40dc5.jpg""]","",""
"","5116","similarity","163","1590529","0.0-6.0-157.0","2","[""img/0901/233a6948-48eb-4b67-8259-222b916b2322.jpg"",""img/0881/7e31e5dc-2240-4b1b-b5a0-3acd980099ef.jpg""]","",""
"","4173","similarity","164","1595705","0.0-6.0-158.0","6","[""img/0903/b4a0f61e-a964-4b79-a9a7-f767a8f92f34.jpg"",""img/0902/95a36b6b-9601-4fa5-8fd9-606ea62f9425.jpg""]","",""
"","8537","similarity","165","1605245","0.0-6.0-159.0","2","[""img/0860/4c530c3c-6aab-492a-94d1-9c01797bde40.jpg"",""img/0764/d7c215ab-ea9a-45be-8d5f-417d5b9a8a17.jpg""]","",""
"","4206","similarity","166","1610453","0.0-6.0-160.0","6","[""img/0902/5b45a7a0-81c8-4a71-aaa2-2ce09adb5a29.jpg"",""img/0875/fb732ab5-013a-4366-9f65-27811ed157e9.jpg""]","",""
"","4588","similarity","167","1616045","0.0-6.0-161.0","5","[""img/0898/8605a25b-6895-476d-8c13-df7a83f96093.jpg"",""img/0862/00c06b00-3b73-44e9-bc1e-c5aafb438321.jpg""]","",""
"","3497","similarity","168","1620545","0.0-6.0-162.0","5","[""img/0894/9b1333fd-3561-43bf-aee5-99b7b7ca3dc3.jpg"",""img/0875/03c3c331-738b-4446-af92-3d7386b08c2e.jpg""]","",""
"","4307","similarity","169","1625855","0.0-6.0-163.0","5","[""img/0866/07c9c966-3c8d-40e7-8128-92b2acbaed5d.jpg"",""img/0864/3651d070-2fc5-4848-b6a6-088a2d9ac5c9.jpg""]","",""
"","3407","similarity","170","1630265","0.0-6.0-164.0","5","[""img/0766/717fd72f-a281-499b-a5ba-5e2ecc4d4866.jpg"",""img/0862/53a9cf7c-93c4-41b9-952f-07d17f7a17b2.jpg""]","",""
"","5263","similarity","171","1636531","0.0-6.0-165.0","1","[""img/0866/d266fece-59b3-46fa-b69f-96f6efb81b59.jpg"",""img/0874/7e4f2150-3b59-4a36-b5da-a4e0ba410531.jpg""]","",""
"","5050","similarity","172","1642584","0.0-6.0-166.0","3","[""img/0862/47ed5efd-4ec9-4b74-bb4e-a5f5cf0c3e7d.jpg"",""img/0860/f44ba3fb-03a2-42f0-8509-2c1ded493086.jpg""]","",""
"","5049","similarity","173","1768493","0.0-6.0-167.0","3","[""img/0766/5d1b8041-c5a1-4b02-b4fe-3453d98a0d72.jpg"",""img/0901/a9b9c0a0-8aed-4888-a78a-65fb7e764d13.jpg""]","",""
"","6771","similarity","174","1776268","0.0-6.0-168.0","7","[""img/0862/99a99e39-8355-44ec-b993-e7bcec111e1c.jpg"",""img/0862/ad593cc7-cabe-4bb7-8e14-8a447a0717b4.jpg""]","",""
"","4161","similarity","175","1781431","0.0-6.0-169.0","3","[""img/0894/661b9f9f-4bde-487a-b1ed-87085fde6948.jpg"",""img/0764/ec2dd087-c471-4370-b570-95a542506a96.jpg""]","",""
"","4149","similarity","176","1786584","0.0-6.0-170.0","5","[""img/0874/99f6563c-8a8d-4c1c-a41d-667b618c3fd5.jpg"",""img/0898/81b08535-2020-4c15-9ce4-2f1e460755ae.jpg""]","",""
"","7457","similarity","177","1795044","0.0-6.0-171.0","2","[""img/0860/e14d67c1-6d92-4f1e-9257-c8607159c19c.jpg"",""img/0766/535849cc-ff5d-4df9-8f31-0ce94a97d571.jpg""]","",""
"","5815","similarity","178","1801862","0.0-6.0-172.0","5","[""img/0898/a114b375-cb89-44ba-9498-74213f1ecdee.jpg"",""img/0864/6e846d43-94a6-4b37-a268-65eda979f052.jpg""]","",""
"","3441","similarity","179","1806305","0.0-6.0-173.0","5","[""img/0881/e046471a-35b4-4159-bbf7-3cfd201bef66.jpg"",""img/0764/974d52cc-6318-4e7a-b294-2f3e92ff800f.jpg""]","",""
"","9290","similarity","180","1816599","0.0-6.0-174.0","3","[""img/0898/cd3aaa3f-efa9-4ab3-8d6f-a6a9273ddf42.jpg"",""img/0868/8b0b8473-e2c0-4331-aa56-c3a5c29369da.jpg""]","",""
"","5196","similarity","181","1822798","0.0-6.0-175.0","7","[""img/0864/66091c27-e588-4476-8af9-265dc6be4156.jpg"",""img/0864/5f33e097-23e3-4002-882d-76e8cb15f451.jpg""]","",""
"","5352","similarity","182","1829154","0.0-6.0-176.0","6","[""img/0899/57476fed-5962-4272-8fc9-b317bb777b54.jpg"",""img/0862/f43ceabf-acc1-4107-b857-5d1849808f93.jpg""]","",""
"","8863","similarity","183","1839020","0.0-6.0-177.0","5","[""img/0875/ebf7653f-ff45-4e9f-af58-2c042ab3cd2b.jpg"",""img/0758/6e95579b-5166-487c-b8cb-e417c6a218e3.jpg""]","",""
"","4869","similarity","184","1844893","0.0-6.0-178.0","1","[""img/0866/6f2a90d7-14f1-4f1b-bd64-fc0af6b9fe44.jpg"",""img/0901/a2d7b2f6-396b-4d91-8403-de5361c74af7.jpg""]","",""
"","5139","similarity","185","1851036","0.0-6.0-179.0","3","[""img/0769/7c50e5f5-cc38-4d48-b009-fbe17bcea61c.jpg"",""img/0874/ca76a855-4e77-4f2f-872a-0a718153e7ed.jpg""]","",""
"","6523","similarity","186","1858562","0.0-6.0-180.0","3","[""img/0875/99698b4d-b4a1-44bc-8c83-8ea755bbbf61.jpg"",""img/0881/33d65d80-8a8e-4ecf-852d-0ad7725c17a2.jpg""]","",""
"","7412","similarity","187","1866977","0.0-6.0-181.0","5","[""img/0866/93a27239-8317-4e08-98ca-d8b1ff298e07.jpg"",""img/0868/d6d1f30d-4323-435a-b194-7892521bc57e.jpg""]","",""
"","6961","similarity","188","1874942","0.0-6.0-182.0","5","[""img/0899/ad8268c5-8199-48d0-ad70-c5b6d6c599ec.jpg"",""img/0758/7ee8bc8f-c40b-4b3a-84ec-3e83580622d4.jpg""]","",""
"","8301","similarity","189","1884246","0.0-6.0-183.0","3","[""img/0874/ca23d307-fc00-4d7d-9106-584c6eb21b4d.jpg"",""img/0875/2c361b79-c3d1-4eda-812e-bf03192407bf.jpg""]","",""
"","4903","similarity","190","1890152","0.0-6.0-184.0","3","[""img/0904/e9423a8c-f946-43ad-ab7b-931acef870e2.jpg"",""img/0862/f188d4f0-76a4-4102-818c-a209969d73a5.jpg""]","",""
"","5758","similarity","191","1896913","0.0-6.0-185.0","5","[""img/0902/168ebd47-9e82-4ab7-a18b-c3da85072db8.jpg"",""img/0766/33aa9ebb-c9f5-418f-8c8b-c77861889568.jpg""]","",""
"","6243","similarity","192","1904158","0.0-6.0-186.0","5","[""img/0758/9fb5b2fe-3f00-4fe6-973c-1ce10d5f4cd5.jpg"",""img/0769/aad494cc-674d-4a08-9bfa-24a88ebe3c79.jpg""]","",""
"","5994","similarity","193","1911156","0.0-6.0-187.0","7","[""img/0881/405484ae-0d00-4b05-bc57-6420a36adfac.jpg"",""img/0881/f62bdcd1-a4b7-4d48-83da-d9c9e01c8727.jpg""]","",""
"","6321","similarity","194","1918480","0.0-6.0-188.0","2","[""img/0758/e38fd80d-18d0-42f3-b848-f930788e8bd7.jpg"",""img/0866/be24ab58-230e-4db8-9f45-ff04c9aec6bb.jpg""]","",""
"","5252","similarity","195","1924735","0.0-6.0-189.0","5","[""img/0764/5c8fbafc-e62e-43ed-9b37-f73e8e45147d.jpg"",""img/0898/26c41340-15bd-4ead-8fe4-c0d0ddca09c2.jpg""]","",""
"","5454","similarity","196","1931192","0.0-6.0-190.0","5","[""img/0903/9b60ef5b-234f-4239-892b-3d4c412accc2.jpg"",""img/0901/58ec7fa9-b466-4651-90aa-c082df0972de.jpg""]","",""
"","6400","similarity","197","1938595","0.0-6.0-191.0","6","[""img/0902/e5a46bda-30d1-41ca-b36d-b8529b5a63d1.jpg"",""img/0898/08c72dac-f8ad-407a-9ce6-8c9a5d679c3a.jpg""]","",""
"","9774","similarity","198","1949372","0.0-6.0-192.0","2","[""img/0864/e336a4c5-6648-4fd7-b2f6-93a3fb83f8c6.jpg"",""img/0901/5b97abf9-f0c8-4fd1-b921-36d574779078.jpg""]","",""
"","4060","similarity","199","1954435","0.0-6.0-193.0","5","[""img/0894/e6385e52-6c35-43bd-b0af-bc803d107b11.jpg"",""img/0881/ed4c971f-0873-4fc8-b6d6-e8bbd82f0bcc.jpg""]","",""
"","3373","similarity","200","1958811","0.0-6.0-194.0","6","[""img/0868/c8ac40c7-6904-4e13-8d61-c75d3052dc4e.jpg"",""img/0868/4bd5105a-d2c3-4f82-8c80-57196106ba53.jpg""]","",""
"","3361","similarity","201","1963176","0.0-6.0-195.0","6","[""img/0899/f58b8d2f-b19d-4b59-8b94-8834be92e4ba.jpg"",""img/0764/4bec8d92-75aa-475a-954d-8215dbe538f5.jpg""]","",""
"","3339","similarity","202","1967519","0.0-6.0-196.0","5","[""img/0881/d373cb9f-a719-4549-a2a4-82def79fb2a5.jpg"",""img/0904/2c98dc56-88d1-4fb5-a999-b6a7861f65f0.jpg""]","",""
"","5466","similarity","203","1973988","0.0-6.0-197.0","6","[""img/0864/c22faebd-9c53-47bc-ada3-b9a30c688e75.jpg"",""img/0902/bd89a85f-3853-4786-acd6-98818ee29f1c.jpg""]","",""
"","5072","similarity","204","1980062","0.0-6.0-198.0","7","[""img/0894/7fb082e0-ce79-485c-9109-04367fb32275.jpg"",""img/0904/9b3568cc-3cf7-42be-9df3-fdafde7a58b8.jpg""]","",""
"","3845","similarity","205","1984911","0.0-6.0-199.0","7","[""img/0901/da4fe30f-d12a-491e-96a2-5ab8ebaadd09.jpg"",""img/0901/b123d109-47b4-4f9a-80c9-9bb16da42efa.jpg""]","",""
"","5286","similarity","206","1991200","0.0-6.0-200.0","5","[""img/0894/6aa5545f-fa7d-4286-bbaa-aaf34dc7ec96.jpg"",""img/0860/18dfed73-e36b-4487-a8bd-0b8cff8e3668.jpg""]","",""
"","3733","similarity","207","1995936","0.0-6.0-201.0","6","[""img/0898/661621d4-a14e-487c-8c74-354134a29710.jpg"",""img/0903/365f176c-25a4-4973-bd3c-279bf1b39476.jpg""]","",""
"","7749","similarity","208","2004689","0.0-6.0-202.0","3","[""img/0864/ef9cbca0-4be8-435d-ad49-977259e80409.jpg"",""img/0894/a98416c0-51e2-4960-85da-d81d8688b9d5.jpg""]","",""
"","5173","similarity","209","2010865","0.0-6.0-203.0","3","[""img/0874/bf14b896-e930-4fd9-9c05-2e83317a2773.jpg"",""img/0860/4f695df5-afac-4da7-9875-fee39b0b24ad.jpg""]","",""
"","5500","similarity","210","2017368","0.0-6.0-204.0","2","[""img/0862/ba89835a-408c-480b-8594-ed4ffa97eb5c.jpg"",""img/0875/527ced51-8e53-4aab-ab05-86df219104c0.jpg""]","",""
"","3384","similarity","211","2021755","0.0-6.0-205.0","1","[""img/0867/179ab87a-8eac-4c52-a41f-2e48e3120f09.jpg"",""img/0881/4bd34581-94d8-4e88-8c89-5cef864ca3be.jpg""]","",""
"","3575","similarity","212","2026334","0.0-6.0-206.0","6","[""img/0901/7c16dd9c-44ad-4d5b-990c-6a0b9b48b1b1.jpg"",""img/0902/b56db912-c3c0-4fc2-b325-d640acd7cb58.jpg""]","",""
"","4791","similarity","213","2032127","0.0-6.0-207.0","6","[""img/0899/0adc0bc3-6fca-4078-be6f-d45ddf1653d5.jpg"",""img/0864/8ddd2e30-a1d0-479f-9cbe-591213023893.jpg""]","",""
"","6231","similarity","214","2039361","0.0-6.0-208.0","2","[""img/0901/04a53755-6da5-44d4-a7a6-48a6bc0a2280.jpg"",""img/0769/48a1144d-fbda-4809-991b-fc8424a32ee4.jpg""]","",""
"","6039","similarity","215","2053536","0.0-6.0-209.0","7","[""img/0902/8065aa6b-4aef-4368-afa2-02c6465ca582.jpg"",""img/0902/31abfa33-7cdb-44ad-968e-9f7b324d577a.jpg""]","",""
"[{""page_index"":0,""viewing_time"":7706}]","7706","instructions","216","2062243","0.0-7.0","","","",""
"","38696","image-multi-choice","217","2101948","0.0-8.0-0.0","","","{""Q0"":""Orange-crowned Warbler""}","Nashville Warbler"
"","23044","image-multi-choice","218","2126000","0.0-8.0-1.0","","","{""Q0"":""Black-and-white Warbler""}","Black-and-white Warbler"
"","14215","image-multi-choice","219","2141221","0.0-8.0-2.0","","","{""Q0"":""Townsend's Warbler""}","Townsend's Warbler"
"","9791","image-multi-choice","220","2152021","0.0-8.0-3.0","","","{""Q0"":""Lark Sparrow""}","Lark Sparrow"
"","4540","image-multi-choice","221","2157567","0.0-8.0-4.0","","","{""Q0"":""Yellow Warbler""}","Yellow Warbler"
"","59666","image-multi-choice","222","2218239","0.0-8.0-5.0","","","{""Q0"":""Tennessee Warbler""}","Orange-crowned Warbler"
"","11199","image-multi-choice","223","2230445","0.0-8.0-6.0","","","{""Q0"":""White-throated Sparrow""}","White-throated Sparrow"
"","6800","image-multi-choice","224","2238252","0.0-8.0-7.0","","","{""Q0"":""Fox Sparrow""}","Fox Sparrow"
"","13213","image-multi-choice","225","2252473","0.0-8.0-8.0","","","{""Q0"":""Song Sparrow""}","Song Sparrow"
"","13495","image-multi-choice","226","2266973","0.0-8.0-9.0","","","{""Q0"":""Magnolia Warbler""}","Blackburnian Warbler"
"","20864","image-multi-choice","227","2288844","0.0-8.0-10.0","","","{""Q0"":""Vesper Sparrow""}","Vesper Sparrow"
"","5517","image-multi-choice","228","2295369","0.0-8.0-11.0","","","{""Q0"":""White-crowned Sparrow""}","White-crowned Sparrow"
"","8903","image-multi-choice","229","2305280","0.0-8.0-12.0","","","{""Q0"":""Chipping Sparrow""}","American Tree Sparrow"
"","75764","image-multi-choice","230","2382050","0.0-8.0-13.0","","","{""Q0"":""Tennessee Warbler""}","Tennessee Warbler"
"","10829","image-multi-choice","231","2393885","0.0-8.0-14.0","","","{""Q0"":""Townsend's Warbler""}","Magnolia Warbler"
"","10839","image-multi-choice","232","2405731","0.0-8.0-15.0","","","{""Q0"":""Northern Waterthrush""}","Northern Waterthrush"
"","25476","image-multi-choice","233","2432214","0.0-8.0-16.0","","","{""Q0"":""American Tree Sparrow""}","Chipping Sparrow"
"","11570","image-multi-choice","234","2444792","0.0-8.0-17.0","","","{""Q0"":""Swamp Sparrow""}","Swamp Sparrow"
"","8858","image-multi-choice","235","2454658","0.0-8.0-18.0","","","{""Q0"":""Lincoln's Sparrow""}","Lincoln's Sparrow"
"","20030","image-multi-choice","236","2475695","0.0-8.0-19.0","","","{""Q0"":""Ovenbird""}","Ovenbird"
