[{"view_history":"[{\"page_index\":0,\"viewing_time\":13421}]","rt":13421,"trial_type":"instructions","trial_index":0,"time_elapsed":13422,"internal_node_id":"0.0-0.0"},{"sim_score":5,"rt":8871,"stimulus":"[\"img/866.jpg\",\"img/868.jpg\"]","trial_type":"similarity_demo","trial_index":1,"time_elapsed":23325,"internal_node_id":"0.0-1.0"},{"view_history":"[{\"page_index\":0,\"viewing_time\":5430}]","rt":5430,"trial_type":"instructions","trial_index":2,"time_elapsed":29768,"internal_node_id":"0.0-2.0"},{"sim_score":2,"rt":6842,"stimulus":"[\"img/766.jpg\",\"img/867.jpg\"]","trial_type":"similarity_demo","trial_index":3,"time_elapsed":37611,"internal_node_id":"0.0-3.0"},{"view_history":"[{\"page_index\":0,\"viewing_time\":4477}]","rt":4477,"trial_type":"instructions","trial_index":4,"time_elapsed":43098,"internal_node_id":"0.0-4.0"},{"view_history":"[{\"page_index\":0,\"viewing_time\":8317}]","rt":8317,"trial_type":"instructions","trial_index":5,"time_elapsed":52425,"internal_node_id":"0.0-5.0"},{"sim_score":2,"rt":5654,"stimulus":"[\"img/0868/6a28c3b0-3d76-498a-9fb7-ddafc665eca8.jpg\",\"img/0901/7d4a3388-488d-4e9b-9d32-9d0def7aae8d.jpg\"]","trial_type":"similarity","trial_index":6,"time_elapsed":59096,"internal_node_id":"0.0-6.0-0.0"},{"sim_score":2,"rt":6205,"stimulus":"[\"img/0769/7c50e5f5-cc38-4d48-b009-fbe17bcea61c.jpg\",\"img/0867/cc72ed48-7704-422c-86d6-467a1145287a.jpg\"]","trial_type":"similarity","trial_index":7,"time_elapsed":66311,"internal_node_id":"0.0-6.0-1.0"},{"sim_score":3,"rt":5937,"stimulus":"[\"img/0766/d5d38751-8fa5-476f-93e9-86ed2d9045ef.jpg\",\"img/0898/a114b375-cb89-44ba-9498-74213f1ecdee.jpg\"]","trial_type":"similarity","trial_index":8,"time_elapsed":73282,"internal_node_id":"0.0-6.0-2.0"},{"sim_score":7,"rt":6351,"stimulus":"[\"img/0902/bd89a85f-3853-4786-acd6-98818ee29f1c.jpg\",\"img/0881/f8bd891e-aa09-4782-89db-33e7cb2b0cf1.jpg\"]","trial_type":"similarity","trial_index":9,"time_elapsed":80640,"internal_node_id":"0.0-6.0-3.0"},{"sim_score":7,"rt":5230,"stimulus":"[\"img/0894/c505c65a-cde2-4f2c-8cde-f8676f7c894d.jpg\",\"img/0894/bd34223a-2f66-4e16-9d18-193a746b69ff.jpg\"]","trial_type":"similarity","trial_index":10,"time_elapsed":86881,"internal_node_id":"0.0-6.0-4.0"},{"sim_score":5,"rt":6012,"stimulus":"[\"img/0874/a82926a3-0b43-4add-803c-d5f9ea7798ee.jpg\",\"img/0899/f58b8d2f-b19d-4b59-8b94-8834be92e4ba.jpg\"]","trial_type":"similarity","trial_index":11,"time_elapsed":93903,"internal_node_id":"0.0-6.0-5.0"},{"sim_score":5,"rt":4860,"stimulus":"[\"img/0904/25365108-e038-4021-aac9-797f2063b337.jpg\",\"img/0764/cbdc4f20-3a9a-4211-9b40-090699e0abcc.jpg\"]","trial_type":"similarity","trial_index":12,"time_elapsed":99776,"internal_node_id":"0.0-6.0-6.0"},{"sim_score":1,"rt":5140,"stimulus":"[\"img/0899/9de5e857-aa9a-4e0c-8ba2-46d79bd069a4.jpg\",\"img/0898/c3cecf20-f7fd-45fa-97d0-dc0a63e8d6c0.jpg\"]","trial_type":"similarity","trial_index":13,"time_elapsed":105940,"internal_node_id":"0.0-6.0-7.0"},{"sim_score":1,"rt":6529,"stimulus":"[\"img/0874/2c9464dd-8a23-4baa-ac94-1ba3af5c15cc.jpg\",\"img/0903/c708d08f-a108-4e04-8288-c3fcf6375db4.jpg\"]","trial_type":"similarity","trial_index":14,"time_elapsed":113482,"internal_node_id":"0.0-6.0-8.0"},{"sim_score":5,"rt":5371,"stimulus":"[\"img/0881/4da99fdd-1f40-4bbb-8e21-8833eef313f5.jpg\",\"img/0758/53f35650-e455-4b53-8be4-c3c8271c6466.jpg\"]","trial_type":"similarity","trial_index":15,"time_elapsed":119856,"internal_node_id":"0.0-6.0-9.0"},{"sim_score":1,"rt":4017,"stimulus":"[\"img/0898/0c7dde4f-efce-4b7a-9387-6921635b7890.jpg\",\"img/0901/b9141736-3041-4385-a586-b1fe911c76a5.jpg\"]","trial_type":"similarity","trial_index":16,"time_elapsed":124881,"internal_node_id":"0.0-6.0-10.0"},{"sim_score":7,"rt":4797,"stimulus":"[\"img/0903/59defeb8-98bd-4570-a2f8-9bd189e68ef4.jpg\",\"img/0769/458d9c77-b844-40b5-bb1b-1e3bbd4da64e.jpg\"]","trial_type":"similarity","trial_index":17,"time_elapsed":130701,"internal_node_id":"0.0-6.0-11.0"},{"sim_score":1,"rt":3999,"stimulus":"[\"img/0764/d7c215ab-ea9a-45be-8d5f-417d5b9a8a17.jpg\",\"img/0868/4bd5105a-d2c3-4f82-8c80-57196106ba53.jpg\"]","trial_type":"similarity","trial_index":18,"time_elapsed":135717,"internal_node_id":"0.0-6.0-12.0"},{"sim_score":3,"rt":5554,"stimulus":"[\"img/0867/179ab87a-8eac-4c52-a41f-2e48e3120f09.jpg\",\"img/0903/3e9ee8a5-eb66-47f5-8973-8a5af1ddc87e.jpg\"]","trial_type":"similarity","trial_index":19,"time_elapsed":142275,"internal_node_id":"0.0-6.0-13.0"},{"sim_score":3,"rt":4163,"stimulus":"[\"img/0766/f5f78e4e-d88f-4866-951a-118ba9fec4d0.jpg\",\"img/0758/eabcd7a8-56ad-4fd2-bc24-90f6b7b33265.jpg\"]","trial_type":"similarity","trial_index":20,"time_elapsed":147451,"internal_node_id":"0.0-6.0-14.0"},{"sim_score":1,"rt":3886,"stimulus":"[\"img/0902/31abfa33-7cdb-44ad-968e-9f7b324d577a.jpg\",\"img/0860/524b2e98-5767-4d53-942c-ebae6925659b.jpg\"]","trial_type":"similarity","trial_index":21,"time_elapsed":152353,"internal_node_id":"0.0-6.0-15.0"},{"sim_score":1,"rt":3265,"stimulus":"[\"img/0769/48a1144d-fbda-4809-991b-fc8424a32ee4.jpg\",\"img/0875/8521fd58-3b1e-4dc5-97ae-804edfa6734a.jpg\"]","trial_type":"similarity","trial_index":22,"time_elapsed":156631,"internal_node_id":"0.0-6.0-16.0"},{"sim_score":1,"rt":3329,"stimulus":"[\"img/0904/06dacdc5-2206-4fb8-92b7-88042d22833c.jpg\",\"img/0866/4a87911a-d5be-4d4e-ab8e-3d1f581bf507.jpg\"]","trial_type":"similarity","trial_index":23,"time_elapsed":160974,"internal_node_id":"0.0-6.0-17.0"},{"sim_score":5,"rt":5404,"stimulus":"[\"img/0875/e7e66b13-b573-431e-b85e-288ce04a35a3.jpg\",\"img/0875/34132396-d896-4c2d-8087-646dd867e769.jpg\"]","trial_type":"similarity","trial_index":24,"time_elapsed":167387,"internal_node_id":"0.0-6.0-18.0"},{"sim_score":7,"rt":3500,"stimulus":"[\"img/0758/b76ceca7-95ac-46e4-ac13-da02c8e93be9.jpg\",\"img/0758/e1ba5e53-addc-436a-b428-d34fc1b130dc.jpg\"]","trial_type":"similarity","trial_index":25,"time_elapsed":171897,"internal_node_id":"0.0-6.0-19.0"},{"sim_score":5,"rt":4039,"stimulus":"[\"img/0902/82d20e8c-2162-47a6-925b-52906558c046.jpg\",\"img/0874/ca23d307-fc00-4d7d-9106-584c6eb21b4d.jpg\"]","trial_type":"similarity","trial_index":26,"time_elapsed":176956,"internal_node_id":"0.0-6.0-20.0"},{"sim_score":7,"rt":5181,"stimulus":"[\"img/0764/8740679b-b56f-4292-aece-14063457113a.jpg\",\"img/0769/ecda2fb3-556b-43ba-8a67-e87dd75ff2b4.jpg\"]","trial_type":"similarity","trial_index":27,"time_elapsed":183149,"internal_node_id":"0.0-6.0-21.0"},{"sim_score":1,"rt":3302,"stimulus":"[\"img/0901/effc03f6-8f9d-46db-a66c-16fc83891c5c.jpg\",\"img/0874/3ce41e7c-40c8-4d58-a546-171114521796.jpg\"]","trial_type":"similarity","trial_index":28,"time_elapsed":187461,"internal_node_id":"0.0-6.0-22.0"},{"sim_score":1,"rt":3819,"stimulus":"[\"img/0875/fb732ab5-013a-4366-9f65-27811ed157e9.jpg\",\"img/0903/f1fa0f8d-e62b-4b4a-a174-31a0fabfe61b.jpg\"]","trial_type":"similarity","trial_index":29,"time_elapsed":192293,"internal_node_id":"0.0-6.0-23.0"},{"sim_score":5,"rt":4546,"stimulus":"[\"img/0769/8598a429-c671-4d2f-842c-32f681f5e412.jpg\",\"img/0881/4bd34581-94d8-4e88-8c89-5cef864ca3be.jpg\"]","trial_type":"similarity","trial_index":30,"time_elapsed":197849,"internal_node_id":"0.0-6.0-24.0"},{"sim_score":1,"rt":3164,"stimulus":"[\"img/0867/f8159067-056c-41f1-a136-c529fe5e970a.jpg\",\"img/0904/4b8daf2a-13a9-4ea9-9e0b-b265b6e933e7.jpg\"]","trial_type":"similarity","trial_index":31,"time_elapsed":202036,"internal_node_id":"0.0-6.0-25.0"},{"sim_score":3,"rt":5517,"stimulus":"[\"img/0860/5383b320-1518-4095-a58e-5cc1ae30b64c.jpg\",\"img/0881/ed4c971f-0873-4fc8-b6d6-e8bbd82f0bcc.jpg\"]","trial_type":"similarity","trial_index":32,"time_elapsed":208558,"internal_node_id":"0.0-6.0-26.0"},{"sim_score":5,"rt":3756,"stimulus":"[\"img/0866/c446214b-a368-4c65-ae39-ea46894256ab.jpg\",\"img/0866/bf14b5bd-fb55-47db-86b9-4f8aeb9a6dad.jpg\"]","trial_type":"similarity","trial_index":33,"time_elapsed":213321,"internal_node_id":"0.0-6.0-27.0"},{"sim_score":1,"rt":3402,"stimulus":"[\"img/0764/62fafeea-6274-48ce-976f-35d3d3484c65.jpg\",\"img/0862/99a99e39-8355-44ec-b993-e7bcec111e1c.jpg\"]","trial_type":"similarity","trial_index":34,"time_elapsed":217741,"internal_node_id":"0.0-6.0-28.0"},{"sim_score":1,"rt":4299,"stimulus":"[\"img/0904/9dd5708f-3f8b-46a9-b49f-2f2fab87b357.jpg\",\"img/0758/e38fd80d-18d0-42f3-b848-f930788e8bd7.jpg\"]","trial_type":"similarity","trial_index":35,"time_elapsed":223058,"internal_node_id":"0.0-6.0-29.0"},{"sim_score":1,"rt":3381,"stimulus":"[\"img/0894/11674fa4-285d-44e2-939f-2228c6a64080.jpg\",\"img/0899/76ad07e2-ca25-45eb-84f2-8d80b8ca3e26.jpg\"]","trial_type":"similarity","trial_index":36,"time_elapsed":227446,"internal_node_id":"0.0-6.0-30.0"},{"sim_score":5,"rt":3700,"stimulus":"[\"img/0860/b03b963d-949b-4d8d-b19c-4950c89eeca2.jpg\",\"img/0904/6291eb43-c10c-4810-a36a-101d09868b04.jpg\"]","trial_type":"similarity","trial_index":37,"time_elapsed":232159,"internal_node_id":"0.0-6.0-31.0"},{"sim_score":2,"rt":4554,"stimulus":"[\"img/0874/99f6563c-8a8d-4c1c-a41d-667b618c3fd5.jpg\",\"img/0881/d373cb9f-a719-4549-a2a4-82def79fb2a5.jpg\"]","trial_type":"similarity","trial_index":38,"time_elapsed":237729,"internal_node_id":"0.0-6.0-32.0"},{"sim_score":5,"rt":4980,"stimulus":"[\"img/0881/b549bc99-a61c-4450-bab5-9efc3a197bf0.jpg\",\"img/0899/93494f3b-d539-4075-b027-d82e344563da.jpg\"]","trial_type":"similarity","trial_index":39,"time_elapsed":243718,"internal_node_id":"0.0-6.0-33.0"},{"sim_score":1,"rt":2911,"stimulus":"[\"img/0866/11a1d141-be5e-443c-98c1-a9d4d9e3dec0.jpg\",\"img/0862/ad593cc7-cabe-4bb7-8e14-8a447a0717b4.jpg\"]","trial_type":"similarity","trial_index":40,"time_elapsed":247639,"internal_node_id":"0.0-6.0-34.0"},{"sim_score":1,"rt":3308,"stimulus":"[\"img/0868/293079b8-7e0c-4afd-a390-1e5d35fe3ded.jpg\",\"img/0894/492d2f29-d7b9-4422-8be8-47fd58bfaa8b.jpg\"]","trial_type":"similarity","trial_index":41,"time_elapsed":251957,"internal_node_id":"0.0-6.0-35.0"},{"sim_score":5,"rt":4389,"stimulus":"[\"img/0860/99c589b9-9140-4d17-90c0-b344323edcda.jpg\",\"img/0860/d9a0d117-6d1d-41c0-8fec-9aff0fd9e9f2.jpg\"]","trial_type":"similarity","trial_index":42,"time_elapsed":257360,"internal_node_id":"0.0-6.0-36.0"},{"sim_score":5,"rt":4332,"stimulus":"[\"img/0862/fad1d7c1-8187-43c3-942a-0fc12183e48e.jpg\",\"img/0864/c22faebd-9c53-47bc-ada3-b9a30c688e75.jpg\"]","trial_type":"similarity","trial_index":43,"time_elapsed":262699,"internal_node_id":"0.0-6.0-37.0"},{"sim_score":1,"rt":3906,"stimulus":"[\"img/0766/d919cedb-f9b7-4f30-83bb-3e9c65001ceb.jpg\",\"img/0866/f756f7d1-9ad8-4a34-9ef6-7a443d705bfe.jpg\"]","trial_type":"similarity","trial_index":44,"time_elapsed":267623,"internal_node_id":"0.0-6.0-38.0"},{"sim_score":5,"rt":4056,"stimulus":"[\"img/0875/dbdd643e-6d0e-4a5c-ab57-b9c29b9c981a.jpg\",\"img/0898/68476bbb-34a1-42d9-8bc1-deab783d4489.jpg\"]","trial_type":"similarity","trial_index":45,"time_elapsed":272685,"internal_node_id":"0.0-6.0-39.0"},{"sim_score":5,"rt":4547,"stimulus":"[\"img/0766/2746b119-4bba-463e-acf0-88136dc6600c.jpg\",\"img/0769/6c0bac4c-5f59-43c7-898c-3ca93cf55cfe.jpg\"]","trial_type":"similarity","trial_index":46,"time_elapsed":278251,"internal_node_id":"0.0-6.0-40.0"},{"sim_score":5,"rt":3121,"stimulus":"[\"img/0874/767f289c-9814-4496-803f-745cc8913d1f.jpg\",\"img/0764/d7f3ac54-318a-4dac-a06b-62bed34d01a4.jpg\"]","trial_type":"similarity","trial_index":47,"time_elapsed":286617,"internal_node_id":"0.0-6.0-41.0"},{"sim_score":1,"rt":3388,"stimulus":"[\"img/0868/15dd6fd7-791e-4b53-b203-195d617521a4.jpg\",\"img/0902/962f645e-9b55-4628-9b50-c703422bfe1a.jpg\"]","trial_type":"similarity","trial_index":48,"time_elapsed":291015,"internal_node_id":"0.0-6.0-42.0"},{"sim_score":1,"rt":3335,"stimulus":"[\"img/0875/90da8d75-108a-44ad-b999-e21fee3860d3.jpg\",\"img/0899/25ae6ec8-9565-49fe-a8bb-8d0666f52716.jpg\"]","trial_type":"similarity","trial_index":49,"time_elapsed":295358,"internal_node_id":"0.0-6.0-43.0"},{"sim_score":1,"rt":3212,"stimulus":"[\"img/0866/9b38d691-1802-4959-ab3f-fc902f0e4ea6.jpg\",\"img/0860/15b24a61-25be-4356-9eac-5ce95d0cb4a4.jpg\"]","trial_type":"similarity","trial_index":50,"time_elapsed":299582,"internal_node_id":"0.0-6.0-44.0"},{"sim_score":1,"rt":2985,"stimulus":"[\"img/0766/26d3ae14-8275-4e08-99b2-a6598c193ddf.jpg\",\"img/0903/97a42b34-5462-4665-88c7-83c014b33d24.jpg\"]","trial_type":"similarity","trial_index":51,"time_elapsed":303587,"internal_node_id":"0.0-6.0-45.0"},{"sim_score":1,"rt":2784,"stimulus":"[\"img/0901/a2d7b2f6-396b-4d91-8403-de5361c74af7.jpg\",\"img/0904/24fc38fe-842c-4831-ad8a-b1de5c25c0a8.jpg\"]","trial_type":"similarity","trial_index":52,"time_elapsed":307381,"internal_node_id":"0.0-6.0-46.0"},{"sim_score":1,"rt":3091,"stimulus":"[\"img/0758/6cd8c362-ae2a-41eb-80a3-3a4f7ace1530.jpg\",\"img/0902/794606a0-d8a8-4e58-8bf8-9d114ed5a548.jpg\"]","trial_type":"similarity","trial_index":53,"time_elapsed":311486,"internal_node_id":"0.0-6.0-47.0"},{"sim_score":1,"rt":3409,"stimulus":"[\"img/0764/978aede9-4590-4ad0-b234-135c83e5d669.jpg\",\"img/0764/5c8fbafc-e62e-43ed-9b37-f73e8e45147d.jpg\"]","trial_type":"similarity","trial_index":54,"time_elapsed":315909,"internal_node_id":"0.0-6.0-48.0"},{"sim_score":1,"rt":2934,"stimulus":"[\"img/0866/6f2a90d7-14f1-4f1b-bd64-fc0af6b9fe44.jpg\",\"img/0902/1f4a4c62-68c1-4993-b213-05652a173ed1.jpg\"]","trial_type":"similarity","trial_index":55,"time_elapsed":319856,"internal_node_id":"0.0-6.0-49.0"},{"sim_score":5,"rt":4770,"stimulus":"[\"img/0764/c84fbfa8-521c-407a-9bd3-24f7308d896c.jpg\",\"img/0758/dd559618-7f09-4a07-8018-d311c4a5ea29.jpg\"]","trial_type":"similarity","trial_index":56,"time_elapsed":325649,"internal_node_id":"0.0-6.0-50.0"},{"sim_score":1,"rt":4059,"stimulus":"[\"img/0898/b2732712-71c2-45d8-834f-2b2ed5504910.jpg\",\"img/0894/2217bdcd-23a7-42d3-823b-23f2488d7e87.jpg\"]","trial_type":"similarity","trial_index":57,"time_elapsed":330709,"internal_node_id":"0.0-6.0-51.0"},{"sim_score":5,"rt":3168,"stimulus":"[\"img/0875/f87b67d7-c33e-40d1-b281-248c4be1cb6e.jpg\",\"img/0866/23a224f3-2012-4fc8-8e0f-3c36f8de27fd.jpg\"]","trial_type":"similarity","trial_index":58,"time_elapsed":334898,"internal_node_id":"0.0-6.0-52.0"},{"sim_score":5,"rt":3177,"stimulus":"[\"img/0904/0d17b811-063e-416e-a23c-3b3cfa4fcce5.jpg\",\"img/0904/5cceabc9-de1d-4c67-989b-c28a4ef77e79.jpg\"]","trial_type":"similarity","trial_index":59,"time_elapsed":339080,"internal_node_id":"0.0-6.0-53.0"},{"sim_score":7,"rt":3899,"stimulus":"[\"img/0769/35364db7-e0d5-40ef-93dc-faf9dfb95136.jpg\",\"img/0769/8c7cf147-1780-4d5c-8ddf-5ea23ff03ac9.jpg\"]","trial_type":"similarity","trial_index":60,"time_elapsed":343990,"internal_node_id":"0.0-6.0-54.0"},{"sim_score":1,"rt":3625,"stimulus":"[\"img/0898/993d8f2d-bef7-4251-a193-0f93a32b7763.jpg\",\"img/0758/d41c06bf-ebaf-454b-91c6-1a17f917b659.jpg\"]","trial_type":"similarity","trial_index":61,"time_elapsed":348629,"internal_node_id":"0.0-6.0-55.0"},{"sim_score":1,"rt":3185,"stimulus":"[\"img/0769/1afb527f-9887-428c-bd26-a12c2f9efb68.jpg\",\"img/0902/2db723b6-130f-454c-8c8d-88829edbcd65.jpg\"]","trial_type":"similarity","trial_index":62,"time_elapsed":352826,"internal_node_id":"0.0-6.0-56.0"},{"sim_score":5,"rt":4728,"stimulus":"[\"img/0864/5f74a653-3bdc-4308-8cca-ac667dc22e1f.jpg\",\"img/0881/633c6f40-56d9-4b48-bf1c-ecd83116eabb.jpg\"]","trial_type":"similarity","trial_index":63,"time_elapsed":358567,"internal_node_id":"0.0-6.0-57.0"},{"sim_score":1,"rt":2464,"stimulus":"[\"img/0758/67c0be2f-9e91-48b3-8219-70ac0a1802fa.jpg\",\"img/0868/4a8a45ed-2c4f-421b-9564-409a33ecd26c.jpg\"]","trial_type":"similarity","trial_index":64,"time_elapsed":362050,"internal_node_id":"0.0-6.0-58.0"},{"sim_score":1,"rt":2754,"stimulus":"[\"img/0862/5d887e9f-89e2-4ebc-80a0-6d46fe6480db.jpg\",\"img/0769/688d0c52-ad73-4065-a5eb-f8c10d076bff.jpg\"]","trial_type":"similarity","trial_index":65,"time_elapsed":365811,"internal_node_id":"0.0-6.0-59.0"},{"sim_score":1,"rt":3061,"stimulus":"[\"img/0764/713cc27e-2338-4486-bfe9-5f5725fbd7a0.jpg\",\"img/0903/12bd8657-92e6-4c36-a06c-597e7a1d51f3.jpg\"]","trial_type":"similarity","trial_index":66,"time_elapsed":369899,"internal_node_id":"0.0-6.0-60.0"},{"sim_score":6,"rt":4135,"stimulus":"[\"img/0899/fd9efb43-701f-4cd6-baaa-4c38315f4bdc.jpg\",\"img/0899/8de08897-b430-42fe-9d42-840670b80f94.jpg\"]","trial_type":"similarity","trial_index":67,"time_elapsed":375041,"internal_node_id":"0.0-6.0-61.0"},{"sim_score":1,"rt":2684,"stimulus":"[\"img/0860/8a92e21b-6a32-4e4a-a445-2d5a487ed0a4.jpg\",\"img/0875/5a716432-c6ca-4b1c-955a-2b8ac25198ee.jpg\"]","trial_type":"similarity","trial_index":68,"time_elapsed":378737,"internal_node_id":"0.0-6.0-62.0"},{"sim_score":1,"rt":2558,"stimulus":"[\"img/0868/4e626425-63c8-484a-8a1d-e66ee4e0bef8.jpg\",\"img/0874/7e4f2150-3b59-4a36-b5da-a4e0ba410531.jpg\"]","trial_type":"similarity","trial_index":69,"time_elapsed":382320,"internal_node_id":"0.0-6.0-63.0"},{"sim_score":5,"rt":3639,"stimulus":"[\"img/0758/a085b443-b5d7-4cb2-9ad4-b9dab0fc23f1.jpg\",\"img/0862/cdaed51d-9e2f-4807-801a-4663c40077e2.jpg\"]","trial_type":"similarity","trial_index":70,"time_elapsed":386979,"internal_node_id":"0.0-6.0-64.0"},{"sim_score":6,"rt":3962,"stimulus":"[\"img/0904/96e503ea-6630-4996-85f2-0237688ce441.jpg\",\"img/0898/e167334e-cc1d-4986-b3b1-c7bc7da64baa.jpg\"]","trial_type":"similarity","trial_index":71,"time_elapsed":391947,"internal_node_id":"0.0-6.0-65.0"},{"sim_score":1,"rt":3172,"stimulus":"[\"img/0881/405484ae-0d00-4b05-bc57-6420a36adfac.jpg\",\"img/0866/02f5e6b9-52b7-448c-9708-5b460d0c9a23.jpg\"]","trial_type":"similarity","trial_index":72,"time_elapsed":396146,"internal_node_id":"0.0-6.0-66.0"},{"sim_score":1,"rt":2750,"stimulus":"[\"img/0867/db7e032f-162b-46f5-ae67-2b29679adee4.jpg\",\"img/0898/79233891-305a-4a6a-8ddf-5c8604858203.jpg\"]","trial_type":"similarity","trial_index":73,"time_elapsed":399906,"internal_node_id":"0.0-6.0-67.0"},{"sim_score":5,"rt":3969,"stimulus":"[\"img/0902/7499db23-3a41-41ea-ab5b-6ab4d4c3ed35.jpg\",\"img/0764/f713847b-4832-42d1-8fb3-e17e37fd745c.jpg\"]","trial_type":"similarity","trial_index":74,"time_elapsed":404876,"internal_node_id":"0.0-6.0-68.0"},{"sim_score":5,"rt":2662,"stimulus":"[\"img/0875/42910c99-5463-450a-a0f8-d4d060a11455.jpg\",\"img/0867/5e07b34d-b40f-4b1c-ac10-49975bace45f.jpg\"]","trial_type":"similarity","trial_index":75,"time_elapsed":408547,"internal_node_id":"0.0-6.0-69.0"},{"sim_score":5,"rt":3395,"stimulus":"[\"img/0766/717fd72f-a281-499b-a5ba-5e2ecc4d4866.jpg\",\"img/0764/4eff630a-6426-4f8d-b2ba-b4d9842a0962.jpg\"]","trial_type":"similarity","trial_index":76,"time_elapsed":412962,"internal_node_id":"0.0-6.0-70.0"},{"sim_score":1,"rt":2955,"stimulus":"[\"img/0894/792c83e9-a747-4000-bc72-5663d2439edb.jpg\",\"img/0867/aa05d113-fc19-4756-a8eb-7878f580bc92.jpg\"]","trial_type":"similarity","trial_index":77,"time_elapsed":416927,"internal_node_id":"0.0-6.0-71.0"},{"sim_score":1,"rt":2802,"stimulus":"[\"img/0875/99698b4d-b4a1-44bc-8c83-8ea755bbbf61.jpg\",\"img/0764/1f95ab5f-fb65-4d70-b5db-d6bd6351a8aa.jpg\"]","trial_type":"similarity","trial_index":78,"time_elapsed":420735,"internal_node_id":"0.0-6.0-72.0"},{"sim_score":5,"rt":3559,"stimulus":"[\"img/0867/8ba0c5a7-c7e4-42cf-a80a-543763b90779.jpg\",\"img/0866/d266fece-59b3-46fa-b69f-96f6efb81b59.jpg\"]","trial_type":"similarity","trial_index":79,"time_elapsed":425307,"internal_node_id":"0.0-6.0-73.0"},{"sim_score":1,"rt":2484,"stimulus":"[\"img/0903/8931c67c-a43d-47d3-a4c9-42aa2f81d344.jpg\",\"img/0758/2fa3e613-e676-4e6e-bd12-705327eeb3e1.jpg\"]","trial_type":"similarity","trial_index":80,"time_elapsed":428804,"internal_node_id":"0.0-6.0-74.0"},{"sim_score":1,"rt":2781,"stimulus":"[\"img/0766/fd064894-7147-4af5-97e9-2089d5472656.jpg\",\"img/0868/d6d1f30d-4323-435a-b194-7892521bc57e.jpg\"]","trial_type":"similarity","trial_index":81,"time_elapsed":432598,"internal_node_id":"0.0-6.0-75.0"},{"sim_score":1,"rt":3059,"stimulus":"[\"img/0874/3f471690-9788-4d03-90c7-f615aecef149.jpg\",\"img/0766/33aa9ebb-c9f5-418f-8c8b-c77861889568.jpg\"]","trial_type":"similarity","trial_index":82,"time_elapsed":436667,"internal_node_id":"0.0-6.0-76.0"},{"sim_score":1,"rt":2197,"stimulus":"[\"img/0881/db77fe00-aeb0-4d1d-aa66-f3a96fd077e4.jpg\",\"img/0868/77091fc7-a590-4ebb-b915-fdb2483a2399.jpg\"]","trial_type":"similarity","trial_index":83,"time_elapsed":439868,"internal_node_id":"0.0-6.0-77.0"},{"sim_score":1,"rt":2987,"stimulus":"[\"img/0758/7ffbc76b-1fc1-432c-8f7e-9ec8d1b3f643.jpg\",\"img/0901/50e1d53e-a49f-4806-8610-be6dec5a2475.jpg\"]","trial_type":"similarity","trial_index":84,"time_elapsed":443871,"internal_node_id":"0.0-6.0-78.0"},{"sim_score":5,"rt":3278,"stimulus":"[\"img/0881/292e9b4b-fca0-4ba8-87f1-4048f9e37b7d.jpg\",\"img/0898/08c72dac-f8ad-407a-9ce6-8c9a5d679c3a.jpg\"]","trial_type":"similarity","trial_index":85,"time_elapsed":448153,"internal_node_id":"0.0-6.0-79.0"},{"sim_score":1,"rt":2771,"stimulus":"[\"img/0867/98d8cd96-1476-4fe0-a3a3-04f875500a1b.jpg\",\"img/0758/caa93da2-9edf-49fa-96b9-32dedd8f5078.jpg\"]","trial_type":"similarity","trial_index":86,"time_elapsed":451934,"internal_node_id":"0.0-6.0-80.0"},{"sim_score":5,"rt":2946,"stimulus":"[\"img/0769/022c7e3b-c3f2-4119-b4bc-f22fa7cae18c.jpg\",\"img/0899/56a605c3-d0a2-4215-89e1-779279d85a7c.jpg\"]","trial_type":"similarity","trial_index":87,"time_elapsed":455886,"internal_node_id":"0.0-6.0-81.0"},{"sim_score":7,"rt":3392,"stimulus":"[\"img/0903/6b5dcc60-3ad3-4962-93e5-e6cf768477af.jpg\",\"img/0903/9b60ef5b-234f-4239-892b-3d4c412accc2.jpg\"]","trial_type":"similarity","trial_index":88,"time_elapsed":460283,"internal_node_id":"0.0-6.0-82.0"},{"sim_score":1,"rt":2818,"stimulus":"[\"img/0867/a749dddb-69f0-44a6-acdc-2bf295cf6dcc.jpg\",\"img/0766/006035d8-c736-4daf-bbe4-a9e373af9da6.jpg\"]","trial_type":"similarity","trial_index":89,"time_elapsed":647450,"internal_node_id":"0.0-6.0-83.0"},{"sim_score":1,"rt":3635,"stimulus":"[\"img/0902/07437a16-3d0f-4a5c-89ec-36d0efa4b3b8.jpg\",\"img/0867/7d1c497b-c1b3-4ed8-abb5-d7f73306015f.jpg\"]","trial_type":"similarity","trial_index":90,"time_elapsed":652102,"internal_node_id":"0.0-6.0-84.0"},{"sim_score":1,"rt":3738,"stimulus":"[\"img/0901/875dedb9-24c9-4443-9f8c-85e97d70ee5a.jpg\",\"img/0875/cff79b3a-a797-4393-9757-6275f999ec04.jpg\"]","trial_type":"similarity","trial_index":91,"time_elapsed":656850,"internal_node_id":"0.0-6.0-85.0"},{"sim_score":1,"rt":2868,"stimulus":"[\"img/0764/c80b3e06-2ee3-4326-9678-340607eb5348.jpg\",\"img/0866/386235d2-6857-41e7-88a8-25cfc3430025.jpg\"]","trial_type":"similarity","trial_index":92,"time_elapsed":660735,"internal_node_id":"0.0-6.0-86.0"},{"sim_score":1,"rt":3225,"stimulus":"[\"img/0901/d61f267a-c492-4db6-9bfb-61efd49cf072.jpg\",\"img/0894/e5edf723-72a5-4673-8441-6c1734a8929b.jpg\"]","trial_type":"similarity","trial_index":93,"time_elapsed":664975,"internal_node_id":"0.0-6.0-87.0"},{"sim_score":3,"rt":3845,"stimulus":"[\"img/0898/881e2a85-d5c2-49be-a0c6-8a6ce2c4af08.jpg\",\"img/0769/3c1efec9-f8fd-487d-8955-4be88e48c832.jpg\"]","trial_type":"similarity","trial_index":94,"time_elapsed":669820,"internal_node_id":"0.0-6.0-88.0"},{"sim_score":6,"rt":3738,"stimulus":"[\"img/0769/8056889f-2b14-4782-bb25-b4e8896ab65b.jpg\",\"img/0894/4739e06d-c31e-4bf1-bf91-c97fa9afb456.jpg\"]","trial_type":"similarity","trial_index":95,"time_elapsed":674565,"internal_node_id":"0.0-6.0-89.0"},{"sim_score":1,"rt":3018,"stimulus":"[\"img/0862/24cdc752-c2e5-4a17-86a6-6f2045d8553b.jpg\",\"img/0874/a3bc679d-619f-4db6-bb68-116dcb757d9c.jpg\"]","trial_type":"similarity","trial_index":96,"time_elapsed":678593,"internal_node_id":"0.0-6.0-90.0"},{"sim_score":5,"rt":4363,"stimulus":"[\"img/0894/43216a7f-27bc-4b5a-8841-d122a30da9d9.jpg\",\"img/0766/989c5c7f-1aff-4442-ac63-9d46acf4a891.jpg\"]","trial_type":"similarity","trial_index":97,"time_elapsed":683983,"internal_node_id":"0.0-6.0-91.0"},{"sim_score":1,"rt":3221,"stimulus":"[\"img/0874/c0378dac-9370-439a-8b79-db27c96fb390.jpg\",\"img/0867/a498eef3-9fa4-4ab2-9778-4ae82ac40dc5.jpg\"]","trial_type":"similarity","trial_index":98,"time_elapsed":688204,"internal_node_id":"0.0-6.0-92.0"},{"sim_score":1,"rt":2968,"stimulus":"[\"img/0899/0433d056-aa30-4f8a-9aa1-abbb951e4edd.jpg\",\"img/0868/8b0b8473-e2c0-4331-aa56-c3a5c29369da.jpg\"]","trial_type":"similarity","trial_index":99,"time_elapsed":692192,"internal_node_id":"0.0-6.0-93.0"},{"sim_score":7,"rt":3350,"stimulus":"[\"img/0903/45e2d600-57ff-4d69-b22c-0c7896cd38f0.jpg\",\"img/0862/e697469a-ec19-4414-b972-7b9f3564785b.jpg\"]","trial_type":"similarity","trial_index":100,"time_elapsed":696545,"internal_node_id":"0.0-6.0-94.0"},{"sim_score":7,"rt":2748,"stimulus":"[\"img/0899/ddf96ade-692e-4602-bd22-dedbb46401bc.jpg\",\"img/0766/c23b5a20-e50f-4d85-841f-cf89212a4348.jpg\"]","trial_type":"similarity","trial_index":101,"time_elapsed":700305,"internal_node_id":"0.0-6.0-95.0"},{"sim_score":7,"rt":3335,"stimulus":"[\"img/0867/de92135f-5b65-4ed9-b245-188292c7c2f8.jpg\",\"img/0868/fd307a36-9a3a-47d7-ab7c-f810d0b35040.jpg\"]","trial_type":"similarity","trial_index":102,"time_elapsed":704663,"internal_node_id":"0.0-6.0-96.0"},{"sim_score":5,"rt":2645,"stimulus":"[\"img/0862/d0ca4c78-fc35-46ed-bdcc-8e124283c53e.jpg\",\"img/0901/a373612d-67e2-4fec-9764-21d3d6ef6359.jpg\"]","trial_type":"similarity","trial_index":103,"time_elapsed":708328,"internal_node_id":"0.0-6.0-97.0"},{"sim_score":2,"rt":4067,"stimulus":"[\"img/0875/527ced51-8e53-4aab-ab05-86df219104c0.jpg\",\"img/0766/79767d11-b612-4e8a-9e4b-a8ac95bb6a54.jpg\"]","trial_type":"similarity","trial_index":104,"time_elapsed":713405,"internal_node_id":"0.0-6.0-98.0"},{"sim_score":5,"rt":3869,"stimulus":"[\"img/0758/9fb5b2fe-3f00-4fe6-973c-1ce10d5f4cd5.jpg\",\"img/0874/ca76a855-4e77-4f2f-872a-0a718153e7ed.jpg\"]","trial_type":"similarity","trial_index":105,"time_elapsed":718276,"internal_node_id":"0.0-6.0-99.0"},{"sim_score":1,"rt":3852,"stimulus":"[\"img/0904/5aec2708-cf14-4a58-aa30-9a8a61c1be0e.jpg\",\"img/0868/1a62b2b2-18f5-466e-b564-5176a57c565e.jpg\"]","trial_type":"similarity","trial_index":106,"time_elapsed":723144,"internal_node_id":"0.0-6.0-100.0"},{"sim_score":1,"rt":2574,"stimulus":"[\"img/0903/c3cb4a01-2797-43ca-b216-88c67b323fbb.jpg\",\"img/0866/93a27239-8317-4e08-98ca-d8b1ff298e07.jpg\"]","trial_type":"similarity","trial_index":107,"time_elapsed":726729,"internal_node_id":"0.0-6.0-101.0"},{"sim_score":1,"rt":2384,"stimulus":"[\"img/0868/5fa7f9d0-f0e5-454c-8224-74d964818f56.jpg\",\"img/0769/f229321f-04dd-42d7-b14a-ffad6b509862.jpg\"]","trial_type":"similarity","trial_index":108,"time_elapsed":730122,"internal_node_id":"0.0-6.0-102.0"},{"sim_score":5,"rt":2785,"stimulus":"[\"img/0902/94198618-7047-4dc9-ad04-85f4ba913067.jpg\",\"img/0899/d8f2dd94-570e-4e8c-a087-d96090fb9e8c.jpg\"]","trial_type":"similarity","trial_index":109,"time_elapsed":733917,"internal_node_id":"0.0-6.0-103.0"},{"sim_score":1,"rt":2473,"stimulus":"[\"img/0868/3a62db2d-97e9-44a3-b8e3-a48c6f0e423b.jpg\",\"img/0862/064818ee-13d5-4618-bb24-21c7368ea278.jpg\"]","trial_type":"similarity","trial_index":110,"time_elapsed":737407,"internal_node_id":"0.0-6.0-104.0"},{"sim_score":1,"rt":3081,"stimulus":"[\"img/0903/a0673b55-6040-47fe-9040-24bca27ca3c9.jpg\",\"img/0894/2d2db7b3-e8a3-499b-b63a-14f51bf73882.jpg\"]","trial_type":"similarity","trial_index":111,"time_elapsed":741492,"internal_node_id":"0.0-6.0-105.0"},{"sim_score":7,"rt":3420,"stimulus":"[\"img/0864/f92649a2-0590-4d31-9a7a-1bfb81666a2d.jpg\",\"img/0874/8cdb1c07-1c32-46d2-981c-3636560fa6e5.jpg\"]","trial_type":"similarity","trial_index":112,"time_elapsed":745928,"internal_node_id":"0.0-6.0-106.0"},{"sim_score":7,"rt":2905,"stimulus":"[\"img/0862/f23038d4-c366-4f70-979f-66b62362efa4.jpg\",\"img/0902/12452bb1-b8c0-4e4d-ad4d-47e279e5933c.jpg\"]","trial_type":"similarity","trial_index":113,"time_elapsed":749842,"internal_node_id":"0.0-6.0-107.0"},{"sim_score":6,"rt":3201,"stimulus":"[\"img/0904/09dac84f-3d1c-4445-a68e-d0389fdbf1e9.jpg\",\"img/0903/ea75f240-fb62-4edb-a709-83e858b202c0.jpg\"]","trial_type":"similarity","trial_index":114,"time_elapsed":754050,"internal_node_id":"0.0-6.0-108.0"},{"sim_score":6,"rt":3215,"stimulus":"[\"img/0764/23ea9375-f801-4a96-9925-7d453da887c7.jpg\",\"img/0864/87c467d3-abca-482f-ad80-3766c21b1bb3.jpg\"]","trial_type":"similarity","trial_index":115,"time_elapsed":758288,"internal_node_id":"0.0-6.0-109.0"},{"sim_score":5,"rt":4600,"stimulus":"[\"img/0866/07c9c966-3c8d-40e7-8128-92b2acbaed5d.jpg\",\"img/0894/0130a973-d993-41f8-874a-fee23d9ac11f.jpg\"]","trial_type":"similarity","trial_index":116,"time_elapsed":763904,"internal_node_id":"0.0-6.0-110.0"},{"sim_score":3,"rt":3549,"stimulus":"[\"img/0899/1b3457ea-87d4-4946-a01c-aac1863ed46c.jpg\",\"img/0903/36e4ab1f-caa9-40b3-8616-faada076df94.jpg\"]","trial_type":"similarity","trial_index":117,"time_elapsed":768470,"internal_node_id":"0.0-6.0-111.0"},{"sim_score":5,"rt":3106,"stimulus":"[\"img/0902/9f543501-3cf1-45a7-a2f1-eeca87cc15b9.jpg\",\"img/0904/a8c3c7d2-9bcf-4347-9e03-8203adfc1fc5.jpg\"]","trial_type":"similarity","trial_index":118,"time_elapsed":772586,"internal_node_id":"0.0-6.0-112.0"},{"sim_score":1,"rt":3345,"stimulus":"[\"img/0864/b3c4e378-28f0-4699-9338-2a257b4bca04.jpg\",\"img/0860/8fdba999-b946-4c7d-9891-336018b563ef.jpg\"]","trial_type":"similarity","trial_index":119,"time_elapsed":776946,"internal_node_id":"0.0-6.0-113.0"},{"sim_score":2,"rt":4697,"stimulus":"[\"img/0860/4c530c3c-6aab-492a-94d1-9c01797bde40.jpg\",\"img/0899/f95cbdb4-f804-4f5d-ad76-373ad343e658.jpg\"]","trial_type":"similarity","trial_index":120,"time_elapsed":782663,"internal_node_id":"0.0-6.0-114.0"},{"sim_score":1,"rt":2645,"stimulus":"[\"img/0881/6b1189e6-232d-4042-8885-16dc7b10e0d4.jpg\",\"img/0903/b4a0f61e-a964-4b79-a9a7-f767a8f92f34.jpg\"]","trial_type":"similarity","trial_index":121,"time_elapsed":786321,"internal_node_id":"0.0-6.0-115.0"},{"sim_score":6,"rt":3245,"stimulus":"[\"img/0894/7dd6ff43-f8fc-408a-8a41-a2b261871820.jpg\",\"img/0874/bf14b896-e930-4fd9-9c05-2e83317a2773.jpg\"]","trial_type":"similarity","trial_index":122,"time_elapsed":790583,"internal_node_id":"0.0-6.0-116.0"},{"sim_score":3,"rt":4049,"stimulus":"[\"img/0881/b1a136f7-8511-4d3a-a0f6-3879acf1e1a1.jpg\",\"img/0862/7918ca67-5bd3-4606-a5ea-c39fb11a9297.jpg\"]","trial_type":"similarity","trial_index":123,"time_elapsed":795642,"internal_node_id":"0.0-6.0-117.0"},{"sim_score":2,"rt":3494,"stimulus":"[\"img/0868/e0aff734-077f-40dd-9781-74821abd3621.jpg\",\"img/0875/5a1e5100-0d94-4fec-bbe9-ca9894d2cf8e.jpg\"]","trial_type":"similarity","trial_index":124,"time_elapsed":800147,"internal_node_id":"0.0-6.0-118.0"},{"sim_score":3,"rt":3017,"stimulus":"[\"img/0860/9593362c-9fe5-4d12-9735-6000a11f6aa5.jpg\",\"img/0758/d540bee6-b460-4c32-ac57-bc282742d7d4.jpg\"]","trial_type":"similarity","trial_index":125,"time_elapsed":804175,"internal_node_id":"0.0-6.0-119.0"},{"sim_score":1,"rt":2526,"stimulus":"[\"img/0864/0116ca98-293d-4fa6-a93b-5a6144ef64cc.jpg\",\"img/0875/5a7c4e35-6514-4e12-8879-d16071da4cd6.jpg\"]","trial_type":"similarity","trial_index":126,"time_elapsed":807704,"internal_node_id":"0.0-6.0-120.0"},{"sim_score":1,"rt":2989,"stimulus":"[\"img/0898/ec565187-2e31-4fdd-9a5c-153d0c789ae0.jpg\",\"img/0866/be24ab58-230e-4db8-9f45-ff04c9aec6bb.jpg\"]","trial_type":"similarity","trial_index":127,"time_elapsed":811713,"internal_node_id":"0.0-6.0-121.0"},{"sim_score":5,"rt":3248,"stimulus":"[\"img/0874/93d1f8dc-acf2-4f03-bd8d-8ec35df276ed.jpg\",\"img/0904/9d30eff1-46ef-4453-b11e-124ef8145c00.jpg\"]","trial_type":"similarity","trial_index":128,"time_elapsed":815965,"internal_node_id":"0.0-6.0-122.0"},{"sim_score":5,"rt":4893,"stimulus":"[\"img/0904/65e2b70a-b184-4da3-b5c0-5038bdf9469a.jpg\",\"img/0864/3d4de670-b290-4285-9c3d-12a0e3af44e9.jpg\"]","trial_type":"similarity","trial_index":129,"time_elapsed":821865,"internal_node_id":"0.0-6.0-123.0"},{"sim_score":5,"rt":2623,"stimulus":"[\"img/0894/5a49e858-2850-4892-9a06-e9f0efb5f94d.jpg\",\"img/0902/7f1dcd35-237a-4995-9e42-7f63f3f434d4.jpg\"]","trial_type":"similarity","trial_index":130,"time_elapsed":825498,"internal_node_id":"0.0-6.0-124.0"},{"sim_score":1,"rt":2305,"stimulus":"[\"img/0868/09a9ef4d-d000-4cfa-a6aa-ebec7c2edeb4.jpg\",\"img/0864/49150900-7f25-4ce8-8d10-9b47a71d1997.jpg\"]","trial_type":"similarity","trial_index":131,"time_elapsed":835885,"internal_node_id":"0.0-6.0-125.0"},{"sim_score":2,"rt":3314,"stimulus":"[\"img/0899/06b0fc99-0581-461a-9913-d1a5a941ac61.jpg\",\"img/0866/a15b02be-11bb-43e3-b0e0-ecc3bd7dfc49.jpg\"]","trial_type":"similarity","trial_index":132,"time_elapsed":840208,"internal_node_id":"0.0-6.0-126.0"},{"sim_score":2,"rt":3197,"stimulus":"[\"img/0875/3ecb367d-e9eb-4826-8aaa-7aa72fb98019.jpg\",\"img/0904/4e58005d-a2ec-4aaa-b199-445343561396.jpg\"]","trial_type":"similarity","trial_index":133,"time_elapsed":844432,"internal_node_id":"0.0-6.0-127.0"},{"sim_score":1,"rt":3059,"stimulus":"[\"img/0867/bf560d4f-dee3-4f11-a385-705cc1aa5f3c.jpg\",\"img/0899/b45c550b-96c3-4255-ad59-48a2b4db1c1e.jpg\"]","trial_type":"similarity","trial_index":134,"time_elapsed":848496,"internal_node_id":"0.0-6.0-128.0"},{"sim_score":1,"rt":2413,"stimulus":"[\"img/0901/1b86f2fc-7a1d-4aa8-9252-114f92edef3b.jpg\",\"img/0867/c66898ba-b71b-4d50-84f9-f7f84853a98d.jpg\"]","trial_type":"similarity","trial_index":135,"time_elapsed":851929,"internal_node_id":"0.0-6.0-129.0"},{"sim_score":2,"rt":3372,"stimulus":"[\"img/0864/e8bd659f-aa43-4748-877e-3118e8b4e189.jpg\",\"img/0769/662ab839-88d1-4ebf-af05-9b2980cad943.jpg\"]","trial_type":"similarity","trial_index":136,"time_elapsed":856317,"internal_node_id":"0.0-6.0-130.0"},{"sim_score":1,"rt":3402,"stimulus":"[\"img/0903/647ce311-8c71-479a-8361-961db1457139.jpg\",\"img/0868/7b212364-ff5f-4e28-9241-7eb6ea00161b.jpg\"]","trial_type":"similarity","trial_index":137,"time_elapsed":860722,"internal_node_id":"0.0-6.0-131.0"},{"sim_score":1,"rt":2501,"stimulus":"[\"img/0864/c3b63e8f-ea39-4d70-a1f2-b3fe4be8eb75.jpg\",\"img/0867/ac1797e4-8afc-48fe-b252-86d1defb1cca.jpg\"]","trial_type":"similarity","trial_index":138,"time_elapsed":864236,"internal_node_id":"0.0-6.0-132.0"},{"sim_score":6,"rt":3809,"stimulus":"[\"img/0901/62315ff5-ed95-46b4-b099-92552079659b.jpg\",\"img/0860/e14d67c1-6d92-4f1e-9257-c8607159c19c.jpg\"]","trial_type":"similarity","trial_index":139,"time_elapsed":869058,"internal_node_id":"0.0-6.0-133.0"},{"sim_score":5,"rt":3702,"stimulus":"[\"img/0881/566f45f8-5fed-4479-a60f-26377e60a62d.jpg\",\"img/0766/09f646c8-a69e-4ed3-879c-8d29b04ad7f9.jpg\"]","trial_type":"similarity","trial_index":140,"time_elapsed":873770,"internal_node_id":"0.0-6.0-134.0"},{"sim_score":1,"rt":4163,"stimulus":"[\"img/0903/365f176c-25a4-4973-bd3c-279bf1b39476.jpg\",\"img/0864/66091c27-e588-4476-8af9-265dc6be4156.jpg\"]","trial_type":"similarity","trial_index":141,"time_elapsed":878950,"internal_node_id":"0.0-6.0-135.0"},{"sim_score":6,"rt":3508,"stimulus":"[\"img/0758/6e95579b-5166-487c-b8cb-e417c6a218e3.jpg\",\"img/0894/e2446cf5-cd48-486a-badc-76498e087fbe.jpg\"]","trial_type":"similarity","trial_index":142,"time_elapsed":883460,"internal_node_id":"0.0-6.0-136.0"},{"sim_score":6,"rt":2825,"stimulus":"[\"img/0769/aad494cc-674d-4a08-9bfa-24a88ebe3c79.jpg\",\"img/0860/17b44a7d-c5ca-479f-9e87-f65a64f5c80e.jpg\"]","trial_type":"similarity","trial_index":143,"time_elapsed":887296,"internal_node_id":"0.0-6.0-137.0"},{"sim_score":6,"rt":3015,"stimulus":"[\"img/0904/73920552-103b-4c9c-9ece-e0b8376b4504.jpg\",\"img/0766/75c3d627-4f3b-40d5-9d9c-10c8a62db644.jpg\"]","trial_type":"similarity","trial_index":144,"time_elapsed":891336,"internal_node_id":"0.0-6.0-138.0"},{"sim_score":3,"rt":3439,"stimulus":"[\"img/0868/c8ac40c7-6904-4e13-8d61-c75d3052dc4e.jpg\",\"img/0860/87039971-2210-4aab-93c0-8e9b5f1655b2.jpg\"]","trial_type":"similarity","trial_index":145,"time_elapsed":895789,"internal_node_id":"0.0-6.0-139.0"},{"sim_score":2,"rt":2899,"stimulus":"[\"img/0758/a709631e-3705-4725-ac40-f0d916924f08.jpg\",\"img/0864/ea327690-500b-4137-bf91-451b309fe6a5.jpg\"]","trial_type":"similarity","trial_index":146,"time_elapsed":899701,"internal_node_id":"0.0-6.0-140.0"},{"sim_score":7,"rt":2775,"stimulus":"[\"img/0867/075e0f95-856b-4cbb-acf5-092393aaf04e.jpg\",\"img/0867/f26f6b60-f772-4f4c-95a4-addc62cfd692.jpg\"]","trial_type":"similarity","trial_index":147,"time_elapsed":903489,"internal_node_id":"0.0-6.0-141.0"},{"sim_score":6,"rt":2918,"stimulus":"[\"img/0898/5f699581-3853-4547-856c-12f419ba5af7.jpg\",\"img/0898/8605a25b-6895-476d-8c13-df7a83f96093.jpg\"]","trial_type":"similarity","trial_index":148,"time_elapsed":907420,"internal_node_id":"0.0-6.0-142.0"},{"sim_score":2,"rt":3435,"stimulus":"[\"img/0866/a04d37f0-99dd-478a-b6c6-58b215138f84.jpg\",\"img/0769/5bd04f55-d091-4f57-85db-38426f26bd1a.jpg\"]","trial_type":"similarity","trial_index":149,"time_elapsed":911868,"internal_node_id":"0.0-6.0-143.0"},{"sim_score":2,"rt":2868,"stimulus":"[\"img/0860/e8b8c51e-1834-4875-8b61-6c5bc9b178bd.jpg\",\"img/0898/cd3aaa3f-efa9-4ab3-8d6f-a6a9273ddf42.jpg\"]","trial_type":"similarity","trial_index":150,"time_elapsed":915749,"internal_node_id":"0.0-6.0-144.0"},{"sim_score":6,"rt":2804,"stimulus":"[\"img/0766/fd74fdbb-ea40-4f3a-a091-38d08dfd636e.jpg\",\"img/0864/65210d57-1153-4657-886a-32e758f49b4a.jpg\"]","trial_type":"similarity","trial_index":151,"time_elapsed":919558,"internal_node_id":"0.0-6.0-145.0"},{"sim_score":6,"rt":2695,"stimulus":"[\"img/0860/94ef7afc-e0e6-4a15-98c6-0bfac82bc832.jpg\",\"img/0903/43ffd882-077a-40dd-a264-e58d519420a1.jpg\"]","trial_type":"similarity","trial_index":152,"time_elapsed":923255,"internal_node_id":"0.0-6.0-146.0"},{"sim_score":1,"rt":3164,"stimulus":"[\"img/0867/50a1b60e-3a29-44bf-b606-d4bd3746fea9.jpg\",\"img/0764/3297a811-ea8b-4d74-9547-59cecab7293a.jpg\"]","trial_type":"similarity","trial_index":153,"time_elapsed":927439,"internal_node_id":"0.0-6.0-147.0"},{"sim_score":5,"rt":2878,"stimulus":"[\"img/0769/3adfa417-3b90-4aab-b437-5eaa474189cb.jpg\",\"img/0904/b7c2a2c8-df33-4473-b3d4-ff7147c60db3.jpg\"]","trial_type":"similarity","trial_index":154,"time_elapsed":931314,"internal_node_id":"0.0-6.0-148.0"},{"sim_score":2,"rt":3225,"stimulus":"[\"img/0764/438c0217-036f-43c9-9b87-f43144e46011.jpg\",\"img/0901/168eb52c-c415-43f1-b5c8-e76e1a1ec247.jpg\"]","trial_type":"similarity","trial_index":155,"time_elapsed":935547,"internal_node_id":"0.0-6.0-149.0"},{"sim_score":7,"rt":2781,"stimulus":"[\"img/0904/e9423a8c-f946-43ad-ab7b-931acef870e2.jpg\",\"img/0899/66bf4113-ee12-426c-84d2-ea410b6c803e.jpg\"]","trial_type":"similarity","trial_index":156,"time_elapsed":939336,"internal_node_id":"0.0-6.0-150.0"},{"sim_score":1,"rt":2658,"stimulus":"[\"img/0862/eefa5588-9efd-4591-aa5f-a2e17c7d7bcc.jpg\",\"img/0867/85a96c62-548f-4994-9553-819e03c3135a.jpg\"]","trial_type":"similarity","trial_index":157,"time_elapsed":943014,"internal_node_id":"0.0-6.0-151.0"},{"sim_score":7,"rt":2259,"stimulus":"[\"img/0766/d3bab2fc-ddcc-40a0-bb72-c0d0ebe19978.jpg\",\"img/0766/ef3b15ce-abb7-4292-ad93-aec8e8b50520.jpg\"]","trial_type":"similarity","trial_index":158,"time_elapsed":946280,"internal_node_id":"0.0-6.0-152.0"},{"sim_score":6,"rt":3375,"stimulus":"[\"img/0862/57b6f83f-c763-4858-830d-102f97bfefbf.jpg\",\"img/0894/1b3888e6-cf36-4c4a-a039-187aa5cb71ac.jpg\"]","trial_type":"similarity","trial_index":159,"time_elapsed":950678,"internal_node_id":"0.0-6.0-153.0"},{"sim_score":6,"rt":3017,"stimulus":"[\"img/0899/0adc0bc3-6fca-4078-be6f-d45ddf1653d5.jpg\",\"img/0901/31c032fd-3c3d-4882-a226-da9a80198937.jpg\"]","trial_type":"similarity","trial_index":160,"time_elapsed":954711,"internal_node_id":"0.0-6.0-154.0"},{"sim_score":5,"rt":3393,"stimulus":"[\"img/0874/eba003b4-cdab-4eee-8bc3-f064c7d94165.jpg\",\"img/0874/85eb9b8a-c4c6-4e5a-b8e7-363a87a82054.jpg\"]","trial_type":"similarity","trial_index":161,"time_elapsed":959106,"internal_node_id":"0.0-6.0-155.0"},{"sim_score":1,"rt":3258,"stimulus":"[\"img/0860/8277806e-b684-4474-8f7b-3fca946d7d4f.jpg\",\"img/0867/2e1a0b58-cdb1-4107-a14e-452530d7b9b0.jpg\"]","trial_type":"similarity","trial_index":162,"time_elapsed":963373,"internal_node_id":"0.0-6.0-156.0"},{"sim_score":1,"rt":4403,"stimulus":"[\"img/0901/1ede21d9-384f-4150-86b5-e1c57b5dc1d4.jpg\",\"img/0881/1407b85b-a1c6-45b1-9884-3b24203efadb.jpg\"]","trial_type":"similarity","trial_index":163,"time_elapsed":968789,"internal_node_id":"0.0-6.0-157.0"},{"sim_score":6,"rt":3482,"stimulus":"[\"img/0903/24477210-856c-4550-9de0-9f85a32762eb.jpg\",\"img/0902/97022122-01e4-46c3-a34f-c6260ad28428.jpg\"]","trial_type":"similarity","trial_index":164,"time_elapsed":973281,"internal_node_id":"0.0-6.0-158.0"},{"sim_score":2,"rt":3029,"stimulus":"[\"img/0860/18dfed73-e36b-4487-a8bd-0b8cff8e3668.jpg\",\"img/0764/b887d7c6-aa81-4637-af8e-05135757ac59.jpg\"]","trial_type":"similarity","trial_index":165,"time_elapsed":977321,"internal_node_id":"0.0-6.0-159.0"},{"sim_score":1,"rt":2765,"stimulus":"[\"img/0902/40d0b6ec-3907-4573-b227-e7d8e9cad1c3.jpg\",\"img/0875/d59ff733-eaff-4ee2-9443-06954dd0bcb6.jpg\"]","trial_type":"similarity","trial_index":166,"time_elapsed":981091,"internal_node_id":"0.0-6.0-160.0"},{"sim_score":6,"rt":2815,"stimulus":"[\"img/0898/4184e5a2-84ea-4f36-9b42-ae58646f6f87.jpg\",\"img/0862/847e5208-38ec-4f36-949c-296cdd7424ee.jpg\"]","trial_type":"similarity","trial_index":167,"time_elapsed":984924,"internal_node_id":"0.0-6.0-161.0"},{"sim_score":2,"rt":3418,"stimulus":"[\"img/0894/05161000-f476-499b-a878-c13c7f347fd9.jpg\",\"img/0875/2e13d160-eea1-416b-aff1-d37ab99ecc1d.jpg\"]","trial_type":"similarity","trial_index":168,"time_elapsed":989346,"internal_node_id":"0.0-6.0-162.0"},{"sim_score":1,"rt":2548,"stimulus":"[\"img/0866/0207e9a2-7dbb-40b5-9459-b472aaeceb2a.jpg\",\"img/0864/6f631579-acf1-415c-a42c-1207f62a8d99.jpg\"]","trial_type":"similarity","trial_index":169,"time_elapsed":992917,"internal_node_id":"0.0-6.0-163.0"},{"sim_score":5,"rt":4542,"stimulus":"[\"img/0766/ae0fce93-fe8d-4aa1-87ca-4c3e4b889f2f.jpg\",\"img/0862/53a9cf7c-93c4-41b9-952f-07d17f7a17b2.jpg\"]","trial_type":"similarity","trial_index":170,"time_elapsed":998463,"internal_node_id":"0.0-6.0-164.0"},{"sim_score":1,"rt":4260,"stimulus":"[\"img/0866/945c6710-d15b-4a5b-a8f6-69af0850357f.jpg\",\"img/0874/995f0332-0439-4eb4-add3-957335dbf6d9.jpg\"]","trial_type":"similarity","trial_index":171,"time_elapsed":1003736,"internal_node_id":"0.0-6.0-165.0"},{"sim_score":7,"rt":3054,"stimulus":"[\"img/0862/fb26cb07-d5a9-4653-813c-f41609f26cd5.jpg\",\"img/0860/c47fdead-eb02-4989-b078-26f4852f44fe.jpg\"]","trial_type":"similarity","trial_index":172,"time_elapsed":1007806,"internal_node_id":"0.0-6.0-166.0"},{"sim_score":5,"rt":3045,"stimulus":"[\"img/0766/af3be95e-e52e-4fae-899b-0ff02ec340aa.jpg\",\"img/0901/b123d109-47b4-4f9a-80c9-9bb16da42efa.jpg\"]","trial_type":"similarity","trial_index":173,"time_elapsed":1015951,"internal_node_id":"0.0-6.0-167.0"},{"sim_score":6,"rt":2972,"stimulus":"[\"img/0862/92f0146c-20c4-482e-aef5-adb693790338.jpg\",\"img/0862/f188d4f0-76a4-4102-818c-a209969d73a5.jpg\"]","trial_type":"similarity","trial_index":174,"time_elapsed":1019949,"internal_node_id":"0.0-6.0-168.0"},{"sim_score":5,"rt":2607,"stimulus":"[\"img/0894/b422d5c6-3c5a-49ae-a53e-7e88ac993f49.jpg\",\"img/0764/cffc80b0-4a90-4acb-a530-6f480f3ca303.jpg\"]","trial_type":"similarity","trial_index":175,"time_elapsed":1023576,"internal_node_id":"0.0-6.0-169.0"},{"sim_score":2,"rt":3161,"stimulus":"[\"img/0874/adf9a8f1-c40b-402b-b95b-1e85a54a7b62.jpg\",\"img/0898/661621d4-a14e-487c-8c74-354134a29710.jpg\"]","trial_type":"similarity","trial_index":176,"time_elapsed":1027751,"internal_node_id":"0.0-6.0-170.0"},{"sim_score":1,"rt":2825,"stimulus":"[\"img/0860/f44ba3fb-03a2-42f0-8509-2c1ded493086.jpg\",\"img/0766/6d32752d-aa05-40dc-9541-640b6e9d6fa1.jpg\"]","trial_type":"similarity","trial_index":177,"time_elapsed":1031579,"internal_node_id":"0.0-6.0-171.0"},{"sim_score":5,"rt":3082,"stimulus":"[\"img/0898/82231d4c-218b-4d0a-b50d-35a49b524e97.jpg\",\"img/0864/300bb811-8b3c-4c42-8653-6097c3725197.jpg\"]","trial_type":"similarity","trial_index":178,"time_elapsed":1035679,"internal_node_id":"0.0-6.0-172.0"},{"sim_score":6,"rt":2761,"stimulus":"[\"img/0881/33d65d80-8a8e-4ecf-852d-0ad7725c17a2.jpg\",\"img/0764/f2f23359-8e82-41d3-8900-5b9f4433991d.jpg\"]","trial_type":"similarity","trial_index":179,"time_elapsed":1039448,"internal_node_id":"0.0-6.0-173.0"},{"sim_score":2,"rt":3045,"stimulus":"[\"img/0898/40f99fb2-64d2-4e72-8a7f-a1cf60741e69.jpg\",\"img/0868/179a5502-ab5c-478e-8263-5a1fbcc101d2.jpg\"]","trial_type":"similarity","trial_index":180,"time_elapsed":1043511,"internal_node_id":"0.0-6.0-174.0"},{"sim_score":6,"rt":3809,"stimulus":"[\"img/0864/6e846d43-94a6-4b37-a268-65eda979f052.jpg\",\"img/0864/a248adb3-c70b-4652-b7a3-776d2a1e904b.jpg\"]","trial_type":"similarity","trial_index":181,"time_elapsed":1048321,"internal_node_id":"0.0-6.0-175.0"},{"sim_score":5,"rt":4185,"stimulus":"[\"img/0899/7f9d45d0-b2c6-40d3-aa41-c207db2c411b.jpg\",\"img/0862/de9ad88c-b522-430a-8ee9-eb06a9f85df5.jpg\"]","trial_type":"similarity","trial_index":182,"time_elapsed":1053520,"internal_node_id":"0.0-6.0-176.0"},{"sim_score":5,"rt":5045,"stimulus":"[\"img/0875/ebf7653f-ff45-4e9f-af58-2c042ab3cd2b.jpg\",\"img/0758/3ddd05d3-557e-4ee7-8b78-9d2d681d8ae2.jpg\"]","trial_type":"similarity","trial_index":183,"time_elapsed":1059574,"internal_node_id":"0.0-6.0-177.0"},{"sim_score":2,"rt":3065,"stimulus":"[\"img/0866/620cd1aa-0800-4414-8f6e-90342e7a99ad.jpg\",\"img/0901/3db47171-0139-4235-82cd-0b1787b6775f.jpg\"]","trial_type":"similarity","trial_index":184,"time_elapsed":1063662,"internal_node_id":"0.0-6.0-178.0"},{"sim_score":1,"rt":3013,"stimulus":"[\"img/0769/e8ed913b-8a88-44f6-9327-d34afec3116b.jpg\",\"img/0874/1016b306-087c-4afc-aa08-fa527b28dc76.jpg\"]","trial_type":"similarity","trial_index":185,"time_elapsed":1067694,"internal_node_id":"0.0-6.0-179.0"},{"sim_score":5,"rt":2703,"stimulus":"[\"img/0875/2c361b79-c3d1-4eda-812e-bf03192407bf.jpg\",\"img/0881/c843e210-bdfe-4a7c-8bbe-fcea1f90fe1c.jpg\"]","trial_type":"similarity","trial_index":186,"time_elapsed":1071402,"internal_node_id":"0.0-6.0-180.0"},{"sim_score":7,"rt":2602,"stimulus":"[\"img/0866/8efcaa46-83ab-4dee-a35f-850402aa21ae.jpg\",\"img/0868/83b4350a-3b70-4cea-b7f5-b5b56f3050a8.jpg\"]","trial_type":"similarity","trial_index":187,"time_elapsed":1075022,"internal_node_id":"0.0-6.0-181.0"},{"sim_score":2,"rt":3747,"stimulus":"[\"img/0899/565ccdd9-0933-4536-a625-3c0e25a713dd.jpg\",\"img/0758/65d426d6-3ff6-415d-8654-a43b83ecc4fe.jpg\"]","trial_type":"similarity","trial_index":188,"time_elapsed":1079770,"internal_node_id":"0.0-6.0-182.0"},{"sim_score":1,"rt":3271,"stimulus":"[\"img/0874/29830da7-be5f-44e5-b141-652a0ccf7269.jpg\",\"img/0875/03c3c331-738b-4446-af92-3d7386b08c2e.jpg\"]","trial_type":"similarity","trial_index":189,"time_elapsed":1084051,"internal_node_id":"0.0-6.0-183.0"},{"sim_score":5,"rt":3356,"stimulus":"[\"img/0904/2fd488e9-960f-41f7-8a44-33375f7d5051.jpg\",\"img/0862/1c20f772-3a51-4a80-aac0-f57dc9f86c28.jpg\"]","trial_type":"similarity","trial_index":190,"time_elapsed":1088419,"internal_node_id":"0.0-6.0-184.0"},{"sim_score":6,"rt":3762,"stimulus":"[\"img/0902/3f0eeac5-c996-4026-a376-563ce8f28521.jpg\",\"img/0766/5d1b8041-c5a1-4b02-b4fe-3453d98a0d72.jpg\"]","trial_type":"similarity","trial_index":191,"time_elapsed":1093191,"internal_node_id":"0.0-6.0-185.0"},{"sim_score":5,"rt":2620,"stimulus":"[\"img/0758/61d64021-9214-4951-bdf8-f871f9827cf9.jpg\",\"img/0769/9ea27d61-3d55-418c-8d14-82e90f656f01.jpg\"]","trial_type":"similarity","trial_index":192,"time_elapsed":1096822,"internal_node_id":"0.0-6.0-186.0"},{"sim_score":6,"rt":3743,"stimulus":"[\"img/0881/19e82c47-8e4b-45d2-a6c8-74181eb4155e.jpg\",\"img/0881/609a5e93-38b5-4940-8627-2bf8fad7f802.jpg\"]","trial_type":"similarity","trial_index":193,"time_elapsed":1101582,"internal_node_id":"0.0-6.0-187.0"},{"sim_score":1,"rt":2718,"stimulus":"[\"img/0758/821c68d3-5cb0-4eae-8659-30e6263fca39.jpg\",\"img/0866/d493a2c8-66eb-44b4-be02-2f327b700b7c.jpg\"]","trial_type":"similarity","trial_index":194,"time_elapsed":1105310,"internal_node_id":"0.0-6.0-188.0"},{"sim_score":1,"rt":2881,"stimulus":"[\"img/0764/974d52cc-6318-4e7a-b294-2f3e92ff800f.jpg\",\"img/0898/01bfe666-3510-4fc7-964f-d00d28732dc8.jpg\"]","trial_type":"similarity","trial_index":195,"time_elapsed":1109206,"internal_node_id":"0.0-6.0-189.0"},{"sim_score":5,"rt":3960,"stimulus":"[\"img/0903/8f7f9939-b8e6-433f-93dd-b362496c80a7.jpg\",\"img/0901/5b97abf9-f0c8-4fd1-b921-36d574779078.jpg\"]","trial_type":"similarity","trial_index":196,"time_elapsed":1114190,"internal_node_id":"0.0-6.0-190.0"},{"sim_score":7,"rt":2634,"stimulus":"[\"img/0902/d3e55000-c839-4bf9-9b9b-4af0a9925af1.jpg\",\"img/0898/26c41340-15bd-4ead-8fe4-c0d0ddca09c2.jpg\"]","trial_type":"similarity","trial_index":197,"time_elapsed":1117826,"internal_node_id":"0.0-6.0-191.0"},{"sim_score":2,"rt":3231,"stimulus":"[\"img/0864/da39ad34-04e0-40d4-a724-c08d53e0ea09.jpg\",\"img/0901/7c16dd9c-44ad-4d5b-990c-6a0b9b48b1b1.jpg\"]","trial_type":"similarity","trial_index":198,"time_elapsed":1122061,"internal_node_id":"0.0-6.0-192.0"},{"sim_score":1,"rt":2609,"stimulus":"[\"img/0894/151063aa-6472-4745-837b-36603aba5966.jpg\",\"img/0881/48ed65a5-471f-41af-86ec-3793805c116d.jpg\"]","trial_type":"similarity","trial_index":199,"time_elapsed":1125687,"internal_node_id":"0.0-6.0-193.0"},{"sim_score":7,"rt":3524,"stimulus":"[\"img/0868/d98ca254-b195-477f-b57e-5760a2717db8.jpg\",\"img/0868/0d3abd3a-b6c3-4584-a9f7-e2da63748b3d.jpg\"]","trial_type":"similarity","trial_index":200,"time_elapsed":1130230,"internal_node_id":"0.0-6.0-194.0"},{"sim_score":5,"rt":3365,"stimulus":"[\"img/0899/fef567a2-c121-4481-9af0-ff108d199bbf.jpg\",\"img/0764/7f4ee8e3-9315-4a57-be7d-db8454b33766.jpg\"]","trial_type":"similarity","trial_index":201,"time_elapsed":1134602,"internal_node_id":"0.0-6.0-195.0"},{"sim_score":6,"rt":3077,"stimulus":"[\"img/0881/2a8413be-fec2-4de6-88ad-614dd4cccc9d.jpg\",\"img/0904/2c98dc56-88d1-4fb5-a999-b6a7861f65f0.jpg\"]","trial_type":"similarity","trial_index":202,"time_elapsed":1138693,"internal_node_id":"0.0-6.0-196.0"},{"sim_score":7,"rt":2825,"stimulus":"[\"img/0864/4bd81bc6-c13d-46df-95a9-485886dc7c1b.jpg\",\"img/0902/d2c34af0-8c50-437d-8cc3-619195a3e8ba.jpg\"]","trial_type":"similarity","trial_index":203,"time_elapsed":1142521,"internal_node_id":"0.0-6.0-197.0"},{"sim_score":5,"rt":3634,"stimulus":"[\"img/0894/661b9f9f-4bde-487a-b1ed-87085fde6948.jpg\",\"img/0904/0d25eb24-bb20-4e8d-9787-8b489558b4cb.jpg\"]","trial_type":"similarity","trial_index":204,"time_elapsed":1147160,"internal_node_id":"0.0-6.0-198.0"},{"sim_score":7,"rt":2835,"stimulus":"[\"img/0901/4ca4f962-40c0-4c59-b14a-3cd7b8c9029b.jpg\",\"img/0901/6e2957f8-f5ab-46f4-87cc-bb50155a098b.jpg\"]","trial_type":"similarity","trial_index":205,"time_elapsed":1151011,"internal_node_id":"0.0-6.0-199.0"},{"sim_score":6,"rt":3465,"stimulus":"[\"img/0894/1a010553-d598-4b06-a772-81f1e7b3addb.jpg\",\"img/0860/fd4662f9-4c03-4d79-8593-06735e55a64b.jpg\"]","trial_type":"similarity","trial_index":206,"time_elapsed":1155493,"internal_node_id":"0.0-6.0-200.0"},{"sim_score":7,"rt":2564,"stimulus":"[\"img/0898/f3a3f225-1248-4ac7-b93b-f0ff28485bf3.jpg\",\"img/0903/f45a103c-9bfe-49fd-ad96-bdd8d2589195.jpg\"]","trial_type":"similarity","trial_index":207,"time_elapsed":1159063,"internal_node_id":"0.0-6.0-201.0"},{"sim_score":5,"rt":2821,"stimulus":"[\"img/0864/1ebbc554-99fa-49f9-8799-317375a79820.jpg\",\"img/0894/e6385e52-6c35-43bd-b0af-bc803d107b11.jpg\"]","trial_type":"similarity","trial_index":208,"time_elapsed":1162908,"internal_node_id":"0.0-6.0-202.0"},{"sim_score":1,"rt":3512,"stimulus":"[\"img/0874/31e22c7c-99aa-40b1-bf03-dd73fa2df4d6.jpg\",\"img/0860/61fb959d-d4d9-4de4-9e4e-4fa62b4cfcd5.jpg\"]","trial_type":"similarity","trial_index":209,"time_elapsed":1167420,"internal_node_id":"0.0-6.0-203.0"},{"sim_score":6,"rt":3222,"stimulus":"[\"img/0862/ee3b7bff-4a70-4e84-9bea-4a565e456acb.jpg\",\"img/0875/a4935837-7d3c-4df6-88c1-36a94d4991ca.jpg\"]","trial_type":"similarity","trial_index":210,"time_elapsed":1171668,"internal_node_id":"0.0-6.0-204.0"},{"sim_score":1,"rt":2530,"stimulus":"[\"img/0867/c71dc569-f49c-4397-8381-68b8d726736d.jpg\",\"img/0881/0c7068da-d0d9-4103-bda1-74ef7a2b32c3.jpg\"]","trial_type":"similarity","trial_index":211,"time_elapsed":1175205,"internal_node_id":"0.0-6.0-205.0"},{"sim_score":7,"rt":2431,"stimulus":"[\"img/0901/5657dd86-0ff9-4753-ba2b-9dfb223e5c89.jpg\",\"img/0902/22ed3536-288b-452e-9777-0fa0ab94deb0.jpg\"]","trial_type":"similarity","trial_index":212,"time_elapsed":1178653,"internal_node_id":"0.0-6.0-206.0"},{"sim_score":6,"rt":3610,"stimulus":"[\"img/0899/7b7380d5-d2be-44e5-a09a-c1756f87ef71.jpg\",\"img/0864/9b2490c5-a282-400a-9736-e1a0ecbf1cb7.jpg\"]","trial_type":"similarity","trial_index":213,"time_elapsed":1183285,"internal_node_id":"0.0-6.0-207.0"},{"sim_score":5,"rt":2984,"stimulus":"[\"img/0901/4f9cffe0-c0be-4d7f-bacd-9d51efd19b4a.jpg\",\"img/0769/50985283-d353-4abc-9abe-14a91d56ebe6.jpg\"]","trial_type":"similarity","trial_index":214,"time_elapsed":1187282,"internal_node_id":"0.0-6.0-208.0"},{"sim_score":7,"rt":3053,"stimulus":"[\"img/0902/af45fe42-178c-4c1a-99ef-256e87e3b092.jpg\",\"img/0902/10d99c89-71f7-4c81-a31e-dfc7c59f5232.jpg\"]","trial_type":"similarity","trial_index":215,"time_elapsed":1196580,"internal_node_id":"0.0-6.0-209.0"},{"view_history":"[{\"page_index\":0,\"viewing_time\":5184}]","rt":5184,"trial_type":"instructions","trial_index":216,"time_elapsed":1202777,"internal_node_id":"0.0-7.0"},{"rt":19974,"responses":"{\"Q0\":\"Orange-crowned Warbler\"}","answer":["Nashville Warbler"],"trial_type":"image-multi-choice","trial_index":217,"time_elapsed":1223784,"internal_node_id":"0.0-8.0-0.0"},{"rt":14184,"responses":"{\"Q0\":\"Black-and-white Warbler\"}","answer":["Black-and-white Warbler"],"trial_type":"image-multi-choice","trial_index":218,"time_elapsed":1238990,"internal_node_id":"0.0-8.0-1.0"},{"rt":6803,"responses":"{\"Q0\":\"Blackburnian Warbler\"}","answer":["Townsend's Warbler"],"trial_type":"image-multi-choice","trial_index":219,"time_elapsed":1246805,"internal_node_id":"0.0-8.0-2.0"},{"rt":7519,"responses":"{\"Q0\":\"White-throated Sparrow\"}","answer":["Lark Sparrow"],"trial_type":"image-multi-choice","trial_index":220,"time_elapsed":1255347,"internal_node_id":"0.0-8.0-3.0"},{"rt":7256,"responses":"{\"Q0\":\"Yellow Warbler\"}","answer":["Yellow Warbler"],"trial_type":"image-multi-choice","trial_index":221,"time_elapsed":1263626,"internal_node_id":"0.0-8.0-4.0"},{"rt":11887,"responses":"{\"Q0\":\"Tennessee Warbler\"}","answer":["Orange-crowned Warbler"],"trial_type":"image-multi-choice","trial_index":222,"time_elapsed":1276531,"internal_node_id":"0.0-8.0-5.0"},{"rt":6128,"responses":"{\"Q0\":\"White-crowned Sparrow\"}","answer":["White-throated Sparrow"],"trial_type":"image-multi-choice","trial_index":223,"time_elapsed":1283693,"internal_node_id":"0.0-8.0-6.0"},{"rt":5647,"responses":"{\"Q0\":\"Fox Sparrow\"}","answer":["Fox Sparrow"],"trial_type":"image-multi-choice","trial_index":224,"time_elapsed":1290360,"internal_node_id":"0.0-8.0-7.0"},{"rt":5310,"responses":"{\"Q0\":\"Chipping Sparrow\"}","answer":["Song Sparrow"],"trial_type":"image-multi-choice","trial_index":225,"time_elapsed":1296687,"internal_node_id":"0.0-8.0-8.0"},{"rt":17802,"responses":"{\"Q0\":\"Magnolia Warbler\"}","answer":["Blackburnian Warbler"],"trial_type":"image-multi-choice","trial_index":226,"time_elapsed":1315516,"internal_node_id":"0.0-8.0-9.0"},{"rt":7938,"responses":"{\"Q0\":\"Song Sparrow\"}","answer":["Vesper Sparrow"],"trial_type":"image-multi-choice","trial_index":227,"time_elapsed":1324474,"internal_node_id":"0.0-8.0-10.0"},{"rt":6568,"responses":"{\"Q0\":\"White-crowned Sparrow\"}","answer":["White-crowned Sparrow"],"trial_type":"image-multi-choice","trial_index":228,"time_elapsed":1332074,"internal_node_id":"0.0-8.0-11.0"},{"rt":8805,"responses":"{\"Q0\":\"Swamp Sparrow\"}","answer":["American Tree Sparrow"],"trial_type":"image-multi-choice","trial_index":229,"time_elapsed":1341901,"internal_node_id":"0.0-8.0-12.0"},{"rt":17922,"responses":"{\"Q0\":\"Nashville Warbler\"}","answer":["Tennessee Warbler"],"trial_type":"image-multi-choice","trial_index":230,"time_elapsed":1360842,"internal_node_id":"0.0-8.0-13.0"},{"rt":4512,"responses":"{\"Q0\":\"Blackburnian Warbler\"}","answer":["Magnolia Warbler"],"trial_type":"image-multi-choice","trial_index":231,"time_elapsed":1366381,"internal_node_id":"0.0-8.0-14.0"},{"rt":7873,"responses":"{\"Q0\":\"Northern Waterthrush\"}","answer":["Northern Waterthrush"],"trial_type":"image-multi-choice","trial_index":232,"time_elapsed":1375275,"internal_node_id":"0.0-8.0-15.0"},{"rt":5654,"responses":"{\"Q0\":\"Chipping Sparrow\"}","answer":["Chipping Sparrow"],"trial_type":"image-multi-choice","trial_index":233,"time_elapsed":1381946,"internal_node_id":"0.0-8.0-16.0"},{"rt":8965,"responses":"{\"Q0\":\"Swamp Sparrow\"}","answer":["Swamp Sparrow"],"trial_type":"image-multi-choice","trial_index":234,"time_elapsed":1391924,"internal_node_id":"0.0-8.0-17.0"},{"rt":6960,"responses":"{\"Q0\":\"Lincoln's Sparrow\"}","answer":["Lincoln's Sparrow"],"trial_type":"image-multi-choice","trial_index":235,"time_elapsed":1399903,"internal_node_id":"0.0-8.0-18.0"},{"rt":14619,"responses":"{\"Q0\":\"Ovenbird\"}","answer":["Ovenbird"],"trial_type":"image-multi-choice","trial_index":236,"time_elapsed":1415542,"internal_node_id":"0.0-8.0-19.0"}]