"view_history","rt","trial_type","trial_index","time_elapsed","internal_node_id","sim_score","stimulus","responses","answer"
"[{""page_index"":0,""viewing_time"":26392}]","26393","instructions","0","26393","0.0-0.0","","","",""
"","8233","similarity_demo","1","35631","0.0-1.0","5","[""img/866.jpg"",""img/868.jpg""]","",""
"[{""page_index"":0,""viewing_time"":6661}]","6662","instructions","2","43294","0.0-2.0","","","",""
"","5554","similarity_demo","3","49851","0.0-3.0","1","[""img/766.jpg"",""img/867.jpg""]","",""
"[{""page_index"":0,""viewing_time"":7020}]","7020","instructions","4","57872","0.0-4.0","","","",""
"[{""page_index"":0,""viewing_time"":49360}]","49360","instructions","5","108233","0.0-5.0","","","",""
"","5968","similarity","6","115206","0.0-6.0-0.0","1","[""img/0868/7b212364-ff5f-4e28-9241-7eb6ea00161b.jpg"",""img/0901/ae1e6ce4-2e10-4ca9-b1e7-21628637ab74.jpg""]","",""
"","5934","similarity","7","122143","0.0-6.0-1.0","1","[""img/0769/14d393ce-e5be-4ca1-86ce-cc27d4b6074c.jpg"",""img/0867/db7e032f-162b-46f5-ae67-2b29679adee4.jpg""]","",""
"","5217","similarity","8","128365","0.0-6.0-2.0","5","[""img/0766/f011ef45-fb48-44b8-8224-867ed2ccf786.jpg"",""img/0898/e167334e-cc1d-4986-b3b1-c7bc7da64baa.jpg""]","",""
"","5573","similarity","9","134940","0.0-6.0-3.0","5","[""img/0902/cf9dee9c-2bdf-4d64-9302-97f1660fe52c.jpg"",""img/0881/f62bdcd1-a4b7-4d48-83da-d9c9e01c8727.jpg""]","",""
"","6610","similarity","10","142553","0.0-6.0-4.0","7","[""img/0894/bd34223a-2f66-4e16-9d18-193a746b69ff.jpg"",""img/0894/7fb082e0-ce79-485c-9109-04367fb32275.jpg""]","",""
"","5413","similarity","11","148968","0.0-6.0-5.0","2","[""img/0874/85eb9b8a-c4c6-4e5a-b8e7-363a87a82054.jpg"",""img/0899/5b56dd3e-3f49-47cc-af84-16da6457753b.jpg""]","",""
"","6163","similarity","12","156134","0.0-6.0-6.0","2","[""img/0904/6291eb43-c10c-4810-a36a-101d09868b04.jpg"",""img/0764/713cc27e-2338-4486-bfe9-5f5725fbd7a0.jpg""]","",""
"","5480","similarity","13","162616","0.0-6.0-7.0","1","[""img/0899/51a7a498-98c7-42d7-bca8-bc2d8f0b5831.jpg"",""img/0898/82231d4c-218b-4d0a-b50d-35a49b524e97.jpg""]","",""
"","3768","similarity","14","167387","0.0-6.0-8.0","1","[""img/0874/3ce41e7c-40c8-4d58-a546-171114521796.jpg"",""img/0903/8635cf25-2648-4fe9-8c42-79d2598e999c.jpg""]","",""
"","3881","similarity","15","172271","0.0-6.0-9.0","1","[""img/0881/db77fe00-aeb0-4d1d-aa66-f3a96fd077e4.jpg"",""img/0758/d540bee6-b460-4c32-ac57-bc282742d7d4.jpg""]","",""
"","4507","similarity","16","177781","0.0-6.0-10.0","1","[""img/0898/26c41340-15bd-4ead-8fe4-c0d0ddca09c2.jpg"",""img/0901/a6c90438-fa7c-4418-ac7c-16c2e772dd98.jpg""]","",""
"","4824","similarity","17","183607","0.0-6.0-11.0","5","[""img/0903/70d764d9-1f35-4da7-a35d-4cc39834d270.jpg"",""img/0769/35f2dd39-40aa-498e-b401-9f1ef2622d00.jpg""]","",""
"","3312","similarity","18","187921","0.0-6.0-12.0","1","[""img/0764/f64dfa83-333d-494c-87b5-73e942f1766e.jpg"",""img/0868/5fa7f9d0-f0e5-454c-8224-74d964818f56.jpg""]","",""
"","3557","similarity","19","192481","0.0-6.0-13.0","1","[""img/0867/f8488a47-94ee-4166-952c-44e16cf172f6.jpg"",""img/0903/f10e9eb5-0c21-4a6a-944c-5f10a6d0fa4d.jpg""]","",""
"","4011","similarity","20","197494","0.0-6.0-14.0","1","[""img/0766/91fc8c4d-862f-4d2b-b1a1-2db8d729b6b7.jpg"",""img/0758/a085b443-b5d7-4cb2-9ad4-b9dab0fc23f1.jpg""]","",""
"","3899","similarity","21","202396","0.0-6.0-15.0","1","[""img/0902/a6fb6dd5-696c-47ec-be7d-d7b88f1544f1.jpg"",""img/0860/4c530c3c-6aab-492a-94d1-9c01797bde40.jpg""]","",""
"","3947","similarity","22","207344","0.0-6.0-16.0","1","[""img/0769/11518cb3-13ea-4dd0-890c-30cfab728ade.jpg"",""img/0875/2e13d160-eea1-416b-aff1-d37ab99ecc1d.jpg""]","",""
"","4261","similarity","23","212608","0.0-6.0-17.0","1","[""img/0904/4d7d70a3-9477-4921-bda0-f9531d0a5c5b.jpg"",""img/0866/93a27239-8317-4e08-98ca-d8b1ff298e07.jpg""]","",""
"","4069","similarity","24","217679","0.0-6.0-18.0","7","[""img/0875/ebf7653f-ff45-4e9f-af58-2c042ab3cd2b.jpg"",""img/0875/f87b67d7-c33e-40d1-b281-248c4be1cb6e.jpg""]","",""
"","3980","similarity","25","222661","0.0-6.0-19.0","3","[""img/0758/d57c2592-a317-4f63-91be-91a3a9afd222.jpg"",""img/0758/20497cbe-ddae-489e-86e2-ab06985ed07c.jpg""]","",""
"","3330","similarity","26","226993","0.0-6.0-20.0","1","[""img/0902/62f11694-7ed7-4cb7-8a73-9e95c43824e7.jpg"",""img/0874/ca76a855-4e77-4f2f-872a-0a718153e7ed.jpg""]","",""
"","4896","similarity","27","232891","0.0-6.0-21.0","5","[""img/0764/5d6fa3ce-9083-410c-bbdb-336a49b94cfc.jpg"",""img/0769/db94b61b-a5a7-4861-9d32-7b02ad194fb0.jpg""]","",""
"","3986","similarity","28","237880","0.0-6.0-22.0","1","[""img/0901/58978a6d-a3e2-4c59-8d62-f60693ecc0f6.jpg"",""img/0874/1016b306-087c-4afc-aa08-fa527b28dc76.jpg""]","",""
"","3639","similarity","29","242522","0.0-6.0-23.0","1","[""img/0875/42910c99-5463-450a-a0f8-d4d060a11455.jpg"",""img/0903/6138142e-c84e-45fc-9487-c974f3d4968a.jpg""]","",""
"","3960","similarity","30","247485","0.0-6.0-24.0","1","[""img/0769/aad494cc-674d-4a08-9bfa-24a88ebe3c79.jpg"",""img/0881/f7a8cc63-8842-40a4-9ff8-fe530310d62c.jpg""]","",""
"","4774","similarity","31","253262","0.0-6.0-25.0","1","[""img/0867/8ba0c5a7-c7e4-42cf-a80a-543763b90779.jpg"",""img/0904/06dacdc5-2206-4fb8-92b7-88042d22833c.jpg""]","",""
"","4515","similarity","32","258779","0.0-6.0-26.0","2","[""img/0860/e8b8c51e-1834-4875-8b61-6c5bc9b178bd.jpg"",""img/0881/19e82c47-8e4b-45d2-a6c8-74181eb4155e.jpg""]","",""
"","4068","similarity","33","263850","0.0-6.0-27.0","5","[""img/0866/02f5e6b9-52b7-448c-9708-5b460d0c9a23.jpg"",""img/0866/f756f7d1-9ad8-4a34-9ef6-7a443d705bfe.jpg""]","",""
"","3676","similarity","34","268530","0.0-6.0-28.0","1","[""img/0764/ba0c0955-acbb-457d-b1c2-f006b88121d5.jpg"",""img/0862/7918ca67-5bd3-4606-a5ea-c39fb11a9297.jpg""]","",""
"","3677","similarity","35","273211","0.0-6.0-29.0","1","[""img/0904/1d10df11-b5c8-4370-9a6b-097a7f965895.jpg"",""img/0758/a709631e-3705-4725-ac40-f0d916924f08.jpg""]","",""
"","4480","similarity","36","278694","0.0-6.0-30.0","2","[""img/0894/10f22b96-040c-44f4-950b-a4963f3f506c.jpg"",""img/0899/d60714ae-98d7-4564-8c98-94dba1351135.jpg""]","",""
"","5333","similarity","37","285031","0.0-6.0-31.0","4","[""img/0860/fd4662f9-4c03-4d79-8593-06735e55a64b.jpg"",""img/0904/0d17b811-063e-416e-a23c-3b3cfa4fcce5.jpg""]","",""
"","4165","similarity","38","290199","0.0-6.0-32.0","4","[""img/0874/7e4f2150-3b59-4a36-b5da-a4e0ba410531.jpg"",""img/0881/c843e210-bdfe-4a7c-8bbe-fcea1f90fe1c.jpg""]","",""
"","3645","similarity","39","294846","0.0-6.0-33.0","1","[""img/0881/e6746727-7f89-47ec-b939-d98abe78372d.jpg"",""img/0899/b45c550b-96c3-4255-ad59-48a2b4db1c1e.jpg""]","",""
"","3685","similarity","40","299533","0.0-6.0-34.0","1","[""img/0866/c446214b-a368-4c65-ae39-ea46894256ab.jpg"",""img/0862/ba89835a-408c-480b-8594-ed4ffa97eb5c.jpg""]","",""
"","3816","similarity","41","304352","0.0-6.0-35.0","1","[""img/0868/0d3abd3a-b6c3-4584-a9f7-e2da63748b3d.jpg"",""img/0894/a3d4170b-b7d8-40e3-955f-87e76ed745fc.jpg""]","",""
"","6284","similarity","42","311639","0.0-6.0-36.0","6","[""img/0860/61fb959d-d4d9-4de4-9e4e-4fa62b4cfcd5.jpg"",""img/0860/99c589b9-9140-4d17-90c0-b344323edcda.jpg""]","",""
"","5437","similarity","43","318079","0.0-6.0-37.0","1","[""img/0862/e8cc3bdf-cc43-4565-bccf-492626c70953.jpg"",""img/0864/5f33e097-23e3-4002-882d-76e8cb15f451.jpg""]","",""
"","3296","similarity","44","322380","0.0-6.0-38.0","1","[""img/0766/27f54113-8561-4568-9ffe-0a1650ae65ec.jpg"",""img/0866/a04d37f0-99dd-478a-b6c6-58b215138f84.jpg""]","",""
"","4114","similarity","45","327497","0.0-6.0-39.0","1","[""img/0875/fb732ab5-013a-4366-9f65-27811ed157e9.jpg"",""img/0898/5f699581-3853-4547-856c-12f419ba5af7.jpg""]","",""
"","5194","similarity","46","333695","0.0-6.0-40.0","2","[""img/0766/09f646c8-a69e-4ed3-879c-8d29b04ad7f9.jpg"",""img/0769/7c50e5f5-cc38-4d48-b009-fbe17bcea61c.jpg""]","",""
"","4261","similarity","47","353140","0.0-6.0-41.0","1","[""img/0874/3f471690-9788-4d03-90c7-f615aecef149.jpg"",""img/0764/f990b2e8-ecee-481e-be7c-0239fce350e2.jpg""]","",""
"","4457","similarity","48","358601","0.0-6.0-42.0","3","[""img/0868/e0aff734-077f-40dd-9781-74821abd3621.jpg"",""img/0902/b56db912-c3c0-4fc2-b325-d640acd7cb58.jpg""]","",""
"","4173","similarity","49","363777","0.0-6.0-43.0","2","[""img/0875/527ced51-8e53-4aab-ab05-86df219104c0.jpg"",""img/0899/00715b3f-851b-420b-a26b-d7f79f7759a9.jpg""]","",""
"","3685","similarity","50","368465","0.0-6.0-44.0","2","[""img/0866/8efcaa46-83ab-4dee-a35f-850402aa21ae.jpg"",""img/0860/5383b320-1518-4095-a58e-5cc1ae30b64c.jpg""]","",""
"","3249","similarity","51","372716","0.0-6.0-45.0","1","[""img/0766/6d32752d-aa05-40dc-9541-640b6e9d6fa1.jpg"",""img/0903/31b5a5f4-b695-4af1-bad2-a19650a05498.jpg""]","",""
"","3610","similarity","52","377330","0.0-6.0-46.0","6","[""img/0901/b9141736-3041-4385-a586-b1fe911c76a5.jpg"",""img/0904/b5855d6a-7ef9-46ca-9215-6e9fa046e543.jpg""]","",""
"","3849","similarity","53","382182","0.0-6.0-47.0","5","[""img/0758/6e95579b-5166-487c-b8cb-e417c6a218e3.jpg"",""img/0902/c920f0e1-1c81-480f-a164-c77f2dc6ce9a.jpg""]","",""
"","4073","similarity","54","387258","0.0-6.0-48.0","6","[""img/0764/fb7d4a20-a475-465e-a74f-aa39a0d33d16.jpg"",""img/0764/5d83b9db-3b2b-4dc8-9bd1-2b515b19c858.jpg""]","",""
"","3491","similarity","55","391752","0.0-6.0-49.0","1","[""img/0866/9b38d691-1802-4959-ab3f-fc902f0e4ea6.jpg"",""img/0902/1a120fb9-dbd6-443e-ba91-b4aceab963da.jpg""]","",""
"","4083","similarity","56","396838","0.0-6.0-50.0","5","[""img/0764/e30dba15-e68a-4659-89db-e1654b52fe02.jpg"",""img/0758/ddc336e9-a8b6-4bb9-937a-c7e25e0e9250.jpg""]","",""
"","4100","similarity","57","401940","0.0-6.0-51.0","2","[""img/0898/68476bbb-34a1-42d9-8bc1-deab783d4489.jpg"",""img/0894/6aa5545f-fa7d-4286-bbaa-aaf34dc7ec96.jpg""]","",""
"","3587","similarity","58","406531","0.0-6.0-52.0","1","[""img/0875/03c3c331-738b-4446-af92-3d7386b08c2e.jpg"",""img/0866/d493a2c8-66eb-44b4-be02-2f327b700b7c.jpg""]","",""
"","3685","similarity","59","411219","0.0-6.0-53.0","6","[""img/0904/a8c3c7d2-9bcf-4347-9e03-8203adfc1fc5.jpg"",""img/0904/09934646-45d2-4147-8fec-64a22a5ac822.jpg""]","",""
"","3753","similarity","60","415975","0.0-6.0-54.0","6","[""img/0769/bb8c4e53-6f32-4814-97ee-392d4decfb2e.jpg"",""img/0769/9ea27d61-3d55-418c-8d14-82e90f656f01.jpg""]","",""
"","3703","similarity","61","420680","0.0-6.0-55.0","3","[""img/0898/881e2a85-d5c2-49be-a0c6-8a6ce2c4af08.jpg"",""img/0758/7ee8bc8f-c40b-4b3a-84ec-3e83580622d4.jpg""]","",""
"","4115","similarity","62","425798","0.0-6.0-56.0","5","[""img/0769/1ca58b80-2365-446d-9616-6c1719e6c46f.jpg"",""img/0902/01b41522-de46-4c3a-b0af-a61b2682b40e.jpg""]","",""
"","5236","similarity","63","432037","0.0-6.0-57.0","4","[""img/0864/3651d070-2fc5-4848-b6a6-088a2d9ac5c9.jpg"",""img/0881/292e9b4b-fca0-4ba8-87f1-4048f9e37b7d.jpg""]","",""
"","3072","similarity","64","436111","0.0-6.0-58.0","1","[""img/0758/e1ba5e53-addc-436a-b428-d34fc1b130dc.jpg"",""img/0868/4e626425-63c8-484a-8a1d-e66ee4e0bef8.jpg""]","",""
"","6105","similarity","65","443219","0.0-6.0-59.0","2","[""img/0862/fad1d7c1-8187-43c3-942a-0fc12183e48e.jpg"",""img/0769/a1ce8d07-ba37-40de-bade-2778805521e0.jpg""]","",""
"","3539","similarity","66","447761","0.0-6.0-60.0","5","[""img/0764/56441045-b648-4ede-9632-3e9c0227080b.jpg"",""img/0903/6378ee1e-3d2b-48d2-87be-bebda32c8268.jpg""]","",""
"","4116","similarity","67","452880","0.0-6.0-61.0","1","[""img/0899/ad8268c5-8199-48d0-ad70-c5b6d6c599ec.jpg"",""img/0899/a05bea16-2bb4-4cb9-b8fb-4ff975db6971.jpg""]","",""
"","4109","similarity","68","457991","0.0-6.0-62.0","5","[""img/0860/17b44a7d-c5ca-479f-9e87-f65a64f5c80e.jpg"",""img/0875/d59ff733-eaff-4ee2-9443-06954dd0bcb6.jpg""]","",""
"","3239","similarity","69","462233","0.0-6.0-63.0","1","[""img/0868/09a9ef4d-d000-4cfa-a6aa-ebec7c2edeb4.jpg"",""img/0874/c0378dac-9370-439a-8b79-db27c96fb390.jpg""]","",""
"","3849","similarity","70","467083","0.0-6.0-64.0","5","[""img/0758/821c68d3-5cb0-4eae-8659-30e6263fca39.jpg"",""img/0862/57b6f83f-c763-4858-830d-102f97bfefbf.jpg""]","",""
"","4213","similarity","71","472298","0.0-6.0-65.0","6","[""img/0904/d23dd7be-7fe8-4435-82f7-bd592c01e6a1.jpg"",""img/0898/b2732712-71c2-45d8-834f-2b2ed5504910.jpg""]","",""
"","4246","similarity","72","477547","0.0-6.0-66.0","3","[""img/0881/84397291-bc14-4fbf-90e8-241e486ab0fe.jpg"",""img/0866/945c6710-d15b-4a5b-a8f6-69af0850357f.jpg""]","",""
"","3515","similarity","73","482064","0.0-6.0-67.0","1","[""img/0867/de92135f-5b65-4ed9-b245-188292c7c2f8.jpg"",""img/0898/01bfe666-3510-4fc7-964f-d00d28732dc8.jpg""]","",""
"","4838","similarity","74","487905","0.0-6.0-68.0","6","[""img/0902/af45fe42-178c-4c1a-99ef-256e87e3b092.jpg"",""img/0764/fb92924f-5cfe-4b89-b130-0cce8cc5636b.jpg""]","",""
"","4212","similarity","75","493120","0.0-6.0-69.0","6","[""img/0875/8521fd58-3b1e-4dc5-97ae-804edfa6734a.jpg"",""img/0867/c66898ba-b71b-4d50-84f9-f7f84853a98d.jpg""]","",""
"","3809","similarity","76","497931","0.0-6.0-70.0","6","[""img/0766/af3be95e-e52e-4fae-899b-0ff02ec340aa.jpg"",""img/0764/bd2eaa3e-95a9-4a59-a78e-3f81c766eea9.jpg""]","",""
"","3953","similarity","77","502887","0.0-6.0-71.0","4","[""img/0894/43216a7f-27bc-4b5a-8841-d122a30da9d9.jpg"",""img/0867/cc72ed48-7704-422c-86d6-467a1145287a.jpg""]","",""
"","3775","similarity","78","507665","0.0-6.0-72.0","1","[""img/0875/2c361b79-c3d1-4eda-812e-bf03192407bf.jpg"",""img/0764/b328441c-f81c-486c-9eae-b947c70ba7cd.jpg""]","",""
"","4505","similarity","79","513172","0.0-6.0-73.0","6","[""img/0867/075e0f95-856b-4cbb-acf5-092393aaf04e.jpg"",""img/0866/620cd1aa-0800-4414-8f6e-90342e7a99ad.jpg""]","",""
"","3596","similarity","80","517771","0.0-6.0-74.0","1","[""img/0903/97a42b34-5462-4665-88c7-83c014b33d24.jpg"",""img/0758/2fa3e613-e676-4e6e-bd12-705327eeb3e1.jpg""]","",""
"","4514","similarity","81","523288","0.0-6.0-75.0","2","[""img/0766/2da002a4-05c9-4f5c-9ed7-433b4183e273.jpg"",""img/0868/8b0b8473-e2c0-4331-aa56-c3a5c29369da.jpg""]","",""
"","4180","similarity","82","528471","0.0-6.0-76.0","6","[""img/0874/31e22c7c-99aa-40b1-bf03-dd73fa2df4d6.jpg"",""img/0766/fd064894-7147-4af5-97e9-2089d5472656.jpg""]","",""
"","3865","similarity","83","533337","0.0-6.0-77.0","2","[""img/0881/4bd34581-94d8-4e88-8c89-5cef864ca3be.jpg"",""img/0868/293079b8-7e0c-4afd-a390-1e5d35fe3ded.jpg""]","",""
"","4027","similarity","84","538366","0.0-6.0-78.0","1","[""img/0758/61d64021-9214-4951-bdf8-f871f9827cf9.jpg"",""img/0901/8bb79e82-9c43-4b6f-a655-40655519598b.jpg""]","",""
"","4977","similarity","85","544345","0.0-6.0-79.0","2","[""img/0881/6b1189e6-232d-4042-8885-16dc7b10e0d4.jpg"",""img/0898/661621d4-a14e-487c-8c74-354134a29710.jpg""]","",""
"","3556","similarity","86","548904","0.0-6.0-80.0","1","[""img/0867/bf560d4f-dee3-4f11-a385-705cc1aa5f3c.jpg"",""img/0758/caa93da2-9edf-49fa-96b9-32dedd8f5078.jpg""]","",""
"","4001","similarity","87","553908","0.0-6.0-81.0","3","[""img/0769/180213e5-1e50-4b4e-87b6-add77ba04d39.jpg"",""img/0899/4f7bc593-8ddd-4da3-a0b9-84da730d3370.jpg""]","",""
"","4027","similarity","88","558937","0.0-6.0-82.0","7","[""img/0903/b548d383-2a95-4575-8c13-647873751ff1.jpg"",""img/0903/59defeb8-98bd-4570-a2f8-9bd189e68ef4.jpg""]","",""
"","4060","similarity","89","570334","0.0-6.0-83.0","3","[""img/0867/f26f6b60-f772-4f4c-95a4-addc62cfd692.jpg"",""img/0766/d3bab2fc-ddcc-40a0-bb72-c0d0ebe19978.jpg""]","",""
"","3906","similarity","90","575242","0.0-6.0-84.0","1","[""img/0902/95a36b6b-9601-4fa5-8fd9-606ea62f9425.jpg"",""img/0867/5e07b34d-b40f-4b1c-ac10-49975bace45f.jpg""]","",""
"","3596","similarity","91","579841","0.0-6.0-85.0","1","[""img/0901/31c032fd-3c3d-4882-a226-da9a80198937.jpg"",""img/0875/3ecb367d-e9eb-4826-8aaa-7aa72fb98019.jpg""]","",""
"","3490","similarity","92","584334","0.0-6.0-86.0","6","[""img/0764/17b088f8-3053-4140-b544-d15654cc79ef.jpg"",""img/0866/0207e9a2-7dbb-40b5-9459-b472aaeceb2a.jpg""]","",""
"","4362","similarity","93","589699","0.0-6.0-87.0","5","[""img/0901/71e551a2-9ce2-409c-9c7c-dd556a0791e9.jpg"",""img/0894/e2446cf5-cd48-486a-badc-76498e087fbe.jpg""]","",""
"","3807","similarity","94","594508","0.0-6.0-88.0","6","[""img/0898/cd3aaa3f-efa9-4ab3-8d6f-a6a9273ddf42.jpg"",""img/0769/3c1203c5-2ce7-466e-957a-8d77b5905460.jpg""]","",""
"","4622","similarity","95","600133","0.0-6.0-89.0","7","[""img/0769/96556ef3-7fac-4c9d-8281-1cb0ea5081bc.jpg"",""img/0894/11674fa4-285d-44e2-939f-2228c6a64080.jpg""]","",""
"","5005","similarity","96","606139","0.0-6.0-90.0","5","[""img/0862/f188d4f0-76a4-4102-818c-a209969d73a5.jpg"",""img/0874/ca23d307-fc00-4d7d-9106-584c6eb21b4d.jpg""]","",""
"","3253","similarity","97","610393","0.0-6.0-91.0","4","[""img/0894/5c7677b0-a4f1-479e-b274-7822c415175a.jpg"",""img/0766/908bc45b-7c9e-4f95-806e-86b196ebcb2c.jpg""]","",""
"","3759","similarity","98","615155","0.0-6.0-92.0","1","[""img/0874/2c9464dd-8a23-4baa-ac94-1ba3af5c15cc.jpg"",""img/0867/f8159067-056c-41f1-a136-c529fe5e970a.jpg""]","",""
"","4573","similarity","99","620731","0.0-6.0-93.0","1","[""img/0899/f95cbdb4-f804-4f5d-ad76-373ad343e658.jpg"",""img/0868/fd307a36-9a3a-47d7-ab7c-f810d0b35040.jpg""]","",""
"","3614","similarity","100","625348","0.0-6.0-94.0","1","[""img/0903/e2e55a9e-0397-4dc0-8adf-4a54cfefe1fe.jpg"",""img/0862/847e5208-38ec-4f36-949c-296cdd7424ee.jpg""]","",""
"","4009","similarity","101","630361","0.0-6.0-95.0","6","[""img/0899/565ccdd9-0933-4536-a625-3c0e25a713dd.jpg"",""img/0766/d512b99c-a2dc-40d7-8e86-827323a0cbcf.jpg""]","",""
"","5122","similarity","102","636485","0.0-6.0-96.0","7","[""img/0867/aa05d113-fc19-4756-a8eb-7878f580bc92.jpg"",""img/0868/4a8a45ed-2c4f-421b-9564-409a33ecd26c.jpg""]","",""
"","4090","similarity","103","641578","0.0-6.0-97.0","6","[""img/0862/fb26cb07-d5a9-4653-813c-f41609f26cd5.jpg"",""img/0901/d61f267a-c492-4db6-9bfb-61efd49cf072.jpg""]","",""
"","4032","similarity","104","646614","0.0-6.0-98.0","4","[""img/0875/90da8d75-108a-44ad-b999-e21fee3860d3.jpg"",""img/0766/1bc0dccc-a5b5-4375-87fa-28360ca42b12.jpg""]","",""
"","3327","similarity","105","650944","0.0-6.0-99.0","5","[""img/0758/3ddd05d3-557e-4ee7-8b78-9d2d681d8ae2.jpg"",""img/0874/99f6563c-8a8d-4c1c-a41d-667b618c3fd5.jpg""]","",""
"","3774","similarity","106","655721","0.0-6.0-100.0","3","[""img/0904/09dac84f-3d1c-4445-a68e-d0389fdbf1e9.jpg"",""img/0868/179a5502-ab5c-478e-8263-5a1fbcc101d2.jpg""]","",""
"","4577","similarity","107","661301","0.0-6.0-101.0","5","[""img/0903/5ea5bbe0-f238-4724-abe7-9ed8dee8c0ba.jpg"",""img/0866/be24ab58-230e-4db8-9f45-ff04c9aec6bb.jpg""]","",""
"","4062","similarity","108","666366","0.0-6.0-102.0","2","[""img/0868/77091fc7-a590-4ebb-b915-fdb2483a2399.jpg"",""img/0769/8056889f-2b14-4782-bb25-b4e8896ab65b.jpg""]","",""
"","4488","similarity","109","671856","0.0-6.0-103.0","6","[""img/0902/7f1dcd35-237a-4995-9e42-7f63f3f434d4.jpg"",""img/0899/0e1d936a-dbe2-4afc-9f19-7b7a1ae6c9ed.jpg""]","",""
"","4316","similarity","110","677176","0.0-6.0-104.0","2","[""img/0868/d6d1f30d-4323-435a-b194-7892521bc57e.jpg"",""img/0862/00c06b00-3b73-44e9-bc1e-c5aafb438321.jpg""]","",""
"","4343","similarity","111","682522","0.0-6.0-105.0","5","[""img/0903/f45a103c-9bfe-49fd-ad96-bdd8d2589195.jpg"",""img/0894/1b3888e6-cf36-4c4a-a039-187aa5cb71ac.jpg""]","",""
"","3994","similarity","112","687520","0.0-6.0-106.0","4","[""img/0864/afcba0a3-7e27-4757-b254-e9f05fad27e2.jpg"",""img/0874/bf14b896-e930-4fd9-9c05-2e83317a2773.jpg""]","",""
"","5019","similarity","113","693543","0.0-6.0-107.0","6","[""img/0862/064818ee-13d5-4618-bb24-21c7368ea278.jpg"",""img/0902/eb3e7e71-8ff1-4b88-a6a7-47e2c1ce1683.jpg""]","",""
"","5690","similarity","114","700236","0.0-6.0-108.0","6","[""img/0904/2f88ce53-02d0-4f95-a082-182c56a0eeb4.jpg"",""img/0903/c708d08f-a108-4e04-8288-c3fcf6375db4.jpg""]","",""
"","4753","similarity","115","705993","0.0-6.0-109.0","5","[""img/0764/cffc80b0-4a90-4acb-a530-6f480f3ca303.jpg"",""img/0864/87c467d3-abca-482f-ad80-3766c21b1bb3.jpg""]","",""
"","4562","similarity","116","711558","0.0-6.0-110.0","2","[""img/0866/d266fece-59b3-46fa-b69f-96f6efb81b59.jpg"",""img/0894/e5edf723-72a5-4673-8441-6c1734a8929b.jpg""]","",""
"","5179","similarity","117","717740","0.0-6.0-111.0","1","[""img/0899/93494f3b-d539-4075-b027-d82e344563da.jpg"",""img/0903/71dbc325-b588-4297-a5cf-7f268a722ad9.jpg""]","",""
"","4741","similarity","118","723484","0.0-6.0-112.0","7","[""img/0902/27b84584-948a-485b-8749-cb09929ef631.jpg"",""img/0904/ba8e689e-9ca6-4608-a2a1-3b0940666ae6.jpg""]","",""
"","5001","similarity","119","729488","0.0-6.0-113.0","1","[""img/0864/ef9cbca0-4be8-435d-ad49-977259e80409.jpg"",""img/0860/18dfed73-e36b-4487-a8bd-0b8cff8e3668.jpg""]","",""
"","4091","similarity","120","734582","0.0-6.0-114.0","1","[""img/0860/9593362c-9fe5-4d12-9735-6000a11f6aa5.jpg"",""img/0899/fd9efb43-701f-4cd6-baaa-4c38315f4bdc.jpg""]","",""
"","5584","similarity","121","741169","0.0-6.0-115.0","5","[""img/0881/344de456-b358-4887-bd0e-e4c3278af887.jpg"",""img/0903/0a92ec52-4e87-410a-857a-4455cde56a70.jpg""]","",""
"","5127","similarity","122","747300","0.0-6.0-116.0","3","[""img/0894/3adef67d-7676-4995-80b2-bb31b8aca3ef.jpg"",""img/0874/a3bc679d-619f-4db6-bb68-116dcb757d9c.jpg""]","",""
"","6103","similarity","123","754407","0.0-6.0-117.0","2","[""img/0881/d1982897-8d8d-4704-a940-1ee5d07a1f15.jpg"",""img/0862/e697469a-ec19-4414-b972-7b9f3564785b.jpg""]","",""
"","4935","similarity","124","760345","0.0-6.0-118.0","6","[""img/0868/6a28c3b0-3d76-498a-9fb7-ddafc665eca8.jpg"",""img/0875/34132396-d896-4c2d-8087-646dd867e769.jpg""]","",""
"","4084","similarity","125","765432","0.0-6.0-119.0","2","[""img/0860/524b2e98-5767-4d53-942c-ebae6925659b.jpg"",""img/0758/f61ecdf8-a7d4-4db0-b84d-be46f7cfaffc.jpg""]","",""
"","4528","similarity","126","770963","0.0-6.0-120.0","5","[""img/0864/0f537697-a314-47c3-a8cc-8df23b7e536c.jpg"",""img/0875/dbdd643e-6d0e-4a5c-ab57-b9c29b9c981a.jpg""]","",""
"","3781","similarity","127","775748","0.0-6.0-121.0","3","[""img/0898/79233891-305a-4a6a-8ddf-5c8604858203.jpg"",""img/0866/07c9c966-3c8d-40e7-8128-92b2acbaed5d.jpg""]","",""
"","4503","similarity","128","781254","0.0-6.0-122.0","3","[""img/0874/995f0332-0439-4eb4-add3-957335dbf6d9.jpg"",""img/0904/da170c1b-9651-4f08-b231-2bdd1d9a046f.jpg""]","",""
"","4692","similarity","129","786950","0.0-6.0-123.0","3","[""img/0904/96e503ea-6630-4996-85f2-0237688ce441.jpg"",""img/0864/c3b63e8f-ea39-4d70-a1f2-b3fe4be8eb75.jpg""]","",""
"","4174","similarity","130","792127","0.0-6.0-124.0","1","[""img/0894/b422d5c6-3c5a-49ae-a53e-7e88ac993f49.jpg"",""img/0902/8af4182a-9af9-4212-a436-9195555112d6.jpg""]","",""
"","5001","similarity","131","803772","0.0-6.0-125.0","3","[""img/0868/d98ca254-b195-477f-b57e-5760a2717db8.jpg"",""img/0864/8ddd2e30-a1d0-479f-9cbe-591213023893.jpg""]","",""
"","3652","similarity","132","808427","0.0-6.0-126.0","1","[""img/0899/66ab3178-c3fe-4455-ad17-d5952b08e018.jpg"",""img/0866/bf14b5bd-fb55-47db-86b9-4f8aeb9a6dad.jpg""]","",""
"","4350","similarity","133","813781","0.0-6.0-127.0","2","[""img/0875/99698b4d-b4a1-44bc-8c83-8ea755bbbf61.jpg"",""img/0904/2c98dc56-88d1-4fb5-a999-b6a7861f65f0.jpg""]","",""
"","4985","similarity","134","819770","0.0-6.0-128.0","2","[""img/0867/85a96c62-548f-4994-9553-819e03c3135a.jpg"",""img/0899/8de08897-b430-42fe-9d42-840670b80f94.jpg""]","",""
"","6356","similarity","135","827129","0.0-6.0-129.0","2","[""img/0901/33b51a81-06d9-46d9-9d4f-5a2d6d6b8058.jpg"",""img/0867/a498eef3-9fa4-4ab2-9778-4ae82ac40dc5.jpg""]","",""
"","5276","similarity","136","833407","0.0-6.0-130.0","5","[""img/0864/ea327690-500b-4137-bf91-451b309fe6a5.jpg"",""img/0769/022c7e3b-c3f2-4119-b4bc-f22fa7cae18c.jpg""]","",""
"","4548","similarity","137","838959","0.0-6.0-131.0","5","[""img/0903/8c358e9e-a4f4-466e-8b93-7aec0d2358e8.jpg"",""img/0868/83b4350a-3b70-4cea-b7f5-b5b56f3050a8.jpg""]","",""
"","4034","similarity","138","843996","0.0-6.0-132.0","4","[""img/0864/6e846d43-94a6-4b37-a268-65eda979f052.jpg"",""img/0867/98d8cd96-1476-4fe0-a3a3-04f875500a1b.jpg""]","",""
"","4974","similarity","139","849974","0.0-6.0-133.0","6","[""img/0901/08d6d1d1-c043-43c4-bb08-d45e062822b9.jpg"",""img/0860/94ef7afc-e0e6-4a15-98c6-0bfac82bc832.jpg""]","",""
"","4068","similarity","140","855045","0.0-6.0-134.0","5","[""img/0881/1407b85b-a1c6-45b1-9884-3b24203efadb.jpg"",""img/0766/717fd72f-a281-499b-a5ba-5e2ecc4d4866.jpg""]","",""
"","3723","similarity","141","859772","0.0-6.0-135.0","6","[""img/0903/2a9c8033-3e70-47fa-816d-97ee1813a3a3.jpg"",""img/0864/6f631579-acf1-415c-a42c-1207f62a8d99.jpg""]","",""
"","4239","similarity","142","865014","0.0-6.0-136.0","2","[""img/0758/67c0be2f-9e91-48b3-8219-70ac0a1802fa.jpg"",""img/0894/151063aa-6472-4745-837b-36603aba5966.jpg""]","",""
"","4229","similarity","143","870246","0.0-6.0-137.0","1","[""img/0769/057eb0a0-aa5b-40c7-9852-21444f68d767.jpg"",""img/0860/c5ccd1a4-4bb7-48e1-9b25-72cfaf06909b.jpg""]","",""
"","5324","similarity","144","876573","0.0-6.0-138.0","6","[""img/0904/63dd06dd-dccb-47ba-9740-eb33239e18a7.jpg"",""img/0766/fd74fdbb-ea40-4f3a-a091-38d08dfd636e.jpg""]","",""
"","5837","similarity","145","883413","0.0-6.0-139.0","6","[""img/0868/15dd6fd7-791e-4b53-b203-195d617521a4.jpg"",""img/0860/8277806e-b684-4474-8f7b-3fca946d7d4f.jpg""]","",""
"","4234","similarity","146","888650","0.0-6.0-140.0","6","[""img/0758/dd559618-7f09-4a07-8018-d311c4a5ea29.jpg"",""img/0864/3d4de670-b290-4285-9c3d-12a0e3af44e9.jpg""]","",""
"","3637","similarity","147","893290","0.0-6.0-141.0","7","[""img/0867/179ab87a-8eac-4c52-a41f-2e48e3120f09.jpg"",""img/0867/c71dc569-f49c-4397-8381-68b8d726736d.jpg""]","",""
"","3969","similarity","148","898262","0.0-6.0-142.0","7","[""img/0898/81b08535-2020-4c15-9ce4-2f1e460755ae.jpg"",""img/0898/993d8f2d-bef7-4251-a193-0f93a32b7763.jpg""]","",""
"","4359","similarity","149","903624","0.0-6.0-143.0","5","[""img/0866/4a87911a-d5be-4d4e-ab8e-3d1f581bf507.jpg"",""img/0769/c7cfacc3-7f07-46ff-9f5d-8073f4c4679b.jpg""]","",""
"","4156","similarity","150","908783","0.0-6.0-144.0","2","[""img/0860/c47fdead-eb02-4989-b078-26f4852f44fe.jpg"",""img/0898/f3a3f225-1248-4ac7-b93b-f0ff28485bf3.jpg""]","",""
"","5178","similarity","151","914965","0.0-6.0-145.0","5","[""img/0766/e8052e17-9dae-4139-802b-6e590cb2d526.jpg"",""img/0864/c22faebd-9c53-47bc-ada3-b9a30c688e75.jpg""]","",""
"","5407","similarity","152","921376","0.0-6.0-146.0","7","[""img/0860/c3379ff7-0763-48fe-a1ec-7ea3d611bc7a.jpg"",""img/0903/6f343da5-00d9-4d50-89d1-2ed24cdb8319.jpg""]","",""
"","4317","similarity","153","926697","0.0-6.0-147.0","2","[""img/0867/1719a35d-f085-48c0-9099-16c94fe418b4.jpg"",""img/0764/ca957454-126a-4bd3-b29c-7174a24c25dc.jpg""]","",""
"","3579","similarity","154","931279","0.0-6.0-148.0","3","[""img/0769/e31b3bd8-efcb-413e-aa8c-75fac2b8f2ac.jpg"",""img/0904/5cceabc9-de1d-4c67-989b-c28a4ef77e79.jpg""]","",""
"","5123","similarity","155","937403","0.0-6.0-149.0","3","[""img/0764/ca9829fe-aaf8-45b8-b98a-6bae751c63dd.jpg"",""img/0901/1ede21d9-384f-4150-86b5-e1c57b5dc1d4.jpg""]","",""
"","4018","similarity","156","942425","0.0-6.0-150.0","2","[""img/0904/73920552-103b-4c9c-9ece-e0b8376b4504.jpg"",""img/0899/7f9d45d0-b2c6-40d3-aa41-c207db2c411b.jpg""]","",""
"","3693","similarity","157","947122","0.0-6.0-151.0","1","[""img/0862/cdaed51d-9e2f-4807-801a-4663c40077e2.jpg"",""img/0867/a749dddb-69f0-44a6-acdc-2bf295cf6dcc.jpg""]","",""
"","5400","similarity","158","953526","0.0-6.0-152.0","7","[""img/0766/33519c22-aaa4-49d7-8d49-ab551db1945e.jpg"",""img/0766/006035d8-c736-4daf-bbe4-a9e373af9da6.jpg""]","",""
"","5387","similarity","159","959917","0.0-6.0-153.0","2","[""img/0862/24cdc752-c2e5-4a17-86a6-6f2045d8553b.jpg"",""img/0894/2217bdcd-23a7-42d3-823b-23f2488d7e87.jpg""]","",""
"","4354","similarity","160","965274","0.0-6.0-154.0","5","[""img/0899/57476fed-5962-4272-8fc9-b317bb777b54.jpg"",""img/0901/4d1bed7e-3c4e-4f6c-ada9-4beb66ba9e39.jpg""]","",""
"","4413","similarity","161","970689","0.0-6.0-155.0","6","[""img/0874/767f289c-9814-4496-803f-745cc8913d1f.jpg"",""img/0874/29830da7-be5f-44e5-b141-652a0ccf7269.jpg""]","",""
"","4494","similarity","162","976187","0.0-6.0-156.0","5","[""img/0860/8a92e21b-6a32-4e4a-a445-2d5a487ed0a4.jpg"",""img/0867/26611f4e-d694-4460-b7e2-43c62753ddc3.jpg""]","",""
"","4394","similarity","163","981585","0.0-6.0-157.0","1","[""img/0901/12da1841-e611-435c-9719-109413d536a8.jpg"",""img/0881/7e31e5dc-2240-4b1b-b5a0-3acd980099ef.jpg""]","",""
"","5214","similarity","164","987802","0.0-6.0-158.0","6","[""img/0903/005ad0de-4f52-433c-b515-dbe8d46184a3.jpg"",""img/0902/4e0baa32-988e-46f6-989d-f669225ab645.jpg""]","",""
"","3818","similarity","165","992624","0.0-6.0-159.0","3","[""img/0860/b03b963d-949b-4d8d-b19c-4950c89eeca2.jpg"",""img/0764/d0bef2e0-e16b-4c82-9451-c1d16265eb67.jpg""]","",""
"","5742","similarity","166","999369","0.0-6.0-160.0","3","[""img/0902/10d99c89-71f7-4c81-a31e-dfc7c59f5232.jpg"",""img/0875/a4935837-7d3c-4df6-88c1-36a94d4991ca.jpg""]","",""
"","4691","similarity","167","1005063","0.0-6.0-161.0","4","[""img/0898/6cd3830b-d44e-4915-be2b-88d31424b91c.jpg"",""img/0862/d0ca4c78-fc35-46ed-bdcc-8e124283c53e.jpg""]","",""
"","3822","similarity","168","1009889","0.0-6.0-162.0","3","[""img/0894/661b9f9f-4bde-487a-b1ed-87085fde6948.jpg"",""img/0875/5a716432-c6ca-4b1c-955a-2b8ac25198ee.jpg""]","",""
"","4262","similarity","169","1015154","0.0-6.0-163.0","3","[""img/0866/6f2a90d7-14f1-4f1b-bd64-fc0af6b9fe44.jpg"",""img/0864/49150900-7f25-4ce8-8d10-9b47a71d1997.jpg""]","",""
"","5504","similarity","170","1021661","0.0-6.0-164.0","2","[""img/0766/00891401-e4c9-4ce1-bc19-f70740d174bc.jpg"",""img/0862/f23038d4-c366-4f70-979f-66b62362efa4.jpg""]","",""
"","5228","similarity","171","1027892","0.0-6.0-165.0","1","[""img/0866/23a224f3-2012-4fc8-8e0f-3c36f8de27fd.jpg"",""img/0874/8cdb1c07-1c32-46d2-981c-3636560fa6e5.jpg""]","",""
"","4712","similarity","172","1033607","0.0-6.0-166.0","6","[""img/0862/53a9cf7c-93c4-41b9-952f-07d17f7a17b2.jpg"",""img/0860/c7047cd2-7cc1-41b6-8a34-c0986774975f.jpg""]","",""
"","4882","similarity","173","1042067","0.0-6.0-167.0","5","[""img/0766/71b81ebd-0937-4d7f-b8bf-c4e46a4728fd.jpg"",""img/0901/c6c877e0-dd63-4e00-9657-33af29d55aab.jpg""]","",""
"","5580","similarity","174","1048650","0.0-6.0-168.0","3","[""img/0862/ad593cc7-cabe-4bb7-8e14-8a447a0717b4.jpg"",""img/0862/5d887e9f-89e2-4ebc-80a0-6d46fe6480db.jpg""]","",""
"","6038","similarity","175","1055692","0.0-6.0-169.0","6","[""img/0894/767a0eec-1064-46b1-b1aa-dfa02b0cd74e.jpg"",""img/0764/6ef77040-1fae-4afa-bfe7-eda98e6d0376.jpg""]","",""
"","5205","similarity","176","1061900","0.0-6.0-170.0","1","[""img/0874/a82926a3-0b43-4add-803c-d5f9ea7798ee.jpg"",""img/0898/04e39a7a-fcf6-4156-ab0e-f5871f335e1c.jpg""]","",""
"","7039","similarity","177","1069942","0.0-6.0-171.0","1","[""img/0860/15b24a61-25be-4356-9eac-5ce95d0cb4a4.jpg"",""img/0766/535849cc-ff5d-4df9-8f31-0ce94a97d571.jpg""]","",""
"","3974","similarity","178","1074919","0.0-6.0-172.0","5","[""img/0898/08c72dac-f8ad-407a-9ce6-8c9a5d679c3a.jpg"",""img/0864/4bd81bc6-c13d-46df-95a9-485886dc7c1b.jpg""]","",""
"","4664","similarity","179","1080586","0.0-6.0-173.0","6","[""img/0881/2a8413be-fec2-4de6-88ad-614dd4cccc9d.jpg"",""img/0764/1f95ab5f-fb65-4d70-b5db-d6bd6351a8aa.jpg""]","",""
"","4196","similarity","180","1085785","0.0-6.0-174.0","2","[""img/0898/0c7dde4f-efce-4b7a-9387-6921635b7890.jpg"",""img/0868/4bd5105a-d2c3-4f82-8c80-57196106ba53.jpg""]","",""
"","6452","similarity","181","1093240","0.0-6.0-175.0","7","[""img/0864/e8bd659f-aa43-4748-877e-3118e8b4e189.jpg"",""img/0864/66091c27-e588-4476-8af9-265dc6be4156.jpg""]","",""
"","5592","similarity","182","1099834","0.0-6.0-176.0","2","[""img/0899/d8f2dd94-570e-4e8c-a087-d96090fb9e8c.jpg"",""img/0862/ee3b7bff-4a70-4e84-9bea-4a565e456acb.jpg""]","",""
"","4231","similarity","183","1105069","0.0-6.0-177.0","1","[""img/0875/5a7c4e35-6514-4e12-8879-d16071da4cd6.jpg"",""img/0758/335851a0-a55b-46d8-ab05-8463eda48349.jpg""]","",""
"","4125","similarity","184","1110198","0.0-6.0-178.0","1","[""img/0866/11a1d141-be5e-443c-98c1-a9d4d9e3dec0.jpg"",""img/0901/6e2957f8-f5ab-46f4-87cc-bb50155a098b.jpg""]","",""
"","4263","similarity","185","1115465","0.0-6.0-179.0","1","[""img/0769/d1be2815-fa79-46e8-b5c3-7d81caaca490.jpg"",""img/0874/eba003b4-cdab-4eee-8bc3-f064c7d94165.jpg""]","",""
"","4943","similarity","186","1121412","0.0-6.0-180.0","2","[""img/0875/e7e66b13-b573-431e-b85e-288ce04a35a3.jpg"",""img/0881/609a5e93-38b5-4940-8627-2bf8fad7f802.jpg""]","",""
"","4360","similarity","187","1126775","0.0-6.0-181.0","7","[""img/0866/386235d2-6857-41e7-88a8-25cfc3430025.jpg"",""img/0868/3a62db2d-97e9-44a3-b8e3-a48c6f0e423b.jpg""]","",""
"","7267","similarity","188","1135045","0.0-6.0-182.0","4","[""img/0899/1b3457ea-87d4-4946-a01c-aac1863ed46c.jpg"",""img/0758/65d426d6-3ff6-415d-8654-a43b83ecc4fe.jpg""]","",""
"","5154","similarity","189","1141201","0.0-6.0-183.0","5","[""img/0874/93d1f8dc-acf2-4f03-bd8d-8ec35df276ed.jpg"",""img/0875/cff79b3a-a797-4393-9757-6275f999ec04.jpg""]","",""
"","5380","similarity","190","1147585","0.0-6.0-184.0","2","[""img/0904/65e2b70a-b184-4da3-b5c0-5038bdf9469a.jpg"",""img/0862/de9ad88c-b522-430a-8ee9-eb06a9f85df5.jpg""]","",""
"","4637","similarity","191","1153225","0.0-6.0-185.0","3","[""img/0902/511abb54-0094-4f4d-b6dc-3f2c97050521.jpg"",""img/0766/33aa9ebb-c9f5-418f-8c8b-c77861889568.jpg""]","",""
"","5848","similarity","192","1160076","0.0-6.0-186.0","2","[""img/0758/7ffbc76b-1fc1-432c-8f7e-9ec8d1b3f643.jpg"",""img/0769/4a1d0b52-3fe8-40fb-bb1c-c814fe49a68c.jpg""]","",""
"","4761","similarity","193","1165840","0.0-6.0-187.0","6","[""img/0881/633c6f40-56d9-4b48-bf1c-ecd83116eabb.jpg"",""img/0881/d373cb9f-a719-4549-a2a4-82def79fb2a5.jpg""]","",""
"","5665","similarity","194","1172507","0.0-6.0-188.0","3","[""img/0758/e38fd80d-18d0-42f3-b848-f930788e8bd7.jpg"",""img/0866/a15b02be-11bb-43e3-b0e0-ecc3bd7dfc49.jpg""]","",""
"","6673","similarity","195","1180183","0.0-6.0-189.0","6","[""img/0764/b887d7c6-aa81-4637-af8e-05135757ac59.jpg"",""img/0898/c3cecf20-f7fd-45fa-97d0-dc0a63e8d6c0.jpg""]","",""
"","4180","similarity","196","1185365","0.0-6.0-190.0","5","[""img/0903/47e39de8-6959-469f-8be9-6999a6db207c.jpg"",""img/0901/4f9cffe0-c0be-4d7f-bacd-9d51efd19b4a.jpg""]","",""
"","4425","similarity","197","1190794","0.0-6.0-191.0","6","[""img/0902/bd89a85f-3853-4786-acd6-98818ee29f1c.jpg"",""img/0898/40f99fb2-64d2-4e72-8a7f-a1cf60741e69.jpg""]","",""
"","4879","similarity","198","1196675","0.0-6.0-192.0","4","[""img/0864/e02eddb5-f468-499c-91bf-f7be3ffe979b.jpg"",""img/0901/d6d15b1c-4a30-4f74-a3fd-d4c8ee4169ca.jpg""]","",""
"","4051","similarity","199","1201729","0.0-6.0-193.0","3","[""img/0894/5f15154e-e72e-4ce5-aafb-bce6f0564006.jpg"",""img/0881/566f45f8-5fed-4479-a60f-26377e60a62d.jpg""]","",""
"","5008","similarity","200","1207739","0.0-6.0-194.0","6","[""img/0868/c8ac40c7-6904-4e13-8d61-c75d3052dc4e.jpg"",""img/0868/1a62b2b2-18f5-466e-b564-5176a57c565e.jpg""]","",""
"","4286","similarity","201","1213028","0.0-6.0-195.0","7","[""img/0899/76ad07e2-ca25-45eb-84f2-8d80b8ca3e26.jpg"",""img/0764/29072395-f595-4e3c-83d3-ff87010039fa.jpg""]","",""
"","5210","similarity","202","1219241","0.0-6.0-196.0","4","[""img/0881/b1a136f7-8511-4d3a-a0f6-3879acf1e1a1.jpg"",""img/0904/56e73f28-7e64-489b-a161-e6b1a063878d.jpg""]","",""
"","4814","similarity","203","1225059","0.0-6.0-197.0","3","[""img/0864/efcfbb1b-8197-44c9-b723-40d6c608dd3c.jpg"",""img/0902/3f0eeac5-c996-4026-a376-563ce8f28521.jpg""]","",""
"","5916","similarity","204","1231978","0.0-6.0-198.0","5","[""img/0894/05161000-f476-499b-a878-c13c7f347fd9.jpg"",""img/0904/5aec2708-cf14-4a58-aa30-9a8a61c1be0e.jpg""]","",""
"","3897","similarity","205","1236878","0.0-6.0-199.0","7","[""img/0901/b123d109-47b4-4f9a-80c9-9bb16da42efa.jpg"",""img/0901/0f670aef-ac36-496d-8142-ee5fdb21dd82.jpg""]","",""
"","4968","similarity","206","1242848","0.0-6.0-200.0","3","[""img/0894/3664e04c-c6d3-4c9b-afb6-25d89974b174.jpg"",""img/0860/87039971-2210-4aab-93c0-8e9b5f1655b2.jpg""]","",""
"","4741","similarity","207","1248592","0.0-6.0-201.0","3","[""img/0898/a114b375-cb89-44ba-9498-74213f1ecdee.jpg"",""img/0903/3e9ee8a5-eb66-47f5-8973-8a5af1ddc87e.jpg""]","",""
"","4920","similarity","208","1254513","0.0-6.0-202.0","2","[""img/0864/f92649a2-0590-4d31-9a7a-1bfb81666a2d.jpg"",""img/0894/c505c65a-cde2-4f2c-8cde-f8676f7c894d.jpg""]","",""
"","4328","similarity","209","1259843","0.0-6.0-203.0","5","[""img/0874/adf9a8f1-c40b-402b-b95b-1e85a54a7b62.jpg"",""img/0860/8fdba999-b946-4c7d-9891-336018b563ef.jpg""]","",""
"","4904","similarity","210","1265750","0.0-6.0-204.0","2","[""img/0862/99a99e39-8355-44ec-b993-e7bcec111e1c.jpg"",""img/0875/5a1e5100-0d94-4fec-bbe9-ca9894d2cf8e.jpg""]","",""
"","4295","similarity","211","1271048","0.0-6.0-205.0","1","[""img/0867/2e1a0b58-cdb1-4107-a14e-452530d7b9b0.jpg"",""img/0881/c24f3051-eefa-42de-aba6-fccb56d93c70.jpg""]","",""
"","4946","similarity","212","1276997","0.0-6.0-206.0","6","[""img/0901/443f2e59-199b-4f7b-9de9-c44ad97326a5.jpg"",""img/0902/d2c34af0-8c50-437d-8cc3-619195a3e8ba.jpg""]","",""
"","3547","similarity","213","1281547","0.0-6.0-207.0","4","[""img/0899/fef567a2-c121-4481-9af0-ff108d199bbf.jpg"",""img/0864/1d15626a-2f7c-410f-819c-0fa2c967e95e.jpg""]","",""
"","4415","similarity","214","1286965","0.0-6.0-208.0","2","[""img/0901/5b97abf9-f0c8-4fd1-b921-36d574779078.jpg"",""img/0769/91acb237-65a3-4d0b-9748-af5c7b83d3c7.jpg""]","",""
"","3927","similarity","215","1297001","0.0-6.0-209.0","4","[""img/0902/40d0b6ec-3907-4573-b227-e7d8e9cad1c3.jpg"",""img/0902/94198618-7047-4dc9-ad04-85f4ba913067.jpg""]","",""
"[{""page_index"":0,""viewing_time"":6367}]","6368","instructions","216","1304369","0.0-7.0","","","",""
"","39648","image-multi-choice","217","1345026","0.0-8.0-0.0","","","{""Q0"":""Tennessee Warbler""}","Nashville Warbler"
"","7132","image-multi-choice","218","1353164","0.0-8.0-1.0","","","{""Q0"":""Black-and-white Warbler""}","Black-and-white Warbler"
"","6627","image-multi-choice","219","1360799","0.0-8.0-2.0","","","{""Q0"":""Blackburnian Warbler""}","Townsend's Warbler"
"","21736","image-multi-choice","220","1383541","0.0-8.0-3.0","","","{""Q0"":""American Tree Sparrow""}","Lark Sparrow"
"","11657","image-multi-choice","221","1396205","0.0-8.0-4.0","","","{""Q0"":""Yellow Warbler""}","Yellow Warbler"
"","25770","image-multi-choice","222","1422980","0.0-8.0-5.0","","","{""Q0"":""Townsend's Warbler""}","Orange-crowned Warbler"
"","13657","image-multi-choice","223","1437643","0.0-8.0-6.0","","","{""Q0"":""White-throated Sparrow""}","White-throated Sparrow"
"","11433","image-multi-choice","224","1450085","0.0-8.0-7.0","","","{""Q0"":""Swamp Sparrow""}","Fox Sparrow"
"","24593","image-multi-choice","225","1475687","0.0-8.0-8.0","","","{""Q0"":""Chipping Sparrow""}","Song Sparrow"
"","10710","image-multi-choice","226","1487405","0.0-8.0-9.0","","","{""Q0"":""Blackburnian Warbler""}","Blackburnian Warbler"
"","16085","image-multi-choice","227","1504497","0.0-8.0-10.0","","","{""Q0"":""Lincoln's Sparrow""}","Vesper Sparrow"
"","13777","image-multi-choice","228","1519282","0.0-8.0-11.0","","","{""Q0"":""White-crowned Sparrow""}","White-crowned Sparrow"
"","18534","image-multi-choice","229","1538825","0.0-8.0-12.0","","","{""Q0"":""Chipping Sparrow""}","American Tree Sparrow"
"","18318","image-multi-choice","230","1558151","0.0-8.0-13.0","","","{""Q0"":""Ovenbird""}","Tennessee Warbler"
"","10611","image-multi-choice","231","1569770","0.0-8.0-14.0","","","{""Q0"":""Townsend's Warbler""}","Magnolia Warbler"
"","26593","image-multi-choice","232","1597371","0.0-8.0-15.0","","","{""Q0"":""Northern Waterthrush""}","Northern Waterthrush"
"","13443","image-multi-choice","233","1611823","0.0-8.0-16.0","","","{""Q0"":""Chipping Sparrow""}","Chipping Sparrow"
"","29727","image-multi-choice","234","1642559","0.0-8.0-17.0","","","{""Q0"":""Lincoln's Sparrow""}","Swamp Sparrow"
"","19793","image-multi-choice","235","1663361","0.0-8.0-18.0","","","{""Q0"":""Swamp Sparrow""}","Lincoln's Sparrow"
"","12124","image-multi-choice","236","1676492","0.0-8.0-19.0","","","{""Q0"":""Northern Waterthrush""}","Ovenbird"
