"view_history","rt","trial_type","trial_index","time_elapsed","internal_node_id","sim_score","stimulus","responses","answer"
"[{""page_index"":0,""viewing_time"":1900}]","1901","instructions","0","1903","0.0-0.0","","","",""
"","6018","similarity_demo","1","8960","0.0-1.0","5","[""img/866.jpg"",""img/868.jpg""]","",""
"[{""page_index"":0,""viewing_time"":2827}]","2828","instructions","2","12801","0.0-2.0","","","",""
"","3079","similarity_demo","3","16918","0.0-3.0","1","[""img/766.jpg"",""img/867.jpg""]","",""
"[{""page_index"":0,""viewing_time"":6183}]","6184","instructions","4","24115","0.0-4.0","","","",""
"[{""page_index"":0,""viewing_time"":2824}]","2825","instructions","5","27948","0.0-5.0","","","",""
"","3233","similarity","6","32226","0.0-6.0-0.0","1","[""img/0868/3a62db2d-97e9-44a3-b8e3-a48c6f0e423b.jpg"",""img/0901/a0d65c84-3f20-476a-92d1-0c01e8019cf4.jpg""]","",""
"","4520","similarity","7","37800","0.0-6.0-1.0","2","[""img/0769/8056889f-2b14-4782-bb25-b4e8896ab65b.jpg"",""img/0867/179ab87a-8eac-4c52-a41f-2e48e3120f09.jpg""]","",""
"","2912","similarity","8","41745","0.0-6.0-2.0","1","[""img/0766/d8221e53-2300-4d99-ae1b-0bfb0eabe579.jpg"",""img/0898/0c7dde4f-efce-4b7a-9387-6921635b7890.jpg""]","",""
"","5917","similarity","9","48714","0.0-6.0-3.0","2","[""img/0902/04a6ad4a-afc6-4871-8225-56b299af7b6b.jpg"",""img/0881/44e09805-5a25-4f17-a716-4ad4a331b174.jpg""]","",""
"","3654","similarity","10","53395","0.0-6.0-4.0","6","[""img/0894/5c7677b0-a4f1-479e-b274-7822c415175a.jpg"",""img/0894/e6385e52-6c35-43bd-b0af-bc803d107b11.jpg""]","",""
"","4707","similarity","11","59147","0.0-6.0-5.0","4","[""img/0874/a82926a3-0b43-4add-803c-d5f9ea7798ee.jpg"",""img/0899/66bf4113-ee12-426c-84d2-ea410b6c803e.jpg""]","",""
"","3683","similarity","12","63860","0.0-6.0-6.0","5","[""img/0904/06dacdc5-2206-4fb8-92b7-88042d22833c.jpg"",""img/0764/4eff630a-6426-4f8d-b2ba-b4d9842a0962.jpg""]","",""
"","3780","similarity","13","68684","0.0-6.0-7.0","3","[""img/0899/0adc0bc3-6fca-4078-be6f-d45ddf1653d5.jpg"",""img/0898/68476bbb-34a1-42d9-8bc1-deab783d4489.jpg""]","",""
"","5636","similarity","14","75376","0.0-6.0-8.0","1","[""img/0874/995f0332-0439-4eb4-add3-957335dbf6d9.jpg"",""img/0903/b4a0f61e-a964-4b79-a9a7-f767a8f92f34.jpg""]","",""
"","5779","similarity","15","82174","0.0-6.0-9.0","4","[""img/0881/f7a8cc63-8842-40a4-9ff8-fe530310d62c.jpg"",""img/0758/6cd8c362-ae2a-41eb-80a3-3a4f7ace1530.jpg""]","",""
"","4306","similarity","16","87518","0.0-6.0-10.0","4","[""img/0898/01bfe666-3510-4fc7-964f-d00d28732dc8.jpg"",""img/0901/3db47171-0139-4235-82cd-0b1787b6775f.jpg""]","",""
"","4746","similarity","17","93297","0.0-6.0-11.0","5","[""img/0903/6a87dbad-9b8d-4ff5-9c41-03c9aa24f0c3.jpg"",""img/0769/0fe124d3-bcad-45f6-b64d-8f6eb8ee5251.jpg""]","",""
"","3294","similarity","18","97632","0.0-6.0-12.0","1","[""img/0764/5d6fa3ce-9083-410c-bbdb-336a49b94cfc.jpg"",""img/0868/fd307a36-9a3a-47d7-ab7c-f810d0b35040.jpg""]","",""
"","2630","similarity","19","101289","0.0-6.0-13.0","1","[""img/0867/c66898ba-b71b-4d50-84f9-f7f84853a98d.jpg"",""img/0903/b548d383-2a95-4575-8c13-647873751ff1.jpg""]","",""
"","4628","similarity","20","106953","0.0-6.0-14.0","1","[""img/0766/5d1b8041-c5a1-4b02-b4fe-3453d98a0d72.jpg"",""img/0758/3ddd05d3-557e-4ee7-8b78-9d2d681d8ae2.jpg""]","",""
"","5605","similarity","21","113595","0.0-6.0-15.0","4","[""img/0902/31abfa33-7cdb-44ad-968e-9f7b324d577a.jpg"",""img/0860/8277806e-b684-4474-8f7b-3fca946d7d4f.jpg""]","",""
"","3879","similarity","22","118515","0.0-6.0-16.0","1","[""img/0769/f229321f-04dd-42d7-b14a-ffad6b509862.jpg"",""img/0875/8521fd58-3b1e-4dc5-97ae-804edfa6734a.jpg""]","",""
"","4613","similarity","23","124165","0.0-6.0-17.0","3","[""img/0904/ba8e689e-9ca6-4608-a2a1-3b0940666ae6.jpg"",""img/0866/93a27239-8317-4e08-98ca-d8b1ff298e07.jpg""]","",""
"","4375","similarity","24","129574","0.0-6.0-18.0","6","[""img/0875/5a716432-c6ca-4b1c-955a-2b8ac25198ee.jpg"",""img/0875/34132396-d896-4c2d-8087-646dd867e769.jpg""]","",""
"","4217","similarity","25","134830","0.0-6.0-19.0","7","[""img/0758/53f35650-e455-4b53-8be4-c3c8271c6466.jpg"",""img/0758/7fba58df-2a7a-4b76-8a8f-62739f97f271.jpg""]","",""
"","5112","similarity","26","140983","0.0-6.0-20.0","1","[""img/0902/f3cfec34-482c-4bdb-9c92-19ea6cfce183.jpg"",""img/0874/31e22c7c-99aa-40b1-bf03-dd73fa2df4d6.jpg""]","",""
"","6158","similarity","27","148192","0.0-6.0-21.0","7","[""img/0764/ca9829fe-aaf8-45b8-b98a-6bae751c63dd.jpg"",""img/0769/48a1144d-fbda-4809-991b-fc8424a32ee4.jpg""]","",""
"","2589","similarity","28","151817","0.0-6.0-22.0","1","[""img/0901/12da1841-e611-435c-9719-109413d536a8.jpg"",""img/0874/2c9464dd-8a23-4baa-ac94-1ba3af5c15cc.jpg""]","",""
"","2779","similarity","29","155626","0.0-6.0-23.0","1","[""img/0875/42910c99-5463-450a-a0f8-d4d060a11455.jpg"",""img/0903/81368973-de81-46f4-844f-b901f3bfd66d.jpg""]","",""
"","3461","similarity","30","160114","0.0-6.0-24.0","3","[""img/0769/f73c5138-2f4c-4354-981c-129dff9cc734.jpg"",""img/0881/20af39f5-373d-4a55-a437-2dc4c0382c46.jpg""]","",""
"","2952","similarity","31","164115","0.0-6.0-25.0","1","[""img/0867/bf560d4f-dee3-4f11-a385-705cc1aa5f3c.jpg"",""img/0904/2c98dc56-88d1-4fb5-a999-b6a7861f65f0.jpg""]","",""
"","5574","similarity","32","170732","0.0-6.0-26.0","1","[""img/0860/17b44a7d-c5ca-479f-9e87-f65a64f5c80e.jpg"",""img/0881/14236cf2-6b95-48b8-9368-78af09d2d27f.jpg""]","",""
"","2911","similarity","33","174669","0.0-6.0-27.0","5","[""img/0866/23a224f3-2012-4fc8-8e0f-3c36f8de27fd.jpg"",""img/0866/11a1d141-be5e-443c-98c1-a9d4d9e3dec0.jpg""]","",""
"","4481","similarity","34","180184","0.0-6.0-28.0","1","[""img/0764/a3226bc4-dcc3-4608-bde8-1414d685ce5c.jpg"",""img/0862/92f0146c-20c4-482e-aef5-adb693790338.jpg""]","",""
"","3177","similarity","35","184390","0.0-6.0-29.0","1","[""img/0904/4b8daf2a-13a9-4ea9-9e0b-b265b6e933e7.jpg"",""img/0758/a085b443-b5d7-4cb2-9ad4-b9dab0fc23f1.jpg""]","",""
"","3094","similarity","36","188518","0.0-6.0-30.0","1","[""img/0894/9b1333fd-3561-43bf-aee5-99b7b7ca3dc3.jpg"",""img/0899/9de5e857-aa9a-4e0c-8ba2-46d79bd069a4.jpg""]","",""
"","6591","similarity","37","196136","0.0-6.0-31.0","1","[""img/0860/702bd09d-df3a-40aa-a267-5f04474305b5.jpg"",""img/0904/63dd06dd-dccb-47ba-9740-eb33239e18a7.jpg""]","",""
"","5860","similarity","38","203034","0.0-6.0-32.0","6","[""img/0874/c0378dac-9370-439a-8b79-db27c96fb390.jpg"",""img/0881/62a64f90-7a72-4aee-a1a1-0c548ac9bdda.jpg""]","",""
"","3920","similarity","39","208010","0.0-6.0-33.0","5","[""img/0881/f8bd891e-aa09-4782-89db-33e7cb2b0cf1.jpg"",""img/0899/f95cbdb4-f804-4f5d-ad76-373ad343e658.jpg""]","",""
"","221583","similarity","40","430617","0.0-6.0-34.0","4","[""img/0866/bf14b5bd-fb55-47db-86b9-4f8aeb9a6dad.jpg"",""img/0862/eefa5588-9efd-4591-aa5f-a2e17c7d7bcc.jpg""]","",""
"","3502","similarity","41","435162","0.0-6.0-35.0","1","[""img/0868/77091fc7-a590-4ebb-b915-fdb2483a2399.jpg"",""img/0894/e5edf723-72a5-4673-8441-6c1734a8929b.jpg""]","",""
"","4603","similarity","42","440802","0.0-6.0-36.0","5","[""img/0860/e14d67c1-6d92-4f1e-9257-c8607159c19c.jpg"",""img/0860/524b2e98-5767-4d53-942c-ebae6925659b.jpg""]","",""
"","3748","similarity","43","445580","0.0-6.0-37.0","5","[""img/0862/92fcd8a4-8193-4a6a-ae09-dd4a6338b0df.jpg"",""img/0864/5f33e097-23e3-4002-882d-76e8cb15f451.jpg""]","",""
"","3070","similarity","44","449692","0.0-6.0-38.0","1","[""img/0766/110832e5-2646-4bd0-a94e-5df8cc314269.jpg"",""img/0866/620cd1aa-0800-4414-8f6e-90342e7a99ad.jpg""]","",""
"","3233","similarity","45","453972","0.0-6.0-39.0","2","[""img/0875/cff79b3a-a797-4393-9757-6275f999ec04.jpg"",""img/0898/40f99fb2-64d2-4e72-8a7f-a1cf60741e69.jpg""]","",""
"","3373","similarity","46","458374","0.0-6.0-40.0","6","[""img/0766/989c5c7f-1aff-4442-ac63-9d46acf4a891.jpg"",""img/0769/662ab839-88d1-4ebf-af05-9b2980cad943.jpg""]","",""
"","3490","similarity","47","465075","0.0-6.0-41.0","2","[""img/0874/3f471690-9788-4d03-90c7-f615aecef149.jpg"",""img/0764/0e7ed062-f798-4366-8a24-6f430926f919.jpg""]","",""
"","3053","similarity","48","469183","0.0-6.0-42.0","1","[""img/0868/0d3abd3a-b6c3-4584-a9f7-e2da63748b3d.jpg"",""img/0902/94198618-7047-4dc9-ad04-85f4ba913067.jpg""]","",""
"","2764","similarity","49","472975","0.0-6.0-43.0","1","[""img/0875/5a1e5100-0d94-4fec-bbe9-ca9894d2cf8e.jpg"",""img/0899/76ad07e2-ca25-45eb-84f2-8d80b8ca3e26.jpg""]","",""
"","3662","similarity","50","477680","0.0-6.0-44.0","1","[""img/0866/02f5e6b9-52b7-448c-9708-5b460d0c9a23.jpg"",""img/0860/4f695df5-afac-4da7-9875-fee39b0b24ad.jpg""]","",""
"","4774","similarity","51","483489","0.0-6.0-45.0","5","[""img/0766/75c3d627-4f3b-40d5-9d9c-10c8a62db644.jpg"",""img/0903/2a9c8033-3e70-47fa-816d-97ee1813a3a3.jpg""]","",""
"","3617","similarity","52","488138","0.0-6.0-46.0","3","[""img/0901/6e2957f8-f5ab-46f4-87cc-bb50155a098b.jpg"",""img/0904/9d30eff1-46ef-4453-b11e-124ef8145c00.jpg""]","",""
"","3658","similarity","53","492827","0.0-6.0-47.0","5","[""img/0758/b76ceca7-95ac-46e4-ac13-da02c8e93be9.jpg"",""img/0902/cf9dee9c-2bdf-4d64-9302-97f1660fe52c.jpg""]","",""
"","3762","similarity","54","497628","0.0-6.0-48.0","7","[""img/0764/a86eed5b-d0af-4c3f-8c7a-26e98e98cf1a.jpg"",""img/0764/e0788029-9d7f-414c-b747-46d2a99f7c86.jpg""]","",""
"","3982","similarity","55","502653","0.0-6.0-49.0","2","[""img/0866/6f2a90d7-14f1-4f1b-bd64-fc0af6b9fe44.jpg"",""img/0902/fbef27fa-ac83-4936-ab78-9d1c20a383e1.jpg""]","",""
"","3317","similarity","56","507013","0.0-6.0-50.0","2","[""img/0764/4bec8d92-75aa-475a-954d-8215dbe538f5.jpg"",""img/0758/7ffbc76b-1fc1-432c-8f7e-9ec8d1b3f643.jpg""]","",""
"","4223","similarity","57","512270","0.0-6.0-51.0","2","[""img/0898/04e39a7a-fcf6-4156-ab0e-f5871f335e1c.jpg"",""img/0894/0130a973-d993-41f8-874a-fee23d9ac11f.jpg""]","",""
"","4758","similarity","58","518063","0.0-6.0-52.0","7","[""img/0875/f87b67d7-c33e-40d1-b281-248c4be1cb6e.jpg"",""img/0866/d493a2c8-66eb-44b4-be02-2f327b700b7c.jpg""]","",""
"","4082","similarity","59","523178","0.0-6.0-53.0","6","[""img/0904/fe746a3f-8458-48d0-8a13-8cba2a9df9f8.jpg"",""img/0904/60d1a521-edf7-4696-9263-f21ac0e62a01.jpg""]","",""
"","5773","similarity","60","530002","0.0-6.0-54.0","6","[""img/0769/3c1203c5-2ce7-466e-957a-8d77b5905460.jpg"",""img/0769/022c7e3b-c3f2-4119-b4bc-f22fa7cae18c.jpg""]","",""
"","5572","similarity","61","536603","0.0-6.0-55.0","2","[""img/0898/a114b375-cb89-44ba-9498-74213f1ecdee.jpg"",""img/0758/2fa3e613-e676-4e6e-bd12-705327eeb3e1.jpg""]","",""
"","3836","similarity","62","541467","0.0-6.0-56.0","1","[""img/0769/04347740-f8f6-48bb-887a-f68babd0a0d4.jpg"",""img/0902/c920f0e1-1c81-480f-a164-c77f2dc6ce9a.jpg""]","",""
"","4649","similarity","63","547148","0.0-6.0-57.0","7","[""img/0864/0116ca98-293d-4fa6-a93b-5a6144ef64cc.jpg"",""img/0881/19e82c47-8e4b-45d2-a6c8-74181eb4155e.jpg""]","",""
"","9427","similarity","64","557621","0.0-6.0-58.0","4","[""img/0758/a709631e-3705-4725-ac40-f0d916924f08.jpg"",""img/0868/c8ac40c7-6904-4e13-8d61-c75d3052dc4e.jpg""]","",""
"","3070","similarity","65","561718","0.0-6.0-59.0","2","[""img/0862/ba89835a-408c-480b-8594-ed4ffa97eb5c.jpg"",""img/0769/75f7e514-0548-4329-b1e4-93c05e74f038.jpg""]","",""
"","4647","similarity","66","567398","0.0-6.0-60.0","3","[""img/0764/f2f23359-8e82-41d3-8900-5b9f4433991d.jpg"",""img/0903/6b5dcc60-3ad3-4962-93e5-e6cf768477af.jpg""]","",""
"","3514","similarity","67","571951","0.0-6.0-61.0","5","[""img/0899/5b56dd3e-3f49-47cc-af84-16da6457753b.jpg"",""img/0899/565ccdd9-0933-4536-a625-3c0e25a713dd.jpg""]","",""
"","3768","similarity","68","576759","0.0-6.0-62.0","1","[""img/0860/c47fdead-eb02-4989-b078-26f4852f44fe.jpg"",""img/0875/2c361b79-c3d1-4eda-812e-bf03192407bf.jpg""]","",""
"","4091","similarity","69","581888","0.0-6.0-63.0","1","[""img/0868/d6d1f30d-4323-435a-b194-7892521bc57e.jpg"",""img/0874/ca23d307-fc00-4d7d-9106-584c6eb21b4d.jpg""]","",""
"","5231","similarity","70","588145","0.0-6.0-64.0","4","[""img/0758/65d426d6-3ff6-415d-8654-a43b83ecc4fe.jpg"",""img/0862/00c06b00-3b73-44e9-bc1e-c5aafb438321.jpg""]","",""
"","2998","similarity","71","592186","0.0-6.0-65.0","5","[""img/0904/4e58005d-a2ec-4aaa-b199-445343561396.jpg"",""img/0898/661621d4-a14e-487c-8c74-354134a29710.jpg""]","",""
"","3989","similarity","72","597218","0.0-6.0-66.0","1","[""img/0881/48ed65a5-471f-41af-86ec-3793805c116d.jpg"",""img/0866/8efcaa46-83ab-4dee-a35f-850402aa21ae.jpg""]","",""
"","3399","similarity","73","601667","0.0-6.0-67.0","1","[""img/0867/cc72ed48-7704-422c-86d6-467a1145287a.jpg"",""img/0898/ec565187-2e31-4fdd-9a5c-153d0c789ae0.jpg""]","",""
"","2872","similarity","74","605572","0.0-6.0-68.0","1","[""img/0902/418b716e-63e5-4c77-93e9-95b1f5a3ddf0.jpg"",""img/0764/fb7d4a20-a475-465e-a74f-aa39a0d33d16.jpg""]","",""
"","6926","similarity","75","613541","0.0-6.0-69.0","3","[""img/0875/527ced51-8e53-4aab-ab05-86df219104c0.jpg"",""img/0867/f26f6b60-f772-4f4c-95a4-addc62cfd692.jpg""]","",""
"","5658","similarity","76","620230","0.0-6.0-70.0","2","[""img/0766/51d3aab4-3d09-4dda-b99d-3dc7aaabc6f2.jpg"",""img/0764/50f1b062-d608-4bc0-ab25-b872dcf2ed93.jpg""]","",""
"","4398","similarity","77","625663","0.0-6.0-71.0","2","[""img/0894/6aa5545f-fa7d-4286-bbaa-aaf34dc7ec96.jpg"",""img/0867/f8488a47-94ee-4166-952c-44e16cf172f6.jpg""]","",""
"","3249","similarity","78","629944","0.0-6.0-72.0","2","[""img/0875/dbdd643e-6d0e-4a5c-ab57-b9c29b9c981a.jpg"",""img/0764/4952d0a0-c9be-471a-8ec7-94a37bf4051d.jpg""]","",""
"","4775","similarity","79","635761","0.0-6.0-73.0","4","[""img/0867/12264664-1860-46df-8c21-162b9817cdda.jpg"",""img/0866/386235d2-6857-41e7-88a8-25cfc3430025.jpg""]","",""
"","4404","similarity","80","641194","0.0-6.0-74.0","2","[""img/0903/8fcafe03-43df-4c45-9da5-0df3a1eeccc5.jpg"",""img/0758/dd559618-7f09-4a07-8018-d311c4a5ea29.jpg""]","",""
"","2941","similarity","81","645162","0.0-6.0-75.0","1","[""img/0766/d5d38751-8fa5-476f-93e9-86ed2d9045ef.jpg"",""img/0868/4bd5105a-d2c3-4f82-8c80-57196106ba53.jpg""]","",""
"","3853","similarity","82","650067","0.0-6.0-76.0","3","[""img/0874/29830da7-be5f-44e5-b141-652a0ccf7269.jpg"",""img/0766/d14acac4-7db1-4b07-8f8f-302437326fc0.jpg""]","",""
"","2978","similarity","83","654091","0.0-6.0-77.0","1","[""img/0881/b549bc99-a61c-4450-bab5-9efc3a197bf0.jpg"",""img/0868/09a9ef4d-d000-4cfa-a6aa-ebec7c2edeb4.jpg""]","",""
"","4577","similarity","84","659700","0.0-6.0-78.0","1","[""img/0758/6e95579b-5166-487c-b8cb-e417c6a218e3.jpg"",""img/0901/548d1110-7cb8-42a2-9927-9798875c8b5c.jpg""]","",""
"","3546","similarity","85","664285","0.0-6.0-79.0","4","[""img/0881/d373cb9f-a719-4549-a2a4-82def79fb2a5.jpg"",""img/0898/881e2a85-d5c2-49be-a0c6-8a6ce2c4af08.jpg""]","",""
"","2462","similarity","86","667790","0.0-6.0-80.0","1","[""img/0867/8ba0c5a7-c7e4-42cf-a80a-543763b90779.jpg"",""img/0758/20497cbe-ddae-489e-86e2-ab06985ed07c.jpg""]","",""
"","4232","similarity","87","673055","0.0-6.0-81.0","4","[""img/0769/11518cb3-13ea-4dd0-890c-30cfab728ade.jpg"",""img/0899/fd9efb43-701f-4cd6-baaa-4c38315f4bdc.jpg""]","",""
"","4952","similarity","88","679056","0.0-6.0-82.0","7","[""img/0903/36e4ab1f-caa9-40b3-8616-faada076df94.jpg"",""img/0903/150cf64c-0bd2-4674-abbb-a1387cf1f3e9.jpg""]","",""
"","3160","similarity","89","689639","0.0-6.0-83.0","1","[""img/0867/2e1a0b58-cdb1-4107-a14e-452530d7b9b0.jpg"",""img/0766/a0270213-fa0e-4972-8b56-228c3e01ff90.jpg""]","",""
"","2663","similarity","90","693330","0.0-6.0-84.0","1","[""img/0902/168ebd47-9e82-4ab7-a18b-c3da85072db8.jpg"",""img/0867/85a96c62-548f-4994-9553-819e03c3135a.jpg""]","",""
"","4472","similarity","91","698851","0.0-6.0-85.0","2","[""img/0901/a6c90438-fa7c-4418-ac7c-16c2e772dd98.jpg"",""img/0875/2e13d160-eea1-416b-aff1-d37ab99ecc1d.jpg""]","",""
"","3716","similarity","92","703604","0.0-6.0-86.0","5","[""img/0764/e30dba15-e68a-4659-89db-e1654b52fe02.jpg"",""img/0866/be24ab58-230e-4db8-9f45-ff04c9aec6bb.jpg""]","",""
"","7215","similarity","93","711861","0.0-6.0-87.0","1","[""img/0901/a373612d-67e2-4fec-9764-21d3d6ef6359.jpg"",""img/0894/05161000-f476-499b-a878-c13c7f347fd9.jpg""]","",""
"","4411","similarity","94","717310","0.0-6.0-88.0","2","[""img/0898/224c1572-56b9-4f16-a9e4-6f3bc9c114bd.jpg"",""img/0769/e8ed913b-8a88-44f6-9327-d34afec3116b.jpg""]","",""
"","5102","similarity","95","723447","0.0-6.0-89.0","6","[""img/0769/4680bcc3-8fbc-4643-8f9a-12aa0e780b64.jpg"",""img/0894/492d2f29-d7b9-4422-8be8-47fd58bfaa8b.jpg""]","",""
"","5371","similarity","96","729845","0.0-6.0-90.0","2","[""img/0862/57b6f83f-c763-4858-830d-102f97bfefbf.jpg"",""img/0874/8cdb1c07-1c32-46d2-981c-3636560fa6e5.jpg""]","",""
"","3150","similarity","97","734013","0.0-6.0-91.0","5","[""img/0894/2d2db7b3-e8a3-499b-b63a-14f51bf73882.jpg"",""img/0766/908bc45b-7c9e-4f95-806e-86b196ebcb2c.jpg""]","",""
"","3626","similarity","98","738670","0.0-6.0-92.0","3","[""img/0874/bf14b896-e930-4fd9-9c05-2e83317a2773.jpg"",""img/0867/db7e032f-162b-46f5-ae67-2b29679adee4.jpg""]","",""
"","6364","similarity","99","746071","0.0-6.0-93.0","1","[""img/0899/fef567a2-c121-4481-9af0-ff108d199bbf.jpg"",""img/0868/179a5502-ab5c-478e-8263-5a1fbcc101d2.jpg""]","",""
"","3017","similarity","100","750123","0.0-6.0-94.0","5","[""img/0903/f1fa0f8d-e62b-4b4a-a174-31a0fabfe61b.jpg"",""img/0862/e8cc3bdf-cc43-4565-bccf-492626c70953.jpg""]","",""
"","3298","similarity","101","754456","0.0-6.0-95.0","6","[""img/0899/ddf96ade-692e-4602-bd22-dedbb46401bc.jpg"",""img/0766/27f54113-8561-4568-9ffe-0a1650ae65ec.jpg""]","",""
"","2720","similarity","102","758209","0.0-6.0-96.0","7","[""img/0867/f8159067-056c-41f1-a136-c529fe5e970a.jpg"",""img/0868/8b0b8473-e2c0-4331-aa56-c3a5c29369da.jpg""]","",""
"","3935","similarity","103","763178","0.0-6.0-97.0","7","[""img/0862/4f0a3b4c-afbf-486e-b248-1d54982f54b4.jpg"",""img/0901/50e1d53e-a49f-4806-8610-be6dec5a2475.jpg""]","",""
"","3510","similarity","104","767730","0.0-6.0-98.0","1","[""img/0875/99698b4d-b4a1-44bc-8c83-8ea755bbbf61.jpg"",""img/0766/1865bfc9-2410-4765-a804-3ae4ba2393d0.jpg""]","",""
"","5827","similarity","105","774588","0.0-6.0-99.0","6","[""img/0758/335851a0-a55b-46d8-ab05-8463eda48349.jpg"",""img/0874/1016b306-087c-4afc-aa08-fa527b28dc76.jpg""]","",""
"","3882","similarity","106","779508","0.0-6.0-100.0","4","[""img/0904/d23dd7be-7fe8-4435-82f7-bd592c01e6a1.jpg"",""img/0868/15dd6fd7-791e-4b53-b203-195d617521a4.jpg""]","",""
"","5241","similarity","107","785784","0.0-6.0-101.0","1","[""img/0903/c3cb4a01-2797-43ca-b216-88c67b323fbb.jpg"",""img/0866/d266fece-59b3-46fa-b69f-96f6efb81b59.jpg""]","",""
"","3316","similarity","108","790150","0.0-6.0-102.0","1","[""img/0868/4a8a45ed-2c4f-421b-9564-409a33ecd26c.jpg"",""img/0769/35364db7-e0d5-40ef-93dc-faf9dfb95136.jpg""]","",""
"","2842","similarity","109","794023","0.0-6.0-103.0","1","[""img/0902/95a36b6b-9601-4fa5-8fd9-606ea62f9425.jpg"",""img/0899/a048912c-b12c-40e3-90af-46b69b0cc4fe.jpg""]","",""
"","2413","similarity","110","797464","0.0-6.0-104.0","1","[""img/0868/5fa7f9d0-f0e5-454c-8224-74d964818f56.jpg"",""img/0862/f23038d4-c366-4f70-979f-66b62362efa4.jpg""]","",""
"","3589","similarity","111","802088","0.0-6.0-105.0","1","[""img/0903/0a92ec52-4e87-410a-857a-4455cde56a70.jpg"",""img/0894/76c1201f-8524-4865-85e6-dda8cb4ac986.jpg""]","",""
"","5748","similarity","112","808865","0.0-6.0-106.0","6","[""img/0864/9b2490c5-a282-400a-9736-e1a0ecbf1cb7.jpg"",""img/0874/ca76a855-4e77-4f2f-872a-0a718153e7ed.jpg""]","",""
"","5590","similarity","113","815499","0.0-6.0-107.0","6","[""img/0862/f43ceabf-acc1-4107-b857-5d1849808f93.jpg"",""img/0902/94ee9c53-a9a2-4f95-b9b7-794a5fc62bb6.jpg""]","",""
"","3796","similarity","114","820331","0.0-6.0-108.0","5","[""img/0904/b7c2a2c8-df33-4473-b3d4-ff7147c60db3.jpg"",""img/0903/e2e55a9e-0397-4dc0-8adf-4a54cfefe1fe.jpg""]","",""
"","4376","similarity","115","825764","0.0-6.0-109.0","6","[""img/0764/bd2eaa3e-95a9-4a59-a78e-3f81c766eea9.jpg"",""img/0864/da39ad34-04e0-40d4-a724-c08d53e0ea09.jpg""]","",""
"","3094","similarity","116","829892","0.0-6.0-110.0","2","[""img/0866/4a87911a-d5be-4d4e-ab8e-3d1f581bf507.jpg"",""img/0894/e2446cf5-cd48-486a-badc-76498e087fbe.jpg""]","",""
"","3883","similarity","117","834805","0.0-6.0-111.0","3","[""img/0899/0433d056-aa30-4f8a-9aa1-abbb951e4edd.jpg"",""img/0903/470acfd5-5571-4a7b-b3a4-28d87e098138.jpg""]","",""
"","4106","similarity","118","839943","0.0-6.0-112.0","6","[""img/0902/a323b62d-2fd5-4ac8-acc6-35b768f3c3f2.jpg"",""img/0904/6291eb43-c10c-4810-a36a-101d09868b04.jpg""]","",""
"","3878","similarity","119","844863","0.0-6.0-113.0","5","[""img/0864/87c467d3-abca-482f-ad80-3766c21b1bb3.jpg"",""img/0860/29a21a9f-54bb-4093-ad3f-04823ceaa89f.jpg""]","",""
"","5180","similarity","120","851080","0.0-6.0-114.0","5","[""img/0860/d9a0d117-6d1d-41c0-8fec-9aff0fd9e9f2.jpg"",""img/0899/00715b3f-851b-420b-a26b-d7f79f7759a9.jpg""]","",""
"","4042","similarity","121","856153","0.0-6.0-115.0","1","[""img/0881/f62bdcd1-a4b7-4d48-83da-d9c9e01c8727.jpg"",""img/0903/12bd8657-92e6-4c36-a06c-597e7a1d51f3.jpg""]","",""
"","5301","similarity","122","862482","0.0-6.0-116.0","1","[""img/0894/3adef67d-7676-4995-80b2-bb31b8aca3ef.jpg"",""img/0874/eba003b4-cdab-4eee-8bc3-f064c7d94165.jpg""]","",""
"","5785","similarity","123","869299","0.0-6.0-117.0","2","[""img/0881/54ea8e77-c7e5-4197-b7fa-00b7020849a7.jpg"",""img/0862/e0f1a4e9-e1b6-45f7-af67-89f334e6630d.jpg""]","",""
"","3479","similarity","124","873812","0.0-6.0-118.0","5","[""img/0868/293079b8-7e0c-4afd-a390-1e5d35fe3ded.jpg"",""img/0875/3ecb367d-e9eb-4826-8aaa-7aa72fb98019.jpg""]","",""
"","4010","similarity","125","878854","0.0-6.0-119.0","3","[""img/0860/61fb959d-d4d9-4de4-9e4e-4fa62b4cfcd5.jpg"",""img/0758/d540bee6-b460-4c32-ac57-bc282742d7d4.jpg""]","",""
"","3374","similarity","126","883279","0.0-6.0-120.0","1","[""img/0864/49150900-7f25-4ce8-8d10-9b47a71d1997.jpg"",""img/0875/90da8d75-108a-44ad-b999-e21fee3860d3.jpg""]","",""
"","2846","similarity","127","887158","0.0-6.0-121.0","1","[""img/0898/c3cecf20-f7fd-45fa-97d0-dc0a63e8d6c0.jpg"",""img/0866/945c6710-d15b-4a5b-a8f6-69af0850357f.jpg""]","",""
"","3103","similarity","128","891301","0.0-6.0-122.0","1","[""img/0874/767f289c-9814-4496-803f-745cc8913d1f.jpg"",""img/0904/696ebb60-8891-417a-91fd-c53218907a95.jpg""]","",""
"","5099","similarity","129","897438","0.0-6.0-123.0","1","[""img/0904/9dd5708f-3f8b-46a9-b49f-2f2fab87b357.jpg"",""img/0864/a248adb3-c70b-4652-b7a3-776d2a1e904b.jpg""]","",""
"","4707","similarity","130","903175","0.0-6.0-124.0","5","[""img/0894/a98416c0-51e2-4960-85da-d81d8688b9d5.jpg"",""img/0902/c018bd7a-d91a-4192-aea4-7259cfcdb6c4.jpg""]","",""
"","3308","similarity","131","911269","0.0-6.0-125.0","1","[""img/0868/d98ca254-b195-477f-b57e-5760a2717db8.jpg"",""img/0864/8ddd2e30-a1d0-479f-9cbe-591213023893.jpg""]","",""
"","6388","similarity","132","918681","0.0-6.0-126.0","1","[""img/0899/57476fed-5962-4272-8fc9-b317bb777b54.jpg"",""img/0866/a04d37f0-99dd-478a-b6c6-58b215138f84.jpg""]","",""
"","5489","similarity","133","925211","0.0-6.0-127.0","1","[""img/0875/d59ff733-eaff-4ee2-9443-06954dd0bcb6.jpg"",""img/0904/1d10df11-b5c8-4370-9a6b-097a7f965895.jpg""]","",""
"","2755","similarity","134","928995","0.0-6.0-128.0","1","[""img/0867/26611f4e-d694-4460-b7e2-43c62753ddc3.jpg"",""img/0899/7b7380d5-d2be-44e5-a09a-c1756f87ef71.jpg""]","",""
"","2641","similarity","135","932675","0.0-6.0-129.0","1","[""img/0901/58ec7fa9-b466-4651-90aa-c082df0972de.jpg"",""img/0867/50a1b60e-3a29-44bf-b606-d4bd3746fea9.jpg""]","",""
"","4304","similarity","136","938021","0.0-6.0-130.0","5","[""img/0864/1ebbc554-99fa-49f9-8799-317375a79820.jpg"",""img/0769/8c7cf147-1780-4d5c-8ddf-5ea23ff03ac9.jpg""]","",""
"","3233","similarity","137","942285","0.0-6.0-131.0","4","[""img/0903/5995f4a8-fa82-46f8-8760-fd7800a5ca34.jpg"",""img/0868/1a62b2b2-18f5-466e-b564-5176a57c565e.jpg""]","",""
"","2310","similarity","138","945637","0.0-6.0-132.0","1","[""img/0864/1d15626a-2f7c-410f-819c-0fa2c967e95e.jpg"",""img/0867/98d8cd96-1476-4fe0-a3a3-04f875500a1b.jpg""]","",""
"","3276","similarity","139","949942","0.0-6.0-133.0","5","[""img/0901/08d6d1d1-c043-43c4-bb08-d45e062822b9.jpg"",""img/0860/5383b320-1518-4095-a58e-5cc1ae30b64c.jpg""]","",""
"","3089","similarity","140","954063","0.0-6.0-134.0","5","[""img/0881/405484ae-0d00-4b05-bc57-6420a36adfac.jpg"",""img/0766/2e1cf445-9aef-40e7-92f4-5facf48b64c5.jpg""]","",""
"","3077","similarity","141","958168","0.0-6.0-135.0","2","[""img/0903/005ad0de-4f52-433c-b515-dbe8d46184a3.jpg"",""img/0864/4bd81bc6-c13d-46df-95a9-485886dc7c1b.jpg""]","",""
"","4006","similarity","142","963203","0.0-6.0-136.0","3","[""img/0758/821c68d3-5cb0-4eae-8659-30e6263fca39.jpg"",""img/0894/10f22b96-040c-44f4-950b-a4963f3f506c.jpg""]","",""
"","2686","similarity","143","966921","0.0-6.0-137.0","2","[""img/0769/bb8c4e53-6f32-4814-97ee-392d4decfb2e.jpg"",""img/0860/71e1aad0-2cdf-43bb-94a4-a8c016997c30.jpg""]","",""
"","4590","similarity","144","972554","0.0-6.0-138.0","5","[""img/0904/2f88ce53-02d0-4f95-a082-182c56a0eeb4.jpg"",""img/0766/00891401-e4c9-4ce1-bc19-f70740d174bc.jpg""]","",""
"","2477","similarity","145","976059","0.0-6.0-139.0","1","[""img/0868/4e626425-63c8-484a-8a1d-e66ee4e0bef8.jpg"",""img/0860/9593362c-9fe5-4d12-9735-6000a11f6aa5.jpg""]","",""
"","4464","similarity","146","981555","0.0-6.0-140.0","5","[""img/0758/f61ecdf8-a7d4-4db0-b84d-be46f7cfaffc.jpg"",""img/0864/b3c4e378-28f0-4699-9338-2a257b4bca04.jpg""]","",""
"","4045","similarity","147","986628","0.0-6.0-141.0","7","[""img/0867/a498eef3-9fa4-4ab2-9778-4ae82ac40dc5.jpg"",""img/0867/de92135f-5b65-4ed9-b245-188292c7c2f8.jpg""]","",""
"","4719","similarity","148","992390","0.0-6.0-142.0","7","[""img/0898/4184e5a2-84ea-4f36-9b42-ae58646f6f87.jpg"",""img/0898/f3a3f225-1248-4ac7-b93b-f0ff28485bf3.jpg""]","",""
"","4619","similarity","149","998046","0.0-6.0-143.0","1","[""img/0866/9b38d691-1802-4959-ab3f-fc902f0e4ea6.jpg"",""img/0769/b664b502-a86c-46c1-ad6f-5ebffc2e1bd3.jpg""]","",""
"","4492","similarity","150","1003567","0.0-6.0-144.0","3","[""img/0860/8fdba999-b946-4c7d-9891-336018b563ef.jpg"",""img/0898/b3290bf9-215b-4b45-b21a-65bdf73f142f.jpg""]","",""
"","3217","similarity","151","1007816","0.0-6.0-145.0","5","[""img/0766/a754e4b6-5019-4cf4-8f58-34c20547a1f5.jpg"",""img/0864/3d4de670-b290-4285-9c3d-12a0e3af44e9.jpg""]","",""
"","4238","similarity","152","1013097","0.0-6.0-146.0","4","[""img/0860/f44ba3fb-03a2-42f0-8509-2c1ded493086.jpg"",""img/0903/59defeb8-98bd-4570-a2f8-9bd189e68ef4.jpg""]","",""
"","3950","similarity","153","1018081","0.0-6.0-147.0","1","[""img/0867/7d1c497b-c1b3-4ed8-abb5-d7f73306015f.jpg"",""img/0764/6ef77040-1fae-4afa-bfe7-eda98e6d0376.jpg""]","",""
"","4158","similarity","154","1023267","0.0-6.0-148.0","6","[""img/0769/db94b61b-a5a7-4861-9d32-7b02ad194fb0.jpg"",""img/0904/da170c1b-9651-4f08-b231-2bdd1d9a046f.jpg""]","",""
"","3971","similarity","155","1028275","0.0-6.0-149.0","2","[""img/0764/06ea144f-f4f3-4a14-ba47-f20f35c561e0.jpg"",""img/0901/a9b9c0a0-8aed-4888-a78a-65fb7e764d13.jpg""]","",""
"","3547","similarity","156","1032861","0.0-6.0-150.0","5","[""img/0904/09dac84f-3d1c-4445-a68e-d0389fdbf1e9.jpg"",""img/0899/8abe6c69-822c-436c-9bf2-96c818b49ba5.jpg""]","",""
"","2524","similarity","157","1036420","0.0-6.0-151.0","1","[""img/0862/e697469a-ec19-4414-b972-7b9f3564785b.jpg"",""img/0867/6e19c858-b606-45b2-a4c6-910a73f1d82c.jpg""]","",""
"","6013","similarity","158","1043470","0.0-6.0-152.0","7","[""img/0766/dd3e18d0-0c98-4d05-b850-69976ee8cd75.jpg"",""img/0766/f3276cc4-65de-4c2d-88d5-6cfebce14b8f.jpg""]","",""
"","3448","similarity","159","1047958","0.0-6.0-153.0","6","[""img/0862/5d887e9f-89e2-4ebc-80a0-6d46fe6480db.jpg"",""img/0894/bd34223a-2f66-4e16-9d18-193a746b69ff.jpg""]","",""
"","3299","similarity","160","1052294","0.0-6.0-154.0","1","[""img/0899/56a605c3-d0a2-4215-89e1-779279d85a7c.jpg"",""img/0901/c6c877e0-dd63-4e00-9657-33af29d55aab.jpg""]","",""
"","5143","similarity","161","1058478","0.0-6.0-155.0","6","[""img/0874/3ce41e7c-40c8-4d58-a546-171114521796.jpg"",""img/0874/93d1f8dc-acf2-4f03-bd8d-8ec35df276ed.jpg""]","",""
"","2464","similarity","162","1061975","0.0-6.0-156.0","1","[""img/0860/c7047cd2-7cc1-41b6-8a34-c0986774975f.jpg"",""img/0867/5e07b34d-b40f-4b1c-ac10-49975bace45f.jpg""]","",""
"","3620","similarity","163","1066640","0.0-6.0-157.0","4","[""img/0901/875dedb9-24c9-4443-9f8c-85e97d70ee5a.jpg"",""img/0881/7e31e5dc-2240-4b1b-b5a0-3acd980099ef.jpg""]","",""
"","3907","similarity","164","1071577","0.0-6.0-158.0","4","[""img/0903/6138142e-c84e-45fc-9487-c974f3d4968a.jpg"",""img/0902/a6fb6dd5-696c-47ec-be7d-d7b88f1544f1.jpg""]","",""
"","3873","similarity","165","1076490","0.0-6.0-159.0","2","[""img/0860/18dfed73-e36b-4487-a8bd-0b8cff8e3668.jpg"",""img/0764/cffc80b0-4a90-4acb-a530-6f480f3ca303.jpg""]","",""
"","2719","similarity","166","1080251","0.0-6.0-160.0","2","[""img/0902/aa6fca32-82b0-4414-b20a-8f6f8aa5a2d2.jpg"",""img/0875/e7e66b13-b573-431e-b85e-288ce04a35a3.jpg""]","",""
"","4448","similarity","167","1085740","0.0-6.0-161.0","4","[""img/0898/82231d4c-218b-4d0a-b50d-35a49b524e97.jpg"",""img/0862/064818ee-13d5-4618-bb24-21c7368ea278.jpg""]","",""
"","3099","similarity","168","1089868","0.0-6.0-162.0","2","[""img/0894/4739e06d-c31e-4bf1-bf91-c97fa9afb456.jpg"",""img/0875/a4935837-7d3c-4df6-88c1-36a94d4991ca.jpg""]","",""
"","3099","similarity","169","1094005","0.0-6.0-163.0","1","[""img/0866/a15b02be-11bb-43e3-b0e0-ecc3bd7dfc49.jpg"",""img/0864/6f631579-acf1-415c-a42c-1207f62a8d99.jpg""]","",""
"","3296","similarity","170","1098334","0.0-6.0-164.0","1","[""img/0766/214866ee-423d-4629-9bb9-41572bdc7dac.jpg"",""img/0862/99a99e39-8355-44ec-b993-e7bcec111e1c.jpg""]","",""
"","3966","similarity","171","1103342","0.0-6.0-165.0","1","[""img/0866/f756f7d1-9ad8-4a34-9ef6-7a443d705bfe.jpg"",""img/0874/a3bc679d-619f-4db6-bb68-116dcb757d9c.jpg""]","",""
"","7014","similarity","172","1111399","0.0-6.0-166.0","6","[""img/0862/fb26cb07-d5a9-4653-813c-f41609f26cd5.jpg"",""img/0860/94ef7afc-e0e6-4a15-98c6-0bfac82bc832.jpg""]","",""
"","3334","similarity","173","1120270","0.0-6.0-167.0","1","[""img/0766/79767d11-b612-4e8a-9e4b-a8ac95bb6a54.jpg"",""img/0901/4f9cffe0-c0be-4d7f-bacd-9d51efd19b4a.jpg""]","",""
"","3850","similarity","174","1125146","0.0-6.0-168.0","7","[""img/0862/24cdc752-c2e5-4a17-86a6-6f2045d8553b.jpg"",""img/0862/d0ca4c78-fc35-46ed-bdcc-8e124283c53e.jpg""]","",""
"","4438","similarity","175","1130619","0.0-6.0-169.0","6","[""img/0894/43216a7f-27bc-4b5a-8841-d122a30da9d9.jpg"",""img/0764/5c8fbafc-e62e-43ed-9b37-f73e8e45147d.jpg""]","",""
"","6731","similarity","176","1138388","0.0-6.0-170.0","2","[""img/0874/7e4f2150-3b59-4a36-b5da-a4e0ba410531.jpg"",""img/0898/b2732712-71c2-45d8-834f-2b2ed5504910.jpg""]","",""
"","3258","similarity","177","1142686","0.0-6.0-171.0","1","[""img/0860/4c530c3c-6aab-492a-94d1-9c01797bde40.jpg"",""img/0766/d50d734f-285c-4840-bc7a-c8dd4aff391e.jpg""]","",""
"","3882","similarity","178","1147618","0.0-6.0-172.0","1","[""img/0898/cd3aaa3f-efa9-4ab3-8d6f-a6a9273ddf42.jpg"",""img/0864/ef9cbca0-4be8-435d-ad49-977259e80409.jpg""]","",""
"","5143","similarity","179","1153791","0.0-6.0-173.0","5","[""img/0881/adc02f34-ce97-4aef-850f-00519df06fd7.jpg"",""img/0764/f990b2e8-ecee-481e-be7c-0239fce350e2.jpg""]","",""
"","2805","similarity","180","1157632","0.0-6.0-174.0","1","[""img/0898/81b08535-2020-4c15-9ce4-2f1e460755ae.jpg"",""img/0868/7b212364-ff5f-4e28-9241-7eb6ea00161b.jpg""]","",""
"","4672","similarity","181","1163336","0.0-6.0-175.0","7","[""img/0864/ea327690-500b-4137-bf91-451b309fe6a5.jpg"",""img/0864/c22faebd-9c53-47bc-ada3-b9a30c688e75.jpg""]","",""
"","2609","similarity","182","1166984","0.0-6.0-176.0","1","[""img/0899/1b3457ea-87d4-4946-a01c-aac1863ed46c.jpg"",""img/0862/ad593cc7-cabe-4bb7-8e14-8a447a0717b4.jpg""]","",""
"","2679","similarity","183","1170705","0.0-6.0-177.0","1","[""img/0875/ebf7653f-ff45-4e9f-af58-2c042ab3cd2b.jpg"",""img/0758/61d64021-9214-4951-bdf8-f871f9827cf9.jpg""]","",""
"","5591","similarity","184","1177330","0.0-6.0-178.0","2","[""img/0866/c446214b-a368-4c65-ae39-ea46894256ab.jpg"",""img/0901/b9141736-3041-4385-a586-b1fe911c76a5.jpg""]","",""
"","6305","similarity","185","1184676","0.0-6.0-179.0","7","[""img/0769/8598a429-c671-4d2f-842c-32f681f5e412.jpg"",""img/0874/adf9a8f1-c40b-402b-b95b-1e85a54a7b62.jpg""]","",""
"","4334","similarity","186","1190044","0.0-6.0-180.0","5","[""img/0875/03c3c331-738b-4446-af92-3d7386b08c2e.jpg"",""img/0881/33d65d80-8a8e-4ecf-852d-0ad7725c17a2.jpg""]","",""
"","5808","similarity","187","1196894","0.0-6.0-181.0","7","[""img/0866/0207e9a2-7dbb-40b5-9459-b472aaeceb2a.jpg"",""img/0868/6a28c3b0-3d76-498a-9fb7-ddafc665eca8.jpg""]","",""
"","4286","similarity","188","1202218","0.0-6.0-182.0","3","[""img/0899/8de08897-b430-42fe-9d42-840670b80f94.jpg"",""img/0758/d41c06bf-ebaf-454b-91c6-1a17f917b659.jpg""]","",""
"","4926","similarity","189","1208183","0.0-6.0-183.0","1","[""img/0874/99f6563c-8a8d-4c1c-a41d-667b618c3fd5.jpg"",""img/0875/5a7c4e35-6514-4e12-8879-d16071da4cd6.jpg""]","",""
"","3053","similarity","190","1212269","0.0-6.0-184.0","1","[""img/0904/2fd488e9-960f-41f7-8a44-33375f7d5051.jpg"",""img/0862/cdaed51d-9e2f-4807-801a-4663c40077e2.jpg""]","",""
"","3570","similarity","191","1216878","0.0-6.0-185.0","1","[""img/0902/e5a46bda-30d1-41ca-b36d-b8529b5a63d1.jpg"",""img/0766/a1ed3f0f-e338-4a26-8fe4-4370f0c9fa6e.jpg""]","",""
"","3735","similarity","192","1221663","0.0-6.0-186.0","2","[""img/0758/ddc336e9-a8b6-4bb9-937a-c7e25e0e9250.jpg"",""img/0769/ecda2fb3-556b-43ba-8a67-e87dd75ff2b4.jpg""]","",""
"","5866","similarity","193","1228568","0.0-6.0-187.0","3","[""img/0881/2a8413be-fec2-4de6-88ad-614dd4cccc9d.jpg"",""img/0881/4da99fdd-1f40-4bbb-8e21-8833eef313f5.jpg""]","",""
"","3218","similarity","194","1232817","0.0-6.0-188.0","1","[""img/0758/7ee8bc8f-c40b-4b3a-84ec-3e83580622d4.jpg"",""img/0866/07c9c966-3c8d-40e7-8128-92b2acbaed5d.jpg""]","",""
"","3247","similarity","195","1237106","0.0-6.0-189.0","3","[""img/0764/39a9fc7e-b863-432c-9374-de43983f31a5.jpg"",""img/0898/a8f16b02-e19f-423b-86c3-a36562ae1f9b.jpg""]","",""
"","4028","similarity","196","1242163","0.0-6.0-190.0","2","[""img/0903/5ea5bbe0-f238-4724-abe7-9ed8dee8c0ba.jpg"",""img/0901/f1116359-1ff1-4638-b3b3-700918d36d18.jpg""]","",""
"","3246","similarity","197","1246451","0.0-6.0-191.0","7","[""img/0902/82d20e8c-2162-47a6-925b-52906558c046.jpg"",""img/0898/5f699581-3853-4547-856c-12f419ba5af7.jpg""]","",""
"","5942","similarity","198","1253420","0.0-6.0-192.0","4","[""img/0864/65210d57-1153-4657-886a-32e758f49b4a.jpg"",""img/0901/d6d15b1c-4a30-4f74-a3fd-d4c8ee4169ca.jpg""]","",""
"","6472","similarity","199","1260925","0.0-6.0-193.0","3","[""img/0894/38f5931f-926d-414e-b498-66b188978b7a.jpg"",""img/0881/f4e3e181-b3c9-4af2-a5a4-fc135ab70d2e.jpg""]","",""
"","3399","similarity","200","1265358","0.0-6.0-194.0","7","[""img/0868/83b4350a-3b70-4cea-b7f5-b5b56f3050a8.jpg"",""img/0868/e0aff734-077f-40dd-9781-74821abd3621.jpg""]","",""
"","3825","similarity","201","1270215","0.0-6.0-195.0","6","[""img/0899/51a7a498-98c7-42d7-bca8-bc2d8f0b5831.jpg"",""img/0764/23ea9375-f801-4a96-9925-7d453da887c7.jpg""]","",""
"","5157","similarity","202","1276400","0.0-6.0-196.0","6","[""img/0881/1407b85b-a1c6-45b1-9884-3b24203efadb.jpg"",""img/0904/65e2b70a-b184-4da3-b5c0-5038bdf9469a.jpg""]","",""
"","4028","similarity","203","1281465","0.0-6.0-197.0","5","[""img/0864/f92649a2-0590-4d31-9a7a-1bfb81666a2d.jpg"",""img/0902/62f11694-7ed7-4cb7-8a73-9e95c43824e7.jpg""]","",""
"","5206","similarity","204","1287714","0.0-6.0-198.0","7","[""img/0894/c505c65a-cde2-4f2c-8cde-f8676f7c894d.jpg"",""img/0904/5cceabc9-de1d-4c67-989b-c28a4ef77e79.jpg""]","",""
"","4584","similarity","205","1293331","0.0-6.0-199.0","7","[""img/0901/71e551a2-9ce2-409c-9c7c-dd556a0791e9.jpg"",""img/0901/4ca4f962-40c0-4c59-b14a-3cd7b8c9029b.jpg""]","",""
"","3622","similarity","206","1297987","0.0-6.0-200.0","1","[""img/0894/3664e04c-c6d3-4c9b-afb6-25d89974b174.jpg"",""img/0860/8a92e21b-6a32-4e4a-a445-2d5a487ed0a4.jpg""]","",""
"","3647","similarity","207","1302676","0.0-6.0-201.0","6","[""img/0898/e167334e-cc1d-4986-b3b1-c7bc7da64baa.jpg"",""img/0903/b0a3c45f-467e-412f-a183-c9c1827f2e63.jpg""]","",""
"","2471","similarity","208","1306182","0.0-6.0-202.0","1","[""img/0864/e02eddb5-f468-499c-91bf-f7be3ffe979b.jpg"",""img/0894/5f15154e-e72e-4ce5-aafb-bce6f0564006.jpg""]","",""
"","3040","similarity","209","1310262","0.0-6.0-203.0","1","[""img/0874/85eb9b8a-c4c6-4e5a-b8e7-363a87a82054.jpg"",""img/0860/5bff793e-cbd5-4d7e-b628-0ac2b0e30b64.jpg""]","",""
"","4233","similarity","210","1315526","0.0-6.0-204.0","6","[""img/0862/53a9cf7c-93c4-41b9-952f-07d17f7a17b2.jpg"",""img/0875/fb732ab5-013a-4366-9f65-27811ed157e9.jpg""]","",""
"","2801","similarity","211","1319367","0.0-6.0-205.0","1","[""img/0867/075e0f95-856b-4cbb-acf5-092393aaf04e.jpg"",""img/0881/633c6f40-56d9-4b48-bf1c-ecd83116eabb.jpg""]","",""
"","6139","similarity","212","1326544","0.0-6.0-206.0","5","[""img/0901/d61f267a-c492-4db6-9bfb-61efd49cf072.jpg"",""img/0902/af45fe42-178c-4c1a-99ef-256e87e3b092.jpg""]","",""
"","3209","similarity","213","1330792","0.0-6.0-207.0","7","[""img/0899/06b0fc99-0581-461a-9913-d1a5a941ac61.jpg"",""img/0864/300bb811-8b3c-4c42-8653-6097c3725197.jpg""]","",""
"","5304","similarity","214","1337130","0.0-6.0-208.0","1","[""img/0901/effc03f6-8f9d-46db-a66c-16fc83891c5c.jpg"",""img/0769/d1be2815-fa79-46e8-b5c3-7d81caaca490.jpg""]","",""
"","3664","similarity","215","1344072","0.0-6.0-209.0","6","[""img/0902/b76efc44-a50f-4dac-b997-ff0222376067.jpg"",""img/0902/3b243e54-0803-4c29-af42-4037c2118495.jpg""]","",""
"[{""page_index"":0,""viewing_time"":6163}]","6164","instructions","216","1351258","0.0-7.0","","","",""
"","24365","image-multi-choice","217","1376732","0.0-8.0-0.0","","","{""Q0"":""Orange-crowned Warbler""}","Nashville Warbler"
"","4665","image-multi-choice","218","1382483","0.0-8.0-1.0","","","{""Q0"":""Black-and-white Warbler""}","Black-and-white Warbler"
"","64422","image-multi-choice","219","1448008","0.0-8.0-2.0","","","{""Q0"":""Blackburnian Warbler""}","Townsend's Warbler"
"","63537","image-multi-choice","220","1512611","0.0-8.0-3.0","","","{""Q0"":""Lark Sparrow""}","Lark Sparrow"
"","186572","image-multi-choice","221","1700273","0.0-8.0-4.0","","","{""Q0"":""Yellow Warbler""}","Yellow Warbler"
"","25195","image-multi-choice","222","1726582","0.0-8.0-5.0","","","{""Q0"":""Orange-crowned Warbler""}","Orange-crowned Warbler"
"","8540","image-multi-choice","223","1736208","0.0-8.0-6.0","","","{""Q0"":""White-throated Sparrow""}","White-throated Sparrow"
"","176894","image-multi-choice","224","1914180","0.0-8.0-7.0","","","{""Q0"":""Fox Sparrow""}","Fox Sparrow"
"","205694","image-multi-choice","225","2120990","0.0-8.0-8.0","","","{""Q0"":""Lincoln's Sparrow""}","Song Sparrow"
"","112553","image-multi-choice","226","2234635","0.0-8.0-9.0","","","{""Q0"":""Blackburnian Warbler""}","Blackburnian Warbler"
"","52289","image-multi-choice","227","2288019","0.0-8.0-10.0","","","{""Q0"":""Vesper Sparrow""}","Vesper Sparrow"
"","13893","image-multi-choice","228","2303029","0.0-8.0-11.0","","","{""Q0"":""White-crowned Sparrow""}","White-crowned Sparrow"
"","99434","image-multi-choice","229","2403537","0.0-8.0-12.0","","","{""Q0"":""Fox Sparrow""}","American Tree Sparrow"
"","72429","image-multi-choice","230","2477057","0.0-8.0-13.0","","","{""Q0"":""Nashville Warbler""}","Tennessee Warbler"
"","15315","image-multi-choice","231","2493476","0.0-8.0-14.0","","","{""Q0"":""Magnolia Warbler""}","Magnolia Warbler"
"","40360","image-multi-choice","232","2534937","0.0-8.0-15.0","","","{""Q0"":""Northern Waterthrush""}","Northern Waterthrush"
"","8172","image-multi-choice","233","2544219","0.0-8.0-16.0","","","{""Q0"":""Chipping Sparrow""}","Chipping Sparrow"
"","26078","image-multi-choice","234","2571424","0.0-8.0-17.0","","","{""Q0"":""Vesper Sparrow""}","Swamp Sparrow"
"","8740","image-multi-choice","235","2581250","0.0-8.0-18.0","","","{""Q0"":""Vesper Sparrow""}","Lincoln's Sparrow"
"","27610","image-multi-choice","236","2609959","0.0-8.0-19.0","","","{""Q0"":""Ovenbird""}","Ovenbird"
