[{"view_history":"[{\"page_index\":0,\"viewing_time\":1900}]","rt":1901,"trial_type":"instructions","trial_index":0,"time_elapsed":1903,"internal_node_id":"0.0-0.0"},{"sim_score":5,"rt":6018,"stimulus":"[\"img/866.jpg\",\"img/868.jpg\"]","trial_type":"similarity_demo","trial_index":1,"time_elapsed":8960,"internal_node_id":"0.0-1.0"},{"view_history":"[{\"page_index\":0,\"viewing_time\":2827}]","rt":2828,"trial_type":"instructions","trial_index":2,"time_elapsed":12801,"internal_node_id":"0.0-2.0"},{"sim_score":1,"rt":3079,"stimulus":"[\"img/766.jpg\",\"img/867.jpg\"]","trial_type":"similarity_demo","trial_index":3,"time_elapsed":16918,"internal_node_id":"0.0-3.0"},{"view_history":"[{\"page_index\":0,\"viewing_time\":6183}]","rt":6184,"trial_type":"instructions","trial_index":4,"time_elapsed":24115,"internal_node_id":"0.0-4.0"},{"view_history":"[{\"page_index\":0,\"viewing_time\":2824}]","rt":2825,"trial_type":"instructions","trial_index":5,"time_elapsed":27948,"internal_node_id":"0.0-5.0"},{"sim_score":1,"rt":3233,"stimulus":"[\"img/0868/3a62db2d-97e9-44a3-b8e3-a48c6f0e423b.jpg\",\"img/0901/a0d65c84-3f20-476a-92d1-0c01e8019cf4.jpg\"]","trial_type":"similarity","trial_index":6,"time_elapsed":32226,"internal_node_id":"0.0-6.0-0.0"},{"sim_score":2,"rt":4520,"stimulus":"[\"img/0769/8056889f-2b14-4782-bb25-b4e8896ab65b.jpg\",\"img/0867/179ab87a-8eac-4c52-a41f-2e48e3120f09.jpg\"]","trial_type":"similarity","trial_index":7,"time_elapsed":37800,"internal_node_id":"0.0-6.0-1.0"},{"sim_score":1,"rt":2912,"stimulus":"[\"img/0766/d8221e53-2300-4d99-ae1b-0bfb0eabe579.jpg\",\"img/0898/0c7dde4f-efce-4b7a-9387-6921635b7890.jpg\"]","trial_type":"similarity","trial_index":8,"time_elapsed":41745,"internal_node_id":"0.0-6.0-2.0"},{"sim_score":2,"rt":5917,"stimulus":"[\"img/0902/04a6ad4a-afc6-4871-8225-56b299af7b6b.jpg\",\"img/0881/44e09805-5a25-4f17-a716-4ad4a331b174.jpg\"]","trial_type":"similarity","trial_index":9,"time_elapsed":48714,"internal_node_id":"0.0-6.0-3.0"},{"sim_score":6,"rt":3654,"stimulus":"[\"img/0894/5c7677b0-a4f1-479e-b274-7822c415175a.jpg\",\"img/0894/e6385e52-6c35-43bd-b0af-bc803d107b11.jpg\"]","trial_type":"similarity","trial_index":10,"time_elapsed":53395,"internal_node_id":"0.0-6.0-4.0"},{"sim_score":4,"rt":4707,"stimulus":"[\"img/0874/a82926a3-0b43-4add-803c-d5f9ea7798ee.jpg\",\"img/0899/66bf4113-ee12-426c-84d2-ea410b6c803e.jpg\"]","trial_type":"similarity","trial_index":11,"time_elapsed":59147,"internal_node_id":"0.0-6.0-5.0"},{"sim_score":5,"rt":3683,"stimulus":"[\"img/0904/06dacdc5-2206-4fb8-92b7-88042d22833c.jpg\",\"img/0764/4eff630a-6426-4f8d-b2ba-b4d9842a0962.jpg\"]","trial_type":"similarity","trial_index":12,"time_elapsed":63860,"internal_node_id":"0.0-6.0-6.0"},{"sim_score":3,"rt":3780,"stimulus":"[\"img/0899/0adc0bc3-6fca-4078-be6f-d45ddf1653d5.jpg\",\"img/0898/68476bbb-34a1-42d9-8bc1-deab783d4489.jpg\"]","trial_type":"similarity","trial_index":13,"time_elapsed":68684,"internal_node_id":"0.0-6.0-7.0"},{"sim_score":1,"rt":5636,"stimulus":"[\"img/0874/995f0332-0439-4eb4-add3-957335dbf6d9.jpg\",\"img/0903/b4a0f61e-a964-4b79-a9a7-f767a8f92f34.jpg\"]","trial_type":"similarity","trial_index":14,"time_elapsed":75376,"internal_node_id":"0.0-6.0-8.0"},{"sim_score":4,"rt":5779,"stimulus":"[\"img/0881/f7a8cc63-8842-40a4-9ff8-fe530310d62c.jpg\",\"img/0758/6cd8c362-ae2a-41eb-80a3-3a4f7ace1530.jpg\"]","trial_type":"similarity","trial_index":15,"time_elapsed":82174,"internal_node_id":"0.0-6.0-9.0"},{"sim_score":4,"rt":4306,"stimulus":"[\"img/0898/01bfe666-3510-4fc7-964f-d00d28732dc8.jpg\",\"img/0901/3db47171-0139-4235-82cd-0b1787b6775f.jpg\"]","trial_type":"similarity","trial_index":16,"time_elapsed":87518,"internal_node_id":"0.0-6.0-10.0"},{"sim_score":5,"rt":4746,"stimulus":"[\"img/0903/6a87dbad-9b8d-4ff5-9c41-03c9aa24f0c3.jpg\",\"img/0769/0fe124d3-bcad-45f6-b64d-8f6eb8ee5251.jpg\"]","trial_type":"similarity","trial_index":17,"time_elapsed":93297,"internal_node_id":"0.0-6.0-11.0"},{"sim_score":1,"rt":3294,"stimulus":"[\"img/0764/5d6fa3ce-9083-410c-bbdb-336a49b94cfc.jpg\",\"img/0868/fd307a36-9a3a-47d7-ab7c-f810d0b35040.jpg\"]","trial_type":"similarity","trial_index":18,"time_elapsed":97632,"internal_node_id":"0.0-6.0-12.0"},{"sim_score":1,"rt":2630,"stimulus":"[\"img/0867/c66898ba-b71b-4d50-84f9-f7f84853a98d.jpg\",\"img/0903/b548d383-2a95-4575-8c13-647873751ff1.jpg\"]","trial_type":"similarity","trial_index":19,"time_elapsed":101289,"internal_node_id":"0.0-6.0-13.0"},{"sim_score":1,"rt":4628,"stimulus":"[\"img/0766/5d1b8041-c5a1-4b02-b4fe-3453d98a0d72.jpg\",\"img/0758/3ddd05d3-557e-4ee7-8b78-9d2d681d8ae2.jpg\"]","trial_type":"similarity","trial_index":20,"time_elapsed":106953,"internal_node_id":"0.0-6.0-14.0"},{"sim_score":4,"rt":5605,"stimulus":"[\"img/0902/31abfa33-7cdb-44ad-968e-9f7b324d577a.jpg\",\"img/0860/8277806e-b684-4474-8f7b-3fca946d7d4f.jpg\"]","trial_type":"similarity","trial_index":21,"time_elapsed":113595,"internal_node_id":"0.0-6.0-15.0"},{"sim_score":1,"rt":3879,"stimulus":"[\"img/0769/f229321f-04dd-42d7-b14a-ffad6b509862.jpg\",\"img/0875/8521fd58-3b1e-4dc5-97ae-804edfa6734a.jpg\"]","trial_type":"similarity","trial_index":22,"time_elapsed":118515,"internal_node_id":"0.0-6.0-16.0"},{"sim_score":3,"rt":4613,"stimulus":"[\"img/0904/ba8e689e-9ca6-4608-a2a1-3b0940666ae6.jpg\",\"img/0866/93a27239-8317-4e08-98ca-d8b1ff298e07.jpg\"]","trial_type":"similarity","trial_index":23,"time_elapsed":124165,"internal_node_id":"0.0-6.0-17.0"},{"sim_score":6,"rt":4375,"stimulus":"[\"img/0875/5a716432-c6ca-4b1c-955a-2b8ac25198ee.jpg\",\"img/0875/34132396-d896-4c2d-8087-646dd867e769.jpg\"]","trial_type":"similarity","trial_index":24,"time_elapsed":129574,"internal_node_id":"0.0-6.0-18.0"},{"sim_score":7,"rt":4217,"stimulus":"[\"img/0758/53f35650-e455-4b53-8be4-c3c8271c6466.jpg\",\"img/0758/7fba58df-2a7a-4b76-8a8f-62739f97f271.jpg\"]","trial_type":"similarity","trial_index":25,"time_elapsed":134830,"internal_node_id":"0.0-6.0-19.0"},{"sim_score":1,"rt":5112,"stimulus":"[\"img/0902/f3cfec34-482c-4bdb-9c92-19ea6cfce183.jpg\",\"img/0874/31e22c7c-99aa-40b1-bf03-dd73fa2df4d6.jpg\"]","trial_type":"similarity","trial_index":26,"time_elapsed":140983,"internal_node_id":"0.0-6.0-20.0"},{"sim_score":7,"rt":6158,"stimulus":"[\"img/0764/ca9829fe-aaf8-45b8-b98a-6bae751c63dd.jpg\",\"img/0769/48a1144d-fbda-4809-991b-fc8424a32ee4.jpg\"]","trial_type":"similarity","trial_index":27,"time_elapsed":148192,"internal_node_id":"0.0-6.0-21.0"},{"sim_score":1,"rt":2589,"stimulus":"[\"img/0901/12da1841-e611-435c-9719-109413d536a8.jpg\",\"img/0874/2c9464dd-8a23-4baa-ac94-1ba3af5c15cc.jpg\"]","trial_type":"similarity","trial_index":28,"time_elapsed":151817,"internal_node_id":"0.0-6.0-22.0"},{"sim_score":1,"rt":2779,"stimulus":"[\"img/0875/42910c99-5463-450a-a0f8-d4d060a11455.jpg\",\"img/0903/81368973-de81-46f4-844f-b901f3bfd66d.jpg\"]","trial_type":"similarity","trial_index":29,"time_elapsed":155626,"internal_node_id":"0.0-6.0-23.0"},{"sim_score":3,"rt":3461,"stimulus":"[\"img/0769/f73c5138-2f4c-4354-981c-129dff9cc734.jpg\",\"img/0881/20af39f5-373d-4a55-a437-2dc4c0382c46.jpg\"]","trial_type":"similarity","trial_index":30,"time_elapsed":160114,"internal_node_id":"0.0-6.0-24.0"},{"sim_score":1,"rt":2952,"stimulus":"[\"img/0867/bf560d4f-dee3-4f11-a385-705cc1aa5f3c.jpg\",\"img/0904/2c98dc56-88d1-4fb5-a999-b6a7861f65f0.jpg\"]","trial_type":"similarity","trial_index":31,"time_elapsed":164115,"internal_node_id":"0.0-6.0-25.0"},{"sim_score":1,"rt":5574,"stimulus":"[\"img/0860/17b44a7d-c5ca-479f-9e87-f65a64f5c80e.jpg\",\"img/0881/14236cf2-6b95-48b8-9368-78af09d2d27f.jpg\"]","trial_type":"similarity","trial_index":32,"time_elapsed":170732,"internal_node_id":"0.0-6.0-26.0"},{"sim_score":5,"rt":2911,"stimulus":"[\"img/0866/23a224f3-2012-4fc8-8e0f-3c36f8de27fd.jpg\",\"img/0866/11a1d141-be5e-443c-98c1-a9d4d9e3dec0.jpg\"]","trial_type":"similarity","trial_index":33,"time_elapsed":174669,"internal_node_id":"0.0-6.0-27.0"},{"sim_score":1,"rt":4481,"stimulus":"[\"img/0764/a3226bc4-dcc3-4608-bde8-1414d685ce5c.jpg\",\"img/0862/92f0146c-20c4-482e-aef5-adb693790338.jpg\"]","trial_type":"similarity","trial_index":34,"time_elapsed":180184,"internal_node_id":"0.0-6.0-28.0"},{"sim_score":1,"rt":3177,"stimulus":"[\"img/0904/4b8daf2a-13a9-4ea9-9e0b-b265b6e933e7.jpg\",\"img/0758/a085b443-b5d7-4cb2-9ad4-b9dab0fc23f1.jpg\"]","trial_type":"similarity","trial_index":35,"time_elapsed":184390,"internal_node_id":"0.0-6.0-29.0"},{"sim_score":1,"rt":3094,"stimulus":"[\"img/0894/9b1333fd-3561-43bf-aee5-99b7b7ca3dc3.jpg\",\"img/0899/9de5e857-aa9a-4e0c-8ba2-46d79bd069a4.jpg\"]","trial_type":"similarity","trial_index":36,"time_elapsed":188518,"internal_node_id":"0.0-6.0-30.0"},{"sim_score":1,"rt":6591,"stimulus":"[\"img/0860/702bd09d-df3a-40aa-a267-5f04474305b5.jpg\",\"img/0904/63dd06dd-dccb-47ba-9740-eb33239e18a7.jpg\"]","trial_type":"similarity","trial_index":37,"time_elapsed":196136,"internal_node_id":"0.0-6.0-31.0"},{"sim_score":6,"rt":5860,"stimulus":"[\"img/0874/c0378dac-9370-439a-8b79-db27c96fb390.jpg\",\"img/0881/62a64f90-7a72-4aee-a1a1-0c548ac9bdda.jpg\"]","trial_type":"similarity","trial_index":38,"time_elapsed":203034,"internal_node_id":"0.0-6.0-32.0"},{"sim_score":5,"rt":3920,"stimulus":"[\"img/0881/f8bd891e-aa09-4782-89db-33e7cb2b0cf1.jpg\",\"img/0899/f95cbdb4-f804-4f5d-ad76-373ad343e658.jpg\"]","trial_type":"similarity","trial_index":39,"time_elapsed":208010,"internal_node_id":"0.0-6.0-33.0"},{"sim_score":4,"rt":221583,"stimulus":"[\"img/0866/bf14b5bd-fb55-47db-86b9-4f8aeb9a6dad.jpg\",\"img/0862/eefa5588-9efd-4591-aa5f-a2e17c7d7bcc.jpg\"]","trial_type":"similarity","trial_index":40,"time_elapsed":430617,"internal_node_id":"0.0-6.0-34.0"},{"sim_score":1,"rt":3502,"stimulus":"[\"img/0868/77091fc7-a590-4ebb-b915-fdb2483a2399.jpg\",\"img/0894/e5edf723-72a5-4673-8441-6c1734a8929b.jpg\"]","trial_type":"similarity","trial_index":41,"time_elapsed":435162,"internal_node_id":"0.0-6.0-35.0"},{"sim_score":5,"rt":4603,"stimulus":"[\"img/0860/e14d67c1-6d92-4f1e-9257-c8607159c19c.jpg\",\"img/0860/524b2e98-5767-4d53-942c-ebae6925659b.jpg\"]","trial_type":"similarity","trial_index":42,"time_elapsed":440802,"internal_node_id":"0.0-6.0-36.0"},{"sim_score":5,"rt":3748,"stimulus":"[\"img/0862/92fcd8a4-8193-4a6a-ae09-dd4a6338b0df.jpg\",\"img/0864/5f33e097-23e3-4002-882d-76e8cb15f451.jpg\"]","trial_type":"similarity","trial_index":43,"time_elapsed":445580,"internal_node_id":"0.0-6.0-37.0"},{"sim_score":1,"rt":3070,"stimulus":"[\"img/0766/110832e5-2646-4bd0-a94e-5df8cc314269.jpg\",\"img/0866/620cd1aa-0800-4414-8f6e-90342e7a99ad.jpg\"]","trial_type":"similarity","trial_index":44,"time_elapsed":449692,"internal_node_id":"0.0-6.0-38.0"},{"sim_score":2,"rt":3233,"stimulus":"[\"img/0875/cff79b3a-a797-4393-9757-6275f999ec04.jpg\",\"img/0898/40f99fb2-64d2-4e72-8a7f-a1cf60741e69.jpg\"]","trial_type":"similarity","trial_index":45,"time_elapsed":453972,"internal_node_id":"0.0-6.0-39.0"},{"sim_score":6,"rt":3373,"stimulus":"[\"img/0766/989c5c7f-1aff-4442-ac63-9d46acf4a891.jpg\",\"img/0769/662ab839-88d1-4ebf-af05-9b2980cad943.jpg\"]","trial_type":"similarity","trial_index":46,"time_elapsed":458374,"internal_node_id":"0.0-6.0-40.0"},{"sim_score":2,"rt":3490,"stimulus":"[\"img/0874/3f471690-9788-4d03-90c7-f615aecef149.jpg\",\"img/0764/0e7ed062-f798-4366-8a24-6f430926f919.jpg\"]","trial_type":"similarity","trial_index":47,"time_elapsed":465075,"internal_node_id":"0.0-6.0-41.0"},{"sim_score":1,"rt":3053,"stimulus":"[\"img/0868/0d3abd3a-b6c3-4584-a9f7-e2da63748b3d.jpg\",\"img/0902/94198618-7047-4dc9-ad04-85f4ba913067.jpg\"]","trial_type":"similarity","trial_index":48,"time_elapsed":469183,"internal_node_id":"0.0-6.0-42.0"},{"sim_score":1,"rt":2764,"stimulus":"[\"img/0875/5a1e5100-0d94-4fec-bbe9-ca9894d2cf8e.jpg\",\"img/0899/76ad07e2-ca25-45eb-84f2-8d80b8ca3e26.jpg\"]","trial_type":"similarity","trial_index":49,"time_elapsed":472975,"internal_node_id":"0.0-6.0-43.0"},{"sim_score":1,"rt":3662,"stimulus":"[\"img/0866/02f5e6b9-52b7-448c-9708-5b460d0c9a23.jpg\",\"img/0860/4f695df5-afac-4da7-9875-fee39b0b24ad.jpg\"]","trial_type":"similarity","trial_index":50,"time_elapsed":477680,"internal_node_id":"0.0-6.0-44.0"},{"sim_score":5,"rt":4774,"stimulus":"[\"img/0766/75c3d627-4f3b-40d5-9d9c-10c8a62db644.jpg\",\"img/0903/2a9c8033-3e70-47fa-816d-97ee1813a3a3.jpg\"]","trial_type":"similarity","trial_index":51,"time_elapsed":483489,"internal_node_id":"0.0-6.0-45.0"},{"sim_score":3,"rt":3617,"stimulus":"[\"img/0901/6e2957f8-f5ab-46f4-87cc-bb50155a098b.jpg\",\"img/0904/9d30eff1-46ef-4453-b11e-124ef8145c00.jpg\"]","trial_type":"similarity","trial_index":52,"time_elapsed":488138,"internal_node_id":"0.0-6.0-46.0"},{"sim_score":5,"rt":3658,"stimulus":"[\"img/0758/b76ceca7-95ac-46e4-ac13-da02c8e93be9.jpg\",\"img/0902/cf9dee9c-2bdf-4d64-9302-97f1660fe52c.jpg\"]","trial_type":"similarity","trial_index":53,"time_elapsed":492827,"internal_node_id":"0.0-6.0-47.0"},{"sim_score":7,"rt":3762,"stimulus":"[\"img/0764/a86eed5b-d0af-4c3f-8c7a-26e98e98cf1a.jpg\",\"img/0764/e0788029-9d7f-414c-b747-46d2a99f7c86.jpg\"]","trial_type":"similarity","trial_index":54,"time_elapsed":497628,"internal_node_id":"0.0-6.0-48.0"},{"sim_score":2,"rt":3982,"stimulus":"[\"img/0866/6f2a90d7-14f1-4f1b-bd64-fc0af6b9fe44.jpg\",\"img/0902/fbef27fa-ac83-4936-ab78-9d1c20a383e1.jpg\"]","trial_type":"similarity","trial_index":55,"time_elapsed":502653,"internal_node_id":"0.0-6.0-49.0"},{"sim_score":2,"rt":3317,"stimulus":"[\"img/0764/4bec8d92-75aa-475a-954d-8215dbe538f5.jpg\",\"img/0758/7ffbc76b-1fc1-432c-8f7e-9ec8d1b3f643.jpg\"]","trial_type":"similarity","trial_index":56,"time_elapsed":507013,"internal_node_id":"0.0-6.0-50.0"},{"sim_score":2,"rt":4223,"stimulus":"[\"img/0898/04e39a7a-fcf6-4156-ab0e-f5871f335e1c.jpg\",\"img/0894/0130a973-d993-41f8-874a-fee23d9ac11f.jpg\"]","trial_type":"similarity","trial_index":57,"time_elapsed":512270,"internal_node_id":"0.0-6.0-51.0"},{"sim_score":7,"rt":4758,"stimulus":"[\"img/0875/f87b67d7-c33e-40d1-b281-248c4be1cb6e.jpg\",\"img/0866/d493a2c8-66eb-44b4-be02-2f327b700b7c.jpg\"]","trial_type":"similarity","trial_index":58,"time_elapsed":518063,"internal_node_id":"0.0-6.0-52.0"},{"sim_score":6,"rt":4082,"stimulus":"[\"img/0904/fe746a3f-8458-48d0-8a13-8cba2a9df9f8.jpg\",\"img/0904/60d1a521-edf7-4696-9263-f21ac0e62a01.jpg\"]","trial_type":"similarity","trial_index":59,"time_elapsed":523178,"internal_node_id":"0.0-6.0-53.0"},{"sim_score":6,"rt":5773,"stimulus":"[\"img/0769/3c1203c5-2ce7-466e-957a-8d77b5905460.jpg\",\"img/0769/022c7e3b-c3f2-4119-b4bc-f22fa7cae18c.jpg\"]","trial_type":"similarity","trial_index":60,"time_elapsed":530002,"internal_node_id":"0.0-6.0-54.0"},{"sim_score":2,"rt":5572,"stimulus":"[\"img/0898/a114b375-cb89-44ba-9498-74213f1ecdee.jpg\",\"img/0758/2fa3e613-e676-4e6e-bd12-705327eeb3e1.jpg\"]","trial_type":"similarity","trial_index":61,"time_elapsed":536603,"internal_node_id":"0.0-6.0-55.0"},{"sim_score":1,"rt":3836,"stimulus":"[\"img/0769/04347740-f8f6-48bb-887a-f68babd0a0d4.jpg\",\"img/0902/c920f0e1-1c81-480f-a164-c77f2dc6ce9a.jpg\"]","trial_type":"similarity","trial_index":62,"time_elapsed":541467,"internal_node_id":"0.0-6.0-56.0"},{"sim_score":7,"rt":4649,"stimulus":"[\"img/0864/0116ca98-293d-4fa6-a93b-5a6144ef64cc.jpg\",\"img/0881/19e82c47-8e4b-45d2-a6c8-74181eb4155e.jpg\"]","trial_type":"similarity","trial_index":63,"time_elapsed":547148,"internal_node_id":"0.0-6.0-57.0"},{"sim_score":4,"rt":9427,"stimulus":"[\"img/0758/a709631e-3705-4725-ac40-f0d916924f08.jpg\",\"img/0868/c8ac40c7-6904-4e13-8d61-c75d3052dc4e.jpg\"]","trial_type":"similarity","trial_index":64,"time_elapsed":557621,"internal_node_id":"0.0-6.0-58.0"},{"sim_score":2,"rt":3070,"stimulus":"[\"img/0862/ba89835a-408c-480b-8594-ed4ffa97eb5c.jpg\",\"img/0769/75f7e514-0548-4329-b1e4-93c05e74f038.jpg\"]","trial_type":"similarity","trial_index":65,"time_elapsed":561718,"internal_node_id":"0.0-6.0-59.0"},{"sim_score":3,"rt":4647,"stimulus":"[\"img/0764/f2f23359-8e82-41d3-8900-5b9f4433991d.jpg\",\"img/0903/6b5dcc60-3ad3-4962-93e5-e6cf768477af.jpg\"]","trial_type":"similarity","trial_index":66,"time_elapsed":567398,"internal_node_id":"0.0-6.0-60.0"},{"sim_score":5,"rt":3514,"stimulus":"[\"img/0899/5b56dd3e-3f49-47cc-af84-16da6457753b.jpg\",\"img/0899/565ccdd9-0933-4536-a625-3c0e25a713dd.jpg\"]","trial_type":"similarity","trial_index":67,"time_elapsed":571951,"internal_node_id":"0.0-6.0-61.0"},{"sim_score":1,"rt":3768,"stimulus":"[\"img/0860/c47fdead-eb02-4989-b078-26f4852f44fe.jpg\",\"img/0875/2c361b79-c3d1-4eda-812e-bf03192407bf.jpg\"]","trial_type":"similarity","trial_index":68,"time_elapsed":576759,"internal_node_id":"0.0-6.0-62.0"},{"sim_score":1,"rt":4091,"stimulus":"[\"img/0868/d6d1f30d-4323-435a-b194-7892521bc57e.jpg\",\"img/0874/ca23d307-fc00-4d7d-9106-584c6eb21b4d.jpg\"]","trial_type":"similarity","trial_index":69,"time_elapsed":581888,"internal_node_id":"0.0-6.0-63.0"},{"sim_score":4,"rt":5231,"stimulus":"[\"img/0758/65d426d6-3ff6-415d-8654-a43b83ecc4fe.jpg\",\"img/0862/00c06b00-3b73-44e9-bc1e-c5aafb438321.jpg\"]","trial_type":"similarity","trial_index":70,"time_elapsed":588145,"internal_node_id":"0.0-6.0-64.0"},{"sim_score":5,"rt":2998,"stimulus":"[\"img/0904/4e58005d-a2ec-4aaa-b199-445343561396.jpg\",\"img/0898/661621d4-a14e-487c-8c74-354134a29710.jpg\"]","trial_type":"similarity","trial_index":71,"time_elapsed":592186,"internal_node_id":"0.0-6.0-65.0"},{"sim_score":1,"rt":3989,"stimulus":"[\"img/0881/48ed65a5-471f-41af-86ec-3793805c116d.jpg\",\"img/0866/8efcaa46-83ab-4dee-a35f-850402aa21ae.jpg\"]","trial_type":"similarity","trial_index":72,"time_elapsed":597218,"internal_node_id":"0.0-6.0-66.0"},{"sim_score":1,"rt":3399,"stimulus":"[\"img/0867/cc72ed48-7704-422c-86d6-467a1145287a.jpg\",\"img/0898/ec565187-2e31-4fdd-9a5c-153d0c789ae0.jpg\"]","trial_type":"similarity","trial_index":73,"time_elapsed":601667,"internal_node_id":"0.0-6.0-67.0"},{"sim_score":1,"rt":2872,"stimulus":"[\"img/0902/418b716e-63e5-4c77-93e9-95b1f5a3ddf0.jpg\",\"img/0764/fb7d4a20-a475-465e-a74f-aa39a0d33d16.jpg\"]","trial_type":"similarity","trial_index":74,"time_elapsed":605572,"internal_node_id":"0.0-6.0-68.0"},{"sim_score":3,"rt":6926,"stimulus":"[\"img/0875/527ced51-8e53-4aab-ab05-86df219104c0.jpg\",\"img/0867/f26f6b60-f772-4f4c-95a4-addc62cfd692.jpg\"]","trial_type":"similarity","trial_index":75,"time_elapsed":613541,"internal_node_id":"0.0-6.0-69.0"},{"sim_score":2,"rt":5658,"stimulus":"[\"img/0766/51d3aab4-3d09-4dda-b99d-3dc7aaabc6f2.jpg\",\"img/0764/50f1b062-d608-4bc0-ab25-b872dcf2ed93.jpg\"]","trial_type":"similarity","trial_index":76,"time_elapsed":620230,"internal_node_id":"0.0-6.0-70.0"},{"sim_score":2,"rt":4398,"stimulus":"[\"img/0894/6aa5545f-fa7d-4286-bbaa-aaf34dc7ec96.jpg\",\"img/0867/f8488a47-94ee-4166-952c-44e16cf172f6.jpg\"]","trial_type":"similarity","trial_index":77,"time_elapsed":625663,"internal_node_id":"0.0-6.0-71.0"},{"sim_score":2,"rt":3249,"stimulus":"[\"img/0875/dbdd643e-6d0e-4a5c-ab57-b9c29b9c981a.jpg\",\"img/0764/4952d0a0-c9be-471a-8ec7-94a37bf4051d.jpg\"]","trial_type":"similarity","trial_index":78,"time_elapsed":629944,"internal_node_id":"0.0-6.0-72.0"},{"sim_score":4,"rt":4775,"stimulus":"[\"img/0867/12264664-1860-46df-8c21-162b9817cdda.jpg\",\"img/0866/386235d2-6857-41e7-88a8-25cfc3430025.jpg\"]","trial_type":"similarity","trial_index":79,"time_elapsed":635761,"internal_node_id":"0.0-6.0-73.0"},{"sim_score":2,"rt":4404,"stimulus":"[\"img/0903/8fcafe03-43df-4c45-9da5-0df3a1eeccc5.jpg\",\"img/0758/dd559618-7f09-4a07-8018-d311c4a5ea29.jpg\"]","trial_type":"similarity","trial_index":80,"time_elapsed":641194,"internal_node_id":"0.0-6.0-74.0"},{"sim_score":1,"rt":2941,"stimulus":"[\"img/0766/d5d38751-8fa5-476f-93e9-86ed2d9045ef.jpg\",\"img/0868/4bd5105a-d2c3-4f82-8c80-57196106ba53.jpg\"]","trial_type":"similarity","trial_index":81,"time_elapsed":645162,"internal_node_id":"0.0-6.0-75.0"},{"sim_score":3,"rt":3853,"stimulus":"[\"img/0874/29830da7-be5f-44e5-b141-652a0ccf7269.jpg\",\"img/0766/d14acac4-7db1-4b07-8f8f-302437326fc0.jpg\"]","trial_type":"similarity","trial_index":82,"time_elapsed":650067,"internal_node_id":"0.0-6.0-76.0"},{"sim_score":1,"rt":2978,"stimulus":"[\"img/0881/b549bc99-a61c-4450-bab5-9efc3a197bf0.jpg\",\"img/0868/09a9ef4d-d000-4cfa-a6aa-ebec7c2edeb4.jpg\"]","trial_type":"similarity","trial_index":83,"time_elapsed":654091,"internal_node_id":"0.0-6.0-77.0"},{"sim_score":1,"rt":4577,"stimulus":"[\"img/0758/6e95579b-5166-487c-b8cb-e417c6a218e3.jpg\",\"img/0901/548d1110-7cb8-42a2-9927-9798875c8b5c.jpg\"]","trial_type":"similarity","trial_index":84,"time_elapsed":659700,"internal_node_id":"0.0-6.0-78.0"},{"sim_score":4,"rt":3546,"stimulus":"[\"img/0881/d373cb9f-a719-4549-a2a4-82def79fb2a5.jpg\",\"img/0898/881e2a85-d5c2-49be-a0c6-8a6ce2c4af08.jpg\"]","trial_type":"similarity","trial_index":85,"time_elapsed":664285,"internal_node_id":"0.0-6.0-79.0"},{"sim_score":1,"rt":2462,"stimulus":"[\"img/0867/8ba0c5a7-c7e4-42cf-a80a-543763b90779.jpg\",\"img/0758/20497cbe-ddae-489e-86e2-ab06985ed07c.jpg\"]","trial_type":"similarity","trial_index":86,"time_elapsed":667790,"internal_node_id":"0.0-6.0-80.0"},{"sim_score":4,"rt":4232,"stimulus":"[\"img/0769/11518cb3-13ea-4dd0-890c-30cfab728ade.jpg\",\"img/0899/fd9efb43-701f-4cd6-baaa-4c38315f4bdc.jpg\"]","trial_type":"similarity","trial_index":87,"time_elapsed":673055,"internal_node_id":"0.0-6.0-81.0"},{"sim_score":7,"rt":4952,"stimulus":"[\"img/0903/36e4ab1f-caa9-40b3-8616-faada076df94.jpg\",\"img/0903/150cf64c-0bd2-4674-abbb-a1387cf1f3e9.jpg\"]","trial_type":"similarity","trial_index":88,"time_elapsed":679056,"internal_node_id":"0.0-6.0-82.0"},{"sim_score":1,"rt":3160,"stimulus":"[\"img/0867/2e1a0b58-cdb1-4107-a14e-452530d7b9b0.jpg\",\"img/0766/a0270213-fa0e-4972-8b56-228c3e01ff90.jpg\"]","trial_type":"similarity","trial_index":89,"time_elapsed":689639,"internal_node_id":"0.0-6.0-83.0"},{"sim_score":1,"rt":2663,"stimulus":"[\"img/0902/168ebd47-9e82-4ab7-a18b-c3da85072db8.jpg\",\"img/0867/85a96c62-548f-4994-9553-819e03c3135a.jpg\"]","trial_type":"similarity","trial_index":90,"time_elapsed":693330,"internal_node_id":"0.0-6.0-84.0"},{"sim_score":2,"rt":4472,"stimulus":"[\"img/0901/a6c90438-fa7c-4418-ac7c-16c2e772dd98.jpg\",\"img/0875/2e13d160-eea1-416b-aff1-d37ab99ecc1d.jpg\"]","trial_type":"similarity","trial_index":91,"time_elapsed":698851,"internal_node_id":"0.0-6.0-85.0"},{"sim_score":5,"rt":3716,"stimulus":"[\"img/0764/e30dba15-e68a-4659-89db-e1654b52fe02.jpg\",\"img/0866/be24ab58-230e-4db8-9f45-ff04c9aec6bb.jpg\"]","trial_type":"similarity","trial_index":92,"time_elapsed":703604,"internal_node_id":"0.0-6.0-86.0"},{"sim_score":1,"rt":7215,"stimulus":"[\"img/0901/a373612d-67e2-4fec-9764-21d3d6ef6359.jpg\",\"img/0894/05161000-f476-499b-a878-c13c7f347fd9.jpg\"]","trial_type":"similarity","trial_index":93,"time_elapsed":711861,"internal_node_id":"0.0-6.0-87.0"},{"sim_score":2,"rt":4411,"stimulus":"[\"img/0898/224c1572-56b9-4f16-a9e4-6f3bc9c114bd.jpg\",\"img/0769/e8ed913b-8a88-44f6-9327-d34afec3116b.jpg\"]","trial_type":"similarity","trial_index":94,"time_elapsed":717310,"internal_node_id":"0.0-6.0-88.0"},{"sim_score":6,"rt":5102,"stimulus":"[\"img/0769/4680bcc3-8fbc-4643-8f9a-12aa0e780b64.jpg\",\"img/0894/492d2f29-d7b9-4422-8be8-47fd58bfaa8b.jpg\"]","trial_type":"similarity","trial_index":95,"time_elapsed":723447,"internal_node_id":"0.0-6.0-89.0"},{"sim_score":2,"rt":5371,"stimulus":"[\"img/0862/57b6f83f-c763-4858-830d-102f97bfefbf.jpg\",\"img/0874/8cdb1c07-1c32-46d2-981c-3636560fa6e5.jpg\"]","trial_type":"similarity","trial_index":96,"time_elapsed":729845,"internal_node_id":"0.0-6.0-90.0"},{"sim_score":5,"rt":3150,"stimulus":"[\"img/0894/2d2db7b3-e8a3-499b-b63a-14f51bf73882.jpg\",\"img/0766/908bc45b-7c9e-4f95-806e-86b196ebcb2c.jpg\"]","trial_type":"similarity","trial_index":97,"time_elapsed":734013,"internal_node_id":"0.0-6.0-91.0"},{"sim_score":3,"rt":3626,"stimulus":"[\"img/0874/bf14b896-e930-4fd9-9c05-2e83317a2773.jpg\",\"img/0867/db7e032f-162b-46f5-ae67-2b29679adee4.jpg\"]","trial_type":"similarity","trial_index":98,"time_elapsed":738670,"internal_node_id":"0.0-6.0-92.0"},{"sim_score":1,"rt":6364,"stimulus":"[\"img/0899/fef567a2-c121-4481-9af0-ff108d199bbf.jpg\",\"img/0868/179a5502-ab5c-478e-8263-5a1fbcc101d2.jpg\"]","trial_type":"similarity","trial_index":99,"time_elapsed":746071,"internal_node_id":"0.0-6.0-93.0"},{"sim_score":5,"rt":3017,"stimulus":"[\"img/0903/f1fa0f8d-e62b-4b4a-a174-31a0fabfe61b.jpg\",\"img/0862/e8cc3bdf-cc43-4565-bccf-492626c70953.jpg\"]","trial_type":"similarity","trial_index":100,"time_elapsed":750123,"internal_node_id":"0.0-6.0-94.0"},{"sim_score":6,"rt":3298,"stimulus":"[\"img/0899/ddf96ade-692e-4602-bd22-dedbb46401bc.jpg\",\"img/0766/27f54113-8561-4568-9ffe-0a1650ae65ec.jpg\"]","trial_type":"similarity","trial_index":101,"time_elapsed":754456,"internal_node_id":"0.0-6.0-95.0"},{"sim_score":7,"rt":2720,"stimulus":"[\"img/0867/f8159067-056c-41f1-a136-c529fe5e970a.jpg\",\"img/0868/8b0b8473-e2c0-4331-aa56-c3a5c29369da.jpg\"]","trial_type":"similarity","trial_index":102,"time_elapsed":758209,"internal_node_id":"0.0-6.0-96.0"},{"sim_score":7,"rt":3935,"stimulus":"[\"img/0862/4f0a3b4c-afbf-486e-b248-1d54982f54b4.jpg\",\"img/0901/50e1d53e-a49f-4806-8610-be6dec5a2475.jpg\"]","trial_type":"similarity","trial_index":103,"time_elapsed":763178,"internal_node_id":"0.0-6.0-97.0"},{"sim_score":1,"rt":3510,"stimulus":"[\"img/0875/99698b4d-b4a1-44bc-8c83-8ea755bbbf61.jpg\",\"img/0766/1865bfc9-2410-4765-a804-3ae4ba2393d0.jpg\"]","trial_type":"similarity","trial_index":104,"time_elapsed":767730,"internal_node_id":"0.0-6.0-98.0"},{"sim_score":6,"rt":5827,"stimulus":"[\"img/0758/335851a0-a55b-46d8-ab05-8463eda48349.jpg\",\"img/0874/1016b306-087c-4afc-aa08-fa527b28dc76.jpg\"]","trial_type":"similarity","trial_index":105,"time_elapsed":774588,"internal_node_id":"0.0-6.0-99.0"},{"sim_score":4,"rt":3882,"stimulus":"[\"img/0904/d23dd7be-7fe8-4435-82f7-bd592c01e6a1.jpg\",\"img/0868/15dd6fd7-791e-4b53-b203-195d617521a4.jpg\"]","trial_type":"similarity","trial_index":106,"time_elapsed":779508,"internal_node_id":"0.0-6.0-100.0"},{"sim_score":1,"rt":5241,"stimulus":"[\"img/0903/c3cb4a01-2797-43ca-b216-88c67b323fbb.jpg\",\"img/0866/d266fece-59b3-46fa-b69f-96f6efb81b59.jpg\"]","trial_type":"similarity","trial_index":107,"time_elapsed":785784,"internal_node_id":"0.0-6.0-101.0"},{"sim_score":1,"rt":3316,"stimulus":"[\"img/0868/4a8a45ed-2c4f-421b-9564-409a33ecd26c.jpg\",\"img/0769/35364db7-e0d5-40ef-93dc-faf9dfb95136.jpg\"]","trial_type":"similarity","trial_index":108,"time_elapsed":790150,"internal_node_id":"0.0-6.0-102.0"},{"sim_score":1,"rt":2842,"stimulus":"[\"img/0902/95a36b6b-9601-4fa5-8fd9-606ea62f9425.jpg\",\"img/0899/a048912c-b12c-40e3-90af-46b69b0cc4fe.jpg\"]","trial_type":"similarity","trial_index":109,"time_elapsed":794023,"internal_node_id":"0.0-6.0-103.0"},{"sim_score":1,"rt":2413,"stimulus":"[\"img/0868/5fa7f9d0-f0e5-454c-8224-74d964818f56.jpg\",\"img/0862/f23038d4-c366-4f70-979f-66b62362efa4.jpg\"]","trial_type":"similarity","trial_index":110,"time_elapsed":797464,"internal_node_id":"0.0-6.0-104.0"},{"sim_score":1,"rt":3589,"stimulus":"[\"img/0903/0a92ec52-4e87-410a-857a-4455cde56a70.jpg\",\"img/0894/76c1201f-8524-4865-85e6-dda8cb4ac986.jpg\"]","trial_type":"similarity","trial_index":111,"time_elapsed":802088,"internal_node_id":"0.0-6.0-105.0"},{"sim_score":6,"rt":5748,"stimulus":"[\"img/0864/9b2490c5-a282-400a-9736-e1a0ecbf1cb7.jpg\",\"img/0874/ca76a855-4e77-4f2f-872a-0a718153e7ed.jpg\"]","trial_type":"similarity","trial_index":112,"time_elapsed":808865,"internal_node_id":"0.0-6.0-106.0"},{"sim_score":6,"rt":5590,"stimulus":"[\"img/0862/f43ceabf-acc1-4107-b857-5d1849808f93.jpg\",\"img/0902/94ee9c53-a9a2-4f95-b9b7-794a5fc62bb6.jpg\"]","trial_type":"similarity","trial_index":113,"time_elapsed":815499,"internal_node_id":"0.0-6.0-107.0"},{"sim_score":5,"rt":3796,"stimulus":"[\"img/0904/b7c2a2c8-df33-4473-b3d4-ff7147c60db3.jpg\",\"img/0903/e2e55a9e-0397-4dc0-8adf-4a54cfefe1fe.jpg\"]","trial_type":"similarity","trial_index":114,"time_elapsed":820331,"internal_node_id":"0.0-6.0-108.0"},{"sim_score":6,"rt":4376,"stimulus":"[\"img/0764/bd2eaa3e-95a9-4a59-a78e-3f81c766eea9.jpg\",\"img/0864/da39ad34-04e0-40d4-a724-c08d53e0ea09.jpg\"]","trial_type":"similarity","trial_index":115,"time_elapsed":825764,"internal_node_id":"0.0-6.0-109.0"},{"sim_score":2,"rt":3094,"stimulus":"[\"img/0866/4a87911a-d5be-4d4e-ab8e-3d1f581bf507.jpg\",\"img/0894/e2446cf5-cd48-486a-badc-76498e087fbe.jpg\"]","trial_type":"similarity","trial_index":116,"time_elapsed":829892,"internal_node_id":"0.0-6.0-110.0"},{"sim_score":3,"rt":3883,"stimulus":"[\"img/0899/0433d056-aa30-4f8a-9aa1-abbb951e4edd.jpg\",\"img/0903/470acfd5-5571-4a7b-b3a4-28d87e098138.jpg\"]","trial_type":"similarity","trial_index":117,"time_elapsed":834805,"internal_node_id":"0.0-6.0-111.0"},{"sim_score":6,"rt":4106,"stimulus":"[\"img/0902/a323b62d-2fd5-4ac8-acc6-35b768f3c3f2.jpg\",\"img/0904/6291eb43-c10c-4810-a36a-101d09868b04.jpg\"]","trial_type":"similarity","trial_index":118,"time_elapsed":839943,"internal_node_id":"0.0-6.0-112.0"},{"sim_score":5,"rt":3878,"stimulus":"[\"img/0864/87c467d3-abca-482f-ad80-3766c21b1bb3.jpg\",\"img/0860/29a21a9f-54bb-4093-ad3f-04823ceaa89f.jpg\"]","trial_type":"similarity","trial_index":119,"time_elapsed":844863,"internal_node_id":"0.0-6.0-113.0"},{"sim_score":5,"rt":5180,"stimulus":"[\"img/0860/d9a0d117-6d1d-41c0-8fec-9aff0fd9e9f2.jpg\",\"img/0899/00715b3f-851b-420b-a26b-d7f79f7759a9.jpg\"]","trial_type":"similarity","trial_index":120,"time_elapsed":851080,"internal_node_id":"0.0-6.0-114.0"},{"sim_score":1,"rt":4042,"stimulus":"[\"img/0881/f62bdcd1-a4b7-4d48-83da-d9c9e01c8727.jpg\",\"img/0903/12bd8657-92e6-4c36-a06c-597e7a1d51f3.jpg\"]","trial_type":"similarity","trial_index":121,"time_elapsed":856153,"internal_node_id":"0.0-6.0-115.0"},{"sim_score":1,"rt":5301,"stimulus":"[\"img/0894/3adef67d-7676-4995-80b2-bb31b8aca3ef.jpg\",\"img/0874/eba003b4-cdab-4eee-8bc3-f064c7d94165.jpg\"]","trial_type":"similarity","trial_index":122,"time_elapsed":862482,"internal_node_id":"0.0-6.0-116.0"},{"sim_score":2,"rt":5785,"stimulus":"[\"img/0881/54ea8e77-c7e5-4197-b7fa-00b7020849a7.jpg\",\"img/0862/e0f1a4e9-e1b6-45f7-af67-89f334e6630d.jpg\"]","trial_type":"similarity","trial_index":123,"time_elapsed":869299,"internal_node_id":"0.0-6.0-117.0"},{"sim_score":5,"rt":3479,"stimulus":"[\"img/0868/293079b8-7e0c-4afd-a390-1e5d35fe3ded.jpg\",\"img/0875/3ecb367d-e9eb-4826-8aaa-7aa72fb98019.jpg\"]","trial_type":"similarity","trial_index":124,"time_elapsed":873812,"internal_node_id":"0.0-6.0-118.0"},{"sim_score":3,"rt":4010,"stimulus":"[\"img/0860/61fb959d-d4d9-4de4-9e4e-4fa62b4cfcd5.jpg\",\"img/0758/d540bee6-b460-4c32-ac57-bc282742d7d4.jpg\"]","trial_type":"similarity","trial_index":125,"time_elapsed":878854,"internal_node_id":"0.0-6.0-119.0"},{"sim_score":1,"rt":3374,"stimulus":"[\"img/0864/49150900-7f25-4ce8-8d10-9b47a71d1997.jpg\",\"img/0875/90da8d75-108a-44ad-b999-e21fee3860d3.jpg\"]","trial_type":"similarity","trial_index":126,"time_elapsed":883279,"internal_node_id":"0.0-6.0-120.0"},{"sim_score":1,"rt":2846,"stimulus":"[\"img/0898/c3cecf20-f7fd-45fa-97d0-dc0a63e8d6c0.jpg\",\"img/0866/945c6710-d15b-4a5b-a8f6-69af0850357f.jpg\"]","trial_type":"similarity","trial_index":127,"time_elapsed":887158,"internal_node_id":"0.0-6.0-121.0"},{"sim_score":1,"rt":3103,"stimulus":"[\"img/0874/767f289c-9814-4496-803f-745cc8913d1f.jpg\",\"img/0904/696ebb60-8891-417a-91fd-c53218907a95.jpg\"]","trial_type":"similarity","trial_index":128,"time_elapsed":891301,"internal_node_id":"0.0-6.0-122.0"},{"sim_score":1,"rt":5099,"stimulus":"[\"img/0904/9dd5708f-3f8b-46a9-b49f-2f2fab87b357.jpg\",\"img/0864/a248adb3-c70b-4652-b7a3-776d2a1e904b.jpg\"]","trial_type":"similarity","trial_index":129,"time_elapsed":897438,"internal_node_id":"0.0-6.0-123.0"},{"sim_score":5,"rt":4707,"stimulus":"[\"img/0894/a98416c0-51e2-4960-85da-d81d8688b9d5.jpg\",\"img/0902/c018bd7a-d91a-4192-aea4-7259cfcdb6c4.jpg\"]","trial_type":"similarity","trial_index":130,"time_elapsed":903175,"internal_node_id":"0.0-6.0-124.0"},{"sim_score":1,"rt":3308,"stimulus":"[\"img/0868/d98ca254-b195-477f-b57e-5760a2717db8.jpg\",\"img/0864/8ddd2e30-a1d0-479f-9cbe-591213023893.jpg\"]","trial_type":"similarity","trial_index":131,"time_elapsed":911269,"internal_node_id":"0.0-6.0-125.0"},{"sim_score":1,"rt":6388,"stimulus":"[\"img/0899/57476fed-5962-4272-8fc9-b317bb777b54.jpg\",\"img/0866/a04d37f0-99dd-478a-b6c6-58b215138f84.jpg\"]","trial_type":"similarity","trial_index":132,"time_elapsed":918681,"internal_node_id":"0.0-6.0-126.0"},{"sim_score":1,"rt":5489,"stimulus":"[\"img/0875/d59ff733-eaff-4ee2-9443-06954dd0bcb6.jpg\",\"img/0904/1d10df11-b5c8-4370-9a6b-097a7f965895.jpg\"]","trial_type":"similarity","trial_index":133,"time_elapsed":925211,"internal_node_id":"0.0-6.0-127.0"},{"sim_score":1,"rt":2755,"stimulus":"[\"img/0867/26611f4e-d694-4460-b7e2-43c62753ddc3.jpg\",\"img/0899/7b7380d5-d2be-44e5-a09a-c1756f87ef71.jpg\"]","trial_type":"similarity","trial_index":134,"time_elapsed":928995,"internal_node_id":"0.0-6.0-128.0"},{"sim_score":1,"rt":2641,"stimulus":"[\"img/0901/58ec7fa9-b466-4651-90aa-c082df0972de.jpg\",\"img/0867/50a1b60e-3a29-44bf-b606-d4bd3746fea9.jpg\"]","trial_type":"similarity","trial_index":135,"time_elapsed":932675,"internal_node_id":"0.0-6.0-129.0"},{"sim_score":5,"rt":4304,"stimulus":"[\"img/0864/1ebbc554-99fa-49f9-8799-317375a79820.jpg\",\"img/0769/8c7cf147-1780-4d5c-8ddf-5ea23ff03ac9.jpg\"]","trial_type":"similarity","trial_index":136,"time_elapsed":938021,"internal_node_id":"0.0-6.0-130.0"},{"sim_score":4,"rt":3233,"stimulus":"[\"img/0903/5995f4a8-fa82-46f8-8760-fd7800a5ca34.jpg\",\"img/0868/1a62b2b2-18f5-466e-b564-5176a57c565e.jpg\"]","trial_type":"similarity","trial_index":137,"time_elapsed":942285,"internal_node_id":"0.0-6.0-131.0"},{"sim_score":1,"rt":2310,"stimulus":"[\"img/0864/1d15626a-2f7c-410f-819c-0fa2c967e95e.jpg\",\"img/0867/98d8cd96-1476-4fe0-a3a3-04f875500a1b.jpg\"]","trial_type":"similarity","trial_index":138,"time_elapsed":945637,"internal_node_id":"0.0-6.0-132.0"},{"sim_score":5,"rt":3276,"stimulus":"[\"img/0901/08d6d1d1-c043-43c4-bb08-d45e062822b9.jpg\",\"img/0860/5383b320-1518-4095-a58e-5cc1ae30b64c.jpg\"]","trial_type":"similarity","trial_index":139,"time_elapsed":949942,"internal_node_id":"0.0-6.0-133.0"},{"sim_score":5,"rt":3089,"stimulus":"[\"img/0881/405484ae-0d00-4b05-bc57-6420a36adfac.jpg\",\"img/0766/2e1cf445-9aef-40e7-92f4-5facf48b64c5.jpg\"]","trial_type":"similarity","trial_index":140,"time_elapsed":954063,"internal_node_id":"0.0-6.0-134.0"},{"sim_score":2,"rt":3077,"stimulus":"[\"img/0903/005ad0de-4f52-433c-b515-dbe8d46184a3.jpg\",\"img/0864/4bd81bc6-c13d-46df-95a9-485886dc7c1b.jpg\"]","trial_type":"similarity","trial_index":141,"time_elapsed":958168,"internal_node_id":"0.0-6.0-135.0"},{"sim_score":3,"rt":4006,"stimulus":"[\"img/0758/821c68d3-5cb0-4eae-8659-30e6263fca39.jpg\",\"img/0894/10f22b96-040c-44f4-950b-a4963f3f506c.jpg\"]","trial_type":"similarity","trial_index":142,"time_elapsed":963203,"internal_node_id":"0.0-6.0-136.0"},{"sim_score":2,"rt":2686,"stimulus":"[\"img/0769/bb8c4e53-6f32-4814-97ee-392d4decfb2e.jpg\",\"img/0860/71e1aad0-2cdf-43bb-94a4-a8c016997c30.jpg\"]","trial_type":"similarity","trial_index":143,"time_elapsed":966921,"internal_node_id":"0.0-6.0-137.0"},{"sim_score":5,"rt":4590,"stimulus":"[\"img/0904/2f88ce53-02d0-4f95-a082-182c56a0eeb4.jpg\",\"img/0766/00891401-e4c9-4ce1-bc19-f70740d174bc.jpg\"]","trial_type":"similarity","trial_index":144,"time_elapsed":972554,"internal_node_id":"0.0-6.0-138.0"},{"sim_score":1,"rt":2477,"stimulus":"[\"img/0868/4e626425-63c8-484a-8a1d-e66ee4e0bef8.jpg\",\"img/0860/9593362c-9fe5-4d12-9735-6000a11f6aa5.jpg\"]","trial_type":"similarity","trial_index":145,"time_elapsed":976059,"internal_node_id":"0.0-6.0-139.0"},{"sim_score":5,"rt":4464,"stimulus":"[\"img/0758/f61ecdf8-a7d4-4db0-b84d-be46f7cfaffc.jpg\",\"img/0864/b3c4e378-28f0-4699-9338-2a257b4bca04.jpg\"]","trial_type":"similarity","trial_index":146,"time_elapsed":981555,"internal_node_id":"0.0-6.0-140.0"},{"sim_score":7,"rt":4045,"stimulus":"[\"img/0867/a498eef3-9fa4-4ab2-9778-4ae82ac40dc5.jpg\",\"img/0867/de92135f-5b65-4ed9-b245-188292c7c2f8.jpg\"]","trial_type":"similarity","trial_index":147,"time_elapsed":986628,"internal_node_id":"0.0-6.0-141.0"},{"sim_score":7,"rt":4719,"stimulus":"[\"img/0898/4184e5a2-84ea-4f36-9b42-ae58646f6f87.jpg\",\"img/0898/f3a3f225-1248-4ac7-b93b-f0ff28485bf3.jpg\"]","trial_type":"similarity","trial_index":148,"time_elapsed":992390,"internal_node_id":"0.0-6.0-142.0"},{"sim_score":1,"rt":4619,"stimulus":"[\"img/0866/9b38d691-1802-4959-ab3f-fc902f0e4ea6.jpg\",\"img/0769/b664b502-a86c-46c1-ad6f-5ebffc2e1bd3.jpg\"]","trial_type":"similarity","trial_index":149,"time_elapsed":998046,"internal_node_id":"0.0-6.0-143.0"},{"sim_score":3,"rt":4492,"stimulus":"[\"img/0860/8fdba999-b946-4c7d-9891-336018b563ef.jpg\",\"img/0898/b3290bf9-215b-4b45-b21a-65bdf73f142f.jpg\"]","trial_type":"similarity","trial_index":150,"time_elapsed":1003567,"internal_node_id":"0.0-6.0-144.0"},{"sim_score":5,"rt":3217,"stimulus":"[\"img/0766/a754e4b6-5019-4cf4-8f58-34c20547a1f5.jpg\",\"img/0864/3d4de670-b290-4285-9c3d-12a0e3af44e9.jpg\"]","trial_type":"similarity","trial_index":151,"time_elapsed":1007816,"internal_node_id":"0.0-6.0-145.0"},{"sim_score":4,"rt":4238,"stimulus":"[\"img/0860/f44ba3fb-03a2-42f0-8509-2c1ded493086.jpg\",\"img/0903/59defeb8-98bd-4570-a2f8-9bd189e68ef4.jpg\"]","trial_type":"similarity","trial_index":152,"time_elapsed":1013097,"internal_node_id":"0.0-6.0-146.0"},{"sim_score":1,"rt":3950,"stimulus":"[\"img/0867/7d1c497b-c1b3-4ed8-abb5-d7f73306015f.jpg\",\"img/0764/6ef77040-1fae-4afa-bfe7-eda98e6d0376.jpg\"]","trial_type":"similarity","trial_index":153,"time_elapsed":1018081,"internal_node_id":"0.0-6.0-147.0"},{"sim_score":6,"rt":4158,"stimulus":"[\"img/0769/db94b61b-a5a7-4861-9d32-7b02ad194fb0.jpg\",\"img/0904/da170c1b-9651-4f08-b231-2bdd1d9a046f.jpg\"]","trial_type":"similarity","trial_index":154,"time_elapsed":1023267,"internal_node_id":"0.0-6.0-148.0"},{"sim_score":2,"rt":3971,"stimulus":"[\"img/0764/06ea144f-f4f3-4a14-ba47-f20f35c561e0.jpg\",\"img/0901/a9b9c0a0-8aed-4888-a78a-65fb7e764d13.jpg\"]","trial_type":"similarity","trial_index":155,"time_elapsed":1028275,"internal_node_id":"0.0-6.0-149.0"},{"sim_score":5,"rt":3547,"stimulus":"[\"img/0904/09dac84f-3d1c-4445-a68e-d0389fdbf1e9.jpg\",\"img/0899/8abe6c69-822c-436c-9bf2-96c818b49ba5.jpg\"]","trial_type":"similarity","trial_index":156,"time_elapsed":1032861,"internal_node_id":"0.0-6.0-150.0"},{"sim_score":1,"rt":2524,"stimulus":"[\"img/0862/e697469a-ec19-4414-b972-7b9f3564785b.jpg\",\"img/0867/6e19c858-b606-45b2-a4c6-910a73f1d82c.jpg\"]","trial_type":"similarity","trial_index":157,"time_elapsed":1036420,"internal_node_id":"0.0-6.0-151.0"},{"sim_score":7,"rt":6013,"stimulus":"[\"img/0766/dd3e18d0-0c98-4d05-b850-69976ee8cd75.jpg\",\"img/0766/f3276cc4-65de-4c2d-88d5-6cfebce14b8f.jpg\"]","trial_type":"similarity","trial_index":158,"time_elapsed":1043470,"internal_node_id":"0.0-6.0-152.0"},{"sim_score":6,"rt":3448,"stimulus":"[\"img/0862/5d887e9f-89e2-4ebc-80a0-6d46fe6480db.jpg\",\"img/0894/bd34223a-2f66-4e16-9d18-193a746b69ff.jpg\"]","trial_type":"similarity","trial_index":159,"time_elapsed":1047958,"internal_node_id":"0.0-6.0-153.0"},{"sim_score":1,"rt":3299,"stimulus":"[\"img/0899/56a605c3-d0a2-4215-89e1-779279d85a7c.jpg\",\"img/0901/c6c877e0-dd63-4e00-9657-33af29d55aab.jpg\"]","trial_type":"similarity","trial_index":160,"time_elapsed":1052294,"internal_node_id":"0.0-6.0-154.0"},{"sim_score":6,"rt":5143,"stimulus":"[\"img/0874/3ce41e7c-40c8-4d58-a546-171114521796.jpg\",\"img/0874/93d1f8dc-acf2-4f03-bd8d-8ec35df276ed.jpg\"]","trial_type":"similarity","trial_index":161,"time_elapsed":1058478,"internal_node_id":"0.0-6.0-155.0"},{"sim_score":1,"rt":2464,"stimulus":"[\"img/0860/c7047cd2-7cc1-41b6-8a34-c0986774975f.jpg\",\"img/0867/5e07b34d-b40f-4b1c-ac10-49975bace45f.jpg\"]","trial_type":"similarity","trial_index":162,"time_elapsed":1061975,"internal_node_id":"0.0-6.0-156.0"},{"sim_score":4,"rt":3620,"stimulus":"[\"img/0901/875dedb9-24c9-4443-9f8c-85e97d70ee5a.jpg\",\"img/0881/7e31e5dc-2240-4b1b-b5a0-3acd980099ef.jpg\"]","trial_type":"similarity","trial_index":163,"time_elapsed":1066640,"internal_node_id":"0.0-6.0-157.0"},{"sim_score":4,"rt":3907,"stimulus":"[\"img/0903/6138142e-c84e-45fc-9487-c974f3d4968a.jpg\",\"img/0902/a6fb6dd5-696c-47ec-be7d-d7b88f1544f1.jpg\"]","trial_type":"similarity","trial_index":164,"time_elapsed":1071577,"internal_node_id":"0.0-6.0-158.0"},{"sim_score":2,"rt":3873,"stimulus":"[\"img/0860/18dfed73-e36b-4487-a8bd-0b8cff8e3668.jpg\",\"img/0764/cffc80b0-4a90-4acb-a530-6f480f3ca303.jpg\"]","trial_type":"similarity","trial_index":165,"time_elapsed":1076490,"internal_node_id":"0.0-6.0-159.0"},{"sim_score":2,"rt":2719,"stimulus":"[\"img/0902/aa6fca32-82b0-4414-b20a-8f6f8aa5a2d2.jpg\",\"img/0875/e7e66b13-b573-431e-b85e-288ce04a35a3.jpg\"]","trial_type":"similarity","trial_index":166,"time_elapsed":1080251,"internal_node_id":"0.0-6.0-160.0"},{"sim_score":4,"rt":4448,"stimulus":"[\"img/0898/82231d4c-218b-4d0a-b50d-35a49b524e97.jpg\",\"img/0862/064818ee-13d5-4618-bb24-21c7368ea278.jpg\"]","trial_type":"similarity","trial_index":167,"time_elapsed":1085740,"internal_node_id":"0.0-6.0-161.0"},{"sim_score":2,"rt":3099,"stimulus":"[\"img/0894/4739e06d-c31e-4bf1-bf91-c97fa9afb456.jpg\",\"img/0875/a4935837-7d3c-4df6-88c1-36a94d4991ca.jpg\"]","trial_type":"similarity","trial_index":168,"time_elapsed":1089868,"internal_node_id":"0.0-6.0-162.0"},{"sim_score":1,"rt":3099,"stimulus":"[\"img/0866/a15b02be-11bb-43e3-b0e0-ecc3bd7dfc49.jpg\",\"img/0864/6f631579-acf1-415c-a42c-1207f62a8d99.jpg\"]","trial_type":"similarity","trial_index":169,"time_elapsed":1094005,"internal_node_id":"0.0-6.0-163.0"},{"sim_score":1,"rt":3296,"stimulus":"[\"img/0766/214866ee-423d-4629-9bb9-41572bdc7dac.jpg\",\"img/0862/99a99e39-8355-44ec-b993-e7bcec111e1c.jpg\"]","trial_type":"similarity","trial_index":170,"time_elapsed":1098334,"internal_node_id":"0.0-6.0-164.0"},{"sim_score":1,"rt":3966,"stimulus":"[\"img/0866/f756f7d1-9ad8-4a34-9ef6-7a443d705bfe.jpg\",\"img/0874/a3bc679d-619f-4db6-bb68-116dcb757d9c.jpg\"]","trial_type":"similarity","trial_index":171,"time_elapsed":1103342,"internal_node_id":"0.0-6.0-165.0"},{"sim_score":6,"rt":7014,"stimulus":"[\"img/0862/fb26cb07-d5a9-4653-813c-f41609f26cd5.jpg\",\"img/0860/94ef7afc-e0e6-4a15-98c6-0bfac82bc832.jpg\"]","trial_type":"similarity","trial_index":172,"time_elapsed":1111399,"internal_node_id":"0.0-6.0-166.0"},{"sim_score":1,"rt":3334,"stimulus":"[\"img/0766/79767d11-b612-4e8a-9e4b-a8ac95bb6a54.jpg\",\"img/0901/4f9cffe0-c0be-4d7f-bacd-9d51efd19b4a.jpg\"]","trial_type":"similarity","trial_index":173,"time_elapsed":1120270,"internal_node_id":"0.0-6.0-167.0"},{"sim_score":7,"rt":3850,"stimulus":"[\"img/0862/24cdc752-c2e5-4a17-86a6-6f2045d8553b.jpg\",\"img/0862/d0ca4c78-fc35-46ed-bdcc-8e124283c53e.jpg\"]","trial_type":"similarity","trial_index":174,"time_elapsed":1125146,"internal_node_id":"0.0-6.0-168.0"},{"sim_score":6,"rt":4438,"stimulus":"[\"img/0894/43216a7f-27bc-4b5a-8841-d122a30da9d9.jpg\",\"img/0764/5c8fbafc-e62e-43ed-9b37-f73e8e45147d.jpg\"]","trial_type":"similarity","trial_index":175,"time_elapsed":1130619,"internal_node_id":"0.0-6.0-169.0"},{"sim_score":2,"rt":6731,"stimulus":"[\"img/0874/7e4f2150-3b59-4a36-b5da-a4e0ba410531.jpg\",\"img/0898/b2732712-71c2-45d8-834f-2b2ed5504910.jpg\"]","trial_type":"similarity","trial_index":176,"time_elapsed":1138388,"internal_node_id":"0.0-6.0-170.0"},{"sim_score":1,"rt":3258,"stimulus":"[\"img/0860/4c530c3c-6aab-492a-94d1-9c01797bde40.jpg\",\"img/0766/d50d734f-285c-4840-bc7a-c8dd4aff391e.jpg\"]","trial_type":"similarity","trial_index":177,"time_elapsed":1142686,"internal_node_id":"0.0-6.0-171.0"},{"sim_score":1,"rt":3882,"stimulus":"[\"img/0898/cd3aaa3f-efa9-4ab3-8d6f-a6a9273ddf42.jpg\",\"img/0864/ef9cbca0-4be8-435d-ad49-977259e80409.jpg\"]","trial_type":"similarity","trial_index":178,"time_elapsed":1147618,"internal_node_id":"0.0-6.0-172.0"},{"sim_score":5,"rt":5143,"stimulus":"[\"img/0881/adc02f34-ce97-4aef-850f-00519df06fd7.jpg\",\"img/0764/f990b2e8-ecee-481e-be7c-0239fce350e2.jpg\"]","trial_type":"similarity","trial_index":179,"time_elapsed":1153791,"internal_node_id":"0.0-6.0-173.0"},{"sim_score":1,"rt":2805,"stimulus":"[\"img/0898/81b08535-2020-4c15-9ce4-2f1e460755ae.jpg\",\"img/0868/7b212364-ff5f-4e28-9241-7eb6ea00161b.jpg\"]","trial_type":"similarity","trial_index":180,"time_elapsed":1157632,"internal_node_id":"0.0-6.0-174.0"},{"sim_score":7,"rt":4672,"stimulus":"[\"img/0864/ea327690-500b-4137-bf91-451b309fe6a5.jpg\",\"img/0864/c22faebd-9c53-47bc-ada3-b9a30c688e75.jpg\"]","trial_type":"similarity","trial_index":181,"time_elapsed":1163336,"internal_node_id":"0.0-6.0-175.0"},{"sim_score":1,"rt":2609,"stimulus":"[\"img/0899/1b3457ea-87d4-4946-a01c-aac1863ed46c.jpg\",\"img/0862/ad593cc7-cabe-4bb7-8e14-8a447a0717b4.jpg\"]","trial_type":"similarity","trial_index":182,"time_elapsed":1166984,"internal_node_id":"0.0-6.0-176.0"},{"sim_score":1,"rt":2679,"stimulus":"[\"img/0875/ebf7653f-ff45-4e9f-af58-2c042ab3cd2b.jpg\",\"img/0758/61d64021-9214-4951-bdf8-f871f9827cf9.jpg\"]","trial_type":"similarity","trial_index":183,"time_elapsed":1170705,"internal_node_id":"0.0-6.0-177.0"},{"sim_score":2,"rt":5591,"stimulus":"[\"img/0866/c446214b-a368-4c65-ae39-ea46894256ab.jpg\",\"img/0901/b9141736-3041-4385-a586-b1fe911c76a5.jpg\"]","trial_type":"similarity","trial_index":184,"time_elapsed":1177330,"internal_node_id":"0.0-6.0-178.0"},{"sim_score":7,"rt":6305,"stimulus":"[\"img/0769/8598a429-c671-4d2f-842c-32f681f5e412.jpg\",\"img/0874/adf9a8f1-c40b-402b-b95b-1e85a54a7b62.jpg\"]","trial_type":"similarity","trial_index":185,"time_elapsed":1184676,"internal_node_id":"0.0-6.0-179.0"},{"sim_score":5,"rt":4334,"stimulus":"[\"img/0875/03c3c331-738b-4446-af92-3d7386b08c2e.jpg\",\"img/0881/33d65d80-8a8e-4ecf-852d-0ad7725c17a2.jpg\"]","trial_type":"similarity","trial_index":186,"time_elapsed":1190044,"internal_node_id":"0.0-6.0-180.0"},{"sim_score":7,"rt":5808,"stimulus":"[\"img/0866/0207e9a2-7dbb-40b5-9459-b472aaeceb2a.jpg\",\"img/0868/6a28c3b0-3d76-498a-9fb7-ddafc665eca8.jpg\"]","trial_type":"similarity","trial_index":187,"time_elapsed":1196894,"internal_node_id":"0.0-6.0-181.0"},{"sim_score":3,"rt":4286,"stimulus":"[\"img/0899/8de08897-b430-42fe-9d42-840670b80f94.jpg\",\"img/0758/d41c06bf-ebaf-454b-91c6-1a17f917b659.jpg\"]","trial_type":"similarity","trial_index":188,"time_elapsed":1202218,"internal_node_id":"0.0-6.0-182.0"},{"sim_score":1,"rt":4926,"stimulus":"[\"img/0874/99f6563c-8a8d-4c1c-a41d-667b618c3fd5.jpg\",\"img/0875/5a7c4e35-6514-4e12-8879-d16071da4cd6.jpg\"]","trial_type":"similarity","trial_index":189,"time_elapsed":1208183,"internal_node_id":"0.0-6.0-183.0"},{"sim_score":1,"rt":3053,"stimulus":"[\"img/0904/2fd488e9-960f-41f7-8a44-33375f7d5051.jpg\",\"img/0862/cdaed51d-9e2f-4807-801a-4663c40077e2.jpg\"]","trial_type":"similarity","trial_index":190,"time_elapsed":1212269,"internal_node_id":"0.0-6.0-184.0"},{"sim_score":1,"rt":3570,"stimulus":"[\"img/0902/e5a46bda-30d1-41ca-b36d-b8529b5a63d1.jpg\",\"img/0766/a1ed3f0f-e338-4a26-8fe4-4370f0c9fa6e.jpg\"]","trial_type":"similarity","trial_index":191,"time_elapsed":1216878,"internal_node_id":"0.0-6.0-185.0"},{"sim_score":2,"rt":3735,"stimulus":"[\"img/0758/ddc336e9-a8b6-4bb9-937a-c7e25e0e9250.jpg\",\"img/0769/ecda2fb3-556b-43ba-8a67-e87dd75ff2b4.jpg\"]","trial_type":"similarity","trial_index":192,"time_elapsed":1221663,"internal_node_id":"0.0-6.0-186.0"},{"sim_score":3,"rt":5866,"stimulus":"[\"img/0881/2a8413be-fec2-4de6-88ad-614dd4cccc9d.jpg\",\"img/0881/4da99fdd-1f40-4bbb-8e21-8833eef313f5.jpg\"]","trial_type":"similarity","trial_index":193,"time_elapsed":1228568,"internal_node_id":"0.0-6.0-187.0"},{"sim_score":1,"rt":3218,"stimulus":"[\"img/0758/7ee8bc8f-c40b-4b3a-84ec-3e83580622d4.jpg\",\"img/0866/07c9c966-3c8d-40e7-8128-92b2acbaed5d.jpg\"]","trial_type":"similarity","trial_index":194,"time_elapsed":1232817,"internal_node_id":"0.0-6.0-188.0"},{"sim_score":3,"rt":3247,"stimulus":"[\"img/0764/39a9fc7e-b863-432c-9374-de43983f31a5.jpg\",\"img/0898/a8f16b02-e19f-423b-86c3-a36562ae1f9b.jpg\"]","trial_type":"similarity","trial_index":195,"time_elapsed":1237106,"internal_node_id":"0.0-6.0-189.0"},{"sim_score":2,"rt":4028,"stimulus":"[\"img/0903/5ea5bbe0-f238-4724-abe7-9ed8dee8c0ba.jpg\",\"img/0901/f1116359-1ff1-4638-b3b3-700918d36d18.jpg\"]","trial_type":"similarity","trial_index":196,"time_elapsed":1242163,"internal_node_id":"0.0-6.0-190.0"},{"sim_score":7,"rt":3246,"stimulus":"[\"img/0902/82d20e8c-2162-47a6-925b-52906558c046.jpg\",\"img/0898/5f699581-3853-4547-856c-12f419ba5af7.jpg\"]","trial_type":"similarity","trial_index":197,"time_elapsed":1246451,"internal_node_id":"0.0-6.0-191.0"},{"sim_score":4,"rt":5942,"stimulus":"[\"img/0864/65210d57-1153-4657-886a-32e758f49b4a.jpg\",\"img/0901/d6d15b1c-4a30-4f74-a3fd-d4c8ee4169ca.jpg\"]","trial_type":"similarity","trial_index":198,"time_elapsed":1253420,"internal_node_id":"0.0-6.0-192.0"},{"sim_score":3,"rt":6472,"stimulus":"[\"img/0894/38f5931f-926d-414e-b498-66b188978b7a.jpg\",\"img/0881/f4e3e181-b3c9-4af2-a5a4-fc135ab70d2e.jpg\"]","trial_type":"similarity","trial_index":199,"time_elapsed":1260925,"internal_node_id":"0.0-6.0-193.0"},{"sim_score":7,"rt":3399,"stimulus":"[\"img/0868/83b4350a-3b70-4cea-b7f5-b5b56f3050a8.jpg\",\"img/0868/e0aff734-077f-40dd-9781-74821abd3621.jpg\"]","trial_type":"similarity","trial_index":200,"time_elapsed":1265358,"internal_node_id":"0.0-6.0-194.0"},{"sim_score":6,"rt":3825,"stimulus":"[\"img/0899/51a7a498-98c7-42d7-bca8-bc2d8f0b5831.jpg\",\"img/0764/23ea9375-f801-4a96-9925-7d453da887c7.jpg\"]","trial_type":"similarity","trial_index":201,"time_elapsed":1270215,"internal_node_id":"0.0-6.0-195.0"},{"sim_score":6,"rt":5157,"stimulus":"[\"img/0881/1407b85b-a1c6-45b1-9884-3b24203efadb.jpg\",\"img/0904/65e2b70a-b184-4da3-b5c0-5038bdf9469a.jpg\"]","trial_type":"similarity","trial_index":202,"time_elapsed":1276400,"internal_node_id":"0.0-6.0-196.0"},{"sim_score":5,"rt":4028,"stimulus":"[\"img/0864/f92649a2-0590-4d31-9a7a-1bfb81666a2d.jpg\",\"img/0902/62f11694-7ed7-4cb7-8a73-9e95c43824e7.jpg\"]","trial_type":"similarity","trial_index":203,"time_elapsed":1281465,"internal_node_id":"0.0-6.0-197.0"},{"sim_score":7,"rt":5206,"stimulus":"[\"img/0894/c505c65a-cde2-4f2c-8cde-f8676f7c894d.jpg\",\"img/0904/5cceabc9-de1d-4c67-989b-c28a4ef77e79.jpg\"]","trial_type":"similarity","trial_index":204,"time_elapsed":1287714,"internal_node_id":"0.0-6.0-198.0"},{"sim_score":7,"rt":4584,"stimulus":"[\"img/0901/71e551a2-9ce2-409c-9c7c-dd556a0791e9.jpg\",\"img/0901/4ca4f962-40c0-4c59-b14a-3cd7b8c9029b.jpg\"]","trial_type":"similarity","trial_index":205,"time_elapsed":1293331,"internal_node_id":"0.0-6.0-199.0"},{"sim_score":1,"rt":3622,"stimulus":"[\"img/0894/3664e04c-c6d3-4c9b-afb6-25d89974b174.jpg\",\"img/0860/8a92e21b-6a32-4e4a-a445-2d5a487ed0a4.jpg\"]","trial_type":"similarity","trial_index":206,"time_elapsed":1297987,"internal_node_id":"0.0-6.0-200.0"},{"sim_score":6,"rt":3647,"stimulus":"[\"img/0898/e167334e-cc1d-4986-b3b1-c7bc7da64baa.jpg\",\"img/0903/b0a3c45f-467e-412f-a183-c9c1827f2e63.jpg\"]","trial_type":"similarity","trial_index":207,"time_elapsed":1302676,"internal_node_id":"0.0-6.0-201.0"},{"sim_score":1,"rt":2471,"stimulus":"[\"img/0864/e02eddb5-f468-499c-91bf-f7be3ffe979b.jpg\",\"img/0894/5f15154e-e72e-4ce5-aafb-bce6f0564006.jpg\"]","trial_type":"similarity","trial_index":208,"time_elapsed":1306182,"internal_node_id":"0.0-6.0-202.0"},{"sim_score":1,"rt":3040,"stimulus":"[\"img/0874/85eb9b8a-c4c6-4e5a-b8e7-363a87a82054.jpg\",\"img/0860/5bff793e-cbd5-4d7e-b628-0ac2b0e30b64.jpg\"]","trial_type":"similarity","trial_index":209,"time_elapsed":1310262,"internal_node_id":"0.0-6.0-203.0"},{"sim_score":6,"rt":4233,"stimulus":"[\"img/0862/53a9cf7c-93c4-41b9-952f-07d17f7a17b2.jpg\",\"img/0875/fb732ab5-013a-4366-9f65-27811ed157e9.jpg\"]","trial_type":"similarity","trial_index":210,"time_elapsed":1315526,"internal_node_id":"0.0-6.0-204.0"},{"sim_score":1,"rt":2801,"stimulus":"[\"img/0867/075e0f95-856b-4cbb-acf5-092393aaf04e.jpg\",\"img/0881/633c6f40-56d9-4b48-bf1c-ecd83116eabb.jpg\"]","trial_type":"similarity","trial_index":211,"time_elapsed":1319367,"internal_node_id":"0.0-6.0-205.0"},{"sim_score":5,"rt":6139,"stimulus":"[\"img/0901/d61f267a-c492-4db6-9bfb-61efd49cf072.jpg\",\"img/0902/af45fe42-178c-4c1a-99ef-256e87e3b092.jpg\"]","trial_type":"similarity","trial_index":212,"time_elapsed":1326544,"internal_node_id":"0.0-6.0-206.0"},{"sim_score":7,"rt":3209,"stimulus":"[\"img/0899/06b0fc99-0581-461a-9913-d1a5a941ac61.jpg\",\"img/0864/300bb811-8b3c-4c42-8653-6097c3725197.jpg\"]","trial_type":"similarity","trial_index":213,"time_elapsed":1330792,"internal_node_id":"0.0-6.0-207.0"},{"sim_score":1,"rt":5304,"stimulus":"[\"img/0901/effc03f6-8f9d-46db-a66c-16fc83891c5c.jpg\",\"img/0769/d1be2815-fa79-46e8-b5c3-7d81caaca490.jpg\"]","trial_type":"similarity","trial_index":214,"time_elapsed":1337130,"internal_node_id":"0.0-6.0-208.0"},{"sim_score":6,"rt":3664,"stimulus":"[\"img/0902/b76efc44-a50f-4dac-b997-ff0222376067.jpg\",\"img/0902/3b243e54-0803-4c29-af42-4037c2118495.jpg\"]","trial_type":"similarity","trial_index":215,"time_elapsed":1344072,"internal_node_id":"0.0-6.0-209.0"},{"view_history":"[{\"page_index\":0,\"viewing_time\":6163}]","rt":6164,"trial_type":"instructions","trial_index":216,"time_elapsed":1351258,"internal_node_id":"0.0-7.0"},{"rt":24365,"responses":"{\"Q0\":\"Orange-crowned Warbler\"}","answer":["Nashville Warbler"],"trial_type":"image-multi-choice","trial_index":217,"time_elapsed":1376732,"internal_node_id":"0.0-8.0-0.0"},{"rt":4665,"responses":"{\"Q0\":\"Black-and-white Warbler\"}","answer":["Black-and-white Warbler"],"trial_type":"image-multi-choice","trial_index":218,"time_elapsed":1382483,"internal_node_id":"0.0-8.0-1.0"},{"rt":64422,"responses":"{\"Q0\":\"Blackburnian Warbler\"}","answer":["Townsend's Warbler"],"trial_type":"image-multi-choice","trial_index":219,"time_elapsed":1448008,"internal_node_id":"0.0-8.0-2.0"},{"rt":63537,"responses":"{\"Q0\":\"Lark Sparrow\"}","answer":["Lark Sparrow"],"trial_type":"image-multi-choice","trial_index":220,"time_elapsed":1512611,"internal_node_id":"0.0-8.0-3.0"},{"rt":186572,"responses":"{\"Q0\":\"Yellow Warbler\"}","answer":["Yellow Warbler"],"trial_type":"image-multi-choice","trial_index":221,"time_elapsed":1700273,"internal_node_id":"0.0-8.0-4.0"},{"rt":25195,"responses":"{\"Q0\":\"Orange-crowned Warbler\"}","answer":["Orange-crowned Warbler"],"trial_type":"image-multi-choice","trial_index":222,"time_elapsed":1726582,"internal_node_id":"0.0-8.0-5.0"},{"rt":8540,"responses":"{\"Q0\":\"White-throated Sparrow\"}","answer":["White-throated Sparrow"],"trial_type":"image-multi-choice","trial_index":223,"time_elapsed":1736208,"internal_node_id":"0.0-8.0-6.0"},{"rt":176894,"responses":"{\"Q0\":\"Fox Sparrow\"}","answer":["Fox Sparrow"],"trial_type":"image-multi-choice","trial_index":224,"time_elapsed":1914180,"internal_node_id":"0.0-8.0-7.0"},{"rt":205694,"responses":"{\"Q0\":\"Lincoln's Sparrow\"}","answer":["Song Sparrow"],"trial_type":"image-multi-choice","trial_index":225,"time_elapsed":2120990,"internal_node_id":"0.0-8.0-8.0"},{"rt":112553,"responses":"{\"Q0\":\"Blackburnian Warbler\"}","answer":["Blackburnian Warbler"],"trial_type":"image-multi-choice","trial_index":226,"time_elapsed":2234635,"internal_node_id":"0.0-8.0-9.0"},{"rt":52289,"responses":"{\"Q0\":\"Vesper Sparrow\"}","answer":["Vesper Sparrow"],"trial_type":"image-multi-choice","trial_index":227,"time_elapsed":2288019,"internal_node_id":"0.0-8.0-10.0"},{"rt":13893,"responses":"{\"Q0\":\"White-crowned Sparrow\"}","answer":["White-crowned Sparrow"],"trial_type":"image-multi-choice","trial_index":228,"time_elapsed":2303029,"internal_node_id":"0.0-8.0-11.0"},{"rt":99434,"responses":"{\"Q0\":\"Fox Sparrow\"}","answer":["American Tree Sparrow"],"trial_type":"image-multi-choice","trial_index":229,"time_elapsed":2403537,"internal_node_id":"0.0-8.0-12.0"},{"rt":72429,"responses":"{\"Q0\":\"Nashville Warbler\"}","answer":["Tennessee Warbler"],"trial_type":"image-multi-choice","trial_index":230,"time_elapsed":2477057,"internal_node_id":"0.0-8.0-13.0"},{"rt":15315,"responses":"{\"Q0\":\"Magnolia Warbler\"}","answer":["Magnolia Warbler"],"trial_type":"image-multi-choice","trial_index":231,"time_elapsed":2493476,"internal_node_id":"0.0-8.0-14.0"},{"rt":40360,"responses":"{\"Q0\":\"Northern Waterthrush\"}","answer":["Northern Waterthrush"],"trial_type":"image-multi-choice","trial_index":232,"time_elapsed":2534937,"internal_node_id":"0.0-8.0-15.0"},{"rt":8172,"responses":"{\"Q0\":\"Chipping Sparrow\"}","answer":["Chipping Sparrow"],"trial_type":"image-multi-choice","trial_index":233,"time_elapsed":2544219,"internal_node_id":"0.0-8.0-16.0"},{"rt":26078,"responses":"{\"Q0\":\"Vesper Sparrow\"}","answer":["Swamp Sparrow"],"trial_type":"image-multi-choice","trial_index":234,"time_elapsed":2571424,"internal_node_id":"0.0-8.0-17.0"},{"rt":8740,"responses":"{\"Q0\":\"Vesper Sparrow\"}","answer":["Lincoln's Sparrow"],"trial_type":"image-multi-choice","trial_index":235,"time_elapsed":2581250,"internal_node_id":"0.0-8.0-18.0"},{"rt":27610,"responses":"{\"Q0\":\"Ovenbird\"}","answer":["Ovenbird"],"trial_type":"image-multi-choice","trial_index":236,"time_elapsed":2609959,"internal_node_id":"0.0-8.0-19.0"}]