[{"view_history":"[{\"page_index\":0,\"viewing_time\":18547}]","rt":18548,"trial_type":"instructions","trial_index":0,"time_elapsed":18549,"internal_node_id":"0.0-0.0"},{"sim_score":5,"rt":8163,"stimulus":"[\"img/866.jpg\",\"img/868.jpg\"]","trial_type":"similarity_demo","trial_index":1,"time_elapsed":27725,"internal_node_id":"0.0-1.0"},{"view_history":"[{\"page_index\":0,\"viewing_time\":1863}]","rt":1865,"trial_type":"instructions","trial_index":2,"time_elapsed":30597,"internal_node_id":"0.0-2.0"},{"sim_score":4,"rt":6313,"stimulus":"[\"img/766.jpg\",\"img/867.jpg\"]","trial_type":"similarity_demo","trial_index":3,"time_elapsed":37916,"internal_node_id":"0.0-3.0"},{"view_history":"[{\"page_index\":0,\"viewing_time\":4526}]","rt":4526,"trial_type":"instructions","trial_index":4,"time_elapsed":43451,"internal_node_id":"0.0-4.0"},{"view_history":"[{\"page_index\":0,\"viewing_time\":49259}]","rt":49259,"trial_type":"instructions","trial_index":5,"time_elapsed":93732,"internal_node_id":"0.0-5.0"},{"sim_score":2,"rt":7307,"stimulus":"[\"img/0868/179a5502-ab5c-478e-8263-5a1fbcc101d2.jpg\",\"img/0901/0adb3bd6-d758-4ba7-9723-3ad6cac05bd5.jpg\"]","trial_type":"similarity","trial_index":6,"time_elapsed":102054,"internal_node_id":"0.0-6.0-0.0"},{"sim_score":2,"rt":7506,"stimulus":"[\"img/0769/3c1203c5-2ce7-466e-957a-8d77b5905460.jpg\",\"img/0867/aa05d113-fc19-4756-a8eb-7878f580bc92.jpg\"]","trial_type":"similarity","trial_index":7,"time_elapsed":110581,"internal_node_id":"0.0-6.0-1.0"},{"sim_score":6,"rt":4711,"stimulus":"[\"img/0766/d512b99c-a2dc-40d7-8e86-827323a0cbcf.jpg\",\"img/0898/0af304a2-6a7a-4082-ab7c-4450cd08cc58.jpg\"]","trial_type":"similarity","trial_index":8,"time_elapsed":116310,"internal_node_id":"0.0-6.0-2.0"},{"sim_score":7,"rt":3304,"stimulus":"[\"img/0902/94198618-7047-4dc9-ad04-85f4ba913067.jpg\",\"img/0881/6b1189e6-232d-4042-8885-16dc7b10e0d4.jpg\"]","trial_type":"similarity","trial_index":9,"time_elapsed":120621,"internal_node_id":"0.0-6.0-3.0"},{"sim_score":7,"rt":5470,"stimulus":"[\"img/0894/3664e04c-c6d3-4c9b-afb6-25d89974b174.jpg\",\"img/0894/0130a973-d993-41f8-874a-fee23d9ac11f.jpg\"]","trial_type":"similarity","trial_index":10,"time_elapsed":127109,"internal_node_id":"0.0-6.0-4.0"},{"sim_score":1,"rt":5800,"stimulus":"[\"img/0874/31e22c7c-99aa-40b1-bf03-dd73fa2df4d6.jpg\",\"img/0899/4f7bc593-8ddd-4da3-a0b9-84da730d3370.jpg\"]","trial_type":"similarity","trial_index":11,"time_elapsed":133925,"internal_node_id":"0.0-6.0-5.0"},{"sim_score":3,"rt":4692,"stimulus":"[\"img/0904/2c98dc56-88d1-4fb5-a999-b6a7861f65f0.jpg\",\"img/0764/8740679b-b56f-4292-aece-14063457113a.jpg\"]","trial_type":"similarity","trial_index":12,"time_elapsed":139630,"internal_node_id":"0.0-6.0-6.0"},{"sim_score":1,"rt":4311,"stimulus":"[\"img/0899/a05bea16-2bb4-4cb9-b8fb-4ff975db6971.jpg\",\"img/0898/881e2a85-d5c2-49be-a0c6-8a6ce2c4af08.jpg\"]","trial_type":"similarity","trial_index":13,"time_elapsed":144965,"internal_node_id":"0.0-6.0-7.0"},{"sim_score":2,"rt":6483,"stimulus":"[\"img/0874/767f289c-9814-4496-803f-745cc8913d1f.jpg\",\"img/0903/39365c8e-a733-4801-ac7d-b87e38c3784b.jpg\"]","trial_type":"similarity","trial_index":14,"time_elapsed":152461,"internal_node_id":"0.0-6.0-8.0"},{"sim_score":6,"rt":5523,"stimulus":"[\"img/0881/2a8413be-fec2-4de6-88ad-614dd4cccc9d.jpg\",\"img/0758/67c0be2f-9e91-48b3-8219-70ac0a1802fa.jpg\"]","trial_type":"similarity","trial_index":15,"time_elapsed":158997,"internal_node_id":"0.0-6.0-9.0"},{"sim_score":2,"rt":5067,"stimulus":"[\"img/0898/4184e5a2-84ea-4f36-9b42-ae58646f6f87.jpg\",\"img/0901/443f2e59-199b-4f7b-9de9-c44ad97326a5.jpg\"]","trial_type":"similarity","trial_index":16,"time_elapsed":165077,"internal_node_id":"0.0-6.0-10.0"},{"sim_score":3,"rt":8966,"stimulus":"[\"img/0903/8f7f9939-b8e6-433f-93dd-b362496c80a7.jpg\",\"img/0769/aad494cc-674d-4a08-9bfa-24a88ebe3c79.jpg\"]","trial_type":"similarity","trial_index":17,"time_elapsed":175053,"internal_node_id":"0.0-6.0-11.0"},{"sim_score":1,"rt":6059,"stimulus":"[\"img/0764/7f4ee8e3-9315-4a57-be7d-db8454b33766.jpg\",\"img/0868/83b4350a-3b70-4cea-b7f5-b5b56f3050a8.jpg\"]","trial_type":"similarity","trial_index":18,"time_elapsed":182133,"internal_node_id":"0.0-6.0-12.0"},{"sim_score":1,"rt":5980,"stimulus":"[\"img/0867/c66898ba-b71b-4d50-84f9-f7f84853a98d.jpg\",\"img/0903/5ea5bbe0-f238-4724-abe7-9ed8dee8c0ba.jpg\"]","trial_type":"similarity","trial_index":19,"time_elapsed":189117,"internal_node_id":"0.0-6.0-13.0"},{"sim_score":5,"rt":4368,"stimulus":"[\"img/0766/a754e4b6-5019-4cf4-8f58-34c20547a1f5.jpg\",\"img/0758/3ddd05d3-557e-4ee7-8b78-9d2d681d8ae2.jpg\"]","trial_type":"similarity","trial_index":20,"time_elapsed":194494,"internal_node_id":"0.0-6.0-14.0"},{"sim_score":4,"rt":4107,"stimulus":"[\"img/0902/511abb54-0094-4f4d-b6dc-3f2c97050521.jpg\",\"img/0860/c3379ff7-0763-48fe-a1ec-7ea3d611bc7a.jpg\"]","trial_type":"similarity","trial_index":21,"time_elapsed":199606,"internal_node_id":"0.0-6.0-15.0"},{"sim_score":3,"rt":7499,"stimulus":"[\"img/0769/e31b3bd8-efcb-413e-aa8c-75fac2b8f2ac.jpg\",\"img/0875/2e13d160-eea1-416b-aff1-d37ab99ecc1d.jpg\"]","trial_type":"similarity","trial_index":22,"time_elapsed":208117,"internal_node_id":"0.0-6.0-16.0"},{"sim_score":1,"rt":5690,"stimulus":"[\"img/0904/0d25eb24-bb20-4e8d-9787-8b489558b4cb.jpg\",\"img/0866/23a224f3-2012-4fc8-8e0f-3c36f8de27fd.jpg\"]","trial_type":"similarity","trial_index":23,"time_elapsed":214813,"internal_node_id":"0.0-6.0-17.0"},{"sim_score":6,"rt":6378,"stimulus":"[\"img/0875/527ced51-8e53-4aab-ab05-86df219104c0.jpg\",\"img/0875/90da8d75-108a-44ad-b999-e21fee3860d3.jpg\"]","trial_type":"similarity","trial_index":24,"time_elapsed":222197,"internal_node_id":"0.0-6.0-18.0"},{"sim_score":7,"rt":5195,"stimulus":"[\"img/0758/6e95579b-5166-487c-b8cb-e417c6a218e3.jpg\",\"img/0758/65d426d6-3ff6-415d-8654-a43b83ecc4fe.jpg\"]","trial_type":"similarity","trial_index":25,"time_elapsed":228413,"internal_node_id":"0.0-6.0-19.0"},{"sim_score":2,"rt":5407,"stimulus":"[\"img/0902/51493fab-2a10-4385-aa88-bee3db441626.jpg\",\"img/0874/a82926a3-0b43-4add-803c-d5f9ea7798ee.jpg\"]","trial_type":"similarity","trial_index":26,"time_elapsed":234828,"internal_node_id":"0.0-6.0-20.0"},{"sim_score":6,"rt":7799,"stimulus":"[\"img/0764/03c07b98-3f18-4b71-bb70-ecff564a78d1.jpg\",\"img/0769/d1be2815-fa79-46e8-b5c3-7d81caaca490.jpg\"]","trial_type":"similarity","trial_index":27,"time_elapsed":243644,"internal_node_id":"0.0-6.0-21.0"},{"sim_score":2,"rt":4548,"stimulus":"[\"img/0901/d61f267a-c492-4db6-9bfb-61efd49cf072.jpg\",\"img/0874/eba003b4-cdab-4eee-8bc3-f064c7d94165.jpg\"]","trial_type":"similarity","trial_index":28,"time_elapsed":249196,"internal_node_id":"0.0-6.0-22.0"},{"sim_score":3,"rt":8748,"stimulus":"[\"img/0875/d59ff733-eaff-4ee2-9443-06954dd0bcb6.jpg\",\"img/0903/f67c4ab9-f8c2-4fcd-848a-a54a7b031002.jpg\"]","trial_type":"similarity","trial_index":29,"time_elapsed":258955,"internal_node_id":"0.0-6.0-23.0"},{"sim_score":4,"rt":4656,"stimulus":"[\"img/0769/35364db7-e0d5-40ef-93dc-faf9dfb95136.jpg\",\"img/0881/344de456-b358-4887-bd0e-e4c3278af887.jpg\"]","trial_type":"similarity","trial_index":30,"time_elapsed":264620,"internal_node_id":"0.0-6.0-24.0"},{"sim_score":1,"rt":4333,"stimulus":"[\"img/0867/cc72ed48-7704-422c-86d6-467a1145287a.jpg\",\"img/0904/5cceabc9-de1d-4c67-989b-c28a4ef77e79.jpg\"]","trial_type":"similarity","trial_index":31,"time_elapsed":269972,"internal_node_id":"0.0-6.0-25.0"},{"sim_score":2,"rt":5282,"stimulus":"[\"img/0860/15b24a61-25be-4356-9eac-5ce95d0cb4a4.jpg\",\"img/0881/f7a8cc63-8842-40a4-9ff8-fe530310d62c.jpg\"]","trial_type":"similarity","trial_index":32,"time_elapsed":276260,"internal_node_id":"0.0-6.0-26.0"},{"sim_score":4,"rt":4960,"stimulus":"[\"img/0866/8efcaa46-83ab-4dee-a35f-850402aa21ae.jpg\",\"img/0866/11a1d141-be5e-443c-98c1-a9d4d9e3dec0.jpg\"]","trial_type":"similarity","trial_index":33,"time_elapsed":282236,"internal_node_id":"0.0-6.0-27.0"},{"sim_score":5,"rt":5351,"stimulus":"[\"img/0764/83c93cce-18d1-4aa7-9e23-2c268afe0a46.jpg\",\"img/0862/de9ad88c-b522-430a-8ee9-eb06a9f85df5.jpg\"]","trial_type":"similarity","trial_index":34,"time_elapsed":288596,"internal_node_id":"0.0-6.0-28.0"},{"sim_score":1,"rt":7590,"stimulus":"[\"img/0904/d23dd7be-7fe8-4435-82f7-bd592c01e6a1.jpg\",\"img/0758/a085b443-b5d7-4cb2-9ad4-b9dab0fc23f1.jpg\"]","trial_type":"similarity","trial_index":35,"time_elapsed":297196,"internal_node_id":"0.0-6.0-29.0"},{"sim_score":6,"rt":5636,"stimulus":"[\"img/0894/5c7677b0-a4f1-479e-b274-7822c415175a.jpg\",\"img/0899/56a605c3-d0a2-4215-89e1-779279d85a7c.jpg\"]","trial_type":"similarity","trial_index":36,"time_elapsed":303851,"internal_node_id":"0.0-6.0-30.0"},{"sim_score":5,"rt":6198,"stimulus":"[\"img/0860/8fdba999-b946-4c7d-9891-336018b563ef.jpg\",\"img/0904/6291eb43-c10c-4810-a36a-101d09868b04.jpg\"]","trial_type":"similarity","trial_index":37,"time_elapsed":311068,"internal_node_id":"0.0-6.0-31.0"},{"sim_score":6,"rt":5879,"stimulus":"[\"img/0874/29830da7-be5f-44e5-b141-652a0ccf7269.jpg\",\"img/0881/f8bd891e-aa09-4782-89db-33e7cb2b0cf1.jpg\"]","trial_type":"similarity","trial_index":38,"time_elapsed":317964,"internal_node_id":"0.0-6.0-32.0"},{"sim_score":4,"rt":6586,"stimulus":"[\"img/0881/f037e3b0-09cb-4a83-b2d9-6a71fe474e63.jpg\",\"img/0899/b45c550b-96c3-4255-ad59-48a2b4db1c1e.jpg\"]","trial_type":"similarity","trial_index":39,"time_elapsed":325555,"internal_node_id":"0.0-6.0-33.0"},{"sim_score":2,"rt":7338,"stimulus":"[\"img/0866/6f2a90d7-14f1-4f1b-bd64-fc0af6b9fe44.jpg\",\"img/0862/f43ceabf-acc1-4107-b857-5d1849808f93.jpg\"]","trial_type":"similarity","trial_index":40,"time_elapsed":333916,"internal_node_id":"0.0-6.0-34.0"},{"sim_score":4,"rt":4784,"stimulus":"[\"img/0868/09a9ef4d-d000-4cfa-a6aa-ebec7c2edeb4.jpg\",\"img/0894/76c1201f-8524-4865-85e6-dda8cb4ac986.jpg\"]","trial_type":"similarity","trial_index":41,"time_elapsed":339707,"internal_node_id":"0.0-6.0-35.0"},{"sim_score":7,"rt":6824,"stimulus":"[\"img/0860/4a022222-056d-461c-ab02-39fac9647552.jpg\",\"img/0860/18dfed73-e36b-4487-a8bd-0b8cff8e3668.jpg\"]","trial_type":"similarity","trial_index":42,"time_elapsed":347548,"internal_node_id":"0.0-6.0-36.0"},{"sim_score":2,"rt":7778,"stimulus":"[\"img/0862/ba89835a-408c-480b-8594-ed4ffa97eb5c.jpg\",\"img/0864/1ebbc554-99fa-49f9-8799-317375a79820.jpg\"]","trial_type":"similarity","trial_index":43,"time_elapsed":356334,"internal_node_id":"0.0-6.0-37.0"},{"sim_score":4,"rt":5800,"stimulus":"[\"img/0766/0bf3793e-c353-45e5-ac6f-753f5f484e10.jpg\",\"img/0866/07c9c966-3c8d-40e7-8128-92b2acbaed5d.jpg\"]","trial_type":"similarity","trial_index":44,"time_elapsed":363149,"internal_node_id":"0.0-6.0-38.0"},{"sim_score":1,"rt":5287,"stimulus":"[\"img/0875/f87b67d7-c33e-40d1-b281-248c4be1cb6e.jpg\",\"img/0898/a114b375-cb89-44ba-9498-74213f1ecdee.jpg\"]","trial_type":"similarity","trial_index":45,"time_elapsed":369445,"internal_node_id":"0.0-6.0-39.0"},{"sim_score":3,"rt":6117,"stimulus":"[\"img/0766/d14acac4-7db1-4b07-8f8f-302437326fc0.jpg\",\"img/0769/6c0bac4c-5f59-43c7-898c-3ca93cf55cfe.jpg\"]","trial_type":"similarity","trial_index":46,"time_elapsed":376572,"internal_node_id":"0.0-6.0-40.0"},{"sim_score":4,"rt":5667,"stimulus":"[\"img/0874/3f471690-9788-4d03-90c7-f615aecef149.jpg\",\"img/0764/3297a811-ea8b-4d74-9547-59cecab7293a.jpg\"]","trial_type":"similarity","trial_index":47,"time_elapsed":406956,"internal_node_id":"0.0-6.0-41.0"},{"sim_score":1,"rt":4773,"stimulus":"[\"img/0868/c8ac40c7-6904-4e13-8d61-c75d3052dc4e.jpg\",\"img/0902/82d20e8c-2162-47a6-925b-52906558c046.jpg\"]","trial_type":"similarity","trial_index":48,"time_elapsed":412749,"internal_node_id":"0.0-6.0-42.0"},{"sim_score":4,"rt":4406,"stimulus":"[\"img/0875/34132396-d896-4c2d-8087-646dd867e769.jpg\",\"img/0899/9de5e857-aa9a-4e0c-8ba2-46d79bd069a4.jpg\"]","trial_type":"similarity","trial_index":49,"time_elapsed":418164,"internal_node_id":"0.0-6.0-43.0"},{"sim_score":1,"rt":4282,"stimulus":"[\"img/0866/bf14b5bd-fb55-47db-86b9-4f8aeb9a6dad.jpg\",\"img/0860/17b44a7d-c5ca-479f-9e87-f65a64f5c80e.jpg\"]","trial_type":"similarity","trial_index":50,"time_elapsed":423452,"internal_node_id":"0.0-6.0-44.0"},{"sim_score":3,"rt":5640,"stimulus":"[\"img/0766/09f646c8-a69e-4ed3-879c-8d29b04ad7f9.jpg\",\"img/0903/f10e9eb5-0c21-4a6a-944c-5f10a6d0fa4d.jpg\"]","trial_type":"similarity","trial_index":51,"time_elapsed":430108,"internal_node_id":"0.0-6.0-45.0"},{"sim_score":3,"rt":6483,"stimulus":"[\"img/0901/da4fe30f-d12a-491e-96a2-5ab8ebaadd09.jpg\",\"img/0904/b7c2a2c8-df33-4473-b3d4-ff7147c60db3.jpg\"]","trial_type":"similarity","trial_index":52,"time_elapsed":437611,"internal_node_id":"0.0-6.0-46.0"},{"sim_score":4,"rt":5316,"stimulus":"[\"img/0758/eabcd7a8-56ad-4fd2-bc24-90f6b7b33265.jpg\",\"img/0902/5b45a7a0-81c8-4a71-aaa2-2ce09adb5a29.jpg\"]","trial_type":"similarity","trial_index":53,"time_elapsed":443947,"internal_node_id":"0.0-6.0-47.0"},{"sim_score":7,"rt":4939,"stimulus":"[\"img/0764/ca9829fe-aaf8-45b8-b98a-6bae751c63dd.jpg\",\"img/0764/e42c1dc9-7831-4995-be19-7ca7b4d141fc.jpg\"]","trial_type":"similarity","trial_index":54,"time_elapsed":449891,"internal_node_id":"0.0-6.0-48.0"},{"sim_score":1,"rt":3963,"stimulus":"[\"img/0866/4a87911a-d5be-4d4e-ab8e-3d1f581bf507.jpg\",\"img/0902/07437a16-3d0f-4a5c-89ec-36d0efa4b3b8.jpg\"]","trial_type":"similarity","trial_index":55,"time_elapsed":454859,"internal_node_id":"0.0-6.0-49.0"},{"sim_score":5,"rt":4650,"stimulus":"[\"img/0764/5c8fbafc-e62e-43ed-9b37-f73e8e45147d.jpg\",\"img/0758/dd559618-7f09-4a07-8018-d311c4a5ea29.jpg\"]","trial_type":"similarity","trial_index":56,"time_elapsed":460523,"internal_node_id":"0.0-6.0-50.0"},{"sim_score":4,"rt":3825,"stimulus":"[\"img/0898/81b08535-2020-4c15-9ce4-2f1e460755ae.jpg\",\"img/0894/4739e06d-c31e-4bf1-bf91-c97fa9afb456.jpg\"]","trial_type":"similarity","trial_index":57,"time_elapsed":465363,"internal_node_id":"0.0-6.0-51.0"},{"sim_score":4,"rt":4637,"stimulus":"[\"img/0875/dbdd643e-6d0e-4a5c-ab57-b9c29b9c981a.jpg\",\"img/0866/93a27239-8317-4e08-98ca-d8b1ff298e07.jpg\"]","trial_type":"similarity","trial_index":58,"time_elapsed":471011,"internal_node_id":"0.0-6.0-52.0"},{"sim_score":6,"rt":6036,"stimulus":"[\"img/0904/24fc38fe-842c-4831-ad8a-b1de5c25c0a8.jpg\",\"img/0904/4e58005d-a2ec-4aaa-b199-445343561396.jpg\"]","trial_type":"similarity","trial_index":59,"time_elapsed":478059,"internal_node_id":"0.0-6.0-53.0"},{"sim_score":7,"rt":4950,"stimulus":"[\"img/0769/662ab839-88d1-4ebf-af05-9b2980cad943.jpg\",\"img/0769/c34b7763-8ff2-46d5-9e92-f1d8f3bedbd8.jpg\"]","trial_type":"similarity","trial_index":60,"time_elapsed":484019,"internal_node_id":"0.0-6.0-54.0"},{"sim_score":4,"rt":6278,"stimulus":"[\"img/0898/01bfe666-3510-4fc7-964f-d00d28732dc8.jpg\",\"img/0758/d41c06bf-ebaf-454b-91c6-1a17f917b659.jpg\"]","trial_type":"similarity","trial_index":61,"time_elapsed":491316,"internal_node_id":"0.0-6.0-55.0"},{"sim_score":5,"rt":6076,"stimulus":"[\"img/0769/180213e5-1e50-4b4e-87b6-add77ba04d39.jpg\",\"img/0902/d1083f2c-5520-44ec-81a8-3f856fbf0e80.jpg\"]","trial_type":"similarity","trial_index":62,"time_elapsed":498412,"internal_node_id":"0.0-6.0-56.0"},{"sim_score":4,"rt":4300,"stimulus":"[\"img/0864/a248adb3-c70b-4652-b7a3-776d2a1e904b.jpg\",\"img/0881/c843e210-bdfe-4a7c-8bbe-fcea1f90fe1c.jpg\"]","trial_type":"similarity","trial_index":63,"time_elapsed":503723,"internal_node_id":"0.0-6.0-57.0"},{"sim_score":1,"rt":3874,"stimulus":"[\"img/0758/20497cbe-ddae-489e-86e2-ab06985ed07c.jpg\",\"img/0868/6a28c3b0-3d76-498a-9fb7-ddafc665eca8.jpg\"]","trial_type":"similarity","trial_index":64,"time_elapsed":508619,"internal_node_id":"0.0-6.0-58.0"},{"sim_score":4,"rt":4904,"stimulus":"[\"img/0862/4f0a3b4c-afbf-486e-b248-1d54982f54b4.jpg\",\"img/0769/878531fd-e0e8-4ad1-b9ad-f018bb104ca0.jpg\"]","trial_type":"similarity","trial_index":65,"time_elapsed":514540,"internal_node_id":"0.0-6.0-59.0"},{"sim_score":5,"rt":5801,"stimulus":"[\"img/0764/f9f890e6-3c2f-40cd-84e9-85e0b54cb28e.jpg\",\"img/0903/5248eedd-7e6a-4d39-91b0-06ec227f3ed0.jpg\"]","trial_type":"similarity","trial_index":66,"time_elapsed":521347,"internal_node_id":"0.0-6.0-60.0"},{"sim_score":6,"rt":5887,"stimulus":"[\"img/0899/06b0fc99-0581-461a-9913-d1a5a941ac61.jpg\",\"img/0899/ddf96ade-692e-4602-bd22-dedbb46401bc.jpg\"]","trial_type":"similarity","trial_index":67,"time_elapsed":528244,"internal_node_id":"0.0-6.0-61.0"},{"sim_score":2,"rt":6000,"stimulus":"[\"img/0860/c7047cd2-7cc1-41b6-8a34-c0986774975f.jpg\",\"img/0875/5a716432-c6ca-4b1c-955a-2b8ac25198ee.jpg\"]","trial_type":"similarity","trial_index":68,"time_elapsed":535260,"internal_node_id":"0.0-6.0-62.0"},{"sim_score":1,"rt":3938,"stimulus":"[\"img/0868/0d3abd3a-b6c3-4584-a9f7-e2da63748b3d.jpg\",\"img/0874/3ce41e7c-40c8-4d58-a546-171114521796.jpg\"]","trial_type":"similarity","trial_index":69,"time_elapsed":540213,"internal_node_id":"0.0-6.0-63.0"},{"sim_score":5,"rt":5218,"stimulus":"[\"img/0758/e38fd80d-18d0-42f3-b848-f930788e8bd7.jpg\",\"img/0862/92fcd8a4-8193-4a6a-ae09-dd4a6338b0df.jpg\"]","trial_type":"similarity","trial_index":70,"time_elapsed":546437,"internal_node_id":"0.0-6.0-64.0"},{"sim_score":6,"rt":5309,"stimulus":"[\"img/0904/1d10df11-b5c8-4370-9a6b-097a7f965895.jpg\",\"img/0898/8605a25b-6895-476d-8c13-df7a83f96093.jpg\"]","trial_type":"similarity","trial_index":71,"time_elapsed":552766,"internal_node_id":"0.0-6.0-65.0"},{"sim_score":1,"rt":4089,"stimulus":"[\"img/0881/e6746727-7f89-47ec-b939-d98abe78372d.jpg\",\"img/0866/386235d2-6857-41e7-88a8-25cfc3430025.jpg\"]","trial_type":"similarity","trial_index":72,"time_elapsed":557868,"internal_node_id":"0.0-6.0-66.0"},{"sim_score":1,"rt":4904,"stimulus":"[\"img/0867/bf560d4f-dee3-4f11-a385-705cc1aa5f3c.jpg\",\"img/0898/40f99fb2-64d2-4e72-8a7f-a1cf60741e69.jpg\"]","trial_type":"similarity","trial_index":73,"time_elapsed":563781,"internal_node_id":"0.0-6.0-67.0"},{"sim_score":5,"rt":5821,"stimulus":"[\"img/0902/c018bd7a-d91a-4192-aea4-7259cfcdb6c4.jpg\",\"img/0764/b887d7c6-aa81-4637-af8e-05135757ac59.jpg\"]","trial_type":"similarity","trial_index":74,"time_elapsed":570629,"internal_node_id":"0.0-6.0-68.0"},{"sim_score":7,"rt":4201,"stimulus":"[\"img/0875/5a7c4e35-6514-4e12-8879-d16071da4cd6.jpg\",\"img/0867/7d1c497b-c1b3-4ed8-abb5-d7f73306015f.jpg\"]","trial_type":"similarity","trial_index":75,"time_elapsed":575836,"internal_node_id":"0.0-6.0-69.0"},{"sim_score":7,"rt":5478,"stimulus":"[\"img/0766/d3bab2fc-ddcc-40a0-bb72-c0d0ebe19978.jpg\",\"img/0764/fb7d4a20-a475-465e-a74f-aa39a0d33d16.jpg\"]","trial_type":"similarity","trial_index":76,"time_elapsed":582325,"internal_node_id":"0.0-6.0-70.0"},{"sim_score":1,"rt":6569,"stimulus":"[\"img/0894/492d2f29-d7b9-4422-8be8-47fd58bfaa8b.jpg\",\"img/0867/5e07b34d-b40f-4b1c-ac10-49975bace45f.jpg\"]","trial_type":"similarity","trial_index":77,"time_elapsed":589908,"internal_node_id":"0.0-6.0-71.0"},{"sim_score":3,"rt":6568,"stimulus":"[\"img/0875/a4935837-7d3c-4df6-88c1-36a94d4991ca.jpg\",\"img/0764/a3226bc4-dcc3-4608-bde8-1414d685ce5c.jpg\"]","trial_type":"similarity","trial_index":78,"time_elapsed":597484,"internal_node_id":"0.0-6.0-72.0"},{"sim_score":6,"rt":7035,"stimulus":"[\"img/0867/db7e032f-162b-46f5-ae67-2b29679adee4.jpg\",\"img/0866/0207e9a2-7dbb-40b5-9459-b472aaeceb2a.jpg\"]","trial_type":"similarity","trial_index":79,"time_elapsed":605524,"internal_node_id":"0.0-6.0-73.0"},{"sim_score":4,"rt":4163,"stimulus":"[\"img/0903/59defeb8-98bd-4570-a2f8-9bd189e68ef4.jpg\",\"img/0758/7fba58df-2a7a-4b76-8a8f-62739f97f271.jpg\"]","trial_type":"similarity","trial_index":80,"time_elapsed":610700,"internal_node_id":"0.0-6.0-74.0"},{"sim_score":2,"rt":7329,"stimulus":"[\"img/0766/dd3e18d0-0c98-4d05-b850-69976ee8cd75.jpg\",\"img/0868/5fa7f9d0-f0e5-454c-8224-74d964818f56.jpg\"]","trial_type":"similarity","trial_index":81,"time_elapsed":619044,"internal_node_id":"0.0-6.0-75.0"},{"sim_score":5,"rt":5795,"stimulus":"[\"img/0874/bf14b896-e930-4fd9-9c05-2e83317a2773.jpg\",\"img/0766/006035d8-c736-4daf-bbe4-a9e373af9da6.jpg\"]","trial_type":"similarity","trial_index":82,"time_elapsed":625852,"internal_node_id":"0.0-6.0-76.0"},{"sim_score":1,"rt":5205,"stimulus":"[\"img/0881/c24f3051-eefa-42de-aba6-fccb56d93c70.jpg\",\"img/0868/4e626425-63c8-484a-8a1d-e66ee4e0bef8.jpg\"]","trial_type":"similarity","trial_index":83,"time_elapsed":632077,"internal_node_id":"0.0-6.0-77.0"},{"sim_score":2,"rt":5712,"stimulus":"[\"img/0758/caa93da2-9edf-49fa-96b9-32dedd8f5078.jpg\",\"img/0901/875dedb9-24c9-4443-9f8c-85e97d70ee5a.jpg\"]","trial_type":"similarity","trial_index":84,"time_elapsed":638796,"internal_node_id":"0.0-6.0-78.0"},{"sim_score":4,"rt":3642,"stimulus":"[\"img/0881/ed4c971f-0873-4fc8-b6d6-e8bbd82f0bcc.jpg\",\"img/0898/6cd3830b-d44e-4915-be2b-88d31424b91c.jpg\"]","trial_type":"similarity","trial_index":85,"time_elapsed":643463,"internal_node_id":"0.0-6.0-79.0"},{"sim_score":1,"rt":5450,"stimulus":"[\"img/0867/075e0f95-856b-4cbb-acf5-092393aaf04e.jpg\",\"img/0758/61d64021-9214-4951-bdf8-f871f9827cf9.jpg\"]","trial_type":"similarity","trial_index":86,"time_elapsed":649926,"internal_node_id":"0.0-6.0-80.0"},{"sim_score":5,"rt":5612,"stimulus":"[\"img/0769/1afb527f-9887-428c-bd26-a12c2f9efb68.jpg\",\"img/0899/51a7a498-98c7-42d7-bca8-bc2d8f0b5831.jpg\"]","trial_type":"similarity","trial_index":87,"time_elapsed":656558,"internal_node_id":"0.0-6.0-81.0"},{"sim_score":6,"rt":5361,"stimulus":"[\"img/0903/47e39de8-6959-469f-8be9-6999a6db207c.jpg\",\"img/0903/07b445ee-0cdb-4d2c-a23b-d727613f4059.jpg\"]","trial_type":"similarity","trial_index":88,"time_elapsed":662932,"internal_node_id":"0.0-6.0-82.0"},{"sim_score":5,"rt":5122,"stimulus":"[\"img/0867/f26f6b60-f772-4f4c-95a4-addc62cfd692.jpg\",\"img/0766/2da002a4-05c9-4f5c-9ed7-433b4183e273.jpg\"]","trial_type":"similarity","trial_index":89,"time_elapsed":680891,"internal_node_id":"0.0-6.0-83.0"},{"sim_score":1,"rt":5421,"stimulus":"[\"img/0902/7f1dcd35-237a-4995-9e42-7f63f3f434d4.jpg\",\"img/0867/c71dc569-f49c-4397-8381-68b8d726736d.jpg\"]","trial_type":"similarity","trial_index":90,"time_elapsed":687317,"internal_node_id":"0.0-6.0-84.0"},{"sim_score":3,"rt":4392,"stimulus":"[\"img/0901/a6c90438-fa7c-4418-ac7c-16c2e772dd98.jpg\",\"img/0875/2c361b79-c3d1-4eda-812e-bf03192407bf.jpg\"]","trial_type":"similarity","trial_index":91,"time_elapsed":692716,"internal_node_id":"0.0-6.0-85.0"},{"sim_score":4,"rt":4444,"stimulus":"[\"img/0764/978aede9-4590-4ad0-b234-135c83e5d669.jpg\",\"img/0866/d493a2c8-66eb-44b4-be02-2f327b700b7c.jpg\"]","trial_type":"similarity","trial_index":92,"time_elapsed":698172,"internal_node_id":"0.0-6.0-86.0"},{"sim_score":4,"rt":4172,"stimulus":"[\"img/0901/a6776381-91fe-43f8-ab73-261d318f95fd.jpg\",\"img/0894/7dd6ff43-f8fc-408a-8a41-a2b261871820.jpg\"]","trial_type":"similarity","trial_index":93,"time_elapsed":703356,"internal_node_id":"0.0-6.0-87.0"},{"sim_score":5,"rt":4795,"stimulus":"[\"img/0898/08c72dac-f8ad-407a-9ce6-8c9a5d679c3a.jpg\",\"img/0769/e8ed913b-8a88-44f6-9327-d34afec3116b.jpg\"]","trial_type":"similarity","trial_index":94,"time_elapsed":709159,"internal_node_id":"0.0-6.0-88.0"},{"sim_score":6,"rt":4948,"stimulus":"[\"img/0769/9ea9ceb6-049e-4ad9-be8f-00645cd35803.jpg\",\"img/0894/2d2db7b3-e8a3-499b-b63a-14f51bf73882.jpg\"]","trial_type":"similarity","trial_index":95,"time_elapsed":715124,"internal_node_id":"0.0-6.0-89.0"},{"sim_score":2,"rt":6331,"stimulus":"[\"img/0862/064818ee-13d5-4618-bb24-21c7368ea278.jpg\",\"img/0874/ca76a855-4e77-4f2f-872a-0a718153e7ed.jpg\"]","trial_type":"similarity","trial_index":96,"time_elapsed":722463,"internal_node_id":"0.0-6.0-90.0"},{"sim_score":5,"rt":5804,"stimulus":"[\"img/0894/792c83e9-a747-4000-bc72-5663d2439edb.jpg\",\"img/0766/717fd72f-a281-499b-a5ba-5e2ecc4d4866.jpg\"]","trial_type":"similarity","trial_index":97,"time_elapsed":729276,"internal_node_id":"0.0-6.0-91.0"},{"sim_score":1,"rt":5904,"stimulus":"[\"img/0874/a3bc679d-619f-4db6-bb68-116dcb757d9c.jpg\",\"img/0867/de92135f-5b65-4ed9-b245-188292c7c2f8.jpg\"]","trial_type":"similarity","trial_index":98,"time_elapsed":736196,"internal_node_id":"0.0-6.0-92.0"},{"sim_score":1,"rt":5402,"stimulus":"[\"img/0899/0adc0bc3-6fca-4078-be6f-d45ddf1653d5.jpg\",\"img/0868/fd307a36-9a3a-47d7-ab7c-f810d0b35040.jpg\"]","trial_type":"similarity","trial_index":99,"time_elapsed":742604,"internal_node_id":"0.0-6.0-93.0"},{"sim_score":6,"rt":3860,"stimulus":"[\"img/0903/72197c2b-403e-4a26-b391-f1aa8dea4b76.jpg\",\"img/0862/7918ca67-5bd3-4606-a5ea-c39fb11a9297.jpg\"]","trial_type":"similarity","trial_index":100,"time_elapsed":747469,"internal_node_id":"0.0-6.0-94.0"},{"sim_score":2,"rt":5226,"stimulus":"[\"img/0899/7f9d45d0-b2c6-40d3-aa41-c207db2c411b.jpg\",\"img/0766/110832e5-2646-4bd0-a94e-5df8cc314269.jpg\"]","trial_type":"similarity","trial_index":101,"time_elapsed":753701,"internal_node_id":"0.0-6.0-95.0"},{"sim_score":6,"rt":5522,"stimulus":"[\"img/0867/98d8cd96-1476-4fe0-a3a3-04f875500a1b.jpg\",\"img/0868/1a62b2b2-18f5-466e-b564-5176a57c565e.jpg\"]","trial_type":"similarity","trial_index":102,"time_elapsed":760230,"internal_node_id":"0.0-6.0-96.0"},{"sim_score":6,"rt":5108,"stimulus":"[\"img/0862/e8cc3bdf-cc43-4565-bccf-492626c70953.jpg\",\"img/0901/148b747a-7392-437e-8823-33053c5dff3f.jpg\"]","trial_type":"similarity","trial_index":103,"time_elapsed":766347,"internal_node_id":"0.0-6.0-97.0"},{"sim_score":3,"rt":6722,"stimulus":"[\"img/0875/5a1e5100-0d94-4fec-bbe9-ca9894d2cf8e.jpg\",\"img/0766/71b81ebd-0937-4d7f-b8bf-c4e46a4728fd.jpg\"]","trial_type":"similarity","trial_index":104,"time_elapsed":774076,"internal_node_id":"0.0-6.0-98.0"},{"sim_score":4,"rt":4158,"stimulus":"[\"img/0758/d540bee6-b460-4c32-ac57-bc282742d7d4.jpg\",\"img/0874/adf9a8f1-c40b-402b-b95b-1e85a54a7b62.jpg\"]","trial_type":"similarity","trial_index":105,"time_elapsed":779269,"internal_node_id":"0.0-6.0-99.0"},{"sim_score":5,"rt":4776,"stimulus":"[\"img/0904/60d1a521-edf7-4696-9263-f21ac0e62a01.jpg\",\"img/0868/d6d1f30d-4323-435a-b194-7892521bc57e.jpg\"]","trial_type":"similarity","trial_index":106,"time_elapsed":785052,"internal_node_id":"0.0-6.0-100.0"},{"sim_score":1,"rt":4995,"stimulus":"[\"img/0903/0a92ec52-4e87-410a-857a-4455cde56a70.jpg\",\"img/0866/945c6710-d15b-4a5b-a8f6-69af0850357f.jpg\"]","trial_type":"similarity","trial_index":107,"time_elapsed":791053,"internal_node_id":"0.0-6.0-101.0"},{"sim_score":2,"rt":4697,"stimulus":"[\"img/0868/293079b8-7e0c-4afd-a390-1e5d35fe3ded.jpg\",\"img/0769/db94b61b-a5a7-4861-9d32-7b02ad194fb0.jpg\"]","trial_type":"similarity","trial_index":108,"time_elapsed":796772,"internal_node_id":"0.0-6.0-102.0"},{"sim_score":5,"rt":6527,"stimulus":"[\"img/0902/ca3160ba-ad5d-459f-a1b6-8b4f3c85ecd5.jpg\",\"img/0899/57476fed-5962-4272-8fc9-b317bb777b54.jpg\"]","trial_type":"similarity","trial_index":109,"time_elapsed":804304,"internal_node_id":"0.0-6.0-103.0"},{"sim_score":1,"rt":6141,"stimulus":"[\"img/0868/7b212364-ff5f-4e28-9241-7eb6ea00161b.jpg\",\"img/0862/cdaed51d-9e2f-4807-801a-4663c40077e2.jpg\"]","trial_type":"similarity","trial_index":110,"time_elapsed":811452,"internal_node_id":"0.0-6.0-104.0"},{"sim_score":2,"rt":5612,"stimulus":"[\"img/0903/31b5a5f4-b695-4af1-bad2-a19650a05498.jpg\",\"img/0894/6b2e9509-8699-42b7-9582-7741df0ba2d7.jpg\"]","trial_type":"similarity","trial_index":111,"time_elapsed":818068,"internal_node_id":"0.0-6.0-105.0"},{"sim_score":6,"rt":4583,"stimulus":"[\"img/0864/9b2490c5-a282-400a-9736-e1a0ecbf1cb7.jpg\",\"img/0874/85eb9b8a-c4c6-4e5a-b8e7-363a87a82054.jpg\"]","trial_type":"similarity","trial_index":112,"time_elapsed":823668,"internal_node_id":"0.0-6.0-106.0"},{"sim_score":4,"rt":3351,"stimulus":"[\"img/0862/57b6f83f-c763-4858-830d-102f97bfefbf.jpg\",\"img/0902/30c420f5-c714-4681-ae5a-c0ba8f636a26.jpg\"]","trial_type":"similarity","trial_index":113,"time_elapsed":828028,"internal_node_id":"0.0-6.0-107.0"},{"sim_score":5,"rt":5970,"stimulus":"[\"img/0904/4d7d70a3-9477-4921-bda0-f9531d0a5c5b.jpg\",\"img/0903/f1fa0f8d-e62b-4b4a-a174-31a0fabfe61b.jpg\"]","trial_type":"similarity","trial_index":114,"time_elapsed":835004,"internal_node_id":"0.0-6.0-108.0"},{"sim_score":5,"rt":6021,"stimulus":"[\"img/0764/958b8576-3a3b-4acc-96dc-06b74de69f37.jpg\",\"img/0864/65210d57-1153-4657-886a-32e758f49b4a.jpg\"]","trial_type":"similarity","trial_index":115,"time_elapsed":842036,"internal_node_id":"0.0-6.0-109.0"},{"sim_score":6,"rt":5694,"stimulus":"[\"img/0866/620cd1aa-0800-4414-8f6e-90342e7a99ad.jpg\",\"img/0894/10f22b96-040c-44f4-950b-a4963f3f506c.jpg\"]","trial_type":"similarity","trial_index":116,"time_elapsed":848748,"internal_node_id":"0.0-6.0-110.0"},{"sim_score":4,"rt":4595,"stimulus":"[\"img/0899/ad8268c5-8199-48d0-ad70-c5b6d6c599ec.jpg\",\"img/0903/71dbc325-b588-4297-a5cf-7f268a722ad9.jpg\"]","trial_type":"similarity","trial_index":117,"time_elapsed":854348,"internal_node_id":"0.0-6.0-111.0"},{"sim_score":6,"rt":4446,"stimulus":"[\"img/0902/d49743d6-67ae-4c2e-a939-8fd895a0f18e.jpg\",\"img/0904/696ebb60-8891-417a-91fd-c53218907a95.jpg\"]","trial_type":"similarity","trial_index":118,"time_elapsed":859804,"internal_node_id":"0.0-6.0-112.0"},{"sim_score":4,"rt":5440,"stimulus":"[\"img/0864/da39ad34-04e0-40d4-a724-c08d53e0ea09.jpg\",\"img/0860/c47fdead-eb02-4989-b078-26f4852f44fe.jpg\"]","trial_type":"similarity","trial_index":119,"time_elapsed":866269,"internal_node_id":"0.0-6.0-113.0"},{"sim_score":4,"rt":3970,"stimulus":"[\"img/0860/9593362c-9fe5-4d12-9735-6000a11f6aa5.jpg\",\"img/0899/66bf4113-ee12-426c-84d2-ea410b6c803e.jpg\"]","trial_type":"similarity","trial_index":120,"time_elapsed":871260,"internal_node_id":"0.0-6.0-114.0"},{"sim_score":3,"rt":5839,"stimulus":"[\"img/0881/e046471a-35b4-4159-bbf7-3cfd201bef66.jpg\",\"img/0903/8c358e9e-a4f4-466e-8b93-7aec0d2358e8.jpg\"]","trial_type":"similarity","trial_index":121,"time_elapsed":878116,"internal_node_id":"0.0-6.0-115.0"},{"sim_score":5,"rt":5602,"stimulus":"[\"img/0894/e2446cf5-cd48-486a-badc-76498e087fbe.jpg\",\"img/0874/2c9464dd-8a23-4baa-ac94-1ba3af5c15cc.jpg\"]","trial_type":"similarity","trial_index":122,"time_elapsed":884741,"internal_node_id":"0.0-6.0-116.0"},{"sim_score":4,"rt":4352,"stimulus":"[\"img/0881/0c7068da-d0d9-4103-bda1-74ef7a2b32c3.jpg\",\"img/0862/847e5208-38ec-4f36-949c-296cdd7424ee.jpg\"]","trial_type":"similarity","trial_index":123,"time_elapsed":890100,"internal_node_id":"0.0-6.0-117.0"},{"sim_score":3,"rt":5069,"stimulus":"[\"img/0868/77091fc7-a590-4ebb-b915-fdb2483a2399.jpg\",\"img/0875/ebf7653f-ff45-4e9f-af58-2c042ab3cd2b.jpg\"]","trial_type":"similarity","trial_index":124,"time_elapsed":896188,"internal_node_id":"0.0-6.0-118.0"},{"sim_score":4,"rt":5451,"stimulus":"[\"img/0860/8a92e21b-6a32-4e4a-a445-2d5a487ed0a4.jpg\",\"img/0758/e1ba5e53-addc-436a-b428-d34fc1b130dc.jpg\"]","trial_type":"similarity","trial_index":125,"time_elapsed":902644,"internal_node_id":"0.0-6.0-119.0"},{"sim_score":1,"rt":4449,"stimulus":"[\"img/0864/6f631579-acf1-415c-a42c-1207f62a8d99.jpg\",\"img/0875/42910c99-5463-450a-a0f8-d4d060a11455.jpg\"]","trial_type":"similarity","trial_index":126,"time_elapsed":908102,"internal_node_id":"0.0-6.0-120.0"},{"sim_score":1,"rt":5780,"stimulus":"[\"img/0898/ec565187-2e31-4fdd-9a5c-153d0c789ae0.jpg\",\"img/0866/a15b02be-11bb-43e3-b0e0-ecc3bd7dfc49.jpg\"]","trial_type":"similarity","trial_index":127,"time_elapsed":914901,"internal_node_id":"0.0-6.0-121.0"},{"sim_score":3,"rt":5273,"stimulus":"[\"img/0874/995f0332-0439-4eb4-add3-957335dbf6d9.jpg\",\"img/0904/65e2b70a-b184-4da3-b5c0-5038bdf9469a.jpg\"]","trial_type":"similarity","trial_index":128,"time_elapsed":921180,"internal_node_id":"0.0-6.0-122.0"},{"sim_score":2,"rt":6137,"stimulus":"[\"img/0904/25365108-e038-4021-aac9-797f2063b337.jpg\",\"img/0864/ef9cbca0-4be8-435d-ad49-977259e80409.jpg\"]","trial_type":"similarity","trial_index":129,"time_elapsed":928324,"internal_node_id":"0.0-6.0-123.0"},{"sim_score":6,"rt":4837,"stimulus":"[\"img/0894/05161000-f476-499b-a878-c13c7f347fd9.jpg\",\"img/0902/4e0baa32-988e-46f6-989d-f669225ab645.jpg\"]","trial_type":"similarity","trial_index":130,"time_elapsed":934164,"internal_node_id":"0.0-6.0-124.0"},{"sim_score":1,"rt":5067,"stimulus":"[\"img/0868/3a62db2d-97e9-44a3-b8e3-a48c6f0e423b.jpg\",\"img/0864/87c467d3-abca-482f-ad80-3766c21b1bb3.jpg\"]","trial_type":"similarity","trial_index":131,"time_elapsed":949140,"internal_node_id":"0.0-6.0-125.0"},{"sim_score":4,"rt":7187,"stimulus":"[\"img/0899/565ccdd9-0933-4536-a625-3c0e25a713dd.jpg\",\"img/0866/c446214b-a368-4c65-ae39-ea46894256ab.jpg\"]","trial_type":"similarity","trial_index":132,"time_elapsed":957365,"internal_node_id":"0.0-6.0-126.0"},{"sim_score":5,"rt":3876,"stimulus":"[\"img/0875/03c3c331-738b-4446-af92-3d7386b08c2e.jpg\",\"img/0904/06dacdc5-2206-4fb8-92b7-88042d22833c.jpg\"]","trial_type":"similarity","trial_index":133,"time_elapsed":962252,"internal_node_id":"0.0-6.0-127.0"},{"sim_score":2,"rt":6539,"stimulus":"[\"img/0867/a749dddb-69f0-44a6-acdc-2bf295cf6dcc.jpg\",\"img/0899/7b7380d5-d2be-44e5-a09a-c1756f87ef71.jpg\"]","trial_type":"similarity","trial_index":134,"time_elapsed":969804,"internal_node_id":"0.0-6.0-128.0"},{"sim_score":5,"rt":5060,"stimulus":"[\"img/0901/168eb52c-c415-43f1-b5c8-e76e1a1ec247.jpg\",\"img/0867/2e1a0b58-cdb1-4107-a14e-452530d7b9b0.jpg\"]","trial_type":"similarity","trial_index":135,"time_elapsed":975884,"internal_node_id":"0.0-6.0-129.0"},{"sim_score":2,"rt":8321,"stimulus":"[\"img/0864/b3c4e378-28f0-4699-9338-2a257b4bca04.jpg\",\"img/0769/458d9c77-b844-40b5-bb1b-1e3bbd4da64e.jpg\"]","trial_type":"similarity","trial_index":136,"time_elapsed":985228,"internal_node_id":"0.0-6.0-130.0"},{"sim_score":2,"rt":6212,"stimulus":"[\"img/0903/b7e3723f-fd03-4f3d-8820-f19496463a34.jpg\",\"img/0868/15dd6fd7-791e-4b53-b203-195d617521a4.jpg\"]","trial_type":"similarity","trial_index":137,"time_elapsed":992460,"internal_node_id":"0.0-6.0-131.0"},{"sim_score":1,"rt":5346,"stimulus":"[\"img/0864/3651d070-2fc5-4848-b6a6-088a2d9ac5c9.jpg\",\"img/0867/1719a35d-f085-48c0-9099-16c94fe418b4.jpg\"]","trial_type":"similarity","trial_index":138,"time_elapsed":998820,"internal_node_id":"0.0-6.0-132.0"},{"sim_score":6,"rt":4384,"stimulus":"[\"img/0901/f1116359-1ff1-4638-b3b3-700918d36d18.jpg\",\"img/0860/61fb959d-d4d9-4de4-9e4e-4fa62b4cfcd5.jpg\"]","trial_type":"similarity","trial_index":139,"time_elapsed":1004220,"internal_node_id":"0.0-6.0-133.0"},{"sim_score":6,"rt":4737,"stimulus":"[\"img/0881/db77fe00-aeb0-4d1d-aa66-f3a96fd077e4.jpg\",\"img/0766/d919cedb-f9b7-4f30-83bb-3e9c65001ceb.jpg\"]","trial_type":"similarity","trial_index":140,"time_elapsed":1009972,"internal_node_id":"0.0-6.0-134.0"},{"sim_score":6,"rt":5171,"stimulus":"[\"img/0903/647ce311-8c71-479a-8361-961db1457139.jpg\",\"img/0864/0116ca98-293d-4fa6-a93b-5a6144ef64cc.jpg\"]","trial_type":"similarity","trial_index":141,"time_elapsed":1016148,"internal_node_id":"0.0-6.0-135.0"},{"sim_score":4,"rt":4093,"stimulus":"[\"img/0758/b76ceca7-95ac-46e4-ac13-da02c8e93be9.jpg\",\"img/0894/9b1333fd-3561-43bf-aee5-99b7b7ca3dc3.jpg\"]","trial_type":"similarity","trial_index":142,"time_elapsed":1021260,"internal_node_id":"0.0-6.0-136.0"},{"sim_score":5,"rt":6094,"stimulus":"[\"img/0769/057eb0a0-aa5b-40c7-9852-21444f68d767.jpg\",\"img/0860/8277806e-b684-4474-8f7b-3fca946d7d4f.jpg\"]","trial_type":"similarity","trial_index":143,"time_elapsed":1028363,"internal_node_id":"0.0-6.0-137.0"},{"sim_score":3,"rt":8611,"stimulus":"[\"img/0904/73920552-103b-4c9c-9ece-e0b8376b4504.jpg\",\"img/0766/0025de5e-f620-4079-8a0f-00326ff3a6b0.jpg\"]","trial_type":"similarity","trial_index":144,"time_elapsed":1037980,"internal_node_id":"0.0-6.0-138.0"},{"sim_score":2,"rt":5763,"stimulus":"[\"img/0868/4bd5105a-d2c3-4f82-8c80-57196106ba53.jpg\",\"img/0860/702bd09d-df3a-40aa-a267-5f04474305b5.jpg\"]","trial_type":"similarity","trial_index":145,"time_elapsed":1044748,"internal_node_id":"0.0-6.0-139.0"},{"sim_score":7,"rt":4858,"stimulus":"[\"img/0758/f61ecdf8-a7d4-4db0-b84d-be46f7cfaffc.jpg\",\"img/0864/c3b63e8f-ea39-4d70-a1f2-b3fe4be8eb75.jpg\"]","trial_type":"similarity","trial_index":146,"time_elapsed":1050611,"internal_node_id":"0.0-6.0-140.0"},{"sim_score":7,"rt":3789,"stimulus":"[\"img/0867/85a96c62-548f-4994-9553-819e03c3135a.jpg\",\"img/0867/179ab87a-8eac-4c52-a41f-2e48e3120f09.jpg\"]","trial_type":"similarity","trial_index":147,"time_elapsed":1055420,"internal_node_id":"0.0-6.0-141.0"},{"sim_score":6,"rt":5557,"stimulus":"[\"img/0898/993d8f2d-bef7-4251-a193-0f93a32b7763.jpg\",\"img/0898/661621d4-a14e-487c-8c74-354134a29710.jpg\"]","trial_type":"similarity","trial_index":148,"time_elapsed":1061980,"internal_node_id":"0.0-6.0-142.0"},{"sim_score":3,"rt":6354,"stimulus":"[\"img/0866/f756f7d1-9ad8-4a34-9ef6-7a443d705bfe.jpg\",\"img/0769/75f7e514-0548-4329-b1e4-93c05e74f038.jpg\"]","trial_type":"similarity","trial_index":149,"time_elapsed":1069340,"internal_node_id":"0.0-6.0-143.0"},{"sim_score":1,"rt":5513,"stimulus":"[\"img/0860/4c530c3c-6aab-492a-94d1-9c01797bde40.jpg\",\"img/0898/0c7dde4f-efce-4b7a-9387-6921635b7890.jpg\"]","trial_type":"similarity","trial_index":150,"time_elapsed":1075860,"internal_node_id":"0.0-6.0-144.0"},{"sim_score":2,"rt":4832,"stimulus":"[\"img/0766/ae0fce93-fe8d-4aa1-87ca-4c3e4b889f2f.jpg\",\"img/0864/5f74a653-3bdc-4308-8cca-ac667dc22e1f.jpg\"]","trial_type":"similarity","trial_index":151,"time_elapsed":1081699,"internal_node_id":"0.0-6.0-145.0"},{"sim_score":6,"rt":5000,"stimulus":"[\"img/0860/e8b8c51e-1834-4875-8b61-6c5bc9b178bd.jpg\",\"img/0903/8931c67c-a43d-47d3-a4c9-42aa2f81d344.jpg\"]","trial_type":"similarity","trial_index":152,"time_elapsed":1087707,"internal_node_id":"0.0-6.0-146.0"},{"sim_score":5,"rt":7150,"stimulus":"[\"img/0867/8ba0c5a7-c7e4-42cf-a80a-543763b90779.jpg\",\"img/0764/c01e2d65-6586-441b-bef5-3c96fcd85380.jpg\"]","trial_type":"similarity","trial_index":153,"time_elapsed":1095875,"internal_node_id":"0.0-6.0-147.0"},{"sim_score":7,"rt":4981,"stimulus":"[\"img/0769/ecda2fb3-556b-43ba-8a67-e87dd75ff2b4.jpg\",\"img/0904/96e503ea-6630-4996-85f2-0237688ce441.jpg\"]","trial_type":"similarity","trial_index":154,"time_elapsed":1101867,"internal_node_id":"0.0-6.0-148.0"},{"sim_score":5,"rt":4908,"stimulus":"[\"img/0764/55b3fab1-b809-4d38-a461-3f40ce062f52.jpg\",\"img/0901/effc03f6-8f9d-46db-a66c-16fc83891c5c.jpg\"]","trial_type":"similarity","trial_index":155,"time_elapsed":1107794,"internal_node_id":"0.0-6.0-149.0"},{"sim_score":6,"rt":5704,"stimulus":"[\"img/0904/da170c1b-9651-4f08-b231-2bdd1d9a046f.jpg\",\"img/0899/1b3457ea-87d4-4946-a01c-aac1863ed46c.jpg\"]","trial_type":"similarity","trial_index":156,"time_elapsed":1114506,"internal_node_id":"0.0-6.0-150.0"},{"sim_score":1,"rt":5855,"stimulus":"[\"img/0862/92f0146c-20c4-482e-aef5-adb693790338.jpg\",\"img/0867/26611f4e-d694-4460-b7e2-43c62753ddc3.jpg\"]","trial_type":"similarity","trial_index":157,"time_elapsed":1121379,"internal_node_id":"0.0-6.0-151.0"},{"sim_score":7,"rt":6443,"stimulus":"[\"img/0766/db750ba0-ce04-46e1-b601-e1b80212bad2.jpg\",\"img/0766/1865bfc9-2410-4765-a804-3ae4ba2393d0.jpg\"]","trial_type":"similarity","trial_index":158,"time_elapsed":1128826,"internal_node_id":"0.0-6.0-152.0"},{"sim_score":2,"rt":5825,"stimulus":"[\"img/0862/24cdc752-c2e5-4a17-86a6-6f2045d8553b.jpg\",\"img/0894/767a0eec-1064-46b1-b1aa-dfa02b0cd74e.jpg\"]","trial_type":"similarity","trial_index":159,"time_elapsed":1135659,"internal_node_id":"0.0-6.0-153.0"},{"sim_score":1,"rt":5464,"stimulus":"[\"img/0899/fef567a2-c121-4481-9af0-ff108d199bbf.jpg\",\"img/0901/3db47171-0139-4235-82cd-0b1787b6775f.jpg\"]","trial_type":"similarity","trial_index":160,"time_elapsed":1142131,"internal_node_id":"0.0-6.0-154.0"},{"sim_score":7,"rt":4855,"stimulus":"[\"img/0874/93d1f8dc-acf2-4f03-bd8d-8ec35df276ed.jpg\",\"img/0874/8cdb1c07-1c32-46d2-981c-3636560fa6e5.jpg\"]","trial_type":"similarity","trial_index":161,"time_elapsed":1148004,"internal_node_id":"0.0-6.0-155.0"},{"sim_score":6,"rt":5395,"stimulus":"[\"img/0860/31ff6436-98bf-4652-bed2-40f627229568.jpg\",\"img/0867/12264664-1860-46df-8c21-162b9817cdda.jpg\"]","trial_type":"similarity","trial_index":162,"time_elapsed":1154403,"internal_node_id":"0.0-6.0-156.0"},{"sim_score":3,"rt":6586,"stimulus":"[\"img/0901/5657dd86-0ff9-4753-ba2b-9dfb223e5c89.jpg\",\"img/0881/566f45f8-5fed-4479-a60f-26377e60a62d.jpg\"]","trial_type":"similarity","trial_index":163,"time_elapsed":1161996,"internal_node_id":"0.0-6.0-157.0"},{"sim_score":6,"rt":5341,"stimulus":"[\"img/0903/005ad0de-4f52-433c-b515-dbe8d46184a3.jpg\",\"img/0902/f3cfec34-482c-4bdb-9c92-19ea6cfce183.jpg\"]","trial_type":"similarity","trial_index":164,"time_elapsed":1168347,"internal_node_id":"0.0-6.0-158.0"},{"sim_score":2,"rt":5385,"stimulus":"[\"img/0860/87039971-2210-4aab-93c0-8e9b5f1655b2.jpg\",\"img/0764/1def7b22-b054-4ec2-860b-73d25691823b.jpg\"]","trial_type":"similarity","trial_index":165,"time_elapsed":1174748,"internal_node_id":"0.0-6.0-159.0"},{"sim_score":4,"rt":5266,"stimulus":"[\"img/0902/d3e55000-c839-4bf9-9b9b-4af0a9925af1.jpg\",\"img/0875/3ecb367d-e9eb-4826-8aaa-7aa72fb98019.jpg\"]","trial_type":"similarity","trial_index":166,"time_elapsed":1181020,"internal_node_id":"0.0-6.0-160.0"},{"sim_score":2,"rt":5322,"stimulus":"[\"img/0898/224c1572-56b9-4f16-a9e4-6f3bc9c114bd.jpg\",\"img/0862/a0a3a7ba-7798-46a3-b4ca-05e1f6e581d0.jpg\"]","trial_type":"similarity","trial_index":167,"time_elapsed":1187350,"internal_node_id":"0.0-6.0-161.0"},{"sim_score":6,"rt":4833,"stimulus":"[\"img/0894/6aa5545f-fa7d-4286-bbaa-aaf34dc7ec96.jpg\",\"img/0875/cff79b3a-a797-4393-9757-6275f999ec04.jpg\"]","trial_type":"similarity","trial_index":168,"time_elapsed":1193187,"internal_node_id":"0.0-6.0-162.0"},{"sim_score":1,"rt":5098,"stimulus":"[\"img/0866/9b38d691-1802-4959-ab3f-fc902f0e4ea6.jpg\",\"img/0864/f92649a2-0590-4d31-9a7a-1bfb81666a2d.jpg\"]","trial_type":"similarity","trial_index":169,"time_elapsed":1199307,"internal_node_id":"0.0-6.0-163.0"},{"sim_score":5,"rt":5369,"stimulus":"[\"img/0766/fd74fdbb-ea40-4f3a-a091-38d08dfd636e.jpg\",\"img/0862/00c06b00-3b73-44e9-bc1e-c5aafb438321.jpg\"]","trial_type":"similarity","trial_index":170,"time_elapsed":1205715,"internal_node_id":"0.0-6.0-164.0"},{"sim_score":1,"rt":4310,"stimulus":"[\"img/0866/d266fece-59b3-46fa-b69f-96f6efb81b59.jpg\",\"img/0874/1016b306-087c-4afc-aa08-fa527b28dc76.jpg\"]","trial_type":"similarity","trial_index":171,"time_elapsed":1211043,"internal_node_id":"0.0-6.0-165.0"},{"sim_score":5,"rt":4186,"stimulus":"[\"img/0862/fb26cb07-d5a9-4653-813c-f41609f26cd5.jpg\",\"img/0860/c5ccd1a4-4bb7-48e1-9b25-72cfaf06909b.jpg\"]","trial_type":"similarity","trial_index":172,"time_elapsed":1216243,"internal_node_id":"0.0-6.0-166.0"},{"sim_score":1,"rt":5815,"stimulus":"[\"img/0766/908bc45b-7c9e-4f95-806e-86b196ebcb2c.jpg\",\"img/0901/a2d7b2f6-396b-4d91-8403-de5361c74af7.jpg\"]","trial_type":"similarity","trial_index":173,"time_elapsed":1237194,"internal_node_id":"0.0-6.0-167.0"},{"sim_score":6,"rt":6144,"stimulus":"[\"img/0862/47ed5efd-4ec9-4b74-bb4e-a5f5cf0c3e7d.jpg\",\"img/0862/5d887e9f-89e2-4ebc-80a0-6d46fe6480db.jpg\"]","trial_type":"similarity","trial_index":174,"time_elapsed":1244346,"internal_node_id":"0.0-6.0-168.0"},{"sim_score":5,"rt":4763,"stimulus":"[\"img/0894/e6385e52-6c35-43bd-b0af-bc803d107b11.jpg\",\"img/0764/c84fbfa8-521c-407a-9bd3-24f7308d896c.jpg\"]","trial_type":"similarity","trial_index":175,"time_elapsed":1250114,"internal_node_id":"0.0-6.0-169.0"},{"sim_score":3,"rt":5936,"stimulus":"[\"img/0874/c0378dac-9370-439a-8b79-db27c96fb390.jpg\",\"img/0898/82231d4c-218b-4d0a-b50d-35a49b524e97.jpg\"]","trial_type":"similarity","trial_index":176,"time_elapsed":1257059,"internal_node_id":"0.0-6.0-170.0"},{"sim_score":2,"rt":5347,"stimulus":"[\"img/0860/4f695df5-afac-4da7-9875-fee39b0b24ad.jpg\",\"img/0766/b84598d0-5b41-4841-88b0-b441b48289f5.jpg\"]","trial_type":"similarity","trial_index":177,"time_elapsed":1263420,"internal_node_id":"0.0-6.0-171.0"},{"sim_score":4,"rt":3902,"stimulus":"[\"img/0898/b2732712-71c2-45d8-834f-2b2ed5504910.jpg\",\"img/0864/8ddd2e30-a1d0-479f-9cbe-591213023893.jpg\"]","trial_type":"similarity","trial_index":178,"time_elapsed":1268347,"internal_node_id":"0.0-6.0-172.0"},{"sim_score":5,"rt":5908,"stimulus":"[\"img/0881/44e09805-5a25-4f17-a716-4ad4a331b174.jpg\",\"img/0764/ba0c0955-acbb-457d-b1c2-f006b88121d5.jpg\"]","trial_type":"similarity","trial_index":179,"time_elapsed":1275259,"internal_node_id":"0.0-6.0-173.0"},{"sim_score":1,"rt":4137,"stimulus":"[\"img/0898/a8f16b02-e19f-423b-86c3-a36562ae1f9b.jpg\",\"img/0868/d98ca254-b195-477f-b57e-5760a2717db8.jpg\"]","trial_type":"similarity","trial_index":180,"time_elapsed":1280411,"internal_node_id":"0.0-6.0-174.0"},{"sim_score":7,"rt":5080,"stimulus":"[\"img/0864/1d15626a-2f7c-410f-819c-0fa2c967e95e.jpg\",\"img/0864/e336a4c5-6648-4fd7-b2f6-93a3fb83f8c6.jpg\"]","trial_type":"similarity","trial_index":181,"time_elapsed":1286501,"internal_node_id":"0.0-6.0-175.0"},{"sim_score":5,"rt":7486,"stimulus":"[\"img/0899/93494f3b-d539-4075-b027-d82e344563da.jpg\",\"img/0862/eefa5588-9efd-4591-aa5f-a2e17c7d7bcc.jpg\"]","trial_type":"similarity","trial_index":182,"time_elapsed":1295003,"internal_node_id":"0.0-6.0-176.0"},{"sim_score":1,"rt":5763,"stimulus":"[\"img/0875/99698b4d-b4a1-44bc-8c83-8ea755bbbf61.jpg\",\"img/0758/a709631e-3705-4725-ac40-f0d916924f08.jpg\"]","trial_type":"similarity","trial_index":183,"time_elapsed":1301771,"internal_node_id":"0.0-6.0-177.0"},{"sim_score":2,"rt":5403,"stimulus":"[\"img/0866/02f5e6b9-52b7-448c-9708-5b460d0c9a23.jpg\",\"img/0901/d6d15b1c-4a30-4f74-a3fd-d4c8ee4169ca.jpg\"]","trial_type":"similarity","trial_index":184,"time_elapsed":1308188,"internal_node_id":"0.0-6.0-178.0"},{"sim_score":5,"rt":5183,"stimulus":"[\"img/0769/8598a429-c671-4d2f-842c-32f681f5e412.jpg\",\"img/0874/7e4f2150-3b59-4a36-b5da-a4e0ba410531.jpg\"]","trial_type":"similarity","trial_index":185,"time_elapsed":1314396,"internal_node_id":"0.0-6.0-179.0"},{"sim_score":2,"rt":5946,"stimulus":"[\"img/0875/8521fd58-3b1e-4dc5-97ae-804edfa6734a.jpg\",\"img/0881/4da99fdd-1f40-4bbb-8e21-8833eef313f5.jpg\"]","trial_type":"similarity","trial_index":186,"time_elapsed":1321347,"internal_node_id":"0.0-6.0-180.0"},{"sim_score":5,"rt":6266,"stimulus":"[\"img/0866/be24ab58-230e-4db8-9f45-ff04c9aec6bb.jpg\",\"img/0868/e0aff734-077f-40dd-9781-74821abd3621.jpg\"]","trial_type":"similarity","trial_index":187,"time_elapsed":1328620,"internal_node_id":"0.0-6.0-181.0"},{"sim_score":5,"rt":5737,"stimulus":"[\"img/0899/5b56dd3e-3f49-47cc-af84-16da6457753b.jpg\",\"img/0758/9fb5b2fe-3f00-4fe6-973c-1ce10d5f4cd5.jpg\"]","trial_type":"similarity","trial_index":188,"time_elapsed":1335363,"internal_node_id":"0.0-6.0-182.0"},{"sim_score":5,"rt":6622,"stimulus":"[\"img/0874/99f6563c-8a8d-4c1c-a41d-667b618c3fd5.jpg\",\"img/0875/fb732ab5-013a-4366-9f65-27811ed157e9.jpg\"]","trial_type":"similarity","trial_index":189,"time_elapsed":1343003,"internal_node_id":"0.0-6.0-183.0"},{"sim_score":4,"rt":3682,"stimulus":"[\"img/0904/9d30eff1-46ef-4453-b11e-124ef8145c00.jpg\",\"img/0862/fad1d7c1-8187-43c3-942a-0fc12183e48e.jpg\"]","trial_type":"similarity","trial_index":190,"time_elapsed":1347691,"internal_node_id":"0.0-6.0-184.0"},{"sim_score":3,"rt":5951,"stimulus":"[\"img/0902/7499db23-3a41-41ea-ab5b-6ab4d4c3ed35.jpg\",\"img/0766/60033a74-9919-47e5-913c-71d0d483e7e5.jpg\"]","trial_type":"similarity","trial_index":191,"time_elapsed":1354660,"internal_node_id":"0.0-6.0-185.0"},{"sim_score":4,"rt":6705,"stimulus":"[\"img/0758/d57c2592-a317-4f63-91be-91a3a9afd222.jpg\",\"img/0769/8056889f-2b14-4782-bb25-b4e8896ab65b.jpg\"]","trial_type":"similarity","trial_index":192,"time_elapsed":1362372,"internal_node_id":"0.0-6.0-186.0"},{"sim_score":7,"rt":5026,"stimulus":"[\"img/0881/adc02f34-ce97-4aef-850f-00519df06fd7.jpg\",\"img/0881/f4e3e181-b3c9-4af2-a5a4-fc135ab70d2e.jpg\"]","trial_type":"similarity","trial_index":193,"time_elapsed":1368403,"internal_node_id":"0.0-6.0-187.0"},{"sim_score":1,"rt":5792,"stimulus":"[\"img/0758/821c68d3-5cb0-4eae-8659-30e6263fca39.jpg\",\"img/0866/a04d37f0-99dd-478a-b6c6-58b215138f84.jpg\"]","trial_type":"similarity","trial_index":194,"time_elapsed":1375211,"internal_node_id":"0.0-6.0-188.0"},{"sim_score":6,"rt":5654,"stimulus":"[\"img/0764/5d6fa3ce-9083-410c-bbdb-336a49b94cfc.jpg\",\"img/0898/cd3aaa3f-efa9-4ab3-8d6f-a6a9273ddf42.jpg\"]","trial_type":"similarity","trial_index":195,"time_elapsed":1381876,"internal_node_id":"0.0-6.0-189.0"},{"sim_score":6,"rt":5756,"stimulus":"[\"img/0903/365f176c-25a4-4973-bd3c-279bf1b39476.jpg\",\"img/0901/58ec7fa9-b466-4651-90aa-c082df0972de.jpg\"]","trial_type":"similarity","trial_index":196,"time_elapsed":1388644,"internal_node_id":"0.0-6.0-190.0"},{"sim_score":6,"rt":4945,"stimulus":"[\"img/0902/44cd9b7e-fdfb-4f78-90de-8d4c9d279365.jpg\",\"img/0898/04e39a7a-fcf6-4156-ab0e-f5871f335e1c.jpg\"]","trial_type":"similarity","trial_index":197,"time_elapsed":1394603,"internal_node_id":"0.0-6.0-191.0"},{"sim_score":1,"rt":4283,"stimulus":"[\"img/0864/300bb811-8b3c-4c42-8653-6097c3725197.jpg\",\"img/0901/c6c877e0-dd63-4e00-9657-33af29d55aab.jpg\"]","trial_type":"similarity","trial_index":198,"time_elapsed":1399891,"internal_node_id":"0.0-6.0-192.0"},{"sim_score":4,"rt":4082,"stimulus":"[\"img/0894/3adef67d-7676-4995-80b2-bb31b8aca3ef.jpg\",\"img/0881/62a64f90-7a72-4aee-a1a1-0c548ac9bdda.jpg\"]","trial_type":"similarity","trial_index":199,"time_elapsed":1404987,"internal_node_id":"0.0-6.0-193.0"},{"sim_score":6,"rt":4578,"stimulus":"[\"img/0868/4a8a45ed-2c4f-421b-9564-409a33ecd26c.jpg\",\"img/0868/8b0b8473-e2c0-4331-aa56-c3a5c29369da.jpg\"]","trial_type":"similarity","trial_index":200,"time_elapsed":1410571,"internal_node_id":"0.0-6.0-194.0"},{"sim_score":5,"rt":6802,"stimulus":"[\"img/0899/8abe6c69-822c-436c-9bf2-96c818b49ba5.jpg\",\"img/0764/f713847b-4832-42d1-8fb3-e17e37fd745c.jpg\"]","trial_type":"similarity","trial_index":201,"time_elapsed":1418387,"internal_node_id":"0.0-6.0-195.0"},{"sim_score":6,"rt":5242,"stimulus":"[\"img/0881/405484ae-0d00-4b05-bc57-6420a36adfac.jpg\",\"img/0904/fe746a3f-8458-48d0-8a13-8cba2a9df9f8.jpg\"]","trial_type":"similarity","trial_index":202,"time_elapsed":1424635,"internal_node_id":"0.0-6.0-196.0"},{"sim_score":5,"rt":4772,"stimulus":"[\"img/0864/e02eddb5-f468-499c-91bf-f7be3ffe979b.jpg\",\"img/0902/a6fb6dd5-696c-47ec-be7d-d7b88f1544f1.jpg\"]","trial_type":"similarity","trial_index":203,"time_elapsed":1430411,"internal_node_id":"0.0-6.0-197.0"},{"sim_score":5,"rt":6297,"stimulus":"[\"img/0894/bd34223a-2f66-4e16-9d18-193a746b69ff.jpg\",\"img/0904/63dd06dd-dccb-47ba-9740-eb33239e18a7.jpg\"]","trial_type":"similarity","trial_index":204,"time_elapsed":1437715,"internal_node_id":"0.0-6.0-198.0"},{"sim_score":7,"rt":5674,"stimulus":"[\"img/0901/33b51a81-06d9-46d9-9d4f-5a2d6d6b8058.jpg\",\"img/0901/4ca4f962-40c0-4c59-b14a-3cd7b8c9029b.jpg\"]","trial_type":"similarity","trial_index":205,"time_elapsed":1444395,"internal_node_id":"0.0-6.0-199.0"},{"sim_score":2,"rt":4404,"stimulus":"[\"img/0894/151063aa-6472-4745-837b-36603aba5966.jpg\",\"img/0860/99c589b9-9140-4d17-90c0-b344323edcda.jpg\"]","trial_type":"similarity","trial_index":206,"time_elapsed":1449819,"internal_node_id":"0.0-6.0-200.0"},{"sim_score":6,"rt":6039,"stimulus":"[\"img/0898/5f699581-3853-4547-856c-12f419ba5af7.jpg\",\"img/0903/0e5c2854-42aa-48c0-9c3d-6e1ad2a400bd.jpg\"]","trial_type":"similarity","trial_index":207,"time_elapsed":1456875,"internal_node_id":"0.0-6.0-201.0"},{"sim_score":2,"rt":5470,"stimulus":"[\"img/0864/6e846d43-94a6-4b37-a268-65eda979f052.jpg\",\"img/0894/2217bdcd-23a7-42d3-823b-23f2488d7e87.jpg\"]","trial_type":"similarity","trial_index":208,"time_elapsed":1463363,"internal_node_id":"0.0-6.0-202.0"},{"sim_score":3,"rt":5819,"stimulus":"[\"img/0874/ca23d307-fc00-4d7d-9106-584c6eb21b4d.jpg\",\"img/0860/524b2e98-5767-4d53-942c-ebae6925659b.jpg\"]","trial_type":"similarity","trial_index":209,"time_elapsed":1470187,"internal_node_id":"0.0-6.0-203.0"},{"sim_score":1,"rt":5914,"stimulus":"[\"img/0862/ad593cc7-cabe-4bb7-8e14-8a447a0717b4.jpg\",\"img/0875/e7e66b13-b573-431e-b85e-288ce04a35a3.jpg\"]","trial_type":"similarity","trial_index":210,"time_elapsed":1477108,"internal_node_id":"0.0-6.0-204.0"},{"sim_score":1,"rt":4254,"stimulus":"[\"img/0867/50a1b60e-3a29-44bf-b606-d4bd3746fea9.jpg\",\"img/0881/f6bd3b96-dc40-4e99-8681-bc3a35cf896d.jpg\"]","trial_type":"similarity","trial_index":211,"time_elapsed":1482377,"internal_node_id":"0.0-6.0-205.0"},{"sim_score":5,"rt":5459,"stimulus":"[\"img/0901/6e2957f8-f5ab-46f4-87cc-bb50155a098b.jpg\",\"img/0902/24d10fe7-314f-4d5a-8c7b-b43121bba0a4.jpg\"]","trial_type":"similarity","trial_index":212,"time_elapsed":1488843,"internal_node_id":"0.0-6.0-206.0"},{"sim_score":5,"rt":6328,"stimulus":"[\"img/0899/d60714ae-98d7-4564-8c98-94dba1351135.jpg\",\"img/0864/afcba0a3-7e27-4757-b254-e9f05fad27e2.jpg\"]","trial_type":"similarity","trial_index":213,"time_elapsed":1496179,"internal_node_id":"0.0-6.0-207.0"},{"sim_score":2,"rt":5961,"stimulus":"[\"img/0901/bc47e078-bda4-40ed-b89a-bbd819164b95.jpg\",\"img/0769/c7cfacc3-7f07-46ff-9f5d-8073f4c4679b.jpg\"]","trial_type":"similarity","trial_index":214,"time_elapsed":1503147,"internal_node_id":"0.0-6.0-208.0"},{"sim_score":7,"rt":5769,"stimulus":"[\"img/0902/962f645e-9b55-4628-9b50-c703422bfe1a.jpg\",\"img/0902/417d8b4a-3c72-4adc-ac78-820e833316f2.jpg\"]","trial_type":"similarity","trial_index":215,"time_elapsed":1519835,"internal_node_id":"0.0-6.0-209.0"},{"view_history":"[{\"page_index\":0,\"viewing_time\":2585}]","rt":2585,"trial_type":"instructions","trial_index":216,"time_elapsed":1523427,"internal_node_id":"0.0-7.0"},{"rt":32075,"responses":"{\"Q0\":\"Yellow Warbler\"}","answer":["Nashville Warbler"],"trial_type":"image-multi-choice","trial_index":217,"time_elapsed":1556532,"internal_node_id":"0.0-8.0-0.0"},{"rt":5901,"responses":"{\"Q0\":\"Black-and-white Warbler\"}","answer":["Black-and-white Warbler"],"trial_type":"image-multi-choice","trial_index":218,"time_elapsed":1563451,"internal_node_id":"0.0-8.0-1.0"},{"rt":19989,"responses":"{\"Q0\":\"Blackburnian Warbler\"}","answer":["Townsend's Warbler"],"trial_type":"image-multi-choice","trial_index":219,"time_elapsed":1584459,"internal_node_id":"0.0-8.0-2.0"},{"rt":7368,"responses":"{\"Q0\":\"Ovenbird\"}","answer":["Lark Sparrow"],"trial_type":"image-multi-choice","trial_index":220,"time_elapsed":1592851,"internal_node_id":"0.0-8.0-3.0"},{"rt":14241,"responses":"{\"Q0\":\"Townsend's Warbler\"}","answer":["Yellow Warbler"],"trial_type":"image-multi-choice","trial_index":221,"time_elapsed":1608116,"internal_node_id":"0.0-8.0-4.0"},{"rt":33008,"responses":"{\"Q0\":\"Orange-crowned Warbler\"}","answer":["Orange-crowned Warbler"],"trial_type":"image-multi-choice","trial_index":222,"time_elapsed":1642147,"internal_node_id":"0.0-8.0-5.0"},{"rt":18324,"responses":"{\"Q0\":\"Chipping Sparrow\"}","answer":["White-throated Sparrow"],"trial_type":"image-multi-choice","trial_index":223,"time_elapsed":1661507,"internal_node_id":"0.0-8.0-6.0"},{"rt":12502,"responses":"{\"Q0\":\"Northern Waterthrush\"}","answer":["Fox Sparrow"],"trial_type":"image-multi-choice","trial_index":224,"time_elapsed":1675043,"internal_node_id":"0.0-8.0-7.0"},{"rt":5577,"responses":"{\"Q0\":\"Chipping Sparrow\"}","answer":["Song Sparrow"],"trial_type":"image-multi-choice","trial_index":225,"time_elapsed":1681659,"internal_node_id":"0.0-8.0-8.0"},{"rt":8829,"responses":"{\"Q0\":\"Magnolia Warbler\"}","answer":["Blackburnian Warbler"],"trial_type":"image-multi-choice","trial_index":226,"time_elapsed":1691515,"internal_node_id":"0.0-8.0-9.0"},{"rt":7603,"responses":"{\"Q0\":\"Fox Sparrow\"}","answer":["Vesper Sparrow"],"trial_type":"image-multi-choice","trial_index":227,"time_elapsed":1700147,"internal_node_id":"0.0-8.0-10.0"},{"rt":20886,"responses":"{\"Q0\":\"White-crowned Sparrow\"}","answer":["White-crowned Sparrow"],"trial_type":"image-multi-choice","trial_index":228,"time_elapsed":1722059,"internal_node_id":"0.0-8.0-11.0"},{"rt":11234,"responses":"{\"Q0\":\"Lincoln's Sparrow\"}","answer":["American Tree Sparrow"],"trial_type":"image-multi-choice","trial_index":229,"time_elapsed":1734322,"internal_node_id":"0.0-8.0-12.0"},{"rt":18700,"responses":"{\"Q0\":\"Townsend's Warbler\"}","answer":["Tennessee Warbler"],"trial_type":"image-multi-choice","trial_index":230,"time_elapsed":1754051,"internal_node_id":"0.0-8.0-13.0"},{"rt":20555,"responses":"{\"Q0\":\"Nashville Warbler\"}","answer":["Magnolia Warbler"],"trial_type":"image-multi-choice","trial_index":231,"time_elapsed":1775643,"internal_node_id":"0.0-8.0-14.0"},{"rt":7311,"responses":"{\"Q0\":\"Northern Waterthrush\"}","answer":["Northern Waterthrush"],"trial_type":"image-multi-choice","trial_index":232,"time_elapsed":1784003,"internal_node_id":"0.0-8.0-15.0"},{"rt":7707,"responses":"{\"Q0\":\"American Tree Sparrow\"}","answer":["Chipping Sparrow"],"trial_type":"image-multi-choice","trial_index":233,"time_elapsed":1792731,"internal_node_id":"0.0-8.0-16.0"},{"rt":9522,"responses":"{\"Q0\":\"Lincoln's Sparrow\"}","answer":["Swamp Sparrow"],"trial_type":"image-multi-choice","trial_index":234,"time_elapsed":1803311,"internal_node_id":"0.0-8.0-17.0"},{"rt":8991,"responses":"{\"Q0\":\"Vesper Sparrow\"}","answer":["Lincoln's Sparrow"],"trial_type":"image-multi-choice","trial_index":235,"time_elapsed":1813340,"internal_node_id":"0.0-8.0-18.0"},{"rt":23458,"responses":"{\"Q0\":\"Ovenbird\"}","answer":["Ovenbird"],"trial_type":"image-multi-choice","trial_index":236,"time_elapsed":1837835,"internal_node_id":"0.0-8.0-19.0"}]