"view_history","rt","trial_type","trial_index","time_elapsed","internal_node_id","sim_score","stimulus","responses","answer"
"[{""page_index"":0,""viewing_time"":18547}]","18548","instructions","0","18549","0.0-0.0","","","",""
"","8163","similarity_demo","1","27725","0.0-1.0","5","[""img/866.jpg"",""img/868.jpg""]","",""
"[{""page_index"":0,""viewing_time"":1863}]","1865","instructions","2","30597","0.0-2.0","","","",""
"","6313","similarity_demo","3","37916","0.0-3.0","4","[""img/766.jpg"",""img/867.jpg""]","",""
"[{""page_index"":0,""viewing_time"":4526}]","4526","instructions","4","43451","0.0-4.0","","","",""
"[{""page_index"":0,""viewing_time"":49259}]","49259","instructions","5","93732","0.0-5.0","","","",""
"","7307","similarity","6","102054","0.0-6.0-0.0","2","[""img/0868/179a5502-ab5c-478e-8263-5a1fbcc101d2.jpg"",""img/0901/0adb3bd6-d758-4ba7-9723-3ad6cac05bd5.jpg""]","",""
"","7506","similarity","7","110581","0.0-6.0-1.0","2","[""img/0769/3c1203c5-2ce7-466e-957a-8d77b5905460.jpg"",""img/0867/aa05d113-fc19-4756-a8eb-7878f580bc92.jpg""]","",""
"","4711","similarity","8","116310","0.0-6.0-2.0","6","[""img/0766/d512b99c-a2dc-40d7-8e86-827323a0cbcf.jpg"",""img/0898/0af304a2-6a7a-4082-ab7c-4450cd08cc58.jpg""]","",""
"","3304","similarity","9","120621","0.0-6.0-3.0","7","[""img/0902/94198618-7047-4dc9-ad04-85f4ba913067.jpg"",""img/0881/6b1189e6-232d-4042-8885-16dc7b10e0d4.jpg""]","",""
"","5470","similarity","10","127109","0.0-6.0-4.0","7","[""img/0894/3664e04c-c6d3-4c9b-afb6-25d89974b174.jpg"",""img/0894/0130a973-d993-41f8-874a-fee23d9ac11f.jpg""]","",""
"","5800","similarity","11","133925","0.0-6.0-5.0","1","[""img/0874/31e22c7c-99aa-40b1-bf03-dd73fa2df4d6.jpg"",""img/0899/4f7bc593-8ddd-4da3-a0b9-84da730d3370.jpg""]","",""
"","4692","similarity","12","139630","0.0-6.0-6.0","3","[""img/0904/2c98dc56-88d1-4fb5-a999-b6a7861f65f0.jpg"",""img/0764/8740679b-b56f-4292-aece-14063457113a.jpg""]","",""
"","4311","similarity","13","144965","0.0-6.0-7.0","1","[""img/0899/a05bea16-2bb4-4cb9-b8fb-4ff975db6971.jpg"",""img/0898/881e2a85-d5c2-49be-a0c6-8a6ce2c4af08.jpg""]","",""
"","6483","similarity","14","152461","0.0-6.0-8.0","2","[""img/0874/767f289c-9814-4496-803f-745cc8913d1f.jpg"",""img/0903/39365c8e-a733-4801-ac7d-b87e38c3784b.jpg""]","",""
"","5523","similarity","15","158997","0.0-6.0-9.0","6","[""img/0881/2a8413be-fec2-4de6-88ad-614dd4cccc9d.jpg"",""img/0758/67c0be2f-9e91-48b3-8219-70ac0a1802fa.jpg""]","",""
"","5067","similarity","16","165077","0.0-6.0-10.0","2","[""img/0898/4184e5a2-84ea-4f36-9b42-ae58646f6f87.jpg"",""img/0901/443f2e59-199b-4f7b-9de9-c44ad97326a5.jpg""]","",""
"","8966","similarity","17","175053","0.0-6.0-11.0","3","[""img/0903/8f7f9939-b8e6-433f-93dd-b362496c80a7.jpg"",""img/0769/aad494cc-674d-4a08-9bfa-24a88ebe3c79.jpg""]","",""
"","6059","similarity","18","182133","0.0-6.0-12.0","1","[""img/0764/7f4ee8e3-9315-4a57-be7d-db8454b33766.jpg"",""img/0868/83b4350a-3b70-4cea-b7f5-b5b56f3050a8.jpg""]","",""
"","5980","similarity","19","189117","0.0-6.0-13.0","1","[""img/0867/c66898ba-b71b-4d50-84f9-f7f84853a98d.jpg"",""img/0903/5ea5bbe0-f238-4724-abe7-9ed8dee8c0ba.jpg""]","",""
"","4368","similarity","20","194494","0.0-6.0-14.0","5","[""img/0766/a754e4b6-5019-4cf4-8f58-34c20547a1f5.jpg"",""img/0758/3ddd05d3-557e-4ee7-8b78-9d2d681d8ae2.jpg""]","",""
"","4107","similarity","21","199606","0.0-6.0-15.0","4","[""img/0902/511abb54-0094-4f4d-b6dc-3f2c97050521.jpg"",""img/0860/c3379ff7-0763-48fe-a1ec-7ea3d611bc7a.jpg""]","",""
"","7499","similarity","22","208117","0.0-6.0-16.0","3","[""img/0769/e31b3bd8-efcb-413e-aa8c-75fac2b8f2ac.jpg"",""img/0875/2e13d160-eea1-416b-aff1-d37ab99ecc1d.jpg""]","",""
"","5690","similarity","23","214813","0.0-6.0-17.0","1","[""img/0904/0d25eb24-bb20-4e8d-9787-8b489558b4cb.jpg"",""img/0866/23a224f3-2012-4fc8-8e0f-3c36f8de27fd.jpg""]","",""
"","6378","similarity","24","222197","0.0-6.0-18.0","6","[""img/0875/527ced51-8e53-4aab-ab05-86df219104c0.jpg"",""img/0875/90da8d75-108a-44ad-b999-e21fee3860d3.jpg""]","",""
"","5195","similarity","25","228413","0.0-6.0-19.0","7","[""img/0758/6e95579b-5166-487c-b8cb-e417c6a218e3.jpg"",""img/0758/65d426d6-3ff6-415d-8654-a43b83ecc4fe.jpg""]","",""
"","5407","similarity","26","234828","0.0-6.0-20.0","2","[""img/0902/51493fab-2a10-4385-aa88-bee3db441626.jpg"",""img/0874/a82926a3-0b43-4add-803c-d5f9ea7798ee.jpg""]","",""
"","7799","similarity","27","243644","0.0-6.0-21.0","6","[""img/0764/03c07b98-3f18-4b71-bb70-ecff564a78d1.jpg"",""img/0769/d1be2815-fa79-46e8-b5c3-7d81caaca490.jpg""]","",""
"","4548","similarity","28","249196","0.0-6.0-22.0","2","[""img/0901/d61f267a-c492-4db6-9bfb-61efd49cf072.jpg"",""img/0874/eba003b4-cdab-4eee-8bc3-f064c7d94165.jpg""]","",""
"","8748","similarity","29","258955","0.0-6.0-23.0","3","[""img/0875/d59ff733-eaff-4ee2-9443-06954dd0bcb6.jpg"",""img/0903/f67c4ab9-f8c2-4fcd-848a-a54a7b031002.jpg""]","",""
"","4656","similarity","30","264620","0.0-6.0-24.0","4","[""img/0769/35364db7-e0d5-40ef-93dc-faf9dfb95136.jpg"",""img/0881/344de456-b358-4887-bd0e-e4c3278af887.jpg""]","",""
"","4333","similarity","31","269972","0.0-6.0-25.0","1","[""img/0867/cc72ed48-7704-422c-86d6-467a1145287a.jpg"",""img/0904/5cceabc9-de1d-4c67-989b-c28a4ef77e79.jpg""]","",""
"","5282","similarity","32","276260","0.0-6.0-26.0","2","[""img/0860/15b24a61-25be-4356-9eac-5ce95d0cb4a4.jpg"",""img/0881/f7a8cc63-8842-40a4-9ff8-fe530310d62c.jpg""]","",""
"","4960","similarity","33","282236","0.0-6.0-27.0","4","[""img/0866/8efcaa46-83ab-4dee-a35f-850402aa21ae.jpg"",""img/0866/11a1d141-be5e-443c-98c1-a9d4d9e3dec0.jpg""]","",""
"","5351","similarity","34","288596","0.0-6.0-28.0","5","[""img/0764/83c93cce-18d1-4aa7-9e23-2c268afe0a46.jpg"",""img/0862/de9ad88c-b522-430a-8ee9-eb06a9f85df5.jpg""]","",""
"","7590","similarity","35","297196","0.0-6.0-29.0","1","[""img/0904/d23dd7be-7fe8-4435-82f7-bd592c01e6a1.jpg"",""img/0758/a085b443-b5d7-4cb2-9ad4-b9dab0fc23f1.jpg""]","",""
"","5636","similarity","36","303851","0.0-6.0-30.0","6","[""img/0894/5c7677b0-a4f1-479e-b274-7822c415175a.jpg"",""img/0899/56a605c3-d0a2-4215-89e1-779279d85a7c.jpg""]","",""
"","6198","similarity","37","311068","0.0-6.0-31.0","5","[""img/0860/8fdba999-b946-4c7d-9891-336018b563ef.jpg"",""img/0904/6291eb43-c10c-4810-a36a-101d09868b04.jpg""]","",""
"","5879","similarity","38","317964","0.0-6.0-32.0","6","[""img/0874/29830da7-be5f-44e5-b141-652a0ccf7269.jpg"",""img/0881/f8bd891e-aa09-4782-89db-33e7cb2b0cf1.jpg""]","",""
"","6586","similarity","39","325555","0.0-6.0-33.0","4","[""img/0881/f037e3b0-09cb-4a83-b2d9-6a71fe474e63.jpg"",""img/0899/b45c550b-96c3-4255-ad59-48a2b4db1c1e.jpg""]","",""
"","7338","similarity","40","333916","0.0-6.0-34.0","2","[""img/0866/6f2a90d7-14f1-4f1b-bd64-fc0af6b9fe44.jpg"",""img/0862/f43ceabf-acc1-4107-b857-5d1849808f93.jpg""]","",""
"","4784","similarity","41","339707","0.0-6.0-35.0","4","[""img/0868/09a9ef4d-d000-4cfa-a6aa-ebec7c2edeb4.jpg"",""img/0894/76c1201f-8524-4865-85e6-dda8cb4ac986.jpg""]","",""
"","6824","similarity","42","347548","0.0-6.0-36.0","7","[""img/0860/4a022222-056d-461c-ab02-39fac9647552.jpg"",""img/0860/18dfed73-e36b-4487-a8bd-0b8cff8e3668.jpg""]","",""
"","7778","similarity","43","356334","0.0-6.0-37.0","2","[""img/0862/ba89835a-408c-480b-8594-ed4ffa97eb5c.jpg"",""img/0864/1ebbc554-99fa-49f9-8799-317375a79820.jpg""]","",""
"","5800","similarity","44","363149","0.0-6.0-38.0","4","[""img/0766/0bf3793e-c353-45e5-ac6f-753f5f484e10.jpg"",""img/0866/07c9c966-3c8d-40e7-8128-92b2acbaed5d.jpg""]","",""
"","5287","similarity","45","369445","0.0-6.0-39.0","1","[""img/0875/f87b67d7-c33e-40d1-b281-248c4be1cb6e.jpg"",""img/0898/a114b375-cb89-44ba-9498-74213f1ecdee.jpg""]","",""
"","6117","similarity","46","376572","0.0-6.0-40.0","3","[""img/0766/d14acac4-7db1-4b07-8f8f-302437326fc0.jpg"",""img/0769/6c0bac4c-5f59-43c7-898c-3ca93cf55cfe.jpg""]","",""
"","5667","similarity","47","406956","0.0-6.0-41.0","4","[""img/0874/3f471690-9788-4d03-90c7-f615aecef149.jpg"",""img/0764/3297a811-ea8b-4d74-9547-59cecab7293a.jpg""]","",""
"","4773","similarity","48","412749","0.0-6.0-42.0","1","[""img/0868/c8ac40c7-6904-4e13-8d61-c75d3052dc4e.jpg"",""img/0902/82d20e8c-2162-47a6-925b-52906558c046.jpg""]","",""
"","4406","similarity","49","418164","0.0-6.0-43.0","4","[""img/0875/34132396-d896-4c2d-8087-646dd867e769.jpg"",""img/0899/9de5e857-aa9a-4e0c-8ba2-46d79bd069a4.jpg""]","",""
"","4282","similarity","50","423452","0.0-6.0-44.0","1","[""img/0866/bf14b5bd-fb55-47db-86b9-4f8aeb9a6dad.jpg"",""img/0860/17b44a7d-c5ca-479f-9e87-f65a64f5c80e.jpg""]","",""
"","5640","similarity","51","430108","0.0-6.0-45.0","3","[""img/0766/09f646c8-a69e-4ed3-879c-8d29b04ad7f9.jpg"",""img/0903/f10e9eb5-0c21-4a6a-944c-5f10a6d0fa4d.jpg""]","",""
"","6483","similarity","52","437611","0.0-6.0-46.0","3","[""img/0901/da4fe30f-d12a-491e-96a2-5ab8ebaadd09.jpg"",""img/0904/b7c2a2c8-df33-4473-b3d4-ff7147c60db3.jpg""]","",""
"","5316","similarity","53","443947","0.0-6.0-47.0","4","[""img/0758/eabcd7a8-56ad-4fd2-bc24-90f6b7b33265.jpg"",""img/0902/5b45a7a0-81c8-4a71-aaa2-2ce09adb5a29.jpg""]","",""
"","4939","similarity","54","449891","0.0-6.0-48.0","7","[""img/0764/ca9829fe-aaf8-45b8-b98a-6bae751c63dd.jpg"",""img/0764/e42c1dc9-7831-4995-be19-7ca7b4d141fc.jpg""]","",""
"","3963","similarity","55","454859","0.0-6.0-49.0","1","[""img/0866/4a87911a-d5be-4d4e-ab8e-3d1f581bf507.jpg"",""img/0902/07437a16-3d0f-4a5c-89ec-36d0efa4b3b8.jpg""]","",""
"","4650","similarity","56","460523","0.0-6.0-50.0","5","[""img/0764/5c8fbafc-e62e-43ed-9b37-f73e8e45147d.jpg"",""img/0758/dd559618-7f09-4a07-8018-d311c4a5ea29.jpg""]","",""
"","3825","similarity","57","465363","0.0-6.0-51.0","4","[""img/0898/81b08535-2020-4c15-9ce4-2f1e460755ae.jpg"",""img/0894/4739e06d-c31e-4bf1-bf91-c97fa9afb456.jpg""]","",""
"","4637","similarity","58","471011","0.0-6.0-52.0","4","[""img/0875/dbdd643e-6d0e-4a5c-ab57-b9c29b9c981a.jpg"",""img/0866/93a27239-8317-4e08-98ca-d8b1ff298e07.jpg""]","",""
"","6036","similarity","59","478059","0.0-6.0-53.0","6","[""img/0904/24fc38fe-842c-4831-ad8a-b1de5c25c0a8.jpg"",""img/0904/4e58005d-a2ec-4aaa-b199-445343561396.jpg""]","",""
"","4950","similarity","60","484019","0.0-6.0-54.0","7","[""img/0769/662ab839-88d1-4ebf-af05-9b2980cad943.jpg"",""img/0769/c34b7763-8ff2-46d5-9e92-f1d8f3bedbd8.jpg""]","",""
"","6278","similarity","61","491316","0.0-6.0-55.0","4","[""img/0898/01bfe666-3510-4fc7-964f-d00d28732dc8.jpg"",""img/0758/d41c06bf-ebaf-454b-91c6-1a17f917b659.jpg""]","",""
"","6076","similarity","62","498412","0.0-6.0-56.0","5","[""img/0769/180213e5-1e50-4b4e-87b6-add77ba04d39.jpg"",""img/0902/d1083f2c-5520-44ec-81a8-3f856fbf0e80.jpg""]","",""
"","4300","similarity","63","503723","0.0-6.0-57.0","4","[""img/0864/a248adb3-c70b-4652-b7a3-776d2a1e904b.jpg"",""img/0881/c843e210-bdfe-4a7c-8bbe-fcea1f90fe1c.jpg""]","",""
"","3874","similarity","64","508619","0.0-6.0-58.0","1","[""img/0758/20497cbe-ddae-489e-86e2-ab06985ed07c.jpg"",""img/0868/6a28c3b0-3d76-498a-9fb7-ddafc665eca8.jpg""]","",""
"","4904","similarity","65","514540","0.0-6.0-59.0","4","[""img/0862/4f0a3b4c-afbf-486e-b248-1d54982f54b4.jpg"",""img/0769/878531fd-e0e8-4ad1-b9ad-f018bb104ca0.jpg""]","",""
"","5801","similarity","66","521347","0.0-6.0-60.0","5","[""img/0764/f9f890e6-3c2f-40cd-84e9-85e0b54cb28e.jpg"",""img/0903/5248eedd-7e6a-4d39-91b0-06ec227f3ed0.jpg""]","",""
"","5887","similarity","67","528244","0.0-6.0-61.0","6","[""img/0899/06b0fc99-0581-461a-9913-d1a5a941ac61.jpg"",""img/0899/ddf96ade-692e-4602-bd22-dedbb46401bc.jpg""]","",""
"","6000","similarity","68","535260","0.0-6.0-62.0","2","[""img/0860/c7047cd2-7cc1-41b6-8a34-c0986774975f.jpg"",""img/0875/5a716432-c6ca-4b1c-955a-2b8ac25198ee.jpg""]","",""
"","3938","similarity","69","540213","0.0-6.0-63.0","1","[""img/0868/0d3abd3a-b6c3-4584-a9f7-e2da63748b3d.jpg"",""img/0874/3ce41e7c-40c8-4d58-a546-171114521796.jpg""]","",""
"","5218","similarity","70","546437","0.0-6.0-64.0","5","[""img/0758/e38fd80d-18d0-42f3-b848-f930788e8bd7.jpg"",""img/0862/92fcd8a4-8193-4a6a-ae09-dd4a6338b0df.jpg""]","",""
"","5309","similarity","71","552766","0.0-6.0-65.0","6","[""img/0904/1d10df11-b5c8-4370-9a6b-097a7f965895.jpg"",""img/0898/8605a25b-6895-476d-8c13-df7a83f96093.jpg""]","",""
"","4089","similarity","72","557868","0.0-6.0-66.0","1","[""img/0881/e6746727-7f89-47ec-b939-d98abe78372d.jpg"",""img/0866/386235d2-6857-41e7-88a8-25cfc3430025.jpg""]","",""
"","4904","similarity","73","563781","0.0-6.0-67.0","1","[""img/0867/bf560d4f-dee3-4f11-a385-705cc1aa5f3c.jpg"",""img/0898/40f99fb2-64d2-4e72-8a7f-a1cf60741e69.jpg""]","",""
"","5821","similarity","74","570629","0.0-6.0-68.0","5","[""img/0902/c018bd7a-d91a-4192-aea4-7259cfcdb6c4.jpg"",""img/0764/b887d7c6-aa81-4637-af8e-05135757ac59.jpg""]","",""
"","4201","similarity","75","575836","0.0-6.0-69.0","7","[""img/0875/5a7c4e35-6514-4e12-8879-d16071da4cd6.jpg"",""img/0867/7d1c497b-c1b3-4ed8-abb5-d7f73306015f.jpg""]","",""
"","5478","similarity","76","582325","0.0-6.0-70.0","7","[""img/0766/d3bab2fc-ddcc-40a0-bb72-c0d0ebe19978.jpg"",""img/0764/fb7d4a20-a475-465e-a74f-aa39a0d33d16.jpg""]","",""
"","6569","similarity","77","589908","0.0-6.0-71.0","1","[""img/0894/492d2f29-d7b9-4422-8be8-47fd58bfaa8b.jpg"",""img/0867/5e07b34d-b40f-4b1c-ac10-49975bace45f.jpg""]","",""
"","6568","similarity","78","597484","0.0-6.0-72.0","3","[""img/0875/a4935837-7d3c-4df6-88c1-36a94d4991ca.jpg"",""img/0764/a3226bc4-dcc3-4608-bde8-1414d685ce5c.jpg""]","",""
"","7035","similarity","79","605524","0.0-6.0-73.0","6","[""img/0867/db7e032f-162b-46f5-ae67-2b29679adee4.jpg"",""img/0866/0207e9a2-7dbb-40b5-9459-b472aaeceb2a.jpg""]","",""
"","4163","similarity","80","610700","0.0-6.0-74.0","4","[""img/0903/59defeb8-98bd-4570-a2f8-9bd189e68ef4.jpg"",""img/0758/7fba58df-2a7a-4b76-8a8f-62739f97f271.jpg""]","",""
"","7329","similarity","81","619044","0.0-6.0-75.0","2","[""img/0766/dd3e18d0-0c98-4d05-b850-69976ee8cd75.jpg"",""img/0868/5fa7f9d0-f0e5-454c-8224-74d964818f56.jpg""]","",""
"","5795","similarity","82","625852","0.0-6.0-76.0","5","[""img/0874/bf14b896-e930-4fd9-9c05-2e83317a2773.jpg"",""img/0766/006035d8-c736-4daf-bbe4-a9e373af9da6.jpg""]","",""
"","5205","similarity","83","632077","0.0-6.0-77.0","1","[""img/0881/c24f3051-eefa-42de-aba6-fccb56d93c70.jpg"",""img/0868/4e626425-63c8-484a-8a1d-e66ee4e0bef8.jpg""]","",""
"","5712","similarity","84","638796","0.0-6.0-78.0","2","[""img/0758/caa93da2-9edf-49fa-96b9-32dedd8f5078.jpg"",""img/0901/875dedb9-24c9-4443-9f8c-85e97d70ee5a.jpg""]","",""
"","3642","similarity","85","643463","0.0-6.0-79.0","4","[""img/0881/ed4c971f-0873-4fc8-b6d6-e8bbd82f0bcc.jpg"",""img/0898/6cd3830b-d44e-4915-be2b-88d31424b91c.jpg""]","",""
"","5450","similarity","86","649926","0.0-6.0-80.0","1","[""img/0867/075e0f95-856b-4cbb-acf5-092393aaf04e.jpg"",""img/0758/61d64021-9214-4951-bdf8-f871f9827cf9.jpg""]","",""
"","5612","similarity","87","656558","0.0-6.0-81.0","5","[""img/0769/1afb527f-9887-428c-bd26-a12c2f9efb68.jpg"",""img/0899/51a7a498-98c7-42d7-bca8-bc2d8f0b5831.jpg""]","",""
"","5361","similarity","88","662932","0.0-6.0-82.0","6","[""img/0903/47e39de8-6959-469f-8be9-6999a6db207c.jpg"",""img/0903/07b445ee-0cdb-4d2c-a23b-d727613f4059.jpg""]","",""
"","5122","similarity","89","680891","0.0-6.0-83.0","5","[""img/0867/f26f6b60-f772-4f4c-95a4-addc62cfd692.jpg"",""img/0766/2da002a4-05c9-4f5c-9ed7-433b4183e273.jpg""]","",""
"","5421","similarity","90","687317","0.0-6.0-84.0","1","[""img/0902/7f1dcd35-237a-4995-9e42-7f63f3f434d4.jpg"",""img/0867/c71dc569-f49c-4397-8381-68b8d726736d.jpg""]","",""
"","4392","similarity","91","692716","0.0-6.0-85.0","3","[""img/0901/a6c90438-fa7c-4418-ac7c-16c2e772dd98.jpg"",""img/0875/2c361b79-c3d1-4eda-812e-bf03192407bf.jpg""]","",""
"","4444","similarity","92","698172","0.0-6.0-86.0","4","[""img/0764/978aede9-4590-4ad0-b234-135c83e5d669.jpg"",""img/0866/d493a2c8-66eb-44b4-be02-2f327b700b7c.jpg""]","",""
"","4172","similarity","93","703356","0.0-6.0-87.0","4","[""img/0901/a6776381-91fe-43f8-ab73-261d318f95fd.jpg"",""img/0894/7dd6ff43-f8fc-408a-8a41-a2b261871820.jpg""]","",""
"","4795","similarity","94","709159","0.0-6.0-88.0","5","[""img/0898/08c72dac-f8ad-407a-9ce6-8c9a5d679c3a.jpg"",""img/0769/e8ed913b-8a88-44f6-9327-d34afec3116b.jpg""]","",""
"","4948","similarity","95","715124","0.0-6.0-89.0","6","[""img/0769/9ea9ceb6-049e-4ad9-be8f-00645cd35803.jpg"",""img/0894/2d2db7b3-e8a3-499b-b63a-14f51bf73882.jpg""]","",""
"","6331","similarity","96","722463","0.0-6.0-90.0","2","[""img/0862/064818ee-13d5-4618-bb24-21c7368ea278.jpg"",""img/0874/ca76a855-4e77-4f2f-872a-0a718153e7ed.jpg""]","",""
"","5804","similarity","97","729276","0.0-6.0-91.0","5","[""img/0894/792c83e9-a747-4000-bc72-5663d2439edb.jpg"",""img/0766/717fd72f-a281-499b-a5ba-5e2ecc4d4866.jpg""]","",""
"","5904","similarity","98","736196","0.0-6.0-92.0","1","[""img/0874/a3bc679d-619f-4db6-bb68-116dcb757d9c.jpg"",""img/0867/de92135f-5b65-4ed9-b245-188292c7c2f8.jpg""]","",""
"","5402","similarity","99","742604","0.0-6.0-93.0","1","[""img/0899/0adc0bc3-6fca-4078-be6f-d45ddf1653d5.jpg"",""img/0868/fd307a36-9a3a-47d7-ab7c-f810d0b35040.jpg""]","",""
"","3860","similarity","100","747469","0.0-6.0-94.0","6","[""img/0903/72197c2b-403e-4a26-b391-f1aa8dea4b76.jpg"",""img/0862/7918ca67-5bd3-4606-a5ea-c39fb11a9297.jpg""]","",""
"","5226","similarity","101","753701","0.0-6.0-95.0","2","[""img/0899/7f9d45d0-b2c6-40d3-aa41-c207db2c411b.jpg"",""img/0766/110832e5-2646-4bd0-a94e-5df8cc314269.jpg""]","",""
"","5522","similarity","102","760230","0.0-6.0-96.0","6","[""img/0867/98d8cd96-1476-4fe0-a3a3-04f875500a1b.jpg"",""img/0868/1a62b2b2-18f5-466e-b564-5176a57c565e.jpg""]","",""
"","5108","similarity","103","766347","0.0-6.0-97.0","6","[""img/0862/e8cc3bdf-cc43-4565-bccf-492626c70953.jpg"",""img/0901/148b747a-7392-437e-8823-33053c5dff3f.jpg""]","",""
"","6722","similarity","104","774076","0.0-6.0-98.0","3","[""img/0875/5a1e5100-0d94-4fec-bbe9-ca9894d2cf8e.jpg"",""img/0766/71b81ebd-0937-4d7f-b8bf-c4e46a4728fd.jpg""]","",""
"","4158","similarity","105","779269","0.0-6.0-99.0","4","[""img/0758/d540bee6-b460-4c32-ac57-bc282742d7d4.jpg"",""img/0874/adf9a8f1-c40b-402b-b95b-1e85a54a7b62.jpg""]","",""
"","4776","similarity","106","785052","0.0-6.0-100.0","5","[""img/0904/60d1a521-edf7-4696-9263-f21ac0e62a01.jpg"",""img/0868/d6d1f30d-4323-435a-b194-7892521bc57e.jpg""]","",""
"","4995","similarity","107","791053","0.0-6.0-101.0","1","[""img/0903/0a92ec52-4e87-410a-857a-4455cde56a70.jpg"",""img/0866/945c6710-d15b-4a5b-a8f6-69af0850357f.jpg""]","",""
"","4697","similarity","108","796772","0.0-6.0-102.0","2","[""img/0868/293079b8-7e0c-4afd-a390-1e5d35fe3ded.jpg"",""img/0769/db94b61b-a5a7-4861-9d32-7b02ad194fb0.jpg""]","",""
"","6527","similarity","109","804304","0.0-6.0-103.0","5","[""img/0902/ca3160ba-ad5d-459f-a1b6-8b4f3c85ecd5.jpg"",""img/0899/57476fed-5962-4272-8fc9-b317bb777b54.jpg""]","",""
"","6141","similarity","110","811452","0.0-6.0-104.0","1","[""img/0868/7b212364-ff5f-4e28-9241-7eb6ea00161b.jpg"",""img/0862/cdaed51d-9e2f-4807-801a-4663c40077e2.jpg""]","",""
"","5612","similarity","111","818068","0.0-6.0-105.0","2","[""img/0903/31b5a5f4-b695-4af1-bad2-a19650a05498.jpg"",""img/0894/6b2e9509-8699-42b7-9582-7741df0ba2d7.jpg""]","",""
"","4583","similarity","112","823668","0.0-6.0-106.0","6","[""img/0864/9b2490c5-a282-400a-9736-e1a0ecbf1cb7.jpg"",""img/0874/85eb9b8a-c4c6-4e5a-b8e7-363a87a82054.jpg""]","",""
"","3351","similarity","113","828028","0.0-6.0-107.0","4","[""img/0862/57b6f83f-c763-4858-830d-102f97bfefbf.jpg"",""img/0902/30c420f5-c714-4681-ae5a-c0ba8f636a26.jpg""]","",""
"","5970","similarity","114","835004","0.0-6.0-108.0","5","[""img/0904/4d7d70a3-9477-4921-bda0-f9531d0a5c5b.jpg"",""img/0903/f1fa0f8d-e62b-4b4a-a174-31a0fabfe61b.jpg""]","",""
"","6021","similarity","115","842036","0.0-6.0-109.0","5","[""img/0764/958b8576-3a3b-4acc-96dc-06b74de69f37.jpg"",""img/0864/65210d57-1153-4657-886a-32e758f49b4a.jpg""]","",""
"","5694","similarity","116","848748","0.0-6.0-110.0","6","[""img/0866/620cd1aa-0800-4414-8f6e-90342e7a99ad.jpg"",""img/0894/10f22b96-040c-44f4-950b-a4963f3f506c.jpg""]","",""
"","4595","similarity","117","854348","0.0-6.0-111.0","4","[""img/0899/ad8268c5-8199-48d0-ad70-c5b6d6c599ec.jpg"",""img/0903/71dbc325-b588-4297-a5cf-7f268a722ad9.jpg""]","",""
"","4446","similarity","118","859804","0.0-6.0-112.0","6","[""img/0902/d49743d6-67ae-4c2e-a939-8fd895a0f18e.jpg"",""img/0904/696ebb60-8891-417a-91fd-c53218907a95.jpg""]","",""
"","5440","similarity","119","866269","0.0-6.0-113.0","4","[""img/0864/da39ad34-04e0-40d4-a724-c08d53e0ea09.jpg"",""img/0860/c47fdead-eb02-4989-b078-26f4852f44fe.jpg""]","",""
"","3970","similarity","120","871260","0.0-6.0-114.0","4","[""img/0860/9593362c-9fe5-4d12-9735-6000a11f6aa5.jpg"",""img/0899/66bf4113-ee12-426c-84d2-ea410b6c803e.jpg""]","",""
"","5839","similarity","121","878116","0.0-6.0-115.0","3","[""img/0881/e046471a-35b4-4159-bbf7-3cfd201bef66.jpg"",""img/0903/8c358e9e-a4f4-466e-8b93-7aec0d2358e8.jpg""]","",""
"","5602","similarity","122","884741","0.0-6.0-116.0","5","[""img/0894/e2446cf5-cd48-486a-badc-76498e087fbe.jpg"",""img/0874/2c9464dd-8a23-4baa-ac94-1ba3af5c15cc.jpg""]","",""
"","4352","similarity","123","890100","0.0-6.0-117.0","4","[""img/0881/0c7068da-d0d9-4103-bda1-74ef7a2b32c3.jpg"",""img/0862/847e5208-38ec-4f36-949c-296cdd7424ee.jpg""]","",""
"","5069","similarity","124","896188","0.0-6.0-118.0","3","[""img/0868/77091fc7-a590-4ebb-b915-fdb2483a2399.jpg"",""img/0875/ebf7653f-ff45-4e9f-af58-2c042ab3cd2b.jpg""]","",""
"","5451","similarity","125","902644","0.0-6.0-119.0","4","[""img/0860/8a92e21b-6a32-4e4a-a445-2d5a487ed0a4.jpg"",""img/0758/e1ba5e53-addc-436a-b428-d34fc1b130dc.jpg""]","",""
"","4449","similarity","126","908102","0.0-6.0-120.0","1","[""img/0864/6f631579-acf1-415c-a42c-1207f62a8d99.jpg"",""img/0875/42910c99-5463-450a-a0f8-d4d060a11455.jpg""]","",""
"","5780","similarity","127","914901","0.0-6.0-121.0","1","[""img/0898/ec565187-2e31-4fdd-9a5c-153d0c789ae0.jpg"",""img/0866/a15b02be-11bb-43e3-b0e0-ecc3bd7dfc49.jpg""]","",""
"","5273","similarity","128","921180","0.0-6.0-122.0","3","[""img/0874/995f0332-0439-4eb4-add3-957335dbf6d9.jpg"",""img/0904/65e2b70a-b184-4da3-b5c0-5038bdf9469a.jpg""]","",""
"","6137","similarity","129","928324","0.0-6.0-123.0","2","[""img/0904/25365108-e038-4021-aac9-797f2063b337.jpg"",""img/0864/ef9cbca0-4be8-435d-ad49-977259e80409.jpg""]","",""
"","4837","similarity","130","934164","0.0-6.0-124.0","6","[""img/0894/05161000-f476-499b-a878-c13c7f347fd9.jpg"",""img/0902/4e0baa32-988e-46f6-989d-f669225ab645.jpg""]","",""
"","5067","similarity","131","949140","0.0-6.0-125.0","1","[""img/0868/3a62db2d-97e9-44a3-b8e3-a48c6f0e423b.jpg"",""img/0864/87c467d3-abca-482f-ad80-3766c21b1bb3.jpg""]","",""
"","7187","similarity","132","957365","0.0-6.0-126.0","4","[""img/0899/565ccdd9-0933-4536-a625-3c0e25a713dd.jpg"",""img/0866/c446214b-a368-4c65-ae39-ea46894256ab.jpg""]","",""
"","3876","similarity","133","962252","0.0-6.0-127.0","5","[""img/0875/03c3c331-738b-4446-af92-3d7386b08c2e.jpg"",""img/0904/06dacdc5-2206-4fb8-92b7-88042d22833c.jpg""]","",""
"","6539","similarity","134","969804","0.0-6.0-128.0","2","[""img/0867/a749dddb-69f0-44a6-acdc-2bf295cf6dcc.jpg"",""img/0899/7b7380d5-d2be-44e5-a09a-c1756f87ef71.jpg""]","",""
"","5060","similarity","135","975884","0.0-6.0-129.0","5","[""img/0901/168eb52c-c415-43f1-b5c8-e76e1a1ec247.jpg"",""img/0867/2e1a0b58-cdb1-4107-a14e-452530d7b9b0.jpg""]","",""
"","8321","similarity","136","985228","0.0-6.0-130.0","2","[""img/0864/b3c4e378-28f0-4699-9338-2a257b4bca04.jpg"",""img/0769/458d9c77-b844-40b5-bb1b-1e3bbd4da64e.jpg""]","",""
"","6212","similarity","137","992460","0.0-6.0-131.0","2","[""img/0903/b7e3723f-fd03-4f3d-8820-f19496463a34.jpg"",""img/0868/15dd6fd7-791e-4b53-b203-195d617521a4.jpg""]","",""
"","5346","similarity","138","998820","0.0-6.0-132.0","1","[""img/0864/3651d070-2fc5-4848-b6a6-088a2d9ac5c9.jpg"",""img/0867/1719a35d-f085-48c0-9099-16c94fe418b4.jpg""]","",""
"","4384","similarity","139","1004220","0.0-6.0-133.0","6","[""img/0901/f1116359-1ff1-4638-b3b3-700918d36d18.jpg"",""img/0860/61fb959d-d4d9-4de4-9e4e-4fa62b4cfcd5.jpg""]","",""
"","4737","similarity","140","1009972","0.0-6.0-134.0","6","[""img/0881/db77fe00-aeb0-4d1d-aa66-f3a96fd077e4.jpg"",""img/0766/d919cedb-f9b7-4f30-83bb-3e9c65001ceb.jpg""]","",""
"","5171","similarity","141","1016148","0.0-6.0-135.0","6","[""img/0903/647ce311-8c71-479a-8361-961db1457139.jpg"",""img/0864/0116ca98-293d-4fa6-a93b-5a6144ef64cc.jpg""]","",""
"","4093","similarity","142","1021260","0.0-6.0-136.0","4","[""img/0758/b76ceca7-95ac-46e4-ac13-da02c8e93be9.jpg"",""img/0894/9b1333fd-3561-43bf-aee5-99b7b7ca3dc3.jpg""]","",""
"","6094","similarity","143","1028363","0.0-6.0-137.0","5","[""img/0769/057eb0a0-aa5b-40c7-9852-21444f68d767.jpg"",""img/0860/8277806e-b684-4474-8f7b-3fca946d7d4f.jpg""]","",""
"","8611","similarity","144","1037980","0.0-6.0-138.0","3","[""img/0904/73920552-103b-4c9c-9ece-e0b8376b4504.jpg"",""img/0766/0025de5e-f620-4079-8a0f-00326ff3a6b0.jpg""]","",""
"","5763","similarity","145","1044748","0.0-6.0-139.0","2","[""img/0868/4bd5105a-d2c3-4f82-8c80-57196106ba53.jpg"",""img/0860/702bd09d-df3a-40aa-a267-5f04474305b5.jpg""]","",""
"","4858","similarity","146","1050611","0.0-6.0-140.0","7","[""img/0758/f61ecdf8-a7d4-4db0-b84d-be46f7cfaffc.jpg"",""img/0864/c3b63e8f-ea39-4d70-a1f2-b3fe4be8eb75.jpg""]","",""
"","3789","similarity","147","1055420","0.0-6.0-141.0","7","[""img/0867/85a96c62-548f-4994-9553-819e03c3135a.jpg"",""img/0867/179ab87a-8eac-4c52-a41f-2e48e3120f09.jpg""]","",""
"","5557","similarity","148","1061980","0.0-6.0-142.0","6","[""img/0898/993d8f2d-bef7-4251-a193-0f93a32b7763.jpg"",""img/0898/661621d4-a14e-487c-8c74-354134a29710.jpg""]","",""
"","6354","similarity","149","1069340","0.0-6.0-143.0","3","[""img/0866/f756f7d1-9ad8-4a34-9ef6-7a443d705bfe.jpg"",""img/0769/75f7e514-0548-4329-b1e4-93c05e74f038.jpg""]","",""
"","5513","similarity","150","1075860","0.0-6.0-144.0","1","[""img/0860/4c530c3c-6aab-492a-94d1-9c01797bde40.jpg"",""img/0898/0c7dde4f-efce-4b7a-9387-6921635b7890.jpg""]","",""
"","4832","similarity","151","1081699","0.0-6.0-145.0","2","[""img/0766/ae0fce93-fe8d-4aa1-87ca-4c3e4b889f2f.jpg"",""img/0864/5f74a653-3bdc-4308-8cca-ac667dc22e1f.jpg""]","",""
"","5000","similarity","152","1087707","0.0-6.0-146.0","6","[""img/0860/e8b8c51e-1834-4875-8b61-6c5bc9b178bd.jpg"",""img/0903/8931c67c-a43d-47d3-a4c9-42aa2f81d344.jpg""]","",""
"","7150","similarity","153","1095875","0.0-6.0-147.0","5","[""img/0867/8ba0c5a7-c7e4-42cf-a80a-543763b90779.jpg"",""img/0764/c01e2d65-6586-441b-bef5-3c96fcd85380.jpg""]","",""
"","4981","similarity","154","1101867","0.0-6.0-148.0","7","[""img/0769/ecda2fb3-556b-43ba-8a67-e87dd75ff2b4.jpg"",""img/0904/96e503ea-6630-4996-85f2-0237688ce441.jpg""]","",""
"","4908","similarity","155","1107794","0.0-6.0-149.0","5","[""img/0764/55b3fab1-b809-4d38-a461-3f40ce062f52.jpg"",""img/0901/effc03f6-8f9d-46db-a66c-16fc83891c5c.jpg""]","",""
"","5704","similarity","156","1114506","0.0-6.0-150.0","6","[""img/0904/da170c1b-9651-4f08-b231-2bdd1d9a046f.jpg"",""img/0899/1b3457ea-87d4-4946-a01c-aac1863ed46c.jpg""]","",""
"","5855","similarity","157","1121379","0.0-6.0-151.0","1","[""img/0862/92f0146c-20c4-482e-aef5-adb693790338.jpg"",""img/0867/26611f4e-d694-4460-b7e2-43c62753ddc3.jpg""]","",""
"","6443","similarity","158","1128826","0.0-6.0-152.0","7","[""img/0766/db750ba0-ce04-46e1-b601-e1b80212bad2.jpg"",""img/0766/1865bfc9-2410-4765-a804-3ae4ba2393d0.jpg""]","",""
"","5825","similarity","159","1135659","0.0-6.0-153.0","2","[""img/0862/24cdc752-c2e5-4a17-86a6-6f2045d8553b.jpg"",""img/0894/767a0eec-1064-46b1-b1aa-dfa02b0cd74e.jpg""]","",""
"","5464","similarity","160","1142131","0.0-6.0-154.0","1","[""img/0899/fef567a2-c121-4481-9af0-ff108d199bbf.jpg"",""img/0901/3db47171-0139-4235-82cd-0b1787b6775f.jpg""]","",""
"","4855","similarity","161","1148004","0.0-6.0-155.0","7","[""img/0874/93d1f8dc-acf2-4f03-bd8d-8ec35df276ed.jpg"",""img/0874/8cdb1c07-1c32-46d2-981c-3636560fa6e5.jpg""]","",""
"","5395","similarity","162","1154403","0.0-6.0-156.0","6","[""img/0860/31ff6436-98bf-4652-bed2-40f627229568.jpg"",""img/0867/12264664-1860-46df-8c21-162b9817cdda.jpg""]","",""
"","6586","similarity","163","1161996","0.0-6.0-157.0","3","[""img/0901/5657dd86-0ff9-4753-ba2b-9dfb223e5c89.jpg"",""img/0881/566f45f8-5fed-4479-a60f-26377e60a62d.jpg""]","",""
"","5341","similarity","164","1168347","0.0-6.0-158.0","6","[""img/0903/005ad0de-4f52-433c-b515-dbe8d46184a3.jpg"",""img/0902/f3cfec34-482c-4bdb-9c92-19ea6cfce183.jpg""]","",""
"","5385","similarity","165","1174748","0.0-6.0-159.0","2","[""img/0860/87039971-2210-4aab-93c0-8e9b5f1655b2.jpg"",""img/0764/1def7b22-b054-4ec2-860b-73d25691823b.jpg""]","",""
"","5266","similarity","166","1181020","0.0-6.0-160.0","4","[""img/0902/d3e55000-c839-4bf9-9b9b-4af0a9925af1.jpg"",""img/0875/3ecb367d-e9eb-4826-8aaa-7aa72fb98019.jpg""]","",""
"","5322","similarity","167","1187350","0.0-6.0-161.0","2","[""img/0898/224c1572-56b9-4f16-a9e4-6f3bc9c114bd.jpg"",""img/0862/a0a3a7ba-7798-46a3-b4ca-05e1f6e581d0.jpg""]","",""
"","4833","similarity","168","1193187","0.0-6.0-162.0","6","[""img/0894/6aa5545f-fa7d-4286-bbaa-aaf34dc7ec96.jpg"",""img/0875/cff79b3a-a797-4393-9757-6275f999ec04.jpg""]","",""
"","5098","similarity","169","1199307","0.0-6.0-163.0","1","[""img/0866/9b38d691-1802-4959-ab3f-fc902f0e4ea6.jpg"",""img/0864/f92649a2-0590-4d31-9a7a-1bfb81666a2d.jpg""]","",""
"","5369","similarity","170","1205715","0.0-6.0-164.0","5","[""img/0766/fd74fdbb-ea40-4f3a-a091-38d08dfd636e.jpg"",""img/0862/00c06b00-3b73-44e9-bc1e-c5aafb438321.jpg""]","",""
"","4310","similarity","171","1211043","0.0-6.0-165.0","1","[""img/0866/d266fece-59b3-46fa-b69f-96f6efb81b59.jpg"",""img/0874/1016b306-087c-4afc-aa08-fa527b28dc76.jpg""]","",""
"","4186","similarity","172","1216243","0.0-6.0-166.0","5","[""img/0862/fb26cb07-d5a9-4653-813c-f41609f26cd5.jpg"",""img/0860/c5ccd1a4-4bb7-48e1-9b25-72cfaf06909b.jpg""]","",""
"","5815","similarity","173","1237194","0.0-6.0-167.0","1","[""img/0766/908bc45b-7c9e-4f95-806e-86b196ebcb2c.jpg"",""img/0901/a2d7b2f6-396b-4d91-8403-de5361c74af7.jpg""]","",""
"","6144","similarity","174","1244346","0.0-6.0-168.0","6","[""img/0862/47ed5efd-4ec9-4b74-bb4e-a5f5cf0c3e7d.jpg"",""img/0862/5d887e9f-89e2-4ebc-80a0-6d46fe6480db.jpg""]","",""
"","4763","similarity","175","1250114","0.0-6.0-169.0","5","[""img/0894/e6385e52-6c35-43bd-b0af-bc803d107b11.jpg"",""img/0764/c84fbfa8-521c-407a-9bd3-24f7308d896c.jpg""]","",""
"","5936","similarity","176","1257059","0.0-6.0-170.0","3","[""img/0874/c0378dac-9370-439a-8b79-db27c96fb390.jpg"",""img/0898/82231d4c-218b-4d0a-b50d-35a49b524e97.jpg""]","",""
"","5347","similarity","177","1263420","0.0-6.0-171.0","2","[""img/0860/4f695df5-afac-4da7-9875-fee39b0b24ad.jpg"",""img/0766/b84598d0-5b41-4841-88b0-b441b48289f5.jpg""]","",""
"","3902","similarity","178","1268347","0.0-6.0-172.0","4","[""img/0898/b2732712-71c2-45d8-834f-2b2ed5504910.jpg"",""img/0864/8ddd2e30-a1d0-479f-9cbe-591213023893.jpg""]","",""
"","5908","similarity","179","1275259","0.0-6.0-173.0","5","[""img/0881/44e09805-5a25-4f17-a716-4ad4a331b174.jpg"",""img/0764/ba0c0955-acbb-457d-b1c2-f006b88121d5.jpg""]","",""
"","4137","similarity","180","1280411","0.0-6.0-174.0","1","[""img/0898/a8f16b02-e19f-423b-86c3-a36562ae1f9b.jpg"",""img/0868/d98ca254-b195-477f-b57e-5760a2717db8.jpg""]","",""
"","5080","similarity","181","1286501","0.0-6.0-175.0","7","[""img/0864/1d15626a-2f7c-410f-819c-0fa2c967e95e.jpg"",""img/0864/e336a4c5-6648-4fd7-b2f6-93a3fb83f8c6.jpg""]","",""
"","7486","similarity","182","1295003","0.0-6.0-176.0","5","[""img/0899/93494f3b-d539-4075-b027-d82e344563da.jpg"",""img/0862/eefa5588-9efd-4591-aa5f-a2e17c7d7bcc.jpg""]","",""
"","5763","similarity","183","1301771","0.0-6.0-177.0","1","[""img/0875/99698b4d-b4a1-44bc-8c83-8ea755bbbf61.jpg"",""img/0758/a709631e-3705-4725-ac40-f0d916924f08.jpg""]","",""
"","5403","similarity","184","1308188","0.0-6.0-178.0","2","[""img/0866/02f5e6b9-52b7-448c-9708-5b460d0c9a23.jpg"",""img/0901/d6d15b1c-4a30-4f74-a3fd-d4c8ee4169ca.jpg""]","",""
"","5183","similarity","185","1314396","0.0-6.0-179.0","5","[""img/0769/8598a429-c671-4d2f-842c-32f681f5e412.jpg"",""img/0874/7e4f2150-3b59-4a36-b5da-a4e0ba410531.jpg""]","",""
"","5946","similarity","186","1321347","0.0-6.0-180.0","2","[""img/0875/8521fd58-3b1e-4dc5-97ae-804edfa6734a.jpg"",""img/0881/4da99fdd-1f40-4bbb-8e21-8833eef313f5.jpg""]","",""
"","6266","similarity","187","1328620","0.0-6.0-181.0","5","[""img/0866/be24ab58-230e-4db8-9f45-ff04c9aec6bb.jpg"",""img/0868/e0aff734-077f-40dd-9781-74821abd3621.jpg""]","",""
"","5737","similarity","188","1335363","0.0-6.0-182.0","5","[""img/0899/5b56dd3e-3f49-47cc-af84-16da6457753b.jpg"",""img/0758/9fb5b2fe-3f00-4fe6-973c-1ce10d5f4cd5.jpg""]","",""
"","6622","similarity","189","1343003","0.0-6.0-183.0","5","[""img/0874/99f6563c-8a8d-4c1c-a41d-667b618c3fd5.jpg"",""img/0875/fb732ab5-013a-4366-9f65-27811ed157e9.jpg""]","",""
"","3682","similarity","190","1347691","0.0-6.0-184.0","4","[""img/0904/9d30eff1-46ef-4453-b11e-124ef8145c00.jpg"",""img/0862/fad1d7c1-8187-43c3-942a-0fc12183e48e.jpg""]","",""
"","5951","similarity","191","1354660","0.0-6.0-185.0","3","[""img/0902/7499db23-3a41-41ea-ab5b-6ab4d4c3ed35.jpg"",""img/0766/60033a74-9919-47e5-913c-71d0d483e7e5.jpg""]","",""
"","6705","similarity","192","1362372","0.0-6.0-186.0","4","[""img/0758/d57c2592-a317-4f63-91be-91a3a9afd222.jpg"",""img/0769/8056889f-2b14-4782-bb25-b4e8896ab65b.jpg""]","",""
"","5026","similarity","193","1368403","0.0-6.0-187.0","7","[""img/0881/adc02f34-ce97-4aef-850f-00519df06fd7.jpg"",""img/0881/f4e3e181-b3c9-4af2-a5a4-fc135ab70d2e.jpg""]","",""
"","5792","similarity","194","1375211","0.0-6.0-188.0","1","[""img/0758/821c68d3-5cb0-4eae-8659-30e6263fca39.jpg"",""img/0866/a04d37f0-99dd-478a-b6c6-58b215138f84.jpg""]","",""
"","5654","similarity","195","1381876","0.0-6.0-189.0","6","[""img/0764/5d6fa3ce-9083-410c-bbdb-336a49b94cfc.jpg"",""img/0898/cd3aaa3f-efa9-4ab3-8d6f-a6a9273ddf42.jpg""]","",""
"","5756","similarity","196","1388644","0.0-6.0-190.0","6","[""img/0903/365f176c-25a4-4973-bd3c-279bf1b39476.jpg"",""img/0901/58ec7fa9-b466-4651-90aa-c082df0972de.jpg""]","",""
"","4945","similarity","197","1394603","0.0-6.0-191.0","6","[""img/0902/44cd9b7e-fdfb-4f78-90de-8d4c9d279365.jpg"",""img/0898/04e39a7a-fcf6-4156-ab0e-f5871f335e1c.jpg""]","",""
"","4283","similarity","198","1399891","0.0-6.0-192.0","1","[""img/0864/300bb811-8b3c-4c42-8653-6097c3725197.jpg"",""img/0901/c6c877e0-dd63-4e00-9657-33af29d55aab.jpg""]","",""
"","4082","similarity","199","1404987","0.0-6.0-193.0","4","[""img/0894/3adef67d-7676-4995-80b2-bb31b8aca3ef.jpg"",""img/0881/62a64f90-7a72-4aee-a1a1-0c548ac9bdda.jpg""]","",""
"","4578","similarity","200","1410571","0.0-6.0-194.0","6","[""img/0868/4a8a45ed-2c4f-421b-9564-409a33ecd26c.jpg"",""img/0868/8b0b8473-e2c0-4331-aa56-c3a5c29369da.jpg""]","",""
"","6802","similarity","201","1418387","0.0-6.0-195.0","5","[""img/0899/8abe6c69-822c-436c-9bf2-96c818b49ba5.jpg"",""img/0764/f713847b-4832-42d1-8fb3-e17e37fd745c.jpg""]","",""
"","5242","similarity","202","1424635","0.0-6.0-196.0","6","[""img/0881/405484ae-0d00-4b05-bc57-6420a36adfac.jpg"",""img/0904/fe746a3f-8458-48d0-8a13-8cba2a9df9f8.jpg""]","",""
"","4772","similarity","203","1430411","0.0-6.0-197.0","5","[""img/0864/e02eddb5-f468-499c-91bf-f7be3ffe979b.jpg"",""img/0902/a6fb6dd5-696c-47ec-be7d-d7b88f1544f1.jpg""]","",""
"","6297","similarity","204","1437715","0.0-6.0-198.0","5","[""img/0894/bd34223a-2f66-4e16-9d18-193a746b69ff.jpg"",""img/0904/63dd06dd-dccb-47ba-9740-eb33239e18a7.jpg""]","",""
"","5674","similarity","205","1444395","0.0-6.0-199.0","7","[""img/0901/33b51a81-06d9-46d9-9d4f-5a2d6d6b8058.jpg"",""img/0901/4ca4f962-40c0-4c59-b14a-3cd7b8c9029b.jpg""]","",""
"","4404","similarity","206","1449819","0.0-6.0-200.0","2","[""img/0894/151063aa-6472-4745-837b-36603aba5966.jpg"",""img/0860/99c589b9-9140-4d17-90c0-b344323edcda.jpg""]","",""
"","6039","similarity","207","1456875","0.0-6.0-201.0","6","[""img/0898/5f699581-3853-4547-856c-12f419ba5af7.jpg"",""img/0903/0e5c2854-42aa-48c0-9c3d-6e1ad2a400bd.jpg""]","",""
"","5470","similarity","208","1463363","0.0-6.0-202.0","2","[""img/0864/6e846d43-94a6-4b37-a268-65eda979f052.jpg"",""img/0894/2217bdcd-23a7-42d3-823b-23f2488d7e87.jpg""]","",""
"","5819","similarity","209","1470187","0.0-6.0-203.0","3","[""img/0874/ca23d307-fc00-4d7d-9106-584c6eb21b4d.jpg"",""img/0860/524b2e98-5767-4d53-942c-ebae6925659b.jpg""]","",""
"","5914","similarity","210","1477108","0.0-6.0-204.0","1","[""img/0862/ad593cc7-cabe-4bb7-8e14-8a447a0717b4.jpg"",""img/0875/e7e66b13-b573-431e-b85e-288ce04a35a3.jpg""]","",""
"","4254","similarity","211","1482377","0.0-6.0-205.0","1","[""img/0867/50a1b60e-3a29-44bf-b606-d4bd3746fea9.jpg"",""img/0881/f6bd3b96-dc40-4e99-8681-bc3a35cf896d.jpg""]","",""
"","5459","similarity","212","1488843","0.0-6.0-206.0","5","[""img/0901/6e2957f8-f5ab-46f4-87cc-bb50155a098b.jpg"",""img/0902/24d10fe7-314f-4d5a-8c7b-b43121bba0a4.jpg""]","",""
"","6328","similarity","213","1496179","0.0-6.0-207.0","5","[""img/0899/d60714ae-98d7-4564-8c98-94dba1351135.jpg"",""img/0864/afcba0a3-7e27-4757-b254-e9f05fad27e2.jpg""]","",""
"","5961","similarity","214","1503147","0.0-6.0-208.0","2","[""img/0901/bc47e078-bda4-40ed-b89a-bbd819164b95.jpg"",""img/0769/c7cfacc3-7f07-46ff-9f5d-8073f4c4679b.jpg""]","",""
"","5769","similarity","215","1519835","0.0-6.0-209.0","7","[""img/0902/962f645e-9b55-4628-9b50-c703422bfe1a.jpg"",""img/0902/417d8b4a-3c72-4adc-ac78-820e833316f2.jpg""]","",""
"[{""page_index"":0,""viewing_time"":2585}]","2585","instructions","216","1523427","0.0-7.0","","","",""
"","32075","image-multi-choice","217","1556532","0.0-8.0-0.0","","","{""Q0"":""Yellow Warbler""}","Nashville Warbler"
"","5901","image-multi-choice","218","1563451","0.0-8.0-1.0","","","{""Q0"":""Black-and-white Warbler""}","Black-and-white Warbler"
"","19989","image-multi-choice","219","1584459","0.0-8.0-2.0","","","{""Q0"":""Blackburnian Warbler""}","Townsend's Warbler"
"","7368","image-multi-choice","220","1592851","0.0-8.0-3.0","","","{""Q0"":""Ovenbird""}","Lark Sparrow"
"","14241","image-multi-choice","221","1608116","0.0-8.0-4.0","","","{""Q0"":""Townsend's Warbler""}","Yellow Warbler"
"","33008","image-multi-choice","222","1642147","0.0-8.0-5.0","","","{""Q0"":""Orange-crowned Warbler""}","Orange-crowned Warbler"
"","18324","image-multi-choice","223","1661507","0.0-8.0-6.0","","","{""Q0"":""Chipping Sparrow""}","White-throated Sparrow"
"","12502","image-multi-choice","224","1675043","0.0-8.0-7.0","","","{""Q0"":""Northern Waterthrush""}","Fox Sparrow"
"","5577","image-multi-choice","225","1681659","0.0-8.0-8.0","","","{""Q0"":""Chipping Sparrow""}","Song Sparrow"
"","8829","image-multi-choice","226","1691515","0.0-8.0-9.0","","","{""Q0"":""Magnolia Warbler""}","Blackburnian Warbler"
"","7603","image-multi-choice","227","1700147","0.0-8.0-10.0","","","{""Q0"":""Fox Sparrow""}","Vesper Sparrow"
"","20886","image-multi-choice","228","1722059","0.0-8.0-11.0","","","{""Q0"":""White-crowned Sparrow""}","White-crowned Sparrow"
"","11234","image-multi-choice","229","1734322","0.0-8.0-12.0","","","{""Q0"":""Lincoln's Sparrow""}","American Tree Sparrow"
"","18700","image-multi-choice","230","1754051","0.0-8.0-13.0","","","{""Q0"":""Townsend's Warbler""}","Tennessee Warbler"
"","20555","image-multi-choice","231","1775643","0.0-8.0-14.0","","","{""Q0"":""Nashville Warbler""}","Magnolia Warbler"
"","7311","image-multi-choice","232","1784003","0.0-8.0-15.0","","","{""Q0"":""Northern Waterthrush""}","Northern Waterthrush"
"","7707","image-multi-choice","233","1792731","0.0-8.0-16.0","","","{""Q0"":""American Tree Sparrow""}","Chipping Sparrow"
"","9522","image-multi-choice","234","1803311","0.0-8.0-17.0","","","{""Q0"":""Lincoln's Sparrow""}","Swamp Sparrow"
"","8991","image-multi-choice","235","1813340","0.0-8.0-18.0","","","{""Q0"":""Vesper Sparrow""}","Lincoln's Sparrow"
"","23458","image-multi-choice","236","1837835","0.0-8.0-19.0","","","{""Q0"":""Ovenbird""}","Ovenbird"
