[{"view_history":"[{\"page_index\":0,\"viewing_time\":28487}]","rt":28489,"trial_type":"instructions","trial_index":0,"time_elapsed":28491,"internal_node_id":"0.0-0.0"},{"sim_score":5,"rt":7245,"stimulus":"[\"img/866.jpg\",\"img/868.jpg\"]","trial_type":"similarity_demo","trial_index":1,"time_elapsed":36756,"internal_node_id":"0.0-1.0"},{"view_history":"[{\"page_index\":0,\"viewing_time\":13214}]","rt":13215,"trial_type":"instructions","trial_index":2,"time_elapsed":50972,"internal_node_id":"0.0-2.0"},{"sim_score":3,"rt":4968,"stimulus":"[\"img/766.jpg\",\"img/867.jpg\"]","trial_type":"similarity_demo","trial_index":3,"time_elapsed":56950,"internal_node_id":"0.0-3.0"},{"view_history":"[{\"page_index\":0,\"viewing_time\":5592}]","rt":5593,"trial_type":"instructions","trial_index":4,"time_elapsed":63543,"internal_node_id":"0.0-4.0"},{"view_history":"[{\"page_index\":0,\"viewing_time\":25925}]","rt":25926,"trial_type":"instructions","trial_index":5,"time_elapsed":90470,"internal_node_id":"0.0-5.0"},{"sim_score":3,"rt":5645,"stimulus":"[\"img/0868/d6d1f30d-4323-435a-b194-7892521bc57e.jpg\",\"img/0901/b453df0b-4c39-49bb-8ced-6127efffa898.jpg\"]","trial_type":"similarity","trial_index":6,"time_elapsed":97140,"internal_node_id":"0.0-6.0-0.0"},{"sim_score":3,"rt":4424,"stimulus":"[\"img/0769/0fe124d3-bcad-45f6-b64d-8f6eb8ee5251.jpg\",\"img/0867/179ab87a-8eac-4c52-a41f-2e48e3120f09.jpg\"]","trial_type":"similarity","trial_index":7,"time_elapsed":102573,"internal_node_id":"0.0-6.0-1.0"},{"sim_score":5,"rt":4275,"stimulus":"[\"img/0766/60033a74-9919-47e5-913c-71d0d483e7e5.jpg\",\"img/0898/b2732712-71c2-45d8-834f-2b2ed5504910.jpg\"]","trial_type":"similarity","trial_index":8,"time_elapsed":107885,"internal_node_id":"0.0-6.0-2.0"},{"sim_score":3,"rt":4693,"stimulus":"[\"img/0902/7f1dcd35-237a-4995-9e42-7f63f3f434d4.jpg\",\"img/0881/e6746727-7f89-47ec-b939-d98abe78372d.jpg\"]","trial_type":"similarity","trial_index":9,"time_elapsed":113586,"internal_node_id":"0.0-6.0-3.0"},{"sim_score":6,"rt":4290,"stimulus":"[\"img/0894/a3d4170b-b7d8-40e3-955f-87e76ed745fc.jpg\",\"img/0894/3664e04c-c6d3-4c9b-afb6-25d89974b174.jpg\"]","trial_type":"similarity","trial_index":10,"time_elapsed":118887,"internal_node_id":"0.0-6.0-4.0"},{"sim_score":3,"rt":6111,"stimulus":"[\"img/0874/7e4f2150-3b59-4a36-b5da-a4e0ba410531.jpg\",\"img/0899/fd9efb43-701f-4cd6-baaa-4c38315f4bdc.jpg\"]","trial_type":"similarity","trial_index":11,"time_elapsed":126007,"internal_node_id":"0.0-6.0-5.0"},{"sim_score":6,"rt":3945,"stimulus":"[\"img/0904/4d7d70a3-9477-4921-bda0-f9531d0a5c5b.jpg\",\"img/0764/6ef77040-1fae-4afa-bfe7-eda98e6d0376.jpg\"]","trial_type":"similarity","trial_index":12,"time_elapsed":130960,"internal_node_id":"0.0-6.0-6.0"},{"sim_score":6,"rt":4157,"stimulus":"[\"img/0899/ad8268c5-8199-48d0-ad70-c5b6d6c599ec.jpg\",\"img/0898/6cd3830b-d44e-4915-be2b-88d31424b91c.jpg\"]","trial_type":"similarity","trial_index":13,"time_elapsed":136131,"internal_node_id":"0.0-6.0-7.0"},{"sim_score":3,"rt":3663,"stimulus":"[\"img/0874/ca76a855-4e77-4f2f-872a-0a718153e7ed.jpg\",\"img/0903/c3cb4a01-2797-43ca-b216-88c67b323fbb.jpg\"]","trial_type":"similarity","trial_index":14,"time_elapsed":140803,"internal_node_id":"0.0-6.0-8.0"},{"sim_score":6,"rt":4626,"stimulus":"[\"img/0881/62a64f90-7a72-4aee-a1a1-0c548ac9bdda.jpg\",\"img/0758/d41c06bf-ebaf-454b-91c6-1a17f917b659.jpg\"]","trial_type":"similarity","trial_index":15,"time_elapsed":146440,"internal_node_id":"0.0-6.0-9.0"},{"sim_score":6,"rt":5112,"stimulus":"[\"img/0898/0af304a2-6a7a-4082-ab7c-4450cd08cc58.jpg\",\"img/0901/3db47171-0139-4235-82cd-0b1787b6775f.jpg\"]","trial_type":"similarity","trial_index":16,"time_elapsed":152559,"internal_node_id":"0.0-6.0-10.0"},{"sim_score":5,"rt":3707,"stimulus":"[\"img/0903/f10e9eb5-0c21-4a6a-944c-5f10a6d0fa4d.jpg\",\"img/0769/458d9c77-b844-40b5-bb1b-1e3bbd4da64e.jpg\"]","trial_type":"similarity","trial_index":17,"time_elapsed":157275,"internal_node_id":"0.0-6.0-11.0"},{"sim_score":2,"rt":3678,"stimulus":"[\"img/0764/7f4ee8e3-9315-4a57-be7d-db8454b33766.jpg\",\"img/0868/7b212364-ff5f-4e28-9241-7eb6ea00161b.jpg\"]","trial_type":"similarity","trial_index":18,"time_elapsed":161960,"internal_node_id":"0.0-6.0-12.0"},{"sim_score":4,"rt":3584,"stimulus":"[\"img/0867/bf560d4f-dee3-4f11-a385-705cc1aa5f3c.jpg\",\"img/0903/6a87dbad-9b8d-4ff5-9c41-03c9aa24f0c3.jpg\"]","trial_type":"similarity","trial_index":19,"time_elapsed":166552,"internal_node_id":"0.0-6.0-13.0"},{"sim_score":3,"rt":17245,"stimulus":"[\"img/0766/110832e5-2646-4bd0-a94e-5df8cc314269.jpg\",\"img/0758/61d64021-9214-4951-bdf8-f871f9827cf9.jpg\"]","trial_type":"similarity","trial_index":20,"time_elapsed":184803,"internal_node_id":"0.0-6.0-14.0"},{"sim_score":3,"rt":5647,"stimulus":"[\"img/0902/07437a16-3d0f-4a5c-89ec-36d0efa4b3b8.jpg\",\"img/0860/b03b963d-949b-4d8d-b19c-4950c89eeca2.jpg\"]","trial_type":"similarity","trial_index":21,"time_elapsed":191457,"internal_node_id":"0.0-6.0-15.0"},{"sim_score":3,"rt":4180,"stimulus":"[\"img/0769/ecda2fb3-556b-43ba-8a67-e87dd75ff2b4.jpg\",\"img/0875/dbdd643e-6d0e-4a5c-ab57-b9c29b9c981a.jpg\"]","trial_type":"similarity","trial_index":22,"time_elapsed":196644,"internal_node_id":"0.0-6.0-16.0"},{"sim_score":4,"rt":3051,"stimulus":"[\"img/0904/96e503ea-6630-4996-85f2-0237688ce441.jpg\",\"img/0866/11a1d141-be5e-443c-98c1-a9d4d9e3dec0.jpg\"]","trial_type":"similarity","trial_index":23,"time_elapsed":200701,"internal_node_id":"0.0-6.0-17.0"},{"sim_score":7,"rt":4084,"stimulus":"[\"img/0875/527ced51-8e53-4aab-ab05-86df219104c0.jpg\",\"img/0875/5a716432-c6ca-4b1c-955a-2b8ac25198ee.jpg\"]","trial_type":"similarity","trial_index":24,"time_elapsed":205794,"internal_node_id":"0.0-6.0-18.0"},{"sim_score":7,"rt":3829,"stimulus":"[\"img/0758/2fa3e613-e676-4e6e-bd12-705327eeb3e1.jpg\",\"img/0758/53f35650-e455-4b53-8be4-c3c8271c6466.jpg\"]","trial_type":"similarity","trial_index":25,"time_elapsed":210631,"internal_node_id":"0.0-6.0-19.0"},{"sim_score":4,"rt":5230,"stimulus":"[\"img/0902/af45fe42-178c-4c1a-99ef-256e87e3b092.jpg\",\"img/0874/8cdb1c07-1c32-46d2-981c-3636560fa6e5.jpg\"]","trial_type":"similarity","trial_index":26,"time_elapsed":216869,"internal_node_id":"0.0-6.0-20.0"},{"sim_score":6,"rt":4059,"stimulus":"[\"img/0764/ec2dd087-c471-4370-b570-95a542506a96.jpg\",\"img/0769/75f7e514-0548-4329-b1e4-93c05e74f038.jpg\"]","trial_type":"similarity","trial_index":27,"time_elapsed":221936,"internal_node_id":"0.0-6.0-21.0"},{"sim_score":2,"rt":3713,"stimulus":"[\"img/0901/12da1841-e611-435c-9719-109413d536a8.jpg\",\"img/0874/1016b306-087c-4afc-aa08-fa527b28dc76.jpg\"]","trial_type":"similarity","trial_index":28,"time_elapsed":226656,"internal_node_id":"0.0-6.0-22.0"},{"sim_score":2,"rt":3908,"stimulus":"[\"img/0875/99698b4d-b4a1-44bc-8c83-8ea755bbbf61.jpg\",\"img/0903/365f176c-25a4-4973-bd3c-279bf1b39476.jpg\"]","trial_type":"similarity","trial_index":29,"time_elapsed":231573,"internal_node_id":"0.0-6.0-23.0"},{"sim_score":2,"rt":6182,"stimulus":"[\"img/0769/48a1144d-fbda-4809-991b-fc8424a32ee4.jpg\",\"img/0881/f62bdcd1-a4b7-4d48-83da-d9c9e01c8727.jpg\"]","trial_type":"similarity","trial_index":30,"time_elapsed":238763,"internal_node_id":"0.0-6.0-24.0"},{"sim_score":3,"rt":6949,"stimulus":"[\"img/0867/50a1b60e-3a29-44bf-b606-d4bd3746fea9.jpg\",\"img/0904/fe746a3f-8458-48d0-8a13-8cba2a9df9f8.jpg\"]","trial_type":"similarity","trial_index":31,"time_elapsed":246720,"internal_node_id":"0.0-6.0-25.0"},{"sim_score":4,"rt":4849,"stimulus":"[\"img/0860/4f695df5-afac-4da7-9875-fee39b0b24ad.jpg\",\"img/0881/db77fe00-aeb0-4d1d-aa66-f3a96fd077e4.jpg\"]","trial_type":"similarity","trial_index":32,"time_elapsed":252576,"internal_node_id":"0.0-6.0-26.0"},{"sim_score":5,"rt":3700,"stimulus":"[\"img/0866/93a27239-8317-4e08-98ca-d8b1ff298e07.jpg\",\"img/0866/be24ab58-230e-4db8-9f45-ff04c9aec6bb.jpg\"]","trial_type":"similarity","trial_index":33,"time_elapsed":257291,"internal_node_id":"0.0-6.0-27.0"},{"sim_score":3,"rt":7275,"stimulus":"[\"img/0764/55b3fab1-b809-4d38-a461-3f40ce062f52.jpg\",\"img/0862/fb26cb07-d5a9-4653-813c-f41609f26cd5.jpg\"]","trial_type":"similarity","trial_index":34,"time_elapsed":265572,"internal_node_id":"0.0-6.0-28.0"},{"sim_score":3,"rt":14127,"stimulus":"[\"img/0904/65e2b70a-b184-4da3-b5c0-5038bdf9469a.jpg\",\"img/0758/a085b443-b5d7-4cb2-9ad4-b9dab0fc23f1.jpg\"]","trial_type":"similarity","trial_index":35,"time_elapsed":280705,"internal_node_id":"0.0-6.0-29.0"},{"sim_score":5,"rt":5185,"stimulus":"[\"img/0894/7dd6ff43-f8fc-408a-8a41-a2b261871820.jpg\",\"img/0899/fef567a2-c121-4481-9af0-ff108d199bbf.jpg\"]","trial_type":"similarity","trial_index":36,"time_elapsed":286898,"internal_node_id":"0.0-6.0-30.0"},{"sim_score":4,"rt":3061,"stimulus":"[\"img/0860/17b44a7d-c5ca-479f-9e87-f65a64f5c80e.jpg\",\"img/0904/25365108-e038-4021-aac9-797f2063b337.jpg\"]","trial_type":"similarity","trial_index":37,"time_elapsed":290965,"internal_node_id":"0.0-6.0-31.0"},{"sim_score":5,"rt":3118,"stimulus":"[\"img/0874/3f471690-9788-4d03-90c7-f615aecef149.jpg\",\"img/0881/7e31e5dc-2240-4b1b-b5a0-3acd980099ef.jpg\"]","trial_type":"similarity","trial_index":38,"time_elapsed":295090,"internal_node_id":"0.0-6.0-32.0"},{"sim_score":2,"rt":5328,"stimulus":"[\"img/0881/f8bd891e-aa09-4782-89db-33e7cb2b0cf1.jpg\",\"img/0899/565ccdd9-0933-4536-a625-3c0e25a713dd.jpg\"]","trial_type":"similarity","trial_index":39,"time_elapsed":301428,"internal_node_id":"0.0-6.0-33.0"},{"sim_score":3,"rt":6602,"stimulus":"[\"img/0866/386235d2-6857-41e7-88a8-25cfc3430025.jpg\",\"img/0862/92fcd8a4-8193-4a6a-ae09-dd4a6338b0df.jpg\"]","trial_type":"similarity","trial_index":40,"time_elapsed":309038,"internal_node_id":"0.0-6.0-34.0"},{"sim_score":3,"rt":4432,"stimulus":"[\"img/0868/d98ca254-b195-477f-b57e-5760a2717db8.jpg\",\"img/0894/b422d5c6-3c5a-49ae-a53e-7e88ac993f49.jpg\"]","trial_type":"similarity","trial_index":41,"time_elapsed":314477,"internal_node_id":"0.0-6.0-35.0"},{"sim_score":7,"rt":3147,"stimulus":"[\"img/0860/c7047cd2-7cc1-41b6-8a34-c0986774975f.jpg\",\"img/0860/d9a0d117-6d1d-41c0-8fec-9aff0fd9e9f2.jpg\"]","trial_type":"similarity","trial_index":42,"time_elapsed":318633,"internal_node_id":"0.0-6.0-36.0"},{"sim_score":4,"rt":4711,"stimulus":"[\"img/0862/47ed5efd-4ec9-4b74-bb4e-a5f5cf0c3e7d.jpg\",\"img/0864/b3c4e378-28f0-4699-9338-2a257b4bca04.jpg\"]","trial_type":"similarity","trial_index":43,"time_elapsed":324351,"internal_node_id":"0.0-6.0-37.0"},{"sim_score":2,"rt":4112,"stimulus":"[\"img/0766/db750ba0-ce04-46e1-b601-e1b80212bad2.jpg\",\"img/0866/a15b02be-11bb-43e3-b0e0-ecc3bd7dfc49.jpg\"]","trial_type":"similarity","trial_index":44,"time_elapsed":329469,"internal_node_id":"0.0-6.0-38.0"},{"sim_score":4,"rt":3781,"stimulus":"[\"img/0875/2e13d160-eea1-416b-aff1-d37ab99ecc1d.jpg\",\"img/0898/40f99fb2-64d2-4e72-8a7f-a1cf60741e69.jpg\"]","trial_type":"similarity","trial_index":45,"time_elapsed":334256,"internal_node_id":"0.0-6.0-39.0"},{"sim_score":6,"rt":4134,"stimulus":"[\"img/0766/f011ef45-fb48-44b8-8224-867ed2ccf786.jpg\",\"img/0769/f2740c58-7c02-433f-920b-746b0b75435b.jpg\"]","trial_type":"similarity","trial_index":46,"time_elapsed":339398,"internal_node_id":"0.0-6.0-40.0"},{"sim_score":2,"rt":3723,"stimulus":"[\"img/0874/c0378dac-9370-439a-8b79-db27c96fb390.jpg\",\"img/0764/03c07b98-3f18-4b71-bb70-ecff564a78d1.jpg\"]","trial_type":"similarity","trial_index":47,"time_elapsed":362926,"internal_node_id":"0.0-6.0-41.0"},{"sim_score":1,"rt":3941,"stimulus":"[\"img/0868/3a62db2d-97e9-44a3-b8e3-a48c6f0e423b.jpg\",\"img/0902/71c03003-03ef-4b0f-8229-e0c857150a5d.jpg\"]","trial_type":"similarity","trial_index":48,"time_elapsed":367873,"internal_node_id":"0.0-6.0-42.0"},{"sim_score":1,"rt":3682,"stimulus":"[\"img/0875/3ecb367d-e9eb-4826-8aaa-7aa72fb98019.jpg\",\"img/0899/a05bea16-2bb4-4cb9-b8fb-4ff975db6971.jpg\"]","trial_type":"similarity","trial_index":49,"time_elapsed":372562,"internal_node_id":"0.0-6.0-43.0"},{"sim_score":5,"rt":4134,"stimulus":"[\"img/0866/0207e9a2-7dbb-40b5-9459-b472aaeceb2a.jpg\",\"img/0860/f44ba3fb-03a2-42f0-8509-2c1ded493086.jpg\"]","trial_type":"similarity","trial_index":50,"time_elapsed":377705,"internal_node_id":"0.0-6.0-44.0"},{"sim_score":2,"rt":2871,"stimulus":"[\"img/0766/908bc45b-7c9e-4f95-806e-86b196ebcb2c.jpg\",\"img/0903/2c7b4aed-6038-4aac-958a-e3e58341c313.jpg\"]","trial_type":"similarity","trial_index":51,"time_elapsed":381581,"internal_node_id":"0.0-6.0-45.0"},{"sim_score":5,"rt":4035,"stimulus":"[\"img/0901/a373612d-67e2-4fec-9764-21d3d6ef6359.jpg\",\"img/0904/09dac84f-3d1c-4445-a68e-d0389fdbf1e9.jpg\"]","trial_type":"similarity","trial_index":52,"time_elapsed":386624,"internal_node_id":"0.0-6.0-46.0"},{"sim_score":2,"rt":4865,"stimulus":"[\"img/0758/f61ecdf8-a7d4-4db0-b84d-be46f7cfaffc.jpg\",\"img/0902/44cd9b7e-fdfb-4f78-90de-8d4c9d279365.jpg\"]","trial_type":"similarity","trial_index":53,"time_elapsed":392496,"internal_node_id":"0.0-6.0-47.0"},{"sim_score":7,"rt":3309,"stimulus":"[\"img/0764/974d52cc-6318-4e7a-b294-2f3e92ff800f.jpg\",\"img/0764/6c7fe363-2d37-418f-9e5e-a3273af5d4fb.jpg\"]","trial_type":"similarity","trial_index":54,"time_elapsed":396812,"internal_node_id":"0.0-6.0-48.0"},{"sim_score":2,"rt":5242,"stimulus":"[\"img/0866/23a224f3-2012-4fc8-8e0f-3c36f8de27fd.jpg\",\"img/0902/12452bb1-b8c0-4e4d-ad4d-47e279e5933c.jpg\"]","trial_type":"similarity","trial_index":55,"time_elapsed":403060,"internal_node_id":"0.0-6.0-49.0"},{"sim_score":2,"rt":4803,"stimulus":"[\"img/0764/fb7d4a20-a475-465e-a74f-aa39a0d33d16.jpg\",\"img/0758/d57c2592-a317-4f63-91be-91a3a9afd222.jpg\"]","trial_type":"similarity","trial_index":56,"time_elapsed":408871,"internal_node_id":"0.0-6.0-50.0"},{"sim_score":3,"rt":7722,"stimulus":"[\"img/0898/993d8f2d-bef7-4251-a193-0f93a32b7763.jpg\",\"img/0894/11674fa4-285d-44e2-939f-2228c6a64080.jpg\"]","trial_type":"similarity","trial_index":57,"time_elapsed":417598,"internal_node_id":"0.0-6.0-51.0"},{"sim_score":5,"rt":3038,"stimulus":"[\"img/0875/cff79b3a-a797-4393-9757-6275f999ec04.jpg\",\"img/0866/6f2a90d7-14f1-4f1b-bd64-fc0af6b9fe44.jpg\"]","trial_type":"similarity","trial_index":58,"time_elapsed":421643,"internal_node_id":"0.0-6.0-52.0"},{"sim_score":7,"rt":3911,"stimulus":"[\"img/0904/24fc38fe-842c-4831-ad8a-b1de5c25c0a8.jpg\",\"img/0904/696ebb60-8891-417a-91fd-c53218907a95.jpg\"]","trial_type":"similarity","trial_index":59,"time_elapsed":426562,"internal_node_id":"0.0-6.0-53.0"},{"sim_score":7,"rt":5246,"stimulus":"[\"img/0769/aad494cc-674d-4a08-9bfa-24a88ebe3c79.jpg\",\"img/0769/f229321f-04dd-42d7-b14a-ffad6b509862.jpg\"]","trial_type":"similarity","trial_index":60,"time_elapsed":432816,"internal_node_id":"0.0-6.0-54.0"},{"sim_score":2,"rt":5304,"stimulus":"[\"img/0898/e167334e-cc1d-4986-b3b1-c7bc7da64baa.jpg\",\"img/0758/a709631e-3705-4725-ac40-f0d916924f08.jpg\"]","trial_type":"similarity","trial_index":61,"time_elapsed":439127,"internal_node_id":"0.0-6.0-55.0"},{"sim_score":6,"rt":4259,"stimulus":"[\"img/0769/8056889f-2b14-4782-bb25-b4e8896ab65b.jpg\",\"img/0902/cdec1bc6-7f90-4f72-9e01-f5a4111bac1d.jpg\"]","trial_type":"similarity","trial_index":62,"time_elapsed":444394,"internal_node_id":"0.0-6.0-56.0"},{"sim_score":5,"rt":3674,"stimulus":"[\"img/0864/da39ad34-04e0-40d4-a724-c08d53e0ea09.jpg\",\"img/0881/14236cf2-6b95-48b8-9368-78af09d2d27f.jpg\"]","trial_type":"similarity","trial_index":63,"time_elapsed":449076,"internal_node_id":"0.0-6.0-57.0"},{"sim_score":4,"rt":3094,"stimulus":"[\"img/0758/67c0be2f-9e91-48b3-8219-70ac0a1802fa.jpg\",\"img/0868/1a62b2b2-18f5-466e-b564-5176a57c565e.jpg\"]","trial_type":"similarity","trial_index":64,"time_elapsed":453178,"internal_node_id":"0.0-6.0-58.0"},{"sim_score":3,"rt":2517,"stimulus":"[\"img/0862/fad1d7c1-8187-43c3-942a-0fc12183e48e.jpg\",\"img/0769/9ea27d61-3d55-418c-8d14-82e90f656f01.jpg\"]","trial_type":"similarity","trial_index":65,"time_elapsed":456703,"internal_node_id":"0.0-6.0-59.0"},{"sim_score":2,"rt":4277,"stimulus":"[\"img/0764/ef0e64c6-d0dd-4dc6-87b6-ce5c0665f421.jpg\",\"img/0903/470acfd5-5571-4a7b-b3a4-28d87e098138.jpg\"]","trial_type":"similarity","trial_index":66,"time_elapsed":461993,"internal_node_id":"0.0-6.0-60.0"},{"sim_score":7,"rt":3537,"stimulus":"[\"img/0899/0433d056-aa30-4f8a-9aa1-abbb951e4edd.jpg\",\"img/0899/06b0fc99-0581-461a-9913-d1a5a941ac61.jpg\"]","trial_type":"similarity","trial_index":67,"time_elapsed":466541,"internal_node_id":"0.0-6.0-61.0"},{"sim_score":4,"rt":3422,"stimulus":"[\"img/0860/c47fdead-eb02-4989-b078-26f4852f44fe.jpg\",\"img/0875/5a1e5100-0d94-4fec-bbe9-ca9894d2cf8e.jpg\"]","trial_type":"similarity","trial_index":68,"time_elapsed":470970,"internal_node_id":"0.0-6.0-62.0"},{"sim_score":3,"rt":5615,"stimulus":"[\"img/0868/4e626425-63c8-484a-8a1d-e66ee4e0bef8.jpg\",\"img/0874/3ce41e7c-40c8-4d58-a546-171114521796.jpg\"]","trial_type":"similarity","trial_index":69,"time_elapsed":477598,"internal_node_id":"0.0-6.0-63.0"},{"sim_score":3,"rt":4197,"stimulus":"[\"img/0758/6e95579b-5166-487c-b8cb-e417c6a218e3.jpg\",\"img/0862/e697469a-ec19-4414-b972-7b9f3564785b.jpg\"]","trial_type":"similarity","trial_index":70,"time_elapsed":482809,"internal_node_id":"0.0-6.0-64.0"},{"sim_score":3,"rt":5602,"stimulus":"[\"img/0904/0d25eb24-bb20-4e8d-9787-8b489558b4cb.jpg\",\"img/0898/c3cecf20-f7fd-45fa-97d0-dc0a63e8d6c0.jpg\"]","trial_type":"similarity","trial_index":71,"time_elapsed":489426,"internal_node_id":"0.0-6.0-65.0"},{"sim_score":5,"rt":4022,"stimulus":"[\"img/0881/d373cb9f-a719-4549-a2a4-82def79fb2a5.jpg\",\"img/0866/bf14b5bd-fb55-47db-86b9-4f8aeb9a6dad.jpg\"]","trial_type":"similarity","trial_index":72,"time_elapsed":494459,"internal_node_id":"0.0-6.0-66.0"},{"sim_score":3,"rt":5168,"stimulus":"[\"img/0867/6e19c858-b606-45b2-a4c6-910a73f1d82c.jpg\",\"img/0898/8605a25b-6895-476d-8c13-df7a83f96093.jpg\"]","trial_type":"similarity","trial_index":73,"time_elapsed":500635,"internal_node_id":"0.0-6.0-67.0"},{"sim_score":3,"rt":4160,"stimulus":"[\"img/0902/97022122-01e4-46c3-a34f-c6260ad28428.jpg\",\"img/0764/56441045-b648-4ede-9632-3e9c0227080b.jpg\"]","trial_type":"similarity","trial_index":74,"time_elapsed":505811,"internal_node_id":"0.0-6.0-68.0"},{"sim_score":6,"rt":4149,"stimulus":"[\"img/0875/e7e66b13-b573-431e-b85e-288ce04a35a3.jpg\",\"img/0867/a749dddb-69f0-44a6-acdc-2bf295cf6dcc.jpg\"]","trial_type":"similarity","trial_index":75,"time_elapsed":510971,"internal_node_id":"0.0-6.0-69.0"},{"sim_score":6,"rt":6463,"stimulus":"[\"img/0766/989c5c7f-1aff-4442-ac63-9d46acf4a891.jpg\",\"img/0764/50f1b062-d608-4bc0-ab25-b872dcf2ed93.jpg\"]","trial_type":"similarity","trial_index":76,"time_elapsed":518447,"internal_node_id":"0.0-6.0-70.0"},{"sim_score":3,"rt":3604,"stimulus":"[\"img/0894/a98416c0-51e2-4960-85da-d81d8688b9d5.jpg\",\"img/0867/aa05d113-fc19-4756-a8eb-7878f580bc92.jpg\"]","trial_type":"similarity","trial_index":77,"time_elapsed":523063,"internal_node_id":"0.0-6.0-71.0"},{"sim_score":1,"rt":3870,"stimulus":"[\"img/0875/8521fd58-3b1e-4dc5-97ae-804edfa6734a.jpg\",\"img/0764/62fafeea-6274-48ce-976f-35d3d3484c65.jpg\"]","trial_type":"similarity","trial_index":78,"time_elapsed":527946,"internal_node_id":"0.0-6.0-72.0"},{"sim_score":7,"rt":4804,"stimulus":"[\"img/0867/ac1797e4-8afc-48fe-b252-86d1defb1cca.jpg\",\"img/0866/4a87911a-d5be-4d4e-ab8e-3d1f581bf507.jpg\"]","trial_type":"similarity","trial_index":79,"time_elapsed":533765,"internal_node_id":"0.0-6.0-73.0"},{"sim_score":3,"rt":2663,"stimulus":"[\"img/0903/b0a3c45f-467e-412f-a183-c9c1827f2e63.jpg\",\"img/0758/e38fd80d-18d0-42f3-b848-f930788e8bd7.jpg\"]","trial_type":"similarity","trial_index":80,"time_elapsed":537439,"internal_node_id":"0.0-6.0-74.0"},{"sim_score":1,"rt":4893,"stimulus":"[\"img/0766/535849cc-ff5d-4df9-8f31-0ce94a97d571.jpg\",\"img/0868/5fa7f9d0-f0e5-454c-8224-74d964818f56.jpg\"]","trial_type":"similarity","trial_index":81,"time_elapsed":543343,"internal_node_id":"0.0-6.0-75.0"},{"sim_score":2,"rt":3216,"stimulus":"[\"img/0874/2c9464dd-8a23-4baa-ac94-1ba3af5c15cc.jpg\",\"img/0766/5d6e0d1d-4369-41f0-a64c-91f3503055c7.jpg\"]","trial_type":"similarity","trial_index":82,"time_elapsed":547573,"internal_node_id":"0.0-6.0-76.0"},{"sim_score":5,"rt":3141,"stimulus":"[\"img/0881/c843e210-bdfe-4a7c-8bbe-fcea1f90fe1c.jpg\",\"img/0868/179a5502-ab5c-478e-8263-5a1fbcc101d2.jpg\"]","trial_type":"similarity","trial_index":83,"time_elapsed":551728,"internal_node_id":"0.0-6.0-77.0"},{"sim_score":1,"rt":3189,"stimulus":"[\"img/0758/eabcd7a8-56ad-4fd2-bc24-90f6b7b33265.jpg\",\"img/0901/548d1110-7cb8-42a2-9927-9798875c8b5c.jpg\"]","trial_type":"similarity","trial_index":84,"time_elapsed":555930,"internal_node_id":"0.0-6.0-78.0"},{"sim_score":2,"rt":4004,"stimulus":"[\"img/0881/4da99fdd-1f40-4bbb-8e21-8833eef313f5.jpg\",\"img/0898/ec565187-2e31-4fdd-9a5c-153d0c789ae0.jpg\"]","trial_type":"similarity","trial_index":85,"time_elapsed":560946,"internal_node_id":"0.0-6.0-79.0"},{"sim_score":4,"rt":6115,"stimulus":"[\"img/0867/c66898ba-b71b-4d50-84f9-f7f84853a98d.jpg\",\"img/0758/e1ba5e53-addc-436a-b428-d34fc1b130dc.jpg\"]","trial_type":"similarity","trial_index":86,"time_elapsed":568074,"internal_node_id":"0.0-6.0-80.0"},{"sim_score":5,"rt":5433,"stimulus":"[\"img/0769/ebef2ddc-ba59-4e0e-97f8-927864eb5081.jpg\",\"img/0899/b45c550b-96c3-4255-ad59-48a2b4db1c1e.jpg\"]","trial_type":"similarity","trial_index":87,"time_elapsed":574519,"internal_node_id":"0.0-6.0-81.0"},{"sim_score":7,"rt":3885,"stimulus":"[\"img/0903/8931c67c-a43d-47d3-a4c9-42aa2f81d344.jpg\",\"img/0903/5248eedd-7e6a-4d39-91b0-06ec227f3ed0.jpg\"]","trial_type":"similarity","trial_index":88,"time_elapsed":579417,"internal_node_id":"0.0-6.0-82.0"},{"sim_score":1,"rt":2940,"stimulus":"[\"img/0867/a498eef3-9fa4-4ab2-9778-4ae82ac40dc5.jpg\",\"img/0766/006035d8-c736-4daf-bbe4-a9e373af9da6.jpg\"]","trial_type":"similarity","trial_index":89,"time_elapsed":609901,"internal_node_id":"0.0-6.0-83.0"},{"sim_score":4,"rt":7032,"stimulus":"[\"img/0902/d3e55000-c839-4bf9-9b9b-4af0a9925af1.jpg\",\"img/0867/26611f4e-d694-4460-b7e2-43c62753ddc3.jpg\"]","trial_type":"similarity","trial_index":90,"time_elapsed":617944,"internal_node_id":"0.0-6.0-84.0"},{"sim_score":1,"rt":4101,"stimulus":"[\"img/0901/6e2957f8-f5ab-46f4-87cc-bb50155a098b.jpg\",\"img/0875/f87b67d7-c33e-40d1-b281-248c4be1cb6e.jpg\"]","trial_type":"similarity","trial_index":91,"time_elapsed":623055,"internal_node_id":"0.0-6.0-85.0"},{"sim_score":1,"rt":3735,"stimulus":"[\"img/0764/f990b2e8-ecee-481e-be7c-0239fce350e2.jpg\",\"img/0866/f756f7d1-9ad8-4a34-9ef6-7a443d705bfe.jpg\"]","trial_type":"similarity","trial_index":92,"time_elapsed":627804,"internal_node_id":"0.0-6.0-86.0"},{"sim_score":4,"rt":2362,"stimulus":"[\"img/0901/168eb52c-c415-43f1-b5c8-e76e1a1ec247.jpg\",\"img/0894/3adef67d-7676-4995-80b2-bb31b8aca3ef.jpg\"]","trial_type":"similarity","trial_index":93,"time_elapsed":631181,"internal_node_id":"0.0-6.0-87.0"},{"sim_score":4,"rt":2394,"stimulus":"[\"img/0898/661621d4-a14e-487c-8c74-354134a29710.jpg\",\"img/0769/f73c5138-2f4c-4354-981c-129dff9cc734.jpg\"]","trial_type":"similarity","trial_index":94,"time_elapsed":634583,"internal_node_id":"0.0-6.0-88.0"},{"sim_score":6,"rt":3445,"stimulus":"[\"img/0769/180213e5-1e50-4b4e-87b6-add77ba04d39.jpg\",\"img/0894/2217bdcd-23a7-42d3-823b-23f2488d7e87.jpg\"]","trial_type":"similarity","trial_index":95,"time_elapsed":639040,"internal_node_id":"0.0-6.0-89.0"},{"sim_score":5,"rt":3004,"stimulus":"[\"img/0862/064818ee-13d5-4618-bb24-21c7368ea278.jpg\",\"img/0874/995f0332-0439-4eb4-add3-957335dbf6d9.jpg\"]","trial_type":"similarity","trial_index":96,"time_elapsed":643057,"internal_node_id":"0.0-6.0-90.0"},{"sim_score":5,"rt":3951,"stimulus":"[\"img/0894/e5edf723-72a5-4673-8441-6c1734a8929b.jpg\",\"img/0766/aaec5f42-7f0a-4a16-aeca-488d757acbcc.jpg\"]","trial_type":"similarity","trial_index":97,"time_elapsed":648021,"internal_node_id":"0.0-6.0-91.0"},{"sim_score":5,"rt":3556,"stimulus":"[\"img/0874/bf14b896-e930-4fd9-9c05-2e83317a2773.jpg\",\"img/0867/cc72ed48-7704-422c-86d6-467a1145287a.jpg\"]","trial_type":"similarity","trial_index":98,"time_elapsed":652589,"internal_node_id":"0.0-6.0-92.0"},{"sim_score":1,"rt":2592,"stimulus":"[\"img/0899/9de5e857-aa9a-4e0c-8ba2-46d79bd069a4.jpg\",\"img/0868/0d3abd3a-b6c3-4584-a9f7-e2da63748b3d.jpg\"]","trial_type":"similarity","trial_index":99,"time_elapsed":656199,"internal_node_id":"0.0-6.0-93.0"},{"sim_score":2,"rt":3737,"stimulus":"[\"img/0903/6138142e-c84e-45fc-9487-c974f3d4968a.jpg\",\"img/0862/7918ca67-5bd3-4606-a5ea-c39fb11a9297.jpg\"]","trial_type":"similarity","trial_index":100,"time_elapsed":660950,"internal_node_id":"0.0-6.0-94.0"},{"sim_score":5,"rt":2748,"stimulus":"[\"img/0899/7f9d45d0-b2c6-40d3-aa41-c207db2c411b.jpg\",\"img/0766/af3be95e-e52e-4fae-899b-0ff02ec340aa.jpg\"]","trial_type":"similarity","trial_index":101,"time_elapsed":664711,"internal_node_id":"0.0-6.0-95.0"},{"sim_score":7,"rt":3157,"stimulus":"[\"img/0867/db7e032f-162b-46f5-ae67-2b29679adee4.jpg\",\"img/0868/83b4350a-3b70-4cea-b7f5-b5b56f3050a8.jpg\"]","trial_type":"similarity","trial_index":102,"time_elapsed":668879,"internal_node_id":"0.0-6.0-96.0"},{"sim_score":3,"rt":4148,"stimulus":"[\"img/0862/d0ca4c78-fc35-46ed-bdcc-8e124283c53e.jpg\",\"img/0901/0f670aef-ac36-496d-8142-ee5fdb21dd82.jpg\"]","trial_type":"similarity","trial_index":103,"time_elapsed":674040,"internal_node_id":"0.0-6.0-97.0"},{"sim_score":1,"rt":2694,"stimulus":"[\"img/0875/fb732ab5-013a-4366-9f65-27811ed157e9.jpg\",\"img/0766/91fc8c4d-862f-4d2b-b1a1-2db8d729b6b7.jpg\"]","trial_type":"similarity","trial_index":104,"time_elapsed":677743,"internal_node_id":"0.0-6.0-98.0"},{"sim_score":5,"rt":2663,"stimulus":"[\"img/0758/7ee8bc8f-c40b-4b3a-84ec-3e83580622d4.jpg\",\"img/0874/eba003b4-cdab-4eee-8bc3-f064c7d94165.jpg\"]","trial_type":"similarity","trial_index":105,"time_elapsed":681417,"internal_node_id":"0.0-6.0-99.0"},{"sim_score":4,"rt":5088,"stimulus":"[\"img/0904/9dd5708f-3f8b-46a9-b49f-2f2fab87b357.jpg\",\"img/0868/8b0b8473-e2c0-4331-aa56-c3a5c29369da.jpg\"]","trial_type":"similarity","trial_index":106,"time_elapsed":687516,"internal_node_id":"0.0-6.0-100.0"},{"sim_score":3,"rt":3334,"stimulus":"[\"img/0903/5c6b1f57-b3a2-40f5-9fb1-82785e24b6a0.jpg\",\"img/0866/945c6710-d15b-4a5b-a8f6-69af0850357f.jpg\"]","trial_type":"similarity","trial_index":107,"time_elapsed":691861,"internal_node_id":"0.0-6.0-101.0"},{"sim_score":2,"rt":3459,"stimulus":"[\"img/0868/fd307a36-9a3a-47d7-ab7c-f810d0b35040.jpg\",\"img/0769/38a88f69-28fd-4bbd-99f0-f4c02bfd3995.jpg\"]","trial_type":"similarity","trial_index":108,"time_elapsed":696334,"internal_node_id":"0.0-6.0-102.0"},{"sim_score":5,"rt":3028,"stimulus":"[\"img/0902/0eb85fbc-27c8-41df-9d0b-a5f9efd417d1.jpg\",\"img/0899/8abe6c69-822c-436c-9bf2-96c818b49ba5.jpg\"]","trial_type":"similarity","trial_index":109,"time_elapsed":700373,"internal_node_id":"0.0-6.0-103.0"},{"sim_score":2,"rt":4908,"stimulus":"[\"img/0868/c8ac40c7-6904-4e13-8d61-c75d3052dc4e.jpg\",\"img/0862/eefa5588-9efd-4591-aa5f-a2e17c7d7bcc.jpg\"]","trial_type":"similarity","trial_index":110,"time_elapsed":706294,"internal_node_id":"0.0-6.0-104.0"},{"sim_score":6,"rt":3920,"stimulus":"[\"img/0903/e2e55a9e-0397-4dc0-8adf-4a54cfefe1fe.jpg\",\"img/0894/e6385e52-6c35-43bd-b0af-bc803d107b11.jpg\"]","trial_type":"similarity","trial_index":111,"time_elapsed":711225,"internal_node_id":"0.0-6.0-105.0"},{"sim_score":5,"rt":2700,"stimulus":"[\"img/0864/0116ca98-293d-4fa6-a93b-5a6144ef64cc.jpg\",\"img/0874/adf9a8f1-c40b-402b-b95b-1e85a54a7b62.jpg\"]","trial_type":"similarity","trial_index":112,"time_elapsed":714938,"internal_node_id":"0.0-6.0-106.0"},{"sim_score":4,"rt":3467,"stimulus":"[\"img/0862/ba89835a-408c-480b-8594-ed4ffa97eb5c.jpg\",\"img/0902/1a120fb9-dbd6-443e-ba91-b4aceab963da.jpg\"]","trial_type":"similarity","trial_index":113,"time_elapsed":719416,"internal_node_id":"0.0-6.0-107.0"},{"sim_score":6,"rt":4172,"stimulus":"[\"img/0904/2c98dc56-88d1-4fb5-a999-b6a7861f65f0.jpg\",\"img/0903/3e9ee8a5-eb66-47f5-8973-8a5af1ddc87e.jpg\"]","trial_type":"similarity","trial_index":114,"time_elapsed":724601,"internal_node_id":"0.0-6.0-108.0"},{"sim_score":1,"rt":3748,"stimulus":"[\"img/0764/fb92924f-5cfe-4b89-b130-0cce8cc5636b.jpg\",\"img/0864/c22faebd-9c53-47bc-ada3-b9a30c688e75.jpg\"]","trial_type":"similarity","trial_index":115,"time_elapsed":729363,"internal_node_id":"0.0-6.0-109.0"},{"sim_score":1,"rt":5212,"stimulus":"[\"img/0866/a04d37f0-99dd-478a-b6c6-58b215138f84.jpg\",\"img/0894/6b2e9509-8699-42b7-9582-7741df0ba2d7.jpg\"]","trial_type":"similarity","trial_index":116,"time_elapsed":735585,"internal_node_id":"0.0-6.0-110.0"},{"sim_score":4,"rt":4716,"stimulus":"[\"img/0899/4408c14d-c168-4a7d-96f6-bc87bfb58f83.jpg\",\"img/0903/70d764d9-1f35-4da7-a35d-4cc39834d270.jpg\"]","trial_type":"similarity","trial_index":117,"time_elapsed":741315,"internal_node_id":"0.0-6.0-111.0"},{"sim_score":6,"rt":5576,"stimulus":"[\"img/0902/c018bd7a-d91a-4192-aea4-7259cfcdb6c4.jpg\",\"img/0904/60d1a521-edf7-4696-9263-f21ac0e62a01.jpg\"]","trial_type":"similarity","trial_index":118,"time_elapsed":747904,"internal_node_id":"0.0-6.0-112.0"},{"sim_score":5,"rt":2246,"stimulus":"[\"img/0864/e336a4c5-6648-4fd7-b2f6-93a3fb83f8c6.jpg\",\"img/0860/15b24a61-25be-4356-9eac-5ce95d0cb4a4.jpg\"]","trial_type":"similarity","trial_index":119,"time_elapsed":751164,"internal_node_id":"0.0-6.0-113.0"},{"sim_score":1,"rt":4750,"stimulus":"[\"img/0860/c3379ff7-0763-48fe-a1ec-7ea3d611bc7a.jpg\",\"img/0899/76ad07e2-ca25-45eb-84f2-8d80b8ca3e26.jpg\"]","trial_type":"similarity","trial_index":120,"time_elapsed":756933,"internal_node_id":"0.0-6.0-114.0"},{"sim_score":3,"rt":3164,"stimulus":"[\"img/0881/7e822106-76f7-4b10-a805-14dc68b2cfaf.jpg\",\"img/0903/bf0a7d60-eca5-44b0-bafd-baf21db9904b.jpg\"]","trial_type":"similarity","trial_index":121,"time_elapsed":761108,"internal_node_id":"0.0-6.0-115.0"},{"sim_score":1,"rt":3449,"stimulus":"[\"img/0894/76c1201f-8524-4865-85e6-dda8cb4ac986.jpg\",\"img/0874/85eb9b8a-c4c6-4e5a-b8e7-363a87a82054.jpg\"]","trial_type":"similarity","trial_index":122,"time_elapsed":765567,"internal_node_id":"0.0-6.0-116.0"},{"sim_score":6,"rt":3169,"stimulus":"[\"img/0881/48ed65a5-471f-41af-86ec-3793805c116d.jpg\",\"img/0862/1c20f772-3a51-4a80-aac0-f57dc9f86c28.jpg\"]","trial_type":"similarity","trial_index":123,"time_elapsed":769743,"internal_node_id":"0.0-6.0-117.0"},{"sim_score":5,"rt":3742,"stimulus":"[\"img/0868/293079b8-7e0c-4afd-a390-1e5d35fe3ded.jpg\",\"img/0875/90da8d75-108a-44ad-b999-e21fee3860d3.jpg\"]","trial_type":"similarity","trial_index":124,"time_elapsed":774495,"internal_node_id":"0.0-6.0-118.0"},{"sim_score":4,"rt":2072,"stimulus":"[\"img/0860/99c589b9-9140-4d17-90c0-b344323edcda.jpg\",\"img/0758/ddc336e9-a8b6-4bb9-937a-c7e25e0e9250.jpg\"]","trial_type":"similarity","trial_index":125,"time_elapsed":777581,"internal_node_id":"0.0-6.0-119.0"},{"sim_score":5,"rt":5683,"stimulus":"[\"img/0864/9b2490c5-a282-400a-9736-e1a0ecbf1cb7.jpg\",\"img/0875/ebf7653f-ff45-4e9f-af58-2c042ab3cd2b.jpg\"]","trial_type":"similarity","trial_index":126,"time_elapsed":784273,"internal_node_id":"0.0-6.0-120.0"},{"sim_score":4,"rt":3431,"stimulus":"[\"img/0898/b3290bf9-215b-4b45-b21a-65bdf73f142f.jpg\",\"img/0866/c446214b-a368-4c65-ae39-ea46894256ab.jpg\"]","trial_type":"similarity","trial_index":127,"time_elapsed":788716,"internal_node_id":"0.0-6.0-121.0"},{"sim_score":4,"rt":5562,"stimulus":"[\"img/0874/ca23d307-fc00-4d7d-9106-584c6eb21b4d.jpg\",\"img/0904/2fd488e9-960f-41f7-8a44-33375f7d5051.jpg\"]","trial_type":"similarity","trial_index":128,"time_elapsed":795293,"internal_node_id":"0.0-6.0-122.0"},{"sim_score":3,"rt":3121,"stimulus":"[\"img/0904/b5855d6a-7ef9-46ca-9215-6e9fa046e543.jpg\",\"img/0864/66091c27-e588-4476-8af9-265dc6be4156.jpg\"]","trial_type":"similarity","trial_index":129,"time_elapsed":799460,"internal_node_id":"0.0-6.0-123.0"},{"sim_score":5,"rt":4027,"stimulus":"[\"img/0894/8cadb87a-7001-4e47-99fb-1867bebf1668.jpg\",\"img/0902/aa6fca32-82b0-4414-b20a-8f6f8aa5a2d2.jpg\"]","trial_type":"similarity","trial_index":130,"time_elapsed":804504,"internal_node_id":"0.0-6.0-124.0"},{"sim_score":5,"rt":3440,"stimulus":"[\"img/0868/09a9ef4d-d000-4cfa-a6aa-ebec7c2edeb4.jpg\",\"img/0864/f92649a2-0590-4d31-9a7a-1bfb81666a2d.jpg\"]","trial_type":"similarity","trial_index":131,"time_elapsed":821674,"internal_node_id":"0.0-6.0-125.0"},{"sim_score":4,"rt":2648,"stimulus":"[\"img/0899/d60714ae-98d7-4564-8c98-94dba1351135.jpg\",\"img/0866/02f5e6b9-52b7-448c-9708-5b460d0c9a23.jpg\"]","trial_type":"similarity","trial_index":132,"time_elapsed":825336,"internal_node_id":"0.0-6.0-126.0"},{"sim_score":4,"rt":5213,"stimulus":"[\"img/0875/34132396-d896-4c2d-8087-646dd867e769.jpg\",\"img/0904/5cceabc9-de1d-4c67-989b-c28a4ef77e79.jpg\"]","trial_type":"similarity","trial_index":133,"time_elapsed":831563,"internal_node_id":"0.0-6.0-127.0"},{"sim_score":3,"rt":3023,"stimulus":"[\"img/0867/85a96c62-548f-4994-9553-819e03c3135a.jpg\",\"img/0899/66bf4113-ee12-426c-84d2-ea410b6c803e.jpg\"]","trial_type":"similarity","trial_index":134,"time_elapsed":835599,"internal_node_id":"0.0-6.0-128.0"},{"sim_score":1,"rt":2848,"stimulus":"[\"img/0901/f1116359-1ff1-4638-b3b3-700918d36d18.jpg\",\"img/0867/7d1c497b-c1b3-4ed8-abb5-d7f73306015f.jpg\"]","trial_type":"similarity","trial_index":135,"time_elapsed":839465,"internal_node_id":"0.0-6.0-129.0"},{"sim_score":1,"rt":5797,"stimulus":"[\"img/0864/e02eddb5-f468-499c-91bf-f7be3ffe979b.jpg\",\"img/0769/91acb237-65a3-4d0b-9748-af5c7b83d3c7.jpg\"]","trial_type":"similarity","trial_index":136,"time_elapsed":846271,"internal_node_id":"0.0-6.0-130.0"},{"sim_score":1,"rt":2760,"stimulus":"[\"img/0903/4cbdc464-e562-4ec2-9bb6-15f894fdf528.jpg\",\"img/0868/15dd6fd7-791e-4b53-b203-195d617521a4.jpg\"]","trial_type":"similarity","trial_index":137,"time_elapsed":850039,"internal_node_id":"0.0-6.0-131.0"},{"sim_score":6,"rt":2955,"stimulus":"[\"img/0864/65210d57-1153-4657-886a-32e758f49b4a.jpg\",\"img/0867/f8488a47-94ee-4166-952c-44e16cf172f6.jpg\"]","trial_type":"similarity","trial_index":138,"time_elapsed":854010,"internal_node_id":"0.0-6.0-132.0"},{"sim_score":5,"rt":3172,"stimulus":"[\"img/0901/d6d15b1c-4a30-4f74-a3fd-d4c8ee4169ca.jpg\",\"img/0860/5bff793e-cbd5-4d7e-b628-0ac2b0e30b64.jpg\"]","trial_type":"similarity","trial_index":139,"time_elapsed":858190,"internal_node_id":"0.0-6.0-133.0"},{"sim_score":1,"rt":4285,"stimulus":"[\"img/0881/566f45f8-5fed-4479-a60f-26377e60a62d.jpg\",\"img/0766/214866ee-423d-4629-9bb9-41572bdc7dac.jpg\"]","trial_type":"similarity","trial_index":140,"time_elapsed":863487,"internal_node_id":"0.0-6.0-134.0"},{"sim_score":4,"rt":66680,"stimulus":"[\"img/0903/6378ee1e-3d2b-48d2-87be-bebda32c8268.jpg\",\"img/0864/c3b63e8f-ea39-4d70-a1f2-b3fe4be8eb75.jpg\"]","trial_type":"similarity","trial_index":141,"time_elapsed":931175,"internal_node_id":"0.0-6.0-135.0"},{"sim_score":2,"rt":3525,"stimulus":"[\"img/0758/6cd8c362-ae2a-41eb-80a3-3a4f7ace1530.jpg\",\"img/0894/151063aa-6472-4745-837b-36603aba5966.jpg\"]","trial_type":"similarity","trial_index":142,"time_elapsed":935712,"internal_node_id":"0.0-6.0-136.0"},{"sim_score":1,"rt":6401,"stimulus":"[\"img/0769/c34b7763-8ff2-46d5-9e92-f1d8f3bedbd8.jpg\",\"img/0860/94ef7afc-e0e6-4a15-98c6-0bfac82bc832.jpg\"]","trial_type":"similarity","trial_index":143,"time_elapsed":943127,"internal_node_id":"0.0-6.0-137.0"},{"sim_score":6,"rt":2645,"stimulus":"[\"img/0904/6291eb43-c10c-4810-a36a-101d09868b04.jpg\",\"img/0766/dd3e18d0-0c98-4d05-b850-69976ee8cd75.jpg\"]","trial_type":"similarity","trial_index":144,"time_elapsed":946785,"internal_node_id":"0.0-6.0-138.0"},{"sim_score":5,"rt":2405,"stimulus":"[\"img/0868/77091fc7-a590-4ebb-b915-fdb2483a2399.jpg\",\"img/0860/31ff6436-98bf-4652-bed2-40f627229568.jpg\"]","trial_type":"similarity","trial_index":145,"time_elapsed":950201,"internal_node_id":"0.0-6.0-139.0"},{"sim_score":4,"rt":3502,"stimulus":"[\"img/0758/3ddd05d3-557e-4ee7-8b78-9d2d681d8ae2.jpg\",\"img/0864/5f74a653-3bdc-4308-8cca-ac667dc22e1f.jpg\"]","trial_type":"similarity","trial_index":146,"time_elapsed":954715,"internal_node_id":"0.0-6.0-140.0"},{"sim_score":7,"rt":2499,"stimulus":"[\"img/0867/98d8cd96-1476-4fe0-a3a3-04f875500a1b.jpg\",\"img/0867/12264664-1860-46df-8c21-162b9817cdda.jpg\"]","trial_type":"similarity","trial_index":147,"time_elapsed":958227,"internal_node_id":"0.0-6.0-141.0"},{"sim_score":7,"rt":3910,"stimulus":"[\"img/0898/cd3aaa3f-efa9-4ab3-8d6f-a6a9273ddf42.jpg\",\"img/0898/01bfe666-3510-4fc7-964f-d00d28732dc8.jpg\"]","trial_type":"similarity","trial_index":148,"time_elapsed":963146,"internal_node_id":"0.0-6.0-142.0"},{"sim_score":4,"rt":4067,"stimulus":"[\"img/0866/620cd1aa-0800-4414-8f6e-90342e7a99ad.jpg\",\"img/0769/14d393ce-e5be-4ca1-86ce-cc27d4b6074c.jpg\"]","trial_type":"similarity","trial_index":149,"time_elapsed":968226,"internal_node_id":"0.0-6.0-143.0"},{"sim_score":4,"rt":82330,"stimulus":"[\"img/0860/8fdba999-b946-4c7d-9891-336018b563ef.jpg\",\"img/0898/08c72dac-f8ad-407a-9ce6-8c9a5d679c3a.jpg\"]","trial_type":"similarity","trial_index":150,"time_elapsed":1051566,"internal_node_id":"0.0-6.0-144.0"},{"sim_score":3,"rt":3671,"stimulus":"[\"img/0766/1865bfc9-2410-4765-a804-3ae4ba2393d0.jpg\",\"img/0864/efcfbb1b-8197-44c9-b723-40d6c608dd3c.jpg\"]","trial_type":"similarity","trial_index":151,"time_elapsed":1056247,"internal_node_id":"0.0-6.0-145.0"},{"sim_score":2,"rt":5967,"stimulus":"[\"img/0860/702bd09d-df3a-40aa-a267-5f04474305b5.jpg\",\"img/0903/81368973-de81-46f4-844f-b901f3bfd66d.jpg\"]","trial_type":"similarity","trial_index":152,"time_elapsed":1063226,"internal_node_id":"0.0-6.0-146.0"},{"sim_score":1,"rt":4379,"stimulus":"[\"img/0867/075e0f95-856b-4cbb-acf5-092393aaf04e.jpg\",\"img/0764/8389e74f-e0e0-435d-945f-da1f4c92ccb6.jpg\"]","trial_type":"similarity","trial_index":153,"time_elapsed":1068618,"internal_node_id":"0.0-6.0-147.0"},{"sim_score":6,"rt":3198,"stimulus":"[\"img/0769/688d0c52-ad73-4065-a5eb-f8c10d076bff.jpg\",\"img/0904/a8c3c7d2-9bcf-4347-9e03-8203adfc1fc5.jpg\"]","trial_type":"similarity","trial_index":154,"time_elapsed":1072827,"internal_node_id":"0.0-6.0-148.0"},{"sim_score":5,"rt":4021,"stimulus":"[\"img/0764/ca9829fe-aaf8-45b8-b98a-6bae751c63dd.jpg\",\"img/0901/148b747a-7392-437e-8823-33053c5dff3f.jpg\"]","trial_type":"similarity","trial_index":155,"time_elapsed":1077861,"internal_node_id":"0.0-6.0-149.0"},{"sim_score":6,"rt":3535,"stimulus":"[\"img/0904/0d17b811-063e-416e-a23c-3b3cfa4fcce5.jpg\",\"img/0899/56a605c3-d0a2-4215-89e1-779279d85a7c.jpg\"]","trial_type":"similarity","trial_index":156,"time_elapsed":1082406,"internal_node_id":"0.0-6.0-150.0"},{"sim_score":5,"rt":2551,"stimulus":"[\"img/0862/f188d4f0-76a4-4102-818c-a209969d73a5.jpg\",\"img/0867/de92135f-5b65-4ed9-b245-188292c7c2f8.jpg\"]","trial_type":"similarity","trial_index":157,"time_elapsed":1085971,"internal_node_id":"0.0-6.0-151.0"},{"sim_score":7,"rt":3385,"stimulus":"[\"img/0766/d5d38751-8fa5-476f-93e9-86ed2d9045ef.jpg\",\"img/0766/c23b5a20-e50f-4d85-841f-cf89212a4348.jpg\"]","trial_type":"similarity","trial_index":158,"time_elapsed":1090363,"internal_node_id":"0.0-6.0-152.0"},{"sim_score":4,"rt":3023,"stimulus":"[\"img/0862/4f0a3b4c-afbf-486e-b248-1d54982f54b4.jpg\",\"img/0894/0130a973-d993-41f8-874a-fee23d9ac11f.jpg\"]","trial_type":"similarity","trial_index":159,"time_elapsed":1094398,"internal_node_id":"0.0-6.0-153.0"},{"sim_score":1,"rt":4764,"stimulus":"[\"img/0899/00715b3f-851b-420b-a26b-d7f79f7759a9.jpg\",\"img/0901/8bb79e82-9c43-4b6f-a655-40655519598b.jpg\"]","trial_type":"similarity","trial_index":160,"time_elapsed":1100174,"internal_node_id":"0.0-6.0-154.0"},{"sim_score":7,"rt":3846,"stimulus":"[\"img/0874/a82926a3-0b43-4add-803c-d5f9ea7798ee.jpg\",\"img/0874/767f289c-9814-4496-803f-745cc8913d1f.jpg\"]","trial_type":"similarity","trial_index":161,"time_elapsed":1105030,"internal_node_id":"0.0-6.0-155.0"},{"sim_score":5,"rt":3102,"stimulus":"[\"img/0860/61fb959d-d4d9-4de4-9e4e-4fa62b4cfcd5.jpg\",\"img/0867/8ba0c5a7-c7e4-42cf-a80a-543763b90779.jpg\"]","trial_type":"similarity","trial_index":162,"time_elapsed":1109145,"internal_node_id":"0.0-6.0-156.0"},{"sim_score":3,"rt":5662,"stimulus":"[\"img/0901/77087ed2-6e12-4329-b2a5-605bca6d972d.jpg\",\"img/0881/54ea8e77-c7e5-4197-b7fa-00b7020849a7.jpg\"]","trial_type":"similarity","trial_index":163,"time_elapsed":1115816,"internal_node_id":"0.0-6.0-157.0"},{"sim_score":5,"rt":2373,"stimulus":"[\"img/0903/45e2d600-57ff-4d69-b22c-0c7896cd38f0.jpg\",\"img/0902/31abfa33-7cdb-44ad-968e-9f7b324d577a.jpg\"]","trial_type":"similarity","trial_index":164,"time_elapsed":1119197,"internal_node_id":"0.0-6.0-158.0"},{"sim_score":2,"rt":2038,"stimulus":"[\"img/0860/fd4662f9-4c03-4d79-8593-06735e55a64b.jpg\",\"img/0764/bd2eaa3e-95a9-4a59-a78e-3f81c766eea9.jpg\"]","trial_type":"similarity","trial_index":165,"time_elapsed":1122249,"internal_node_id":"0.0-6.0-159.0"},{"sim_score":1,"rt":3004,"stimulus":"[\"img/0902/62f11694-7ed7-4cb7-8a73-9e95c43824e7.jpg\",\"img/0875/42910c99-5463-450a-a0f8-d4d060a11455.jpg\"]","trial_type":"similarity","trial_index":166,"time_elapsed":1126266,"internal_node_id":"0.0-6.0-160.0"},{"sim_score":3,"rt":4180,"stimulus":"[\"img/0898/04e39a7a-fcf6-4156-ab0e-f5871f335e1c.jpg\",\"img/0862/de9ad88c-b522-430a-8ee9-eb06a9f85df5.jpg\"]","trial_type":"similarity","trial_index":167,"time_elapsed":1131457,"internal_node_id":"0.0-6.0-161.0"},{"sim_score":4,"rt":2143,"stimulus":"[\"img/0894/6aa5545f-fa7d-4286-bbaa-aaf34dc7ec96.jpg\",\"img/0875/5a7c4e35-6514-4e12-8879-d16071da4cd6.jpg\"]","trial_type":"similarity","trial_index":168,"time_elapsed":1134614,"internal_node_id":"0.0-6.0-162.0"},{"sim_score":5,"rt":2629,"stimulus":"[\"img/0866/d266fece-59b3-46fa-b69f-96f6efb81b59.jpg\",\"img/0864/49150900-7f25-4ce8-8d10-9b47a71d1997.jpg\"]","trial_type":"similarity","trial_index":169,"time_elapsed":1138254,"internal_node_id":"0.0-6.0-163.0"},{"sim_score":2,"rt":2914,"stimulus":"[\"img/0766/a754e4b6-5019-4cf4-8f58-34c20547a1f5.jpg\",\"img/0862/e8cc3bdf-cc43-4565-bccf-492626c70953.jpg\"]","trial_type":"similarity","trial_index":170,"time_elapsed":1142178,"internal_node_id":"0.0-6.0-164.0"},{"sim_score":4,"rt":2262,"stimulus":"[\"img/0866/07c9c966-3c8d-40e7-8128-92b2acbaed5d.jpg\",\"img/0874/29830da7-be5f-44e5-b141-652a0ccf7269.jpg\"]","trial_type":"similarity","trial_index":171,"time_elapsed":1145453,"internal_node_id":"0.0-6.0-165.0"},{"sim_score":6,"rt":2293,"stimulus":"[\"img/0862/53a9cf7c-93c4-41b9-952f-07d17f7a17b2.jpg\",\"img/0860/524b2e98-5767-4d53-942c-ebae6925659b.jpg\"]","trial_type":"similarity","trial_index":172,"time_elapsed":1148759,"internal_node_id":"0.0-6.0-166.0"},{"sim_score":3,"rt":6117,"stimulus":"[\"img/0766/d8221e53-2300-4d99-ae1b-0bfb0eabe579.jpg\",\"img/0901/7d4a3388-488d-4e9b-9d32-9d0def7aae8d.jpg\"]","trial_type":"similarity","trial_index":173,"time_elapsed":1158009,"internal_node_id":"0.0-6.0-167.0"},{"sim_score":7,"rt":3098,"stimulus":"[\"img/0862/92f0146c-20c4-482e-aef5-adb693790338.jpg\",\"img/0862/f23038d4-c366-4f70-979f-66b62362efa4.jpg\"]","trial_type":"similarity","trial_index":174,"time_elapsed":1162117,"internal_node_id":"0.0-6.0-168.0"},{"sim_score":6,"rt":2584,"stimulus":"[\"img/0894/38f5931f-926d-414e-b498-66b188978b7a.jpg\",\"img/0764/f2f23359-8e82-41d3-8900-5b9f4433991d.jpg\"]","trial_type":"similarity","trial_index":175,"time_elapsed":1165711,"internal_node_id":"0.0-6.0-169.0"},{"sim_score":3,"rt":4765,"stimulus":"[\"img/0874/31e22c7c-99aa-40b1-bf03-dd73fa2df4d6.jpg\",\"img/0898/0c7dde4f-efce-4b7a-9387-6921635b7890.jpg\"]","trial_type":"similarity","trial_index":176,"time_elapsed":1171490,"internal_node_id":"0.0-6.0-170.0"},{"sim_score":2,"rt":7643,"stimulus":"[\"img/0860/9593362c-9fe5-4d12-9735-6000a11f6aa5.jpg\",\"img/0766/0bf3793e-c353-45e5-ac6f-753f5f484e10.jpg\"]","trial_type":"similarity","trial_index":177,"time_elapsed":1180144,"internal_node_id":"0.0-6.0-171.0"},{"sim_score":2,"rt":2799,"stimulus":"[\"img/0898/26c41340-15bd-4ead-8fe4-c0d0ddca09c2.jpg\",\"img/0864/6f631579-acf1-415c-a42c-1207f62a8d99.jpg\"]","trial_type":"similarity","trial_index":178,"time_elapsed":1183953,"internal_node_id":"0.0-6.0-172.0"},{"sim_score":4,"rt":3005,"stimulus":"[\"img/0881/445edb15-bd7f-4af3-8bd5-c6ad9677bb31.jpg\",\"img/0764/1f95ab5f-fb65-4d70-b5db-d6bd6351a8aa.jpg\"]","trial_type":"similarity","trial_index":179,"time_elapsed":1187964,"internal_node_id":"0.0-6.0-173.0"},{"sim_score":3,"rt":2281,"stimulus":"[\"img/0898/68476bbb-34a1-42d9-8bc1-deab783d4489.jpg\",\"img/0868/4a8a45ed-2c4f-421b-9564-409a33ecd26c.jpg\"]","trial_type":"similarity","trial_index":180,"time_elapsed":1191257,"internal_node_id":"0.0-6.0-174.0"},{"sim_score":7,"rt":2223,"stimulus":"[\"img/0864/a248adb3-c70b-4652-b7a3-776d2a1e904b.jpg\",\"img/0864/1d15626a-2f7c-410f-819c-0fa2c967e95e.jpg\"]","trial_type":"similarity","trial_index":181,"time_elapsed":1194491,"internal_node_id":"0.0-6.0-175.0"},{"sim_score":4,"rt":3111,"stimulus":"[\"img/0899/a048912c-b12c-40e3-90af-46b69b0cc4fe.jpg\",\"img/0862/ee3b7bff-4a70-4e84-9bea-4a565e456acb.jpg\"]","trial_type":"similarity","trial_index":182,"time_elapsed":1198615,"internal_node_id":"0.0-6.0-176.0"},{"sim_score":5,"rt":4420,"stimulus":"[\"img/0875/03c3c331-738b-4446-af92-3d7386b08c2e.jpg\",\"img/0758/b76ceca7-95ac-46e4-ac13-da02c8e93be9.jpg\"]","trial_type":"similarity","trial_index":183,"time_elapsed":1204049,"internal_node_id":"0.0-6.0-177.0"},{"sim_score":1,"rt":2355,"stimulus":"[\"img/0866/d493a2c8-66eb-44b4-be02-2f327b700b7c.jpg\",\"img/0901/5b97abf9-f0c8-4fd1-b921-36d574779078.jpg\"]","trial_type":"similarity","trial_index":184,"time_elapsed":1207414,"internal_node_id":"0.0-6.0-178.0"},{"sim_score":4,"rt":2295,"stimulus":"[\"img/0769/8c7cf147-1780-4d5c-8ddf-5ea23ff03ac9.jpg\",\"img/0874/99f6563c-8a8d-4c1c-a41d-667b618c3fd5.jpg\"]","trial_type":"similarity","trial_index":185,"time_elapsed":1210721,"internal_node_id":"0.0-6.0-179.0"},{"sim_score":4,"rt":2250,"stimulus":"[\"img/0875/2c361b79-c3d1-4eda-812e-bf03192407bf.jpg\",\"img/0881/f7a8cc63-8842-40a4-9ff8-fe530310d62c.jpg\"]","trial_type":"similarity","trial_index":186,"time_elapsed":1213980,"internal_node_id":"0.0-6.0-180.0"},{"sim_score":7,"rt":2385,"stimulus":"[\"img/0866/9b38d691-1802-4959-ab3f-fc902f0e4ea6.jpg\",\"img/0868/4bd5105a-d2c3-4f82-8c80-57196106ba53.jpg\"]","trial_type":"similarity","trial_index":187,"time_elapsed":1217376,"internal_node_id":"0.0-6.0-181.0"},{"sim_score":4,"rt":2403,"stimulus":"[\"img/0899/25ae6ec8-9565-49fe-a8bb-8d0666f52716.jpg\",\"img/0758/caa93da2-9edf-49fa-96b9-32dedd8f5078.jpg\"]","trial_type":"similarity","trial_index":188,"time_elapsed":1220792,"internal_node_id":"0.0-6.0-182.0"},{"sim_score":4,"rt":2911,"stimulus":"[\"img/0874/a3bc679d-619f-4db6-bb68-116dcb757d9c.jpg\",\"img/0875/d59ff733-eaff-4ee2-9443-06954dd0bcb6.jpg\"]","trial_type":"similarity","trial_index":189,"time_elapsed":1224716,"internal_node_id":"0.0-6.0-183.0"},{"sim_score":3,"rt":2370,"stimulus":"[\"img/0904/63dd06dd-dccb-47ba-9740-eb33239e18a7.jpg\",\"img/0862/cdaed51d-9e2f-4807-801a-4663c40077e2.jpg\"]","trial_type":"similarity","trial_index":190,"time_elapsed":1228095,"internal_node_id":"0.0-6.0-184.0"},{"sim_score":2,"rt":4064,"stimulus":"[\"img/0902/82d20e8c-2162-47a6-925b-52906558c046.jpg\",\"img/0766/fd74fdbb-ea40-4f3a-a091-38d08dfd636e.jpg\"]","trial_type":"similarity","trial_index":191,"time_elapsed":1233170,"internal_node_id":"0.0-6.0-185.0"},{"sim_score":3,"rt":4415,"stimulus":"[\"img/0758/d540bee6-b460-4c32-ac57-bc282742d7d4.jpg\",\"img/0769/50985283-d353-4abc-9abe-14a91d56ebe6.jpg\"]","trial_type":"similarity","trial_index":192,"time_elapsed":1238597,"internal_node_id":"0.0-6.0-186.0"},{"sim_score":6,"rt":4774,"stimulus":"[\"img/0881/f6bd3b96-dc40-4e99-8681-bc3a35cf896d.jpg\",\"img/0881/667e2147-d457-4f32-aa5f-6ab86e5848f1.jpg\"]","trial_type":"similarity","trial_index":193,"time_elapsed":1244384,"internal_node_id":"0.0-6.0-187.0"},{"sim_score":4,"rt":2592,"stimulus":"[\"img/0758/65d426d6-3ff6-415d-8654-a43b83ecc4fe.jpg\",\"img/0866/8efcaa46-83ab-4dee-a35f-850402aa21ae.jpg\"]","trial_type":"similarity","trial_index":194,"time_elapsed":1247985,"internal_node_id":"0.0-6.0-188.0"},{"sim_score":5,"rt":2462,"stimulus":"[\"img/0764/29072395-f595-4e3c-83d3-ff87010039fa.jpg\",\"img/0898/f3a3f225-1248-4ac7-b93b-f0ff28485bf3.jpg\"]","trial_type":"similarity","trial_index":195,"time_elapsed":1251461,"internal_node_id":"0.0-6.0-189.0"},{"sim_score":3,"rt":2464,"stimulus":"[\"img/0903/647ce311-8c71-479a-8361-961db1457139.jpg\",\"img/0901/5657dd86-0ff9-4753-ba2b-9dfb223e5c89.jpg\"]","trial_type":"similarity","trial_index":196,"time_elapsed":1254942,"internal_node_id":"0.0-6.0-190.0"},{"sim_score":7,"rt":4674,"stimulus":"[\"img/0902/9f543501-3cf1-45a7-a2f1-eeca87cc15b9.jpg\",\"img/0898/4184e5a2-84ea-4f36-9b42-ae58646f6f87.jpg\"]","trial_type":"similarity","trial_index":197,"time_elapsed":1260627,"internal_node_id":"0.0-6.0-191.0"},{"sim_score":4,"rt":1836,"stimulus":"[\"img/0864/1ebbc554-99fa-49f9-8799-317375a79820.jpg\",\"img/0901/a9b9c0a0-8aed-4888-a78a-65fb7e764d13.jpg\"]","trial_type":"similarity","trial_index":198,"time_elapsed":1263478,"internal_node_id":"0.0-6.0-192.0"},{"sim_score":3,"rt":3182,"stimulus":"[\"img/0894/bd34223a-2f66-4e16-9d18-193a746b69ff.jpg\",\"img/0881/c24f3051-eefa-42de-aba6-fccb56d93c70.jpg\"]","trial_type":"similarity","trial_index":199,"time_elapsed":1267667,"internal_node_id":"0.0-6.0-193.0"},{"sim_score":7,"rt":3075,"stimulus":"[\"img/0868/e0aff734-077f-40dd-9781-74821abd3621.jpg\",\"img/0868/6a28c3b0-3d76-498a-9fb7-ddafc665eca8.jpg\"]","trial_type":"similarity","trial_index":200,"time_elapsed":1271761,"internal_node_id":"0.0-6.0-194.0"},{"sim_score":5,"rt":3133,"stimulus":"[\"img/0899/0e1d936a-dbe2-4afc-9f19-7b7a1ae6c9ed.jpg\",\"img/0764/bc3865c9-9004-4582-88a7-048478673f97.jpg\"]","trial_type":"similarity","trial_index":201,"time_elapsed":1275905,"internal_node_id":"0.0-6.0-195.0"},{"sim_score":4,"rt":4310,"stimulus":"[\"img/0881/292e9b4b-fca0-4ba8-87f1-4048f9e37b7d.jpg\",\"img/0904/da170c1b-9651-4f08-b231-2bdd1d9a046f.jpg\"]","trial_type":"similarity","trial_index":202,"time_elapsed":1281227,"internal_node_id":"0.0-6.0-196.0"},{"sim_score":3,"rt":2357,"stimulus":"[\"img/0864/87c467d3-abca-482f-ad80-3766c21b1bb3.jpg\",\"img/0902/94ee9c53-a9a2-4f95-b9b7-794a5fc62bb6.jpg\"]","trial_type":"similarity","trial_index":203,"time_elapsed":1284592,"internal_node_id":"0.0-6.0-197.0"},{"sim_score":7,"rt":3498,"stimulus":"[\"img/0894/7fb082e0-ce79-485c-9109-04367fb32275.jpg\",\"img/0904/4e58005d-a2ec-4aaa-b199-445343561396.jpg\"]","trial_type":"similarity","trial_index":204,"time_elapsed":1289100,"internal_node_id":"0.0-6.0-198.0"},{"sim_score":7,"rt":3161,"stimulus":"[\"img/0901/ae1e6ce4-2e10-4ca9-b1e7-21628637ab74.jpg\",\"img/0901/00acf6c1-b66e-4060-bb04-4caf29b5a8b0.jpg\"]","trial_type":"similarity","trial_index":205,"time_elapsed":1293267,"internal_node_id":"0.0-6.0-199.0"},{"sim_score":3,"rt":3014,"stimulus":"[\"img/0894/1b3888e6-cf36-4c4a-a039-187aa5cb71ac.jpg\",\"img/0860/e14d67c1-6d92-4f1e-9257-c8607159c19c.jpg\"]","trial_type":"similarity","trial_index":206,"time_elapsed":1297295,"internal_node_id":"0.0-6.0-200.0"},{"sim_score":6,"rt":2949,"stimulus":"[\"img/0898/a114b375-cb89-44ba-9498-74213f1ecdee.jpg\",\"img/0903/12bd8657-92e6-4c36-a06c-597e7a1d51f3.jpg\"]","trial_type":"similarity","trial_index":207,"time_elapsed":1301257,"internal_node_id":"0.0-6.0-201.0"},{"sim_score":4,"rt":1934,"stimulus":"[\"img/0864/0f537697-a314-47c3-a8cc-8df23b7e536c.jpg\",\"img/0894/b2d2f66e-e480-46da-a02a-6d0c6b285d78.jpg\"]","trial_type":"similarity","trial_index":208,"time_elapsed":1304204,"internal_node_id":"0.0-6.0-202.0"},{"sim_score":4,"rt":1968,"stimulus":"[\"img/0874/93d1f8dc-acf2-4f03-bd8d-8ec35df276ed.jpg\",\"img/0860/c5ccd1a4-4bb7-48e1-9b25-72cfaf06909b.jpg\"]","trial_type":"similarity","trial_index":209,"time_elapsed":1307185,"internal_node_id":"0.0-6.0-203.0"},{"sim_score":3,"rt":2546,"stimulus":"[\"img/0862/f43ceabf-acc1-4107-b857-5d1849808f93.jpg\",\"img/0875/a4935837-7d3c-4df6-88c1-36a94d4991ca.jpg\"]","trial_type":"similarity","trial_index":210,"time_elapsed":1310740,"internal_node_id":"0.0-6.0-204.0"},{"sim_score":4,"rt":3975,"stimulus":"[\"img/0867/5e07b34d-b40f-4b1c-ac10-49975bace45f.jpg\",\"img/0881/f037e3b0-09cb-4a83-b2d9-6a71fe474e63.jpg\"]","trial_type":"similarity","trial_index":211,"time_elapsed":1315723,"internal_node_id":"0.0-6.0-205.0"},{"sim_score":5,"rt":2762,"stimulus":"[\"img/0901/b9141736-3041-4385-a586-b1fe911c76a5.jpg\",\"img/0902/01b41522-de46-4c3a-b0af-a61b2682b40e.jpg\"]","trial_type":"similarity","trial_index":212,"time_elapsed":1319495,"internal_node_id":"0.0-6.0-206.0"},{"sim_score":3,"rt":2703,"stimulus":"[\"img/0899/66ab3178-c3fe-4455-ad17-d5952b08e018.jpg\",\"img/0864/8ddd2e30-a1d0-479f-9cbe-591213023893.jpg\"]","trial_type":"similarity","trial_index":213,"time_elapsed":1323210,"internal_node_id":"0.0-6.0-207.0"},{"sim_score":3,"rt":3611,"stimulus":"[\"img/0901/04a53755-6da5-44d4-a7a6-48a6bc0a2280.jpg\",\"img/0769/3adfa417-3b90-4aab-b437-5eaa474189cb.jpg\"]","trial_type":"similarity","trial_index":214,"time_elapsed":1327829,"internal_node_id":"0.0-6.0-208.0"},{"sim_score":6,"rt":5154,"stimulus":"[\"img/0902/c9c74d2d-9b82-42d7-a9d0-3b8ff67ff81e.jpg\",\"img/0902/6730b12a-f0a7-4587-8c10-a32fae16565b.jpg\"]","trial_type":"similarity","trial_index":215,"time_elapsed":1343974,"internal_node_id":"0.0-6.0-209.0"},{"view_history":"[{\"page_index\":0,\"viewing_time\":8256}]","rt":8258,"trial_type":"instructions","trial_index":216,"time_elapsed":1353233,"internal_node_id":"0.0-7.0"},{"rt":21674,"responses":"{\"Q0\":\"Orange-crowned Warbler\"}","answer":["Nashville Warbler"],"trial_type":"image-multi-choice","trial_index":217,"time_elapsed":1375981,"internal_node_id":"0.0-8.0-0.0"},{"rt":4122,"responses":"{\"Q0\":\"Black-and-white Warbler\"}","answer":["Black-and-white Warbler"],"trial_type":"image-multi-choice","trial_index":218,"time_elapsed":1381146,"internal_node_id":"0.0-8.0-1.0"},{"rt":4769,"responses":"{\"Q0\":\"Magnolia Warbler\"}","answer":["Townsend's Warbler"],"trial_type":"image-multi-choice","trial_index":219,"time_elapsed":1386959,"internal_node_id":"0.0-8.0-2.0"},{"rt":3933,"responses":"{\"Q0\":\"Lark Sparrow\"}","answer":["Lark Sparrow"],"trial_type":"image-multi-choice","trial_index":220,"time_elapsed":1391913,"internal_node_id":"0.0-8.0-3.0"},{"rt":3961,"responses":"{\"Q0\":\"Yellow Warbler\"}","answer":["Yellow Warbler"],"trial_type":"image-multi-choice","trial_index":221,"time_elapsed":1396994,"internal_node_id":"0.0-8.0-4.0"},{"rt":7453,"responses":"{\"Q0\":\"Tennessee Warbler\"}","answer":["Orange-crowned Warbler"],"trial_type":"image-multi-choice","trial_index":222,"time_elapsed":1405474,"internal_node_id":"0.0-8.0-5.0"},{"rt":3732,"responses":"{\"Q0\":\"White-throated Sparrow\"}","answer":["White-throated Sparrow"],"trial_type":"image-multi-choice","trial_index":223,"time_elapsed":1410252,"internal_node_id":"0.0-8.0-6.0"},{"rt":3193,"responses":"{\"Q0\":\"Fox Sparrow\"}","answer":["Fox Sparrow"],"trial_type":"image-multi-choice","trial_index":224,"time_elapsed":1414485,"internal_node_id":"0.0-8.0-7.0"},{"rt":17000,"responses":"{\"Q0\":\"Song Sparrow\"}","answer":["Song Sparrow"],"trial_type":"image-multi-choice","trial_index":225,"time_elapsed":1432525,"internal_node_id":"0.0-8.0-8.0"},{"rt":4709,"responses":"{\"Q0\":\"Blackburnian Warbler\"}","answer":["Blackburnian Warbler"],"trial_type":"image-multi-choice","trial_index":226,"time_elapsed":1438282,"internal_node_id":"0.0-8.0-9.0"},{"rt":5002,"responses":"{\"Q0\":\"Vesper Sparrow\"}","answer":["Vesper Sparrow"],"trial_type":"image-multi-choice","trial_index":227,"time_elapsed":1444328,"internal_node_id":"0.0-8.0-10.0"},{"rt":3876,"responses":"{\"Q0\":\"White-crowned Sparrow\"}","answer":["White-crowned Sparrow"],"trial_type":"image-multi-choice","trial_index":228,"time_elapsed":1449249,"internal_node_id":"0.0-8.0-11.0"},{"rt":3551,"responses":"{\"Q0\":\"American Tree Sparrow\"}","answer":["American Tree Sparrow"],"trial_type":"image-multi-choice","trial_index":229,"time_elapsed":1453841,"internal_node_id":"0.0-8.0-12.0"},{"rt":14836,"responses":"{\"Q0\":\"Orange-crowned Warbler\"}","answer":["Tennessee Warbler"],"trial_type":"image-multi-choice","trial_index":230,"time_elapsed":1469717,"internal_node_id":"0.0-8.0-13.0"},{"rt":3629,"responses":"{\"Q0\":\"Magnolia Warbler\"}","answer":["Magnolia Warbler"],"trial_type":"image-multi-choice","trial_index":231,"time_elapsed":1474385,"internal_node_id":"0.0-8.0-14.0"},{"rt":3188,"responses":"{\"Q0\":\"Northern Waterthrush\"}","answer":["Northern Waterthrush"],"trial_type":"image-multi-choice","trial_index":232,"time_elapsed":1478614,"internal_node_id":"0.0-8.0-15.0"},{"rt":17124,"responses":"{\"Q0\":\"Chipping Sparrow\"}","answer":["Chipping Sparrow"],"trial_type":"image-multi-choice","trial_index":233,"time_elapsed":1496780,"internal_node_id":"0.0-8.0-16.0"},{"rt":4766,"responses":"{\"Q0\":\"Swamp Sparrow\"}","answer":["Swamp Sparrow"],"trial_type":"image-multi-choice","trial_index":234,"time_elapsed":1502588,"internal_node_id":"0.0-8.0-17.0"},{"rt":3772,"responses":"{\"Q0\":\"Lincoln's Sparrow\"}","answer":["Lincoln's Sparrow"],"trial_type":"image-multi-choice","trial_index":235,"time_elapsed":1507406,"internal_node_id":"0.0-8.0-18.0"},{"rt":3093,"responses":"{\"Q0\":\"Ovenbird\"}","answer":["Ovenbird"],"trial_type":"image-multi-choice","trial_index":236,"time_elapsed":1511544,"internal_node_id":"0.0-8.0-19.0"}]