[{"view_history":"[{\"page_index\":0,\"viewing_time\":64357}]","rt":64361,"trial_type":"instructions","trial_index":0,"time_elapsed":64363,"internal_node_id":"0.0-0.0"},{"sim_score":2,"rt":10221,"stimulus":"[\"img/866.jpg\",\"img/868.jpg\"]","trial_type":"similarity_demo","trial_index":1,"time_elapsed":75610,"internal_node_id":"0.0-1.0"},{"view_history":"[{\"page_index\":0,\"viewing_time\":30440}]","rt":30442,"trial_type":"instructions","trial_index":2,"time_elapsed":107053,"internal_node_id":"0.0-2.0"},{"sim_score":1,"rt":5950,"stimulus":"[\"img/766.jpg\",\"img/867.jpg\"]","trial_type":"similarity_demo","trial_index":3,"time_elapsed":114022,"internal_node_id":"0.0-3.0"},{"view_history":"[{\"page_index\":0,\"viewing_time\":11277}]","rt":11277,"trial_type":"instructions","trial_index":4,"time_elapsed":126300,"internal_node_id":"0.0-4.0"},{"view_history":"[{\"page_index\":0,\"viewing_time\":63856}]","rt":63859,"trial_type":"instructions","trial_index":5,"time_elapsed":191160,"internal_node_id":"0.0-5.0"},{"sim_score":1,"rt":204746,"stimulus":"[\"img/0868/e0aff734-077f-40dd-9781-74821abd3621.jpg\",\"img/0901/fb0a8e69-7f19-4e6e-a6bb-a48f97f9b4f3.jpg\"]","trial_type":"similarity","trial_index":6,"time_elapsed":396940,"internal_node_id":"0.0-6.0-0.0"},{"sim_score":2,"rt":6265,"stimulus":"[\"img/0769/75f7e514-0548-4329-b1e4-93c05e74f038.jpg\",\"img/0867/db7e032f-162b-46f5-ae67-2b29679adee4.jpg\"]","trial_type":"similarity","trial_index":7,"time_elapsed":404225,"internal_node_id":"0.0-6.0-1.0"},{"sim_score":2,"rt":5670,"stimulus":"[\"img/0766/2da002a4-05c9-4f5c-9ed7-433b4183e273.jpg\",\"img/0898/4184e5a2-84ea-4f36-9b42-ae58646f6f87.jpg\"]","trial_type":"similarity","trial_index":8,"time_elapsed":410912,"internal_node_id":"0.0-6.0-2.0"},{"sim_score":3,"rt":5825,"stimulus":"[\"img/0902/a323b62d-2fd5-4ac8-acc6-35b768f3c3f2.jpg\",\"img/0881/14236cf2-6b95-48b8-9368-78af09d2d27f.jpg\"]","trial_type":"similarity","trial_index":9,"time_elapsed":417750,"internal_node_id":"0.0-6.0-3.0"},{"sim_score":6,"rt":5646,"stimulus":"[\"img/0894/2217bdcd-23a7-42d3-823b-23f2488d7e87.jpg\",\"img/0894/76c1201f-8524-4865-85e6-dda8cb4ac986.jpg\"]","trial_type":"similarity","trial_index":10,"time_elapsed":424413,"internal_node_id":"0.0-6.0-4.0"},{"sim_score":2,"rt":5464,"stimulus":"[\"img/0874/7e4f2150-3b59-4a36-b5da-a4e0ba410531.jpg\",\"img/0899/d60714ae-98d7-4564-8c98-94dba1351135.jpg\"]","trial_type":"similarity","trial_index":11,"time_elapsed":430889,"internal_node_id":"0.0-6.0-5.0"},{"sim_score":6,"rt":6123,"stimulus":"[\"img/0904/b7c2a2c8-df33-4473-b3d4-ff7147c60db3.jpg\",\"img/0764/17b088f8-3053-4140-b544-d15654cc79ef.jpg\"]","trial_type":"similarity","trial_index":12,"time_elapsed":438023,"internal_node_id":"0.0-6.0-6.0"},{"sim_score":5,"rt":8939,"stimulus":"[\"img/0899/4408c14d-c168-4a7d-96f6-bc87bfb58f83.jpg\",\"img/0898/5f699581-3853-4547-856c-12f419ba5af7.jpg\"]","trial_type":"similarity","trial_index":13,"time_elapsed":447978,"internal_node_id":"0.0-6.0-7.0"},{"sim_score":1,"rt":4061,"stimulus":"[\"img/0874/ca76a855-4e77-4f2f-872a-0a718153e7ed.jpg\",\"img/0903/365f176c-25a4-4973-bd3c-279bf1b39476.jpg\"]","trial_type":"similarity","trial_index":14,"time_elapsed":453048,"internal_node_id":"0.0-6.0-8.0"},{"sim_score":6,"rt":4924,"stimulus":"[\"img/0881/44e09805-5a25-4f17-a716-4ad4a331b174.jpg\",\"img/0758/d540bee6-b460-4c32-ac57-bc282742d7d4.jpg\"]","trial_type":"similarity","trial_index":15,"time_elapsed":458980,"internal_node_id":"0.0-6.0-9.0"},{"sim_score":3,"rt":5743,"stimulus":"[\"img/0898/8605a25b-6895-476d-8c13-df7a83f96093.jpg\",\"img/0901/31c032fd-3c3d-4882-a226-da9a80198937.jpg\"]","trial_type":"similarity","trial_index":16,"time_elapsed":465735,"internal_node_id":"0.0-6.0-10.0"},{"sim_score":2,"rt":5442,"stimulus":"[\"img/0903/150cf64c-0bd2-4674-abbb-a1387cf1f3e9.jpg\",\"img/0769/e31b3bd8-efcb-413e-aa8c-75fac2b8f2ac.jpg\"]","trial_type":"similarity","trial_index":17,"time_elapsed":472195,"internal_node_id":"0.0-6.0-11.0"},{"sim_score":2,"rt":4244,"stimulus":"[\"img/0764/d7c215ab-ea9a-45be-8d5f-417d5b9a8a17.jpg\",\"img/0868/1a62b2b2-18f5-466e-b564-5176a57c565e.jpg\"]","trial_type":"similarity","trial_index":18,"time_elapsed":477457,"internal_node_id":"0.0-6.0-12.0"},{"sim_score":2,"rt":3866,"stimulus":"[\"img/0867/f26f6b60-f772-4f4c-95a4-addc62cfd692.jpg\",\"img/0903/b4a0f61e-a964-4b79-a9a7-f767a8f92f34.jpg\"]","trial_type":"similarity","trial_index":19,"time_elapsed":482336,"internal_node_id":"0.0-6.0-13.0"},{"sim_score":2,"rt":7262,"stimulus":"[\"img/0766/0b48f9e0-7d37-4161-8adb-4e3f5b6b7583.jpg\",\"img/0758/7ee8bc8f-c40b-4b3a-84ec-3e83580622d4.jpg\"]","trial_type":"similarity","trial_index":20,"time_elapsed":490608,"internal_node_id":"0.0-6.0-14.0"},{"sim_score":3,"rt":5917,"stimulus":"[\"img/0902/31abfa33-7cdb-44ad-968e-9f7b324d577a.jpg\",\"img/0860/99c589b9-9140-4d17-90c0-b344323edcda.jpg\"]","trial_type":"similarity","trial_index":21,"time_elapsed":497536,"internal_node_id":"0.0-6.0-15.0"},{"sim_score":1,"rt":4372,"stimulus":"[\"img/0769/ecda2fb3-556b-43ba-8a67-e87dd75ff2b4.jpg\",\"img/0875/dbdd643e-6d0e-4a5c-ab57-b9c29b9c981a.jpg\"]","trial_type":"similarity","trial_index":22,"time_elapsed":502921,"internal_node_id":"0.0-6.0-16.0"},{"sim_score":3,"rt":5464,"stimulus":"[\"img/0904/2fd488e9-960f-41f7-8a44-33375f7d5051.jpg\",\"img/0866/a15b02be-11bb-43e3-b0e0-ecc3bd7dfc49.jpg\"]","trial_type":"similarity","trial_index":23,"time_elapsed":509397,"internal_node_id":"0.0-6.0-17.0"},{"sim_score":5,"rt":5199,"stimulus":"[\"img/0875/a4935837-7d3c-4df6-88c1-36a94d4991ca.jpg\",\"img/0875/fb732ab5-013a-4366-9f65-27811ed157e9.jpg\"]","trial_type":"similarity","trial_index":24,"time_elapsed":515633,"internal_node_id":"0.0-6.0-18.0"},{"sim_score":6,"rt":5047,"stimulus":"[\"img/0758/a709631e-3705-4725-ac40-f0d916924f08.jpg\",\"img/0758/d41c06bf-ebaf-454b-91c6-1a17f917b659.jpg\"]","trial_type":"similarity","trial_index":25,"time_elapsed":521691,"internal_node_id":"0.0-6.0-19.0"},{"sim_score":5,"rt":6303,"stimulus":"[\"img/0902/168ebd47-9e82-4ab7-a18b-c3da85072db8.jpg\",\"img/0874/adf9a8f1-c40b-402b-b95b-1e85a54a7b62.jpg\"]","trial_type":"similarity","trial_index":26,"time_elapsed":529004,"internal_node_id":"0.0-6.0-20.0"},{"sim_score":6,"rt":5129,"stimulus":"[\"img/0764/f64dfa83-333d-494c-87b5-73e942f1766e.jpg\",\"img/0769/4a1d0b52-3fe8-40fb-bb1c-c814fe49a68c.jpg\"]","trial_type":"similarity","trial_index":27,"time_elapsed":535149,"internal_node_id":"0.0-6.0-21.0"},{"sim_score":2,"rt":3853,"stimulus":"[\"img/0901/08d6d1d1-c043-43c4-bb08-d45e062822b9.jpg\",\"img/0874/3f471690-9788-4d03-90c7-f615aecef149.jpg\"]","trial_type":"similarity","trial_index":28,"time_elapsed":540011,"internal_node_id":"0.0-6.0-22.0"},{"sim_score":1,"rt":3550,"stimulus":"[\"img/0875/2c361b79-c3d1-4eda-812e-bf03192407bf.jpg\",\"img/0903/a0673b55-6040-47fe-9040-24bca27ca3c9.jpg\"]","trial_type":"similarity","trial_index":29,"time_elapsed":544583,"internal_node_id":"0.0-6.0-23.0"},{"sim_score":1,"rt":3911,"stimulus":"[\"img/0769/c7cfacc3-7f07-46ff-9f5d-8073f4c4679b.jpg\",\"img/0881/f4e3e181-b3c9-4af2-a5a4-fc135ab70d2e.jpg\"]","trial_type":"similarity","trial_index":30,"time_elapsed":549503,"internal_node_id":"0.0-6.0-24.0"},{"sim_score":1,"rt":3511,"stimulus":"[\"img/0867/c71dc569-f49c-4397-8381-68b8d726736d.jpg\",\"img/0904/09934646-45d2-4147-8fec-64a22a5ac822.jpg\"]","trial_type":"similarity","trial_index":31,"time_elapsed":554026,"internal_node_id":"0.0-6.0-25.0"},{"sim_score":2,"rt":4022,"stimulus":"[\"img/0860/f44ba3fb-03a2-42f0-8509-2c1ded493086.jpg\",\"img/0881/0c7068da-d0d9-4103-bda1-74ef7a2b32c3.jpg\"]","trial_type":"similarity","trial_index":32,"time_elapsed":559057,"internal_node_id":"0.0-6.0-26.0"},{"sim_score":6,"rt":4033,"stimulus":"[\"img/0866/be24ab58-230e-4db8-9f45-ff04c9aec6bb.jpg\",\"img/0866/d493a2c8-66eb-44b4-be02-2f327b700b7c.jpg\"]","trial_type":"similarity","trial_index":33,"time_elapsed":564099,"internal_node_id":"0.0-6.0-27.0"},{"sim_score":2,"rt":6560,"stimulus":"[\"img/0764/b8e23f4f-ff19-4472-ad9b-2f85548ebca0.jpg\",\"img/0862/d0ca4c78-fc35-46ed-bdcc-8e124283c53e.jpg\"]","trial_type":"similarity","trial_index":34,"time_elapsed":571667,"internal_node_id":"0.0-6.0-28.0"},{"sim_score":1,"rt":4585,"stimulus":"[\"img/0904/9dd5708f-3f8b-46a9-b49f-2f2fab87b357.jpg\",\"img/0758/65d426d6-3ff6-415d-8654-a43b83ecc4fe.jpg\"]","trial_type":"similarity","trial_index":35,"time_elapsed":577264,"internal_node_id":"0.0-6.0-29.0"},{"sim_score":3,"rt":5645,"stimulus":"[\"img/0894/492d2f29-d7b9-4422-8be8-47fd58bfaa8b.jpg\",\"img/0899/a05bea16-2bb4-4cb9-b8fb-4ff975db6971.jpg\"]","trial_type":"similarity","trial_index":36,"time_elapsed":583916,"internal_node_id":"0.0-6.0-30.0"},{"sim_score":2,"rt":3784,"stimulus":"[\"img/0860/524b2e98-5767-4d53-942c-ebae6925659b.jpg\",\"img/0904/60d1a521-edf7-4696-9263-f21ac0e62a01.jpg\"]","trial_type":"similarity","trial_index":37,"time_elapsed":588720,"internal_node_id":"0.0-6.0-31.0"},{"sim_score":6,"rt":3767,"stimulus":"[\"img/0874/767f289c-9814-4496-803f-745cc8913d1f.jpg\",\"img/0881/e6746727-7f89-47ec-b939-d98abe78372d.jpg\"]","trial_type":"similarity","trial_index":38,"time_elapsed":593498,"internal_node_id":"0.0-6.0-32.0"},{"sim_score":5,"rt":4542,"stimulus":"[\"img/0881/19e82c47-8e4b-45d2-a6c8-74181eb4155e.jpg\",\"img/0899/9de5e857-aa9a-4e0c-8ba2-46d79bd069a4.jpg\"]","trial_type":"similarity","trial_index":39,"time_elapsed":599046,"internal_node_id":"0.0-6.0-33.0"},{"sim_score":1,"rt":3526,"stimulus":"[\"img/0866/bf14b5bd-fb55-47db-86b9-4f8aeb9a6dad.jpg\",\"img/0862/1c20f772-3a51-4a80-aac0-f57dc9f86c28.jpg\"]","trial_type":"similarity","trial_index":40,"time_elapsed":603579,"internal_node_id":"0.0-6.0-34.0"},{"sim_score":3,"rt":3884,"stimulus":"[\"img/0868/0d3abd3a-b6c3-4584-a9f7-e2da63748b3d.jpg\",\"img/0894/9b1333fd-3561-43bf-aee5-99b7b7ca3dc3.jpg\"]","trial_type":"similarity","trial_index":41,"time_elapsed":608469,"internal_node_id":"0.0-6.0-35.0"},{"sim_score":7,"rt":4289,"stimulus":"[\"img/0860/4f695df5-afac-4da7-9875-fee39b0b24ad.jpg\",\"img/0860/61fb959d-d4d9-4de4-9e4e-4fa62b4cfcd5.jpg\"]","trial_type":"similarity","trial_index":42,"time_elapsed":613764,"internal_node_id":"0.0-6.0-36.0"},{"sim_score":5,"rt":6072,"stimulus":"[\"img/0862/53a9cf7c-93c4-41b9-952f-07d17f7a17b2.jpg\",\"img/0864/f92649a2-0590-4d31-9a7a-1bfb81666a2d.jpg\"]","trial_type":"similarity","trial_index":43,"time_elapsed":620856,"internal_node_id":"0.0-6.0-37.0"},{"sim_score":2,"rt":4130,"stimulus":"[\"img/0766/f5f78e4e-d88f-4866-951a-118ba9fec4d0.jpg\",\"img/0866/0207e9a2-7dbb-40b5-9459-b472aaeceb2a.jpg\"]","trial_type":"similarity","trial_index":44,"time_elapsed":626001,"internal_node_id":"0.0-6.0-38.0"},{"sim_score":3,"rt":3489,"stimulus":"[\"img/0875/d59ff733-eaff-4ee2-9443-06954dd0bcb6.jpg\",\"img/0898/26c41340-15bd-4ead-8fe4-c0d0ddca09c2.jpg\"]","trial_type":"similarity","trial_index":45,"time_elapsed":630502,"internal_node_id":"0.0-6.0-39.0"},{"sim_score":6,"rt":4624,"stimulus":"[\"img/0766/3c526a07-9e0a-4ae2-8142-00085f0127da.jpg\",\"img/0769/ebef2ddc-ba59-4e0e-97f8-927864eb5081.jpg\"]","trial_type":"similarity","trial_index":46,"time_elapsed":636134,"internal_node_id":"0.0-6.0-40.0"},{"sim_score":3,"rt":5718,"stimulus":"[\"img/0874/29830da7-be5f-44e5-b141-652a0ccf7269.jpg\",\"img/0764/1def7b22-b054-4ec2-860b-73d25691823b.jpg\"]","trial_type":"similarity","trial_index":47,"time_elapsed":685558,"internal_node_id":"0.0-6.0-41.0"},{"sim_score":2,"rt":6469,"stimulus":"[\"img/0868/77091fc7-a590-4ebb-b915-fdb2483a2399.jpg\",\"img/0902/c9c74d2d-9b82-42d7-a9d0-3b8ff67ff81e.jpg\"]","trial_type":"similarity","trial_index":48,"time_elapsed":693038,"internal_node_id":"0.0-6.0-42.0"},{"sim_score":1,"rt":3913,"stimulus":"[\"img/0875/527ced51-8e53-4aab-ab05-86df219104c0.jpg\",\"img/0899/06b0fc99-0581-461a-9913-d1a5a941ac61.jpg\"]","trial_type":"similarity","trial_index":49,"time_elapsed":697967,"internal_node_id":"0.0-6.0-43.0"},{"sim_score":1,"rt":3970,"stimulus":"[\"img/0866/02f5e6b9-52b7-448c-9708-5b460d0c9a23.jpg\",\"img/0860/18dfed73-e36b-4487-a8bd-0b8cff8e3668.jpg\"]","trial_type":"similarity","trial_index":50,"time_elapsed":702949,"internal_node_id":"0.0-6.0-44.0"},{"sim_score":3,"rt":4243,"stimulus":"[\"img/0766/af3be95e-e52e-4fae-899b-0ff02ec340aa.jpg\",\"img/0903/39365c8e-a733-4801-ac7d-b87e38c3784b.jpg\"]","trial_type":"similarity","trial_index":51,"time_elapsed":708204,"internal_node_id":"0.0-6.0-45.0"},{"sim_score":1,"rt":5073,"stimulus":"[\"img/0901/f469cb1d-6d81-4a45-bab5-cd0b650c2b4f.jpg\",\"img/0904/2c98dc56-88d1-4fb5-a999-b6a7861f65f0.jpg\"]","trial_type":"similarity","trial_index":52,"time_elapsed":714285,"internal_node_id":"0.0-6.0-46.0"},{"sim_score":2,"rt":4106,"stimulus":"[\"img/0758/caa93da2-9edf-49fa-96b9-32dedd8f5078.jpg\",\"img/0902/417d8b4a-3c72-4adc-ac78-820e833316f2.jpg\"]","trial_type":"similarity","trial_index":53,"time_elapsed":719403,"internal_node_id":"0.0-6.0-47.0"},{"sim_score":6,"rt":4975,"stimulus":"[\"img/0764/f713847b-4832-42d1-8fb3-e17e37fd745c.jpg\",\"img/0764/29072395-f595-4e3c-83d3-ff87010039fa.jpg\"]","trial_type":"similarity","trial_index":54,"time_elapsed":725387,"internal_node_id":"0.0-6.0-48.0"},{"sim_score":1,"rt":4147,"stimulus":"[\"img/0866/945c6710-d15b-4a5b-a8f6-69af0850357f.jpg\",\"img/0902/c920f0e1-1c81-480f-a164-c77f2dc6ce9a.jpg\"]","trial_type":"similarity","trial_index":55,"time_elapsed":730542,"internal_node_id":"0.0-6.0-49.0"},{"sim_score":3,"rt":5520,"stimulus":"[\"img/0764/c0b03adb-bd0a-4b96-a915-a827c2fd5211.jpg\",\"img/0758/eabcd7a8-56ad-4fd2-bc24-90f6b7b33265.jpg\"]","trial_type":"similarity","trial_index":56,"time_elapsed":737074,"internal_node_id":"0.0-6.0-50.0"},{"sim_score":2,"rt":4070,"stimulus":"[\"img/0898/f3a3f225-1248-4ac7-b93b-f0ff28485bf3.jpg\",\"img/0894/0130a973-d993-41f8-874a-fee23d9ac11f.jpg\"]","trial_type":"similarity","trial_index":57,"time_elapsed":742152,"internal_node_id":"0.0-6.0-51.0"},{"sim_score":3,"rt":4525,"stimulus":"[\"img/0875/2e13d160-eea1-416b-aff1-d37ab99ecc1d.jpg\",\"img/0866/11a1d141-be5e-443c-98c1-a9d4d9e3dec0.jpg\"]","trial_type":"similarity","trial_index":58,"time_elapsed":747684,"internal_node_id":"0.0-6.0-52.0"},{"sim_score":7,"rt":4124,"stimulus":"[\"img/0904/4e58005d-a2ec-4aaa-b199-445343561396.jpg\",\"img/0904/5cceabc9-de1d-4c67-989b-c28a4ef77e79.jpg\"]","trial_type":"similarity","trial_index":59,"time_elapsed":752821,"internal_node_id":"0.0-6.0-53.0"},{"sim_score":6,"rt":5437,"stimulus":"[\"img/0769/022c7e3b-c3f2-4119-b4bc-f22fa7cae18c.jpg\",\"img/0769/35f2dd39-40aa-498e-b401-9f1ef2622d00.jpg\"]","trial_type":"similarity","trial_index":60,"time_elapsed":759267,"internal_node_id":"0.0-6.0-54.0"},{"sim_score":2,"rt":4153,"stimulus":"[\"img/0898/04e39a7a-fcf6-4156-ab0e-f5871f335e1c.jpg\",\"img/0758/20497cbe-ddae-489e-86e2-ab06985ed07c.jpg\"]","trial_type":"similarity","trial_index":61,"time_elapsed":764431,"internal_node_id":"0.0-6.0-55.0"},{"sim_score":3,"rt":4499,"stimulus":"[\"img/0769/9ea9ceb6-049e-4ad9-be8f-00645cd35803.jpg\",\"img/0902/10d99c89-71f7-4c81-a31e-dfc7c59f5232.jpg\"]","trial_type":"similarity","trial_index":62,"time_elapsed":769939,"internal_node_id":"0.0-6.0-56.0"},{"sim_score":5,"rt":4355,"stimulus":"[\"img/0864/da39ad34-04e0-40d4-a724-c08d53e0ea09.jpg\",\"img/0881/ee44e27f-d662-4608-b265-e7ffa19b216f.jpg\"]","trial_type":"similarity","trial_index":63,"time_elapsed":775312,"internal_node_id":"0.0-6.0-57.0"},{"sim_score":1,"rt":3861,"stimulus":"[\"img/0758/f61ecdf8-a7d4-4db0-b84d-be46f7cfaffc.jpg\",\"img/0868/d98ca254-b195-477f-b57e-5760a2717db8.jpg\"]","trial_type":"similarity","trial_index":64,"time_elapsed":780183,"internal_node_id":"0.0-6.0-58.0"},{"sim_score":5,"rt":5462,"stimulus":"[\"img/0862/f188d4f0-76a4-4102-818c-a209969d73a5.jpg\",\"img/0769/a1ce8d07-ba37-40de-bade-2778805521e0.jpg\"]","trial_type":"similarity","trial_index":65,"time_elapsed":786653,"internal_node_id":"0.0-6.0-59.0"},{"sim_score":3,"rt":4811,"stimulus":"[\"img/0764/e42c1dc9-7831-4995-be19-7ca7b4d141fc.jpg\",\"img/0903/45e2d600-57ff-4d69-b22c-0c7896cd38f0.jpg\"]","trial_type":"similarity","trial_index":66,"time_elapsed":792474,"internal_node_id":"0.0-6.0-60.0"},{"sim_score":7,"rt":4115,"stimulus":"[\"img/0899/93494f3b-d539-4075-b027-d82e344563da.jpg\",\"img/0899/76ad07e2-ca25-45eb-84f2-8d80b8ca3e26.jpg\"]","trial_type":"similarity","trial_index":67,"time_elapsed":797595,"internal_node_id":"0.0-6.0-61.0"},{"sim_score":1,"rt":3212,"stimulus":"[\"img/0860/15b24a61-25be-4356-9eac-5ce95d0cb4a4.jpg\",\"img/0875/42910c99-5463-450a-a0f8-d4d060a11455.jpg\"]","trial_type":"similarity","trial_index":68,"time_elapsed":801814,"internal_node_id":"0.0-6.0-62.0"},{"sim_score":1,"rt":4197,"stimulus":"[\"img/0868/fd307a36-9a3a-47d7-ab7c-f810d0b35040.jpg\",\"img/0874/85eb9b8a-c4c6-4e5a-b8e7-363a87a82054.jpg\"]","trial_type":"similarity","trial_index":69,"time_elapsed":807016,"internal_node_id":"0.0-6.0-63.0"},{"sim_score":1,"rt":3166,"stimulus":"[\"img/0758/61d64021-9214-4951-bdf8-f871f9827cf9.jpg\",\"img/0862/e697469a-ec19-4414-b972-7b9f3564785b.jpg\"]","trial_type":"similarity","trial_index":70,"time_elapsed":811189,"internal_node_id":"0.0-6.0-64.0"},{"sim_score":5,"rt":3929,"stimulus":"[\"img/0904/1d10df11-b5c8-4370-9a6b-097a7f965895.jpg\",\"img/0898/881e2a85-d5c2-49be-a0c6-8a6ce2c4af08.jpg\"]","trial_type":"similarity","trial_index":71,"time_elapsed":816125,"internal_node_id":"0.0-6.0-65.0"},{"sim_score":1,"rt":3238,"stimulus":"[\"img/0881/7e31e5dc-2240-4b1b-b5a0-3acd980099ef.jpg\",\"img/0866/620cd1aa-0800-4414-8f6e-90342e7a99ad.jpg\"]","trial_type":"similarity","trial_index":72,"time_elapsed":820371,"internal_node_id":"0.0-6.0-66.0"},{"sim_score":1,"rt":2976,"stimulus":"[\"img/0867/ac1797e4-8afc-48fe-b252-86d1defb1cca.jpg\",\"img/0898/a114b375-cb89-44ba-9498-74213f1ecdee.jpg\"]","trial_type":"similarity","trial_index":73,"time_elapsed":824369,"internal_node_id":"0.0-6.0-67.0"},{"sim_score":5,"rt":5171,"stimulus":"[\"img/0902/8065aa6b-4aef-4368-afa2-02c6465ca582.jpg\",\"img/0764/fb92924f-5cfe-4b89-b130-0cce8cc5636b.jpg\"]","trial_type":"similarity","trial_index":74,"time_elapsed":830546,"internal_node_id":"0.0-6.0-68.0"},{"sim_score":5,"rt":3900,"stimulus":"[\"img/0875/e7e66b13-b573-431e-b85e-288ce04a35a3.jpg\",\"img/0867/26611f4e-d694-4460-b7e2-43c62753ddc3.jpg\"]","trial_type":"similarity","trial_index":75,"time_elapsed":835452,"internal_node_id":"0.0-6.0-69.0"},{"sim_score":6,"rt":5088,"stimulus":"[\"img/0766/ea09dd5a-d24d-4e97-a099-7da3db1baef1.jpg\",\"img/0764/50f1b062-d608-4bc0-ab25-b872dcf2ed93.jpg\"]","trial_type":"similarity","trial_index":76,"time_elapsed":841547,"internal_node_id":"0.0-6.0-70.0"},{"sim_score":5,"rt":5149,"stimulus":"[\"img/0894/1b3888e6-cf36-4c4a-a039-187aa5cb71ac.jpg\",\"img/0867/f8159067-056c-41f1-a136-c529fe5e970a.jpg\"]","trial_type":"similarity","trial_index":77,"time_elapsed":847703,"internal_node_id":"0.0-6.0-71.0"},{"sim_score":1,"rt":3932,"stimulus":"[\"img/0875/99698b4d-b4a1-44bc-8c83-8ea755bbbf61.jpg\",\"img/0764/c01e2d65-6586-441b-bef5-3c96fcd85380.jpg\"]","trial_type":"similarity","trial_index":78,"time_elapsed":852641,"internal_node_id":"0.0-6.0-72.0"},{"sim_score":6,"rt":4518,"stimulus":"[\"img/0867/075e0f95-856b-4cbb-acf5-092393aaf04e.jpg\",\"img/0866/23a224f3-2012-4fc8-8e0f-3c36f8de27fd.jpg\"]","trial_type":"similarity","trial_index":79,"time_elapsed":858165,"internal_node_id":"0.0-6.0-73.0"},{"sim_score":2,"rt":3485,"stimulus":"[\"img/0903/b7e3723f-fd03-4f3d-8820-f19496463a34.jpg\",\"img/0758/821c68d3-5cb0-4eae-8659-30e6263fca39.jpg\"]","trial_type":"similarity","trial_index":80,"time_elapsed":862657,"internal_node_id":"0.0-6.0-74.0"},{"sim_score":1,"rt":4657,"stimulus":"[\"img/0766/717fd72f-a281-499b-a5ba-5e2ecc4d4866.jpg\",\"img/0868/4bd5105a-d2c3-4f82-8c80-57196106ba53.jpg\"]","trial_type":"similarity","trial_index":81,"time_elapsed":868321,"internal_node_id":"0.0-6.0-75.0"},{"sim_score":2,"rt":3767,"stimulus":"[\"img/0874/31e22c7c-99aa-40b1-bf03-dd73fa2df4d6.jpg\",\"img/0766/00891401-e4c9-4ce1-bc19-f70740d174bc.jpg\"]","trial_type":"similarity","trial_index":82,"time_elapsed":873093,"internal_node_id":"0.0-6.0-76.0"},{"sim_score":3,"rt":4221,"stimulus":"[\"img/0881/445edb15-bd7f-4af3-8bd5-c6ad9677bb31.jpg\",\"img/0868/3a62db2d-97e9-44a3-b8e3-a48c6f0e423b.jpg\"]","trial_type":"similarity","trial_index":83,"time_elapsed":878320,"internal_node_id":"0.0-6.0-77.0"},{"sim_score":1,"rt":3158,"stimulus":"[\"img/0758/2fa3e613-e676-4e6e-bd12-705327eeb3e1.jpg\",\"img/0901/effc03f6-8f9d-46db-a66c-16fc83891c5c.jpg\"]","trial_type":"similarity","trial_index":84,"time_elapsed":882485,"internal_node_id":"0.0-6.0-78.0"},{"sim_score":3,"rt":5642,"stimulus":"[\"img/0881/db77fe00-aeb0-4d1d-aa66-f3a96fd077e4.jpg\",\"img/0898/0c7dde4f-efce-4b7a-9387-6921635b7890.jpg\"]","trial_type":"similarity","trial_index":85,"time_elapsed":889133,"internal_node_id":"0.0-6.0-79.0"},{"sim_score":1,"rt":3404,"stimulus":"[\"img/0867/f8488a47-94ee-4166-952c-44e16cf172f6.jpg\",\"img/0758/335851a0-a55b-46d8-ab05-8463eda48349.jpg\"]","trial_type":"similarity","trial_index":86,"time_elapsed":893547,"internal_node_id":"0.0-6.0-80.0"},{"sim_score":5,"rt":5235,"stimulus":"[\"img/0769/0fe124d3-bcad-45f6-b64d-8f6eb8ee5251.jpg\",\"img/0899/51a7a498-98c7-42d7-bca8-bc2d8f0b5831.jpg\"]","trial_type":"similarity","trial_index":87,"time_elapsed":899788,"internal_node_id":"0.0-6.0-81.0"},{"sim_score":7,"rt":3774,"stimulus":"[\"img/0903/2a9c8033-3e70-47fa-816d-97ee1813a3a3.jpg\",\"img/0903/b548d383-2a95-4575-8c13-647873751ff1.jpg\"]","trial_type":"similarity","trial_index":88,"time_elapsed":904568,"internal_node_id":"0.0-6.0-82.0"},{"sim_score":2,"rt":4846,"stimulus":"[\"img/0867/98d8cd96-1476-4fe0-a3a3-04f875500a1b.jpg\",\"img/0766/27f54113-8561-4568-9ffe-0a1650ae65ec.jpg\"]","trial_type":"similarity","trial_index":89,"time_elapsed":922197,"internal_node_id":"0.0-6.0-83.0"},{"sim_score":1,"rt":4354,"stimulus":"[\"img/0902/0db94c50-f1fb-4091-953c-29ca0466bee2.jpg\",\"img/0867/aa05d113-fc19-4756-a8eb-7878f580bc92.jpg\"]","trial_type":"similarity","trial_index":90,"time_elapsed":927564,"internal_node_id":"0.0-6.0-84.0"},{"sim_score":1,"rt":2850,"stimulus":"[\"img/0901/a6776381-91fe-43f8-ab73-261d318f95fd.jpg\",\"img/0875/3ecb367d-e9eb-4826-8aaa-7aa72fb98019.jpg\"]","trial_type":"similarity","trial_index":91,"time_elapsed":931423,"internal_node_id":"0.0-6.0-85.0"},{"sim_score":2,"rt":4640,"stimulus":"[\"img/0764/952d7adc-dc40-4aee-acce-18c2a1d02ea1.jpg\",\"img/0866/c446214b-a368-4c65-ae39-ea46894256ab.jpg\"]","trial_type":"similarity","trial_index":92,"time_elapsed":937072,"internal_node_id":"0.0-6.0-86.0"},{"sim_score":2,"rt":3378,"stimulus":"[\"img/0901/0f670aef-ac36-496d-8142-ee5fdb21dd82.jpg\",\"img/0894/7f2f31fd-6618-41c6-b65a-0fd8b2851bc9.jpg\"]","trial_type":"similarity","trial_index":93,"time_elapsed":941459,"internal_node_id":"0.0-6.0-87.0"},{"sim_score":5,"rt":4183,"stimulus":"[\"img/0898/68476bbb-34a1-42d9-8bc1-deab783d4489.jpg\",\"img/0769/82ab9db6-4578-4e79-874f-f09100439f09.jpg\"]","trial_type":"similarity","trial_index":94,"time_elapsed":946647,"internal_node_id":"0.0-6.0-88.0"},{"sim_score":6,"rt":5079,"stimulus":"[\"img/0769/6c0bac4c-5f59-43c7-898c-3ca93cf55cfe.jpg\",\"img/0894/792c83e9-a747-4000-bc72-5663d2439edb.jpg\"]","trial_type":"similarity","trial_index":95,"time_elapsed":952730,"internal_node_id":"0.0-6.0-89.0"},{"sim_score":3,"rt":4574,"stimulus":"[\"img/0862/a0a3a7ba-7798-46a3-b4ca-05e1f6e581d0.jpg\",\"img/0874/3ce41e7c-40c8-4d58-a546-171114521796.jpg\"]","trial_type":"similarity","trial_index":96,"time_elapsed":958310,"internal_node_id":"0.0-6.0-90.0"},{"sim_score":3,"rt":3408,"stimulus":"[\"img/0894/133a1636-d123-4893-873c-1718050f832a.jpg\",\"img/0766/33aa9ebb-c9f5-418f-8c8b-c77861889568.jpg\"]","trial_type":"similarity","trial_index":97,"time_elapsed":962725,"internal_node_id":"0.0-6.0-91.0"},{"sim_score":1,"rt":2835,"stimulus":"[\"img/0874/eba003b4-cdab-4eee-8bc3-f064c7d94165.jpg\",\"img/0867/179ab87a-8eac-4c52-a41f-2e48e3120f09.jpg\"]","trial_type":"similarity","trial_index":98,"time_elapsed":966567,"internal_node_id":"0.0-6.0-92.0"},{"sim_score":1,"rt":3017,"stimulus":"[\"img/0899/8de08897-b430-42fe-9d42-840670b80f94.jpg\",\"img/0868/83b4350a-3b70-4cea-b7f5-b5b56f3050a8.jpg\"]","trial_type":"similarity","trial_index":99,"time_elapsed":970591,"internal_node_id":"0.0-6.0-93.0"},{"sim_score":5,"rt":4547,"stimulus":"[\"img/0903/680ed18e-b311-4ecf-9b00-7dea32128334.jpg\",\"img/0862/e0f1a4e9-e1b6-45f7-af67-89f334e6630d.jpg\"]","trial_type":"similarity","trial_index":100,"time_elapsed":976144,"internal_node_id":"0.0-6.0-94.0"},{"sim_score":3,"rt":5001,"stimulus":"[\"img/0899/f58b8d2f-b19d-4b59-8b94-8834be92e4ba.jpg\",\"img/0766/1865bfc9-2410-4765-a804-3ae4ba2393d0.jpg\"]","trial_type":"similarity","trial_index":101,"time_elapsed":982152,"internal_node_id":"0.0-6.0-95.0"},{"sim_score":6,"rt":3986,"stimulus":"[\"img/0867/2e1a0b58-cdb1-4107-a14e-452530d7b9b0.jpg\",\"img/0868/15dd6fd7-791e-4b53-b203-195d617521a4.jpg\"]","trial_type":"similarity","trial_index":102,"time_elapsed":987145,"internal_node_id":"0.0-6.0-96.0"},{"sim_score":5,"rt":6970,"stimulus":"[\"img/0862/99a99e39-8355-44ec-b993-e7bcec111e1c.jpg\",\"img/0901/a9b9c0a0-8aed-4888-a78a-65fb7e764d13.jpg\"]","trial_type":"similarity","trial_index":103,"time_elapsed":995120,"internal_node_id":"0.0-6.0-97.0"},{"sim_score":1,"rt":3105,"stimulus":"[\"img/0875/34132396-d896-4c2d-8087-646dd867e769.jpg\",\"img/0766/d14acac4-7db1-4b07-8f8f-302437326fc0.jpg\"]","trial_type":"similarity","trial_index":104,"time_elapsed":999231,"internal_node_id":"0.0-6.0-98.0"},{"sim_score":2,"rt":4899,"stimulus":"[\"img/0758/e1ba5e53-addc-436a-b428-d34fc1b130dc.jpg\",\"img/0874/c0378dac-9370-439a-8b79-db27c96fb390.jpg\"]","trial_type":"similarity","trial_index":105,"time_elapsed":1005136,"internal_node_id":"0.0-6.0-99.0"},{"sim_score":3,"rt":4362,"stimulus":"[\"img/0904/96e503ea-6630-4996-85f2-0237688ce441.jpg\",\"img/0868/179a5502-ab5c-478e-8263-5a1fbcc101d2.jpg\"]","trial_type":"similarity","trial_index":106,"time_elapsed":1010505,"internal_node_id":"0.0-6.0-100.0"},{"sim_score":1,"rt":3508,"stimulus":"[\"img/0903/71dbc325-b588-4297-a5cf-7f268a722ad9.jpg\",\"img/0866/386235d2-6857-41e7-88a8-25cfc3430025.jpg\"]","trial_type":"similarity","trial_index":107,"time_elapsed":1015019,"internal_node_id":"0.0-6.0-101.0"},{"sim_score":1,"rt":2956,"stimulus":"[\"img/0868/6a28c3b0-3d76-498a-9fb7-ddafc665eca8.jpg\",\"img/0769/b664b502-a86c-46c1-ad6f-5ebffc2e1bd3.jpg\"]","trial_type":"similarity","trial_index":108,"time_elapsed":1018981,"internal_node_id":"0.0-6.0-102.0"},{"sim_score":5,"rt":4149,"stimulus":"[\"img/0902/27b84584-948a-485b-8749-cb09929ef631.jpg\",\"img/0899/ddf96ade-692e-4602-bd22-dedbb46401bc.jpg\"]","trial_type":"similarity","trial_index":109,"time_elapsed":1024137,"internal_node_id":"0.0-6.0-103.0"},{"sim_score":1,"rt":4150,"stimulus":"[\"img/0868/5fa7f9d0-f0e5-454c-8224-74d964818f56.jpg\",\"img/0862/5d887e9f-89e2-4ebc-80a0-6d46fe6480db.jpg\"]","trial_type":"similarity","trial_index":110,"time_elapsed":1029293,"internal_node_id":"0.0-6.0-104.0"},{"sim_score":6,"rt":4158,"stimulus":"[\"img/0903/8f7f9939-b8e6-433f-93dd-b362496c80a7.jpg\",\"img/0894/38cf335f-f76f-4349-8d65-e20cd6859565.jpg\"]","trial_type":"similarity","trial_index":111,"time_elapsed":1034457,"internal_node_id":"0.0-6.0-105.0"},{"sim_score":6,"rt":4415,"stimulus":"[\"img/0864/5f74a653-3bdc-4308-8cca-ac667dc22e1f.jpg\",\"img/0874/99f6563c-8a8d-4c1c-a41d-667b618c3fd5.jpg\"]","trial_type":"similarity","trial_index":112,"time_elapsed":1039879,"internal_node_id":"0.0-6.0-106.0"},{"sim_score":5,"rt":4876,"stimulus":"[\"img/0862/7918ca67-5bd3-4606-a5ea-c39fb11a9297.jpg\",\"img/0902/22ed3536-288b-452e-9777-0fa0ab94deb0.jpg\"]","trial_type":"similarity","trial_index":113,"time_elapsed":1045760,"internal_node_id":"0.0-6.0-107.0"},{"sim_score":6,"rt":4596,"stimulus":"[\"img/0904/09dac84f-3d1c-4445-a68e-d0389fdbf1e9.jpg\",\"img/0903/8931c67c-a43d-47d3-a4c9-42aa2f81d344.jpg\"]","trial_type":"similarity","trial_index":114,"time_elapsed":1051365,"internal_node_id":"0.0-6.0-108.0"},{"sim_score":5,"rt":5186,"stimulus":"[\"img/0764/21e3292f-01ad-4238-828b-61b817857d16.jpg\",\"img/0864/e02eddb5-f468-499c-91bf-f7be3ffe979b.jpg\"]","trial_type":"similarity","trial_index":115,"time_elapsed":1057561,"internal_node_id":"0.0-6.0-109.0"},{"sim_score":3,"rt":5338,"stimulus":"[\"img/0866/9b38d691-1802-4959-ab3f-fc902f0e4ea6.jpg\",\"img/0894/6b2e9509-8699-42b7-9582-7741df0ba2d7.jpg\"]","trial_type":"similarity","trial_index":116,"time_elapsed":1063910,"internal_node_id":"0.0-6.0-110.0"},{"sim_score":3,"rt":5336,"stimulus":"[\"img/0899/a048912c-b12c-40e3-90af-46b69b0cc4fe.jpg\",\"img/0903/c3cb4a01-2797-43ca-b216-88c67b323fbb.jpg\"]","trial_type":"similarity","trial_index":117,"time_elapsed":1070253,"internal_node_id":"0.0-6.0-111.0"},{"sim_score":5,"rt":4876,"stimulus":"[\"img/0902/62f11694-7ed7-4cb7-8a73-9e95c43824e7.jpg\",\"img/0904/696ebb60-8891-417a-91fd-c53218907a95.jpg\"]","trial_type":"similarity","trial_index":118,"time_elapsed":1076134,"internal_node_id":"0.0-6.0-112.0"},{"sim_score":1,"rt":3658,"stimulus":"[\"img/0864/ef9cbca0-4be8-435d-ad49-977259e80409.jpg\",\"img/0860/17b44a7d-c5ca-479f-9e87-f65a64f5c80e.jpg\"]","trial_type":"similarity","trial_index":119,"time_elapsed":1080798,"internal_node_id":"0.0-6.0-113.0"},{"sim_score":1,"rt":4588,"stimulus":"[\"img/0860/94ef7afc-e0e6-4a15-98c6-0bfac82bc832.jpg\",\"img/0899/8abe6c69-822c-436c-9bf2-96c818b49ba5.jpg\"]","trial_type":"similarity","trial_index":120,"time_elapsed":1086393,"internal_node_id":"0.0-6.0-114.0"},{"sim_score":2,"rt":5696,"stimulus":"[\"img/0881/f7a8cc63-8842-40a4-9ff8-fe530310d62c.jpg\",\"img/0903/0fb24af7-9a26-4e9d-aadc-959a36f683e2.jpg\"]","trial_type":"similarity","trial_index":121,"time_elapsed":1093097,"internal_node_id":"0.0-6.0-115.0"},{"sim_score":2,"rt":4588,"stimulus":"[\"img/0894/e6385e52-6c35-43bd-b0af-bc803d107b11.jpg\",\"img/0874/93d1f8dc-acf2-4f03-bd8d-8ec35df276ed.jpg\"]","trial_type":"similarity","trial_index":122,"time_elapsed":1098690,"internal_node_id":"0.0-6.0-116.0"},{"sim_score":1,"rt":5914,"stimulus":"[\"img/0881/5fe04dd0-5c74-47b7-99c8-b068db9ca26a.jpg\",\"img/0862/f43ceabf-acc1-4107-b857-5d1849808f93.jpg\"]","trial_type":"similarity","trial_index":123,"time_elapsed":1105610,"internal_node_id":"0.0-6.0-117.0"},{"sim_score":1,"rt":3951,"stimulus":"[\"img/0868/7b212364-ff5f-4e28-9241-7eb6ea00161b.jpg\",\"img/0875/03c3c331-738b-4446-af92-3d7386b08c2e.jpg\"]","trial_type":"similarity","trial_index":124,"time_elapsed":1110572,"internal_node_id":"0.0-6.0-118.0"},{"sim_score":1,"rt":5766,"stimulus":"[\"img/0860/c3379ff7-0763-48fe-a1ec-7ea3d611bc7a.jpg\",\"img/0758/e38fd80d-18d0-42f3-b848-f930788e8bd7.jpg\"]","trial_type":"similarity","trial_index":125,"time_elapsed":1117344,"internal_node_id":"0.0-6.0-119.0"},{"sim_score":1,"rt":3473,"stimulus":"[\"img/0864/0f537697-a314-47c3-a8cc-8df23b7e536c.jpg\",\"img/0875/5a716432-c6ca-4b1c-955a-2b8ac25198ee.jpg\"]","trial_type":"similarity","trial_index":126,"time_elapsed":1121824,"internal_node_id":"0.0-6.0-120.0"},{"sim_score":1,"rt":4015,"stimulus":"[\"img/0898/c3cecf20-f7fd-45fa-97d0-dc0a63e8d6c0.jpg\",\"img/0866/f756f7d1-9ad8-4a34-9ef6-7a443d705bfe.jpg\"]","trial_type":"similarity","trial_index":127,"time_elapsed":1126844,"internal_node_id":"0.0-6.0-121.0"},{"sim_score":1,"rt":3816,"stimulus":"[\"img/0874/a3bc679d-619f-4db6-bb68-116dcb757d9c.jpg\",\"img/0904/4d7d70a3-9477-4921-bda0-f9531d0a5c5b.jpg\"]","trial_type":"similarity","trial_index":128,"time_elapsed":1131666,"internal_node_id":"0.0-6.0-122.0"},{"sim_score":1,"rt":3471,"stimulus":"[\"img/0904/4b8daf2a-13a9-4ea9-9e0b-b265b6e933e7.jpg\",\"img/0864/5f33e097-23e3-4002-882d-76e8cb15f451.jpg\"]","trial_type":"similarity","trial_index":129,"time_elapsed":1136143,"internal_node_id":"0.0-6.0-123.0"},{"sim_score":2,"rt":4961,"stimulus":"[\"img/0894/43216a7f-27bc-4b5a-8841-d122a30da9d9.jpg\",\"img/0902/b03fee99-d5ca-4bf8-871c-a4a743a39842.jpg\"]","trial_type":"similarity","trial_index":130,"time_elapsed":1142111,"internal_node_id":"0.0-6.0-124.0"},{"sim_score":1,"rt":3362,"stimulus":"[\"img/0868/c8ac40c7-6904-4e13-8d61-c75d3052dc4e.jpg\",\"img/0864/66091c27-e588-4476-8af9-265dc6be4156.jpg\"]","trial_type":"similarity","trial_index":131,"time_elapsed":2500620,"internal_node_id":"0.0-6.0-125.0"},{"sim_score":1,"rt":3909,"stimulus":"[\"img/0899/fd9efb43-701f-4cd6-baaa-4c38315f4bdc.jpg\",\"img/0866/6f2a90d7-14f1-4f1b-bd64-fc0af6b9fe44.jpg\"]","trial_type":"similarity","trial_index":132,"time_elapsed":2505554,"internal_node_id":"0.0-6.0-126.0"},{"sim_score":1,"rt":4503,"stimulus":"[\"img/0875/8521fd58-3b1e-4dc5-97ae-804edfa6734a.jpg\",\"img/0904/9d30eff1-46ef-4453-b11e-124ef8145c00.jpg\"]","trial_type":"similarity","trial_index":133,"time_elapsed":2511071,"internal_node_id":"0.0-6.0-127.0"},{"sim_score":1,"rt":3033,"stimulus":"[\"img/0867/7d1c497b-c1b3-4ed8-abb5-d7f73306015f.jpg\",\"img/0899/56a605c3-d0a2-4215-89e1-779279d85a7c.jpg\"]","trial_type":"similarity","trial_index":134,"time_elapsed":2515122,"internal_node_id":"0.0-6.0-128.0"},{"sim_score":1,"rt":3483,"stimulus":"[\"img/0901/04a53755-6da5-44d4-a7a6-48a6bc0a2280.jpg\",\"img/0867/de92135f-5b65-4ed9-b245-188292c7c2f8.jpg\"]","trial_type":"similarity","trial_index":135,"time_elapsed":2519616,"internal_node_id":"0.0-6.0-129.0"},{"sim_score":1,"rt":3914,"stimulus":"[\"img/0864/4bd81bc6-c13d-46df-95a9-485886dc7c1b.jpg\",\"img/0769/5bd04f55-d091-4f57-85db-38426f26bd1a.jpg\"]","trial_type":"similarity","trial_index":136,"time_elapsed":2524545,"internal_node_id":"0.0-6.0-130.0"},{"sim_score":1,"rt":3303,"stimulus":"[\"img/0903/f67c4ab9-f8c2-4fcd-848a-a54a7b031002.jpg\",\"img/0868/8b0b8473-e2c0-4331-aa56-c3a5c29369da.jpg\"]","trial_type":"similarity","trial_index":137,"time_elapsed":2528858,"internal_node_id":"0.0-6.0-131.0"},{"sim_score":1,"rt":2818,"stimulus":"[\"img/0864/87c467d3-abca-482f-ad80-3766c21b1bb3.jpg\",\"img/0867/5e07b34d-b40f-4b1c-ac10-49975bace45f.jpg\"]","trial_type":"similarity","trial_index":138,"time_elapsed":2532686,"internal_node_id":"0.0-6.0-132.0"},{"sim_score":2,"rt":4859,"stimulus":"[\"img/0901/b123d109-47b4-4f9a-80c9-9bb16da42efa.jpg\",\"img/0860/c47fdead-eb02-4989-b078-26f4852f44fe.jpg\"]","trial_type":"similarity","trial_index":139,"time_elapsed":2538559,"internal_node_id":"0.0-6.0-133.0"},{"sim_score":1,"rt":4204,"stimulus":"[\"img/0881/48ed65a5-471f-41af-86ec-3793805c116d.jpg\",\"img/0766/79767d11-b612-4e8a-9e4b-a8ac95bb6a54.jpg\"]","trial_type":"similarity","trial_index":140,"time_elapsed":2543800,"internal_node_id":"0.0-6.0-134.0"},{"sim_score":1,"rt":3462,"stimulus":"[\"img/0903/bf0a7d60-eca5-44b0-bafd-baf21db9904b.jpg\",\"img/0864/a248adb3-c70b-4652-b7a3-776d2a1e904b.jpg\"]","trial_type":"similarity","trial_index":141,"time_elapsed":2548271,"internal_node_id":"0.0-6.0-135.0"},{"sim_score":1,"rt":3981,"stimulus":"[\"img/0758/d57c2592-a317-4f63-91be-91a3a9afd222.jpg\",\"img/0894/86201968-6e78-4d68-9b3a-d1692e066210.jpg\"]","trial_type":"similarity","trial_index":142,"time_elapsed":2553264,"internal_node_id":"0.0-6.0-136.0"},{"sim_score":1,"rt":3812,"stimulus":"[\"img/0769/91acb237-65a3-4d0b-9748-af5c7b83d3c7.jpg\",\"img/0860/8277806e-b684-4474-8f7b-3fca946d7d4f.jpg\"]","trial_type":"similarity","trial_index":143,"time_elapsed":2558087,"internal_node_id":"0.0-6.0-137.0"},{"sim_score":1,"rt":4209,"stimulus":"[\"img/0904/06dacdc5-2206-4fb8-92b7-88042d22833c.jpg\",\"img/0766/0bf3793e-c353-45e5-ac6f-753f5f484e10.jpg\"]","trial_type":"similarity","trial_index":144,"time_elapsed":2563308,"internal_node_id":"0.0-6.0-138.0"},{"sim_score":1,"rt":3915,"stimulus":"[\"img/0868/293079b8-7e0c-4afd-a390-1e5d35fe3ded.jpg\",\"img/0860/fd4662f9-4c03-4d79-8593-06735e55a64b.jpg\"]","trial_type":"similarity","trial_index":145,"time_elapsed":2568232,"internal_node_id":"0.0-6.0-139.0"},{"sim_score":2,"rt":5021,"stimulus":"[\"img/0758/6cd8c362-ae2a-41eb-80a3-3a4f7ace1530.jpg\",\"img/0864/1ebbc554-99fa-49f9-8799-317375a79820.jpg\"]","trial_type":"similarity","trial_index":146,"time_elapsed":2574272,"internal_node_id":"0.0-6.0-140.0"},{"sim_score":7,"rt":4767,"stimulus":"[\"img/0867/85a96c62-548f-4994-9553-819e03c3135a.jpg\",\"img/0867/bf560d4f-dee3-4f11-a385-705cc1aa5f3c.jpg\"]","trial_type":"similarity","trial_index":147,"time_elapsed":2580050,"internal_node_id":"0.0-6.0-141.0"},{"sim_score":6,"rt":4205,"stimulus":"[\"img/0898/cd3aaa3f-efa9-4ab3-8d6f-a6a9273ddf42.jpg\",\"img/0898/79233891-305a-4a6a-8ddf-5c8604858203.jpg\"]","trial_type":"similarity","trial_index":148,"time_elapsed":2585263,"internal_node_id":"0.0-6.0-142.0"},{"sim_score":5,"rt":5066,"stimulus":"[\"img/0866/07c9c966-3c8d-40e7-8128-92b2acbaed5d.jpg\",\"img/0769/35364db7-e0d5-40ef-93dc-faf9dfb95136.jpg\"]","trial_type":"similarity","trial_index":149,"time_elapsed":2591336,"internal_node_id":"0.0-6.0-143.0"},{"sim_score":5,"rt":5022,"stimulus":"[\"img/0860/e8b8c51e-1834-4875-8b61-6c5bc9b178bd.jpg\",\"img/0898/08c72dac-f8ad-407a-9ce6-8c9a5d679c3a.jpg\"]","trial_type":"similarity","trial_index":150,"time_elapsed":2597365,"internal_node_id":"0.0-6.0-144.0"},{"sim_score":1,"rt":4298,"stimulus":"[\"img/0766/110832e5-2646-4bd0-a94e-5df8cc314269.jpg\",\"img/0864/6e846d43-94a6-4b37-a268-65eda979f052.jpg\"]","trial_type":"similarity","trial_index":151,"time_elapsed":2602671,"internal_node_id":"0.0-6.0-145.0"},{"sim_score":3,"rt":5380,"stimulus":"[\"img/0860/4a022222-056d-461c-ab02-39fac9647552.jpg\",\"img/0903/4cbdc464-e562-4ec2-9bb6-15f894fdf528.jpg\"]","trial_type":"similarity","trial_index":152,"time_elapsed":2609061,"internal_node_id":"0.0-6.0-146.0"},{"sim_score":1,"rt":2909,"stimulus":"[\"img/0867/50a1b60e-3a29-44bf-b606-d4bd3746fea9.jpg\",\"img/0764/f2f23359-8e82-41d3-8900-5b9f4433991d.jpg\"]","trial_type":"similarity","trial_index":153,"time_elapsed":2612977,"internal_node_id":"0.0-6.0-147.0"},{"sim_score":6,"rt":6821,"stimulus":"[\"img/0769/76eaa4a3-dfe9-4dc1-9efb-caebe86264e1.jpg\",\"img/0904/0d17b811-063e-416e-a23c-3b3cfa4fcce5.jpg\"]","trial_type":"similarity","trial_index":154,"time_elapsed":2620811,"internal_node_id":"0.0-6.0-148.0"},{"sim_score":1,"rt":3392,"stimulus":"[\"img/0764/8740679b-b56f-4292-aece-14063457113a.jpg\",\"img/0901/33b51a81-06d9-46d9-9d4f-5a2d6d6b8058.jpg\"]","trial_type":"similarity","trial_index":155,"time_elapsed":2625210,"internal_node_id":"0.0-6.0-149.0"},{"sim_score":5,"rt":5173,"stimulus":"[\"img/0904/65e2b70a-b184-4da3-b5c0-5038bdf9469a.jpg\",\"img/0899/ad8268c5-8199-48d0-ad70-c5b6d6c599ec.jpg\"]","trial_type":"similarity","trial_index":156,"time_elapsed":2631389,"internal_node_id":"0.0-6.0-150.0"},{"sim_score":1,"rt":4016,"stimulus":"[\"img/0862/eefa5588-9efd-4591-aa5f-a2e17c7d7bcc.jpg\",\"img/0867/c66898ba-b71b-4d50-84f9-f7f84853a98d.jpg\"]","trial_type":"similarity","trial_index":157,"time_elapsed":2636414,"internal_node_id":"0.0-6.0-151.0"},{"sim_score":6,"rt":5384,"stimulus":"[\"img/0766/75c3d627-4f3b-40d5-9d9c-10c8a62db644.jpg\",\"img/0766/c23b5a20-e50f-4d85-841f-cf89212a4348.jpg\"]","trial_type":"similarity","trial_index":158,"time_elapsed":2642824,"internal_node_id":"0.0-6.0-152.0"},{"sim_score":2,"rt":3622,"stimulus":"[\"img/0862/92fcd8a4-8193-4a6a-ae09-dd4a6338b0df.jpg\",\"img/0894/7dd6ff43-f8fc-408a-8a41-a2b261871820.jpg\"]","trial_type":"similarity","trial_index":159,"time_elapsed":2647455,"internal_node_id":"0.0-6.0-153.0"},{"sim_score":1,"rt":3408,"stimulus":"[\"img/0899/66bf4113-ee12-426c-84d2-ea410b6c803e.jpg\",\"img/0901/6e2957f8-f5ab-46f4-87cc-bb50155a098b.jpg\"]","trial_type":"similarity","trial_index":160,"time_elapsed":2651869,"internal_node_id":"0.0-6.0-154.0"},{"sim_score":2,"rt":4172,"stimulus":"[\"img/0874/ca23d307-fc00-4d7d-9106-584c6eb21b4d.jpg\",\"img/0874/995f0332-0439-4eb4-add3-957335dbf6d9.jpg\"]","trial_type":"similarity","trial_index":161,"time_elapsed":2657049,"internal_node_id":"0.0-6.0-155.0"},{"sim_score":1,"rt":3338,"stimulus":"[\"img/0860/c5ccd1a4-4bb7-48e1-9b25-72cfaf06909b.jpg\",\"img/0867/cc72ed48-7704-422c-86d6-467a1145287a.jpg\"]","trial_type":"similarity","trial_index":162,"time_elapsed":2661393,"internal_node_id":"0.0-6.0-156.0"},{"sim_score":1,"rt":3056,"stimulus":"[\"img/0901/4f9cffe0-c0be-4d7f-bacd-9d51efd19b4a.jpg\",\"img/0881/1407b85b-a1c6-45b1-9884-3b24203efadb.jpg\"]","trial_type":"similarity","trial_index":163,"time_elapsed":2665455,"internal_node_id":"0.0-6.0-157.0"},{"sim_score":5,"rt":4048,"stimulus":"[\"img/0903/aa842abe-6fa3-448a-bf71-88d3ad28663b.jpg\",\"img/0902/51493fab-2a10-4385-aa88-bee3db441626.jpg\"]","trial_type":"similarity","trial_index":164,"time_elapsed":2670509,"internal_node_id":"0.0-6.0-158.0"},{"sim_score":2,"rt":4603,"stimulus":"[\"img/0860/5bff793e-cbd5-4d7e-b628-0ac2b0e30b64.jpg\",\"img/0764/5c8fbafc-e62e-43ed-9b37-f73e8e45147d.jpg\"]","trial_type":"similarity","trial_index":165,"time_elapsed":2676119,"internal_node_id":"0.0-6.0-159.0"},{"sim_score":1,"rt":2994,"stimulus":"[\"img/0902/3f0eeac5-c996-4026-a376-563ce8f28521.jpg\",\"img/0875/5a1e5100-0d94-4fec-bbe9-ca9894d2cf8e.jpg\"]","trial_type":"similarity","trial_index":166,"time_elapsed":2680119,"internal_node_id":"0.0-6.0-160.0"},{"sim_score":3,"rt":4439,"stimulus":"[\"img/0898/81b08535-2020-4c15-9ce4-2f1e460755ae.jpg\",\"img/0862/47ed5efd-4ec9-4b74-bb4e-a5f5cf0c3e7d.jpg\"]","trial_type":"similarity","trial_index":167,"time_elapsed":2685565,"internal_node_id":"0.0-6.0-161.0"},{"sim_score":1,"rt":3992,"stimulus":"[\"img/0894/7fb082e0-ce79-485c-9109-04367fb32275.jpg\",\"img/0875/90da8d75-108a-44ad-b999-e21fee3860d3.jpg\"]","trial_type":"similarity","trial_index":168,"time_elapsed":2690566,"internal_node_id":"0.0-6.0-162.0"},{"sim_score":3,"rt":4446,"stimulus":"[\"img/0866/93a27239-8317-4e08-98ca-d8b1ff298e07.jpg\",\"img/0864/1d15626a-2f7c-410f-819c-0fa2c967e95e.jpg\"]","trial_type":"similarity","trial_index":169,"time_elapsed":2696017,"internal_node_id":"0.0-6.0-163.0"},{"sim_score":2,"rt":4666,"stimulus":"[\"img/0766/d512b99c-a2dc-40d7-8e86-827323a0cbcf.jpg\",\"img/0862/ee3b7bff-4a70-4e84-9bea-4a565e456acb.jpg\"]","trial_type":"similarity","trial_index":170,"time_elapsed":2701689,"internal_node_id":"0.0-6.0-164.0"},{"sim_score":1,"rt":3487,"stimulus":"[\"img/0866/8efcaa46-83ab-4dee-a35f-850402aa21ae.jpg\",\"img/0874/bf14b896-e930-4fd9-9c05-2e83317a2773.jpg\"]","trial_type":"similarity","trial_index":171,"time_elapsed":2706181,"internal_node_id":"0.0-6.0-165.0"},{"sim_score":3,"rt":5377,"stimulus":"[\"img/0862/4f0a3b4c-afbf-486e-b248-1d54982f54b4.jpg\",\"img/0860/702bd09d-df3a-40aa-a267-5f04474305b5.jpg\"]","trial_type":"similarity","trial_index":172,"time_elapsed":2712563,"internal_node_id":"0.0-6.0-166.0"},{"sim_score":1,"rt":3814,"stimulus":"[\"img/0766/f3276cc4-65de-4c2d-88d5-6cfebce14b8f.jpg\",\"img/0901/7d4a3388-488d-4e9b-9d32-9d0def7aae8d.jpg\"]","trial_type":"similarity","trial_index":173,"time_elapsed":2725726,"internal_node_id":"0.0-6.0-167.0"},{"sim_score":7,"rt":4353,"stimulus":"[\"img/0862/92f0146c-20c4-482e-aef5-adb693790338.jpg\",\"img/0862/ad593cc7-cabe-4bb7-8e14-8a447a0717b4.jpg\"]","trial_type":"similarity","trial_index":174,"time_elapsed":2731085,"internal_node_id":"0.0-6.0-168.0"},{"sim_score":5,"rt":4916,"stimulus":"[\"img/0894/5f15154e-e72e-4ce5-aafb-bce6f0564006.jpg\",\"img/0764/ba0c0955-acbb-457d-b1c2-f006b88121d5.jpg\"]","trial_type":"similarity","trial_index":175,"time_elapsed":2737007,"internal_node_id":"0.0-6.0-169.0"},{"sim_score":2,"rt":5260,"stimulus":"[\"img/0874/8cdb1c07-1c32-46d2-981c-3636560fa6e5.jpg\",\"img/0898/b3290bf9-215b-4b45-b21a-65bdf73f142f.jpg\"]","trial_type":"similarity","trial_index":176,"time_elapsed":2743273,"internal_node_id":"0.0-6.0-170.0"},{"sim_score":3,"rt":5048,"stimulus":"[\"img/0860/8fdba999-b946-4c7d-9891-336018b563ef.jpg\",\"img/0766/a0270213-fa0e-4972-8b56-228c3e01ff90.jpg\"]","trial_type":"similarity","trial_index":177,"time_elapsed":2749328,"internal_node_id":"0.0-6.0-171.0"},{"sim_score":3,"rt":4755,"stimulus":"[\"img/0898/993d8f2d-bef7-4251-a193-0f93a32b7763.jpg\",\"img/0864/6f631579-acf1-415c-a42c-1207f62a8d99.jpg\"]","trial_type":"similarity","trial_index":178,"time_elapsed":2755094,"internal_node_id":"0.0-6.0-172.0"},{"sim_score":5,"rt":6354,"stimulus":"[\"img/0881/c24f3051-eefa-42de-aba6-fccb56d93c70.jpg\",\"img/0764/4bec8d92-75aa-475a-954d-8215dbe538f5.jpg\"]","trial_type":"similarity","trial_index":179,"time_elapsed":2762453,"internal_node_id":"0.0-6.0-173.0"},{"sim_score":1,"rt":3618,"stimulus":"[\"img/0898/01bfe666-3510-4fc7-964f-d00d28732dc8.jpg\",\"img/0868/4e626425-63c8-484a-8a1d-e66ee4e0bef8.jpg\"]","trial_type":"similarity","trial_index":180,"time_elapsed":2767077,"internal_node_id":"0.0-6.0-174.0"},{"sim_score":6,"rt":3775,"stimulus":"[\"img/0864/e336a4c5-6648-4fd7-b2f6-93a3fb83f8c6.jpg\",\"img/0864/c3b63e8f-ea39-4d70-a1f2-b3fe4be8eb75.jpg\"]","trial_type":"similarity","trial_index":181,"time_elapsed":2771867,"internal_node_id":"0.0-6.0-175.0"},{"sim_score":5,"rt":5672,"stimulus":"[\"img/0899/5b56dd3e-3f49-47cc-af84-16da6457753b.jpg\",\"img/0862/de9ad88c-b522-430a-8ee9-eb06a9f85df5.jpg\"]","trial_type":"similarity","trial_index":182,"time_elapsed":2778546,"internal_node_id":"0.0-6.0-176.0"},{"sim_score":1,"rt":4047,"stimulus":"[\"img/0875/f87b67d7-c33e-40d1-b281-248c4be1cb6e.jpg\",\"img/0758/7fba58df-2a7a-4b76-8a8f-62739f97f271.jpg\"]","trial_type":"similarity","trial_index":183,"time_elapsed":2783600,"internal_node_id":"0.0-6.0-177.0"},{"sim_score":1,"rt":4102,"stimulus":"[\"img/0866/a04d37f0-99dd-478a-b6c6-58b215138f84.jpg\",\"img/0901/548d1110-7cb8-42a2-9927-9798875c8b5c.jpg\"]","trial_type":"similarity","trial_index":184,"time_elapsed":2788707,"internal_node_id":"0.0-6.0-178.0"},{"sim_score":1,"rt":5416,"stimulus":"[\"img/0769/f6396414-6788-4d59-9683-de153298d89c.jpg\",\"img/0874/a82926a3-0b43-4add-803c-d5f9ea7798ee.jpg\"]","trial_type":"similarity","trial_index":185,"time_elapsed":2795134,"internal_node_id":"0.0-6.0-179.0"},{"sim_score":1,"rt":5481,"stimulus":"[\"img/0875/cff79b3a-a797-4393-9757-6275f999ec04.jpg\",\"img/0881/609a5e93-38b5-4940-8627-2bf8fad7f802.jpg\"]","trial_type":"similarity","trial_index":186,"time_elapsed":2801620,"internal_node_id":"0.0-6.0-180.0"},{"sim_score":5,"rt":4002,"stimulus":"[\"img/0866/4a87911a-d5be-4d4e-ab8e-3d1f581bf507.jpg\",\"img/0868/4a8a45ed-2c4f-421b-9564-409a33ecd26c.jpg\"]","trial_type":"similarity","trial_index":187,"time_elapsed":2806632,"internal_node_id":"0.0-6.0-181.0"},{"sim_score":3,"rt":5446,"stimulus":"[\"img/0899/f95cbdb4-f804-4f5d-ad76-373ad343e658.jpg\",\"img/0758/9fb5b2fe-3f00-4fe6-973c-1ce10d5f4cd5.jpg\"]","trial_type":"similarity","trial_index":188,"time_elapsed":2813083,"internal_node_id":"0.0-6.0-182.0"},{"sim_score":1,"rt":3368,"stimulus":"[\"img/0874/1016b306-087c-4afc-aa08-fa527b28dc76.jpg\",\"img/0875/5a7c4e35-6514-4e12-8879-d16071da4cd6.jpg\"]","trial_type":"similarity","trial_index":189,"time_elapsed":2817456,"internal_node_id":"0.0-6.0-183.0"},{"sim_score":3,"rt":5651,"stimulus":"[\"img/0904/ba8e689e-9ca6-4608-a2a1-3b0940666ae6.jpg\",\"img/0862/f23038d4-c366-4f70-979f-66b62362efa4.jpg\"]","trial_type":"similarity","trial_index":190,"time_elapsed":2824122,"internal_node_id":"0.0-6.0-184.0"},{"sim_score":3,"rt":3488,"stimulus":"[\"img/0902/1a120fb9-dbd6-443e-ba91-b4aceab963da.jpg\",\"img/0766/71b81ebd-0937-4d7f-b8bf-c4e46a4728fd.jpg\"]","trial_type":"similarity","trial_index":191,"time_elapsed":2828623,"internal_node_id":"0.0-6.0-185.0"},{"sim_score":2,"rt":4624,"stimulus":"[\"img/0758/3ddd05d3-557e-4ee7-8b78-9d2d681d8ae2.jpg\",\"img/0769/458d9c77-b844-40b5-bb1b-1e3bbd4da64e.jpg\"]","trial_type":"similarity","trial_index":192,"time_elapsed":2834254,"internal_node_id":"0.0-6.0-186.0"},{"sim_score":6,"rt":3698,"stimulus":"[\"img/0881/667e2147-d457-4f32-aa5f-6ab86e5848f1.jpg\",\"img/0881/dea58fad-b4f1-41d9-bd3f-916eff19a3fd.jpg\"]","trial_type":"similarity","trial_index":193,"time_elapsed":2838957,"internal_node_id":"0.0-6.0-187.0"},{"sim_score":1,"rt":4088,"stimulus":"[\"img/0758/ddc336e9-a8b6-4bb9-937a-c7e25e0e9250.jpg\",\"img/0866/d266fece-59b3-46fa-b69f-96f6efb81b59.jpg\"]","trial_type":"similarity","trial_index":194,"time_elapsed":2844051,"internal_node_id":"0.0-6.0-188.0"},{"sim_score":3,"rt":6581,"stimulus":"[\"img/0764/1f95ab5f-fb65-4d70-b5db-d6bd6351a8aa.jpg\",\"img/0898/b2732712-71c2-45d8-834f-2b2ed5504910.jpg\"]","trial_type":"similarity","trial_index":195,"time_elapsed":2851638,"internal_node_id":"0.0-6.0-189.0"},{"sim_score":1,"rt":3228,"stimulus":"[\"img/0903/6138142e-c84e-45fc-9487-c974f3d4968a.jpg\",\"img/0901/a2d7b2f6-396b-4d91-8403-de5361c74af7.jpg\"]","trial_type":"similarity","trial_index":196,"time_elapsed":2855871,"internal_node_id":"0.0-6.0-190.0"},{"sim_score":5,"rt":4424,"stimulus":"[\"img/0902/3b243e54-0803-4c29-af42-4037c2118495.jpg\",\"img/0898/40f99fb2-64d2-4e72-8a7f-a1cf60741e69.jpg\"]","trial_type":"similarity","trial_index":197,"time_elapsed":2861301,"internal_node_id":"0.0-6.0-191.0"},{"sim_score":1,"rt":3565,"stimulus":"[\"img/0864/ea327690-500b-4137-bf91-451b309fe6a5.jpg\",\"img/0901/2a953e50-d237-405c-a38d-5ed21494c968.jpg\"]","trial_type":"similarity","trial_index":198,"time_elapsed":2865872,"internal_node_id":"0.0-6.0-192.0"},{"sim_score":2,"rt":5431,"stimulus":"[\"img/0894/11674fa4-285d-44e2-939f-2228c6a64080.jpg\",\"img/0881/54ea8e77-c7e5-4197-b7fa-00b7020849a7.jpg\"]","trial_type":"similarity","trial_index":199,"time_elapsed":2872307,"internal_node_id":"0.0-6.0-193.0"},{"sim_score":6,"rt":5510,"stimulus":"[\"img/0868/09a9ef4d-d000-4cfa-a6aa-ebec7c2edeb4.jpg\",\"img/0868/d6d1f30d-4323-435a-b194-7892521bc57e.jpg\"]","trial_type":"similarity","trial_index":200,"time_elapsed":2878823,"internal_node_id":"0.0-6.0-194.0"},{"sim_score":5,"rt":4785,"stimulus":"[\"img/0899/00715b3f-851b-420b-a26b-d7f79f7759a9.jpg\",\"img/0764/fb7d4a20-a475-465e-a74f-aa39a0d33d16.jpg\"]","trial_type":"similarity","trial_index":201,"time_elapsed":2884613,"internal_node_id":"0.0-6.0-195.0"},{"sim_score":1,"rt":4064,"stimulus":"[\"img/0881/f6bd3b96-dc40-4e99-8681-bc3a35cf896d.jpg\",\"img/0904/0d25eb24-bb20-4e8d-9787-8b489558b4cb.jpg\"]","trial_type":"similarity","trial_index":202,"time_elapsed":2889683,"internal_node_id":"0.0-6.0-196.0"},{"sim_score":1,"rt":4831,"stimulus":"[\"img/0864/b3c4e378-28f0-4699-9338-2a257b4bca04.jpg\",\"img/0902/40d0b6ec-3907-4573-b227-e7d8e9cad1c3.jpg\"]","trial_type":"similarity","trial_index":203,"time_elapsed":2895519,"internal_node_id":"0.0-6.0-197.0"},{"sim_score":7,"rt":4401,"stimulus":"[\"img/0894/e5edf723-72a5-4673-8441-6c1734a8929b.jpg\",\"img/0904/a8c3c7d2-9bcf-4347-9e03-8203adfc1fc5.jpg\"]","trial_type":"similarity","trial_index":204,"time_elapsed":2900924,"internal_node_id":"0.0-6.0-198.0"},{"sim_score":7,"rt":4144,"stimulus":"[\"img/0901/875dedb9-24c9-4443-9f8c-85e97d70ee5a.jpg\",\"img/0901/7c16dd9c-44ad-4d5b-990c-6a0b9b48b1b1.jpg\"]","trial_type":"similarity","trial_index":205,"time_elapsed":2906073,"internal_node_id":"0.0-6.0-199.0"},{"sim_score":3,"rt":3979,"stimulus":"[\"img/0894/b2d2f66e-e480-46da-a02a-6d0c6b285d78.jpg\",\"img/0860/29a21a9f-54bb-4093-ad3f-04823ceaa89f.jpg\"]","trial_type":"similarity","trial_index":206,"time_elapsed":2911057,"internal_node_id":"0.0-6.0-200.0"},{"sim_score":6,"rt":4674,"stimulus":"[\"img/0898/661621d4-a14e-487c-8c74-354134a29710.jpg\",\"img/0903/70d764d9-1f35-4da7-a35d-4cc39834d270.jpg\"]","trial_type":"similarity","trial_index":207,"time_elapsed":2916737,"internal_node_id":"0.0-6.0-201.0"},{"sim_score":1,"rt":4573,"stimulus":"[\"img/0864/0116ca98-293d-4fa6-a93b-5a6144ef64cc.jpg\",\"img/0894/bd34223a-2f66-4e16-9d18-193a746b69ff.jpg\"]","trial_type":"similarity","trial_index":208,"time_elapsed":2922316,"internal_node_id":"0.0-6.0-202.0"},{"sim_score":2,"rt":4264,"stimulus":"[\"img/0874/2c9464dd-8a23-4baa-ac94-1ba3af5c15cc.jpg\",\"img/0860/e14d67c1-6d92-4f1e-9257-c8607159c19c.jpg\"]","trial_type":"similarity","trial_index":209,"time_elapsed":2927590,"internal_node_id":"0.0-6.0-203.0"},{"sim_score":1,"rt":3490,"stimulus":"[\"img/0862/57b6f83f-c763-4858-830d-102f97bfefbf.jpg\",\"img/0875/ebf7653f-ff45-4e9f-af58-2c042ab3cd2b.jpg\"]","trial_type":"similarity","trial_index":210,"time_elapsed":2932087,"internal_node_id":"0.0-6.0-204.0"},{"sim_score":1,"rt":3371,"stimulus":"[\"img/0867/8ba0c5a7-c7e4-42cf-a80a-543763b90779.jpg\",\"img/0881/f62bdcd1-a4b7-4d48-83da-d9c9e01c8727.jpg\"]","trial_type":"similarity","trial_index":211,"time_elapsed":2936463,"internal_node_id":"0.0-6.0-205.0"},{"sim_score":2,"rt":5791,"stimulus":"[\"img/0901/58978a6d-a3e2-4c59-8d62-f60693ecc0f6.jpg\",\"img/0902/bd89a85f-3853-4786-acd6-98818ee29f1c.jpg\"]","trial_type":"similarity","trial_index":212,"time_elapsed":2943259,"internal_node_id":"0.0-6.0-206.0"},{"sim_score":1,"rt":6285,"stimulus":"[\"img/0899/0e1d936a-dbe2-4afc-9f19-7b7a1ae6c9ed.jpg\",\"img/0864/c22faebd-9c53-47bc-ada3-b9a30c688e75.jpg\"]","trial_type":"similarity","trial_index":213,"time_elapsed":2950548,"internal_node_id":"0.0-6.0-207.0"},{"sim_score":1,"rt":3518,"stimulus":"[\"img/0901/d4d09bf5-093e-4050-838e-7c738be8e63c.jpg\",\"img/0769/bb8c4e53-6f32-4814-97ee-392d4decfb2e.jpg\"]","trial_type":"similarity","trial_index":214,"time_elapsed":2955072,"internal_node_id":"0.0-6.0-208.0"},{"sim_score":6,"rt":4214,"stimulus":"[\"img/0902/fbef27fa-ac83-4936-ab78-9d1c20a383e1.jpg\",\"img/0902/4e0baa32-988e-46f6-989d-f669225ab645.jpg\"]","trial_type":"similarity","trial_index":215,"time_elapsed":2988873,"internal_node_id":"0.0-6.0-209.0"},{"view_history":"[{\"page_index\":0,\"viewing_time\":12339}]","rt":12341,"trial_type":"instructions","trial_index":216,"time_elapsed":3002215,"internal_node_id":"0.0-7.0"},{"rt":57301,"responses":"{\"Q0\":\"Tennessee Warbler\"}","answer":["Nashville Warbler"],"trial_type":"image-multi-choice","trial_index":217,"time_elapsed":3060553,"internal_node_id":"0.0-8.0-0.0"},{"rt":8608,"responses":"{\"Q0\":\"Black-and-white Warbler\"}","answer":["Black-and-white Warbler"],"trial_type":"image-multi-choice","trial_index":218,"time_elapsed":3070192,"internal_node_id":"0.0-8.0-1.0"},{"rt":7852,"responses":"{\"Q0\":\"Townsend's Warbler\"}","answer":["Townsend's Warbler"],"trial_type":"image-multi-choice","trial_index":219,"time_elapsed":3079095,"internal_node_id":"0.0-8.0-2.0"},{"rt":5069,"responses":"{\"Q0\":\"Lark Sparrow\"}","answer":["Lark Sparrow"],"trial_type":"image-multi-choice","trial_index":220,"time_elapsed":3085198,"internal_node_id":"0.0-8.0-3.0"},{"rt":3309,"responses":"{\"Q0\":\"Yellow Warbler\"}","answer":["Yellow Warbler"],"trial_type":"image-multi-choice","trial_index":221,"time_elapsed":3089547,"internal_node_id":"0.0-8.0-4.0"},{"rt":5817,"responses":"{\"Q0\":\"Orange-crowned Warbler\"}","answer":["Orange-crowned Warbler"],"trial_type":"image-multi-choice","trial_index":222,"time_elapsed":3096402,"internal_node_id":"0.0-8.0-5.0"},{"rt":6579,"responses":"{\"Q0\":\"White-throated Sparrow\"}","answer":["White-throated Sparrow"],"trial_type":"image-multi-choice","trial_index":223,"time_elapsed":3104008,"internal_node_id":"0.0-8.0-6.0"},{"rt":3778,"responses":"{\"Q0\":\"Fox Sparrow\"}","answer":["Fox Sparrow"],"trial_type":"image-multi-choice","trial_index":224,"time_elapsed":3108821,"internal_node_id":"0.0-8.0-7.0"},{"rt":62393,"responses":"{\"Q0\":\"Swamp Sparrow\"}","answer":["Song Sparrow"],"trial_type":"image-multi-choice","trial_index":225,"time_elapsed":3172247,"internal_node_id":"0.0-8.0-8.0"},{"rt":24197,"responses":"{\"Q0\":\"Blackburnian Warbler\"}","answer":["Blackburnian Warbler"],"trial_type":"image-multi-choice","trial_index":226,"time_elapsed":3197481,"internal_node_id":"0.0-8.0-9.0"},{"rt":42900,"responses":"{\"Q0\":\"Vesper Sparrow\"}","answer":["Vesper Sparrow"],"trial_type":"image-multi-choice","trial_index":227,"time_elapsed":3241418,"internal_node_id":"0.0-8.0-10.0"},{"rt":4748,"responses":"{\"Q0\":\"White-crowned Sparrow\"}","answer":["White-crowned Sparrow"],"trial_type":"image-multi-choice","trial_index":228,"time_elapsed":3247198,"internal_node_id":"0.0-8.0-11.0"},{"rt":8388,"responses":"{\"Q0\":\"American Tree Sparrow\"}","answer":["American Tree Sparrow"],"trial_type":"image-multi-choice","trial_index":229,"time_elapsed":3256634,"internal_node_id":"0.0-8.0-12.0"},{"rt":21475,"responses":"{\"Q0\":\"Tennessee Warbler\"}","answer":["Tennessee Warbler"],"trial_type":"image-multi-choice","trial_index":230,"time_elapsed":3279153,"internal_node_id":"0.0-8.0-13.0"},{"rt":8744,"responses":"{\"Q0\":\"Magnolia Warbler\"}","answer":["Magnolia Warbler"],"trial_type":"image-multi-choice","trial_index":231,"time_elapsed":3288942,"internal_node_id":"0.0-8.0-14.0"},{"rt":14207,"responses":"{\"Q0\":\"Northern Waterthrush\"}","answer":["Northern Waterthrush"],"trial_type":"image-multi-choice","trial_index":232,"time_elapsed":3304192,"internal_node_id":"0.0-8.0-15.0"},{"rt":33476,"responses":"{\"Q0\":\"Chipping Sparrow\"}","answer":["Chipping Sparrow"],"trial_type":"image-multi-choice","trial_index":233,"time_elapsed":3338706,"internal_node_id":"0.0-8.0-16.0"},{"rt":7397,"responses":"{\"Q0\":\"Lincoln's Sparrow\"}","answer":["Swamp Sparrow"],"trial_type":"image-multi-choice","trial_index":234,"time_elapsed":3347142,"internal_node_id":"0.0-8.0-17.0"},{"rt":17727,"responses":"{\"Q0\":\"Lincoln's Sparrow\"}","answer":["Lincoln's Sparrow"],"trial_type":"image-multi-choice","trial_index":235,"time_elapsed":3365908,"internal_node_id":"0.0-8.0-18.0"},{"rt":3986,"responses":"{\"Q0\":\"Ovenbird\"}","answer":["Ovenbird"],"trial_type":"image-multi-choice","trial_index":236,"time_elapsed":3370932,"internal_node_id":"0.0-8.0-19.0"}]