[{"view_history":"[{\"page_index\":0,\"viewing_time\":27151}]","rt":27152,"trial_type":"instructions","trial_index":0,"time_elapsed":27154,"internal_node_id":"0.0-0.0"},{"sim_score":5,"rt":8608,"stimulus":"[\"img/866.jpg\",\"img/868.jpg\"]","trial_type":"similarity_demo","trial_index":1,"time_elapsed":36772,"internal_node_id":"0.0-1.0"},{"view_history":"[{\"page_index\":0,\"viewing_time\":23530}]","rt":23531,"trial_type":"instructions","trial_index":2,"time_elapsed":61304,"internal_node_id":"0.0-2.0"},{"sim_score":1,"rt":5566,"stimulus":"[\"img/766.jpg\",\"img/867.jpg\"]","trial_type":"similarity_demo","trial_index":3,"time_elapsed":67874,"internal_node_id":"0.0-3.0"},{"view_history":"[{\"page_index\":0,\"viewing_time\":9280}]","rt":9281,"trial_type":"instructions","trial_index":4,"time_elapsed":78157,"internal_node_id":"0.0-4.0"},{"view_history":"[{\"page_index\":0,\"viewing_time\":78081}]","rt":78082,"trial_type":"instructions","trial_index":5,"time_elapsed":157240,"internal_node_id":"0.0-5.0"},{"sim_score":1,"rt":9302,"stimulus":"[\"img/0868/5fa7f9d0-f0e5-454c-8224-74d964818f56.jpg\",\"img/0901/a9b9c0a0-8aed-4888-a78a-65fb7e764d13.jpg\"]","trial_type":"similarity","trial_index":6,"time_elapsed":167547,"internal_node_id":"0.0-6.0-0.0"},{"sim_score":1,"rt":5084,"stimulus":"[\"img/0769/47700831-0ca2-4fdd-a498-a3bc5a528f43.jpg\",\"img/0867/2e1a0b58-cdb1-4107-a14e-452530d7b9b0.jpg\"]","trial_type":"similarity","trial_index":7,"time_elapsed":173635,"internal_node_id":"0.0-6.0-1.0"},{"sim_score":1,"rt":4499,"stimulus":"[\"img/0766/6d32752d-aa05-40dc-9541-640b6e9d6fa1.jpg\",\"img/0898/79233891-305a-4a6a-8ddf-5c8604858203.jpg\"]","trial_type":"similarity","trial_index":8,"time_elapsed":179140,"internal_node_id":"0.0-6.0-2.0"},{"sim_score":1,"rt":4266,"stimulus":"[\"img/0902/0eb85fbc-27c8-41df-9d0b-a5f9efd417d1.jpg\",\"img/0881/4bd34581-94d8-4e88-8c89-5cef864ca3be.jpg\"]","trial_type":"similarity","trial_index":9,"time_elapsed":184411,"internal_node_id":"0.0-6.0-3.0"},{"sim_score":3,"rt":4534,"stimulus":"[\"img/0894/11674fa4-285d-44e2-939f-2228c6a64080.jpg\",\"img/0894/a98416c0-51e2-4960-85da-d81d8688b9d5.jpg\"]","trial_type":"similarity","trial_index":10,"time_elapsed":189951,"internal_node_id":"0.0-6.0-4.0"},{"sim_score":1,"rt":5928,"stimulus":"[\"img/0874/8cdb1c07-1c32-46d2-981c-3636560fa6e5.jpg\",\"img/0899/fef567a2-c121-4481-9af0-ff108d199bbf.jpg\"]","trial_type":"similarity","trial_index":11,"time_elapsed":196883,"internal_node_id":"0.0-6.0-5.0"},{"sim_score":4,"rt":5771,"stimulus":"[\"img/0904/5aec2708-cf14-4a58-aa30-9a8a61c1be0e.jpg\",\"img/0764/6fbd1902-fa2a-48d8-bc11-705b8ab68d8f.jpg\"]","trial_type":"similarity","trial_index":12,"time_elapsed":203658,"internal_node_id":"0.0-6.0-6.0"},{"sim_score":1,"rt":4730,"stimulus":"[\"img/0899/f58b8d2f-b19d-4b59-8b94-8834be92e4ba.jpg\",\"img/0898/993d8f2d-bef7-4251-a193-0f93a32b7763.jpg\"]","trial_type":"similarity","trial_index":13,"time_elapsed":209392,"internal_node_id":"0.0-6.0-7.0"},{"sim_score":2,"rt":3823,"stimulus":"[\"img/0874/1016b306-087c-4afc-aa08-fa527b28dc76.jpg\",\"img/0903/5c6b1f57-b3a2-40f5-9fb1-82785e24b6a0.jpg\"]","trial_type":"similarity","trial_index":14,"time_elapsed":214221,"internal_node_id":"0.0-6.0-8.0"},{"sim_score":5,"rt":4712,"stimulus":"[\"img/0881/f7a8cc63-8842-40a4-9ff8-fe530310d62c.jpg\",\"img/0758/b76ceca7-95ac-46e4-ac13-da02c8e93be9.jpg\"]","trial_type":"similarity","trial_index":15,"time_elapsed":219938,"internal_node_id":"0.0-6.0-9.0"},{"sim_score":3,"rt":4228,"stimulus":"[\"img/0898/68476bbb-34a1-42d9-8bc1-deab783d4489.jpg\",\"img/0901/deff6cfb-0072-4490-bc3e-206bbcd3e8bf.jpg\"]","trial_type":"similarity","trial_index":16,"time_elapsed":225169,"internal_node_id":"0.0-6.0-10.0"},{"sim_score":3,"rt":4281,"stimulus":"[\"img/0903/31b5a5f4-b695-4af1-bad2-a19650a05498.jpg\",\"img/0769/a3cfbdeb-acb3-4eac-87fb-4b117f42d4f8.jpg\"]","trial_type":"similarity","trial_index":17,"time_elapsed":230455,"internal_node_id":"0.0-6.0-11.0"},{"sim_score":2,"rt":6200,"stimulus":"[\"img/0764/cbdc4f20-3a9a-4211-9b40-090699e0abcc.jpg\",\"img/0868/77091fc7-a590-4ebb-b915-fdb2483a2399.jpg\"]","trial_type":"similarity","trial_index":18,"time_elapsed":237658,"internal_node_id":"0.0-6.0-12.0"},{"sim_score":1,"rt":4122,"stimulus":"[\"img/0867/26611f4e-d694-4460-b7e2-43c62753ddc3.jpg\",\"img/0903/b4a0f61e-a964-4b79-a9a7-f767a8f92f34.jpg\"]","trial_type":"similarity","trial_index":19,"time_elapsed":242784,"internal_node_id":"0.0-6.0-13.0"},{"sim_score":2,"rt":4551,"stimulus":"[\"img/0766/214866ee-423d-4629-9bb9-41572bdc7dac.jpg\",\"img/0758/2fa3e613-e676-4e6e-bd12-705327eeb3e1.jpg\"]","trial_type":"similarity","trial_index":20,"time_elapsed":248339,"internal_node_id":"0.0-6.0-14.0"},{"sim_score":2,"rt":4220,"stimulus":"[\"img/0902/24d10fe7-314f-4d5a-8c7b-b43121bba0a4.jpg\",\"img/0860/c3379ff7-0763-48fe-a1ec-7ea3d611bc7a.jpg\"]","trial_type":"similarity","trial_index":21,"time_elapsed":253563,"internal_node_id":"0.0-6.0-15.0"},{"sim_score":2,"rt":4913,"stimulus":"[\"img/0769/76eaa4a3-dfe9-4dc1-9efb-caebe86264e1.jpg\",\"img/0875/d59ff733-eaff-4ee2-9443-06954dd0bcb6.jpg\"]","trial_type":"similarity","trial_index":22,"time_elapsed":259481,"internal_node_id":"0.0-6.0-16.0"},{"sim_score":3,"rt":4032,"stimulus":"[\"img/0904/9b3568cc-3cf7-42be-9df3-fdafde7a58b8.jpg\",\"img/0866/c446214b-a368-4c65-ae39-ea46894256ab.jpg\"]","trial_type":"similarity","trial_index":23,"time_elapsed":264518,"internal_node_id":"0.0-6.0-17.0"},{"sim_score":5,"rt":4561,"stimulus":"[\"img/0875/cff79b3a-a797-4393-9757-6275f999ec04.jpg\",\"img/0875/2e13d160-eea1-416b-aff1-d37ab99ecc1d.jpg\"]","trial_type":"similarity","trial_index":24,"time_elapsed":270082,"internal_node_id":"0.0-6.0-18.0"},{"sim_score":6,"rt":4862,"stimulus":"[\"img/0758/dd559618-7f09-4a07-8018-d311c4a5ea29.jpg\",\"img/0758/d57c2592-a317-4f63-91be-91a3a9afd222.jpg\"]","trial_type":"similarity","trial_index":25,"time_elapsed":275948,"internal_node_id":"0.0-6.0-19.0"},{"sim_score":4,"rt":4316,"stimulus":"[\"img/0902/c9c74d2d-9b82-42d7-a9d0-3b8ff67ff81e.jpg\",\"img/0874/2c9464dd-8a23-4baa-ac94-1ba3af5c15cc.jpg\"]","trial_type":"similarity","trial_index":26,"time_elapsed":281269,"internal_node_id":"0.0-6.0-20.0"},{"sim_score":4,"rt":4623,"stimulus":"[\"img/0764/06ea144f-f4f3-4a14-ba47-f20f35c561e0.jpg\",\"img/0769/965c3c44-d9e5-47c5-b61a-2bbdf4215d9a.jpg\"]","trial_type":"similarity","trial_index":27,"time_elapsed":286897,"internal_node_id":"0.0-6.0-21.0"},{"sim_score":2,"rt":4017,"stimulus":"[\"img/0901/233a6948-48eb-4b67-8259-222b916b2322.jpg\",\"img/0874/93d1f8dc-acf2-4f03-bd8d-8ec35df276ed.jpg\"]","trial_type":"similarity","trial_index":28,"time_elapsed":291917,"internal_node_id":"0.0-6.0-22.0"},{"sim_score":2,"rt":7074,"stimulus":"[\"img/0875/dbdd643e-6d0e-4a5c-ab57-b9c29b9c981a.jpg\",\"img/0903/8fcafe03-43df-4c45-9da5-0df3a1eeccc5.jpg\"]","trial_type":"similarity","trial_index":29,"time_elapsed":299996,"internal_node_id":"0.0-6.0-23.0"},{"sim_score":3,"rt":4159,"stimulus":"[\"img/0769/458d9c77-b844-40b5-bb1b-1e3bbd4da64e.jpg\",\"img/0881/adc02f34-ce97-4aef-850f-00519df06fd7.jpg\"]","trial_type":"similarity","trial_index":30,"time_elapsed":305160,"internal_node_id":"0.0-6.0-24.0"},{"sim_score":3,"rt":4612,"stimulus":"[\"img/0867/de92135f-5b65-4ed9-b245-188292c7c2f8.jpg\",\"img/0904/24fc38fe-842c-4831-ad8a-b1de5c25c0a8.jpg\"]","trial_type":"similarity","trial_index":31,"time_elapsed":310776,"internal_node_id":"0.0-6.0-25.0"},{"sim_score":2,"rt":4141,"stimulus":"[\"img/0860/87039971-2210-4aab-93c0-8e9b5f1655b2.jpg\",\"img/0881/7e822106-76f7-4b10-a805-14dc68b2cfaf.jpg\"]","trial_type":"similarity","trial_index":32,"time_elapsed":315921,"internal_node_id":"0.0-6.0-26.0"},{"sim_score":6,"rt":4219,"stimulus":"[\"img/0866/23a224f3-2012-4fc8-8e0f-3c36f8de27fd.jpg\",\"img/0866/bf14b5bd-fb55-47db-86b9-4f8aeb9a6dad.jpg\"]","trial_type":"similarity","trial_index":33,"time_elapsed":321143,"internal_node_id":"0.0-6.0-27.0"},{"sim_score":2,"rt":5307,"stimulus":"[\"img/0764/978aede9-4590-4ad0-b234-135c83e5d669.jpg\",\"img/0862/de9ad88c-b522-430a-8ee9-eb06a9f85df5.jpg\"]","trial_type":"similarity","trial_index":34,"time_elapsed":327454,"internal_node_id":"0.0-6.0-28.0"},{"sim_score":2,"rt":4156,"stimulus":"[\"img/0904/56e73f28-7e64-489b-a161-e6b1a063878d.jpg\",\"img/0758/61d64021-9214-4951-bdf8-f871f9827cf9.jpg\"]","trial_type":"similarity","trial_index":35,"time_elapsed":332614,"internal_node_id":"0.0-6.0-29.0"},{"sim_score":6,"rt":4084,"stimulus":"[\"img/0894/7f2f31fd-6618-41c6-b65a-0fd8b2851bc9.jpg\",\"img/0899/7f9d45d0-b2c6-40d3-aa41-c207db2c411b.jpg\"]","trial_type":"similarity","trial_index":36,"time_elapsed":337702,"internal_node_id":"0.0-6.0-30.0"},{"sim_score":2,"rt":6091,"stimulus":"[\"img/0860/b03b963d-949b-4d8d-b19c-4950c89eeca2.jpg\",\"img/0904/2f88ce53-02d0-4f95-a082-182c56a0eeb4.jpg\"]","trial_type":"similarity","trial_index":37,"time_elapsed":344798,"internal_node_id":"0.0-6.0-31.0"},{"sim_score":4,"rt":5590,"stimulus":"[\"img/0874/c0378dac-9370-439a-8b79-db27c96fb390.jpg\",\"img/0881/c843e210-bdfe-4a7c-8bbe-fcea1f90fe1c.jpg\"]","trial_type":"similarity","trial_index":38,"time_elapsed":351391,"internal_node_id":"0.0-6.0-32.0"},{"sim_score":3,"rt":5189,"stimulus":"[\"img/0881/c24f3051-eefa-42de-aba6-fccb56d93c70.jpg\",\"img/0899/f95cbdb4-f804-4f5d-ad76-373ad343e658.jpg\"]","trial_type":"similarity","trial_index":39,"time_elapsed":357584,"internal_node_id":"0.0-6.0-33.0"},{"sim_score":6,"rt":4625,"stimulus":"[\"img/0866/07c9c966-3c8d-40e7-8128-92b2acbaed5d.jpg\",\"img/0862/f188d4f0-76a4-4102-818c-a209969d73a5.jpg\"]","trial_type":"similarity","trial_index":40,"time_elapsed":363215,"internal_node_id":"0.0-6.0-34.0"},{"sim_score":3,"rt":4138,"stimulus":"[\"img/0868/179a5502-ab5c-478e-8263-5a1fbcc101d2.jpg\",\"img/0894/5ff3c4f6-52e2-4075-8679-be0312e59703.jpg\"]","trial_type":"similarity","trial_index":41,"time_elapsed":368357,"internal_node_id":"0.0-6.0-35.0"},{"sim_score":7,"rt":4274,"stimulus":"[\"img/0860/c5ccd1a4-4bb7-48e1-9b25-72cfaf06909b.jpg\",\"img/0860/17b44a7d-c5ca-479f-9e87-f65a64f5c80e.jpg\"]","trial_type":"similarity","trial_index":42,"time_elapsed":373635,"internal_node_id":"0.0-6.0-36.0"},{"sim_score":6,"rt":5962,"stimulus":"[\"img/0862/ee3b7bff-4a70-4e84-9bea-4a565e456acb.jpg\",\"img/0864/66091c27-e588-4476-8af9-265dc6be4156.jpg\"]","trial_type":"similarity","trial_index":43,"time_elapsed":380601,"internal_node_id":"0.0-6.0-37.0"},{"sim_score":3,"rt":3963,"stimulus":"[\"img/0766/a0270213-fa0e-4972-8b56-228c3e01ff90.jpg\",\"img/0866/386235d2-6857-41e7-88a8-25cfc3430025.jpg\"]","trial_type":"similarity","trial_index":44,"time_elapsed":385569,"internal_node_id":"0.0-6.0-38.0"},{"sim_score":4,"rt":5296,"stimulus":"[\"img/0875/fb732ab5-013a-4366-9f65-27811ed157e9.jpg\",\"img/0898/ec565187-2e31-4fdd-9a5c-153d0c789ae0.jpg\"]","trial_type":"similarity","trial_index":45,"time_elapsed":391870,"internal_node_id":"0.0-6.0-39.0"},{"sim_score":3,"rt":5724,"stimulus":"[\"img/0766/d50d734f-285c-4840-bc7a-c8dd4aff391e.jpg\",\"img/0769/a1ce8d07-ba37-40de-bade-2778805521e0.jpg\"]","trial_type":"similarity","trial_index":46,"time_elapsed":398598,"internal_node_id":"0.0-6.0-40.0"},{"sim_score":5,"rt":4079,"stimulus":"[\"img/0874/995f0332-0439-4eb4-add3-957335dbf6d9.jpg\",\"img/0764/974d52cc-6318-4e7a-b294-2f3e92ff800f.jpg\"]","trial_type":"similarity","trial_index":47,"time_elapsed":434632,"internal_node_id":"0.0-6.0-41.0"},{"sim_score":4,"rt":7553,"stimulus":"[\"img/0868/6a28c3b0-3d76-498a-9fb7-ddafc665eca8.jpg\",\"img/0902/95a36b6b-9601-4fa5-8fd9-606ea62f9425.jpg\"]","trial_type":"similarity","trial_index":48,"time_elapsed":443190,"internal_node_id":"0.0-6.0-42.0"},{"sim_score":2,"rt":4569,"stimulus":"[\"img/0875/34132396-d896-4c2d-8087-646dd867e769.jpg\",\"img/0899/4408c14d-c168-4a7d-96f6-bc87bfb58f83.jpg\"]","trial_type":"similarity","trial_index":49,"time_elapsed":448765,"internal_node_id":"0.0-6.0-43.0"},{"sim_score":3,"rt":3894,"stimulus":"[\"img/0866/a15b02be-11bb-43e3-b0e0-ecc3bd7dfc49.jpg\",\"img/0860/524b2e98-5767-4d53-942c-ebae6925659b.jpg\"]","trial_type":"similarity","trial_index":50,"time_elapsed":453665,"internal_node_id":"0.0-6.0-44.0"},{"sim_score":4,"rt":5785,"stimulus":"[\"img/0766/f3276cc4-65de-4c2d-88d5-6cfebce14b8f.jpg\",\"img/0903/c3cb4a01-2797-43ca-b216-88c67b323fbb.jpg\"]","trial_type":"similarity","trial_index":51,"time_elapsed":460455,"internal_node_id":"0.0-6.0-45.0"},{"sim_score":5,"rt":4369,"stimulus":"[\"img/0901/71e551a2-9ce2-409c-9c7c-dd556a0791e9.jpg\",\"img/0904/6291eb43-c10c-4810-a36a-101d09868b04.jpg\"]","trial_type":"similarity","trial_index":52,"time_elapsed":465827,"internal_node_id":"0.0-6.0-46.0"},{"sim_score":5,"rt":4733,"stimulus":"[\"img/0758/7ee8bc8f-c40b-4b3a-84ec-3e83580622d4.jpg\",\"img/0902/a323b62d-2fd5-4ac8-acc6-35b768f3c3f2.jpg\"]","trial_type":"similarity","trial_index":53,"time_elapsed":471565,"internal_node_id":"0.0-6.0-47.0"},{"sim_score":6,"rt":4001,"stimulus":"[\"img/0764/c01e2d65-6586-441b-bef5-3c96fcd85380.jpg\",\"img/0764/4eff630a-6426-4f8d-b2ba-b4d9842a0962.jpg\"]","trial_type":"similarity","trial_index":54,"time_elapsed":476569,"internal_node_id":"0.0-6.0-48.0"},{"sim_score":3,"rt":3952,"stimulus":"[\"img/0866/11a1d141-be5e-443c-98c1-a9d4d9e3dec0.jpg\",\"img/0902/8af4182a-9af9-4212-a436-9195555112d6.jpg\"]","trial_type":"similarity","trial_index":55,"time_elapsed":481525,"internal_node_id":"0.0-6.0-49.0"},{"sim_score":3,"rt":5121,"stimulus":"[\"img/0764/0e7ed062-f798-4366-8a24-6f430926f919.jpg\",\"img/0758/821c68d3-5cb0-4eae-8659-30e6263fca39.jpg\"]","trial_type":"similarity","trial_index":56,"time_elapsed":487648,"internal_node_id":"0.0-6.0-50.0"},{"sim_score":5,"rt":5615,"stimulus":"[\"img/0898/f3a3f225-1248-4ac7-b93b-f0ff28485bf3.jpg\",\"img/0894/4739e06d-c31e-4bf1-bf91-c97fa9afb456.jpg\"]","trial_type":"similarity","trial_index":57,"time_elapsed":494267,"internal_node_id":"0.0-6.0-51.0"},{"sim_score":6,"rt":4079,"stimulus":"[\"img/0875/e7e66b13-b573-431e-b85e-288ce04a35a3.jpg\",\"img/0866/6f2a90d7-14f1-4f1b-bd64-fc0af6b9fe44.jpg\"]","trial_type":"similarity","trial_index":58,"time_elapsed":499350,"internal_node_id":"0.0-6.0-52.0"},{"sim_score":7,"rt":3960,"stimulus":"[\"img/0904/e9423a8c-f946-43ad-ab7b-931acef870e2.jpg\",\"img/0904/5cceabc9-de1d-4c67-989b-c28a4ef77e79.jpg\"]","trial_type":"similarity","trial_index":59,"time_elapsed":504314,"internal_node_id":"0.0-6.0-53.0"},{"sim_score":6,"rt":4105,"stimulus":"[\"img/0769/ecda2fb3-556b-43ba-8a67-e87dd75ff2b4.jpg\",\"img/0769/4a1d0b52-3fe8-40fb-bb1c-c814fe49a68c.jpg\"]","trial_type":"similarity","trial_index":60,"time_elapsed":509422,"internal_node_id":"0.0-6.0-54.0"},{"sim_score":5,"rt":4294,"stimulus":"[\"img/0898/6cd3830b-d44e-4915-be2b-88d31424b91c.jpg\",\"img/0758/e38fd80d-18d0-42f3-b848-f930788e8bd7.jpg\"]","trial_type":"similarity","trial_index":61,"time_elapsed":514719,"internal_node_id":"0.0-6.0-55.0"},{"sim_score":5,"rt":5290,"stimulus":"[\"img/0769/da36e3f7-2337-434f-ab57-11822dd7eed7.jpg\",\"img/0902/d1083f2c-5520-44ec-81a8-3f856fbf0e80.jpg\"]","trial_type":"similarity","trial_index":62,"time_elapsed":521014,"internal_node_id":"0.0-6.0-56.0"},{"sim_score":6,"rt":5241,"stimulus":"[\"img/0864/e02eddb5-f468-499c-91bf-f7be3ffe979b.jpg\",\"img/0881/b549bc99-a61c-4450-bab5-9efc3a197bf0.jpg\"]","trial_type":"similarity","trial_index":63,"time_elapsed":527259,"internal_node_id":"0.0-6.0-57.0"},{"sim_score":2,"rt":4317,"stimulus":"[\"img/0758/a085b443-b5d7-4cb2-9ad4-b9dab0fc23f1.jpg\",\"img/0868/4bd5105a-d2c3-4f82-8c80-57196106ba53.jpg\"]","trial_type":"similarity","trial_index":64,"time_elapsed":532580,"internal_node_id":"0.0-6.0-58.0"},{"sim_score":5,"rt":4731,"stimulus":"[\"img/0862/ad593cc7-cabe-4bb7-8e14-8a447a0717b4.jpg\",\"img/0769/50985283-d353-4abc-9abe-14a91d56ebe6.jpg\"]","trial_type":"similarity","trial_index":65,"time_elapsed":538315,"internal_node_id":"0.0-6.0-59.0"},{"sim_score":6,"rt":3828,"stimulus":"[\"img/0764/55b3fab1-b809-4d38-a461-3f40ce062f52.jpg\",\"img/0903/d987e220-f3e6-4b6d-a270-fe6757041f6d.jpg\"]","trial_type":"similarity","trial_index":66,"time_elapsed":543147,"internal_node_id":"0.0-6.0-60.0"},{"sim_score":7,"rt":5132,"stimulus":"[\"img/0899/57476fed-5962-4272-8fc9-b317bb777b54.jpg\",\"img/0899/565ccdd9-0933-4536-a625-3c0e25a713dd.jpg\"]","trial_type":"similarity","trial_index":67,"time_elapsed":549283,"internal_node_id":"0.0-6.0-61.0"},{"sim_score":3,"rt":5016,"stimulus":"[\"img/0860/702bd09d-df3a-40aa-a267-5f04474305b5.jpg\",\"img/0875/3ecb367d-e9eb-4826-8aaa-7aa72fb98019.jpg\"]","trial_type":"similarity","trial_index":68,"time_elapsed":555302,"internal_node_id":"0.0-6.0-62.0"},{"sim_score":1,"rt":4677,"stimulus":"[\"img/0868/15dd6fd7-791e-4b53-b203-195d617521a4.jpg\",\"img/0874/85eb9b8a-c4c6-4e5a-b8e7-363a87a82054.jpg\"]","trial_type":"similarity","trial_index":69,"time_elapsed":560983,"internal_node_id":"0.0-6.0-63.0"},{"sim_score":6,"rt":4616,"stimulus":"[\"img/0758/335851a0-a55b-46d8-ab05-8463eda48349.jpg\",\"img/0862/1c20f772-3a51-4a80-aac0-f57dc9f86c28.jpg\"]","trial_type":"similarity","trial_index":70,"time_elapsed":566604,"internal_node_id":"0.0-6.0-64.0"},{"sim_score":5,"rt":3812,"stimulus":"[\"img/0904/b7c2a2c8-df33-4473-b3d4-ff7147c60db3.jpg\",\"img/0898/04e39a7a-fcf6-4156-ab0e-f5871f335e1c.jpg\"]","trial_type":"similarity","trial_index":71,"time_elapsed":571420,"internal_node_id":"0.0-6.0-65.0"},{"sim_score":2,"rt":3836,"stimulus":"[\"img/0881/f62bdcd1-a4b7-4d48-83da-d9c9e01c8727.jpg\",\"img/0866/be24ab58-230e-4db8-9f45-ff04c9aec6bb.jpg\"]","trial_type":"similarity","trial_index":72,"time_elapsed":576260,"internal_node_id":"0.0-6.0-66.0"},{"sim_score":3,"rt":5713,"stimulus":"[\"img/0867/6e19c858-b606-45b2-a4c6-910a73f1d82c.jpg\",\"img/0898/a114b375-cb89-44ba-9498-74213f1ecdee.jpg\"]","trial_type":"similarity","trial_index":73,"time_elapsed":582976,"internal_node_id":"0.0-6.0-67.0"},{"sim_score":6,"rt":4083,"stimulus":"[\"img/0902/bd89a85f-3853-4786-acd6-98818ee29f1c.jpg\",\"img/0764/1def7b22-b054-4ec2-860b-73d25691823b.jpg\"]","trial_type":"similarity","trial_index":74,"time_elapsed":588063,"internal_node_id":"0.0-6.0-68.0"},{"sim_score":6,"rt":3955,"stimulus":"[\"img/0875/42910c99-5463-450a-a0f8-d4d060a11455.jpg\",\"img/0867/a749dddb-69f0-44a6-acdc-2bf295cf6dcc.jpg\"]","trial_type":"similarity","trial_index":75,"time_elapsed":593023,"internal_node_id":"0.0-6.0-69.0"},{"sim_score":6,"rt":4908,"stimulus":"[\"img/0766/717fd72f-a281-499b-a5ba-5e2ecc4d4866.jpg\",\"img/0764/ef0e64c6-d0dd-4dc6-87b6-ce5c0665f421.jpg\"]","trial_type":"similarity","trial_index":76,"time_elapsed":598934,"internal_node_id":"0.0-6.0-70.0"},{"sim_score":3,"rt":5913,"stimulus":"[\"img/0894/1a010553-d598-4b06-a772-81f1e7b3addb.jpg\",\"img/0867/f8159067-056c-41f1-a136-c529fe5e970a.jpg\"]","trial_type":"similarity","trial_index":77,"time_elapsed":605851,"internal_node_id":"0.0-6.0-71.0"},{"sim_score":2,"rt":5157,"stimulus":"[\"img/0875/99698b4d-b4a1-44bc-8c83-8ea755bbbf61.jpg\",\"img/0764/6c7fe363-2d37-418f-9e5e-a3273af5d4fb.jpg\"]","trial_type":"similarity","trial_index":78,"time_elapsed":612011,"internal_node_id":"0.0-6.0-72.0"},{"sim_score":5,"rt":4821,"stimulus":"[\"img/0867/075e0f95-856b-4cbb-acf5-092393aaf04e.jpg\",\"img/0866/d266fece-59b3-46fa-b69f-96f6efb81b59.jpg\"]","trial_type":"similarity","trial_index":79,"time_elapsed":617837,"internal_node_id":"0.0-6.0-73.0"},{"sim_score":3,"rt":3769,"stimulus":"[\"img/0903/97a42b34-5462-4665-88c7-83c014b33d24.jpg\",\"img/0758/6cd8c362-ae2a-41eb-80a3-3a4f7ace1530.jpg\"]","trial_type":"similarity","trial_index":80,"time_elapsed":622609,"internal_node_id":"0.0-6.0-74.0"},{"sim_score":3,"rt":4986,"stimulus":"[\"img/0766/f011ef45-fb48-44b8-8224-867ed2ccf786.jpg\",\"img/0868/c8ac40c7-6904-4e13-8d61-c75d3052dc4e.jpg\"]","trial_type":"similarity","trial_index":81,"time_elapsed":628600,"internal_node_id":"0.0-6.0-75.0"},{"sim_score":5,"rt":4202,"stimulus":"[\"img/0874/eba003b4-cdab-4eee-8bc3-f064c7d94165.jpg\",\"img/0766/0bf3793e-c353-45e5-ac6f-753f5f484e10.jpg\"]","trial_type":"similarity","trial_index":82,"time_elapsed":633805,"internal_node_id":"0.0-6.0-76.0"},{"sim_score":2,"rt":4083,"stimulus":"[\"img/0881/7e31e5dc-2240-4b1b-b5a0-3acd980099ef.jpg\",\"img/0868/7b212364-ff5f-4e28-9241-7eb6ea00161b.jpg\"]","trial_type":"similarity","trial_index":83,"time_elapsed":638892,"internal_node_id":"0.0-6.0-77.0"},{"sim_score":4,"rt":6402,"stimulus":"[\"img/0758/7fba58df-2a7a-4b76-8a8f-62739f97f271.jpg\",\"img/0901/33b51a81-06d9-46d9-9d4f-5a2d6d6b8058.jpg\"]","trial_type":"similarity","trial_index":84,"time_elapsed":646297,"internal_node_id":"0.0-6.0-78.0"},{"sim_score":2,"rt":4470,"stimulus":"[\"img/0881/d373cb9f-a719-4549-a2a4-82def79fb2a5.jpg\",\"img/0898/0af304a2-6a7a-4082-ab7c-4450cd08cc58.jpg\"]","trial_type":"similarity","trial_index":85,"time_elapsed":651774,"internal_node_id":"0.0-6.0-79.0"},{"sim_score":2,"rt":3688,"stimulus":"[\"img/0867/98d8cd96-1476-4fe0-a3a3-04f875500a1b.jpg\",\"img/0758/65d426d6-3ff6-415d-8654-a43b83ecc4fe.jpg\"]","trial_type":"similarity","trial_index":86,"time_elapsed":656465,"internal_node_id":"0.0-6.0-80.0"},{"sim_score":5,"rt":5718,"stimulus":"[\"img/0769/387a9744-d6a7-42b8-bab8-33007ec434aa.jpg\",\"img/0899/fd9efb43-701f-4cd6-baaa-4c38315f4bdc.jpg\"]","trial_type":"similarity","trial_index":87,"time_elapsed":663188,"internal_node_id":"0.0-6.0-81.0"},{"sim_score":7,"rt":3757,"stimulus":"[\"img/0903/2c7b4aed-6038-4aac-958a-e3e58341c313.jpg\",\"img/0903/6b5dcc60-3ad3-4962-93e5-e6cf768477af.jpg\"]","trial_type":"similarity","trial_index":88,"time_elapsed":667949,"internal_node_id":"0.0-6.0-82.0"},{"sim_score":3,"rt":5129,"stimulus":"[\"img/0867/5e07b34d-b40f-4b1c-ac10-49975bace45f.jpg\",\"img/0766/fd74fdbb-ea40-4f3a-a091-38d08dfd636e.jpg\"]","trial_type":"similarity","trial_index":89,"time_elapsed":685946,"internal_node_id":"0.0-6.0-83.0"},{"sim_score":2,"rt":6125,"stimulus":"[\"img/0902/b03129ba-b087-4558-af37-e8399d6217d6.jpg\",\"img/0867/ac1797e4-8afc-48fe-b252-86d1defb1cca.jpg\"]","trial_type":"similarity","trial_index":90,"time_elapsed":693075,"internal_node_id":"0.0-6.0-84.0"},{"sim_score":5,"rt":3555,"stimulus":"[\"img/0901/4f9cffe0-c0be-4d7f-bacd-9d51efd19b4a.jpg\",\"img/0875/2c361b79-c3d1-4eda-812e-bf03192407bf.jpg\"]","trial_type":"similarity","trial_index":91,"time_elapsed":697633,"internal_node_id":"0.0-6.0-85.0"},{"sim_score":3,"rt":3741,"stimulus":"[\"img/0764/62fafeea-6274-48ce-976f-35d3d3484c65.jpg\",\"img/0866/945c6710-d15b-4a5b-a8f6-69af0850357f.jpg\"]","trial_type":"similarity","trial_index":92,"time_elapsed":702378,"internal_node_id":"0.0-6.0-86.0"},{"sim_score":6,"rt":3307,"stimulus":"[\"img/0901/58978a6d-a3e2-4c59-8d62-f60693ecc0f6.jpg\",\"img/0894/133a1636-d123-4893-873c-1718050f832a.jpg\"]","trial_type":"similarity","trial_index":93,"time_elapsed":706690,"internal_node_id":"0.0-6.0-87.0"},{"sim_score":5,"rt":4308,"stimulus":"[\"img/0898/b2732712-71c2-45d8-834f-2b2ed5504910.jpg\",\"img/0769/0fe124d3-bcad-45f6-b64d-8f6eb8ee5251.jpg\"]","trial_type":"similarity","trial_index":94,"time_elapsed":712002,"internal_node_id":"0.0-6.0-88.0"},{"sim_score":7,"rt":4923,"stimulus":"[\"img/0769/96556ef3-7fac-4c9d-8281-1cb0ea5081bc.jpg\",\"img/0894/3adef67d-7676-4995-80b2-bb31b8aca3ef.jpg\"]","trial_type":"similarity","trial_index":95,"time_elapsed":717930,"internal_node_id":"0.0-6.0-89.0"},{"sim_score":7,"rt":3382,"stimulus":"[\"img/0862/4f0a3b4c-afbf-486e-b248-1d54982f54b4.jpg\",\"img/0874/bf14b896-e930-4fd9-9c05-2e83317a2773.jpg\"]","trial_type":"similarity","trial_index":96,"time_elapsed":722315,"internal_node_id":"0.0-6.0-90.0"},{"sim_score":6,"rt":3892,"stimulus":"[\"img/0894/6b2e9509-8699-42b7-9582-7741df0ba2d7.jpg\",\"img/0766/26d3ae14-8275-4e08-99b2-a6598c193ddf.jpg\"]","trial_type":"similarity","trial_index":97,"time_elapsed":727211,"internal_node_id":"0.0-6.0-91.0"},{"sim_score":3,"rt":3945,"stimulus":"[\"img/0874/ca23d307-fc00-4d7d-9106-584c6eb21b4d.jpg\",\"img/0867/db7e032f-162b-46f5-ae67-2b29679adee4.jpg\"]","trial_type":"similarity","trial_index":98,"time_elapsed":732161,"internal_node_id":"0.0-6.0-92.0"},{"sim_score":3,"rt":4018,"stimulus":"[\"img/0899/51a7a498-98c7-42d7-bca8-bc2d8f0b5831.jpg\",\"img/0868/8b0b8473-e2c0-4331-aa56-c3a5c29369da.jpg\"]","trial_type":"similarity","trial_index":99,"time_elapsed":737183,"internal_node_id":"0.0-6.0-93.0"},{"sim_score":6,"rt":3303,"stimulus":"[\"img/0903/24477210-856c-4550-9de0-9f85a32762eb.jpg\",\"img/0862/99a99e39-8355-44ec-b993-e7bcec111e1c.jpg\"]","trial_type":"similarity","trial_index":100,"time_elapsed":741491,"internal_node_id":"0.0-6.0-94.0"},{"sim_score":6,"rt":3990,"stimulus":"[\"img/0899/5b56dd3e-3f49-47cc-af84-16da6457753b.jpg\",\"img/0766/aaec5f42-7f0a-4a16-aeca-488d757acbcc.jpg\"]","trial_type":"similarity","trial_index":101,"time_elapsed":746485,"internal_node_id":"0.0-6.0-95.0"},{"sim_score":7,"rt":3204,"stimulus":"[\"img/0867/c66898ba-b71b-4d50-84f9-f7f84853a98d.jpg\",\"img/0868/4a8a45ed-2c4f-421b-9564-409a33ecd26c.jpg\"]","trial_type":"similarity","trial_index":102,"time_elapsed":750694,"internal_node_id":"0.0-6.0-96.0"},{"sim_score":6,"rt":5773,"stimulus":"[\"img/0862/47ed5efd-4ec9-4b74-bb4e-a5f5cf0c3e7d.jpg\",\"img/0901/fb0a8e69-7f19-4e6e-a6bb-a48f97f9b4f3.jpg\"]","trial_type":"similarity","trial_index":103,"time_elapsed":757471,"internal_node_id":"0.0-6.0-97.0"},{"sim_score":3,"rt":5649,"stimulus":"[\"img/0875/03c3c331-738b-4446-af92-3d7386b08c2e.jpg\",\"img/0766/0b48f9e0-7d37-4161-8adb-4e3f5b6b7583.jpg\"]","trial_type":"similarity","trial_index":104,"time_elapsed":764124,"internal_node_id":"0.0-6.0-98.0"},{"sim_score":7,"rt":3569,"stimulus":"[\"img/0758/7ffbc76b-1fc1-432c-8f7e-9ec8d1b3f643.jpg\",\"img/0874/ca76a855-4e77-4f2f-872a-0a718153e7ed.jpg\"]","trial_type":"similarity","trial_index":105,"time_elapsed":768696,"internal_node_id":"0.0-6.0-99.0"},{"sim_score":5,"rt":4049,"stimulus":"[\"img/0904/9dd5708f-3f8b-46a9-b49f-2f2fab87b357.jpg\",\"img/0868/83b4350a-3b70-4cea-b7f5-b5b56f3050a8.jpg\"]","trial_type":"similarity","trial_index":106,"time_elapsed":773750,"internal_node_id":"0.0-6.0-100.0"},{"sim_score":4,"rt":6144,"stimulus":"[\"img/0903/ea75f240-fb62-4edb-a709-83e858b202c0.jpg\",\"img/0866/620cd1aa-0800-4414-8f6e-90342e7a99ad.jpg\"]","trial_type":"similarity","trial_index":107,"time_elapsed":780900,"internal_node_id":"0.0-6.0-101.0"},{"sim_score":6,"rt":3250,"stimulus":"[\"img/0868/293079b8-7e0c-4afd-a390-1e5d35fe3ded.jpg\",\"img/0769/022c7e3b-c3f2-4119-b4bc-f22fa7cae18c.jpg\"]","trial_type":"similarity","trial_index":108,"time_elapsed":785153,"internal_node_id":"0.0-6.0-102.0"},{"sim_score":5,"rt":3957,"stimulus":"[\"img/0902/e5a46bda-30d1-41ca-b36d-b8529b5a63d1.jpg\",\"img/0899/9de5e857-aa9a-4e0c-8ba2-46d79bd069a4.jpg\"]","trial_type":"similarity","trial_index":109,"time_elapsed":790113,"internal_node_id":"0.0-6.0-103.0"},{"sim_score":1,"rt":5952,"stimulus":"[\"img/0868/d6d1f30d-4323-435a-b194-7892521bc57e.jpg\",\"img/0862/d0ca4c78-fc35-46ed-bdcc-8e124283c53e.jpg\"]","trial_type":"similarity","trial_index":110,"time_elapsed":797068,"internal_node_id":"0.0-6.0-104.0"},{"sim_score":3,"rt":4192,"stimulus":"[\"img/0903/72197c2b-403e-4a26-b391-f1aa8dea4b76.jpg\",\"img/0894/10f22b96-040c-44f4-950b-a4963f3f506c.jpg\"]","trial_type":"similarity","trial_index":111,"time_elapsed":802264,"internal_node_id":"0.0-6.0-105.0"},{"sim_score":5,"rt":3681,"stimulus":"[\"img/0864/6e846d43-94a6-4b37-a268-65eda979f052.jpg\",\"img/0874/a3bc679d-619f-4db6-bb68-116dcb757d9c.jpg\"]","trial_type":"similarity","trial_index":112,"time_elapsed":806950,"internal_node_id":"0.0-6.0-106.0"},{"sim_score":7,"rt":3828,"stimulus":"[\"img/0862/7918ca67-5bd3-4606-a5ea-c39fb11a9297.jpg\",\"img/0902/7499db23-3a41-41ea-ab5b-6ab4d4c3ed35.jpg\"]","trial_type":"similarity","trial_index":113,"time_elapsed":811782,"internal_node_id":"0.0-6.0-107.0"},{"sim_score":6,"rt":4463,"stimulus":"[\"img/0904/73920552-103b-4c9c-9ece-e0b8376b4504.jpg\",\"img/0903/0e5c2854-42aa-48c0-9c3d-6e1ad2a400bd.jpg\"]","trial_type":"similarity","trial_index":114,"time_elapsed":817249,"internal_node_id":"0.0-6.0-108.0"},{"sim_score":7,"rt":2927,"stimulus":"[\"img/0764/ca9829fe-aaf8-45b8-b98a-6bae751c63dd.jpg\",\"img/0864/da39ad34-04e0-40d4-a724-c08d53e0ea09.jpg\"]","trial_type":"similarity","trial_index":115,"time_elapsed":821179,"internal_node_id":"0.0-6.0-109.0"},{"sim_score":3,"rt":4142,"stimulus":"[\"img/0866/a04d37f0-99dd-478a-b6c6-58b215138f84.jpg\",\"img/0894/8cadb87a-7001-4e47-99fb-1867bebf1668.jpg\"]","trial_type":"similarity","trial_index":116,"time_elapsed":826326,"internal_node_id":"0.0-6.0-110.0"},{"sim_score":5,"rt":3938,"stimulus":"[\"img/0899/00715b3f-851b-420b-a26b-d7f79f7759a9.jpg\",\"img/0903/12bd8657-92e6-4c36-a06c-597e7a1d51f3.jpg\"]","trial_type":"similarity","trial_index":117,"time_elapsed":831267,"internal_node_id":"0.0-6.0-111.0"},{"sim_score":3,"rt":5736,"stimulus":"[\"img/0902/b03fee99-d5ca-4bf8-871c-a4a743a39842.jpg\",\"img/0904/9d30eff1-46ef-4453-b11e-124ef8145c00.jpg\"]","trial_type":"similarity","trial_index":118,"time_elapsed":838007,"internal_node_id":"0.0-6.0-112.0"},{"sim_score":5,"rt":2899,"stimulus":"[\"img/0864/a248adb3-c70b-4652-b7a3-776d2a1e904b.jpg\",\"img/0860/c7047cd2-7cc1-41b6-8a34-c0986774975f.jpg\"]","trial_type":"similarity","trial_index":119,"time_elapsed":841910,"internal_node_id":"0.0-6.0-113.0"},{"sim_score":6,"rt":3602,"stimulus":"[\"img/0860/18dfed73-e36b-4487-a8bd-0b8cff8e3668.jpg\",\"img/0899/d8f2dd94-570e-4e8c-a087-d96090fb9e8c.jpg\"]","trial_type":"similarity","trial_index":120,"time_elapsed":846516,"internal_node_id":"0.0-6.0-114.0"},{"sim_score":7,"rt":3717,"stimulus":"[\"img/0881/f8bd891e-aa09-4782-89db-33e7cb2b0cf1.jpg\",\"img/0903/36e4ab1f-caa9-40b3-8616-faada076df94.jpg\"]","trial_type":"similarity","trial_index":121,"time_elapsed":851238,"internal_node_id":"0.0-6.0-115.0"},{"sim_score":6,"rt":3769,"stimulus":"[\"img/0894/2217bdcd-23a7-42d3-823b-23f2488d7e87.jpg\",\"img/0874/29830da7-be5f-44e5-b141-652a0ccf7269.jpg\"]","trial_type":"similarity","trial_index":122,"time_elapsed":856012,"internal_node_id":"0.0-6.0-116.0"},{"sim_score":6,"rt":4960,"stimulus":"[\"img/0881/f4e3e181-b3c9-4af2-a5a4-fc135ab70d2e.jpg\",\"img/0862/eefa5588-9efd-4591-aa5f-a2e17c7d7bcc.jpg\"]","trial_type":"similarity","trial_index":123,"time_elapsed":861975,"internal_node_id":"0.0-6.0-117.0"},{"sim_score":5,"rt":3635,"stimulus":"[\"img/0868/0d3abd3a-b6c3-4584-a9f7-e2da63748b3d.jpg\",\"img/0875/90da8d75-108a-44ad-b999-e21fee3860d3.jpg\"]","trial_type":"similarity","trial_index":124,"time_elapsed":866614,"internal_node_id":"0.0-6.0-118.0"},{"sim_score":6,"rt":3778,"stimulus":"[\"img/0860/29a21a9f-54bb-4093-ad3f-04823ceaa89f.jpg\",\"img/0758/9fb5b2fe-3f00-4fe6-973c-1ce10d5f4cd5.jpg\"]","trial_type":"similarity","trial_index":125,"time_elapsed":871396,"internal_node_id":"0.0-6.0-119.0"},{"sim_score":5,"rt":4024,"stimulus":"[\"img/0864/1ebbc554-99fa-49f9-8799-317375a79820.jpg\",\"img/0875/ebf7653f-ff45-4e9f-af58-2c042ab3cd2b.jpg\"]","trial_type":"similarity","trial_index":126,"time_elapsed":876423,"internal_node_id":"0.0-6.0-120.0"},{"sim_score":4,"rt":4268,"stimulus":"[\"img/0898/b3290bf9-215b-4b45-b21a-65bdf73f142f.jpg\",\"img/0866/93a27239-8317-4e08-98ca-d8b1ff298e07.jpg\"]","trial_type":"similarity","trial_index":127,"time_elapsed":881696,"internal_node_id":"0.0-6.0-121.0"},{"sim_score":5,"rt":4543,"stimulus":"[\"img/0874/3ce41e7c-40c8-4d58-a546-171114521796.jpg\",\"img/0904/ba8e689e-9ca6-4608-a2a1-3b0940666ae6.jpg\"]","trial_type":"similarity","trial_index":128,"time_elapsed":887243,"internal_node_id":"0.0-6.0-122.0"},{"sim_score":5,"rt":2966,"stimulus":"[\"img/0904/da170c1b-9651-4f08-b231-2bdd1d9a046f.jpg\",\"img/0864/c3b63e8f-ea39-4d70-a1f2-b3fe4be8eb75.jpg\"]","trial_type":"similarity","trial_index":129,"time_elapsed":891213,"internal_node_id":"0.0-6.0-123.0"},{"sim_score":5,"rt":4787,"stimulus":"[\"img/0894/e2446cf5-cd48-486a-badc-76498e087fbe.jpg\",\"img/0902/94ee9c53-a9a2-4f95-b9b7-794a5fc62bb6.jpg\"]","trial_type":"similarity","trial_index":130,"time_elapsed":897005,"internal_node_id":"0.0-6.0-124.0"},{"sim_score":2,"rt":3336,"stimulus":"[\"img/0868/1a62b2b2-18f5-466e-b564-5176a57c565e.jpg\",\"img/0864/afcba0a3-7e27-4757-b254-e9f05fad27e2.jpg\"]","trial_type":"similarity","trial_index":131,"time_elapsed":909536,"internal_node_id":"0.0-6.0-125.0"},{"sim_score":5,"rt":4038,"stimulus":"[\"img/0899/25ae6ec8-9565-49fe-a8bb-8d0666f52716.jpg\",\"img/0866/f756f7d1-9ad8-4a34-9ef6-7a443d705bfe.jpg\"]","trial_type":"similarity","trial_index":132,"time_elapsed":914580,"internal_node_id":"0.0-6.0-126.0"},{"sim_score":7,"rt":5030,"stimulus":"[\"img/0875/527ced51-8e53-4aab-ab05-86df219104c0.jpg\",\"img/0904/4e58005d-a2ec-4aaa-b199-445343561396.jpg\"]","trial_type":"similarity","trial_index":133,"time_elapsed":920615,"internal_node_id":"0.0-6.0-127.0"},{"sim_score":6,"rt":3563,"stimulus":"[\"img/0867/c71dc569-f49c-4397-8381-68b8d726736d.jpg\",\"img/0899/56a605c3-d0a2-4215-89e1-779279d85a7c.jpg\"]","trial_type":"similarity","trial_index":134,"time_elapsed":925182,"internal_node_id":"0.0-6.0-128.0"},{"sim_score":1,"rt":4389,"stimulus":"[\"img/0901/b13fa50f-dbe0-4d0f-8647-6ac0fd8f40bd.jpg\",\"img/0867/50a1b60e-3a29-44bf-b606-d4bd3746fea9.jpg\"]","trial_type":"similarity","trial_index":135,"time_elapsed":930578,"internal_node_id":"0.0-6.0-129.0"},{"sim_score":1,"rt":2555,"stimulus":"[\"img/0864/3651d070-2fc5-4848-b6a6-088a2d9ac5c9.jpg\",\"img/0769/9ea27d61-3d55-418c-8d14-82e90f656f01.jpg\"]","trial_type":"similarity","trial_index":136,"time_elapsed":934135,"internal_node_id":"0.0-6.0-130.0"},{"sim_score":2,"rt":4533,"stimulus":"[\"img/0903/005ad0de-4f52-433c-b515-dbe8d46184a3.jpg\",\"img/0868/09a9ef4d-d000-4cfa-a6aa-ebec7c2edeb4.jpg\"]","trial_type":"similarity","trial_index":137,"time_elapsed":939672,"internal_node_id":"0.0-6.0-131.0"},{"sim_score":1,"rt":3245,"stimulus":"[\"img/0864/5f33e097-23e3-4002-882d-76e8cb15f451.jpg\",\"img/0867/85a96c62-548f-4994-9553-819e03c3135a.jpg\"]","trial_type":"similarity","trial_index":138,"time_elapsed":943921,"internal_node_id":"0.0-6.0-132.0"},{"sim_score":7,"rt":4116,"stimulus":"[\"img/0901/0adb3bd6-d758-4ba7-9723-3ad6cac05bd5.jpg\",\"img/0860/8277806e-b684-4474-8f7b-3fca946d7d4f.jpg\"]","trial_type":"similarity","trial_index":139,"time_elapsed":949042,"internal_node_id":"0.0-6.0-133.0"},{"sim_score":6,"rt":4232,"stimulus":"[\"img/0881/14236cf2-6b95-48b8-9368-78af09d2d27f.jpg\",\"img/0766/ef3b15ce-abb7-4292-ad93-aec8e8b50520.jpg\"]","trial_type":"similarity","trial_index":140,"time_elapsed":954277,"internal_node_id":"0.0-6.0-134.0"},{"sim_score":5,"rt":4195,"stimulus":"[\"img/0903/470acfd5-5571-4a7b-b3a4-28d87e098138.jpg\",\"img/0864/49150900-7f25-4ce8-8d10-9b47a71d1997.jpg\"]","trial_type":"similarity","trial_index":141,"time_elapsed":959476,"internal_node_id":"0.0-6.0-135.0"},{"sim_score":1,"rt":3831,"stimulus":"[\"img/0758/20497cbe-ddae-489e-86e2-ab06985ed07c.jpg\",\"img/0894/38cf335f-f76f-4349-8d65-e20cd6859565.jpg\"]","trial_type":"similarity","trial_index":142,"time_elapsed":964310,"internal_node_id":"0.0-6.0-136.0"},{"sim_score":1,"rt":3655,"stimulus":"[\"img/0769/3adfa417-3b90-4aab-b437-5eaa474189cb.jpg\",\"img/0860/e14d67c1-6d92-4f1e-9257-c8607159c19c.jpg\"]","trial_type":"similarity","trial_index":143,"time_elapsed":968968,"internal_node_id":"0.0-6.0-137.0"},{"sim_score":6,"rt":3970,"stimulus":"[\"img/0904/1d10df11-b5c8-4370-9a6b-097a7f965895.jpg\",\"img/0766/a754e4b6-5019-4cf4-8f58-34c20547a1f5.jpg\"]","trial_type":"similarity","trial_index":144,"time_elapsed":973941,"internal_node_id":"0.0-6.0-138.0"},{"sim_score":5,"rt":3595,"stimulus":"[\"img/0868/d98ca254-b195-477f-b57e-5760a2717db8.jpg\",\"img/0860/d9a0d117-6d1d-41c0-8fec-9aff0fd9e9f2.jpg\"]","trial_type":"similarity","trial_index":145,"time_elapsed":978540,"internal_node_id":"0.0-6.0-139.0"},{"sim_score":7,"rt":2981,"stimulus":"[\"img/0758/d540bee6-b460-4c32-ac57-bc282742d7d4.jpg\",\"img/0864/efcfbb1b-8197-44c9-b723-40d6c608dd3c.jpg\"]","trial_type":"similarity","trial_index":146,"time_elapsed":982526,"internal_node_id":"0.0-6.0-140.0"},{"sim_score":7,"rt":3370,"stimulus":"[\"img/0867/7d1c497b-c1b3-4ed8-abb5-d7f73306015f.jpg\",\"img/0867/12264664-1860-46df-8c21-162b9817cdda.jpg\"]","trial_type":"similarity","trial_index":147,"time_elapsed":986898,"internal_node_id":"0.0-6.0-141.0"},{"sim_score":7,"rt":3185,"stimulus":"[\"img/0898/c3cecf20-f7fd-45fa-97d0-dc0a63e8d6c0.jpg\",\"img/0898/5f699581-3853-4547-856c-12f419ba5af7.jpg\"]","trial_type":"similarity","trial_index":148,"time_elapsed":991088,"internal_node_id":"0.0-6.0-142.0"},{"sim_score":2,"rt":4687,"stimulus":"[\"img/0866/9b38d691-1802-4959-ab3f-fc902f0e4ea6.jpg\",\"img/0769/aad494cc-674d-4a08-9bfa-24a88ebe3c79.jpg\"]","trial_type":"similarity","trial_index":149,"time_elapsed":996779,"internal_node_id":"0.0-6.0-143.0"},{"sim_score":6,"rt":3774,"stimulus":"[\"img/0860/31ff6436-98bf-4652-bed2-40f627229568.jpg\",\"img/0898/26c41340-15bd-4ead-8fe4-c0d0ddca09c2.jpg\"]","trial_type":"similarity","trial_index":150,"time_elapsed":1001557,"internal_node_id":"0.0-6.0-144.0"},{"sim_score":6,"rt":4383,"stimulus":"[\"img/0766/75c3d627-4f3b-40d5-9d9c-10c8a62db644.jpg\",\"img/0864/1d15626a-2f7c-410f-819c-0fa2c967e95e.jpg\"]","trial_type":"similarity","trial_index":151,"time_elapsed":1006943,"internal_node_id":"0.0-6.0-145.0"},{"sim_score":7,"rt":3847,"stimulus":"[\"img/0860/5bff793e-cbd5-4d7e-b628-0ac2b0e30b64.jpg\",\"img/0903/b0df4094-a3be-4b5b-81bd-8d260f13f61b.jpg\"]","trial_type":"similarity","trial_index":152,"time_elapsed":1011795,"internal_node_id":"0.0-6.0-146.0"},{"sim_score":6,"rt":3129,"stimulus":"[\"img/0867/a498eef3-9fa4-4ab2-9778-4ae82ac40dc5.jpg\",\"img/0764/fb7d4a20-a475-465e-a74f-aa39a0d33d16.jpg\"]","trial_type":"similarity","trial_index":153,"time_elapsed":1015929,"internal_node_id":"0.0-6.0-147.0"},{"sim_score":4,"rt":552,"stimulus":"[\"img/0769/878531fd-e0e8-4ad1-b9ad-f018bb104ca0.jpg\",\"img/0904/60d1a521-edf7-4696-9263-f21ac0e62a01.jpg\"]","trial_type":"similarity","trial_index":154,"time_elapsed":1017484,"internal_node_id":"0.0-6.0-148.0"},{"sim_score":3,"rt":5898,"stimulus":"[\"img/0764/f64dfa83-333d-494c-87b5-73e942f1766e.jpg\",\"img/0901/77087ed2-6e12-4329-b2a5-605bca6d972d.jpg\"]","trial_type":"similarity","trial_index":155,"time_elapsed":1024386,"internal_node_id":"0.0-6.0-149.0"},{"sim_score":5,"rt":4417,"stimulus":"[\"img/0904/a8c3c7d2-9bcf-4347-9e03-8203adfc1fc5.jpg\",\"img/0899/ddf96ade-692e-4602-bd22-dedbb46401bc.jpg\"]","trial_type":"similarity","trial_index":156,"time_elapsed":1029808,"internal_node_id":"0.0-6.0-150.0"},{"sim_score":1,"rt":6200,"stimulus":"[\"img/0862/57b6f83f-c763-4858-830d-102f97bfefbf.jpg\",\"img/0867/179ab87a-8eac-4c52-a41f-2e48e3120f09.jpg\"]","trial_type":"similarity","trial_index":157,"time_elapsed":1037010,"internal_node_id":"0.0-6.0-151.0"},{"sim_score":6,"rt":5858,"stimulus":"[\"img/0766/09f646c8-a69e-4ed3-879c-8d29b04ad7f9.jpg\",\"img/0766/51d3aab4-3d09-4dda-b99d-3dc7aaabc6f2.jpg\"]","trial_type":"similarity","trial_index":158,"time_elapsed":1043872,"internal_node_id":"0.0-6.0-152.0"},{"sim_score":2,"rt":4134,"stimulus":"[\"img/0862/e697469a-ec19-4414-b972-7b9f3564785b.jpg\",\"img/0894/3664e04c-c6d3-4c9b-afb6-25d89974b174.jpg\"]","trial_type":"similarity","trial_index":159,"time_elapsed":1049011,"internal_node_id":"0.0-6.0-153.0"},{"sim_score":5,"rt":5369,"stimulus":"[\"img/0899/ad8268c5-8199-48d0-ad70-c5b6d6c599ec.jpg\",\"img/0901/548d1110-7cb8-42a2-9927-9798875c8b5c.jpg\"]","trial_type":"similarity","trial_index":160,"time_elapsed":1055384,"internal_node_id":"0.0-6.0-154.0"},{"sim_score":5,"rt":4006,"stimulus":"[\"img/0874/3f471690-9788-4d03-90c7-f615aecef149.jpg\",\"img/0874/99f6563c-8a8d-4c1c-a41d-667b618c3fd5.jpg\"]","trial_type":"similarity","trial_index":161,"time_elapsed":1060393,"internal_node_id":"0.0-6.0-155.0"},{"sim_score":1,"rt":3733,"stimulus":"[\"img/0860/4a022222-056d-461c-ab02-39fac9647552.jpg\",\"img/0867/f26f6b60-f772-4f4c-95a4-addc62cfd692.jpg\"]","trial_type":"similarity","trial_index":162,"time_elapsed":1065130,"internal_node_id":"0.0-6.0-156.0"},{"sim_score":7,"rt":4090,"stimulus":"[\"img/0901/f469cb1d-6d81-4a45-bab5-cd0b650c2b4f.jpg\",\"img/0881/344de456-b358-4887-bd0e-e4c3278af887.jpg\"]","trial_type":"similarity","trial_index":163,"time_elapsed":1070225,"internal_node_id":"0.0-6.0-157.0"},{"sim_score":7,"rt":2780,"stimulus":"[\"img/0903/43ffd882-077a-40dd-a264-e58d519420a1.jpg\",\"img/0902/c920f0e1-1c81-480f-a164-c77f2dc6ce9a.jpg\"]","trial_type":"similarity","trial_index":164,"time_elapsed":1074009,"internal_node_id":"0.0-6.0-158.0"},{"sim_score":6,"rt":3641,"stimulus":"[\"img/0860/8fdba999-b946-4c7d-9891-336018b563ef.jpg\",\"img/0764/b8e23f4f-ff19-4472-ad9b-2f85548ebca0.jpg\"]","trial_type":"similarity","trial_index":165,"time_elapsed":1078654,"internal_node_id":"0.0-6.0-159.0"},{"sim_score":6,"rt":3082,"stimulus":"[\"img/0902/1f4a4c62-68c1-4993-b213-05652a173ed1.jpg\",\"img/0875/5a1e5100-0d94-4fec-bbe9-ca9894d2cf8e.jpg\"]","trial_type":"similarity","trial_index":166,"time_elapsed":1082739,"internal_node_id":"0.0-6.0-160.0"},{"sim_score":6,"rt":5213,"stimulus":"[\"img/0898/cd3aaa3f-efa9-4ab3-8d6f-a6a9273ddf42.jpg\",\"img/0862/00c06b00-3b73-44e9-bc1e-c5aafb438321.jpg\"]","trial_type":"similarity","trial_index":167,"time_elapsed":1088959,"internal_node_id":"0.0-6.0-161.0"},{"sim_score":6,"rt":4140,"stimulus":"[\"img/0894/6aa5545f-fa7d-4286-bbaa-aaf34dc7ec96.jpg\",\"img/0875/8521fd58-3b1e-4dc5-97ae-804edfa6734a.jpg\"]","trial_type":"similarity","trial_index":168,"time_elapsed":1094103,"internal_node_id":"0.0-6.0-162.0"},{"sim_score":1,"rt":4029,"stimulus":"[\"img/0866/d493a2c8-66eb-44b4-be02-2f327b700b7c.jpg\",\"img/0864/300bb811-8b3c-4c42-8653-6097c3725197.jpg\"]","trial_type":"similarity","trial_index":169,"time_elapsed":1099136,"internal_node_id":"0.0-6.0-163.0"},{"sim_score":3,"rt":4383,"stimulus":"[\"img/0766/5d6e0d1d-4369-41f0-a64c-91f3503055c7.jpg\",\"img/0862/f43ceabf-acc1-4107-b857-5d1849808f93.jpg\"]","trial_type":"similarity","trial_index":170,"time_elapsed":1104524,"internal_node_id":"0.0-6.0-164.0"},{"sim_score":2,"rt":4834,"stimulus":"[\"img/0866/02f5e6b9-52b7-448c-9708-5b460d0c9a23.jpg\",\"img/0874/adf9a8f1-c40b-402b-b95b-1e85a54a7b62.jpg\"]","trial_type":"similarity","trial_index":171,"time_elapsed":1110362,"internal_node_id":"0.0-6.0-165.0"},{"sim_score":7,"rt":4543,"stimulus":"[\"img/0862/24cdc752-c2e5-4a17-86a6-6f2045d8553b.jpg\",\"img/0860/fd4662f9-4c03-4d79-8593-06735e55a64b.jpg\"]","trial_type":"similarity","trial_index":172,"time_elapsed":1115909,"internal_node_id":"0.0-6.0-166.0"},{"sim_score":2,"rt":4481,"stimulus":"[\"img/0766/989c5c7f-1aff-4442-ac63-9d46acf4a891.jpg\",\"img/0901/bc47e078-bda4-40ed-b89a-bbd819164b95.jpg\"]","trial_type":"similarity","trial_index":173,"time_elapsed":1132264,"internal_node_id":"0.0-6.0-167.0"},{"sim_score":7,"rt":3246,"stimulus":"[\"img/0862/e0f1a4e9-e1b6-45f7-af67-89f334e6630d.jpg\",\"img/0862/5d887e9f-89e2-4ebc-80a0-6d46fe6480db.jpg\"]","trial_type":"similarity","trial_index":174,"time_elapsed":1136516,"internal_node_id":"0.0-6.0-168.0"},{"sim_score":6,"rt":3918,"stimulus":"[\"img/0894/e5edf723-72a5-4673-8441-6c1734a8929b.jpg\",\"img/0764/5d83b9db-3b2b-4dc8-9bd1-2b515b19c858.jpg\"]","trial_type":"similarity","trial_index":175,"time_elapsed":1141438,"internal_node_id":"0.0-6.0-169.0"},{"sim_score":5,"rt":2874,"stimulus":"[\"img/0874/a82926a3-0b43-4add-803c-d5f9ea7798ee.jpg\",\"img/0898/4184e5a2-84ea-4f36-9b42-ae58646f6f87.jpg\"]","trial_type":"similarity","trial_index":176,"time_elapsed":1145315,"internal_node_id":"0.0-6.0-170.0"},{"sim_score":4,"rt":4184,"stimulus":"[\"img/0860/71e1aad0-2cdf-43bb-94a4-a8c016997c30.jpg\",\"img/0766/1865bfc9-2410-4765-a804-3ae4ba2393d0.jpg\"]","trial_type":"similarity","trial_index":177,"time_elapsed":1150502,"internal_node_id":"0.0-6.0-171.0"},{"sim_score":5,"rt":3728,"stimulus":"[\"img/0898/8605a25b-6895-476d-8c13-df7a83f96093.jpg\",\"img/0864/ef9cbca0-4be8-435d-ad49-977259e80409.jpg\"]","trial_type":"similarity","trial_index":178,"time_elapsed":1155234,"internal_node_id":"0.0-6.0-172.0"},{"sim_score":7,"rt":3863,"stimulus":"[\"img/0881/db77fe00-aeb0-4d1d-aa66-f3a96fd077e4.jpg\",\"img/0764/952d7adc-dc40-4aee-acce-18c2a1d02ea1.jpg\"]","trial_type":"similarity","trial_index":179,"time_elapsed":1160101,"internal_node_id":"0.0-6.0-173.0"},{"sim_score":1,"rt":3597,"stimulus":"[\"img/0898/a8f16b02-e19f-423b-86c3-a36562ae1f9b.jpg\",\"img/0868/3a62db2d-97e9-44a3-b8e3-a48c6f0e423b.jpg\"]","trial_type":"similarity","trial_index":180,"time_elapsed":1164701,"internal_node_id":"0.0-6.0-174.0"},{"sim_score":7,"rt":2844,"stimulus":"[\"img/0864/f92649a2-0590-4d31-9a7a-1bfb81666a2d.jpg\",\"img/0864/5f74a653-3bdc-4308-8cca-ac667dc22e1f.jpg\"]","trial_type":"similarity","trial_index":181,"time_elapsed":1168549,"internal_node_id":"0.0-6.0-175.0"},{"sim_score":3,"rt":4662,"stimulus":"[\"img/0899/1b3457ea-87d4-4946-a01c-aac1863ed46c.jpg\",\"img/0862/847e5208-38ec-4f36-949c-296cdd7424ee.jpg\"]","trial_type":"similarity","trial_index":182,"time_elapsed":1174215,"internal_node_id":"0.0-6.0-176.0"},{"sim_score":2,"rt":5879,"stimulus":"[\"img/0875/5a7c4e35-6514-4e12-8879-d16071da4cd6.jpg\",\"img/0758/f61ecdf8-a7d4-4db0-b84d-be46f7cfaffc.jpg\"]","trial_type":"similarity","trial_index":183,"time_elapsed":1181098,"internal_node_id":"0.0-6.0-177.0"},{"sim_score":1,"rt":3340,"stimulus":"[\"img/0866/0207e9a2-7dbb-40b5-9459-b472aaeceb2a.jpg\",\"img/0901/a0d65c84-3f20-476a-92d1-0c01e8019cf4.jpg\"]","trial_type":"similarity","trial_index":184,"time_elapsed":1185443,"internal_node_id":"0.0-6.0-178.0"},{"sim_score":5,"rt":3458,"stimulus":"[\"img/0769/ebef2ddc-ba59-4e0e-97f8-927864eb5081.jpg\",\"img/0874/31e22c7c-99aa-40b1-bf03-dd73fa2df4d6.jpg\"]","trial_type":"similarity","trial_index":185,"time_elapsed":1189905,"internal_node_id":"0.0-6.0-179.0"},{"sim_score":6,"rt":5388,"stimulus":"[\"img/0875/a4935837-7d3c-4df6-88c1-36a94d4991ca.jpg\",\"img/0881/62a64f90-7a72-4aee-a1a1-0c548ac9bdda.jpg\"]","trial_type":"similarity","trial_index":186,"time_elapsed":1196297,"internal_node_id":"0.0-6.0-180.0"},{"sim_score":7,"rt":4974,"stimulus":"[\"img/0866/4a87911a-d5be-4d4e-ab8e-3d1f581bf507.jpg\",\"img/0868/4e626425-63c8-484a-8a1d-e66ee4e0bef8.jpg\"]","trial_type":"similarity","trial_index":187,"time_elapsed":1202276,"internal_node_id":"0.0-6.0-181.0"},{"sim_score":6,"rt":5942,"stimulus":"[\"img/0899/0433d056-aa30-4f8a-9aa1-abbb951e4edd.jpg\",\"img/0758/6e95579b-5166-487c-b8cb-e417c6a218e3.jpg\"]","trial_type":"similarity","trial_index":188,"time_elapsed":1209223,"internal_node_id":"0.0-6.0-182.0"},{"sim_score":5,"rt":3515,"stimulus":"[\"img/0874/7e4f2150-3b59-4a36-b5da-a4e0ba410531.jpg\",\"img/0875/f87b67d7-c33e-40d1-b281-248c4be1cb6e.jpg\"]","trial_type":"similarity","trial_index":189,"time_elapsed":1213741,"internal_node_id":"0.0-6.0-183.0"},{"sim_score":3,"rt":3378,"stimulus":"[\"img/0904/4d7d70a3-9477-4921-bda0-f9531d0a5c5b.jpg\",\"img/0862/ba89835a-408c-480b-8594-ed4ffa97eb5c.jpg\"]","trial_type":"similarity","trial_index":190,"time_elapsed":1218124,"internal_node_id":"0.0-6.0-184.0"},{"sim_score":5,"rt":3162,"stimulus":"[\"img/0902/cdec1bc6-7f90-4f72-9e01-f5a4111bac1d.jpg\",\"img/0766/d512b99c-a2dc-40d7-8e86-827323a0cbcf.jpg\"]","trial_type":"similarity","trial_index":191,"time_elapsed":1222291,"internal_node_id":"0.0-6.0-185.0"},{"sim_score":5,"rt":4179,"stimulus":"[\"img/0758/caa93da2-9edf-49fa-96b9-32dedd8f5078.jpg\",\"img/0769/75f7e514-0548-4329-b1e4-93c05e74f038.jpg\"]","trial_type":"similarity","trial_index":192,"time_elapsed":1227475,"internal_node_id":"0.0-6.0-186.0"},{"sim_score":5,"rt":3427,"stimulus":"[\"img/0881/4da99fdd-1f40-4bbb-8e21-8833eef313f5.jpg\",\"img/0881/0c7068da-d0d9-4103-bda1-74ef7a2b32c3.jpg\"]","trial_type":"similarity","trial_index":193,"time_elapsed":1231904,"internal_node_id":"0.0-6.0-187.0"},{"sim_score":1,"rt":4970,"stimulus":"[\"img/0758/a709631e-3705-4725-ac40-f0d916924f08.jpg\",\"img/0866/8efcaa46-83ab-4dee-a35f-850402aa21ae.jpg\"]","trial_type":"similarity","trial_index":194,"time_elapsed":1237878,"internal_node_id":"0.0-6.0-188.0"},{"sim_score":4,"rt":4615,"stimulus":"[\"img/0764/da207710-e7e4-4f42-b2e6-99b5f357f433.jpg\",\"img/0898/82231d4c-218b-4d0a-b50d-35a49b524e97.jpg\"]","trial_type":"similarity","trial_index":195,"time_elapsed":1243497,"internal_node_id":"0.0-6.0-189.0"},{"sim_score":5,"rt":5214,"stimulus":"[\"img/0903/f1fa0f8d-e62b-4b4a-a174-31a0fabfe61b.jpg\",\"img/0901/5b97abf9-f0c8-4fd1-b921-36d574779078.jpg\"]","trial_type":"similarity","trial_index":196,"time_elapsed":1249715,"internal_node_id":"0.0-6.0-190.0"},{"sim_score":5,"rt":3799,"stimulus":"[\"img/0902/07437a16-3d0f-4a5c-89ec-36d0efa4b3b8.jpg\",\"img/0898/e167334e-cc1d-4986-b3b1-c7bc7da64baa.jpg\"]","trial_type":"similarity","trial_index":197,"time_elapsed":1254517,"internal_node_id":"0.0-6.0-191.0"},{"sim_score":3,"rt":5632,"stimulus":"[\"img/0864/8ddd2e30-a1d0-479f-9cbe-591213023893.jpg\",\"img/0901/3db47171-0139-4235-82cd-0b1787b6775f.jpg\"]","trial_type":"similarity","trial_index":198,"time_elapsed":1261153,"internal_node_id":"0.0-6.0-192.0"},{"sim_score":6,"rt":5996,"stimulus":"[\"img/0894/76c1201f-8524-4865-85e6-dda8cb4ac986.jpg\",\"img/0881/e046471a-35b4-4159-bbf7-3cfd201bef66.jpg\"]","trial_type":"similarity","trial_index":199,"time_elapsed":1268153,"internal_node_id":"0.0-6.0-193.0"},{"sim_score":7,"rt":7428,"stimulus":"[\"img/0868/fd307a36-9a3a-47d7-ab7c-f810d0b35040.jpg\",\"img/0868/e0aff734-077f-40dd-9781-74821abd3621.jpg\"]","trial_type":"similarity","trial_index":200,"time_elapsed":1276586,"internal_node_id":"0.0-6.0-194.0"},{"sim_score":7,"rt":3611,"stimulus":"[\"img/0899/8de08897-b430-42fe-9d42-840670b80f94.jpg\",\"img/0764/f713847b-4832-42d1-8fb3-e17e37fd745c.jpg\"]","trial_type":"similarity","trial_index":201,"time_elapsed":1281201,"internal_node_id":"0.0-6.0-195.0"},{"sim_score":6,"rt":3289,"stimulus":"[\"img/0881/445edb15-bd7f-4af3-8bd5-c6ad9677bb31.jpg\",\"img/0904/65e2b70a-b184-4da3-b5c0-5038bdf9469a.jpg\"]","trial_type":"similarity","trial_index":202,"time_elapsed":1285494,"internal_node_id":"0.0-6.0-196.0"},{"sim_score":5,"rt":4654,"stimulus":"[\"img/0864/ea327690-500b-4137-bf91-451b309fe6a5.jpg\",\"img/0902/6730b12a-f0a7-4587-8c10-a32fae16565b.jpg\"]","trial_type":"similarity","trial_index":203,"time_elapsed":1291152,"internal_node_id":"0.0-6.0-197.0"},{"sim_score":5,"rt":4093,"stimulus":"[\"img/0894/492d2f29-d7b9-4422-8be8-47fd58bfaa8b.jpg\",\"img/0904/09934646-45d2-4147-8fec-64a22a5ac822.jpg\"]","trial_type":"similarity","trial_index":204,"time_elapsed":1296247,"internal_node_id":"0.0-6.0-198.0"},{"sim_score":7,"rt":3928,"stimulus":"[\"img/0901/50e1d53e-a49f-4806-8610-be6dec5a2475.jpg\",\"img/0901/2a953e50-d237-405c-a38d-5ed21494c968.jpg\"]","trial_type":"similarity","trial_index":205,"time_elapsed":1301180,"internal_node_id":"0.0-6.0-199.0"},{"sim_score":2,"rt":3644,"stimulus":"[\"img/0894/0130a973-d993-41f8-874a-fee23d9ac11f.jpg\",\"img/0860/f44ba3fb-03a2-42f0-8509-2c1ded493086.jpg\"]","trial_type":"similarity","trial_index":206,"time_elapsed":1305828,"internal_node_id":"0.0-6.0-200.0"},{"sim_score":6,"rt":3345,"stimulus":"[\"img/0898/01bfe666-3510-4fc7-964f-d00d28732dc8.jpg\",\"img/0903/a0673b55-6040-47fe-9040-24bca27ca3c9.jpg\"]","trial_type":"similarity","trial_index":207,"time_elapsed":1310177,"internal_node_id":"0.0-6.0-201.0"},{"sim_score":3,"rt":3693,"stimulus":"[\"img/0864/e8bd659f-aa43-4748-877e-3118e8b4e189.jpg\",\"img/0894/5c7677b0-a4f1-479e-b274-7822c415175a.jpg\"]","trial_type":"similarity","trial_index":208,"time_elapsed":1314875,"internal_node_id":"0.0-6.0-202.0"},{"sim_score":3,"rt":4307,"stimulus":"[\"img/0874/767f289c-9814-4496-803f-745cc8913d1f.jpg\",\"img/0860/61fb959d-d4d9-4de4-9e4e-4fa62b4cfcd5.jpg\"]","trial_type":"similarity","trial_index":209,"time_elapsed":1320186,"internal_node_id":"0.0-6.0-203.0"},{"sim_score":4,"rt":3897,"stimulus":"[\"img/0862/92f0146c-20c4-482e-aef5-adb693790338.jpg\",\"img/0875/5a716432-c6ca-4b1c-955a-2b8ac25198ee.jpg\"]","trial_type":"similarity","trial_index":210,"time_elapsed":1325088,"internal_node_id":"0.0-6.0-204.0"},{"sim_score":5,"rt":3077,"stimulus":"[\"img/0867/cc72ed48-7704-422c-86d6-467a1145287a.jpg\",\"img/0881/33d65d80-8a8e-4ecf-852d-0ad7725c17a2.jpg\"]","trial_type":"similarity","trial_index":211,"time_elapsed":1329168,"internal_node_id":"0.0-6.0-205.0"},{"sim_score":6,"rt":3842,"stimulus":"[\"img/0901/8bb79e82-9c43-4b6f-a655-40655519598b.jpg\",\"img/0902/40d0b6ec-3907-4573-b227-e7d8e9cad1c3.jpg\"]","trial_type":"similarity","trial_index":212,"time_elapsed":1334012,"internal_node_id":"0.0-6.0-206.0"},{"sim_score":6,"rt":2947,"stimulus":"[\"img/0899/b45c550b-96c3-4255-ad59-48a2b4db1c1e.jpg\",\"img/0864/3d4de670-b290-4285-9c3d-12a0e3af44e9.jpg\"]","trial_type":"similarity","trial_index":213,"time_elapsed":1337963,"internal_node_id":"0.0-6.0-207.0"},{"sim_score":3,"rt":4286,"stimulus":"[\"img/0901/7d4a3388-488d-4e9b-9d32-9d0def7aae8d.jpg\",\"img/0769/38a88f69-28fd-4bbd-99f0-f4c02bfd3995.jpg\"]","trial_type":"similarity","trial_index":214,"time_elapsed":1343252,"internal_node_id":"0.0-6.0-208.0"},{"sim_score":5,"rt":3508,"stimulus":"[\"img/0902/01b41522-de46-4c3a-b0af-a61b2682b40e.jpg\",\"img/0902/7f1dcd35-237a-4995-9e42-7f63f3f434d4.jpg\"]","trial_type":"similarity","trial_index":215,"time_elapsed":1353313,"internal_node_id":"0.0-6.0-209.0"},{"view_history":"[{\"page_index\":0,\"viewing_time\":2334}]","rt":2335,"trial_type":"instructions","trial_index":216,"time_elapsed":1356650,"internal_node_id":"0.0-7.0"},{"rt":36910,"responses":"{\"Q0\":\"Orange-crowned Warbler\"}","answer":["Nashville Warbler"],"trial_type":"image-multi-choice","trial_index":217,"time_elapsed":1394571,"internal_node_id":"0.0-8.0-0.0"},{"rt":13284,"responses":"{\"Q0\":\"Black-and-white Warbler\"}","answer":["Black-and-white Warbler"],"trial_type":"image-multi-choice","trial_index":218,"time_elapsed":1408864,"internal_node_id":"0.0-8.0-1.0"},{"rt":54362,"responses":"{\"Q0\":\"Black-and-white Warbler\"}","answer":["Townsend's Warbler"],"trial_type":"image-multi-choice","trial_index":219,"time_elapsed":1464233,"internal_node_id":"0.0-8.0-2.0"},{"rt":9866,"responses":"{\"Q0\":\"White-crowned Sparrow\"}","answer":["Lark Sparrow"],"trial_type":"image-multi-choice","trial_index":220,"time_elapsed":1475108,"internal_node_id":"0.0-8.0-3.0"},{"rt":10945,"responses":"{\"Q0\":\"Yellow Warbler\"}","answer":["Yellow Warbler"],"trial_type":"image-multi-choice","trial_index":221,"time_elapsed":1487061,"internal_node_id":"0.0-8.0-4.0"},{"rt":28766,"responses":"{\"Q0\":\"Nashville Warbler\"}","answer":["Orange-crowned Warbler"],"trial_type":"image-multi-choice","trial_index":222,"time_elapsed":1516838,"internal_node_id":"0.0-8.0-5.0"},{"rt":5721,"responses":"{\"Q0\":\"White-throated Sparrow\"}","answer":["White-throated Sparrow"],"trial_type":"image-multi-choice","trial_index":223,"time_elapsed":1523568,"internal_node_id":"0.0-8.0-6.0"},{"rt":14802,"responses":"{\"Q0\":\"Fox Sparrow\"}","answer":["Fox Sparrow"],"trial_type":"image-multi-choice","trial_index":224,"time_elapsed":1539380,"internal_node_id":"0.0-8.0-7.0"},{"rt":19202,"responses":"{\"Q0\":\"Song Sparrow\"}","answer":["Song Sparrow"],"trial_type":"image-multi-choice","trial_index":225,"time_elapsed":1559590,"internal_node_id":"0.0-8.0-8.0"},{"rt":14561,"responses":"{\"Q0\":\"Townsend's Warbler\"}","answer":["Blackburnian Warbler"],"trial_type":"image-multi-choice","trial_index":226,"time_elapsed":1575160,"internal_node_id":"0.0-8.0-9.0"},{"rt":16036,"responses":"{\"Q0\":\"Lincoln's Sparrow\"}","answer":["Vesper Sparrow"],"trial_type":"image-multi-choice","trial_index":227,"time_elapsed":1592205,"internal_node_id":"0.0-8.0-10.0"},{"rt":10953,"responses":"{\"Q0\":\"White-crowned Sparrow\"}","answer":["White-crowned Sparrow"],"trial_type":"image-multi-choice","trial_index":228,"time_elapsed":1604166,"internal_node_id":"0.0-8.0-11.0"},{"rt":23212,"responses":"{\"Q0\":\"Chipping Sparrow\"}","answer":["American Tree Sparrow"],"trial_type":"image-multi-choice","trial_index":229,"time_elapsed":1628388,"internal_node_id":"0.0-8.0-12.0"},{"rt":6377,"responses":"{\"Q0\":\"Tennessee Warbler\"}","answer":["Tennessee Warbler"],"trial_type":"image-multi-choice","trial_index":230,"time_elapsed":1635774,"internal_node_id":"0.0-8.0-13.0"},{"rt":19777,"responses":"{\"Q0\":\"Blackburnian Warbler\"}","answer":["Magnolia Warbler"],"trial_type":"image-multi-choice","trial_index":231,"time_elapsed":1656559,"internal_node_id":"0.0-8.0-14.0"},{"rt":6635,"responses":"{\"Q0\":\"Northern Waterthrush\"}","answer":["Northern Waterthrush"],"trial_type":"image-multi-choice","trial_index":232,"time_elapsed":1664206,"internal_node_id":"0.0-8.0-15.0"},{"rt":13026,"responses":"{\"Q0\":\"Swamp Sparrow\"}","answer":["Chipping Sparrow"],"trial_type":"image-multi-choice","trial_index":233,"time_elapsed":1678240,"internal_node_id":"0.0-8.0-16.0"},{"rt":15832,"responses":"{\"Q0\":\"Swamp Sparrow\"}","answer":["Swamp Sparrow"],"trial_type":"image-multi-choice","trial_index":234,"time_elapsed":1695081,"internal_node_id":"0.0-8.0-17.0"},{"rt":12495,"responses":"{\"Q0\":\"Vesper Sparrow\"}","answer":["Lincoln's Sparrow"],"trial_type":"image-multi-choice","trial_index":235,"time_elapsed":1708585,"internal_node_id":"0.0-8.0-18.0"},{"rt":6963,"responses":"{\"Q0\":\"Ovenbird\"}","answer":["Ovenbird"],"trial_type":"image-multi-choice","trial_index":236,"time_elapsed":1716557,"internal_node_id":"0.0-8.0-19.0"}]