[{"view_history":"[{\"page_index\":0,\"viewing_time\":13694}]","rt":13698,"trial_type":"instructions","trial_index":0,"time_elapsed":13702,"internal_node_id":"0.0-0.0"},{"sim_score":5,"rt":12321,"stimulus":"[\"img/866.jpg\",\"img/868.jpg\"]","trial_type":"similarity_demo","trial_index":1,"time_elapsed":27374,"internal_node_id":"0.0-1.0"},{"view_history":"[{\"page_index\":0,\"viewing_time\":11412}]","rt":11417,"trial_type":"instructions","trial_index":2,"time_elapsed":40475,"internal_node_id":"0.0-2.0"},{"sim_score":3,"rt":9329,"stimulus":"[\"img/766.jpg\",\"img/867.jpg\"]","trial_type":"similarity_demo","trial_index":3,"time_elapsed":51133,"internal_node_id":"0.0-3.0"},{"view_history":"[{\"page_index\":0,\"viewing_time\":7147}]","rt":7148,"trial_type":"instructions","trial_index":4,"time_elapsed":59906,"internal_node_id":"0.0-4.0"},{"view_history":"[{\"page_index\":0,\"viewing_time\":15395}]","rt":15398,"trial_type":"instructions","trial_index":5,"time_elapsed":77144,"internal_node_id":"0.0-5.0"},{"sim_score":1,"rt":7376,"stimulus":"[\"img/0868/8b0b8473-e2c0-4331-aa56-c3a5c29369da.jpg\",\"img/0901/33b51a81-06d9-46d9-9d4f-5a2d6d6b8058.jpg\"]","trial_type":"similarity","trial_index":6,"time_elapsed":86103,"internal_node_id":"0.0-6.0-0.0"},{"sim_score":1,"rt":9447,"stimulus":"[\"img/0769/057eb0a0-aa5b-40c7-9852-21444f68d767.jpg\",\"img/0867/a498eef3-9fa4-4ab2-9778-4ae82ac40dc5.jpg\"]","trial_type":"similarity","trial_index":7,"time_elapsed":97457,"internal_node_id":"0.0-6.0-1.0"},{"sim_score":5,"rt":5935,"stimulus":"[\"img/0766/33519c22-aaa4-49d7-8d49-ab551db1945e.jpg\",\"img/0898/08c72dac-f8ad-407a-9ce6-8c9a5d679c3a.jpg\"]","trial_type":"similarity","trial_index":8,"time_elapsed":105307,"internal_node_id":"0.0-6.0-2.0"},{"sim_score":5,"rt":5691,"stimulus":"[\"img/0902/c9c74d2d-9b82-42d7-a9d0-3b8ff67ff81e.jpg\",\"img/0881/4da99fdd-1f40-4bbb-8e21-8833eef313f5.jpg\"]","trial_type":"similarity","trial_index":9,"time_elapsed":112641,"internal_node_id":"0.0-6.0-3.0"},{"sim_score":7,"rt":7554,"stimulus":"[\"img/0894/76c1201f-8524-4865-85e6-dda8cb4ac986.jpg\",\"img/0894/3664e04c-c6d3-4c9b-afb6-25d89974b174.jpg\"]","trial_type":"similarity","trial_index":10,"time_elapsed":122059,"internal_node_id":"0.0-6.0-4.0"},{"sim_score":5,"rt":5672,"stimulus":"[\"img/0874/ca23d307-fc00-4d7d-9106-584c6eb21b4d.jpg\",\"img/0899/f58b8d2f-b19d-4b59-8b94-8834be92e4ba.jpg\"]","trial_type":"similarity","trial_index":11,"time_elapsed":129597,"internal_node_id":"0.0-6.0-5.0"},{"sim_score":5,"rt":5636,"stimulus":"[\"img/0904/5aec2708-cf14-4a58-aa30-9a8a61c1be0e.jpg\",\"img/0764/da207710-e7e4-4f42-b2e6-99b5f357f433.jpg\"]","trial_type":"similarity","trial_index":12,"time_elapsed":137114,"internal_node_id":"0.0-6.0-6.0"},{"sim_score":4,"rt":3732,"stimulus":"[\"img/0899/fd9efb43-701f-4cd6-baaa-4c38315f4bdc.jpg\",\"img/0898/40f99fb2-64d2-4e72-8a7f-a1cf60741e69.jpg\"]","trial_type":"similarity","trial_index":13,"time_elapsed":142772,"internal_node_id":"0.0-6.0-7.0"},{"sim_score":2,"rt":5792,"stimulus":"[\"img/0874/1016b306-087c-4afc-aa08-fa527b28dc76.jpg\",\"img/0903/6a87dbad-9b8d-4ff5-9c41-03c9aa24f0c3.jpg\"]","trial_type":"similarity","trial_index":14,"time_elapsed":150471,"internal_node_id":"0.0-6.0-8.0"},{"sim_score":6,"rt":7673,"stimulus":"[\"img/0881/c24f3051-eefa-42de-aba6-fccb56d93c70.jpg\",\"img/0758/e1ba5e53-addc-436a-b428-d34fc1b130dc.jpg\"]","trial_type":"similarity","trial_index":15,"time_elapsed":159884,"internal_node_id":"0.0-6.0-9.0"},{"sim_score":6,"rt":5641,"stimulus":"[\"img/0898/68476bbb-34a1-42d9-8bc1-deab783d4489.jpg\",\"img/0901/ae1e6ce4-2e10-4ca9-b1e7-21628637ab74.jpg\"]","trial_type":"similarity","trial_index":16,"time_elapsed":167136,"internal_node_id":"0.0-6.0-10.0"},{"sim_score":6,"rt":7542,"stimulus":"[\"img/0903/72197c2b-403e-4a26-b391-f1aa8dea4b76.jpg\",\"img/0769/f73c5138-2f4c-4354-981c-129dff9cc734.jpg\"]","trial_type":"similarity","trial_index":17,"time_elapsed":176587,"internal_node_id":"0.0-6.0-11.0"},{"sim_score":1,"rt":5731,"stimulus":"[\"img/0764/438c0217-036f-43c9-9b87-f43144e46011.jpg\",\"img/0868/e0aff734-077f-40dd-9781-74821abd3621.jpg\"]","trial_type":"similarity","trial_index":18,"time_elapsed":184263,"internal_node_id":"0.0-6.0-12.0"},{"sim_score":2,"rt":5637,"stimulus":"[\"img/0867/de92135f-5b65-4ed9-b245-188292c7c2f8.jpg\",\"img/0903/470acfd5-5571-4a7b-b3a4-28d87e098138.jpg\"]","trial_type":"similarity","trial_index":19,"time_elapsed":191801,"internal_node_id":"0.0-6.0-13.0"},{"sim_score":3,"rt":5636,"stimulus":"[\"img/0766/a1ed3f0f-e338-4a26-8fe4-4370f0c9fa6e.jpg\",\"img/0758/7fba58df-2a7a-4b76-8a8f-62739f97f271.jpg\"]","trial_type":"similarity","trial_index":20,"time_elapsed":199378,"internal_node_id":"0.0-6.0-14.0"},{"sim_score":5,"rt":5648,"stimulus":"[\"img/0902/95a36b6b-9601-4fa5-8fd9-606ea62f9425.jpg\",\"img/0860/e14d67c1-6d92-4f1e-9257-c8607159c19c.jpg\"]","trial_type":"similarity","trial_index":21,"time_elapsed":206904,"internal_node_id":"0.0-6.0-15.0"},{"sim_score":4,"rt":3687,"stimulus":"[\"img/0769/75f7e514-0548-4329-b1e4-93c05e74f038.jpg\",\"img/0875/5a1e5100-0d94-4fec-bbe9-ca9894d2cf8e.jpg\"]","trial_type":"similarity","trial_index":22,"time_elapsed":212467,"internal_node_id":"0.0-6.0-16.0"},{"sim_score":3,"rt":6611,"stimulus":"[\"img/0904/1d10df11-b5c8-4370-9a6b-097a7f965895.jpg\",\"img/0866/d266fece-59b3-46fa-b69f-96f6efb81b59.jpg\"]","trial_type":"similarity","trial_index":23,"time_elapsed":220977,"internal_node_id":"0.0-6.0-17.0"},{"sim_score":7,"rt":5614,"stimulus":"[\"img/0875/99698b4d-b4a1-44bc-8c83-8ea755bbbf61.jpg\",\"img/0875/3ecb367d-e9eb-4826-8aaa-7aa72fb98019.jpg\"]","trial_type":"similarity","trial_index":24,"time_elapsed":227677,"internal_node_id":"0.0-6.0-18.0"},{"sim_score":7,"rt":5309,"stimulus":"[\"img/0758/caa93da2-9edf-49fa-96b9-32dedd8f5078.jpg\",\"img/0758/a709631e-3705-4725-ac40-f0d916924f08.jpg\"]","trial_type":"similarity","trial_index":25,"time_elapsed":234531,"internal_node_id":"0.0-6.0-19.0"},{"sim_score":5,"rt":4512,"stimulus":"[\"img/0902/0db94c50-f1fb-4091-953c-29ca0466bee2.jpg\",\"img/0874/eba003b4-cdab-4eee-8bc3-f064c7d94165.jpg\"]","trial_type":"similarity","trial_index":26,"time_elapsed":240818,"internal_node_id":"0.0-6.0-20.0"},{"sim_score":6,"rt":4337,"stimulus":"[\"img/0764/a3226bc4-dcc3-4608-bde8-1414d685ce5c.jpg\",\"img/0769/5bd04f55-d091-4f57-85db-38426f26bd1a.jpg\"]","trial_type":"similarity","trial_index":27,"time_elapsed":246341,"internal_node_id":"0.0-6.0-21.0"},{"sim_score":3,"rt":7334,"stimulus":"[\"img/0901/b13fa50f-dbe0-4d0f-8647-6ac0fd8f40bd.jpg\",\"img/0874/a3bc679d-619f-4db6-bb68-116dcb757d9c.jpg\"]","trial_type":"similarity","trial_index":28,"time_elapsed":254949,"internal_node_id":"0.0-6.0-22.0"},{"sim_score":4,"rt":3695,"stimulus":"[\"img/0875/90da8d75-108a-44ad-b999-e21fee3860d3.jpg\",\"img/0903/45e2d600-57ff-4d69-b22c-0c7896cd38f0.jpg\"]","trial_type":"similarity","trial_index":29,"time_elapsed":260521,"internal_node_id":"0.0-6.0-23.0"},{"sim_score":5,"rt":5707,"stimulus":"[\"img/0769/1d8734c4-77ab-4165-9e71-5cfe672ff01c.jpg\",\"img/0881/e6746727-7f89-47ec-b939-d98abe78372d.jpg\"]","trial_type":"similarity","trial_index":30,"time_elapsed":268122,"internal_node_id":"0.0-6.0-24.0"},{"sim_score":2,"rt":5377,"stimulus":"[\"img/0867/179ab87a-8eac-4c52-a41f-2e48e3120f09.jpg\",\"img/0904/6291eb43-c10c-4810-a36a-101d09868b04.jpg\"]","trial_type":"similarity","trial_index":31,"time_elapsed":275387,"internal_node_id":"0.0-6.0-25.0"},{"sim_score":3,"rt":4787,"stimulus":"[\"img/0860/c3379ff7-0763-48fe-a1ec-7ea3d611bc7a.jpg\",\"img/0881/f037e3b0-09cb-4a83-b2d9-6a71fe474e63.jpg\"]","trial_type":"similarity","trial_index":32,"time_elapsed":281983,"internal_node_id":"0.0-6.0-26.0"},{"sim_score":6,"rt":7242,"stimulus":"[\"img/0866/11a1d141-be5e-443c-98c1-a9d4d9e3dec0.jpg\",\"img/0866/d493a2c8-66eb-44b4-be02-2f327b700b7c.jpg\"]","trial_type":"similarity","trial_index":33,"time_elapsed":290370,"internal_node_id":"0.0-6.0-27.0"},{"sim_score":5,"rt":5375,"stimulus":"[\"img/0764/cbdc4f20-3a9a-4211-9b40-090699e0abcc.jpg\",\"img/0862/f43ceabf-acc1-4107-b857-5d1849808f93.jpg\"]","trial_type":"similarity","trial_index":34,"time_elapsed":297550,"internal_node_id":"0.0-6.0-28.0"},{"sim_score":4,"rt":3810,"stimulus":"[\"img/0904/63dd06dd-dccb-47ba-9740-eb33239e18a7.jpg\",\"img/0758/f61ecdf8-a7d4-4db0-b84d-be46f7cfaffc.jpg\"]","trial_type":"similarity","trial_index":35,"time_elapsed":303176,"internal_node_id":"0.0-6.0-29.0"},{"sim_score":6,"rt":5432,"stimulus":"[\"img/0894/133a1636-d123-4893-873c-1718050f832a.jpg\",\"img/0899/8abe6c69-822c-436c-9bf2-96c818b49ba5.jpg\"]","trial_type":"similarity","trial_index":36,"time_elapsed":311108,"internal_node_id":"0.0-6.0-30.0"},{"sim_score":5,"rt":5748,"stimulus":"[\"img/0860/fd4662f9-4c03-4d79-8593-06735e55a64b.jpg\",\"img/0904/96e503ea-6630-4996-85f2-0237688ce441.jpg\"]","trial_type":"similarity","trial_index":37,"time_elapsed":317968,"internal_node_id":"0.0-6.0-31.0"},{"sim_score":6,"rt":6413,"stimulus":"[\"img/0874/31e22c7c-99aa-40b1-bf03-dd73fa2df4d6.jpg\",\"img/0881/7e31e5dc-2240-4b1b-b5a0-3acd980099ef.jpg\"]","trial_type":"similarity","trial_index":38,"time_elapsed":326018,"internal_node_id":"0.0-6.0-32.0"},{"sim_score":5,"rt":5349,"stimulus":"[\"img/0881/ee44e27f-d662-4608-b265-e7ffa19b216f.jpg\",\"img/0899/a048912c-b12c-40e3-90af-46b69b0cc4fe.jpg\"]","trial_type":"similarity","trial_index":39,"time_elapsed":332426,"internal_node_id":"0.0-6.0-33.0"},{"sim_score":1,"rt":5430,"stimulus":"[\"img/0866/9b38d691-1802-4959-ab3f-fc902f0e4ea6.jpg\",\"img/0862/f23038d4-c366-4f70-979f-66b62362efa4.jpg\"]","trial_type":"similarity","trial_index":40,"time_elapsed":339671,"internal_node_id":"0.0-6.0-34.0"},{"sim_score":2,"rt":5434,"stimulus":"[\"img/0868/83b4350a-3b70-4cea-b7f5-b5b56f3050a8.jpg\",\"img/0894/151063aa-6472-4745-837b-36603aba5966.jpg\"]","trial_type":"similarity","trial_index":41,"time_elapsed":346959,"internal_node_id":"0.0-6.0-35.0"},{"sim_score":7,"rt":5613,"stimulus":"[\"img/0860/4a022222-056d-461c-ab02-39fac9647552.jpg\",\"img/0860/17b44a7d-c5ca-479f-9e87-f65a64f5c80e.jpg\"]","trial_type":"similarity","trial_index":42,"time_elapsed":354388,"internal_node_id":"0.0-6.0-36.0"},{"sim_score":5,"rt":5482,"stimulus":"[\"img/0862/e697469a-ec19-4414-b972-7b9f3564785b.jpg\",\"img/0864/a248adb3-c70b-4652-b7a3-776d2a1e904b.jpg\"]","trial_type":"similarity","trial_index":43,"time_elapsed":361579,"internal_node_id":"0.0-6.0-37.0"},{"sim_score":4,"rt":3645,"stimulus":"[\"img/0766/60033a74-9919-47e5-913c-71d0d483e7e5.jpg\",\"img/0866/0207e9a2-7dbb-40b5-9459-b472aaeceb2a.jpg\"]","trial_type":"similarity","trial_index":44,"time_elapsed":367047,"internal_node_id":"0.0-6.0-38.0"},{"sim_score":5,"rt":5513,"stimulus":"[\"img/0875/cff79b3a-a797-4393-9757-6275f999ec04.jpg\",\"img/0898/81b08535-2020-4c15-9ce4-2f1e460755ae.jpg\"]","trial_type":"similarity","trial_index":45,"time_elapsed":374346,"internal_node_id":"0.0-6.0-39.0"},{"sim_score":6,"rt":5460,"stimulus":"[\"img/0766/69e486f7-dbef-456b-9d48-53d814248a28.jpg\",\"img/0769/878531fd-e0e8-4ad1-b9ad-f018bb104ca0.jpg\"]","trial_type":"similarity","trial_index":46,"time_elapsed":381617,"internal_node_id":"0.0-6.0-40.0"},{"sim_score":3,"rt":5430,"stimulus":"[\"img/0874/8cdb1c07-1c32-46d2-981c-3636560fa6e5.jpg\",\"img/0764/974d52cc-6318-4e7a-b294-2f3e92ff800f.jpg\"]","trial_type":"similarity","trial_index":47,"time_elapsed":402354,"internal_node_id":"0.0-6.0-41.0"},{"sim_score":1,"rt":3939,"stimulus":"[\"img/0868/fd307a36-9a3a-47d7-ab7c-f810d0b35040.jpg\",\"img/0902/01b41522-de46-4c3a-b0af-a61b2682b40e.jpg\"]","trial_type":"similarity","trial_index":48,"time_elapsed":407951,"internal_node_id":"0.0-6.0-42.0"},{"sim_score":3,"rt":5701,"stimulus":"[\"img/0875/34132396-d896-4c2d-8087-646dd867e769.jpg\",\"img/0899/d8f2dd94-570e-4e8c-a087-d96090fb9e8c.jpg\"]","trial_type":"similarity","trial_index":49,"time_elapsed":415357,"internal_node_id":"0.0-6.0-43.0"},{"sim_score":4,"rt":4257,"stimulus":"[\"img/0866/23a224f3-2012-4fc8-8e0f-3c36f8de27fd.jpg\",\"img/0860/99c589b9-9140-4d17-90c0-b344323edcda.jpg\"]","trial_type":"similarity","trial_index":50,"time_elapsed":421173,"internal_node_id":"0.0-6.0-44.0"},{"sim_score":6,"rt":5273,"stimulus":"[\"img/0766/b84598d0-5b41-4841-88b0-b441b48289f5.jpg\",\"img/0903/bf0a7d60-eca5-44b0-bafd-baf21db9904b.jpg\"]","trial_type":"similarity","trial_index":51,"time_elapsed":427708,"internal_node_id":"0.0-6.0-45.0"},{"sim_score":2,"rt":5334,"stimulus":"[\"img/0901/77087ed2-6e12-4329-b2a5-605bca6d972d.jpg\",\"img/0904/24fc38fe-842c-4831-ad8a-b1de5c25c0a8.jpg\"]","trial_type":"similarity","trial_index":52,"time_elapsed":434965,"internal_node_id":"0.0-6.0-46.0"},{"sim_score":5,"rt":5898,"stimulus":"[\"img/0758/67c0be2f-9e91-48b3-8219-70ac0a1802fa.jpg\",\"img/0902/f3cfec34-482c-4bdb-9c92-19ea6cfce183.jpg\"]","trial_type":"similarity","trial_index":53,"time_elapsed":442669,"internal_node_id":"0.0-6.0-47.0"},{"sim_score":7,"rt":5371,"stimulus":"[\"img/0764/55b3fab1-b809-4d38-a461-3f40ce062f52.jpg\",\"img/0764/03c07b98-3f18-4b71-bb70-ecff564a78d1.jpg\"]","trial_type":"similarity","trial_index":54,"time_elapsed":449439,"internal_node_id":"0.0-6.0-48.0"},{"sim_score":2,"rt":7323,"stimulus":"[\"img/0866/a15b02be-11bb-43e3-b0e0-ecc3bd7dfc49.jpg\",\"img/0902/794606a0-d8a8-4e58-8bf8-9d114ed5a548.jpg\"]","trial_type":"similarity","trial_index":55,"time_elapsed":458578,"internal_node_id":"0.0-6.0-49.0"},{"sim_score":5,"rt":7730,"stimulus":"[\"img/0764/c80b3e06-2ee3-4326-9678-340607eb5348.jpg\",\"img/0758/3ddd05d3-557e-4ee7-8b78-9d2d681d8ae2.jpg\"]","trial_type":"similarity","trial_index":56,"time_elapsed":468084,"internal_node_id":"0.0-6.0-50.0"},{"sim_score":6,"rt":9039,"stimulus":"[\"img/0898/b3290bf9-215b-4b45-b21a-65bdf73f142f.jpg\",\"img/0894/792c83e9-a747-4000-bc72-5663d2439edb.jpg\"]","trial_type":"similarity","trial_index":57,"time_elapsed":478851,"internal_node_id":"0.0-6.0-51.0"},{"sim_score":4,"rt":7517,"stimulus":"[\"img/0875/dbdd643e-6d0e-4a5c-ab57-b9c29b9c981a.jpg\",\"img/0866/945c6710-d15b-4a5b-a8f6-69af0850357f.jpg\"]","trial_type":"similarity","trial_index":58,"time_elapsed":488217,"internal_node_id":"0.0-6.0-52.0"},{"sim_score":7,"rt":5638,"stimulus":"[\"img/0904/696ebb60-8891-417a-91fd-c53218907a95.jpg\",\"img/0904/d23dd7be-7fe8-4435-82f7-bd592c01e6a1.jpg\"]","trial_type":"similarity","trial_index":59,"time_elapsed":495631,"internal_node_id":"0.0-6.0-53.0"},{"sim_score":6,"rt":5441,"stimulus":"[\"img/0769/da36e3f7-2337-434f-ab57-11822dd7eed7.jpg\",\"img/0769/8056889f-2b14-4782-bb25-b4e8896ab65b.jpg\"]","trial_type":"similarity","trial_index":60,"time_elapsed":502802,"internal_node_id":"0.0-6.0-54.0"},{"sim_score":2,"rt":5576,"stimulus":"[\"img/0898/4184e5a2-84ea-4f36-9b42-ae58646f6f87.jpg\",\"img/0758/821c68d3-5cb0-4eae-8659-30e6263fca39.jpg\"]","trial_type":"similarity","trial_index":61,"time_elapsed":510253,"internal_node_id":"0.0-6.0-55.0"},{"sim_score":6,"rt":6041,"stimulus":"[\"img/0769/3c1efec9-f8fd-487d-8955-4be88e48c832.jpg\",\"img/0902/e5a46bda-30d1-41ca-b36d-b8529b5a63d1.jpg\"]","trial_type":"similarity","trial_index":62,"time_elapsed":518117,"internal_node_id":"0.0-6.0-56.0"},{"sim_score":6,"rt":7046,"stimulus":"[\"img/0864/87c467d3-abca-482f-ad80-3766c21b1bb3.jpg\",\"img/0881/62a64f90-7a72-4aee-a1a1-0c548ac9bdda.jpg\"]","trial_type":"similarity","trial_index":63,"time_elapsed":526533,"internal_node_id":"0.0-6.0-57.0"},{"sim_score":1,"rt":7237,"stimulus":"[\"img/0758/dd559618-7f09-4a07-8018-d311c4a5ea29.jpg\",\"img/0868/7b212364-ff5f-4e28-9241-7eb6ea00161b.jpg\"]","trial_type":"similarity","trial_index":64,"time_elapsed":535568,"internal_node_id":"0.0-6.0-58.0"},{"sim_score":5,"rt":6045,"stimulus":"[\"img/0862/00c06b00-3b73-44e9-bc1e-c5aafb438321.jpg\",\"img/0769/a3cfbdeb-acb3-4eac-87fb-4b117f42d4f8.jpg\"]","trial_type":"similarity","trial_index":65,"time_elapsed":543429,"internal_node_id":"0.0-6.0-59.0"},{"sim_score":6,"rt":6186,"stimulus":"[\"img/0764/a86eed5b-d0af-4c3f-8c7a-26e98e98cf1a.jpg\",\"img/0903/4cbdc464-e562-4ec2-9bb6-15f894fdf528.jpg\"]","trial_type":"similarity","trial_index":66,"time_elapsed":550900,"internal_node_id":"0.0-6.0-60.0"},{"sim_score":7,"rt":7123,"stimulus":"[\"img/0899/57476fed-5962-4272-8fc9-b317bb777b54.jpg\",\"img/0899/0adc0bc3-6fca-4078-be6f-d45ddf1653d5.jpg\"]","trial_type":"similarity","trial_index":67,"time_elapsed":559127,"internal_node_id":"0.0-6.0-61.0"},{"sim_score":6,"rt":7227,"stimulus":"[\"img/0860/c7047cd2-7cc1-41b6-8a34-c0986774975f.jpg\",\"img/0875/f87b67d7-c33e-40d1-b281-248c4be1cb6e.jpg\"]","trial_type":"similarity","trial_index":68,"time_elapsed":568153,"internal_node_id":"0.0-6.0-62.0"},{"sim_score":1,"rt":5460,"stimulus":"[\"img/0868/179a5502-ab5c-478e-8263-5a1fbcc101d2.jpg\",\"img/0874/29830da7-be5f-44e5-b141-652a0ccf7269.jpg\"]","trial_type":"similarity","trial_index":69,"time_elapsed":575404,"internal_node_id":"0.0-6.0-63.0"},{"sim_score":5,"rt":7511,"stimulus":"[\"img/0758/65d426d6-3ff6-415d-8654-a43b83ecc4fe.jpg\",\"img/0862/1c20f772-3a51-4a80-aac0-f57dc9f86c28.jpg\"]","trial_type":"similarity","trial_index":70,"time_elapsed":584749,"internal_node_id":"0.0-6.0-64.0"},{"sim_score":6,"rt":5564,"stimulus":"[\"img/0904/2c98dc56-88d1-4fb5-a999-b6a7861f65f0.jpg\",\"img/0898/79233891-305a-4a6a-8ddf-5c8604858203.jpg\"]","trial_type":"similarity","trial_index":71,"time_elapsed":591955,"internal_node_id":"0.0-6.0-65.0"},{"sim_score":1,"rt":4504,"stimulus":"[\"img/0881/54ea8e77-c7e5-4197-b7fa-00b7020849a7.jpg\",\"img/0866/8efcaa46-83ab-4dee-a35f-850402aa21ae.jpg\"]","trial_type":"similarity","trial_index":72,"time_elapsed":598215,"internal_node_id":"0.0-6.0-66.0"},{"sim_score":2,"rt":5358,"stimulus":"[\"img/0867/12264664-1860-46df-8c21-162b9817cdda.jpg\",\"img/0898/cd3aaa3f-efa9-4ab3-8d6f-a6a9273ddf42.jpg\"]","trial_type":"similarity","trial_index":73,"time_elapsed":604595,"internal_node_id":"0.0-6.0-67.0"},{"sim_score":6,"rt":5454,"stimulus":"[\"img/0902/24d10fe7-314f-4d5a-8c7b-b43121bba0a4.jpg\",\"img/0764/1def7b22-b054-4ec2-860b-73d25691823b.jpg\"]","trial_type":"similarity","trial_index":74,"time_elapsed":611813,"internal_node_id":"0.0-6.0-68.0"},{"sim_score":5,"rt":5636,"stimulus":"[\"img/0875/a4935837-7d3c-4df6-88c1-36a94d4991ca.jpg\",\"img/0867/c66898ba-b71b-4d50-84f9-f7f84853a98d.jpg\"]","trial_type":"similarity","trial_index":75,"time_elapsed":619220,"internal_node_id":"0.0-6.0-69.0"},{"sim_score":6,"rt":5647,"stimulus":"[\"img/0766/006035d8-c736-4daf-bbe4-a9e373af9da6.jpg\",\"img/0764/f64dfa83-333d-494c-87b5-73e942f1766e.jpg\"]","trial_type":"similarity","trial_index":76,"time_elapsed":626511,"internal_node_id":"0.0-6.0-70.0"},{"sim_score":2,"rt":5034,"stimulus":"[\"img/0894/2d2db7b3-e8a3-499b-b63a-14f51bf73882.jpg\",\"img/0867/aa05d113-fc19-4756-a8eb-7878f580bc92.jpg\"]","trial_type":"similarity","trial_index":77,"time_elapsed":633086,"internal_node_id":"0.0-6.0-71.0"},{"sim_score":4,"rt":5069,"stimulus":"[\"img/0875/8521fd58-3b1e-4dc5-97ae-804edfa6734a.jpg\",\"img/0764/cffc80b0-4a90-4acb-a530-6f480f3ca303.jpg\"]","trial_type":"similarity","trial_index":78,"time_elapsed":639853,"internal_node_id":"0.0-6.0-72.0"},{"sim_score":7,"rt":5434,"stimulus":"[\"img/0867/a749dddb-69f0-44a6-acdc-2bf295cf6dcc.jpg\",\"img/0866/be24ab58-230e-4db8-9f45-ff04c9aec6bb.jpg\"]","trial_type":"similarity","trial_index":79,"time_elapsed":646986,"internal_node_id":"0.0-6.0-73.0"},{"sim_score":5,"rt":5383,"stimulus":"[\"img/0903/5c6b1f57-b3a2-40f5-9fb1-82785e24b6a0.jpg\",\"img/0758/b76ceca7-95ac-46e4-ac13-da02c8e93be9.jpg\"]","trial_type":"similarity","trial_index":80,"time_elapsed":653798,"internal_node_id":"0.0-6.0-74.0"},{"sim_score":2,"rt":4988,"stimulus":"[\"img/0766/af3be95e-e52e-4fae-899b-0ff02ec340aa.jpg\",\"img/0868/0d3abd3a-b6c3-4584-a9f7-e2da63748b3d.jpg\"]","trial_type":"similarity","trial_index":81,"time_elapsed":660648,"internal_node_id":"0.0-6.0-75.0"},{"sim_score":5,"rt":5203,"stimulus":"[\"img/0874/adf9a8f1-c40b-402b-b95b-1e85a54a7b62.jpg\",\"img/0766/f5f78e4e-d88f-4866-951a-118ba9fec4d0.jpg\"]","trial_type":"similarity","trial_index":82,"time_elapsed":667601,"internal_node_id":"0.0-6.0-76.0"},{"sim_score":3,"rt":6719,"stimulus":"[\"img/0881/33d65d80-8a8e-4ecf-852d-0ad7725c17a2.jpg\",\"img/0868/4e626425-63c8-484a-8a1d-e66ee4e0bef8.jpg\"]","trial_type":"similarity","trial_index":83,"time_elapsed":675954,"internal_node_id":"0.0-6.0-77.0"},{"sim_score":1,"rt":5088,"stimulus":"[\"img/0758/6cd8c362-ae2a-41eb-80a3-3a4f7ace1530.jpg\",\"img/0901/a373612d-67e2-4fec-9764-21d3d6ef6359.jpg\"]","trial_type":"similarity","trial_index":84,"time_elapsed":682730,"internal_node_id":"0.0-6.0-78.0"},{"sim_score":4,"rt":5085,"stimulus":"[\"img/0881/633c6f40-56d9-4b48-bf1c-ecd83116eabb.jpg\",\"img/0898/e167334e-cc1d-4986-b3b1-c7bc7da64baa.jpg\"]","trial_type":"similarity","trial_index":85,"time_elapsed":689516,"internal_node_id":"0.0-6.0-79.0"},{"sim_score":1,"rt":5712,"stimulus":"[\"img/0867/c71dc569-f49c-4397-8381-68b8d726736d.jpg\",\"img/0758/7ffbc76b-1fc1-432c-8f7e-9ec8d1b3f643.jpg\"]","trial_type":"similarity","trial_index":86,"time_elapsed":696921,"internal_node_id":"0.0-6.0-80.0"},{"sim_score":5,"rt":5344,"stimulus":"[\"img/0769/180213e5-1e50-4b4e-87b6-add77ba04d39.jpg\",\"img/0899/ad8268c5-8199-48d0-ad70-c5b6d6c599ec.jpg\"]","trial_type":"similarity","trial_index":87,"time_elapsed":703427,"internal_node_id":"0.0-6.0-81.0"},{"sim_score":7,"rt":6744,"stimulus":"[\"img/0903/24477210-856c-4550-9de0-9f85a32762eb.jpg\",\"img/0903/8fcafe03-43df-4c45-9da5-0df3a1eeccc5.jpg\"]","trial_type":"similarity","trial_index":88,"time_elapsed":711592,"internal_node_id":"0.0-6.0-82.0"},{"sim_score":2,"rt":5342,"stimulus":"[\"img/0867/26611f4e-d694-4460-b7e2-43c62753ddc3.jpg\",\"img/0766/d50d734f-285c-4840-bc7a-c8dd4aff391e.jpg\"]","trial_type":"similarity","trial_index":89,"time_elapsed":731108,"internal_node_id":"0.0-6.0-83.0"},{"sim_score":1,"rt":4875,"stimulus":"[\"img/0902/7f1dcd35-237a-4995-9e42-7f63f3f434d4.jpg\",\"img/0867/85a96c62-548f-4994-9553-819e03c3135a.jpg\"]","trial_type":"similarity","trial_index":90,"time_elapsed":737067,"internal_node_id":"0.0-6.0-84.0"},{"sim_score":3,"rt":7609,"stimulus":"[\"img/0901/d61f267a-c492-4db6-9bfb-61efd49cf072.jpg\",\"img/0875/527ced51-8e53-4aab-ab05-86df219104c0.jpg\"]","trial_type":"similarity","trial_index":91,"time_elapsed":746385,"internal_node_id":"0.0-6.0-85.0"},{"sim_score":4,"rt":5373,"stimulus":"[\"img/0764/62fafeea-6274-48ce-976f-35d3d3484c65.jpg\",\"img/0866/6f2a90d7-14f1-4f1b-bd64-fc0af6b9fe44.jpg\"]","trial_type":"similarity","trial_index":92,"time_elapsed":752785,"internal_node_id":"0.0-6.0-86.0"},{"sim_score":3,"rt":6006,"stimulus":"[\"img/0901/4f9cffe0-c0be-4d7f-bacd-9d51efd19b4a.jpg\",\"img/0894/a98416c0-51e2-4960-85da-d81d8688b9d5.jpg\"]","trial_type":"similarity","trial_index":93,"time_elapsed":760123,"internal_node_id":"0.0-6.0-87.0"},{"sim_score":4,"rt":5136,"stimulus":"[\"img/0898/26c41340-15bd-4ead-8fe4-c0d0ddca09c2.jpg\",\"img/0769/48a1144d-fbda-4809-991b-fc8424a32ee4.jpg\"]","trial_type":"similarity","trial_index":94,"time_elapsed":766279,"internal_node_id":"0.0-6.0-88.0"},{"sim_score":7,"rt":5143,"stimulus":"[\"img/0769/e31b3bd8-efcb-413e-aa8c-75fac2b8f2ac.jpg\",\"img/0894/e6385e52-6c35-43bd-b0af-bc803d107b11.jpg\"]","trial_type":"similarity","trial_index":95,"time_elapsed":773057,"internal_node_id":"0.0-6.0-89.0"},{"sim_score":5,"rt":6798,"stimulus":"[\"img/0862/cdaed51d-9e2f-4807-801a-4663c40077e2.jpg\",\"img/0874/99f6563c-8a8d-4c1c-a41d-667b618c3fd5.jpg\"]","trial_type":"similarity","trial_index":96,"time_elapsed":781563,"internal_node_id":"0.0-6.0-90.0"},{"sim_score":6,"rt":7510,"stimulus":"[\"img/0894/0130a973-d993-41f8-874a-fee23d9ac11f.jpg\",\"img/0766/91fc8c4d-862f-4d2b-b1a1-2db8d729b6b7.jpg\"]","trial_type":"similarity","trial_index":97,"time_elapsed":790781,"internal_node_id":"0.0-6.0-91.0"},{"sim_score":1,"rt":4987,"stimulus":"[\"img/0874/3ce41e7c-40c8-4d58-a546-171114521796.jpg\",\"img/0867/ac1797e4-8afc-48fe-b252-86d1defb1cca.jpg\"]","trial_type":"similarity","trial_index":98,"time_elapsed":796889,"internal_node_id":"0.0-6.0-92.0"},{"sim_score":2,"rt":5221,"stimulus":"[\"img/0899/ddf96ade-692e-4602-bd22-dedbb46401bc.jpg\",\"img/0868/d98ca254-b195-477f-b57e-5760a2717db8.jpg\"]","trial_type":"similarity","trial_index":99,"time_elapsed":803818,"internal_node_id":"0.0-6.0-93.0"},{"sim_score":5,"rt":5033,"stimulus":"[\"img/0903/5ea5bbe0-f238-4724-abe7-9ed8dee8c0ba.jpg\",\"img/0862/847e5208-38ec-4f36-949c-296cdd7424ee.jpg\"]","trial_type":"similarity","trial_index":100,"time_elapsed":810587,"internal_node_id":"0.0-6.0-94.0"},{"sim_score":5,"rt":5330,"stimulus":"[\"img/0899/0433d056-aa30-4f8a-9aa1-abbb951e4edd.jpg\",\"img/0766/fd74fdbb-ea40-4f3a-a091-38d08dfd636e.jpg\"]","trial_type":"similarity","trial_index":101,"time_elapsed":817630,"internal_node_id":"0.0-6.0-95.0"},{"sim_score":1,"rt":5206,"stimulus":"[\"img/0867/1719a35d-f085-48c0-9099-16c94fe418b4.jpg\",\"img/0868/4a8a45ed-2c4f-421b-9564-409a33ecd26c.jpg\"]","trial_type":"similarity","trial_index":102,"time_elapsed":824503,"internal_node_id":"0.0-6.0-96.0"},{"sim_score":5,"rt":5292,"stimulus":"[\"img/0862/de9ad88c-b522-430a-8ee9-eb06a9f85df5.jpg\",\"img/0901/a9b9c0a0-8aed-4888-a78a-65fb7e764d13.jpg\"]","trial_type":"similarity","trial_index":103,"time_elapsed":831258,"internal_node_id":"0.0-6.0-97.0"},{"sim_score":5,"rt":6751,"stimulus":"[\"img/0875/2e13d160-eea1-416b-aff1-d37ab99ecc1d.jpg\",\"img/0766/d5d38751-8fa5-476f-93e9-86ed2d9045ef.jpg\"]","trial_type":"similarity","trial_index":104,"time_elapsed":839496,"internal_node_id":"0.0-6.0-98.0"},{"sim_score":6,"rt":5478,"stimulus":"[\"img/0758/9fb5b2fe-3f00-4fe6-973c-1ce10d5f4cd5.jpg\",\"img/0874/2c9464dd-8a23-4baa-ac94-1ba3af5c15cc.jpg\"]","trial_type":"similarity","trial_index":105,"time_elapsed":846679,"internal_node_id":"0.0-6.0-99.0"},{"sim_score":3,"rt":6039,"stimulus":"[\"img/0904/da170c1b-9651-4f08-b231-2bdd1d9a046f.jpg\",\"img/0868/77091fc7-a590-4ebb-b915-fdb2483a2399.jpg\"]","trial_type":"similarity","trial_index":106,"time_elapsed":854109,"internal_node_id":"0.0-6.0-100.0"},{"sim_score":2,"rt":6976,"stimulus":"[\"img/0903/8c358e9e-a4f4-466e-8b93-7aec0d2358e8.jpg\",\"img/0866/07c9c966-3c8d-40e7-8128-92b2acbaed5d.jpg\"]","trial_type":"similarity","trial_index":107,"time_elapsed":862104,"internal_node_id":"0.0-6.0-101.0"},{"sim_score":3,"rt":5041,"stimulus":"[\"img/0868/3a62db2d-97e9-44a3-b8e3-a48c6f0e423b.jpg\",\"img/0769/022c7e3b-c3f2-4119-b4bc-f22fa7cae18c.jpg\"]","trial_type":"similarity","trial_index":108,"time_elapsed":868466,"internal_node_id":"0.0-6.0-102.0"},{"sim_score":6,"rt":5793,"stimulus":"[\"img/0902/b03fee99-d5ca-4bf8-871c-a4a743a39842.jpg\",\"img/0899/06b0fc99-0581-461a-9913-d1a5a941ac61.jpg\"]","trial_type":"similarity","trial_index":109,"time_elapsed":875958,"internal_node_id":"0.0-6.0-103.0"},{"sim_score":1,"rt":5084,"stimulus":"[\"img/0868/c8ac40c7-6904-4e13-8d61-c75d3052dc4e.jpg\",\"img/0862/92f0146c-20c4-482e-aef5-adb693790338.jpg\"]","trial_type":"similarity","trial_index":110,"time_elapsed":882135,"internal_node_id":"0.0-6.0-104.0"},{"sim_score":6,"rt":5339,"stimulus":"[\"img/0903/31b5a5f4-b695-4af1-bad2-a19650a05498.jpg\",\"img/0894/6aa5545f-fa7d-4286-bbaa-aaf34dc7ec96.jpg\"]","trial_type":"similarity","trial_index":111,"time_elapsed":889212,"internal_node_id":"0.0-6.0-105.0"},{"sim_score":6,"rt":6750,"stimulus":"[\"img/0864/c3b63e8f-ea39-4d70-a1f2-b3fe4be8eb75.jpg\",\"img/0874/93d1f8dc-acf2-4f03-bd8d-8ec35df276ed.jpg\"]","trial_type":"similarity","trial_index":112,"time_elapsed":897554,"internal_node_id":"0.0-6.0-106.0"},{"sim_score":5,"rt":6818,"stimulus":"[\"img/0862/e0f1a4e9-e1b6-45f7-af67-89f334e6630d.jpg\",\"img/0902/27b84584-948a-485b-8749-cb09929ef631.jpg\"]","trial_type":"similarity","trial_index":113,"time_elapsed":906069,"internal_node_id":"0.0-6.0-107.0"},{"sim_score":6,"rt":6820,"stimulus":"[\"img/0904/9dd5708f-3f8b-46a9-b49f-2f2fab87b357.jpg\",\"img/0903/14f179a2-8786-48a2-8377-88d1d404341b.jpg\"]","trial_type":"similarity","trial_index":114,"time_elapsed":914585,"internal_node_id":"0.0-6.0-108.0"},{"sim_score":4,"rt":4044,"stimulus":"[\"img/0764/f2f23359-8e82-41d3-8900-5b9f4433991d.jpg\",\"img/0864/5f33e097-23e3-4002-882d-76e8cb15f451.jpg\"]","trial_type":"similarity","trial_index":115,"time_elapsed":920345,"internal_node_id":"0.0-6.0-109.0"},{"sim_score":4,"rt":5354,"stimulus":"[\"img/0866/a04d37f0-99dd-478a-b6c6-58b215138f84.jpg\",\"img/0894/43216a7f-27bc-4b5a-8841-d122a30da9d9.jpg\"]","trial_type":"similarity","trial_index":116,"time_elapsed":926839,"internal_node_id":"0.0-6.0-110.0"},{"sim_score":5,"rt":5231,"stimulus":"[\"img/0899/d60714ae-98d7-4564-8c98-94dba1351135.jpg\",\"img/0903/6138142e-c84e-45fc-9487-c974f3d4968a.jpg\"]","trial_type":"similarity","trial_index":117,"time_elapsed":933515,"internal_node_id":"0.0-6.0-111.0"},{"sim_score":7,"rt":6776,"stimulus":"[\"img/0902/0c760cc9-10ac-429e-8957-a7d51fc99683.jpg\",\"img/0904/9b3568cc-3cf7-42be-9df3-fdafde7a58b8.jpg\"]","trial_type":"similarity","trial_index":118,"time_elapsed":941832,"internal_node_id":"0.0-6.0-112.0"},{"sim_score":3,"rt":5221,"stimulus":"[\"img/0864/e336a4c5-6648-4fd7-b2f6-93a3fb83f8c6.jpg\",\"img/0860/5383b320-1518-4095-a58e-5cc1ae30b64c.jpg\"]","trial_type":"similarity","trial_index":119,"time_elapsed":948759,"internal_node_id":"0.0-6.0-113.0"},{"sim_score":4,"rt":4263,"stimulus":"[\"img/0860/524b2e98-5767-4d53-942c-ebae6925659b.jpg\",\"img/0899/f95cbdb4-f804-4f5d-ad76-373ad343e658.jpg\"]","trial_type":"similarity","trial_index":120,"time_elapsed":954662,"internal_node_id":"0.0-6.0-114.0"},{"sim_score":5,"rt":4950,"stimulus":"[\"img/0881/e046471a-35b4-4159-bbf7-3cfd201bef66.jpg\",\"img/0903/365f176c-25a4-4973-bd3c-279bf1b39476.jpg\"]","trial_type":"similarity","trial_index":121,"time_elapsed":960638,"internal_node_id":"0.0-6.0-115.0"},{"sim_score":5,"rt":6065,"stimulus":"[\"img/0894/7dd6ff43-f8fc-408a-8a41-a2b261871820.jpg\",\"img/0874/85eb9b8a-c4c6-4e5a-b8e7-363a87a82054.jpg\"]","trial_type":"similarity","trial_index":122,"time_elapsed":968447,"internal_node_id":"0.0-6.0-116.0"},{"sim_score":5,"rt":5714,"stimulus":"[\"img/0881/db77fe00-aeb0-4d1d-aa66-f3a96fd077e4.jpg\",\"img/0862/47ed5efd-4ec9-4b74-bb4e-a5f5cf0c3e7d.jpg\"]","trial_type":"similarity","trial_index":123,"time_elapsed":975188,"internal_node_id":"0.0-6.0-117.0"},{"sim_score":6,"rt":5102,"stimulus":"[\"img/0868/1a62b2b2-18f5-466e-b564-5176a57c565e.jpg\",\"img/0875/03c3c331-738b-4446-af92-3d7386b08c2e.jpg\"]","trial_type":"similarity","trial_index":124,"time_elapsed":981328,"internal_node_id":"0.0-6.0-118.0"},{"sim_score":2,"rt":5081,"stimulus":"[\"img/0860/d9a0d117-6d1d-41c0-8fec-9aff0fd9e9f2.jpg\",\"img/0758/6e95579b-5166-487c-b8cb-e417c6a218e3.jpg\"]","trial_type":"similarity","trial_index":125,"time_elapsed":988035,"internal_node_id":"0.0-6.0-119.0"},{"sim_score":1,"rt":9419,"stimulus":"[\"img/0864/ef9cbca0-4be8-435d-ad49-977259e80409.jpg\",\"img/0875/d59ff733-eaff-4ee2-9443-06954dd0bcb6.jpg\"]","trial_type":"similarity","trial_index":126,"time_elapsed":999161,"internal_node_id":"0.0-6.0-120.0"},{"sim_score":2,"rt":6729,"stimulus":"[\"img/0898/c3cecf20-f7fd-45fa-97d0-dc0a63e8d6c0.jpg\",\"img/0866/bf14b5bd-fb55-47db-86b9-4f8aeb9a6dad.jpg\"]","trial_type":"similarity","trial_index":127,"time_elapsed":1006987,"internal_node_id":"0.0-6.0-121.0"},{"sim_score":3,"rt":5130,"stimulus":"[\"img/0874/c0378dac-9370-439a-8b79-db27c96fb390.jpg\",\"img/0904/ba8e689e-9ca6-4608-a2a1-3b0940666ae6.jpg\"]","trial_type":"similarity","trial_index":128,"time_elapsed":1013821,"internal_node_id":"0.0-6.0-122.0"},{"sim_score":2,"rt":4388,"stimulus":"[\"img/0904/60d1a521-edf7-4696-9263-f21ac0e62a01.jpg\",\"img/0864/afcba0a3-7e27-4757-b254-e9f05fad27e2.jpg\"]","trial_type":"similarity","trial_index":129,"time_elapsed":1019931,"internal_node_id":"0.0-6.0-123.0"},{"sim_score":5,"rt":4841,"stimulus":"[\"img/0894/1a010553-d598-4b06-a772-81f1e7b3addb.jpg\",\"img/0902/1f4a4c62-68c1-4993-b213-05652a173ed1.jpg\"]","trial_type":"similarity","trial_index":130,"time_elapsed":1025792,"internal_node_id":"0.0-6.0-124.0"},{"sim_score":1,"rt":4099,"stimulus":"[\"img/0868/5fa7f9d0-f0e5-454c-8224-74d964818f56.jpg\",\"img/0864/66091c27-e588-4476-8af9-265dc6be4156.jpg\"]","trial_type":"similarity","trial_index":131,"time_elapsed":1039494,"internal_node_id":"0.0-6.0-125.0"},{"sim_score":5,"rt":6844,"stimulus":"[\"img/0899/fef567a2-c121-4481-9af0-ff108d199bbf.jpg\",\"img/0866/386235d2-6857-41e7-88a8-25cfc3430025.jpg\"]","trial_type":"similarity","trial_index":132,"time_elapsed":1048067,"internal_node_id":"0.0-6.0-126.0"},{"sim_score":2,"rt":4274,"stimulus":"[\"img/0875/5a716432-c6ca-4b1c-955a-2b8ac25198ee.jpg\",\"img/0904/4e58005d-a2ec-4aaa-b199-445343561396.jpg\"]","trial_type":"similarity","trial_index":133,"time_elapsed":1054061,"internal_node_id":"0.0-6.0-127.0"},{"sim_score":2,"rt":5015,"stimulus":"[\"img/0867/8ba0c5a7-c7e4-42cf-a80a-543763b90779.jpg\",\"img/0899/93494f3b-d539-4075-b027-d82e344563da.jpg\"]","trial_type":"similarity","trial_index":134,"time_elapsed":1060099,"internal_node_id":"0.0-6.0-128.0"},{"sim_score":4,"rt":5120,"stimulus":"[\"img/0901/b9141736-3041-4385-a586-b1fe911c76a5.jpg\",\"img/0867/98d8cd96-1476-4fe0-a3a3-04f875500a1b.jpg\"]","trial_type":"similarity","trial_index":135,"time_elapsed":1066929,"internal_node_id":"0.0-6.0-129.0"},{"sim_score":3,"rt":5393,"stimulus":"[\"img/0864/ea327690-500b-4137-bf91-451b309fe6a5.jpg\",\"img/0769/c34b7763-8ff2-46d5-9e92-f1d8f3bedbd8.jpg\"]","trial_type":"similarity","trial_index":136,"time_elapsed":1074023,"internal_node_id":"0.0-6.0-130.0"},{"sim_score":2,"rt":5129,"stimulus":"[\"img/0903/47e39de8-6959-469f-8be9-6999a6db207c.jpg\",\"img/0868/293079b8-7e0c-4afd-a390-1e5d35fe3ded.jpg\"]","trial_type":"similarity","trial_index":137,"time_elapsed":1080862,"internal_node_id":"0.0-6.0-131.0"},{"sim_score":1,"rt":5471,"stimulus":"[\"img/0864/b3c4e378-28f0-4699-9338-2a257b4bca04.jpg\",\"img/0867/7d1c497b-c1b3-4ed8-abb5-d7f73306015f.jpg\"]","trial_type":"similarity","trial_index":138,"time_elapsed":1088034,"internal_node_id":"0.0-6.0-132.0"},{"sim_score":5,"rt":5086,"stimulus":"[\"img/0901/04a53755-6da5-44d4-a7a6-48a6bc0a2280.jpg\",\"img/0860/8fdba999-b946-4c7d-9891-336018b563ef.jpg\"]","trial_type":"similarity","trial_index":139,"time_elapsed":1094553,"internal_node_id":"0.0-6.0-133.0"},{"sim_score":4,"rt":3407,"stimulus":"[\"img/0881/f6bd3b96-dc40-4e99-8681-bc3a35cf896d.jpg\",\"img/0766/db750ba0-ce04-46e1-b601-e1b80212bad2.jpg\"]","trial_type":"similarity","trial_index":140,"time_elapsed":1099681,"internal_node_id":"0.0-6.0-134.0"},{"sim_score":5,"rt":3655,"stimulus":"[\"img/0903/b548d383-2a95-4575-8c13-647873751ff1.jpg\",\"img/0864/1ebbc554-99fa-49f9-8799-317375a79820.jpg\"]","trial_type":"similarity","trial_index":141,"time_elapsed":1105049,"internal_node_id":"0.0-6.0-135.0"},{"sim_score":2,"rt":6801,"stimulus":"[\"img/0758/20497cbe-ddae-489e-86e2-ab06985ed07c.jpg\",\"img/0894/9b1333fd-3561-43bf-aee5-99b7b7ca3dc3.jpg\"]","trial_type":"similarity","trial_index":142,"time_elapsed":1113380,"internal_node_id":"0.0-6.0-136.0"},{"sim_score":5,"rt":5138,"stimulus":"[\"img/0769/b664b502-a86c-46c1-ad6f-5ebffc2e1bd3.jpg\",\"img/0860/8277806e-b684-4474-8f7b-3fca946d7d4f.jpg\"]","trial_type":"similarity","trial_index":143,"time_elapsed":1120219,"internal_node_id":"0.0-6.0-137.0"},{"sim_score":6,"rt":5124,"stimulus":"[\"img/0904/9d30eff1-46ef-4453-b11e-124ef8145c00.jpg\",\"img/0766/f011ef45-fb48-44b8-8224-867ed2ccf786.jpg\"]","trial_type":"similarity","trial_index":144,"time_elapsed":1127073,"internal_node_id":"0.0-6.0-138.0"},{"sim_score":5,"rt":5907,"stimulus":"[\"img/0868/6a28c3b0-3d76-498a-9fb7-ddafc665eca8.jpg\",\"img/0860/31ff6436-98bf-4652-bed2-40f627229568.jpg\"]","trial_type":"similarity","trial_index":145,"time_elapsed":1134698,"internal_node_id":"0.0-6.0-139.0"},{"sim_score":2,"rt":4212,"stimulus":"[\"img/0758/7ee8bc8f-c40b-4b3a-84ec-3e83580622d4.jpg\",\"img/0864/65210d57-1153-4657-886a-32e758f49b4a.jpg\"]","trial_type":"similarity","trial_index":146,"time_elapsed":1140019,"internal_node_id":"0.0-6.0-140.0"},{"sim_score":7,"rt":4892,"stimulus":"[\"img/0867/f26f6b60-f772-4f4c-95a4-addc62cfd692.jpg\",\"img/0867/5e07b34d-b40f-4b1c-ac10-49975bace45f.jpg\"]","trial_type":"similarity","trial_index":147,"time_elapsed":1145929,"internal_node_id":"0.0-6.0-141.0"},{"sim_score":7,"rt":6850,"stimulus":"[\"img/0898/8605a25b-6895-476d-8c13-df7a83f96093.jpg\",\"img/0898/5f699581-3853-4547-856c-12f419ba5af7.jpg\"]","trial_type":"similarity","trial_index":148,"time_elapsed":1154500,"internal_node_id":"0.0-6.0-142.0"},{"sim_score":6,"rt":5143,"stimulus":"[\"img/0866/02f5e6b9-52b7-448c-9708-5b460d0c9a23.jpg\",\"img/0769/14d393ce-e5be-4ca1-86ce-cc27d4b6074c.jpg\"]","trial_type":"similarity","trial_index":149,"time_elapsed":1161352,"internal_node_id":"0.0-6.0-143.0"},{"sim_score":4,"rt":3701,"stimulus":"[\"img/0860/e8b8c51e-1834-4875-8b61-6c5bc9b178bd.jpg\",\"img/0898/a8f16b02-e19f-423b-86c3-a36562ae1f9b.jpg\"]","trial_type":"similarity","trial_index":150,"time_elapsed":1166771,"internal_node_id":"0.0-6.0-144.0"},{"sim_score":5,"rt":5159,"stimulus":"[\"img/0766/5d1b8041-c5a1-4b02-b4fe-3453d98a0d72.jpg\",\"img/0864/6f631579-acf1-415c-a42c-1207f62a8d99.jpg\"]","trial_type":"similarity","trial_index":151,"time_elapsed":1173412,"internal_node_id":"0.0-6.0-145.0"},{"sim_score":5,"rt":5126,"stimulus":"[\"img/0860/c5ccd1a4-4bb7-48e1-9b25-72cfaf06909b.jpg\",\"img/0903/aa842abe-6fa3-448a-bf71-88d3ad28663b.jpg\"]","trial_type":"similarity","trial_index":152,"time_elapsed":1180254,"internal_node_id":"0.0-6.0-146.0"},{"sim_score":1,"rt":3730,"stimulus":"[\"img/0867/50a1b60e-3a29-44bf-b606-d4bd3746fea9.jpg\",\"img/0764/23ea9375-f801-4a96-9925-7d453da887c7.jpg\"]","trial_type":"similarity","trial_index":153,"time_elapsed":1185710,"internal_node_id":"0.0-6.0-147.0"},{"sim_score":7,"rt":7640,"stimulus":"[\"img/0769/96556ef3-7fac-4c9d-8281-1cb0ea5081bc.jpg\",\"img/0904/2f88ce53-02d0-4f95-a082-182c56a0eeb4.jpg\"]","trial_type":"similarity","trial_index":154,"time_elapsed":1194935,"internal_node_id":"0.0-6.0-148.0"},{"sim_score":3,"rt":5741,"stimulus":"[\"img/0764/ef0e64c6-d0dd-4dc6-87b6-ce5c0665f421.jpg\",\"img/0901/deff6cfb-0072-4490-bc3e-206bbcd3e8bf.jpg\"]","trial_type":"similarity","trial_index":155,"time_elapsed":1201709,"internal_node_id":"0.0-6.0-149.0"},{"sim_score":3,"rt":5039,"stimulus":"[\"img/0904/5cceabc9-de1d-4c67-989b-c28a4ef77e79.jpg\",\"img/0899/a05bea16-2bb4-4cb9-b8fb-4ff975db6971.jpg\"]","trial_type":"similarity","trial_index":156,"time_elapsed":1207802,"internal_node_id":"0.0-6.0-150.0"},{"sim_score":1,"rt":3719,"stimulus":"[\"img/0862/fad1d7c1-8187-43c3-942a-0fc12183e48e.jpg\",\"img/0867/2e1a0b58-cdb1-4107-a14e-452530d7b9b0.jpg\"]","trial_type":"similarity","trial_index":157,"time_elapsed":1213275,"internal_node_id":"0.0-6.0-151.0"},{"sim_score":7,"rt":5117,"stimulus":"[\"img/0766/f3276cc4-65de-4c2d-88d5-6cfebce14b8f.jpg\",\"img/0766/d512b99c-a2dc-40d7-8e86-827323a0cbcf.jpg\"]","trial_type":"similarity","trial_index":158,"time_elapsed":1219832,"internal_node_id":"0.0-6.0-152.0"},{"sim_score":3,"rt":5290,"stimulus":"[\"img/0862/eefa5588-9efd-4591-aa5f-a2e17c7d7bcc.jpg\",\"img/0894/5a49e858-2850-4892-9a06-e9f0efb5f94d.jpg\"]","trial_type":"similarity","trial_index":159,"time_elapsed":1226860,"internal_node_id":"0.0-6.0-153.0"},{"sim_score":2,"rt":6871,"stimulus":"[\"img/0899/4f7bc593-8ddd-4da3-a0b9-84da730d3370.jpg\",\"img/0901/f1116359-1ff1-4638-b3b3-700918d36d18.jpg\"]","trial_type":"similarity","trial_index":160,"time_elapsed":1235454,"internal_node_id":"0.0-6.0-154.0"},{"sim_score":6,"rt":5153,"stimulus":"[\"img/0874/3f471690-9788-4d03-90c7-f615aecef149.jpg\",\"img/0874/bf14b896-e930-4fd9-9c05-2e83317a2773.jpg\"]","trial_type":"similarity","trial_index":161,"time_elapsed":1242323,"internal_node_id":"0.0-6.0-155.0"},{"sim_score":4,"rt":5137,"stimulus":"[\"img/0860/94ef7afc-e0e6-4a15-98c6-0bfac82bc832.jpg\",\"img/0867/075e0f95-856b-4cbb-acf5-092393aaf04e.jpg\"]","trial_type":"similarity","trial_index":162,"time_elapsed":1249173,"internal_node_id":"0.0-6.0-156.0"},{"sim_score":2,"rt":5375,"stimulus":"[\"img/0901/f469cb1d-6d81-4a45-bab5-cd0b650c2b4f.jpg\",\"img/0881/609a5e93-38b5-4940-8627-2bf8fad7f802.jpg\"]","trial_type":"similarity","trial_index":163,"time_elapsed":1256278,"internal_node_id":"0.0-6.0-157.0"},{"sim_score":6,"rt":5160,"stimulus":"[\"img/0903/a0673b55-6040-47fe-9040-24bca27ca3c9.jpg\",\"img/0902/cf9dee9c-2bdf-4d64-9302-97f1660fe52c.jpg\"]","trial_type":"similarity","trial_index":164,"time_elapsed":1263235,"internal_node_id":"0.0-6.0-158.0"},{"sim_score":4,"rt":3630,"stimulus":"[\"img/0860/4c530c3c-6aab-492a-94d1-9c01797bde40.jpg\",\"img/0764/6c7fe363-2d37-418f-9e5e-a3273af5d4fb.jpg\"]","trial_type":"similarity","trial_index":165,"time_elapsed":1268621,"internal_node_id":"0.0-6.0-159.0"},{"sim_score":5,"rt":5262,"stimulus":"[\"img/0902/51493fab-2a10-4385-aa88-bee3db441626.jpg\",\"img/0875/fb732ab5-013a-4366-9f65-27811ed157e9.jpg\"]","trial_type":"similarity","trial_index":166,"time_elapsed":1275460,"internal_node_id":"0.0-6.0-160.0"},{"sim_score":6,"rt":6832,"stimulus":"[\"img/0898/6cd3830b-d44e-4915-be2b-88d31424b91c.jpg\",\"img/0862/ee3b7bff-4a70-4e84-9bea-4a565e456acb.jpg\"]","trial_type":"similarity","trial_index":167,"time_elapsed":1283918,"internal_node_id":"0.0-6.0-161.0"},{"sim_score":5,"rt":5155,"stimulus":"[\"img/0894/c505c65a-cde2-4f2c-8cde-f8676f7c894d.jpg\",\"img/0875/e7e66b13-b573-431e-b85e-288ce04a35a3.jpg\"]","trial_type":"similarity","trial_index":168,"time_elapsed":1290789,"internal_node_id":"0.0-6.0-162.0"},{"sim_score":2,"rt":5521,"stimulus":"[\"img/0866/4a87911a-d5be-4d4e-ab8e-3d1f581bf507.jpg\",\"img/0864/da39ad34-04e0-40d4-a724-c08d53e0ea09.jpg\"]","trial_type":"similarity","trial_index":169,"time_elapsed":1298030,"internal_node_id":"0.0-6.0-163.0"},{"sim_score":2,"rt":5511,"stimulus":"[\"img/0766/27f54113-8561-4568-9ffe-0a1650ae65ec.jpg\",\"img/0862/fb26cb07-d5a9-4653-813c-f41609f26cd5.jpg\"]","trial_type":"similarity","trial_index":170,"time_elapsed":1304973,"internal_node_id":"0.0-6.0-164.0"},{"sim_score":1,"rt":5003,"stimulus":"[\"img/0866/620cd1aa-0800-4414-8f6e-90342e7a99ad.jpg\",\"img/0874/a82926a3-0b43-4add-803c-d5f9ea7798ee.jpg\"]","trial_type":"similarity","trial_index":171,"time_elapsed":1311407,"internal_node_id":"0.0-6.0-165.0"},{"sim_score":5,"rt":5149,"stimulus":"[\"img/0862/92fcd8a4-8193-4a6a-ae09-dd4a6338b0df.jpg\",\"img/0860/18dfed73-e36b-4487-a8bd-0b8cff8e3668.jpg\"]","trial_type":"similarity","trial_index":172,"time_elapsed":1318285,"internal_node_id":"0.0-6.0-166.0"},{"sim_score":2,"rt":3985,"stimulus":"[\"img/0766/3c526a07-9e0a-4ae2-8142-00085f0127da.jpg\",\"img/0901/2a953e50-d237-405c-a38d-5ed21494c968.jpg\"]","trial_type":"similarity","trial_index":173,"time_elapsed":1329429,"internal_node_id":"0.0-6.0-167.0"},{"sim_score":7,"rt":5038,"stimulus":"[\"img/0862/e8cc3bdf-cc43-4565-bccf-492626c70953.jpg\",\"img/0862/d0ca4c78-fc35-46ed-bdcc-8e124283c53e.jpg\"]","trial_type":"similarity","trial_index":174,"time_elapsed":1335489,"internal_node_id":"0.0-6.0-168.0"},{"sim_score":5,"rt":5194,"stimulus":"[\"img/0894/38cf335f-f76f-4349-8d65-e20cd6859565.jpg\",\"img/0764/ba0c0955-acbb-457d-b1c2-f006b88121d5.jpg\"]","trial_type":"similarity","trial_index":175,"time_elapsed":1342434,"internal_node_id":"0.0-6.0-169.0"},{"sim_score":1,"rt":3908,"stimulus":"[\"img/0874/995f0332-0439-4eb4-add3-957335dbf6d9.jpg\",\"img/0898/881e2a85-d5c2-49be-a0c6-8a6ce2c4af08.jpg\"]","trial_type":"similarity","trial_index":176,"time_elapsed":1348061,"internal_node_id":"0.0-6.0-170.0"},{"sim_score":3,"rt":7432,"stimulus":"[\"img/0860/f44ba3fb-03a2-42f0-8509-2c1ded493086.jpg\",\"img/0766/0025de5e-f620-4079-8a0f-00326ff3a6b0.jpg\"]","trial_type":"similarity","trial_index":177,"time_elapsed":1356911,"internal_node_id":"0.0-6.0-171.0"},{"sim_score":3,"rt":5079,"stimulus":"[\"img/0898/0af304a2-6a7a-4082-ab7c-4450cd08cc58.jpg\",\"img/0864/c22faebd-9c53-47bc-ada3-b9a30c688e75.jpg\"]","trial_type":"similarity","trial_index":178,"time_elapsed":1363093,"internal_node_id":"0.0-6.0-172.0"},{"sim_score":4,"rt":5156,"stimulus":"[\"img/0881/b549bc99-a61c-4450-bab5-9efc3a197bf0.jpg\",\"img/0764/5d6fa3ce-9083-410c-bbdb-336a49b94cfc.jpg\"]","trial_type":"similarity","trial_index":179,"time_elapsed":1369963,"internal_node_id":"0.0-6.0-173.0"},{"sim_score":2,"rt":4369,"stimulus":"[\"img/0898/993d8f2d-bef7-4251-a193-0f93a32b7763.jpg\",\"img/0868/09a9ef4d-d000-4cfa-a6aa-ebec7c2edeb4.jpg\"]","trial_type":"similarity","trial_index":180,"time_elapsed":1376053,"internal_node_id":"0.0-6.0-174.0"},{"sim_score":6,"rt":5097,"stimulus":"[\"img/0864/8ddd2e30-a1d0-479f-9cbe-591213023893.jpg\",\"img/0864/0116ca98-293d-4fa6-a93b-5a6144ef64cc.jpg\"]","trial_type":"similarity","trial_index":181,"time_elapsed":1382266,"internal_node_id":"0.0-6.0-175.0"},{"sim_score":5,"rt":5164,"stimulus":"[\"img/0899/7b7380d5-d2be-44e5-a09a-c1756f87ef71.jpg\",\"img/0862/24cdc752-c2e5-4a17-86a6-6f2045d8553b.jpg\"]","trial_type":"similarity","trial_index":182,"time_elapsed":1389155,"internal_node_id":"0.0-6.0-176.0"},{"sim_score":1,"rt":3820,"stimulus":"[\"img/0875/5a7c4e35-6514-4e12-8879-d16071da4cd6.jpg\",\"img/0758/53f35650-e455-4b53-8be4-c3c8271c6466.jpg\"]","trial_type":"similarity","trial_index":183,"time_elapsed":1394694,"internal_node_id":"0.0-6.0-177.0"},{"sim_score":2,"rt":3693,"stimulus":"[\"img/0866/f756f7d1-9ad8-4a34-9ef6-7a443d705bfe.jpg\",\"img/0901/d4d09bf5-093e-4050-838e-7c738be8e63c.jpg\"]","trial_type":"similarity","trial_index":184,"time_elapsed":1399973,"internal_node_id":"0.0-6.0-178.0"},{"sim_score":3,"rt":7684,"stimulus":"[\"img/0769/91acb237-65a3-4d0b-9748-af5c7b83d3c7.jpg\",\"img/0874/7e4f2150-3b59-4a36-b5da-a4e0ba410531.jpg\"]","trial_type":"similarity","trial_index":185,"time_elapsed":1409118,"internal_node_id":"0.0-6.0-179.0"},{"sim_score":3,"rt":5130,"stimulus":"[\"img/0875/2c361b79-c3d1-4eda-812e-bf03192407bf.jpg\",\"img/0881/d1982897-8d8d-4704-a940-1ee5d07a1f15.jpg\"]","trial_type":"similarity","trial_index":186,"time_elapsed":1415274,"internal_node_id":"0.0-6.0-180.0"},{"sim_score":3,"rt":5155,"stimulus":"[\"img/0866/93a27239-8317-4e08-98ca-d8b1ff298e07.jpg\",\"img/0868/d6d1f30d-4323-435a-b194-7892521bc57e.jpg\"]","trial_type":"similarity","trial_index":187,"time_elapsed":1422159,"internal_node_id":"0.0-6.0-181.0"},{"sim_score":4,"rt":3442,"stimulus":"[\"img/0899/9de5e857-aa9a-4e0c-8ba2-46d79bd069a4.jpg\",\"img/0758/d41c06bf-ebaf-454b-91c6-1a17f917b659.jpg\"]","trial_type":"similarity","trial_index":188,"time_elapsed":1427346,"internal_node_id":"0.0-6.0-182.0"},{"sim_score":1,"rt":5165,"stimulus":"[\"img/0874/767f289c-9814-4496-803f-745cc8913d1f.jpg\",\"img/0875/ebf7653f-ff45-4e9f-af58-2c042ab3cd2b.jpg\"]","trial_type":"similarity","trial_index":189,"time_elapsed":1434259,"internal_node_id":"0.0-6.0-183.0"},{"sim_score":5,"rt":5176,"stimulus":"[\"img/0904/4d7d70a3-9477-4921-bda0-f9531d0a5c5b.jpg\",\"img/0862/f188d4f0-76a4-4102-818c-a209969d73a5.jpg\"]","trial_type":"similarity","trial_index":190,"time_elapsed":1441152,"internal_node_id":"0.0-6.0-184.0"},{"sim_score":5,"rt":5165,"stimulus":"[\"img/0902/417d8b4a-3c72-4adc-ac78-820e833316f2.jpg\",\"img/0766/110832e5-2646-4bd0-a94e-5df8cc314269.jpg\"]","trial_type":"similarity","trial_index":191,"time_elapsed":1448038,"internal_node_id":"0.0-6.0-185.0"},{"sim_score":3,"rt":5174,"stimulus":"[\"img/0758/eabcd7a8-56ad-4fd2-bc24-90f6b7b33265.jpg\",\"img/0769/35f2dd39-40aa-498e-b401-9f1ef2622d00.jpg\"]","trial_type":"similarity","trial_index":192,"time_elapsed":1454939,"internal_node_id":"0.0-6.0-186.0"},{"sim_score":6,"rt":6908,"stimulus":"[\"img/0881/20af39f5-373d-4a55-a437-2dc4c0382c46.jpg\",\"img/0881/445edb15-bd7f-4af3-8bd5-c6ad9677bb31.jpg\"]","trial_type":"similarity","trial_index":193,"time_elapsed":1463569,"internal_node_id":"0.0-6.0-187.0"},{"sim_score":2,"rt":3810,"stimulus":"[\"img/0758/a085b443-b5d7-4cb2-9ad4-b9dab0fc23f1.jpg\",\"img/0866/c446214b-a368-4c65-ae39-ea46894256ab.jpg\"]","trial_type":"similarity","trial_index":194,"time_elapsed":1469094,"internal_node_id":"0.0-6.0-188.0"},{"sim_score":5,"rt":5107,"stimulus":"[\"img/0764/7f4ee8e3-9315-4a57-be7d-db8454b33766.jpg\",\"img/0898/f3a3f225-1248-4ac7-b93b-f0ff28485bf3.jpg\"]","trial_type":"similarity","trial_index":195,"time_elapsed":1475617,"internal_node_id":"0.0-6.0-189.0"},{"sim_score":5,"rt":5174,"stimulus":"[\"img/0903/12bd8657-92e6-4c36-a06c-597e7a1d51f3.jpg\",\"img/0901/d6d15b1c-4a30-4f74-a3fd-d4c8ee4169ca.jpg\"]","trial_type":"similarity","trial_index":196,"time_elapsed":1482509,"internal_node_id":"0.0-6.0-190.0"},{"sim_score":5,"rt":6077,"stimulus":"[\"img/0902/2a7ac123-414a-476a-9a96-4757b924baef.jpg\",\"img/0898/0c7dde4f-efce-4b7a-9387-6921635b7890.jpg\"]","trial_type":"similarity","trial_index":197,"time_elapsed":1490317,"internal_node_id":"0.0-6.0-191.0"},{"sim_score":3,"rt":4945,"stimulus":"[\"img/0864/f92649a2-0590-4d31-9a7a-1bfb81666a2d.jpg\",\"img/0901/a2d7b2f6-396b-4d91-8403-de5361c74af7.jpg\"]","trial_type":"similarity","trial_index":198,"time_elapsed":1496415,"internal_node_id":"0.0-6.0-192.0"},{"sim_score":5,"rt":5416,"stimulus":"[\"img/0894/2217bdcd-23a7-42d3-823b-23f2488d7e87.jpg\",\"img/0881/84397291-bc14-4fbf-90e8-241e486ab0fe.jpg\"]","trial_type":"similarity","trial_index":199,"time_elapsed":1503560,"internal_node_id":"0.0-6.0-193.0"},{"sim_score":7,"rt":5059,"stimulus":"[\"img/0868/15dd6fd7-791e-4b53-b203-195d617521a4.jpg\",\"img/0868/4bd5105a-d2c3-4f82-8c80-57196106ba53.jpg\"]","trial_type":"similarity","trial_index":200,"time_elapsed":1510238,"internal_node_id":"0.0-6.0-194.0"},{"sim_score":5,"rt":5188,"stimulus":"[\"img/0899/4408c14d-c168-4a7d-96f6-bc87bfb58f83.jpg\",\"img/0764/8740679b-b56f-4292-aece-14063457113a.jpg\"]","trial_type":"similarity","trial_index":201,"time_elapsed":1517147,"internal_node_id":"0.0-6.0-195.0"},{"sim_score":4,"rt":3438,"stimulus":"[\"img/0881/0c7068da-d0d9-4103-bda1-74ef7a2b32c3.jpg\",\"img/0904/e9423a8c-f946-43ad-ab7b-931acef870e2.jpg\"]","trial_type":"similarity","trial_index":202,"time_elapsed":1522316,"internal_node_id":"0.0-6.0-196.0"},{"sim_score":5,"rt":5250,"stimulus":"[\"img/0864/3d4de670-b290-4285-9c3d-12a0e3af44e9.jpg\",\"img/0902/62f11694-7ed7-4cb7-8a73-9e95c43824e7.jpg\"]","trial_type":"similarity","trial_index":203,"time_elapsed":1529298,"internal_node_id":"0.0-6.0-197.0"},{"sim_score":6,"rt":5137,"stimulus":"[\"img/0894/3adef67d-7676-4995-80b2-bb31b8aca3ef.jpg\",\"img/0904/06dacdc5-2206-4fb8-92b7-88042d22833c.jpg\"]","trial_type":"similarity","trial_index":204,"time_elapsed":1536139,"internal_node_id":"0.0-6.0-198.0"},{"sim_score":7,"rt":4139,"stimulus":"[\"img/0901/c6df1a21-44ed-47c2-960e-7c52220e329e.jpg\",\"img/0901/4d1bed7e-3c4e-4f6c-ada9-4beb66ba9e39.jpg\"]","trial_type":"similarity","trial_index":205,"time_elapsed":1542004,"internal_node_id":"0.0-6.0-199.0"},{"sim_score":4,"rt":4197,"stimulus":"[\"img/0894/7f2f31fd-6618-41c6-b65a-0fd8b2851bc9.jpg\",\"img/0860/c47fdead-eb02-4989-b078-26f4852f44fe.jpg\"]","trial_type":"similarity","trial_index":206,"time_elapsed":1547323,"internal_node_id":"0.0-6.0-200.0"},{"sim_score":6,"rt":5088,"stimulus":"[\"img/0898/661621d4-a14e-487c-8c74-354134a29710.jpg\",\"img/0903/5248eedd-7e6a-4d39-91b0-06ec227f3ed0.jpg\"]","trial_type":"similarity","trial_index":207,"time_elapsed":1553427,"internal_node_id":"0.0-6.0-201.0"},{"sim_score":5,"rt":5192,"stimulus":"[\"img/0864/49150900-7f25-4ce8-8d10-9b47a71d1997.jpg\",\"img/0894/e5edf723-72a5-4673-8441-6c1734a8929b.jpg\"]","trial_type":"similarity","trial_index":208,"time_elapsed":1560356,"internal_node_id":"0.0-6.0-202.0"},{"sim_score":1,"rt":5225,"stimulus":"[\"img/0874/ca76a855-4e77-4f2f-872a-0a718153e7ed.jpg\",\"img/0860/29a21a9f-54bb-4093-ad3f-04823ceaa89f.jpg\"]","trial_type":"similarity","trial_index":209,"time_elapsed":1567308,"internal_node_id":"0.0-6.0-203.0"},{"sim_score":1,"rt":5165,"stimulus":"[\"img/0862/064818ee-13d5-4618-bb24-21c7368ea278.jpg\",\"img/0875/42910c99-5463-450a-a0f8-d4d060a11455.jpg\"]","trial_type":"similarity","trial_index":210,"time_elapsed":1574255,"internal_node_id":"0.0-6.0-204.0"},{"sim_score":1,"rt":5203,"stimulus":"[\"img/0867/bf560d4f-dee3-4f11-a385-705cc1aa5f3c.jpg\",\"img/0881/19e82c47-8e4b-45d2-a6c8-74181eb4155e.jpg\"]","trial_type":"similarity","trial_index":211,"time_elapsed":1581199,"internal_node_id":"0.0-6.0-205.0"},{"sim_score":5,"rt":5299,"stimulus":"[\"img/0901/0adb3bd6-d758-4ba7-9723-3ad6cac05bd5.jpg\",\"img/0902/82d20e8c-2162-47a6-925b-52906558c046.jpg\"]","trial_type":"similarity","trial_index":212,"time_elapsed":1588228,"internal_node_id":"0.0-6.0-206.0"},{"sim_score":4,"rt":4061,"stimulus":"[\"img/0899/5b56dd3e-3f49-47cc-af84-16da6457753b.jpg\",\"img/0864/e8bd659f-aa43-4748-877e-3118e8b4e189.jpg\"]","trial_type":"similarity","trial_index":213,"time_elapsed":1593943,"internal_node_id":"0.0-6.0-207.0"},{"sim_score":2,"rt":5273,"stimulus":"[\"img/0901/1ede21d9-384f-4150-86b5-e1c57b5dc1d4.jpg\",\"img/0769/35364db7-e0d5-40ef-93dc-faf9dfb95136.jpg\"]","trial_type":"similarity","trial_index":214,"time_elapsed":1600381,"internal_node_id":"0.0-6.0-208.0"},{"sim_score":7,"rt":6036,"stimulus":"[\"img/0902/b03129ba-b087-4558-af37-e8399d6217d6.jpg\",\"img/0902/5b45a7a0-81c8-4a71-aaa2-2ce09adb5a29.jpg\"]","trial_type":"similarity","trial_index":215,"time_elapsed":1614976,"internal_node_id":"0.0-6.0-209.0"},{"view_history":"[{\"page_index\":0,\"viewing_time\":3668}]","rt":3669,"trial_type":"instructions","trial_index":216,"time_elapsed":1619681,"internal_node_id":"0.0-7.0"},{"rt":37132,"responses":"{\"Q0\":\"Tennessee Warbler\"}","answer":["Nashville Warbler"],"trial_type":"image-multi-choice","trial_index":217,"time_elapsed":1658366,"internal_node_id":"0.0-8.0-0.0"},{"rt":12453,"responses":"{\"Q0\":\"Black-and-white Warbler\"}","answer":["Black-and-white Warbler"],"trial_type":"image-multi-choice","trial_index":218,"time_elapsed":1671949,"internal_node_id":"0.0-8.0-1.0"},{"rt":10943,"responses":"{\"Q0\":\"Townsend's Warbler\"}","answer":["Townsend's Warbler"],"trial_type":"image-multi-choice","trial_index":219,"time_elapsed":1684212,"internal_node_id":"0.0-8.0-2.0"},{"rt":6812,"responses":"{\"Q0\":\"Lark Sparrow\"}","answer":["Lark Sparrow"],"trial_type":"image-multi-choice","trial_index":220,"time_elapsed":1692414,"internal_node_id":"0.0-8.0-3.0"},{"rt":5154,"responses":"{\"Q0\":\"Yellow Warbler\"}","answer":["Yellow Warbler"],"trial_type":"image-multi-choice","trial_index":221,"time_elapsed":1699340,"internal_node_id":"0.0-8.0-4.0"},{"rt":14751,"responses":"{\"Q0\":\"Nashville Warbler\"}","answer":["Orange-crowned Warbler"],"trial_type":"image-multi-choice","trial_index":222,"time_elapsed":1715860,"internal_node_id":"0.0-8.0-5.0"},{"rt":5785,"responses":"{\"Q0\":\"White-throated Sparrow\"}","answer":["White-throated Sparrow"],"trial_type":"image-multi-choice","trial_index":223,"time_elapsed":1722834,"internal_node_id":"0.0-8.0-6.0"},{"rt":5767,"responses":"{\"Q0\":\"Fox Sparrow\"}","answer":["Fox Sparrow"],"trial_type":"image-multi-choice","trial_index":224,"time_elapsed":1729751,"internal_node_id":"0.0-8.0-7.0"},{"rt":18852,"responses":"{\"Q0\":\"Lincoln's Sparrow\"}","answer":["Song Sparrow"],"trial_type":"image-multi-choice","trial_index":225,"time_elapsed":1749805,"internal_node_id":"0.0-8.0-8.0"},{"rt":7090,"responses":"{\"Q0\":\"Blackburnian Warbler\"}","answer":["Blackburnian Warbler"],"trial_type":"image-multi-choice","trial_index":226,"time_elapsed":1758697,"internal_node_id":"0.0-8.0-9.0"},{"rt":18966,"responses":"{\"Q0\":\"Vesper Sparrow\"}","answer":["Vesper Sparrow"],"trial_type":"image-multi-choice","trial_index":227,"time_elapsed":1779276,"internal_node_id":"0.0-8.0-10.0"},{"rt":5164,"responses":"{\"Q0\":\"White-crowned Sparrow\"}","answer":["White-crowned Sparrow"],"trial_type":"image-multi-choice","trial_index":228,"time_elapsed":1786217,"internal_node_id":"0.0-8.0-11.0"},{"rt":9529,"responses":"{\"Q0\":\"American Tree Sparrow\"}","answer":["American Tree Sparrow"],"trial_type":"image-multi-choice","trial_index":229,"time_elapsed":1797525,"internal_node_id":"0.0-8.0-12.0"},{"rt":17105,"responses":"{\"Q0\":\"Orange-crowned Warbler\"}","answer":["Tennessee Warbler"],"trial_type":"image-multi-choice","trial_index":230,"time_elapsed":1815872,"internal_node_id":"0.0-8.0-13.0"},{"rt":15570,"responses":"{\"Q0\":\"Magnolia Warbler\"}","answer":["Magnolia Warbler"],"trial_type":"image-multi-choice","trial_index":231,"time_elapsed":1833229,"internal_node_id":"0.0-8.0-14.0"},{"rt":6926,"responses":"{\"Q0\":\"Northern Waterthrush\"}","answer":["Northern Waterthrush"],"trial_type":"image-multi-choice","trial_index":232,"time_elapsed":1841933,"internal_node_id":"0.0-8.0-15.0"},{"rt":8818,"responses":"{\"Q0\":\"Chipping Sparrow\"}","answer":["Chipping Sparrow"],"trial_type":"image-multi-choice","trial_index":233,"time_elapsed":1852524,"internal_node_id":"0.0-8.0-16.0"},{"rt":6983,"responses":"{\"Q0\":\"Swamp Sparrow\"}","answer":["Swamp Sparrow"],"trial_type":"image-multi-choice","trial_index":234,"time_elapsed":1861162,"internal_node_id":"0.0-8.0-17.0"},{"rt":20851,"responses":"{\"Q0\":\"Song Sparrow\"}","answer":["Lincoln's Sparrow"],"trial_type":"image-multi-choice","trial_index":235,"time_elapsed":1883810,"internal_node_id":"0.0-8.0-18.0"},{"rt":5152,"responses":"{\"Q0\":\"Ovenbird\"}","answer":["Ovenbird"],"trial_type":"image-multi-choice","trial_index":236,"time_elapsed":1890788,"internal_node_id":"0.0-8.0-19.0"}]