"view_history","rt","trial_type","trial_index","time_elapsed","internal_node_id","sim_score","stimulus","responses","answer"
"[{""page_index"":0,""viewing_time"":1731}]","1731","instructions","0","1734","0.0-0.0","","","",""
"","5709","similarity_demo","1","8473","0.0-1.0","5","[""img/866.jpg"",""img/868.jpg""]","",""
"[{""page_index"":0,""viewing_time"":11492}]","11493","instructions","2","20978","0.0-2.0","","","",""
"","3581","similarity_demo","3","25569","0.0-3.0","2","[""img/766.jpg"",""img/867.jpg""]","",""
"[{""page_index"":0,""viewing_time"":5082}]","5082","instructions","4","31663","0.0-4.0","","","",""
"[{""page_index"":0,""viewing_time"":4025}]","4025","instructions","5","36705","0.0-5.0","","","",""
"","4995","similarity","6","42731","0.0-6.0-0.0","3","[""img/0868/5fa7f9d0-f0e5-454c-8224-74d964818f56.jpg"",""img/0901/a6c90438-fa7c-4418-ac7c-16c2e772dd98.jpg""]","",""
"","5284","similarity","7","49027","0.0-6.0-1.0","1","[""img/0769/11518cb3-13ea-4dd0-890c-30cfab728ade.jpg"",""img/0867/bf560d4f-dee3-4f11-a385-705cc1aa5f3c.jpg""]","",""
"","3468","similarity","8","53514","0.0-6.0-2.0","5","[""img/0766/f3276cc4-65de-4c2d-88d5-6cfebce14b8f.jpg"",""img/0898/0af304a2-6a7a-4082-ab7c-4450cd08cc58.jpg""]","",""
"","5562","similarity","9","60100","0.0-6.0-3.0","3","[""img/0902/fbef27fa-ac83-4936-ab78-9d1c20a383e1.jpg"",""img/0881/19e82c47-8e4b-45d2-a6c8-74181eb4155e.jpg""]","",""
"","5639","similarity","10","66762","0.0-6.0-4.0","7","[""img/0894/7fb082e0-ce79-485c-9109-04367fb32275.jpg"",""img/0894/bd34223a-2f66-4e16-9d18-193a746b69ff.jpg""]","",""
"","6885","similarity","11","74675","0.0-6.0-5.0","4","[""img/0874/85eb9b8a-c4c6-4e5a-b8e7-363a87a82054.jpg"",""img/0899/7f9d45d0-b2c6-40d3-aa41-c207db2c411b.jpg""]","",""
"","5257","similarity","12","80948","0.0-6.0-6.0","5","[""img/0904/5aec2708-cf14-4a58-aa30-9a8a61c1be0e.jpg"",""img/0764/55b3fab1-b809-4d38-a461-3f40ce062f52.jpg""]","",""
"","5061","similarity","13","87033","0.0-6.0-7.0","5","[""img/0899/d60714ae-98d7-4564-8c98-94dba1351135.jpg"",""img/0898/ec565187-2e31-4fdd-9a5c-153d0c789ae0.jpg""]","",""
"","5443","similarity","14","93502","0.0-6.0-8.0","1","[""img/0874/31e22c7c-99aa-40b1-bf03-dd73fa2df4d6.jpg"",""img/0903/3e9ee8a5-eb66-47f5-8973-8a5af1ddc87e.jpg""]","",""
"","6179","similarity","15","100698","0.0-6.0-9.0","7","[""img/0881/609a5e93-38b5-4940-8627-2bf8fad7f802.jpg"",""img/0758/d540bee6-b460-4c32-ac57-bc282742d7d4.jpg""]","",""
"","6253","similarity","16","107960","0.0-6.0-10.0","5","[""img/0898/f3a3f225-1248-4ac7-b93b-f0ff28485bf3.jpg"",""img/0901/b123d109-47b4-4f9a-80c9-9bb16da42efa.jpg""]","",""
"","5782","similarity","17","114758","0.0-6.0-11.0","5","[""img/0903/6b5dcc60-3ad3-4962-93e5-e6cf768477af.jpg"",""img/0769/9ea9ceb6-049e-4ad9-be8f-00645cd35803.jpg""]","",""
"","4818","similarity","18","120594","0.0-6.0-12.0","1","[""img/0764/1f95ab5f-fb65-4d70-b5db-d6bd6351a8aa.jpg"",""img/0868/179a5502-ab5c-478e-8263-5a1fbcc101d2.jpg""]","",""
"","4720","similarity","19","126333","0.0-6.0-13.0","1","[""img/0867/a749dddb-69f0-44a6-acdc-2bf295cf6dcc.jpg"",""img/0903/647ce311-8c71-479a-8361-961db1457139.jpg""]","",""
"","5763","similarity","20","133112","0.0-6.0-14.0","1","[""img/0766/00891401-e4c9-4ce1-bc19-f70740d174bc.jpg"",""img/0758/eabcd7a8-56ad-4fd2-bc24-90f6b7b33265.jpg""]","",""
"","5899","similarity","21","140025","0.0-6.0-15.0","3","[""img/0902/31abfa33-7cdb-44ad-968e-9f7b324d577a.jpg"",""img/0860/c47fdead-eb02-4989-b078-26f4852f44fe.jpg""]","",""
"","5678","similarity","22","146723","0.0-6.0-16.0","4","[""img/0769/8c7cf147-1780-4d5c-8ddf-5ea23ff03ac9.jpg"",""img/0875/34132396-d896-4c2d-8087-646dd867e769.jpg""]","",""
"","4462","similarity","23","152203","0.0-6.0-17.0","2","[""img/0904/60d1a521-edf7-4696-9263-f21ac0e62a01.jpg"",""img/0866/620cd1aa-0800-4414-8f6e-90342e7a99ad.jpg""]","",""
"","4794","similarity","24","158017","0.0-6.0-18.0","7","[""img/0875/e7e66b13-b573-431e-b85e-288ce04a35a3.jpg"",""img/0875/cff79b3a-a797-4393-9757-6275f999ec04.jpg""]","",""
"","5542","similarity","25","164576","0.0-6.0-19.0","7","[""img/0758/3ddd05d3-557e-4ee7-8b78-9d2d681d8ae2.jpg"",""img/0758/65d426d6-3ff6-415d-8654-a43b83ecc4fe.jpg""]","",""
"","10520","similarity","26","176110","0.0-6.0-20.0","2","[""img/0902/c018bd7a-d91a-4192-aea4-7259cfcdb6c4.jpg"",""img/0874/ca76a855-4e77-4f2f-872a-0a718153e7ed.jpg""]","",""
"","5086","similarity","27","182213","0.0-6.0-21.0","5","[""img/0764/56441045-b648-4ede-9632-3e9c0227080b.jpg"",""img/0769/91acb237-65a3-4d0b-9748-af5c7b83d3c7.jpg""]","",""
"","4210","similarity","28","187434","0.0-6.0-22.0","1","[""img/0901/6e2957f8-f5ab-46f4-87cc-bb50155a098b.jpg"",""img/0874/2c9464dd-8a23-4baa-ac94-1ba3af5c15cc.jpg""]","",""
"","4848","similarity","29","193301","0.0-6.0-23.0","1","[""img/0875/90da8d75-108a-44ad-b999-e21fee3860d3.jpg"",""img/0903/71dbc325-b588-4297-a5cf-7f268a722ad9.jpg""]","",""
"","4948","similarity","30","199269","0.0-6.0-24.0","4","[""img/0769/f6396414-6788-4d59-9683-de153298d89c.jpg"",""img/0881/4bd34581-94d8-4e88-8c89-5cef864ca3be.jpg""]","",""
"","5782","similarity","31","206071","0.0-6.0-25.0","2","[""img/0867/50a1b60e-3a29-44bf-b606-d4bd3746fea9.jpg"",""img/0904/06dacdc5-2206-4fb8-92b7-88042d22833c.jpg""]","",""
"","4797","similarity","32","211878","0.0-6.0-26.0","3","[""img/0860/87039971-2210-4aab-93c0-8e9b5f1655b2.jpg"",""img/0881/405484ae-0d00-4b05-bc57-6420a36adfac.jpg""]","",""
"","7007","similarity","33","219894","0.0-6.0-27.0","7","[""img/0866/d493a2c8-66eb-44b4-be02-2f327b700b7c.jpg"",""img/0866/93a27239-8317-4e08-98ca-d8b1ff298e07.jpg""]","",""
"","7938","similarity","34","228853","0.0-6.0-28.0","2","[""img/0764/d0bef2e0-e16b-4c82-9451-c1d16265eb67.jpg"",""img/0862/99a99e39-8355-44ec-b993-e7bcec111e1c.jpg""]","",""
"","7280","similarity","35","237147","0.0-6.0-29.0","2","[""img/0904/25365108-e038-4021-aac9-797f2063b337.jpg"",""img/0758/d41c06bf-ebaf-454b-91c6-1a17f917b659.jpg""]","",""
"","4770","similarity","36","242938","0.0-6.0-30.0","1","[""img/0894/1a010553-d598-4b06-a772-81f1e7b3addb.jpg"",""img/0899/5b56dd3e-3f49-47cc-af84-16da6457753b.jpg""]","",""
"","6211","similarity","37","250162","0.0-6.0-31.0","3","[""img/0860/94ef7afc-e0e6-4a15-98c6-0bfac82bc832.jpg"",""img/0904/e9423a8c-f946-43ad-ab7b-931acef870e2.jpg""]","",""
"","4741","similarity","38","255920","0.0-6.0-32.0","7","[""img/0874/995f0332-0439-4eb4-add3-957335dbf6d9.jpg"",""img/0881/20af39f5-373d-4a55-a437-2dc4c0382c46.jpg""]","",""
"","4631","similarity","39","261562","0.0-6.0-33.0","1","[""img/0881/7e822106-76f7-4b10-a805-14dc68b2cfaf.jpg"",""img/0899/0433d056-aa30-4f8a-9aa1-abbb951e4edd.jpg""]","",""
"","3507","similarity","40","266088","0.0-6.0-34.0","1","[""img/0866/be24ab58-230e-4db8-9f45-ff04c9aec6bb.jpg"",""img/0862/e8cc3bdf-cc43-4565-bccf-492626c70953.jpg""]","",""
"","5380","similarity","41","272477","0.0-6.0-35.0","2","[""img/0868/15dd6fd7-791e-4b53-b203-195d617521a4.jpg"",""img/0894/b422d5c6-3c5a-49ae-a53e-7e88ac993f49.jpg""]","",""
"","6336","similarity","42","279835","0.0-6.0-36.0","7","[""img/0860/8277806e-b684-4474-8f7b-3fca946d7d4f.jpg"",""img/0860/71e1aad0-2cdf-43bb-94a4-a8c016997c30.jpg""]","",""
"","5760","similarity","43","286615","0.0-6.0-37.0","5","[""img/0862/92fcd8a4-8193-4a6a-ae09-dd4a6338b0df.jpg"",""img/0864/efcfbb1b-8197-44c9-b723-40d6c608dd3c.jpg""]","",""
"","4061","similarity","44","291691","0.0-6.0-38.0","1","[""img/0766/0025de5e-f620-4079-8a0f-00326ff3a6b0.jpg"",""img/0866/a04d37f0-99dd-478a-b6c6-58b215138f84.jpg""]","",""
"","5124","similarity","45","297823","0.0-6.0-39.0","2","[""img/0875/fb732ab5-013a-4366-9f65-27811ed157e9.jpg"",""img/0898/0c7dde4f-efce-4b7a-9387-6921635b7890.jpg""]","",""
"","4221","similarity","46","303055","0.0-6.0-40.0","5","[""img/0766/79767d11-b612-4e8a-9e4b-a8ac95bb6a54.jpg"",""img/0769/c34b7763-8ff2-46d5-9e92-f1d8f3bedbd8.jpg""]","",""
"","7255","similarity","47","348379","0.0-6.0-41.0","4","[""img/0874/ca23d307-fc00-4d7d-9106-584c6eb21b4d.jpg"",""img/0764/8389e74f-e0e0-435d-945f-da1f4c92ccb6.jpg""]","",""
"","4085","similarity","48","353480","0.0-6.0-42.0","1","[""img/0868/6a28c3b0-3d76-498a-9fb7-ddafc665eca8.jpg"",""img/0902/d49743d6-67ae-4c2e-a939-8fd895a0f18e.jpg""]","",""
"","4079","similarity","49","358577","0.0-6.0-43.0","1","[""img/0875/d59ff733-eaff-4ee2-9443-06954dd0bcb6.jpg"",""img/0899/fef567a2-c121-4481-9af0-ff108d199bbf.jpg""]","",""
"","4367","similarity","50","363954","0.0-6.0-44.0","5","[""img/0866/d266fece-59b3-46fa-b69f-96f6efb81b59.jpg"",""img/0860/8fdba999-b946-4c7d-9891-336018b563ef.jpg""]","",""
"","4769","similarity","51","369731","0.0-6.0-45.0","5","[""img/0766/ae0fce93-fe8d-4aa1-87ca-4c3e4b889f2f.jpg"",""img/0903/aa842abe-6fa3-448a-bf71-88d3ad28663b.jpg""]","",""
"","6555","similarity","52","377294","0.0-6.0-46.0","4","[""img/0901/1b86f2fc-7a1d-4aa8-9252-114f92edef3b.jpg"",""img/0904/0d17b811-063e-416e-a23c-3b3cfa4fcce5.jpg""]","",""
"","3972","similarity","53","382271","0.0-6.0-47.0","2","[""img/0758/b76ceca7-95ac-46e4-ac13-da02c8e93be9.jpg"",""img/0902/418b716e-63e5-4c77-93e9-95b1f5a3ddf0.jpg""]","",""
"","4577","similarity","54","387864","0.0-6.0-48.0","7","[""img/0764/c80b3e06-2ee3-4326-9678-340607eb5348.jpg"",""img/0764/cffc80b0-4a90-4acb-a530-6f480f3ca303.jpg""]","",""
"","3637","similarity","55","392517","0.0-6.0-49.0","2","[""img/0866/23a224f3-2012-4fc8-8e0f-3c36f8de27fd.jpg"",""img/0902/0eb85fbc-27c8-41df-9d0b-a5f9efd417d1.jpg""]","",""
"","4245","similarity","56","397776","0.0-6.0-50.0","2","[""img/0764/7f4ee8e3-9315-4a57-be7d-db8454b33766.jpg"",""img/0758/e38fd80d-18d0-42f3-b848-f930788e8bd7.jpg""]","",""
"","4566","similarity","57","403361","0.0-6.0-51.0","6","[""img/0898/b2732712-71c2-45d8-834f-2b2ed5504910.jpg"",""img/0894/7dd6ff43-f8fc-408a-8a41-a2b261871820.jpg""]","",""
"","4888","similarity","58","409263","0.0-6.0-52.0","6","[""img/0875/99698b4d-b4a1-44bc-8c83-8ea755bbbf61.jpg"",""img/0866/8efcaa46-83ab-4dee-a35f-850402aa21ae.jpg""]","",""
"","5484","similarity","59","415761","0.0-6.0-53.0","7","[""img/0904/96e503ea-6630-4996-85f2-0237688ce441.jpg"",""img/0904/1d10df11-b5c8-4370-9a6b-097a7f965895.jpg""]","",""
"","5412","similarity","60","422189","0.0-6.0-54.0","7","[""img/0769/057eb0a0-aa5b-40c7-9852-21444f68d767.jpg"",""img/0769/38a88f69-28fd-4bbd-99f0-f4c02bfd3995.jpg""]","",""
"","4368","similarity","61","427567","0.0-6.0-55.0","1","[""img/0898/82231d4c-218b-4d0a-b50d-35a49b524e97.jpg"",""img/0758/53f35650-e455-4b53-8be4-c3c8271c6466.jpg""]","",""
"","5012","similarity","62","433593","0.0-6.0-56.0","6","[""img/0769/bb8c4e53-6f32-4814-97ee-392d4decfb2e.jpg"",""img/0902/a6fb6dd5-696c-47ec-be7d-d7b88f1544f1.jpg""]","",""
"","8372","similarity","63","442984","0.0-6.0-57.0","6","[""img/0864/e02eddb5-f468-499c-91bf-f7be3ffe979b.jpg"",""img/0881/14236cf2-6b95-48b8-9368-78af09d2d27f.jpg""]","",""
"","4700","similarity","64","448703","0.0-6.0-58.0","2","[""img/0758/a085b443-b5d7-4cb2-9ad4-b9dab0fc23f1.jpg"",""img/0868/7b212364-ff5f-4e28-9241-7eb6ea00161b.jpg""]","",""
"","5563","similarity","65","455270","0.0-6.0-59.0","2","[""img/0862/ee3b7bff-4a70-4e84-9bea-4a565e456acb.jpg"",""img/0769/da36e3f7-2337-434f-ab57-11822dd7eed7.jpg""]","",""
"","4553","similarity","66","460829","0.0-6.0-60.0","1","[""img/0764/f9f890e6-3c2f-40cd-84e9-85e0b54cb28e.jpg"",""img/0903/72197c2b-403e-4a26-b391-f1aa8dea4b76.jpg""]","",""
"","4673","similarity","67","466520","0.0-6.0-61.0","7","[""img/0899/f95cbdb4-f804-4f5d-ad76-373ad343e658.jpg"",""img/0899/fd9efb43-701f-4cd6-baaa-4c38315f4bdc.jpg""]","",""
"","7395","similarity","68","474931","0.0-6.0-62.0","5","[""img/0860/c5ccd1a4-4bb7-48e1-9b25-72cfaf06909b.jpg"",""img/0875/dbdd643e-6d0e-4a5c-ab57-b9c29b9c981a.jpg""]","",""
"","4984","similarity","69","480925","0.0-6.0-63.0","2","[""img/0868/e0aff734-077f-40dd-9781-74821abd3621.jpg"",""img/0874/99f6563c-8a8d-4c1c-a41d-667b618c3fd5.jpg""]","",""
"","6130","similarity","70","488075","0.0-6.0-64.0","3","[""img/0758/6e95579b-5166-487c-b8cb-e417c6a218e3.jpg"",""img/0862/ba89835a-408c-480b-8594-ed4ffa97eb5c.jpg""]","",""
"","7391","similarity","71","496472","0.0-6.0-65.0","5","[""img/0904/0d25eb24-bb20-4e8d-9787-8b489558b4cb.jpg"",""img/0898/c3cecf20-f7fd-45fa-97d0-dc0a63e8d6c0.jpg""]","",""
"","4622","similarity","72","502107","0.0-6.0-66.0","2","[""img/0881/ed4c971f-0873-4fc8-b6d6-e8bbd82f0bcc.jpg"",""img/0866/c446214b-a368-4c65-ae39-ea46894256ab.jpg""]","",""
"","4724","similarity","73","507851","0.0-6.0-67.0","1","[""img/0867/c71dc569-f49c-4397-8381-68b8d726736d.jpg"",""img/0898/6cd3830b-d44e-4915-be2b-88d31424b91c.jpg""]","",""
"","5146","similarity","74","514005","0.0-6.0-68.0","6","[""img/0902/af45fe42-178c-4c1a-99ef-256e87e3b092.jpg"",""img/0764/cbdc4f20-3a9a-4211-9b40-090699e0abcc.jpg""]","",""
"","5026","similarity","75","520042","0.0-6.0-69.0","6","[""img/0875/2e13d160-eea1-416b-aff1-d37ab99ecc1d.jpg"",""img/0867/de92135f-5b65-4ed9-b245-188292c7c2f8.jpg""]","",""
"","5254","similarity","76","526316","0.0-6.0-70.0","4","[""img/0766/989c5c7f-1aff-4442-ac63-9d46acf4a891.jpg"",""img/0764/f713847b-4832-42d1-8fb3-e17e37fd745c.jpg""]","",""
"","6389","similarity","77","533716","0.0-6.0-71.0","3","[""img/0894/10f22b96-040c-44f4-950b-a4963f3f506c.jpg"",""img/0867/2e1a0b58-cdb1-4107-a14e-452530d7b9b0.jpg""]","",""
"","4391","similarity","78","539126","0.0-6.0-72.0","1","[""img/0875/2c361b79-c3d1-4eda-812e-bf03192407bf.jpg"",""img/0764/4952d0a0-c9be-471a-8ec7-94a37bf4051d.jpg""]","",""
"","4888","similarity","79","545037","0.0-6.0-73.0","6","[""img/0867/1719a35d-f085-48c0-9099-16c94fe418b4.jpg"",""img/0866/bf14b5bd-fb55-47db-86b9-4f8aeb9a6dad.jpg""]","",""
"","6644","similarity","80","552703","0.0-6.0-74.0","2","[""img/0903/d987e220-f3e6-4b6d-a270-fe6757041f6d.jpg"",""img/0758/7ffbc76b-1fc1-432c-8f7e-9ec8d1b3f643.jpg""]","",""
"","4606","similarity","81","558318","0.0-6.0-75.0","1","[""img/0766/d14acac4-7db1-4b07-8f8f-302437326fc0.jpg"",""img/0868/d98ca254-b195-477f-b57e-5760a2717db8.jpg""]","",""
"","4672","similarity","82","564007","0.0-6.0-76.0","3","[""img/0874/eba003b4-cdab-4eee-8bc3-f064c7d94165.jpg"",""img/0766/d512b99c-a2dc-40d7-8e86-827323a0cbcf.jpg""]","",""
"","8111","similarity","83","573135","0.0-6.0-77.0","1","[""img/0881/6b1189e6-232d-4042-8885-16dc7b10e0d4.jpg"",""img/0868/09a9ef4d-d000-4cfa-a6aa-ebec7c2edeb4.jpg""]","",""
"","4643","similarity","84","578786","0.0-6.0-78.0","1","[""img/0758/335851a0-a55b-46d8-ab05-8463eda48349.jpg"",""img/0901/50e1d53e-a49f-4806-8610-be6dec5a2475.jpg""]","",""
"","5457","similarity","85","585263","0.0-6.0-79.0","2","[""img/0881/633c6f40-56d9-4b48-bf1c-ecd83116eabb.jpg"",""img/0898/993d8f2d-bef7-4251-a193-0f93a32b7763.jpg""]","",""
"","5281","similarity","86","591564","0.0-6.0-80.0","1","[""img/0867/8ba0c5a7-c7e4-42cf-a80a-543763b90779.jpg"",""img/0758/20497cbe-ddae-489e-86e2-ab06985ed07c.jpg""]","",""
"","5352","similarity","87","597937","0.0-6.0-81.0","6","[""img/0769/0fe124d3-bcad-45f6-b64d-8f6eb8ee5251.jpg"",""img/0899/56a605c3-d0a2-4215-89e1-779279d85a7c.jpg""]","",""
"","4925","similarity","88","603880","0.0-6.0-82.0","7","[""img/0903/59defeb8-98bd-4570-a2f8-9bd189e68ef4.jpg"",""img/0903/150cf64c-0bd2-4674-abbb-a1387cf1f3e9.jpg""]","",""
"","4434","similarity","89","627820","0.0-6.0-83.0","1","[""img/0867/f8488a47-94ee-4166-952c-44e16cf172f6.jpg"",""img/0766/51d3aab4-3d09-4dda-b99d-3dc7aaabc6f2.jpg""]","",""
"","3462","similarity","90","632295","0.0-6.0-84.0","1","[""img/0902/2a7ac123-414a-476a-9a96-4757b924baef.jpg"",""img/0867/5e07b34d-b40f-4b1c-ac10-49975bace45f.jpg""]","",""
"","4327","similarity","91","637643","0.0-6.0-85.0","1","[""img/0901/5657dd86-0ff9-4753-ba2b-9dfb223e5c89.jpg"",""img/0875/f87b67d7-c33e-40d1-b281-248c4be1cb6e.jpg""]","",""
"","5111","similarity","92","643776","0.0-6.0-86.0","1","[""img/0764/29072395-f595-4e3c-83d3-ff87010039fa.jpg"",""img/0866/4a87911a-d5be-4d4e-ab8e-3d1f581bf507.jpg""]","",""
"","4744","similarity","93","649539","0.0-6.0-87.0","3","[""img/0901/31c032fd-3c3d-4882-a226-da9a80198937.jpg"",""img/0894/e5edf723-72a5-4673-8441-6c1734a8929b.jpg""]","",""
"","5421","similarity","94","655981","0.0-6.0-88.0","2","[""img/0898/26c41340-15bd-4ead-8fe4-c0d0ddca09c2.jpg"",""img/0769/e8ed913b-8a88-44f6-9327-d34afec3116b.jpg""]","",""
"","5585","similarity","95","662580","0.0-6.0-89.0","5","[""img/0769/4a1d0b52-3fe8-40fb-bb1c-c814fe49a68c.jpg"",""img/0894/9b1333fd-3561-43bf-aee5-99b7b7ca3dc3.jpg""]","",""
"","7010","similarity","96","670602","0.0-6.0-90.0","2","[""img/0862/fad1d7c1-8187-43c3-942a-0fc12183e48e.jpg"",""img/0874/a82926a3-0b43-4add-803c-d5f9ea7798ee.jpg""]","",""
"","5453","similarity","97","677077","0.0-6.0-91.0","5","[""img/0894/5a49e858-2850-4892-9a06-e9f0efb5f94d.jpg"",""img/0766/e8052e17-9dae-4139-802b-6e590cb2d526.jpg""]","",""
"","4069","similarity","98","682167","0.0-6.0-92.0","1","[""img/0874/1016b306-087c-4afc-aa08-fa527b28dc76.jpg"",""img/0867/075e0f95-856b-4cbb-acf5-092393aaf04e.jpg""]","",""
"","4189","similarity","99","687377","0.0-6.0-93.0","1","[""img/0899/8abe6c69-822c-436c-9bf2-96c818b49ba5.jpg"",""img/0868/d6d1f30d-4323-435a-b194-7892521bc57e.jpg""]","",""
"","6974","similarity","100","695367","0.0-6.0-94.0","4","[""img/0903/81368973-de81-46f4-844f-b901f3bfd66d.jpg"",""img/0862/92f0146c-20c4-482e-aef5-adb693790338.jpg""]","",""
"","5724","similarity","101","702098","0.0-6.0-95.0","5","[""img/0899/76ad07e2-ca25-45eb-84f2-8d80b8ca3e26.jpg"",""img/0766/ea09dd5a-d24d-4e97-a099-7da3db1baef1.jpg""]","",""
"","4827","similarity","102","707939","0.0-6.0-96.0","6","[""img/0867/98d8cd96-1476-4fe0-a3a3-04f875500a1b.jpg"",""img/0868/4a8a45ed-2c4f-421b-9564-409a33ecd26c.jpg""]","",""
"","5704","similarity","103","714660","0.0-6.0-97.0","3","[""img/0862/00c06b00-3b73-44e9-bc1e-c5aafb438321.jpg"",""img/0901/4ca4f962-40c0-4c59-b14a-3cd7b8c9029b.jpg""]","",""
"","4752","similarity","104","720425","0.0-6.0-98.0","1","[""img/0875/527ced51-8e53-4aab-ab05-86df219104c0.jpg"",""img/0766/26d3ae14-8275-4e08-99b2-a6598c193ddf.jpg""]","",""
"","5332","similarity","105","726768","0.0-6.0-99.0","4","[""img/0758/7ee8bc8f-c40b-4b3a-84ec-3e83580622d4.jpg"",""img/0874/767f289c-9814-4496-803f-745cc8913d1f.jpg""]","",""
"","4095","similarity","106","731880","0.0-6.0-100.0","4","[""img/0904/a8c3c7d2-9bcf-4347-9e03-8203adfc1fc5.jpg"",""img/0868/4e626425-63c8-484a-8a1d-e66ee4e0bef8.jpg""]","",""
"","4681","similarity","107","737581","0.0-6.0-101.0","3","[""img/0903/8fcafe03-43df-4c45-9da5-0df3a1eeccc5.jpg"",""img/0866/6f2a90d7-14f1-4f1b-bd64-fc0af6b9fe44.jpg""]","",""
"","5274","similarity","108","743865","0.0-6.0-102.0","2","[""img/0868/3a62db2d-97e9-44a3-b8e3-a48c6f0e423b.jpg"",""img/0769/f229321f-04dd-42d7-b14a-ffad6b509862.jpg""]","",""
"","4693","similarity","109","749571","0.0-6.0-103.0","3","[""img/0902/417d8b4a-3c72-4adc-ac78-820e833316f2.jpg"",""img/0899/7b7380d5-d2be-44e5-a09a-c1756f87ef71.jpg""]","",""
"","4282","similarity","110","754868","0.0-6.0-104.0","1","[""img/0868/0d3abd3a-b6c3-4584-a9f7-e2da63748b3d.jpg"",""img/0862/064818ee-13d5-4618-bb24-21c7368ea278.jpg""]","",""
"","5931","similarity","111","761807","0.0-6.0-105.0","4","[""img/0903/470acfd5-5571-4a7b-b3a4-28d87e098138.jpg"",""img/0894/86201968-6e78-4d68-9b3a-d1692e066210.jpg""]","",""
"","4606","similarity","112","767435","0.0-6.0-106.0","5","[""img/0864/e336a4c5-6648-4fd7-b2f6-93a3fb83f8c6.jpg"",""img/0874/a3bc679d-619f-4db6-bb68-116dcb757d9c.jpg""]","",""
"","6112","similarity","113","774567","0.0-6.0-107.0","5","[""img/0862/a0a3a7ba-7798-46a3-b4ca-05e1f6e581d0.jpg"",""img/0902/95a36b6b-9601-4fa5-8fd9-606ea62f9425.jpg""]","",""
"","5680","similarity","114","781264","0.0-6.0-108.0","5","[""img/0904/b5855d6a-7ef9-46ca-9215-6e9fa046e543.jpg"",""img/0903/c708d08f-a108-4e04-8288-c3fcf6375db4.jpg""]","",""
"","8708","similarity","115","790992","0.0-6.0-109.0","2","[""img/0764/b887d7c6-aa81-4637-af8e-05135757ac59.jpg"",""img/0864/5f33e097-23e3-4002-882d-76e8cb15f451.jpg""]","",""
"","5222","similarity","116","797219","0.0-6.0-110.0","2","[""img/0866/f756f7d1-9ad8-4a34-9ef6-7a443d705bfe.jpg"",""img/0894/133a1636-d123-4893-873c-1718050f832a.jpg""]","",""
"","5567","similarity","117","803792","0.0-6.0-111.0","3","[""img/0899/4f7bc593-8ddd-4da3-a0b9-84da730d3370.jpg"",""img/0903/b0a3c45f-467e-412f-a183-c9c1827f2e63.jpg""]","",""
"","5837","similarity","118","810652","0.0-6.0-112.0","4","[""img/0902/30c420f5-c714-4681-ae5a-c0ba8f636a26.jpg"",""img/0904/da170c1b-9651-4f08-b231-2bdd1d9a046f.jpg""]","",""
"","5754","similarity","119","817411","0.0-6.0-113.0","2","[""img/0864/afcba0a3-7e27-4757-b254-e9f05fad27e2.jpg"",""img/0860/15b24a61-25be-4356-9eac-5ce95d0cb4a4.jpg""]","",""
"","6179","similarity","120","824606","0.0-6.0-114.0","2","[""img/0860/9593362c-9fe5-4d12-9735-6000a11f6aa5.jpg"",""img/0899/51a7a498-98c7-42d7-bca8-bc2d8f0b5831.jpg""]","",""
"","10167","similarity","121","835794","0.0-6.0-115.0","2","[""img/0881/ee44e27f-d662-4608-b265-e7ffa19b216f.jpg"",""img/0903/c3cb4a01-2797-43ca-b216-88c67b323fbb.jpg""]","",""
"","6691","similarity","122","843500","0.0-6.0-116.0","3","[""img/0894/b2d2f66e-e480-46da-a02a-6d0c6b285d78.jpg"",""img/0874/8cdb1c07-1c32-46d2-981c-3636560fa6e5.jpg""]","",""
"","6349","similarity","123","850867","0.0-6.0-117.0","5","[""img/0881/5fe04dd0-5c74-47b7-99c8-b068db9ca26a.jpg"",""img/0862/57b6f83f-c763-4858-830d-102f97bfefbf.jpg""]","",""
"","4906","similarity","124","856780","0.0-6.0-118.0","3","[""img/0868/4bd5105a-d2c3-4f82-8c80-57196106ba53.jpg"",""img/0875/ebf7653f-ff45-4e9f-af58-2c042ab3cd2b.jpg""]","",""
"","6967","similarity","125","864755","0.0-6.0-119.0","2","[""img/0860/702bd09d-df3a-40aa-a267-5f04474305b5.jpg"",""img/0758/dd559618-7f09-4a07-8018-d311c4a5ea29.jpg""]","",""
"","6789","similarity","126","872557","0.0-6.0-120.0","1","[""img/0864/3651d070-2fc5-4848-b6a6-088a2d9ac5c9.jpg"",""img/0875/8521fd58-3b1e-4dc5-97ae-804edfa6734a.jpg""]","",""
"","5109","similarity","127","878674","0.0-6.0-121.0","5","[""img/0898/81b08535-2020-4c15-9ce4-2f1e460755ae.jpg"",""img/0866/07c9c966-3c8d-40e7-8128-92b2acbaed5d.jpg""]","",""
"","2887","similarity","128","882575","0.0-6.0-122.0","4","[""img/0874/7e4f2150-3b59-4a36-b5da-a4e0ba410531.jpg"",""img/0904/63dd06dd-dccb-47ba-9740-eb33239e18a7.jpg""]","",""
"","5134","similarity","129","888726","0.0-6.0-123.0","5","[""img/0904/4b8daf2a-13a9-4ea9-9e0b-b265b6e933e7.jpg"",""img/0864/1d15626a-2f7c-410f-819c-0fa2c967e95e.jpg""]","",""
"","5942","similarity","130","895679","0.0-6.0-124.0","5","[""img/0894/c505c65a-cde2-4f2c-8cde-f8676f7c894d.jpg"",""img/0902/0c760cc9-10ac-429e-8957-a7d51fc99683.jpg""]","",""
"","4219","similarity","131","904036","0.0-6.0-125.0","1","[""img/0868/293079b8-7e0c-4afd-a390-1e5d35fe3ded.jpg"",""img/0864/c22faebd-9c53-47bc-ada3-b9a30c688e75.jpg""]","",""
"","5471","similarity","132","910525","0.0-6.0-126.0","1","[""img/0899/a05bea16-2bb4-4cb9-b8fb-4ff975db6971.jpg"",""img/0866/9b38d691-1802-4959-ab3f-fc902f0e4ea6.jpg""]","",""
"","5021","similarity","133","916565","0.0-6.0-127.0","3","[""img/0875/5a7c4e35-6514-4e12-8879-d16071da4cd6.jpg"",""img/0904/fe746a3f-8458-48d0-8a13-8cba2a9df9f8.jpg""]","",""
"","4112","similarity","134","921699","0.0-6.0-128.0","2","[""img/0867/26611f4e-d694-4460-b7e2-43c62753ddc3.jpg"",""img/0899/66bf4113-ee12-426c-84d2-ea410b6c803e.jpg""]","",""
"","4920","similarity","135","927642","0.0-6.0-129.0","2","[""img/0901/bc47e078-bda4-40ed-b89a-bbd819164b95.jpg"",""img/0867/12264664-1860-46df-8c21-162b9817cdda.jpg""]","",""
"","5147","similarity","136","933812","0.0-6.0-130.0","2","[""img/0864/300bb811-8b3c-4c42-8653-6097c3725197.jpg"",""img/0769/50985283-d353-4abc-9abe-14a91d56ebe6.jpg""]","",""
"","3441","similarity","137","938273","0.0-6.0-131.0","4","[""img/0903/ea75f240-fb62-4edb-a709-83e858b202c0.jpg"",""img/0868/1a62b2b2-18f5-466e-b564-5176a57c565e.jpg""]","",""
"","3257","similarity","138","942536","0.0-6.0-132.0","1","[""img/0864/4bd81bc6-c13d-46df-95a9-485886dc7c1b.jpg"",""img/0867/179ab87a-8eac-4c52-a41f-2e48e3120f09.jpg""]","",""
"","4367","similarity","139","947915","0.0-6.0-133.0","5","[""img/0901/a9b9c0a0-8aed-4888-a78a-65fb7e764d13.jpg"",""img/0860/4a022222-056d-461c-ab02-39fac9647552.jpg""]","",""
"","4962","similarity","140","953888","0.0-6.0-134.0","3","[""img/0881/f62bdcd1-a4b7-4d48-83da-d9c9e01c8727.jpg"",""img/0766/a754e4b6-5019-4cf4-8f58-34c20547a1f5.jpg""]","",""
"","5388","similarity","141","960299","0.0-6.0-135.0","2","[""img/0903/9b60ef5b-234f-4239-892b-3d4c412accc2.jpg"",""img/0864/c3b63e8f-ea39-4d70-a1f2-b3fe4be8eb75.jpg""]","",""
"","4774","similarity","142","966085","0.0-6.0-136.0","1","[""img/0758/67c0be2f-9e91-48b3-8219-70ac0a1802fa.jpg"",""img/0894/792c83e9-a747-4000-bc72-5663d2439edb.jpg""]","",""
"","4970","similarity","143","972064","0.0-6.0-137.0","3","[""img/0769/8056889f-2b14-4782-bb25-b4e8896ab65b.jpg"",""img/0860/524b2e98-5767-4d53-942c-ebae6925659b.jpg""]","",""
"","6149","similarity","144","979228","0.0-6.0-138.0","2","[""img/0904/73920552-103b-4c9c-9ece-e0b8376b4504.jpg"",""img/0766/908bc45b-7c9e-4f95-806e-86b196ebcb2c.jpg""]","",""
"","4766","similarity","145","984998","0.0-6.0-139.0","3","[""img/0868/fd307a36-9a3a-47d7-ab7c-f810d0b35040.jpg"",""img/0860/18dfed73-e36b-4487-a8bd-0b8cff8e3668.jpg""]","",""
"","5852","similarity","146","991874","0.0-6.0-140.0","3","[""img/0758/caa93da2-9edf-49fa-96b9-32dedd8f5078.jpg"",""img/0864/a248adb3-c70b-4652-b7a3-776d2a1e904b.jpg""]","",""
"","4859","similarity","147","997745","0.0-6.0-141.0","7","[""img/0867/db7e032f-162b-46f5-ae67-2b29679adee4.jpg"",""img/0867/f26f6b60-f772-4f4c-95a4-addc62cfd692.jpg""]","",""
"","4723","similarity","148","1003475","0.0-6.0-142.0","7","[""img/0898/8605a25b-6895-476d-8c13-df7a83f96093.jpg"",""img/0898/b3290bf9-215b-4b45-b21a-65bdf73f142f.jpg""]","",""
"","4435","similarity","149","1008924","0.0-6.0-143.0","2","[""img/0866/a15b02be-11bb-43e3-b0e0-ecc3bd7dfc49.jpg"",""img/0769/35f2dd39-40aa-498e-b401-9f1ef2622d00.jpg""]","",""
"","4372","similarity","150","1014315","0.0-6.0-144.0","5","[""img/0860/c7047cd2-7cc1-41b6-8a34-c0986774975f.jpg"",""img/0898/68476bbb-34a1-42d9-8bc1-deab783d4489.jpg""]","",""
"","7023","similarity","151","1022361","0.0-6.0-145.0","3","[""img/0766/60033a74-9919-47e5-913c-71d0d483e7e5.jpg"",""img/0864/ea327690-500b-4137-bf91-451b309fe6a5.jpg""]","",""
"","5444","similarity","152","1028809","0.0-6.0-146.0","5","[""img/0860/c3379ff7-0763-48fe-a1ec-7ea3d611bc7a.jpg"",""img/0903/6f343da5-00d9-4d50-89d1-2ed24cdb8319.jpg""]","",""
"","4120","similarity","153","1033939","0.0-6.0-147.0","2","[""img/0867/a498eef3-9fa4-4ab2-9778-4ae82ac40dc5.jpg"",""img/0764/e42c1dc9-7831-4995-be19-7ca7b4d141fc.jpg""]","",""
"","4668","similarity","154","1039630","0.0-6.0-148.0","6","[""img/0769/458d9c77-b844-40b5-bb1b-1e3bbd4da64e.jpg"",""img/0904/2f88ce53-02d0-4f95-a082-182c56a0eeb4.jpg""]","",""
"","7133","similarity","155","1047788","0.0-6.0-149.0","3","[""img/0764/8740679b-b56f-4292-aece-14063457113a.jpg"",""img/0901/77087ed2-6e12-4329-b2a5-605bca6d972d.jpg""]","",""
"","4211","similarity","156","1053010","0.0-6.0-150.0","6","[""img/0904/ba8e689e-9ca6-4608-a2a1-3b0940666ae6.jpg"",""img/0899/565ccdd9-0933-4536-a625-3c0e25a713dd.jpg""]","",""
"","5056","similarity","157","1059075","0.0-6.0-151.0","2","[""img/0862/24cdc752-c2e5-4a17-86a6-6f2045d8553b.jpg"",""img/0867/85a96c62-548f-4994-9553-819e03c3135a.jpg""]","",""
"","4529","similarity","158","1064613","0.0-6.0-152.0","7","[""img/0766/1bc0dccc-a5b5-4375-87fa-28360ca42b12.jpg"",""img/0766/ef3b15ce-abb7-4292-ad93-aec8e8b50520.jpg""]","",""
"","5234","similarity","159","1070864","0.0-6.0-153.0","3","[""img/0862/cdaed51d-9e2f-4807-801a-4663c40077e2.jpg"",""img/0894/3adef67d-7676-4995-80b2-bb31b8aca3ef.jpg""]","",""
"","5660","similarity","160","1077534","0.0-6.0-154.0","5","[""img/0899/d8f2dd94-570e-4e8c-a087-d96090fb9e8c.jpg"",""img/0901/fb0a8e69-7f19-4e6e-a6bb-a48f97f9b4f3.jpg""]","",""
"","4470","similarity","161","1083012","0.0-6.0-155.0","6","[""img/0874/3ce41e7c-40c8-4d58-a546-171114521796.jpg"",""img/0874/93d1f8dc-acf2-4f03-bd8d-8ec35df276ed.jpg""]","",""
"","3672","similarity","162","1087700","0.0-6.0-156.0","4","[""img/0860/fd4662f9-4c03-4d79-8593-06735e55a64b.jpg"",""img/0867/6e19c858-b606-45b2-a4c6-910a73f1d82c.jpg""]","",""
"","3880","similarity","163","1092590","0.0-6.0-157.0","2","[""img/0901/ae1e6ce4-2e10-4ca9-b1e7-21628637ab74.jpg"",""img/0881/48ed65a5-471f-41af-86ec-3793805c116d.jpg""]","",""
"","4222","similarity","164","1097822","0.0-6.0-158.0","6","[""img/0903/0a92ec52-4e87-410a-857a-4455cde56a70.jpg"",""img/0902/d1083f2c-5520-44ec-81a8-3f856fbf0e80.jpg""]","",""
"","4977","similarity","165","1103805","0.0-6.0-159.0","2","[""img/0860/e14d67c1-6d92-4f1e-9257-c8607159c19c.jpg"",""img/0764/978aede9-4590-4ad0-b234-135c83e5d669.jpg""]","",""
"","3933","similarity","166","1108753","0.0-6.0-160.0","3","[""img/0902/2db723b6-130f-454c-8c8d-88829edbcd65.jpg"",""img/0875/5a1e5100-0d94-4fec-bbe9-ca9894d2cf8e.jpg""]","",""
"","5051","similarity","167","1114827","0.0-6.0-161.0","3","[""img/0898/40f99fb2-64d2-4e72-8a7f-a1cf60741e69.jpg"",""img/0862/47ed5efd-4ec9-4b74-bb4e-a5f5cf0c3e7d.jpg""]","",""
"","5951","similarity","168","1121783","0.0-6.0-162.0","2","[""img/0894/8cadb87a-7001-4e47-99fb-1867bebf1668.jpg"",""img/0875/5a716432-c6ca-4b1c-955a-2b8ac25198ee.jpg""]","",""
"","5522","similarity","169","1128323","0.0-6.0-163.0","3","[""img/0866/386235d2-6857-41e7-88a8-25cfc3430025.jpg"",""img/0864/87c467d3-abca-482f-ad80-3766c21b1bb3.jpg""]","",""
"","6470","similarity","170","1135808","0.0-6.0-164.0","3","[""img/0766/d919cedb-f9b7-4f30-83bb-3e9c65001ceb.jpg"",""img/0862/7918ca67-5bd3-4606-a5ea-c39fb11a9297.jpg""]","",""
"","4888","similarity","171","1141709","0.0-6.0-165.0","6","[""img/0866/02f5e6b9-52b7-448c-9708-5b460d0c9a23.jpg"",""img/0874/3f471690-9788-4d03-90c7-f615aecef149.jpg""]","",""
"","6402","similarity","172","1149119","0.0-6.0-166.0","5","[""img/0862/5d887e9f-89e2-4ebc-80a0-6d46fe6480db.jpg"",""img/0860/5bff793e-cbd5-4d7e-b628-0ac2b0e30b64.jpg""]","",""
"","5695","similarity","173","1159299","0.0-6.0-167.0","3","[""img/0766/27f54113-8561-4568-9ffe-0a1650ae65ec.jpg"",""img/0901/f1116359-1ff1-4638-b3b3-700918d36d18.jpg""]","",""
"","4083","similarity","174","1164399","0.0-6.0-168.0","7","[""img/0862/f43ceabf-acc1-4107-b857-5d1849808f93.jpg"",""img/0862/e697469a-ec19-4414-b972-7b9f3564785b.jpg""]","",""
"","5119","similarity","175","1170526","0.0-6.0-169.0","5","[""img/0894/0130a973-d993-41f8-874a-fee23d9ac11f.jpg"",""img/0764/b8e23f4f-ff19-4472-ad9b-2f85548ebca0.jpg""]","",""
"","4875","similarity","176","1176415","0.0-6.0-170.0","3","[""img/0874/29830da7-be5f-44e5-b141-652a0ccf7269.jpg"",""img/0898/04e39a7a-fcf6-4156-ab0e-f5871f335e1c.jpg""]","",""
"","5005","similarity","177","1182439","0.0-6.0-171.0","1","[""img/0860/f44ba3fb-03a2-42f0-8509-2c1ded493086.jpg"",""img/0766/33519c22-aaa4-49d7-8d49-ab551db1945e.jpg""]","",""
"","5734","similarity","178","1189199","0.0-6.0-172.0","1","[""img/0898/881e2a85-d5c2-49be-a0c6-8a6ce2c4af08.jpg"",""img/0864/0f537697-a314-47c3-a8cc-8df23b7e536c.jpg""]","",""
"","5051","similarity","179","1195267","0.0-6.0-173.0","2","[""img/0881/84397291-bc14-4fbf-90e8-241e486ab0fe.jpg"",""img/0764/4bec8d92-75aa-475a-954d-8215dbe538f5.jpg""]","",""
"","4363","similarity","180","1200642","0.0-6.0-174.0","2","[""img/0898/08c72dac-f8ad-407a-9ce6-8c9a5d679c3a.jpg"",""img/0868/77091fc7-a590-4ebb-b915-fdb2483a2399.jpg""]","",""
"","5370","similarity","181","1207041","0.0-6.0-175.0","6","[""img/0864/1ebbc554-99fa-49f9-8799-317375a79820.jpg"",""img/0864/da39ad34-04e0-40d4-a724-c08d53e0ea09.jpg""]","",""
"","4875","similarity","182","1212944","0.0-6.0-176.0","2","[""img/0899/25ae6ec8-9565-49fe-a8bb-8d0666f52716.jpg"",""img/0862/4f0a3b4c-afbf-486e-b248-1d54982f54b4.jpg""]","",""
"","6180","similarity","183","1220144","0.0-6.0-177.0","2","[""img/0875/a4935837-7d3c-4df6-88c1-36a94d4991ca.jpg"",""img/0758/7fba58df-2a7a-4b76-8a8f-62739f97f271.jpg""]","",""
"","6064","similarity","184","1227226","0.0-6.0-178.0","2","[""img/0866/0207e9a2-7dbb-40b5-9459-b472aaeceb2a.jpg"",""img/0901/d4d09bf5-093e-4050-838e-7c738be8e63c.jpg""]","",""
"","5460","similarity","185","1233696","0.0-6.0-179.0","3","[""img/0769/662ab839-88d1-4ebf-af05-9b2980cad943.jpg"",""img/0874/bf14b896-e930-4fd9-9c05-2e83317a2773.jpg""]","",""
"","5720","similarity","186","1240427","0.0-6.0-180.0","3","[""img/0875/42910c99-5463-450a-a0f8-d4d060a11455.jpg"",""img/0881/1407b85b-a1c6-45b1-9884-3b24203efadb.jpg""]","",""
"","5124","similarity","187","1246574","0.0-6.0-181.0","3","[""img/0866/945c6710-d15b-4a5b-a8f6-69af0850357f.jpg"",""img/0868/8b0b8473-e2c0-4331-aa56-c3a5c29369da.jpg""]","",""
"","5812","similarity","188","1253406","0.0-6.0-182.0","2","[""img/0899/93494f3b-d539-4075-b027-d82e344563da.jpg"",""img/0758/6cd8c362-ae2a-41eb-80a3-3a4f7ace1530.jpg""]","",""
"","4656","similarity","189","1259077","0.0-6.0-183.0","1","[""img/0874/c0378dac-9370-439a-8b79-db27c96fb390.jpg"",""img/0875/3ecb367d-e9eb-4826-8aaa-7aa72fb98019.jpg""]","",""
"","4105","similarity","190","1264194","0.0-6.0-184.0","5","[""img/0904/696ebb60-8891-417a-91fd-c53218907a95.jpg"",""img/0862/1c20f772-3a51-4a80-aac0-f57dc9f86c28.jpg""]","",""
"","3800","similarity","191","1269011","0.0-6.0-185.0","4","[""img/0902/7f1dcd35-237a-4995-9e42-7f63f3f434d4.jpg"",""img/0766/db750ba0-ce04-46e1-b601-e1b80212bad2.jpg""]","",""
"","4756","similarity","192","1274796","0.0-6.0-186.0","3","[""img/0758/f61ecdf8-a7d4-4db0-b84d-be46f7cfaffc.jpg"",""img/0769/1afb527f-9887-428c-bd26-a12c2f9efb68.jpg""]","",""
"","5133","similarity","193","1280945","0.0-6.0-187.0","7","[""img/0881/e6746727-7f89-47ec-b939-d98abe78372d.jpg"",""img/0881/d1982897-8d8d-4704-a940-1ee5d07a1f15.jpg""]","",""
"","4734","similarity","194","1286692","0.0-6.0-188.0","2","[""img/0758/61d64021-9214-4951-bdf8-f871f9827cf9.jpg"",""img/0866/11a1d141-be5e-443c-98c1-a9d4d9e3dec0.jpg""]","",""
"","4181","similarity","195","1291884","0.0-6.0-189.0","5","[""img/0764/d7f3ac54-318a-4dac-a06b-62bed34d01a4.jpg"",""img/0898/a114b375-cb89-44ba-9498-74213f1ecdee.jpg""]","",""
"","5152","similarity","196","1298053","0.0-6.0-190.0","5","[""img/0903/6138142e-c84e-45fc-9487-c974f3d4968a.jpg"",""img/0901/58978a6d-a3e2-4c59-8d62-f60693ecc0f6.jpg""]","",""
"","8225","similarity","197","1307294","0.0-6.0-191.0","6","[""img/0902/aa6fca32-82b0-4414-b20a-8f6f8aa5a2d2.jpg"",""img/0898/224c1572-56b9-4f16-a9e4-6f3bc9c114bd.jpg""]","",""
"","6012","similarity","198","1314327","0.0-6.0-192.0","2","[""img/0864/ef9cbca0-4be8-435d-ad49-977259e80409.jpg"",""img/0901/548d1110-7cb8-42a2-9927-9798875c8b5c.jpg""]","",""
"","4838","similarity","199","1320171","0.0-6.0-193.0","2","[""img/0894/11674fa4-285d-44e2-939f-2228c6a64080.jpg"",""img/0881/db77fe00-aeb0-4d1d-aa66-f3a96fd077e4.jpg""]","",""
"","5263","similarity","200","1326445","0.0-6.0-194.0","6","[""img/0868/c8ac40c7-6904-4e13-8d61-c75d3052dc4e.jpg"",""img/0868/83b4350a-3b70-4cea-b7f5-b5b56f3050a8.jpg""]","",""
"","5078","similarity","201","1332534","0.0-6.0-195.0","5","[""img/0899/8de08897-b430-42fe-9d42-840670b80f94.jpg"",""img/0764/39a9fc7e-b863-432c-9374-de43983f31a5.jpg""]","",""
"","5540","similarity","202","1339080","0.0-6.0-196.0","3","[""img/0881/b549bc99-a61c-4450-bab5-9efc3a197bf0.jpg"",""img/0904/4d7d70a3-9477-4921-bda0-f9531d0a5c5b.jpg""]","",""
"","6778","similarity","203","1346874","0.0-6.0-197.0","5","[""img/0864/49150900-7f25-4ce8-8d10-9b47a71d1997.jpg"",""img/0902/0db94c50-f1fb-4091-953c-29ca0466bee2.jpg""]","",""
"","6589","similarity","204","1354472","0.0-6.0-198.0","5","[""img/0894/38cf335f-f76f-4349-8d65-e20cd6859565.jpg"",""img/0904/9dd5708f-3f8b-46a9-b49f-2f2fab87b357.jpg""]","",""
"","5262","similarity","205","1360752","0.0-6.0-199.0","7","[""img/0901/da4fe30f-d12a-491e-96a2-5ab8ebaadd09.jpg"",""img/0901/233a6948-48eb-4b67-8259-222b916b2322.jpg""]","",""
"","5732","similarity","206","1367505","0.0-6.0-200.0","3","[""img/0894/a3d4170b-b7d8-40e3-955f-87e76ed745fc.jpg"",""img/0860/5383b320-1518-4095-a58e-5cc1ae30b64c.jpg""]","",""
"","7283","similarity","207","1375795","0.0-6.0-201.0","7","[""img/0898/cd3aaa3f-efa9-4ab3-8d6f-a6a9273ddf42.jpg"",""img/0903/5995f4a8-fa82-46f8-8760-fd7800a5ca34.jpg""]","",""
"","4292","similarity","208","1381097","0.0-6.0-202.0","4","[""img/0864/9b2490c5-a282-400a-9736-e1a0ecbf1cb7.jpg"",""img/0894/7f2f31fd-6618-41c6-b65a-0fd8b2851bc9.jpg""]","",""
"","5262","similarity","209","1387370","0.0-6.0-203.0","3","[""img/0874/adf9a8f1-c40b-402b-b95b-1e85a54a7b62.jpg"",""img/0860/4c530c3c-6aab-492a-94d1-9c01797bde40.jpg""]","",""
"","5671","similarity","210","1394060","0.0-6.0-204.0","3","[""img/0862/f188d4f0-76a4-4102-818c-a209969d73a5.jpg"",""img/0875/03c3c331-738b-4446-af92-3d7386b08c2e.jpg""]","",""
"","6251","similarity","211","1401318","0.0-6.0-205.0","3","[""img/0867/c66898ba-b71b-4d50-84f9-f7f84853a98d.jpg"",""img/0881/0c7068da-d0d9-4103-bda1-74ef7a2b32c3.jpg""]","",""
"","8814","similarity","212","1411148","0.0-6.0-206.0","6","[""img/0901/7c16dd9c-44ad-4d5b-990c-6a0b9b48b1b1.jpg"",""img/0902/8af4182a-9af9-4212-a436-9195555112d6.jpg""]","",""
"","5086","similarity","213","1417244","0.0-6.0-207.0","3","[""img/0899/0e1d936a-dbe2-4afc-9f19-7b7a1ae6c9ed.jpg"",""img/0864/5f74a653-3bdc-4308-8cca-ac667dc22e1f.jpg""]","",""
"","5072","similarity","214","1423335","0.0-6.0-208.0","2","[""img/0901/b453df0b-4c39-49bb-8ced-6127efffa898.jpg"",""img/0769/48a1144d-fbda-4809-991b-fc8424a32ee4.jpg""]","",""
"","4190","similarity","215","1432064","0.0-6.0-209.0","5","[""img/0902/ca3160ba-ad5d-459f-a1b6-8b4f3c85ecd5.jpg"",""img/0902/c9c74d2d-9b82-42d7-a9d0-3b8ff67ff81e.jpg""]","",""
"[{""page_index"":0,""viewing_time"":7143}]","7143","instructions","216","1440224","0.0-7.0","","","",""
"","14729","image-multi-choice","217","1455999","0.0-8.0-0.0","","","{""Q0"":""Nashville Warbler""}","Nashville Warbler"
"","9858","image-multi-choice","218","1466901","0.0-8.0-1.0","","","{""Q0"":""Black-and-white Warbler""}","Black-and-white Warbler"
"","71584","image-multi-choice","219","1539519","0.0-8.0-2.0","","","{""Q0"":""Townsend's Warbler""}","Townsend's Warbler"
"","7490","image-multi-choice","220","1548042","0.0-8.0-3.0","","","{""Q0"":""Lark Sparrow""}","Lark Sparrow"
"","3902","image-multi-choice","221","1552965","0.0-8.0-4.0","","","{""Q0"":""Yellow Warbler""}","Yellow Warbler"
"","10354","image-multi-choice","222","1564357","0.0-8.0-5.0","","","{""Q0"":""Tennessee Warbler""}","Orange-crowned Warbler"
"","4235","image-multi-choice","223","1569628","0.0-8.0-6.0","","","{""Q0"":""White-throated Sparrow""}","White-throated Sparrow"
"","5742","image-multi-choice","224","1576407","0.0-8.0-7.0","","","{""Q0"":""Fox Sparrow""}","Fox Sparrow"
"","56762","image-multi-choice","225","1634212","0.0-8.0-8.0","","","{""Q0"":""Song Sparrow""}","Song Sparrow"
"","35935","image-multi-choice","226","1671186","0.0-8.0-9.0","","","{""Q0"":""Blackburnian Warbler""}","Blackburnian Warbler"
"","8381","image-multi-choice","227","1680610","0.0-8.0-10.0","","","{""Q0"":""Vesper Sparrow""}","Vesper Sparrow"
"","4437","image-multi-choice","228","1686089","0.0-8.0-11.0","","","{""Q0"":""White-crowned Sparrow""}","White-crowned Sparrow"
"","10533","image-multi-choice","229","1697653","0.0-8.0-12.0","","","{""Q0"":""American Tree Sparrow""}","American Tree Sparrow"
"","10551","image-multi-choice","230","1709243","0.0-8.0-13.0","","","{""Q0"":""Tennessee Warbler""}","Tennessee Warbler"
"","23938","image-multi-choice","231","1734217","0.0-8.0-14.0","","","{""Q0"":""Magnolia Warbler""}","Magnolia Warbler"
"","6341","image-multi-choice","232","1741592","0.0-8.0-15.0","","","{""Q0"":""Northern Waterthrush""}","Northern Waterthrush"
"","73012","image-multi-choice","233","1815623","0.0-8.0-16.0","","","{""Q0"":""Chipping Sparrow""}","Chipping Sparrow"
"","7431","image-multi-choice","234","1824082","0.0-8.0-17.0","","","{""Q0"":""Swamp Sparrow""}","Swamp Sparrow"
"","6654","image-multi-choice","235","1831769","0.0-8.0-18.0","","","{""Q0"":""Lincoln's Sparrow""}","Lincoln's Sparrow"
"","3937","image-multi-choice","236","1836737","0.0-8.0-19.0","","","{""Q0"":""Ovenbird""}","Ovenbird"
