"view_history","rt","trial_type","trial_index","time_elapsed","internal_node_id","sim_score","stimulus","responses","answer"
"[{""page_index"":0,""viewing_time"":180108}]","180109","instructions","0","180111","0.0-0.0","","","",""
"","8596","similarity_demo","1","189738","0.0-1.0","5","[""img/866.jpg"",""img/868.jpg""]","",""
"[{""page_index"":0,""viewing_time"":14873}]","14875","instructions","2","205617","0.0-2.0","","","",""
"","5296","similarity_demo","3","211949","0.0-3.0","2","[""img/766.jpg"",""img/867.jpg""]","",""
"[{""page_index"":0,""viewing_time"":7689}]","7689","instructions","4","220652","0.0-4.0","","","",""
"[{""page_index"":0,""viewing_time"":25210}]","25211","instructions","5","246878","0.0-5.0","","","",""
"","6277","similarity","6","254212","0.0-6.0-0.0","1","[""img/0868/09a9ef4d-d000-4cfa-a6aa-ebec7c2edeb4.jpg"",""img/0901/08d6d1d1-c043-43c4-bb08-d45e062822b9.jpg""]","",""
"","5259","similarity","7","260504","0.0-6.0-1.0","3","[""img/0769/e8ed913b-8a88-44f6-9327-d34afec3116b.jpg"",""img/0867/f26f6b60-f772-4f4c-95a4-addc62cfd692.jpg""]","",""
"","4767","similarity","8","266310","0.0-6.0-2.0","3","[""img/0766/d14acac4-7db1-4b07-8f8f-302437326fc0.jpg"",""img/0898/993d8f2d-bef7-4251-a193-0f93a32b7763.jpg""]","",""
"","6107","similarity","9","273454","0.0-6.0-3.0","2","[""img/0902/c920f0e1-1c81-480f-a164-c77f2dc6ce9a.jpg"",""img/0881/566f45f8-5fed-4479-a60f-26377e60a62d.jpg""]","",""
"","4599","similarity","10","279089","0.0-6.0-4.0","6","[""img/0894/492d2f29-d7b9-4422-8be8-47fd58bfaa8b.jpg"",""img/0894/5ff3c4f6-52e2-4075-8679-be0312e59703.jpg""]","",""
"","4188","similarity","11","284325","0.0-6.0-5.0","2","[""img/0874/1016b306-087c-4afc-aa08-fa527b28dc76.jpg"",""img/0899/1b3457ea-87d4-4946-a01c-aac1863ed46c.jpg""]","",""
"","3536","similarity","12","288898","0.0-6.0-6.0","5","[""img/0904/da170c1b-9651-4f08-b231-2bdd1d9a046f.jpg"",""img/0764/ec2dd087-c471-4370-b570-95a542506a96.jpg""]","",""
"","3505","similarity","13","293438","0.0-6.0-7.0","7","[""img/0899/8de08897-b430-42fe-9d42-840670b80f94.jpg"",""img/0898/26c41340-15bd-4ead-8fe4-c0d0ddca09c2.jpg""]","",""
"","3765","similarity","14","298253","0.0-6.0-8.0","2","[""img/0874/93d1f8dc-acf2-4f03-bd8d-8ec35df276ed.jpg"",""img/0903/36e4ab1f-caa9-40b3-8616-faada076df94.jpg""]","",""
"","3641","similarity","15","302932","0.0-6.0-9.0","7","[""img/0881/19e82c47-8e4b-45d2-a6c8-74181eb4155e.jpg"",""img/0758/eabcd7a8-56ad-4fd2-bc24-90f6b7b33265.jpg""]","",""
"","4143","similarity","16","308098","0.0-6.0-10.0","5","[""img/0898/c3cecf20-f7fd-45fa-97d0-dc0a63e8d6c0.jpg"",""img/0901/bc47e078-bda4-40ed-b89a-bbd819164b95.jpg""]","",""
"","3064","similarity","17","312202","0.0-6.0-11.0","5","[""img/0903/8fcafe03-43df-4c45-9da5-0df3a1eeccc5.jpg"",""img/0769/db94b61b-a5a7-4861-9d32-7b02ad194fb0.jpg""]","",""
"","3491","similarity","18","316727","0.0-6.0-12.0","2","[""img/0764/8740679b-b56f-4292-aece-14063457113a.jpg"",""img/0868/c8ac40c7-6904-4e13-8d61-c75d3052dc4e.jpg""]","",""
"","3968","similarity","19","321728","0.0-6.0-13.0","1","[""img/0867/c71dc569-f49c-4397-8381-68b8d726736d.jpg"",""img/0903/8f7f9939-b8e6-433f-93dd-b362496c80a7.jpg""]","",""
"","2875","similarity","20","325642","0.0-6.0-14.0","1","[""img/0766/989c5c7f-1aff-4442-ac63-9d46acf4a891.jpg"",""img/0758/3ddd05d3-557e-4ee7-8b78-9d2d681d8ae2.jpg""]","",""
"","2931","similarity","21","329598","0.0-6.0-15.0","5","[""img/0902/cf9dee9c-2bdf-4d64-9302-97f1660fe52c.jpg"",""img/0860/4a022222-056d-461c-ab02-39fac9647552.jpg""]","",""
"","6592","similarity","22","337224","0.0-6.0-16.0","2","[""img/0769/91acb237-65a3-4d0b-9748-af5c7b83d3c7.jpg"",""img/0875/90da8d75-108a-44ad-b999-e21fee3860d3.jpg""]","",""
"","3792","similarity","23","342054","0.0-6.0-17.0","1","[""img/0904/5cceabc9-de1d-4c67-989b-c28a4ef77e79.jpg"",""img/0866/4a87911a-d5be-4d4e-ab8e-3d1f581bf507.jpg""]","",""
"","3720","similarity","24","346812","0.0-6.0-18.0","7","[""img/0875/5a7c4e35-6514-4e12-8879-d16071da4cd6.jpg"",""img/0875/5a716432-c6ca-4b1c-955a-2b8ac25198ee.jpg""]","",""
"","3225","similarity","25","351064","0.0-6.0-19.0","7","[""img/0758/e1ba5e53-addc-436a-b428-d34fc1b130dc.jpg"",""img/0758/f61ecdf8-a7d4-4db0-b84d-be46f7cfaffc.jpg""]","",""
"","5099","similarity","26","357191","0.0-6.0-20.0","3","[""img/0902/82d20e8c-2162-47a6-925b-52906558c046.jpg"",""img/0874/bf14b896-e930-4fd9-9c05-2e83317a2773.jpg""]","",""
"","5337","similarity","27","363575","0.0-6.0-21.0","5","[""img/0764/ef0e64c6-d0dd-4dc6-87b6-ce5c0665f421.jpg"",""img/0769/96556ef3-7fac-4c9d-8281-1cb0ea5081bc.jpg""]","",""
"","4211","similarity","28","368827","0.0-6.0-22.0","2","[""img/0901/31c032fd-3c3d-4882-a226-da9a80198937.jpg"",""img/0874/85eb9b8a-c4c6-4e5a-b8e7-363a87a82054.jpg""]","",""
"","3244","similarity","29","373102","0.0-6.0-23.0","3","[""img/0875/a4935837-7d3c-4df6-88c1-36a94d4991ca.jpg"",""img/0903/39365c8e-a733-4801-ac7d-b87e38c3784b.jpg""]","",""
"","6382","similarity","30","380517","0.0-6.0-24.0","1","[""img/0769/1d8734c4-77ab-4165-9e71-5cfe672ff01c.jpg"",""img/0881/adc02f34-ce97-4aef-850f-00519df06fd7.jpg""]","",""
"","7633","similarity","31","389184","0.0-6.0-25.0","2","[""img/0867/1719a35d-f085-48c0-9099-16c94fe418b4.jpg"",""img/0904/b7c2a2c8-df33-4473-b3d4-ff7147c60db3.jpg""]","",""
"","3385","similarity","32","393616","0.0-6.0-26.0","5","[""img/0860/f44ba3fb-03a2-42f0-8509-2c1ded493086.jpg"",""img/0881/6b1189e6-232d-4042-8885-16dc7b10e0d4.jpg""]","",""
"","3481","similarity","33","398125","0.0-6.0-27.0","7","[""img/0866/07c9c966-3c8d-40e7-8128-92b2acbaed5d.jpg"",""img/0866/11a1d141-be5e-443c-98c1-a9d4d9e3dec0.jpg""]","",""
"","4044","similarity","34","403196","0.0-6.0-28.0","3","[""img/0764/c84fbfa8-521c-407a-9bd3-24f7308d896c.jpg"",""img/0862/e0f1a4e9-e1b6-45f7-af67-89f334e6630d.jpg""]","",""
"","3203","similarity","35","407424","0.0-6.0-29.0","2","[""img/0904/0d17b811-063e-416e-a23c-3b3cfa4fcce5.jpg"",""img/0758/d540bee6-b460-4c32-ac57-bc282742d7d4.jpg""]","",""
"","4887","similarity","36","413339","0.0-6.0-30.0","6","[""img/0894/e5edf723-72a5-4673-8441-6c1734a8929b.jpg"",""img/0899/5b56dd3e-3f49-47cc-af84-16da6457753b.jpg""]","",""
"","4753","similarity","37","419137","0.0-6.0-31.0","2","[""img/0860/c47fdead-eb02-4989-b078-26f4852f44fe.jpg"",""img/0904/56e73f28-7e64-489b-a161-e6b1a063878d.jpg""]","",""
"","3850","similarity","38","424012","0.0-6.0-32.0","6","[""img/0874/99f6563c-8a8d-4c1c-a41d-667b618c3fd5.jpg"",""img/0881/c843e210-bdfe-4a7c-8bbe-fcea1f90fe1c.jpg""]","",""
"","4210","similarity","39","429256","0.0-6.0-33.0","2","[""img/0881/633c6f40-56d9-4b48-bf1c-ecd83116eabb.jpg"",""img/0899/93494f3b-d539-4075-b027-d82e344563da.jpg""]","",""
"","3204","similarity","40","433507","0.0-6.0-34.0","5","[""img/0866/be24ab58-230e-4db8-9f45-ff04c9aec6bb.jpg"",""img/0862/f23038d4-c366-4f70-979f-66b62362efa4.jpg""]","",""
"","4525","similarity","41","439071","0.0-6.0-35.0","2","[""img/0868/8b0b8473-e2c0-4331-aa56-c3a5c29369da.jpg"",""img/0894/05161000-f476-499b-a878-c13c7f347fd9.jpg""]","",""
"","3965","similarity","42","444065","0.0-6.0-36.0","7","[""img/0860/71e1aad0-2cdf-43bb-94a4-a8c016997c30.jpg"",""img/0860/8a92e21b-6a32-4e4a-a445-2d5a487ed0a4.jpg""]","",""
"","5817","similarity","43","450924","0.0-6.0-37.0","6","[""img/0862/847e5208-38ec-4f36-949c-296cdd7424ee.jpg"",""img/0864/4bd81bc6-c13d-46df-95a9-485886dc7c1b.jpg""]","",""
"","4104","similarity","44","456057","0.0-6.0-38.0","3","[""img/0766/00891401-e4c9-4ce1-bc19-f70740d174bc.jpg"",""img/0866/8efcaa46-83ab-4dee-a35f-850402aa21ae.jpg""]","",""
"","4604","similarity","45","461691","0.0-6.0-39.0","2","[""img/0875/2e13d160-eea1-416b-aff1-d37ab99ecc1d.jpg"",""img/0898/79233891-305a-4a6a-8ddf-5c8604858203.jpg""]","",""
"","3607","similarity","46","466337","0.0-6.0-40.0","6","[""img/0766/db750ba0-ce04-46e1-b601-e1b80212bad2.jpg"",""img/0769/e31b3bd8-efcb-413e-aa8c-75fac2b8f2ac.jpg""]","",""
"","3831","similarity","47","486234","0.0-6.0-41.0","2","[""img/0874/767f289c-9814-4496-803f-745cc8913d1f.jpg"",""img/0764/7f4ee8e3-9315-4a57-be7d-db8454b33766.jpg""]","",""
"","4337","similarity","48","491604","0.0-6.0-42.0","1","[""img/0868/5fa7f9d0-f0e5-454c-8224-74d964818f56.jpg"",""img/0902/eb3e7e71-8ff1-4b88-a6a7-47e2c1ce1683.jpg""]","",""
"","4098","similarity","49","496729","0.0-6.0-43.0","1","[""img/0875/3ecb367d-e9eb-4826-8aaa-7aa72fb98019.jpg"",""img/0899/66ab3178-c3fe-4455-ad17-d5952b08e018.jpg""]","",""
"","4907","similarity","50","502669","0.0-6.0-44.0","5","[""img/0866/93a27239-8317-4e08-98ca-d8b1ff298e07.jpg"",""img/0860/4f695df5-afac-4da7-9875-fee39b0b24ad.jpg""]","",""
"","3502","similarity","51","507209","0.0-6.0-45.0","5","[""img/0766/91fc8c4d-862f-4d2b-b1a1-2db8d729b6b7.jpg"",""img/0903/bf0a7d60-eca5-44b0-bafd-baf21db9904b.jpg""]","",""
"","4564","similarity","52","512810","0.0-6.0-46.0","4","[""img/0901/1b86f2fc-7a1d-4aa8-9252-114f92edef3b.jpg"",""img/0904/2f88ce53-02d0-4f95-a082-182c56a0eeb4.jpg""]","",""
"","4378","similarity","53","518224","0.0-6.0-47.0","2","[""img/0758/ddc336e9-a8b6-4bb9-937a-c7e25e0e9250.jpg"",""img/0902/31abfa33-7cdb-44ad-968e-9f7b324d577a.jpg""]","",""
"","3115","similarity","54","522374","0.0-6.0-48.0","7","[""img/0764/a86eed5b-d0af-4c3f-8c7a-26e98e98cf1a.jpg"",""img/0764/5d83b9db-3b2b-4dc8-9bd1-2b515b19c858.jpg""]","",""
"","4373","similarity","55","527782","0.0-6.0-49.0","2","[""img/0866/23a224f3-2012-4fc8-8e0f-3c36f8de27fd.jpg"",""img/0902/44cd9b7e-fdfb-4f78-90de-8d4c9d279365.jpg""]","",""
"","4202","similarity","56","533007","0.0-6.0-50.0","1","[""img/0764/da207710-e7e4-4f42-b2e6-99b5f357f433.jpg"",""img/0758/7fba58df-2a7a-4b76-8a8f-62739f97f271.jpg""]","",""
"","5352","similarity","57","539400","0.0-6.0-51.0","6","[""img/0898/cd3aaa3f-efa9-4ab3-8d6f-a6a9273ddf42.jpg"",""img/0894/661b9f9f-4bde-487a-b1ed-87085fde6948.jpg""]","",""
"","4344","similarity","58","544789","0.0-6.0-52.0","5","[""img/0875/5a1e5100-0d94-4fec-bbe9-ca9894d2cf8e.jpg"",""img/0866/a15b02be-11bb-43e3-b0e0-ecc3bd7dfc49.jpg""]","",""
"","2832","similarity","59","548657","0.0-6.0-53.0","7","[""img/0904/a8c3c7d2-9bcf-4347-9e03-8203adfc1fc5.jpg"",""img/0904/65e2b70a-b184-4da3-b5c0-5038bdf9469a.jpg""]","",""
"","3105","similarity","60","552798","0.0-6.0-54.0","7","[""img/0769/8c7cf147-1780-4d5c-8ddf-5ea23ff03ac9.jpg"",""img/0769/180213e5-1e50-4b4e-87b6-add77ba04d39.jpg""]","",""
"","3988","similarity","61","557831","0.0-6.0-55.0","2","[""img/0898/a114b375-cb89-44ba-9498-74213f1ecdee.jpg"",""img/0758/821c68d3-5cb0-4eae-8659-30e6263fca39.jpg""]","",""
"","7694","similarity","62","566566","0.0-6.0-56.0","2","[""img/0769/9ea27d61-3d55-418c-8d14-82e90f656f01.jpg"",""img/0902/95a36b6b-9601-4fa5-8fd9-606ea62f9425.jpg""]","",""
"","3273","similarity","63","570861","0.0-6.0-57.0","5","[""img/0864/8ddd2e30-a1d0-479f-9cbe-591213023893.jpg"",""img/0881/dea58fad-b4f1-41d9-bd3f-916eff19a3fd.jpg""]","",""
"","3542","similarity","64","575448","0.0-6.0-58.0","5","[""img/0758/6cd8c362-ae2a-41eb-80a3-3a4f7ace1530.jpg"",""img/0868/293079b8-7e0c-4afd-a390-1e5d35fe3ded.jpg""]","",""
"","4104","similarity","65","580581","0.0-6.0-59.0","3","[""img/0862/47ed5efd-4ec9-4b74-bb4e-a5f5cf0c3e7d.jpg"",""img/0769/0fe124d3-bcad-45f6-b64d-8f6eb8ee5251.jpg""]","",""
"","4318","similarity","66","585927","0.0-6.0-60.0","6","[""img/0764/c0b03adb-bd0a-4b96-a915-a827c2fd5211.jpg"",""img/0903/b548d383-2a95-4575-8c13-647873751ff1.jpg""]","",""
"","2641","similarity","67","589591","0.0-6.0-61.0","7","[""img/0899/00715b3f-851b-420b-a26b-d7f79f7759a9.jpg"",""img/0899/7b7380d5-d2be-44e5-a09a-c1756f87ef71.jpg""]","",""
"","3348","similarity","68","593974","0.0-6.0-62.0","5","[""img/0860/29a21a9f-54bb-4093-ad3f-04823ceaa89f.jpg"",""img/0875/fb732ab5-013a-4366-9f65-27811ed157e9.jpg""]","",""
"","3255","similarity","69","598280","0.0-6.0-63.0","5","[""img/0868/d98ca254-b195-477f-b57e-5760a2717db8.jpg"",""img/0874/8cdb1c07-1c32-46d2-981c-3636560fa6e5.jpg""]","",""
"","3719","similarity","70","603045","0.0-6.0-64.0","6","[""img/0758/caa93da2-9edf-49fa-96b9-32dedd8f5078.jpg"",""img/0862/e8cc3bdf-cc43-4565-bccf-492626c70953.jpg""]","",""
"","4720","similarity","71","608796","0.0-6.0-65.0","6","[""img/0904/4d7d70a3-9477-4921-bda0-f9531d0a5c5b.jpg"",""img/0898/5f699581-3853-4547-856c-12f419ba5af7.jpg""]","",""
"","3058","similarity","72","612873","0.0-6.0-66.0","5","[""img/0881/33d65d80-8a8e-4ecf-852d-0ad7725c17a2.jpg"",""img/0866/620cd1aa-0800-4414-8f6e-90342e7a99ad.jpg""]","",""
"","3357","similarity","73","617254","0.0-6.0-67.0","2","[""img/0867/aa05d113-fc19-4756-a8eb-7878f580bc92.jpg"",""img/0898/4184e5a2-84ea-4f36-9b42-ae58646f6f87.jpg""]","",""
"","4707","similarity","74","623008","0.0-6.0-68.0","6","[""img/0902/bd89a85f-3853-4786-acd6-98818ee29f1c.jpg"",""img/0764/83c93cce-18d1-4aa7-9e23-2c268afe0a46.jpg""]","",""
"","4647","similarity","75","628694","0.0-6.0-69.0","6","[""img/0875/03c3c331-738b-4446-af92-3d7386b08c2e.jpg"",""img/0867/c66898ba-b71b-4d50-84f9-f7f84853a98d.jpg""]","",""
"","3636","similarity","76","633358","0.0-6.0-70.0","6","[""img/0766/fd74fdbb-ea40-4f3a-a091-38d08dfd636e.jpg"",""img/0764/d7f3ac54-318a-4dac-a06b-62bed34d01a4.jpg""]","",""
"","2590","similarity","77","636990","0.0-6.0-71.0","3","[""img/0894/9b1333fd-3561-43bf-aee5-99b7b7ca3dc3.jpg"",""img/0867/de92135f-5b65-4ed9-b245-188292c7c2f8.jpg""]","",""
"","2958","similarity","78","640991","0.0-6.0-72.0","2","[""img/0875/e7e66b13-b573-431e-b85e-288ce04a35a3.jpg"",""img/0764/d0bef2e0-e16b-4c82-9451-c1d16265eb67.jpg""]","",""
"","2425","similarity","79","644451","0.0-6.0-73.0","7","[""img/0867/cc72ed48-7704-422c-86d6-467a1145287a.jpg"",""img/0866/bf14b5bd-fb55-47db-86b9-4f8aeb9a6dad.jpg""]","",""
"","3249","similarity","80","648741","0.0-6.0-74.0","2","[""img/0903/365f176c-25a4-4973-bd3c-279bf1b39476.jpg"",""img/0758/67c0be2f-9e91-48b3-8219-70ac0a1802fa.jpg""]","",""
"","3669","similarity","81","653447","0.0-6.0-75.0","2","[""img/0766/5d1b8041-c5a1-4b02-b4fe-3453d98a0d72.jpg"",""img/0868/83b4350a-3b70-4cea-b7f5-b5b56f3050a8.jpg""]","",""
"","3918","similarity","82","658408","0.0-6.0-76.0","2","[""img/0874/3f471690-9788-4d03-90c7-f615aecef149.jpg"",""img/0766/79767d11-b612-4e8a-9e4b-a8ac95bb6a54.jpg""]","",""
"","3231","similarity","83","662667","0.0-6.0-77.0","5","[""img/0881/d373cb9f-a719-4549-a2a4-82def79fb2a5.jpg"",""img/0868/e0aff734-077f-40dd-9781-74821abd3621.jpg""]","",""
"","3200","similarity","84","666902","0.0-6.0-78.0","2","[""img/0758/b76ceca7-95ac-46e4-ac13-da02c8e93be9.jpg"",""img/0901/effc03f6-8f9d-46db-a66c-16fc83891c5c.jpg""]","",""
"","3474","similarity","85","671410","0.0-6.0-79.0","2","[""img/0881/14236cf2-6b95-48b8-9368-78af09d2d27f.jpg"",""img/0898/82231d4c-218b-4d0a-b50d-35a49b524e97.jpg""]","",""
"","3185","similarity","86","675630","0.0-6.0-80.0","5","[""img/0867/bf560d4f-dee3-4f11-a385-705cc1aa5f3c.jpg"",""img/0758/d57c2592-a317-4f63-91be-91a3a9afd222.jpg""]","",""
"","4671","similarity","87","681349","0.0-6.0-81.0","6","[""img/0769/b664b502-a86c-46c1-ad6f-5ebffc2e1bd3.jpg"",""img/0899/4408c14d-c168-4a7d-96f6-bc87bfb58f83.jpg""]","",""
"","2530","similarity","88","684927","0.0-6.0-82.0","7","[""img/0903/c708d08f-a108-4e04-8288-c3fcf6375db4.jpg"",""img/0903/647ce311-8c71-479a-8361-961db1457139.jpg""]","",""
"","3449","similarity","89","698834","0.0-6.0-83.0","4","[""img/0867/f8488a47-94ee-4166-952c-44e16cf172f6.jpg"",""img/0766/6d32752d-aa05-40dc-9541-640b6e9d6fa1.jpg""]","",""
"","4963","similarity","90","704830","0.0-6.0-84.0","1","[""img/0902/40d0b6ec-3907-4573-b227-e7d8e9cad1c3.jpg"",""img/0867/50a1b60e-3a29-44bf-b606-d4bd3746fea9.jpg""]","",""
"","2666","similarity","91","708524","0.0-6.0-85.0","2","[""img/0901/58ec7fa9-b466-4651-90aa-c082df0972de.jpg"",""img/0875/99698b4d-b4a1-44bc-8c83-8ea755bbbf61.jpg""]","",""
"","4220","similarity","92","713776","0.0-6.0-86.0","4","[""img/0764/e0788029-9d7f-414c-b747-46d2a99f7c86.jpg"",""img/0866/c446214b-a368-4c65-ae39-ea46894256ab.jpg""]","",""
"","2937","similarity","93","717745","0.0-6.0-87.0","5","[""img/0901/b9141736-3041-4385-a586-b1fe911c76a5.jpg"",""img/0894/3adef67d-7676-4995-80b2-bb31b8aca3ef.jpg""]","",""
"","2988","similarity","94","721777","0.0-6.0-88.0","5","[""img/0898/40f99fb2-64d2-4e72-8a7f-a1cf60741e69.jpg"",""img/0769/aad494cc-674d-4a08-9bfa-24a88ebe3c79.jpg""]","",""
"","3207","similarity","95","726011","0.0-6.0-89.0","7","[""img/0769/1afb527f-9887-428c-bd26-a12c2f9efb68.jpg"",""img/0894/8cadb87a-7001-4e47-99fb-1867bebf1668.jpg""]","",""
"","4724","similarity","96","731792","0.0-6.0-90.0","5","[""img/0862/d0ca4c78-fc35-46ed-bdcc-8e124283c53e.jpg"",""img/0874/31e22c7c-99aa-40b1-bf03-dd73fa2df4d6.jpg""]","",""
"","3427","similarity","97","736256","0.0-6.0-91.0","6","[""img/0894/e6385e52-6c35-43bd-b0af-bc803d107b11.jpg"",""img/0766/0025de5e-f620-4079-8a0f-00326ff3a6b0.jpg""]","",""
"","3514","similarity","98","740804","0.0-6.0-92.0","5","[""img/0874/7e4f2150-3b59-4a36-b5da-a4e0ba410531.jpg"",""img/0867/f8159067-056c-41f1-a136-c529fe5e970a.jpg""]","",""
"","2577","similarity","99","744422","0.0-6.0-93.0","4","[""img/0899/a048912c-b12c-40e3-90af-46b69b0cc4fe.jpg"",""img/0868/1a62b2b2-18f5-466e-b564-5176a57c565e.jpg""]","",""
"","2567","similarity","100","748016","0.0-6.0-94.0","4","[""img/0903/3e9ee8a5-eb66-47f5-8973-8a5af1ddc87e.jpg"",""img/0862/00c06b00-3b73-44e9-bc1e-c5aafb438321.jpg""]","",""
"","1723","similarity","101","750775","0.0-6.0-95.0","4","[""img/0899/0433d056-aa30-4f8a-9aa1-abbb951e4edd.jpg"",""img/0766/2746b119-4bba-463e-acf0-88136dc6600c.jpg""]","",""
"","3180","similarity","102","754993","0.0-6.0-96.0","6","[""img/0867/6e19c858-b606-45b2-a4c6-910a73f1d82c.jpg"",""img/0868/d6d1f30d-4323-435a-b194-7892521bc57e.jpg""]","",""
"","2556","similarity","103","758582","0.0-6.0-97.0","4","[""img/0862/eefa5588-9efd-4591-aa5f-a2e17c7d7bcc.jpg"",""img/0901/148b747a-7392-437e-8823-33053c5dff3f.jpg""]","",""
"","3751","similarity","104","763371","0.0-6.0-98.0","3","[""img/0875/cff79b3a-a797-4393-9757-6275f999ec04.jpg"",""img/0766/5d6e0d1d-4369-41f0-a64c-91f3503055c7.jpg""]","",""
"","2444","similarity","105","766847","0.0-6.0-99.0","6","[""img/0758/20497cbe-ddae-489e-86e2-ab06985ed07c.jpg"",""img/0874/3ce41e7c-40c8-4d58-a546-171114521796.jpg""]","",""
"","2802","similarity","106","770683","0.0-6.0-100.0","3","[""img/0904/25365108-e038-4021-aac9-797f2063b337.jpg"",""img/0868/4a8a45ed-2c4f-421b-9564-409a33ecd26c.jpg""]","",""
"","3152","similarity","107","774862","0.0-6.0-101.0","2","[""img/0903/150cf64c-0bd2-4674-abbb-a1387cf1f3e9.jpg"",""img/0866/a04d37f0-99dd-478a-b6c6-58b215138f84.jpg""]","",""
"","5176","similarity","108","781074","0.0-6.0-102.0","3","[""img/0868/4e626425-63c8-484a-8a1d-e66ee4e0bef8.jpg"",""img/0769/8598a429-c671-4d2f-842c-32f681f5e412.jpg""]","",""
"","4249","similarity","109","786355","0.0-6.0-103.0","2","[""img/0902/1f4a4c62-68c1-4993-b213-05652a173ed1.jpg"",""img/0899/66bf4113-ee12-426c-84d2-ea410b6c803e.jpg""]","",""
"","3026","similarity","110","790413","0.0-6.0-104.0","5","[""img/0868/15dd6fd7-791e-4b53-b203-195d617521a4.jpg"",""img/0862/57b6f83f-c763-4858-830d-102f97bfefbf.jpg""]","",""
"","4488","similarity","111","795921","0.0-6.0-105.0","5","[""img/0903/f67c4ab9-f8c2-4fcd-848a-a54a7b031002.jpg"",""img/0894/7f2f31fd-6618-41c6-b65a-0fd8b2851bc9.jpg""]","",""
"","4504","similarity","112","801461","0.0-6.0-106.0","6","[""img/0864/e8bd659f-aa43-4748-877e-3118e8b4e189.jpg"",""img/0874/a3bc679d-619f-4db6-bb68-116dcb757d9c.jpg""]","",""
"","2490","similarity","113","805001","0.0-6.0-107.0","4","[""img/0862/ad593cc7-cabe-4bb7-8e14-8a447a0717b4.jpg"",""img/0902/e5a46bda-30d1-41ca-b36d-b8529b5a63d1.jpg""]","",""
"","3910","similarity","114","809946","0.0-6.0-108.0","5","[""img/0904/60d1a521-edf7-4696-9263-f21ac0e62a01.jpg"",""img/0903/9b60ef5b-234f-4239-892b-3d4c412accc2.jpg""]","",""
"","4077","similarity","115","815058","0.0-6.0-109.0","2","[""img/0764/b8e23f4f-ff19-4472-ad9b-2f85548ebca0.jpg"",""img/0864/ea327690-500b-4137-bf91-451b309fe6a5.jpg""]","",""
"","2270","similarity","116","818356","0.0-6.0-110.0","4","[""img/0866/f756f7d1-9ad8-4a34-9ef6-7a443d705bfe.jpg"",""img/0894/c505c65a-cde2-4f2c-8cde-f8676f7c894d.jpg""]","",""
"","3264","similarity","117","822653","0.0-6.0-111.0","5","[""img/0899/7f9d45d0-b2c6-40d3-aa41-c207db2c411b.jpg"",""img/0903/07b445ee-0cdb-4d2c-a23b-d727613f4059.jpg""]","",""
"","2340","similarity","118","826022","0.0-6.0-112.0","4","[""img/0902/417d8b4a-3c72-4adc-ac78-820e833316f2.jpg"",""img/0904/fe746a3f-8458-48d0-8a13-8cba2a9df9f8.jpg""]","",""
"","3090","similarity","119","830153","0.0-6.0-113.0","5","[""img/0864/1ebbc554-99fa-49f9-8799-317375a79820.jpg"",""img/0860/e14d67c1-6d92-4f1e-9257-c8607159c19c.jpg""]","",""
"","4138","similarity","120","835335","0.0-6.0-114.0","2","[""img/0860/8fdba999-b946-4c7d-9891-336018b563ef.jpg"",""img/0899/51a7a498-98c7-42d7-bca8-bc2d8f0b5831.jpg""]","",""
"","6062","similarity","121","842421","0.0-6.0-115.0","2","[""img/0881/405484ae-0d00-4b05-bc57-6420a36adfac.jpg"",""img/0903/6b5dcc60-3ad3-4962-93e5-e6cf768477af.jpg""]","",""
"","5706","similarity","122","849165","0.0-6.0-116.0","2","[""img/0894/11674fa4-285d-44e2-939f-2228c6a64080.jpg"",""img/0874/c0378dac-9370-439a-8b79-db27c96fb390.jpg""]","",""
"","2963","similarity","123","853164","0.0-6.0-117.0","5","[""img/0881/7e822106-76f7-4b10-a805-14dc68b2cfaf.jpg"",""img/0862/ba89835a-408c-480b-8594-ed4ffa97eb5c.jpg""]","",""
"","2895","similarity","124","857086","0.0-6.0-118.0","5","[""img/0868/6a28c3b0-3d76-498a-9fb7-ddafc665eca8.jpg"",""img/0875/2c361b79-c3d1-4eda-812e-bf03192407bf.jpg""]","",""
"","2441","similarity","125","860563","0.0-6.0-119.0","5","[""img/0860/5bff793e-cbd5-4d7e-b628-0ac2b0e30b64.jpg"",""img/0758/d41c06bf-ebaf-454b-91c6-1a17f917b659.jpg""]","",""
"","3761","similarity","126","865361","0.0-6.0-120.0","5","[""img/0864/e336a4c5-6648-4fd7-b2f6-93a3fb83f8c6.jpg"",""img/0875/527ced51-8e53-4aab-ab05-86df219104c0.jpg""]","",""
"","4746","similarity","127","871151","0.0-6.0-121.0","1","[""img/0898/81b08535-2020-4c15-9ce4-2f1e460755ae.jpg"",""img/0866/02f5e6b9-52b7-448c-9708-5b460d0c9a23.jpg""]","",""
"","3724","similarity","128","875901","0.0-6.0-122.0","3","[""img/0874/2c9464dd-8a23-4baa-ac94-1ba3af5c15cc.jpg"",""img/0904/696ebb60-8891-417a-91fd-c53218907a95.jpg""]","",""
"","2632","similarity","129","879567","0.0-6.0-123.0","4","[""img/0904/24fc38fe-842c-4831-ad8a-b1de5c25c0a8.jpg"",""img/0864/da39ad34-04e0-40d4-a724-c08d53e0ea09.jpg""]","",""
"","3684","similarity","130","884284","0.0-6.0-124.0","7","[""img/0894/43216a7f-27bc-4b5a-8841-d122a30da9d9.jpg"",""img/0902/0c760cc9-10ac-429e-8957-a7d51fc99683.jpg""]","",""
"","2889","similarity","131","892292","0.0-6.0-125.0","4","[""img/0868/7b212364-ff5f-4e28-9241-7eb6ea00161b.jpg"",""img/0864/5f33e097-23e3-4002-882d-76e8cb15f451.jpg""]","",""
"","3531","similarity","132","896858","0.0-6.0-126.0","2","[""img/0899/76ad07e2-ca25-45eb-84f2-8d80b8ca3e26.jpg"",""img/0866/9b38d691-1802-4959-ab3f-fc902f0e4ea6.jpg""]","",""
"","5464","similarity","133","903365","0.0-6.0-127.0","2","[""img/0875/f87b67d7-c33e-40d1-b281-248c4be1cb6e.jpg"",""img/0904/ba8e689e-9ca6-4608-a2a1-3b0940666ae6.jpg""]","",""
"","3173","similarity","134","907577","0.0-6.0-128.0","1","[""img/0867/179ab87a-8eac-4c52-a41f-2e48e3120f09.jpg"",""img/0899/06b0fc99-0581-461a-9913-d1a5a941ac61.jpg""]","",""
"","2476","similarity","135","911093","0.0-6.0-129.0","1","[""img/0901/da4fe30f-d12a-491e-96a2-5ab8ebaadd09.jpg"",""img/0867/5e07b34d-b40f-4b1c-ac10-49975bace45f.jpg""]","",""
"","4147","similarity","136","916264","0.0-6.0-130.0","2","[""img/0864/e02eddb5-f468-499c-91bf-f7be3ffe979b.jpg"",""img/0769/458d9c77-b844-40b5-bb1b-1e3bbd4da64e.jpg""]","",""
"","2912","similarity","137","920216","0.0-6.0-131.0","1","[""img/0903/b4a0f61e-a964-4b79-a9a7-f767a8f92f34.jpg"",""img/0868/3a62db2d-97e9-44a3-b8e3-a48c6f0e423b.jpg""]","",""
"","3787","similarity","138","925039","0.0-6.0-132.0","4","[""img/0864/6e846d43-94a6-4b37-a268-65eda979f052.jpg"",""img/0867/ac1797e4-8afc-48fe-b252-86d1defb1cca.jpg""]","",""
"","3636","similarity","139","929702","0.0-6.0-133.0","3","[""img/0901/a373612d-67e2-4fec-9764-21d3d6ef6359.jpg"",""img/0860/524b2e98-5767-4d53-942c-ebae6925659b.jpg""]","",""
"","2958","similarity","140","933694","0.0-6.0-134.0","2","[""img/0881/84397291-bc14-4fbf-90e8-241e486ab0fe.jpg"",""img/0766/717fd72f-a281-499b-a5ba-5e2ecc4d4866.jpg""]","",""
"","3231","similarity","141","937959","0.0-6.0-135.0","3","[""img/0903/71dbc325-b588-4297-a5cf-7f268a722ad9.jpg"",""img/0864/66091c27-e588-4476-8af9-265dc6be4156.jpg""]","",""
"","3788","similarity","142","942773","0.0-6.0-136.0","2","[""img/0758/7ee8bc8f-c40b-4b3a-84ec-3e83580622d4.jpg"",""img/0894/bd34223a-2f66-4e16-9d18-193a746b69ff.jpg""]","",""
"","4434","similarity","143","948241","0.0-6.0-137.0","2","[""img/0769/da36e3f7-2337-434f-ab57-11822dd7eed7.jpg"",""img/0860/15b24a61-25be-4356-9eac-5ce95d0cb4a4.jpg""]","",""
"","3794","similarity","144","953078","0.0-6.0-138.0","3","[""img/0904/d23dd7be-7fe8-4435-82f7-bd592c01e6a1.jpg"",""img/0766/a1ed3f0f-e338-4a26-8fe4-4370f0c9fa6e.jpg""]","",""
"","2685","similarity","145","956788","0.0-6.0-139.0","4","[""img/0868/77091fc7-a590-4ebb-b915-fdb2483a2399.jpg"",""img/0860/18dfed73-e36b-4487-a8bd-0b8cff8e3668.jpg""]","",""
"","2451","similarity","146","960266","0.0-6.0-140.0","6","[""img/0758/7ffbc76b-1fc1-432c-8f7e-9ec8d1b3f643.jpg"",""img/0864/300bb811-8b3c-4c42-8653-6097c3725197.jpg""]","",""
"","5410","similarity","147","966721","0.0-6.0-141.0","7","[""img/0867/7d1c497b-c1b3-4ed8-abb5-d7f73306015f.jpg"",""img/0867/26611f4e-d694-4460-b7e2-43c62753ddc3.jpg""]","",""
"","3341","similarity","148","971093","0.0-6.0-142.0","7","[""img/0898/881e2a85-d5c2-49be-a0c6-8a6ce2c4af08.jpg"",""img/0898/04e39a7a-fcf6-4156-ab0e-f5871f335e1c.jpg""]","",""
"","2538","similarity","149","974657","0.0-6.0-143.0","3","[""img/0866/d266fece-59b3-46fa-b69f-96f6efb81b59.jpg"",""img/0769/76eaa4a3-dfe9-4dc1-9efb-caebe86264e1.jpg""]","",""
"","2975","similarity","150","978657","0.0-6.0-144.0","3","[""img/0860/5383b320-1518-4095-a58e-5cc1ae30b64c.jpg"",""img/0898/6cd3830b-d44e-4915-be2b-88d31424b91c.jpg""]","",""
"","2588","similarity","151","982267","0.0-6.0-145.0","2","[""img/0766/535849cc-ff5d-4df9-8f31-0ce94a97d571.jpg"",""img/0864/afcba0a3-7e27-4757-b254-e9f05fad27e2.jpg""]","",""
"","3019","similarity","152","986325","0.0-6.0-146.0","4","[""img/0860/99c589b9-9140-4d17-90c0-b344323edcda.jpg"",""img/0903/5248eedd-7e6a-4d39-91b0-06ec227f3ed0.jpg""]","",""
"","2722","similarity","153","990096","0.0-6.0-147.0","3","[""img/0867/98d8cd96-1476-4fe0-a3a3-04f875500a1b.jpg"",""img/0764/b887d7c6-aa81-4637-af8e-05135757ac59.jpg""]","",""
"","4880","similarity","154","996005","0.0-6.0-148.0","5","[""img/0769/3c1efec9-f8fd-487d-8955-4be88e48c832.jpg"",""img/0904/63dd06dd-dccb-47ba-9740-eb33239e18a7.jpg""]","",""
"","2931","similarity","155","999980","0.0-6.0-149.0","4","[""img/0764/fb7d4a20-a475-465e-a74f-aa39a0d33d16.jpg"",""img/0901/4ca4f962-40c0-4c59-b14a-3cd7b8c9029b.jpg""]","",""
"","4963","similarity","156","1005973","0.0-6.0-150.0","4","[""img/0904/0d25eb24-bb20-4e8d-9787-8b489558b4cb.jpg"",""img/0899/ddf96ade-692e-4602-bd22-dedbb46401bc.jpg""]","",""
"","2561","similarity","157","1009560","0.0-6.0-151.0","4","[""img/0862/ee3b7bff-4a70-4e84-9bea-4a565e456acb.jpg"",""img/0867/85a96c62-548f-4994-9553-819e03c3135a.jpg""]","",""
"","2536","similarity","158","1013125","0.0-6.0-152.0","7","[""img/0766/d5d38751-8fa5-476f-93e9-86ed2d9045ef.jpg"",""img/0766/d512b99c-a2dc-40d7-8e86-827323a0cbcf.jpg""]","",""
"","2765","similarity","159","1016938","0.0-6.0-153.0","2","[""img/0862/92f0146c-20c4-482e-aef5-adb693790338.jpg"",""img/0894/b2d2f66e-e480-46da-a02a-6d0c6b285d78.jpg""]","",""
"","4506","similarity","160","1022491","0.0-6.0-154.0","5","[""img/0899/d8f2dd94-570e-4e8c-a087-d96090fb9e8c.jpg"",""img/0901/0f670aef-ac36-496d-8142-ee5fdb21dd82.jpg""]","",""
"","2578","similarity","161","1026101","0.0-6.0-155.0","7","[""img/0874/29830da7-be5f-44e5-b141-652a0ccf7269.jpg"",""img/0874/adf9a8f1-c40b-402b-b95b-1e85a54a7b62.jpg""]","",""
"","4472","similarity","162","1031610","0.0-6.0-156.0","4","[""img/0860/87039971-2210-4aab-93c0-8e9b5f1655b2.jpg"",""img/0867/a498eef3-9fa4-4ab2-9778-4ae82ac40dc5.jpg""]","",""
"","4519","similarity","163","1037164","0.0-6.0-157.0","3","[""img/0901/f1116359-1ff1-4638-b3b3-700918d36d18.jpg"",""img/0881/e046471a-35b4-4159-bbf7-3cfd201bef66.jpg""]","",""
"","3287","similarity","164","1041486","0.0-6.0-158.0","6","[""img/0903/0a92ec52-4e87-410a-857a-4455cde56a70.jpg"",""img/0902/27b84584-948a-485b-8749-cb09929ef631.jpg""]","",""
"","3241","similarity","165","1045753","0.0-6.0-159.0","3","[""img/0860/31ff6436-98bf-4652-bed2-40f627229568.jpg"",""img/0764/e48e6c6f-9e28-420f-836a-8043b2319bb4.jpg""]","",""
"","2879","similarity","166","1049683","0.0-6.0-160.0","2","[""img/0902/fbef27fa-ac83-4936-ab78-9d1c20a383e1.jpg"",""img/0875/8521fd58-3b1e-4dc5-97ae-804edfa6734a.jpg""]","",""
"","3395","similarity","167","1054113","0.0-6.0-161.0","3","[""img/0898/08c72dac-f8ad-407a-9ce6-8c9a5d679c3a.jpg"",""img/0862/53a9cf7c-93c4-41b9-952f-07d17f7a17b2.jpg""]","",""
"","4581","similarity","168","1059730","0.0-6.0-162.0","2","[""img/0894/1a010553-d598-4b06-a772-81f1e7b3addb.jpg"",""img/0875/dbdd643e-6d0e-4a5c-ab57-b9c29b9c981a.jpg""]","",""
"","3285","similarity","169","1064050","0.0-6.0-163.0","4","[""img/0866/0207e9a2-7dbb-40b5-9459-b472aaeceb2a.jpg"",""img/0864/6f631579-acf1-415c-a42c-1207f62a8d99.jpg""]","",""
"","4695","similarity","170","1069784","0.0-6.0-164.0","1","[""img/0766/a0270213-fa0e-4972-8b56-228c3e01ff90.jpg"",""img/0862/1c20f772-3a51-4a80-aac0-f57dc9f86c28.jpg""]","",""
"","6342","similarity","171","1077154","0.0-6.0-165.0","4","[""img/0866/945c6710-d15b-4a5b-a8f6-69af0850357f.jpg"",""img/0874/a82926a3-0b43-4add-803c-d5f9ea7798ee.jpg""]","",""
"","3263","similarity","172","1081450","0.0-6.0-166.0","6","[""img/0862/fb26cb07-d5a9-4653-813c-f41609f26cd5.jpg"",""img/0860/c7047cd2-7cc1-41b6-8a34-c0986774975f.jpg""]","",""
"","3249","similarity","173","1091075","0.0-6.0-167.0","4","[""img/0766/3c526a07-9e0a-4ae2-8142-00085f0127da.jpg"",""img/0901/62315ff5-ed95-46b4-b099-92552079659b.jpg""]","",""
"","3145","similarity","174","1095258","0.0-6.0-168.0","7","[""img/0862/cdaed51d-9e2f-4807-801a-4663c40077e2.jpg"",""img/0862/99a99e39-8355-44ec-b993-e7bcec111e1c.jpg""]","",""
"","3096","similarity","175","1099390","0.0-6.0-169.0","7","[""img/0894/6b2e9509-8699-42b7-9582-7741df0ba2d7.jpg"",""img/0764/d7c215ab-ea9a-45be-8d5f-417d5b9a8a17.jpg""]","",""
"","3472","similarity","176","1103891","0.0-6.0-170.0","3","[""img/0874/995f0332-0439-4eb4-add3-957335dbf6d9.jpg"",""img/0898/68476bbb-34a1-42d9-8bc1-deab783d4489.jpg""]","",""
"","4456","similarity","177","1109384","0.0-6.0-171.0","2","[""img/0860/17b44a7d-c5ca-479f-9e87-f65a64f5c80e.jpg"",""img/0766/f5f78e4e-d88f-4866-951a-118ba9fec4d0.jpg""]","",""
"","3620","similarity","178","1114040","0.0-6.0-172.0","2","[""img/0898/661621d4-a14e-487c-8c74-354134a29710.jpg"",""img/0864/f92649a2-0590-4d31-9a7a-1bfb81666a2d.jpg""]","",""
"","4215","similarity","179","1119282","0.0-6.0-173.0","3","[""img/0881/f037e3b0-09cb-4a83-b2d9-6a71fe474e63.jpg"",""img/0764/29072395-f595-4e3c-83d3-ff87010039fa.jpg""]","",""
"","2743","similarity","180","1123057","0.0-6.0-174.0","1","[""img/0898/a8f16b02-e19f-423b-86c3-a36562ae1f9b.jpg"",""img/0868/179a5502-ab5c-478e-8263-5a1fbcc101d2.jpg""]","",""
"","2396","similarity","181","1126480","0.0-6.0-175.0","7","[""img/0864/ef9cbca0-4be8-435d-ad49-977259e80409.jpg"",""img/0864/0116ca98-293d-4fa6-a93b-5a6144ef64cc.jpg""]","",""
"","4119","similarity","182","1131628","0.0-6.0-176.0","2","[""img/0899/0e1d936a-dbe2-4afc-9f19-7b7a1ae6c9ed.jpg"",""img/0862/f188d4f0-76a4-4102-818c-a209969d73a5.jpg""]","",""
"","4196","similarity","183","1136886","0.0-6.0-177.0","5","[""img/0875/42910c99-5463-450a-a0f8-d4d060a11455.jpg"",""img/0758/61d64021-9214-4951-bdf8-f871f9827cf9.jpg""]","",""
"","3508","similarity","184","1141428","0.0-6.0-178.0","1","[""img/0866/386235d2-6857-41e7-88a8-25cfc3430025.jpg"",""img/0901/a6c90438-fa7c-4418-ac7c-16c2e772dd98.jpg""]","",""
"","2673","similarity","185","1145132","0.0-6.0-179.0","3","[""img/0769/022c7e3b-c3f2-4119-b4bc-f22fa7cae18c.jpg"",""img/0874/ca23d307-fc00-4d7d-9106-584c6eb21b4d.jpg""]","",""
"","2358","similarity","186","1148515","0.0-6.0-180.0","5","[""img/0875/ebf7653f-ff45-4e9f-af58-2c042ab3cd2b.jpg"",""img/0881/f4e3e181-b3c9-4af2-a5a4-fc135ab70d2e.jpg""]","",""
"","4367","similarity","187","1153924","0.0-6.0-181.0","7","[""img/0866/d493a2c8-66eb-44b4-be02-2f327b700b7c.jpg"",""img/0868/fd307a36-9a3a-47d7-ab7c-f810d0b35040.jpg""]","",""
"","3547","similarity","188","1158510","0.0-6.0-182.0","3","[""img/0899/f95cbdb4-f804-4f5d-ad76-373ad343e658.jpg"",""img/0758/a085b443-b5d7-4cb2-9ad4-b9dab0fc23f1.jpg""]","",""
"","2107","similarity","189","1161651","0.0-6.0-183.0","5","[""img/0874/eba003b4-cdab-4eee-8bc3-f064c7d94165.jpg"",""img/0875/d59ff733-eaff-4ee2-9443-06954dd0bcb6.jpg""]","",""
"","2413","similarity","190","1165105","0.0-6.0-184.0","4","[""img/0904/4e58005d-a2ec-4aaa-b199-445343561396.jpg"",""img/0862/92fcd8a4-8193-4a6a-ae09-dd4a6338b0df.jpg""]","",""
"","3373","similarity","191","1169514","0.0-6.0-185.0","4","[""img/0902/0eb85fbc-27c8-41df-9d0b-a5f9efd417d1.jpg"",""img/0766/27f54113-8561-4568-9ffe-0a1650ae65ec.jpg""]","",""
"","5537","similarity","192","1176084","0.0-6.0-186.0","3","[""img/0758/a709631e-3705-4725-ac40-f0d916924f08.jpg"",""img/0769/878531fd-e0e8-4ad1-b9ad-f018bb104ca0.jpg""]","",""
"","4245","similarity","193","1181366","0.0-6.0-187.0","6","[""img/0881/667e2147-d457-4f32-aa5f-6ab86e5848f1.jpg"",""img/0881/db77fe00-aeb0-4d1d-aa66-f3a96fd077e4.jpg""]","",""
"","2590","similarity","194","1185000","0.0-6.0-188.0","4","[""img/0758/2fa3e613-e676-4e6e-bd12-705327eeb3e1.jpg"",""img/0866/6f2a90d7-14f1-4f1b-bd64-fc0af6b9fe44.jpg""]","",""
"","3049","similarity","195","1189077","0.0-6.0-189.0","5","[""img/0764/23ea9375-f801-4a96-9925-7d453da887c7.jpg"",""img/0898/b2732712-71c2-45d8-834f-2b2ed5504910.jpg""]","",""
"","4912","similarity","196","1195028","0.0-6.0-190.0","6","[""img/0903/24477210-856c-4550-9de0-9f85a32762eb.jpg"",""img/0901/d61f267a-c492-4db6-9bfb-61efd49cf072.jpg""]","",""
"","2953","similarity","197","1199028","0.0-6.0-191.0","7","[""img/0902/aa6fca32-82b0-4414-b20a-8f6f8aa5a2d2.jpg"",""img/0898/01bfe666-3510-4fc7-964f-d00d28732dc8.jpg""]","",""
"","2756","similarity","198","1202826","0.0-6.0-192.0","4","[""img/0864/c22faebd-9c53-47bc-ada3-b9a30c688e75.jpg"",""img/0901/7c16dd9c-44ad-4d5b-990c-6a0b9b48b1b1.jpg""]","",""
"","2820","similarity","199","1206679","0.0-6.0-193.0","5","[""img/0894/76c1201f-8524-4865-85e6-dda8cb4ac986.jpg"",""img/0881/292e9b4b-fca0-4ba8-87f1-4048f9e37b7d.jpg""]","",""
"","4204","similarity","200","1211921","0.0-6.0-194.0","7","[""img/0868/4bd5105a-d2c3-4f82-8c80-57196106ba53.jpg"",""img/0868/0d3abd3a-b6c3-4584-a9f7-e2da63748b3d.jpg""]","",""
"","4179","similarity","201","1217127","0.0-6.0-195.0","5","[""img/0899/8abe6c69-822c-436c-9bf2-96c818b49ba5.jpg"",""img/0764/c01e2d65-6586-441b-bef5-3c96fcd85380.jpg""]","",""
"","2744","similarity","202","1220909","0.0-6.0-196.0","2","[""img/0881/5fe04dd0-5c74-47b7-99c8-b068db9ca26a.jpg"",""img/0904/09dac84f-3d1c-4445-a68e-d0389fdbf1e9.jpg""]","",""
"","6050","similarity","203","1227989","0.0-6.0-197.0","2","[""img/0864/c3b63e8f-ea39-4d70-a1f2-b3fe4be8eb75.jpg"",""img/0902/12452bb1-b8c0-4e4d-ad4d-47e279e5933c.jpg""]","",""
"","2485","similarity","204","1231522","0.0-6.0-198.0","7","[""img/0894/e2446cf5-cd48-486a-badc-76498e087fbe.jpg"",""img/0904/73920552-103b-4c9c-9ece-e0b8376b4504.jpg""]","",""
"","2573","similarity","205","1235133","0.0-6.0-199.0","7","[""img/0901/12da1841-e611-435c-9719-109413d536a8.jpg"",""img/0901/1ede21d9-384f-4150-86b5-e1c57b5dc1d4.jpg""]","",""
"","3896","similarity","206","1240063","0.0-6.0-200.0","2","[""img/0894/5f15154e-e72e-4ce5-aafb-bce6f0564006.jpg"",""img/0860/d9a0d117-6d1d-41c0-8fec-9aff0fd9e9f2.jpg""]","",""
"","5423","similarity","207","1246518","0.0-6.0-201.0","6","[""img/0898/224c1572-56b9-4f16-a9e4-6f3bc9c114bd.jpg"",""img/0903/0fb24af7-9a26-4e9d-aadc-959a36f683e2.jpg""]","",""
"","3147","similarity","208","1250700","0.0-6.0-202.0","2","[""img/0864/3d4de670-b290-4285-9c3d-12a0e3af44e9.jpg"",""img/0894/1b3888e6-cf36-4c4a-a039-187aa5cb71ac.jpg""]","",""
"","3427","similarity","209","1255162","0.0-6.0-203.0","5","[""img/0874/ca76a855-4e77-4f2f-872a-0a718153e7ed.jpg"",""img/0860/9593362c-9fe5-4d12-9735-6000a11f6aa5.jpg""]","",""
"","3745","similarity","210","1259938","0.0-6.0-204.0","5","[""img/0862/5d887e9f-89e2-4ebc-80a0-6d46fe6480db.jpg"",""img/0875/34132396-d896-4c2d-8087-646dd867e769.jpg""]","",""
"","2126","similarity","211","1263118","0.0-6.0-205.0","5","[""img/0867/075e0f95-856b-4cbb-acf5-092393aaf04e.jpg"",""img/0881/4bd34581-94d8-4e88-8c89-5cef864ca3be.jpg""]","",""
"","3953","similarity","212","1268104","0.0-6.0-206.0","6","[""img/0901/deff6cfb-0072-4490-bc3e-206bbcd3e8bf.jpg"",""img/0902/8af4182a-9af9-4212-a436-9195555112d6.jpg""]","",""
"","4008","similarity","213","1273135","0.0-6.0-207.0","2","[""img/0899/b45c550b-96c3-4255-ad59-48a2b4db1c1e.jpg"",""img/0864/65210d57-1153-4657-886a-32e758f49b4a.jpg""]","",""
"","2439","similarity","214","1276621","0.0-6.0-208.0","5","[""img/0901/ae1e6ce4-2e10-4ca9-b1e7-21628637ab74.jpg"",""img/0769/50985283-d353-4abc-9abe-14a91d56ebe6.jpg""]","",""
"","3346","similarity","215","1285700","0.0-6.0-209.0","7","[""img/0902/94198618-7047-4dc9-ad04-85f4ba913067.jpg"",""img/0902/d3e55000-c839-4bf9-9b9b-4af0a9925af1.jpg""]","",""
"[{""page_index"":0,""viewing_time"":4836}]","4837","instructions","216","1291555","0.0-7.0","","","",""
"","10547","image-multi-choice","217","1303202","0.0-8.0-0.0","","","{""Q0"":""Nashville Warbler""}","Nashville Warbler"
"","4791","image-multi-choice","218","1309079","0.0-8.0-1.0","","","{""Q0"":""Black-and-white Warbler""}","Black-and-white Warbler"
"","3111","image-multi-choice","219","1313285","0.0-8.0-2.0","","","{""Q0"":""Townsend's Warbler""}","Townsend's Warbler"
"","3460","image-multi-choice","220","1317832","0.0-8.0-3.0","","","{""Q0"":""Lark Sparrow""}","Lark Sparrow"
"","3786","image-multi-choice","221","1322708","0.0-8.0-4.0","","","{""Q0"":""Yellow Warbler""}","Yellow Warbler"
"","3987","image-multi-choice","222","1327774","0.0-8.0-5.0","","","{""Q0"":""Orange-crowned Warbler""}","Orange-crowned Warbler"
"","2959","image-multi-choice","223","1331814","0.0-8.0-6.0","","","{""Q0"":""White-throated Sparrow""}","White-throated Sparrow"
"","2860","image-multi-choice","224","1335775","0.0-8.0-7.0","","","{""Q0"":""Fox Sparrow""}","Fox Sparrow"
"","4539","image-multi-choice","225","1341401","0.0-8.0-8.0","","","{""Q0"":""Song Sparrow""}","Song Sparrow"
"","2967","image-multi-choice","226","1345457","0.0-8.0-9.0","","","{""Q0"":""Blackburnian Warbler""}","Blackburnian Warbler"
"","5162","image-multi-choice","227","1351707","0.0-8.0-10.0","","","{""Q0"":""Vesper Sparrow""}","Vesper Sparrow"
"","2512","image-multi-choice","228","1355311","0.0-8.0-11.0","","","{""Q0"":""White-crowned Sparrow""}","White-crowned Sparrow"
"","7425","image-multi-choice","229","1363821","0.0-8.0-12.0","","","{""Q0"":""American Tree Sparrow""}","American Tree Sparrow"
"","4543","image-multi-choice","230","1369441","0.0-8.0-13.0","","","{""Q0"":""Tennessee Warbler""}","Tennessee Warbler"
"","2923","image-multi-choice","231","1373440","0.0-8.0-14.0","","","{""Q0"":""Magnolia Warbler""}","Magnolia Warbler"
"","2828","image-multi-choice","232","1377378","0.0-8.0-15.0","","","{""Q0"":""Northern Waterthrush""}","Northern Waterthrush"
"","7927","image-multi-choice","233","1386380","0.0-8.0-16.0","","","{""Q0"":""Chipping Sparrow""}","Chipping Sparrow"
"","2788","image-multi-choice","234","1390239","0.0-8.0-17.0","","","{""Q0"":""Swamp Sparrow""}","Swamp Sparrow"
"","3576","image-multi-choice","235","1394920","0.0-8.0-18.0","","","{""Q0"":""Lincoln's Sparrow""}","Lincoln's Sparrow"
"","3036","image-multi-choice","236","1399062","0.0-8.0-19.0","","","{""Q0"":""Ovenbird""}","Ovenbird"
