[{"view_history":"[{\"page_index\":0,\"viewing_time\":180108}]","rt":180109,"trial_type":"instructions","trial_index":0,"time_elapsed":180111,"internal_node_id":"0.0-0.0"},{"sim_score":5,"rt":8596,"stimulus":"[\"img/866.jpg\",\"img/868.jpg\"]","trial_type":"similarity_demo","trial_index":1,"time_elapsed":189738,"internal_node_id":"0.0-1.0"},{"view_history":"[{\"page_index\":0,\"viewing_time\":14873}]","rt":14875,"trial_type":"instructions","trial_index":2,"time_elapsed":205617,"internal_node_id":"0.0-2.0"},{"sim_score":2,"rt":5296,"stimulus":"[\"img/766.jpg\",\"img/867.jpg\"]","trial_type":"similarity_demo","trial_index":3,"time_elapsed":211949,"internal_node_id":"0.0-3.0"},{"view_history":"[{\"page_index\":0,\"viewing_time\":7689}]","rt":7689,"trial_type":"instructions","trial_index":4,"time_elapsed":220652,"internal_node_id":"0.0-4.0"},{"view_history":"[{\"page_index\":0,\"viewing_time\":25210}]","rt":25211,"trial_type":"instructions","trial_index":5,"time_elapsed":246878,"internal_node_id":"0.0-5.0"},{"sim_score":1,"rt":6277,"stimulus":"[\"img/0868/09a9ef4d-d000-4cfa-a6aa-ebec7c2edeb4.jpg\",\"img/0901/08d6d1d1-c043-43c4-bb08-d45e062822b9.jpg\"]","trial_type":"similarity","trial_index":6,"time_elapsed":254212,"internal_node_id":"0.0-6.0-0.0"},{"sim_score":3,"rt":5259,"stimulus":"[\"img/0769/e8ed913b-8a88-44f6-9327-d34afec3116b.jpg\",\"img/0867/f26f6b60-f772-4f4c-95a4-addc62cfd692.jpg\"]","trial_type":"similarity","trial_index":7,"time_elapsed":260504,"internal_node_id":"0.0-6.0-1.0"},{"sim_score":3,"rt":4767,"stimulus":"[\"img/0766/d14acac4-7db1-4b07-8f8f-302437326fc0.jpg\",\"img/0898/993d8f2d-bef7-4251-a193-0f93a32b7763.jpg\"]","trial_type":"similarity","trial_index":8,"time_elapsed":266310,"internal_node_id":"0.0-6.0-2.0"},{"sim_score":2,"rt":6107,"stimulus":"[\"img/0902/c920f0e1-1c81-480f-a164-c77f2dc6ce9a.jpg\",\"img/0881/566f45f8-5fed-4479-a60f-26377e60a62d.jpg\"]","trial_type":"similarity","trial_index":9,"time_elapsed":273454,"internal_node_id":"0.0-6.0-3.0"},{"sim_score":6,"rt":4599,"stimulus":"[\"img/0894/492d2f29-d7b9-4422-8be8-47fd58bfaa8b.jpg\",\"img/0894/5ff3c4f6-52e2-4075-8679-be0312e59703.jpg\"]","trial_type":"similarity","trial_index":10,"time_elapsed":279089,"internal_node_id":"0.0-6.0-4.0"},{"sim_score":2,"rt":4188,"stimulus":"[\"img/0874/1016b306-087c-4afc-aa08-fa527b28dc76.jpg\",\"img/0899/1b3457ea-87d4-4946-a01c-aac1863ed46c.jpg\"]","trial_type":"similarity","trial_index":11,"time_elapsed":284325,"internal_node_id":"0.0-6.0-5.0"},{"sim_score":5,"rt":3536,"stimulus":"[\"img/0904/da170c1b-9651-4f08-b231-2bdd1d9a046f.jpg\",\"img/0764/ec2dd087-c471-4370-b570-95a542506a96.jpg\"]","trial_type":"similarity","trial_index":12,"time_elapsed":288898,"internal_node_id":"0.0-6.0-6.0"},{"sim_score":7,"rt":3505,"stimulus":"[\"img/0899/8de08897-b430-42fe-9d42-840670b80f94.jpg\",\"img/0898/26c41340-15bd-4ead-8fe4-c0d0ddca09c2.jpg\"]","trial_type":"similarity","trial_index":13,"time_elapsed":293438,"internal_node_id":"0.0-6.0-7.0"},{"sim_score":2,"rt":3765,"stimulus":"[\"img/0874/93d1f8dc-acf2-4f03-bd8d-8ec35df276ed.jpg\",\"img/0903/36e4ab1f-caa9-40b3-8616-faada076df94.jpg\"]","trial_type":"similarity","trial_index":14,"time_elapsed":298253,"internal_node_id":"0.0-6.0-8.0"},{"sim_score":7,"rt":3641,"stimulus":"[\"img/0881/19e82c47-8e4b-45d2-a6c8-74181eb4155e.jpg\",\"img/0758/eabcd7a8-56ad-4fd2-bc24-90f6b7b33265.jpg\"]","trial_type":"similarity","trial_index":15,"time_elapsed":302932,"internal_node_id":"0.0-6.0-9.0"},{"sim_score":5,"rt":4143,"stimulus":"[\"img/0898/c3cecf20-f7fd-45fa-97d0-dc0a63e8d6c0.jpg\",\"img/0901/bc47e078-bda4-40ed-b89a-bbd819164b95.jpg\"]","trial_type":"similarity","trial_index":16,"time_elapsed":308098,"internal_node_id":"0.0-6.0-10.0"},{"sim_score":5,"rt":3064,"stimulus":"[\"img/0903/8fcafe03-43df-4c45-9da5-0df3a1eeccc5.jpg\",\"img/0769/db94b61b-a5a7-4861-9d32-7b02ad194fb0.jpg\"]","trial_type":"similarity","trial_index":17,"time_elapsed":312202,"internal_node_id":"0.0-6.0-11.0"},{"sim_score":2,"rt":3491,"stimulus":"[\"img/0764/8740679b-b56f-4292-aece-14063457113a.jpg\",\"img/0868/c8ac40c7-6904-4e13-8d61-c75d3052dc4e.jpg\"]","trial_type":"similarity","trial_index":18,"time_elapsed":316727,"internal_node_id":"0.0-6.0-12.0"},{"sim_score":1,"rt":3968,"stimulus":"[\"img/0867/c71dc569-f49c-4397-8381-68b8d726736d.jpg\",\"img/0903/8f7f9939-b8e6-433f-93dd-b362496c80a7.jpg\"]","trial_type":"similarity","trial_index":19,"time_elapsed":321728,"internal_node_id":"0.0-6.0-13.0"},{"sim_score":1,"rt":2875,"stimulus":"[\"img/0766/989c5c7f-1aff-4442-ac63-9d46acf4a891.jpg\",\"img/0758/3ddd05d3-557e-4ee7-8b78-9d2d681d8ae2.jpg\"]","trial_type":"similarity","trial_index":20,"time_elapsed":325642,"internal_node_id":"0.0-6.0-14.0"},{"sim_score":5,"rt":2931,"stimulus":"[\"img/0902/cf9dee9c-2bdf-4d64-9302-97f1660fe52c.jpg\",\"img/0860/4a022222-056d-461c-ab02-39fac9647552.jpg\"]","trial_type":"similarity","trial_index":21,"time_elapsed":329598,"internal_node_id":"0.0-6.0-15.0"},{"sim_score":2,"rt":6592,"stimulus":"[\"img/0769/91acb237-65a3-4d0b-9748-af5c7b83d3c7.jpg\",\"img/0875/90da8d75-108a-44ad-b999-e21fee3860d3.jpg\"]","trial_type":"similarity","trial_index":22,"time_elapsed":337224,"internal_node_id":"0.0-6.0-16.0"},{"sim_score":1,"rt":3792,"stimulus":"[\"img/0904/5cceabc9-de1d-4c67-989b-c28a4ef77e79.jpg\",\"img/0866/4a87911a-d5be-4d4e-ab8e-3d1f581bf507.jpg\"]","trial_type":"similarity","trial_index":23,"time_elapsed":342054,"internal_node_id":"0.0-6.0-17.0"},{"sim_score":7,"rt":3720,"stimulus":"[\"img/0875/5a7c4e35-6514-4e12-8879-d16071da4cd6.jpg\",\"img/0875/5a716432-c6ca-4b1c-955a-2b8ac25198ee.jpg\"]","trial_type":"similarity","trial_index":24,"time_elapsed":346812,"internal_node_id":"0.0-6.0-18.0"},{"sim_score":7,"rt":3225,"stimulus":"[\"img/0758/e1ba5e53-addc-436a-b428-d34fc1b130dc.jpg\",\"img/0758/f61ecdf8-a7d4-4db0-b84d-be46f7cfaffc.jpg\"]","trial_type":"similarity","trial_index":25,"time_elapsed":351064,"internal_node_id":"0.0-6.0-19.0"},{"sim_score":3,"rt":5099,"stimulus":"[\"img/0902/82d20e8c-2162-47a6-925b-52906558c046.jpg\",\"img/0874/bf14b896-e930-4fd9-9c05-2e83317a2773.jpg\"]","trial_type":"similarity","trial_index":26,"time_elapsed":357191,"internal_node_id":"0.0-6.0-20.0"},{"sim_score":5,"rt":5337,"stimulus":"[\"img/0764/ef0e64c6-d0dd-4dc6-87b6-ce5c0665f421.jpg\",\"img/0769/96556ef3-7fac-4c9d-8281-1cb0ea5081bc.jpg\"]","trial_type":"similarity","trial_index":27,"time_elapsed":363575,"internal_node_id":"0.0-6.0-21.0"},{"sim_score":2,"rt":4211,"stimulus":"[\"img/0901/31c032fd-3c3d-4882-a226-da9a80198937.jpg\",\"img/0874/85eb9b8a-c4c6-4e5a-b8e7-363a87a82054.jpg\"]","trial_type":"similarity","trial_index":28,"time_elapsed":368827,"internal_node_id":"0.0-6.0-22.0"},{"sim_score":3,"rt":3244,"stimulus":"[\"img/0875/a4935837-7d3c-4df6-88c1-36a94d4991ca.jpg\",\"img/0903/39365c8e-a733-4801-ac7d-b87e38c3784b.jpg\"]","trial_type":"similarity","trial_index":29,"time_elapsed":373102,"internal_node_id":"0.0-6.0-23.0"},{"sim_score":1,"rt":6382,"stimulus":"[\"img/0769/1d8734c4-77ab-4165-9e71-5cfe672ff01c.jpg\",\"img/0881/adc02f34-ce97-4aef-850f-00519df06fd7.jpg\"]","trial_type":"similarity","trial_index":30,"time_elapsed":380517,"internal_node_id":"0.0-6.0-24.0"},{"sim_score":2,"rt":7633,"stimulus":"[\"img/0867/1719a35d-f085-48c0-9099-16c94fe418b4.jpg\",\"img/0904/b7c2a2c8-df33-4473-b3d4-ff7147c60db3.jpg\"]","trial_type":"similarity","trial_index":31,"time_elapsed":389184,"internal_node_id":"0.0-6.0-25.0"},{"sim_score":5,"rt":3385,"stimulus":"[\"img/0860/f44ba3fb-03a2-42f0-8509-2c1ded493086.jpg\",\"img/0881/6b1189e6-232d-4042-8885-16dc7b10e0d4.jpg\"]","trial_type":"similarity","trial_index":32,"time_elapsed":393616,"internal_node_id":"0.0-6.0-26.0"},{"sim_score":7,"rt":3481,"stimulus":"[\"img/0866/07c9c966-3c8d-40e7-8128-92b2acbaed5d.jpg\",\"img/0866/11a1d141-be5e-443c-98c1-a9d4d9e3dec0.jpg\"]","trial_type":"similarity","trial_index":33,"time_elapsed":398125,"internal_node_id":"0.0-6.0-27.0"},{"sim_score":3,"rt":4044,"stimulus":"[\"img/0764/c84fbfa8-521c-407a-9bd3-24f7308d896c.jpg\",\"img/0862/e0f1a4e9-e1b6-45f7-af67-89f334e6630d.jpg\"]","trial_type":"similarity","trial_index":34,"time_elapsed":403196,"internal_node_id":"0.0-6.0-28.0"},{"sim_score":2,"rt":3203,"stimulus":"[\"img/0904/0d17b811-063e-416e-a23c-3b3cfa4fcce5.jpg\",\"img/0758/d540bee6-b460-4c32-ac57-bc282742d7d4.jpg\"]","trial_type":"similarity","trial_index":35,"time_elapsed":407424,"internal_node_id":"0.0-6.0-29.0"},{"sim_score":6,"rt":4887,"stimulus":"[\"img/0894/e5edf723-72a5-4673-8441-6c1734a8929b.jpg\",\"img/0899/5b56dd3e-3f49-47cc-af84-16da6457753b.jpg\"]","trial_type":"similarity","trial_index":36,"time_elapsed":413339,"internal_node_id":"0.0-6.0-30.0"},{"sim_score":2,"rt":4753,"stimulus":"[\"img/0860/c47fdead-eb02-4989-b078-26f4852f44fe.jpg\",\"img/0904/56e73f28-7e64-489b-a161-e6b1a063878d.jpg\"]","trial_type":"similarity","trial_index":37,"time_elapsed":419137,"internal_node_id":"0.0-6.0-31.0"},{"sim_score":6,"rt":3850,"stimulus":"[\"img/0874/99f6563c-8a8d-4c1c-a41d-667b618c3fd5.jpg\",\"img/0881/c843e210-bdfe-4a7c-8bbe-fcea1f90fe1c.jpg\"]","trial_type":"similarity","trial_index":38,"time_elapsed":424012,"internal_node_id":"0.0-6.0-32.0"},{"sim_score":2,"rt":4210,"stimulus":"[\"img/0881/633c6f40-56d9-4b48-bf1c-ecd83116eabb.jpg\",\"img/0899/93494f3b-d539-4075-b027-d82e344563da.jpg\"]","trial_type":"similarity","trial_index":39,"time_elapsed":429256,"internal_node_id":"0.0-6.0-33.0"},{"sim_score":5,"rt":3204,"stimulus":"[\"img/0866/be24ab58-230e-4db8-9f45-ff04c9aec6bb.jpg\",\"img/0862/f23038d4-c366-4f70-979f-66b62362efa4.jpg\"]","trial_type":"similarity","trial_index":40,"time_elapsed":433507,"internal_node_id":"0.0-6.0-34.0"},{"sim_score":2,"rt":4525,"stimulus":"[\"img/0868/8b0b8473-e2c0-4331-aa56-c3a5c29369da.jpg\",\"img/0894/05161000-f476-499b-a878-c13c7f347fd9.jpg\"]","trial_type":"similarity","trial_index":41,"time_elapsed":439071,"internal_node_id":"0.0-6.0-35.0"},{"sim_score":7,"rt":3965,"stimulus":"[\"img/0860/71e1aad0-2cdf-43bb-94a4-a8c016997c30.jpg\",\"img/0860/8a92e21b-6a32-4e4a-a445-2d5a487ed0a4.jpg\"]","trial_type":"similarity","trial_index":42,"time_elapsed":444065,"internal_node_id":"0.0-6.0-36.0"},{"sim_score":6,"rt":5817,"stimulus":"[\"img/0862/847e5208-38ec-4f36-949c-296cdd7424ee.jpg\",\"img/0864/4bd81bc6-c13d-46df-95a9-485886dc7c1b.jpg\"]","trial_type":"similarity","trial_index":43,"time_elapsed":450924,"internal_node_id":"0.0-6.0-37.0"},{"sim_score":3,"rt":4104,"stimulus":"[\"img/0766/00891401-e4c9-4ce1-bc19-f70740d174bc.jpg\",\"img/0866/8efcaa46-83ab-4dee-a35f-850402aa21ae.jpg\"]","trial_type":"similarity","trial_index":44,"time_elapsed":456057,"internal_node_id":"0.0-6.0-38.0"},{"sim_score":2,"rt":4604,"stimulus":"[\"img/0875/2e13d160-eea1-416b-aff1-d37ab99ecc1d.jpg\",\"img/0898/79233891-305a-4a6a-8ddf-5c8604858203.jpg\"]","trial_type":"similarity","trial_index":45,"time_elapsed":461691,"internal_node_id":"0.0-6.0-39.0"},{"sim_score":6,"rt":3607,"stimulus":"[\"img/0766/db750ba0-ce04-46e1-b601-e1b80212bad2.jpg\",\"img/0769/e31b3bd8-efcb-413e-aa8c-75fac2b8f2ac.jpg\"]","trial_type":"similarity","trial_index":46,"time_elapsed":466337,"internal_node_id":"0.0-6.0-40.0"},{"sim_score":2,"rt":3831,"stimulus":"[\"img/0874/767f289c-9814-4496-803f-745cc8913d1f.jpg\",\"img/0764/7f4ee8e3-9315-4a57-be7d-db8454b33766.jpg\"]","trial_type":"similarity","trial_index":47,"time_elapsed":486234,"internal_node_id":"0.0-6.0-41.0"},{"sim_score":1,"rt":4337,"stimulus":"[\"img/0868/5fa7f9d0-f0e5-454c-8224-74d964818f56.jpg\",\"img/0902/eb3e7e71-8ff1-4b88-a6a7-47e2c1ce1683.jpg\"]","trial_type":"similarity","trial_index":48,"time_elapsed":491604,"internal_node_id":"0.0-6.0-42.0"},{"sim_score":1,"rt":4098,"stimulus":"[\"img/0875/3ecb367d-e9eb-4826-8aaa-7aa72fb98019.jpg\",\"img/0899/66ab3178-c3fe-4455-ad17-d5952b08e018.jpg\"]","trial_type":"similarity","trial_index":49,"time_elapsed":496729,"internal_node_id":"0.0-6.0-43.0"},{"sim_score":5,"rt":4907,"stimulus":"[\"img/0866/93a27239-8317-4e08-98ca-d8b1ff298e07.jpg\",\"img/0860/4f695df5-afac-4da7-9875-fee39b0b24ad.jpg\"]","trial_type":"similarity","trial_index":50,"time_elapsed":502669,"internal_node_id":"0.0-6.0-44.0"},{"sim_score":5,"rt":3502,"stimulus":"[\"img/0766/91fc8c4d-862f-4d2b-b1a1-2db8d729b6b7.jpg\",\"img/0903/bf0a7d60-eca5-44b0-bafd-baf21db9904b.jpg\"]","trial_type":"similarity","trial_index":51,"time_elapsed":507209,"internal_node_id":"0.0-6.0-45.0"},{"sim_score":4,"rt":4564,"stimulus":"[\"img/0901/1b86f2fc-7a1d-4aa8-9252-114f92edef3b.jpg\",\"img/0904/2f88ce53-02d0-4f95-a082-182c56a0eeb4.jpg\"]","trial_type":"similarity","trial_index":52,"time_elapsed":512810,"internal_node_id":"0.0-6.0-46.0"},{"sim_score":2,"rt":4378,"stimulus":"[\"img/0758/ddc336e9-a8b6-4bb9-937a-c7e25e0e9250.jpg\",\"img/0902/31abfa33-7cdb-44ad-968e-9f7b324d577a.jpg\"]","trial_type":"similarity","trial_index":53,"time_elapsed":518224,"internal_node_id":"0.0-6.0-47.0"},{"sim_score":7,"rt":3115,"stimulus":"[\"img/0764/a86eed5b-d0af-4c3f-8c7a-26e98e98cf1a.jpg\",\"img/0764/5d83b9db-3b2b-4dc8-9bd1-2b515b19c858.jpg\"]","trial_type":"similarity","trial_index":54,"time_elapsed":522374,"internal_node_id":"0.0-6.0-48.0"},{"sim_score":2,"rt":4373,"stimulus":"[\"img/0866/23a224f3-2012-4fc8-8e0f-3c36f8de27fd.jpg\",\"img/0902/44cd9b7e-fdfb-4f78-90de-8d4c9d279365.jpg\"]","trial_type":"similarity","trial_index":55,"time_elapsed":527782,"internal_node_id":"0.0-6.0-49.0"},{"sim_score":1,"rt":4202,"stimulus":"[\"img/0764/da207710-e7e4-4f42-b2e6-99b5f357f433.jpg\",\"img/0758/7fba58df-2a7a-4b76-8a8f-62739f97f271.jpg\"]","trial_type":"similarity","trial_index":56,"time_elapsed":533007,"internal_node_id":"0.0-6.0-50.0"},{"sim_score":6,"rt":5352,"stimulus":"[\"img/0898/cd3aaa3f-efa9-4ab3-8d6f-a6a9273ddf42.jpg\",\"img/0894/661b9f9f-4bde-487a-b1ed-87085fde6948.jpg\"]","trial_type":"similarity","trial_index":57,"time_elapsed":539400,"internal_node_id":"0.0-6.0-51.0"},{"sim_score":5,"rt":4344,"stimulus":"[\"img/0875/5a1e5100-0d94-4fec-bbe9-ca9894d2cf8e.jpg\",\"img/0866/a15b02be-11bb-43e3-b0e0-ecc3bd7dfc49.jpg\"]","trial_type":"similarity","trial_index":58,"time_elapsed":544789,"internal_node_id":"0.0-6.0-52.0"},{"sim_score":7,"rt":2832,"stimulus":"[\"img/0904/a8c3c7d2-9bcf-4347-9e03-8203adfc1fc5.jpg\",\"img/0904/65e2b70a-b184-4da3-b5c0-5038bdf9469a.jpg\"]","trial_type":"similarity","trial_index":59,"time_elapsed":548657,"internal_node_id":"0.0-6.0-53.0"},{"sim_score":7,"rt":3105,"stimulus":"[\"img/0769/8c7cf147-1780-4d5c-8ddf-5ea23ff03ac9.jpg\",\"img/0769/180213e5-1e50-4b4e-87b6-add77ba04d39.jpg\"]","trial_type":"similarity","trial_index":60,"time_elapsed":552798,"internal_node_id":"0.0-6.0-54.0"},{"sim_score":2,"rt":3988,"stimulus":"[\"img/0898/a114b375-cb89-44ba-9498-74213f1ecdee.jpg\",\"img/0758/821c68d3-5cb0-4eae-8659-30e6263fca39.jpg\"]","trial_type":"similarity","trial_index":61,"time_elapsed":557831,"internal_node_id":"0.0-6.0-55.0"},{"sim_score":2,"rt":7694,"stimulus":"[\"img/0769/9ea27d61-3d55-418c-8d14-82e90f656f01.jpg\",\"img/0902/95a36b6b-9601-4fa5-8fd9-606ea62f9425.jpg\"]","trial_type":"similarity","trial_index":62,"time_elapsed":566566,"internal_node_id":"0.0-6.0-56.0"},{"sim_score":5,"rt":3273,"stimulus":"[\"img/0864/8ddd2e30-a1d0-479f-9cbe-591213023893.jpg\",\"img/0881/dea58fad-b4f1-41d9-bd3f-916eff19a3fd.jpg\"]","trial_type":"similarity","trial_index":63,"time_elapsed":570861,"internal_node_id":"0.0-6.0-57.0"},{"sim_score":5,"rt":3542,"stimulus":"[\"img/0758/6cd8c362-ae2a-41eb-80a3-3a4f7ace1530.jpg\",\"img/0868/293079b8-7e0c-4afd-a390-1e5d35fe3ded.jpg\"]","trial_type":"similarity","trial_index":64,"time_elapsed":575448,"internal_node_id":"0.0-6.0-58.0"},{"sim_score":3,"rt":4104,"stimulus":"[\"img/0862/47ed5efd-4ec9-4b74-bb4e-a5f5cf0c3e7d.jpg\",\"img/0769/0fe124d3-bcad-45f6-b64d-8f6eb8ee5251.jpg\"]","trial_type":"similarity","trial_index":65,"time_elapsed":580581,"internal_node_id":"0.0-6.0-59.0"},{"sim_score":6,"rt":4318,"stimulus":"[\"img/0764/c0b03adb-bd0a-4b96-a915-a827c2fd5211.jpg\",\"img/0903/b548d383-2a95-4575-8c13-647873751ff1.jpg\"]","trial_type":"similarity","trial_index":66,"time_elapsed":585927,"internal_node_id":"0.0-6.0-60.0"},{"sim_score":7,"rt":2641,"stimulus":"[\"img/0899/00715b3f-851b-420b-a26b-d7f79f7759a9.jpg\",\"img/0899/7b7380d5-d2be-44e5-a09a-c1756f87ef71.jpg\"]","trial_type":"similarity","trial_index":67,"time_elapsed":589591,"internal_node_id":"0.0-6.0-61.0"},{"sim_score":5,"rt":3348,"stimulus":"[\"img/0860/29a21a9f-54bb-4093-ad3f-04823ceaa89f.jpg\",\"img/0875/fb732ab5-013a-4366-9f65-27811ed157e9.jpg\"]","trial_type":"similarity","trial_index":68,"time_elapsed":593974,"internal_node_id":"0.0-6.0-62.0"},{"sim_score":5,"rt":3255,"stimulus":"[\"img/0868/d98ca254-b195-477f-b57e-5760a2717db8.jpg\",\"img/0874/8cdb1c07-1c32-46d2-981c-3636560fa6e5.jpg\"]","trial_type":"similarity","trial_index":69,"time_elapsed":598280,"internal_node_id":"0.0-6.0-63.0"},{"sim_score":6,"rt":3719,"stimulus":"[\"img/0758/caa93da2-9edf-49fa-96b9-32dedd8f5078.jpg\",\"img/0862/e8cc3bdf-cc43-4565-bccf-492626c70953.jpg\"]","trial_type":"similarity","trial_index":70,"time_elapsed":603045,"internal_node_id":"0.0-6.0-64.0"},{"sim_score":6,"rt":4720,"stimulus":"[\"img/0904/4d7d70a3-9477-4921-bda0-f9531d0a5c5b.jpg\",\"img/0898/5f699581-3853-4547-856c-12f419ba5af7.jpg\"]","trial_type":"similarity","trial_index":71,"time_elapsed":608796,"internal_node_id":"0.0-6.0-65.0"},{"sim_score":5,"rt":3058,"stimulus":"[\"img/0881/33d65d80-8a8e-4ecf-852d-0ad7725c17a2.jpg\",\"img/0866/620cd1aa-0800-4414-8f6e-90342e7a99ad.jpg\"]","trial_type":"similarity","trial_index":72,"time_elapsed":612873,"internal_node_id":"0.0-6.0-66.0"},{"sim_score":2,"rt":3357,"stimulus":"[\"img/0867/aa05d113-fc19-4756-a8eb-7878f580bc92.jpg\",\"img/0898/4184e5a2-84ea-4f36-9b42-ae58646f6f87.jpg\"]","trial_type":"similarity","trial_index":73,"time_elapsed":617254,"internal_node_id":"0.0-6.0-67.0"},{"sim_score":6,"rt":4707,"stimulus":"[\"img/0902/bd89a85f-3853-4786-acd6-98818ee29f1c.jpg\",\"img/0764/83c93cce-18d1-4aa7-9e23-2c268afe0a46.jpg\"]","trial_type":"similarity","trial_index":74,"time_elapsed":623008,"internal_node_id":"0.0-6.0-68.0"},{"sim_score":6,"rt":4647,"stimulus":"[\"img/0875/03c3c331-738b-4446-af92-3d7386b08c2e.jpg\",\"img/0867/c66898ba-b71b-4d50-84f9-f7f84853a98d.jpg\"]","trial_type":"similarity","trial_index":75,"time_elapsed":628694,"internal_node_id":"0.0-6.0-69.0"},{"sim_score":6,"rt":3636,"stimulus":"[\"img/0766/fd74fdbb-ea40-4f3a-a091-38d08dfd636e.jpg\",\"img/0764/d7f3ac54-318a-4dac-a06b-62bed34d01a4.jpg\"]","trial_type":"similarity","trial_index":76,"time_elapsed":633358,"internal_node_id":"0.0-6.0-70.0"},{"sim_score":3,"rt":2590,"stimulus":"[\"img/0894/9b1333fd-3561-43bf-aee5-99b7b7ca3dc3.jpg\",\"img/0867/de92135f-5b65-4ed9-b245-188292c7c2f8.jpg\"]","trial_type":"similarity","trial_index":77,"time_elapsed":636990,"internal_node_id":"0.0-6.0-71.0"},{"sim_score":2,"rt":2958,"stimulus":"[\"img/0875/e7e66b13-b573-431e-b85e-288ce04a35a3.jpg\",\"img/0764/d0bef2e0-e16b-4c82-9451-c1d16265eb67.jpg\"]","trial_type":"similarity","trial_index":78,"time_elapsed":640991,"internal_node_id":"0.0-6.0-72.0"},{"sim_score":7,"rt":2425,"stimulus":"[\"img/0867/cc72ed48-7704-422c-86d6-467a1145287a.jpg\",\"img/0866/bf14b5bd-fb55-47db-86b9-4f8aeb9a6dad.jpg\"]","trial_type":"similarity","trial_index":79,"time_elapsed":644451,"internal_node_id":"0.0-6.0-73.0"},{"sim_score":2,"rt":3249,"stimulus":"[\"img/0903/365f176c-25a4-4973-bd3c-279bf1b39476.jpg\",\"img/0758/67c0be2f-9e91-48b3-8219-70ac0a1802fa.jpg\"]","trial_type":"similarity","trial_index":80,"time_elapsed":648741,"internal_node_id":"0.0-6.0-74.0"},{"sim_score":2,"rt":3669,"stimulus":"[\"img/0766/5d1b8041-c5a1-4b02-b4fe-3453d98a0d72.jpg\",\"img/0868/83b4350a-3b70-4cea-b7f5-b5b56f3050a8.jpg\"]","trial_type":"similarity","trial_index":81,"time_elapsed":653447,"internal_node_id":"0.0-6.0-75.0"},{"sim_score":2,"rt":3918,"stimulus":"[\"img/0874/3f471690-9788-4d03-90c7-f615aecef149.jpg\",\"img/0766/79767d11-b612-4e8a-9e4b-a8ac95bb6a54.jpg\"]","trial_type":"similarity","trial_index":82,"time_elapsed":658408,"internal_node_id":"0.0-6.0-76.0"},{"sim_score":5,"rt":3231,"stimulus":"[\"img/0881/d373cb9f-a719-4549-a2a4-82def79fb2a5.jpg\",\"img/0868/e0aff734-077f-40dd-9781-74821abd3621.jpg\"]","trial_type":"similarity","trial_index":83,"time_elapsed":662667,"internal_node_id":"0.0-6.0-77.0"},{"sim_score":2,"rt":3200,"stimulus":"[\"img/0758/b76ceca7-95ac-46e4-ac13-da02c8e93be9.jpg\",\"img/0901/effc03f6-8f9d-46db-a66c-16fc83891c5c.jpg\"]","trial_type":"similarity","trial_index":84,"time_elapsed":666902,"internal_node_id":"0.0-6.0-78.0"},{"sim_score":2,"rt":3474,"stimulus":"[\"img/0881/14236cf2-6b95-48b8-9368-78af09d2d27f.jpg\",\"img/0898/82231d4c-218b-4d0a-b50d-35a49b524e97.jpg\"]","trial_type":"similarity","trial_index":85,"time_elapsed":671410,"internal_node_id":"0.0-6.0-79.0"},{"sim_score":5,"rt":3185,"stimulus":"[\"img/0867/bf560d4f-dee3-4f11-a385-705cc1aa5f3c.jpg\",\"img/0758/d57c2592-a317-4f63-91be-91a3a9afd222.jpg\"]","trial_type":"similarity","trial_index":86,"time_elapsed":675630,"internal_node_id":"0.0-6.0-80.0"},{"sim_score":6,"rt":4671,"stimulus":"[\"img/0769/b664b502-a86c-46c1-ad6f-5ebffc2e1bd3.jpg\",\"img/0899/4408c14d-c168-4a7d-96f6-bc87bfb58f83.jpg\"]","trial_type":"similarity","trial_index":87,"time_elapsed":681349,"internal_node_id":"0.0-6.0-81.0"},{"sim_score":7,"rt":2530,"stimulus":"[\"img/0903/c708d08f-a108-4e04-8288-c3fcf6375db4.jpg\",\"img/0903/647ce311-8c71-479a-8361-961db1457139.jpg\"]","trial_type":"similarity","trial_index":88,"time_elapsed":684927,"internal_node_id":"0.0-6.0-82.0"},{"sim_score":4,"rt":3449,"stimulus":"[\"img/0867/f8488a47-94ee-4166-952c-44e16cf172f6.jpg\",\"img/0766/6d32752d-aa05-40dc-9541-640b6e9d6fa1.jpg\"]","trial_type":"similarity","trial_index":89,"time_elapsed":698834,"internal_node_id":"0.0-6.0-83.0"},{"sim_score":1,"rt":4963,"stimulus":"[\"img/0902/40d0b6ec-3907-4573-b227-e7d8e9cad1c3.jpg\",\"img/0867/50a1b60e-3a29-44bf-b606-d4bd3746fea9.jpg\"]","trial_type":"similarity","trial_index":90,"time_elapsed":704830,"internal_node_id":"0.0-6.0-84.0"},{"sim_score":2,"rt":2666,"stimulus":"[\"img/0901/58ec7fa9-b466-4651-90aa-c082df0972de.jpg\",\"img/0875/99698b4d-b4a1-44bc-8c83-8ea755bbbf61.jpg\"]","trial_type":"similarity","trial_index":91,"time_elapsed":708524,"internal_node_id":"0.0-6.0-85.0"},{"sim_score":4,"rt":4220,"stimulus":"[\"img/0764/e0788029-9d7f-414c-b747-46d2a99f7c86.jpg\",\"img/0866/c446214b-a368-4c65-ae39-ea46894256ab.jpg\"]","trial_type":"similarity","trial_index":92,"time_elapsed":713776,"internal_node_id":"0.0-6.0-86.0"},{"sim_score":5,"rt":2937,"stimulus":"[\"img/0901/b9141736-3041-4385-a586-b1fe911c76a5.jpg\",\"img/0894/3adef67d-7676-4995-80b2-bb31b8aca3ef.jpg\"]","trial_type":"similarity","trial_index":93,"time_elapsed":717745,"internal_node_id":"0.0-6.0-87.0"},{"sim_score":5,"rt":2988,"stimulus":"[\"img/0898/40f99fb2-64d2-4e72-8a7f-a1cf60741e69.jpg\",\"img/0769/aad494cc-674d-4a08-9bfa-24a88ebe3c79.jpg\"]","trial_type":"similarity","trial_index":94,"time_elapsed":721777,"internal_node_id":"0.0-6.0-88.0"},{"sim_score":7,"rt":3207,"stimulus":"[\"img/0769/1afb527f-9887-428c-bd26-a12c2f9efb68.jpg\",\"img/0894/8cadb87a-7001-4e47-99fb-1867bebf1668.jpg\"]","trial_type":"similarity","trial_index":95,"time_elapsed":726011,"internal_node_id":"0.0-6.0-89.0"},{"sim_score":5,"rt":4724,"stimulus":"[\"img/0862/d0ca4c78-fc35-46ed-bdcc-8e124283c53e.jpg\",\"img/0874/31e22c7c-99aa-40b1-bf03-dd73fa2df4d6.jpg\"]","trial_type":"similarity","trial_index":96,"time_elapsed":731792,"internal_node_id":"0.0-6.0-90.0"},{"sim_score":6,"rt":3427,"stimulus":"[\"img/0894/e6385e52-6c35-43bd-b0af-bc803d107b11.jpg\",\"img/0766/0025de5e-f620-4079-8a0f-00326ff3a6b0.jpg\"]","trial_type":"similarity","trial_index":97,"time_elapsed":736256,"internal_node_id":"0.0-6.0-91.0"},{"sim_score":5,"rt":3514,"stimulus":"[\"img/0874/7e4f2150-3b59-4a36-b5da-a4e0ba410531.jpg\",\"img/0867/f8159067-056c-41f1-a136-c529fe5e970a.jpg\"]","trial_type":"similarity","trial_index":98,"time_elapsed":740804,"internal_node_id":"0.0-6.0-92.0"},{"sim_score":4,"rt":2577,"stimulus":"[\"img/0899/a048912c-b12c-40e3-90af-46b69b0cc4fe.jpg\",\"img/0868/1a62b2b2-18f5-466e-b564-5176a57c565e.jpg\"]","trial_type":"similarity","trial_index":99,"time_elapsed":744422,"internal_node_id":"0.0-6.0-93.0"},{"sim_score":4,"rt":2567,"stimulus":"[\"img/0903/3e9ee8a5-eb66-47f5-8973-8a5af1ddc87e.jpg\",\"img/0862/00c06b00-3b73-44e9-bc1e-c5aafb438321.jpg\"]","trial_type":"similarity","trial_index":100,"time_elapsed":748016,"internal_node_id":"0.0-6.0-94.0"},{"sim_score":4,"rt":1723,"stimulus":"[\"img/0899/0433d056-aa30-4f8a-9aa1-abbb951e4edd.jpg\",\"img/0766/2746b119-4bba-463e-acf0-88136dc6600c.jpg\"]","trial_type":"similarity","trial_index":101,"time_elapsed":750775,"internal_node_id":"0.0-6.0-95.0"},{"sim_score":6,"rt":3180,"stimulus":"[\"img/0867/6e19c858-b606-45b2-a4c6-910a73f1d82c.jpg\",\"img/0868/d6d1f30d-4323-435a-b194-7892521bc57e.jpg\"]","trial_type":"similarity","trial_index":102,"time_elapsed":754993,"internal_node_id":"0.0-6.0-96.0"},{"sim_score":4,"rt":2556,"stimulus":"[\"img/0862/eefa5588-9efd-4591-aa5f-a2e17c7d7bcc.jpg\",\"img/0901/148b747a-7392-437e-8823-33053c5dff3f.jpg\"]","trial_type":"similarity","trial_index":103,"time_elapsed":758582,"internal_node_id":"0.0-6.0-97.0"},{"sim_score":3,"rt":3751,"stimulus":"[\"img/0875/cff79b3a-a797-4393-9757-6275f999ec04.jpg\",\"img/0766/5d6e0d1d-4369-41f0-a64c-91f3503055c7.jpg\"]","trial_type":"similarity","trial_index":104,"time_elapsed":763371,"internal_node_id":"0.0-6.0-98.0"},{"sim_score":6,"rt":2444,"stimulus":"[\"img/0758/20497cbe-ddae-489e-86e2-ab06985ed07c.jpg\",\"img/0874/3ce41e7c-40c8-4d58-a546-171114521796.jpg\"]","trial_type":"similarity","trial_index":105,"time_elapsed":766847,"internal_node_id":"0.0-6.0-99.0"},{"sim_score":3,"rt":2802,"stimulus":"[\"img/0904/25365108-e038-4021-aac9-797f2063b337.jpg\",\"img/0868/4a8a45ed-2c4f-421b-9564-409a33ecd26c.jpg\"]","trial_type":"similarity","trial_index":106,"time_elapsed":770683,"internal_node_id":"0.0-6.0-100.0"},{"sim_score":2,"rt":3152,"stimulus":"[\"img/0903/150cf64c-0bd2-4674-abbb-a1387cf1f3e9.jpg\",\"img/0866/a04d37f0-99dd-478a-b6c6-58b215138f84.jpg\"]","trial_type":"similarity","trial_index":107,"time_elapsed":774862,"internal_node_id":"0.0-6.0-101.0"},{"sim_score":3,"rt":5176,"stimulus":"[\"img/0868/4e626425-63c8-484a-8a1d-e66ee4e0bef8.jpg\",\"img/0769/8598a429-c671-4d2f-842c-32f681f5e412.jpg\"]","trial_type":"similarity","trial_index":108,"time_elapsed":781074,"internal_node_id":"0.0-6.0-102.0"},{"sim_score":2,"rt":4249,"stimulus":"[\"img/0902/1f4a4c62-68c1-4993-b213-05652a173ed1.jpg\",\"img/0899/66bf4113-ee12-426c-84d2-ea410b6c803e.jpg\"]","trial_type":"similarity","trial_index":109,"time_elapsed":786355,"internal_node_id":"0.0-6.0-103.0"},{"sim_score":5,"rt":3026,"stimulus":"[\"img/0868/15dd6fd7-791e-4b53-b203-195d617521a4.jpg\",\"img/0862/57b6f83f-c763-4858-830d-102f97bfefbf.jpg\"]","trial_type":"similarity","trial_index":110,"time_elapsed":790413,"internal_node_id":"0.0-6.0-104.0"},{"sim_score":5,"rt":4488,"stimulus":"[\"img/0903/f67c4ab9-f8c2-4fcd-848a-a54a7b031002.jpg\",\"img/0894/7f2f31fd-6618-41c6-b65a-0fd8b2851bc9.jpg\"]","trial_type":"similarity","trial_index":111,"time_elapsed":795921,"internal_node_id":"0.0-6.0-105.0"},{"sim_score":6,"rt":4504,"stimulus":"[\"img/0864/e8bd659f-aa43-4748-877e-3118e8b4e189.jpg\",\"img/0874/a3bc679d-619f-4db6-bb68-116dcb757d9c.jpg\"]","trial_type":"similarity","trial_index":112,"time_elapsed":801461,"internal_node_id":"0.0-6.0-106.0"},{"sim_score":4,"rt":2490,"stimulus":"[\"img/0862/ad593cc7-cabe-4bb7-8e14-8a447a0717b4.jpg\",\"img/0902/e5a46bda-30d1-41ca-b36d-b8529b5a63d1.jpg\"]","trial_type":"similarity","trial_index":113,"time_elapsed":805001,"internal_node_id":"0.0-6.0-107.0"},{"sim_score":5,"rt":3910,"stimulus":"[\"img/0904/60d1a521-edf7-4696-9263-f21ac0e62a01.jpg\",\"img/0903/9b60ef5b-234f-4239-892b-3d4c412accc2.jpg\"]","trial_type":"similarity","trial_index":114,"time_elapsed":809946,"internal_node_id":"0.0-6.0-108.0"},{"sim_score":2,"rt":4077,"stimulus":"[\"img/0764/b8e23f4f-ff19-4472-ad9b-2f85548ebca0.jpg\",\"img/0864/ea327690-500b-4137-bf91-451b309fe6a5.jpg\"]","trial_type":"similarity","trial_index":115,"time_elapsed":815058,"internal_node_id":"0.0-6.0-109.0"},{"sim_score":4,"rt":2270,"stimulus":"[\"img/0866/f756f7d1-9ad8-4a34-9ef6-7a443d705bfe.jpg\",\"img/0894/c505c65a-cde2-4f2c-8cde-f8676f7c894d.jpg\"]","trial_type":"similarity","trial_index":116,"time_elapsed":818356,"internal_node_id":"0.0-6.0-110.0"},{"sim_score":5,"rt":3264,"stimulus":"[\"img/0899/7f9d45d0-b2c6-40d3-aa41-c207db2c411b.jpg\",\"img/0903/07b445ee-0cdb-4d2c-a23b-d727613f4059.jpg\"]","trial_type":"similarity","trial_index":117,"time_elapsed":822653,"internal_node_id":"0.0-6.0-111.0"},{"sim_score":4,"rt":2340,"stimulus":"[\"img/0902/417d8b4a-3c72-4adc-ac78-820e833316f2.jpg\",\"img/0904/fe746a3f-8458-48d0-8a13-8cba2a9df9f8.jpg\"]","trial_type":"similarity","trial_index":118,"time_elapsed":826022,"internal_node_id":"0.0-6.0-112.0"},{"sim_score":5,"rt":3090,"stimulus":"[\"img/0864/1ebbc554-99fa-49f9-8799-317375a79820.jpg\",\"img/0860/e14d67c1-6d92-4f1e-9257-c8607159c19c.jpg\"]","trial_type":"similarity","trial_index":119,"time_elapsed":830153,"internal_node_id":"0.0-6.0-113.0"},{"sim_score":2,"rt":4138,"stimulus":"[\"img/0860/8fdba999-b946-4c7d-9891-336018b563ef.jpg\",\"img/0899/51a7a498-98c7-42d7-bca8-bc2d8f0b5831.jpg\"]","trial_type":"similarity","trial_index":120,"time_elapsed":835335,"internal_node_id":"0.0-6.0-114.0"},{"sim_score":2,"rt":6062,"stimulus":"[\"img/0881/405484ae-0d00-4b05-bc57-6420a36adfac.jpg\",\"img/0903/6b5dcc60-3ad3-4962-93e5-e6cf768477af.jpg\"]","trial_type":"similarity","trial_index":121,"time_elapsed":842421,"internal_node_id":"0.0-6.0-115.0"},{"sim_score":2,"rt":5706,"stimulus":"[\"img/0894/11674fa4-285d-44e2-939f-2228c6a64080.jpg\",\"img/0874/c0378dac-9370-439a-8b79-db27c96fb390.jpg\"]","trial_type":"similarity","trial_index":122,"time_elapsed":849165,"internal_node_id":"0.0-6.0-116.0"},{"sim_score":5,"rt":2963,"stimulus":"[\"img/0881/7e822106-76f7-4b10-a805-14dc68b2cfaf.jpg\",\"img/0862/ba89835a-408c-480b-8594-ed4ffa97eb5c.jpg\"]","trial_type":"similarity","trial_index":123,"time_elapsed":853164,"internal_node_id":"0.0-6.0-117.0"},{"sim_score":5,"rt":2895,"stimulus":"[\"img/0868/6a28c3b0-3d76-498a-9fb7-ddafc665eca8.jpg\",\"img/0875/2c361b79-c3d1-4eda-812e-bf03192407bf.jpg\"]","trial_type":"similarity","trial_index":124,"time_elapsed":857086,"internal_node_id":"0.0-6.0-118.0"},{"sim_score":5,"rt":2441,"stimulus":"[\"img/0860/5bff793e-cbd5-4d7e-b628-0ac2b0e30b64.jpg\",\"img/0758/d41c06bf-ebaf-454b-91c6-1a17f917b659.jpg\"]","trial_type":"similarity","trial_index":125,"time_elapsed":860563,"internal_node_id":"0.0-6.0-119.0"},{"sim_score":5,"rt":3761,"stimulus":"[\"img/0864/e336a4c5-6648-4fd7-b2f6-93a3fb83f8c6.jpg\",\"img/0875/527ced51-8e53-4aab-ab05-86df219104c0.jpg\"]","trial_type":"similarity","trial_index":126,"time_elapsed":865361,"internal_node_id":"0.0-6.0-120.0"},{"sim_score":1,"rt":4746,"stimulus":"[\"img/0898/81b08535-2020-4c15-9ce4-2f1e460755ae.jpg\",\"img/0866/02f5e6b9-52b7-448c-9708-5b460d0c9a23.jpg\"]","trial_type":"similarity","trial_index":127,"time_elapsed":871151,"internal_node_id":"0.0-6.0-121.0"},{"sim_score":3,"rt":3724,"stimulus":"[\"img/0874/2c9464dd-8a23-4baa-ac94-1ba3af5c15cc.jpg\",\"img/0904/696ebb60-8891-417a-91fd-c53218907a95.jpg\"]","trial_type":"similarity","trial_index":128,"time_elapsed":875901,"internal_node_id":"0.0-6.0-122.0"},{"sim_score":4,"rt":2632,"stimulus":"[\"img/0904/24fc38fe-842c-4831-ad8a-b1de5c25c0a8.jpg\",\"img/0864/da39ad34-04e0-40d4-a724-c08d53e0ea09.jpg\"]","trial_type":"similarity","trial_index":129,"time_elapsed":879567,"internal_node_id":"0.0-6.0-123.0"},{"sim_score":7,"rt":3684,"stimulus":"[\"img/0894/43216a7f-27bc-4b5a-8841-d122a30da9d9.jpg\",\"img/0902/0c760cc9-10ac-429e-8957-a7d51fc99683.jpg\"]","trial_type":"similarity","trial_index":130,"time_elapsed":884284,"internal_node_id":"0.0-6.0-124.0"},{"sim_score":4,"rt":2889,"stimulus":"[\"img/0868/7b212364-ff5f-4e28-9241-7eb6ea00161b.jpg\",\"img/0864/5f33e097-23e3-4002-882d-76e8cb15f451.jpg\"]","trial_type":"similarity","trial_index":131,"time_elapsed":892292,"internal_node_id":"0.0-6.0-125.0"},{"sim_score":2,"rt":3531,"stimulus":"[\"img/0899/76ad07e2-ca25-45eb-84f2-8d80b8ca3e26.jpg\",\"img/0866/9b38d691-1802-4959-ab3f-fc902f0e4ea6.jpg\"]","trial_type":"similarity","trial_index":132,"time_elapsed":896858,"internal_node_id":"0.0-6.0-126.0"},{"sim_score":2,"rt":5464,"stimulus":"[\"img/0875/f87b67d7-c33e-40d1-b281-248c4be1cb6e.jpg\",\"img/0904/ba8e689e-9ca6-4608-a2a1-3b0940666ae6.jpg\"]","trial_type":"similarity","trial_index":133,"time_elapsed":903365,"internal_node_id":"0.0-6.0-127.0"},{"sim_score":1,"rt":3173,"stimulus":"[\"img/0867/179ab87a-8eac-4c52-a41f-2e48e3120f09.jpg\",\"img/0899/06b0fc99-0581-461a-9913-d1a5a941ac61.jpg\"]","trial_type":"similarity","trial_index":134,"time_elapsed":907577,"internal_node_id":"0.0-6.0-128.0"},{"sim_score":1,"rt":2476,"stimulus":"[\"img/0901/da4fe30f-d12a-491e-96a2-5ab8ebaadd09.jpg\",\"img/0867/5e07b34d-b40f-4b1c-ac10-49975bace45f.jpg\"]","trial_type":"similarity","trial_index":135,"time_elapsed":911093,"internal_node_id":"0.0-6.0-129.0"},{"sim_score":2,"rt":4147,"stimulus":"[\"img/0864/e02eddb5-f468-499c-91bf-f7be3ffe979b.jpg\",\"img/0769/458d9c77-b844-40b5-bb1b-1e3bbd4da64e.jpg\"]","trial_type":"similarity","trial_index":136,"time_elapsed":916264,"internal_node_id":"0.0-6.0-130.0"},{"sim_score":1,"rt":2912,"stimulus":"[\"img/0903/b4a0f61e-a964-4b79-a9a7-f767a8f92f34.jpg\",\"img/0868/3a62db2d-97e9-44a3-b8e3-a48c6f0e423b.jpg\"]","trial_type":"similarity","trial_index":137,"time_elapsed":920216,"internal_node_id":"0.0-6.0-131.0"},{"sim_score":4,"rt":3787,"stimulus":"[\"img/0864/6e846d43-94a6-4b37-a268-65eda979f052.jpg\",\"img/0867/ac1797e4-8afc-48fe-b252-86d1defb1cca.jpg\"]","trial_type":"similarity","trial_index":138,"time_elapsed":925039,"internal_node_id":"0.0-6.0-132.0"},{"sim_score":3,"rt":3636,"stimulus":"[\"img/0901/a373612d-67e2-4fec-9764-21d3d6ef6359.jpg\",\"img/0860/524b2e98-5767-4d53-942c-ebae6925659b.jpg\"]","trial_type":"similarity","trial_index":139,"time_elapsed":929702,"internal_node_id":"0.0-6.0-133.0"},{"sim_score":2,"rt":2958,"stimulus":"[\"img/0881/84397291-bc14-4fbf-90e8-241e486ab0fe.jpg\",\"img/0766/717fd72f-a281-499b-a5ba-5e2ecc4d4866.jpg\"]","trial_type":"similarity","trial_index":140,"time_elapsed":933694,"internal_node_id":"0.0-6.0-134.0"},{"sim_score":3,"rt":3231,"stimulus":"[\"img/0903/71dbc325-b588-4297-a5cf-7f268a722ad9.jpg\",\"img/0864/66091c27-e588-4476-8af9-265dc6be4156.jpg\"]","trial_type":"similarity","trial_index":141,"time_elapsed":937959,"internal_node_id":"0.0-6.0-135.0"},{"sim_score":2,"rt":3788,"stimulus":"[\"img/0758/7ee8bc8f-c40b-4b3a-84ec-3e83580622d4.jpg\",\"img/0894/bd34223a-2f66-4e16-9d18-193a746b69ff.jpg\"]","trial_type":"similarity","trial_index":142,"time_elapsed":942773,"internal_node_id":"0.0-6.0-136.0"},{"sim_score":2,"rt":4434,"stimulus":"[\"img/0769/da36e3f7-2337-434f-ab57-11822dd7eed7.jpg\",\"img/0860/15b24a61-25be-4356-9eac-5ce95d0cb4a4.jpg\"]","trial_type":"similarity","trial_index":143,"time_elapsed":948241,"internal_node_id":"0.0-6.0-137.0"},{"sim_score":3,"rt":3794,"stimulus":"[\"img/0904/d23dd7be-7fe8-4435-82f7-bd592c01e6a1.jpg\",\"img/0766/a1ed3f0f-e338-4a26-8fe4-4370f0c9fa6e.jpg\"]","trial_type":"similarity","trial_index":144,"time_elapsed":953078,"internal_node_id":"0.0-6.0-138.0"},{"sim_score":4,"rt":2685,"stimulus":"[\"img/0868/77091fc7-a590-4ebb-b915-fdb2483a2399.jpg\",\"img/0860/18dfed73-e36b-4487-a8bd-0b8cff8e3668.jpg\"]","trial_type":"similarity","trial_index":145,"time_elapsed":956788,"internal_node_id":"0.0-6.0-139.0"},{"sim_score":6,"rt":2451,"stimulus":"[\"img/0758/7ffbc76b-1fc1-432c-8f7e-9ec8d1b3f643.jpg\",\"img/0864/300bb811-8b3c-4c42-8653-6097c3725197.jpg\"]","trial_type":"similarity","trial_index":146,"time_elapsed":960266,"internal_node_id":"0.0-6.0-140.0"},{"sim_score":7,"rt":5410,"stimulus":"[\"img/0867/7d1c497b-c1b3-4ed8-abb5-d7f73306015f.jpg\",\"img/0867/26611f4e-d694-4460-b7e2-43c62753ddc3.jpg\"]","trial_type":"similarity","trial_index":147,"time_elapsed":966721,"internal_node_id":"0.0-6.0-141.0"},{"sim_score":7,"rt":3341,"stimulus":"[\"img/0898/881e2a85-d5c2-49be-a0c6-8a6ce2c4af08.jpg\",\"img/0898/04e39a7a-fcf6-4156-ab0e-f5871f335e1c.jpg\"]","trial_type":"similarity","trial_index":148,"time_elapsed":971093,"internal_node_id":"0.0-6.0-142.0"},{"sim_score":3,"rt":2538,"stimulus":"[\"img/0866/d266fece-59b3-46fa-b69f-96f6efb81b59.jpg\",\"img/0769/76eaa4a3-dfe9-4dc1-9efb-caebe86264e1.jpg\"]","trial_type":"similarity","trial_index":149,"time_elapsed":974657,"internal_node_id":"0.0-6.0-143.0"},{"sim_score":3,"rt":2975,"stimulus":"[\"img/0860/5383b320-1518-4095-a58e-5cc1ae30b64c.jpg\",\"img/0898/6cd3830b-d44e-4915-be2b-88d31424b91c.jpg\"]","trial_type":"similarity","trial_index":150,"time_elapsed":978657,"internal_node_id":"0.0-6.0-144.0"},{"sim_score":2,"rt":2588,"stimulus":"[\"img/0766/535849cc-ff5d-4df9-8f31-0ce94a97d571.jpg\",\"img/0864/afcba0a3-7e27-4757-b254-e9f05fad27e2.jpg\"]","trial_type":"similarity","trial_index":151,"time_elapsed":982267,"internal_node_id":"0.0-6.0-145.0"},{"sim_score":4,"rt":3019,"stimulus":"[\"img/0860/99c589b9-9140-4d17-90c0-b344323edcda.jpg\",\"img/0903/5248eedd-7e6a-4d39-91b0-06ec227f3ed0.jpg\"]","trial_type":"similarity","trial_index":152,"time_elapsed":986325,"internal_node_id":"0.0-6.0-146.0"},{"sim_score":3,"rt":2722,"stimulus":"[\"img/0867/98d8cd96-1476-4fe0-a3a3-04f875500a1b.jpg\",\"img/0764/b887d7c6-aa81-4637-af8e-05135757ac59.jpg\"]","trial_type":"similarity","trial_index":153,"time_elapsed":990096,"internal_node_id":"0.0-6.0-147.0"},{"sim_score":5,"rt":4880,"stimulus":"[\"img/0769/3c1efec9-f8fd-487d-8955-4be88e48c832.jpg\",\"img/0904/63dd06dd-dccb-47ba-9740-eb33239e18a7.jpg\"]","trial_type":"similarity","trial_index":154,"time_elapsed":996005,"internal_node_id":"0.0-6.0-148.0"},{"sim_score":4,"rt":2931,"stimulus":"[\"img/0764/fb7d4a20-a475-465e-a74f-aa39a0d33d16.jpg\",\"img/0901/4ca4f962-40c0-4c59-b14a-3cd7b8c9029b.jpg\"]","trial_type":"similarity","trial_index":155,"time_elapsed":999980,"internal_node_id":"0.0-6.0-149.0"},{"sim_score":4,"rt":4963,"stimulus":"[\"img/0904/0d25eb24-bb20-4e8d-9787-8b489558b4cb.jpg\",\"img/0899/ddf96ade-692e-4602-bd22-dedbb46401bc.jpg\"]","trial_type":"similarity","trial_index":156,"time_elapsed":1005973,"internal_node_id":"0.0-6.0-150.0"},{"sim_score":4,"rt":2561,"stimulus":"[\"img/0862/ee3b7bff-4a70-4e84-9bea-4a565e456acb.jpg\",\"img/0867/85a96c62-548f-4994-9553-819e03c3135a.jpg\"]","trial_type":"similarity","trial_index":157,"time_elapsed":1009560,"internal_node_id":"0.0-6.0-151.0"},{"sim_score":7,"rt":2536,"stimulus":"[\"img/0766/d5d38751-8fa5-476f-93e9-86ed2d9045ef.jpg\",\"img/0766/d512b99c-a2dc-40d7-8e86-827323a0cbcf.jpg\"]","trial_type":"similarity","trial_index":158,"time_elapsed":1013125,"internal_node_id":"0.0-6.0-152.0"},{"sim_score":2,"rt":2765,"stimulus":"[\"img/0862/92f0146c-20c4-482e-aef5-adb693790338.jpg\",\"img/0894/b2d2f66e-e480-46da-a02a-6d0c6b285d78.jpg\"]","trial_type":"similarity","trial_index":159,"time_elapsed":1016938,"internal_node_id":"0.0-6.0-153.0"},{"sim_score":5,"rt":4506,"stimulus":"[\"img/0899/d8f2dd94-570e-4e8c-a087-d96090fb9e8c.jpg\",\"img/0901/0f670aef-ac36-496d-8142-ee5fdb21dd82.jpg\"]","trial_type":"similarity","trial_index":160,"time_elapsed":1022491,"internal_node_id":"0.0-6.0-154.0"},{"sim_score":7,"rt":2578,"stimulus":"[\"img/0874/29830da7-be5f-44e5-b141-652a0ccf7269.jpg\",\"img/0874/adf9a8f1-c40b-402b-b95b-1e85a54a7b62.jpg\"]","trial_type":"similarity","trial_index":161,"time_elapsed":1026101,"internal_node_id":"0.0-6.0-155.0"},{"sim_score":4,"rt":4472,"stimulus":"[\"img/0860/87039971-2210-4aab-93c0-8e9b5f1655b2.jpg\",\"img/0867/a498eef3-9fa4-4ab2-9778-4ae82ac40dc5.jpg\"]","trial_type":"similarity","trial_index":162,"time_elapsed":1031610,"internal_node_id":"0.0-6.0-156.0"},{"sim_score":3,"rt":4519,"stimulus":"[\"img/0901/f1116359-1ff1-4638-b3b3-700918d36d18.jpg\",\"img/0881/e046471a-35b4-4159-bbf7-3cfd201bef66.jpg\"]","trial_type":"similarity","trial_index":163,"time_elapsed":1037164,"internal_node_id":"0.0-6.0-157.0"},{"sim_score":6,"rt":3287,"stimulus":"[\"img/0903/0a92ec52-4e87-410a-857a-4455cde56a70.jpg\",\"img/0902/27b84584-948a-485b-8749-cb09929ef631.jpg\"]","trial_type":"similarity","trial_index":164,"time_elapsed":1041486,"internal_node_id":"0.0-6.0-158.0"},{"sim_score":3,"rt":3241,"stimulus":"[\"img/0860/31ff6436-98bf-4652-bed2-40f627229568.jpg\",\"img/0764/e48e6c6f-9e28-420f-836a-8043b2319bb4.jpg\"]","trial_type":"similarity","trial_index":165,"time_elapsed":1045753,"internal_node_id":"0.0-6.0-159.0"},{"sim_score":2,"rt":2879,"stimulus":"[\"img/0902/fbef27fa-ac83-4936-ab78-9d1c20a383e1.jpg\",\"img/0875/8521fd58-3b1e-4dc5-97ae-804edfa6734a.jpg\"]","trial_type":"similarity","trial_index":166,"time_elapsed":1049683,"internal_node_id":"0.0-6.0-160.0"},{"sim_score":3,"rt":3395,"stimulus":"[\"img/0898/08c72dac-f8ad-407a-9ce6-8c9a5d679c3a.jpg\",\"img/0862/53a9cf7c-93c4-41b9-952f-07d17f7a17b2.jpg\"]","trial_type":"similarity","trial_index":167,"time_elapsed":1054113,"internal_node_id":"0.0-6.0-161.0"},{"sim_score":2,"rt":4581,"stimulus":"[\"img/0894/1a010553-d598-4b06-a772-81f1e7b3addb.jpg\",\"img/0875/dbdd643e-6d0e-4a5c-ab57-b9c29b9c981a.jpg\"]","trial_type":"similarity","trial_index":168,"time_elapsed":1059730,"internal_node_id":"0.0-6.0-162.0"},{"sim_score":4,"rt":3285,"stimulus":"[\"img/0866/0207e9a2-7dbb-40b5-9459-b472aaeceb2a.jpg\",\"img/0864/6f631579-acf1-415c-a42c-1207f62a8d99.jpg\"]","trial_type":"similarity","trial_index":169,"time_elapsed":1064050,"internal_node_id":"0.0-6.0-163.0"},{"sim_score":1,"rt":4695,"stimulus":"[\"img/0766/a0270213-fa0e-4972-8b56-228c3e01ff90.jpg\",\"img/0862/1c20f772-3a51-4a80-aac0-f57dc9f86c28.jpg\"]","trial_type":"similarity","trial_index":170,"time_elapsed":1069784,"internal_node_id":"0.0-6.0-164.0"},{"sim_score":4,"rt":6342,"stimulus":"[\"img/0866/945c6710-d15b-4a5b-a8f6-69af0850357f.jpg\",\"img/0874/a82926a3-0b43-4add-803c-d5f9ea7798ee.jpg\"]","trial_type":"similarity","trial_index":171,"time_elapsed":1077154,"internal_node_id":"0.0-6.0-165.0"},{"sim_score":6,"rt":3263,"stimulus":"[\"img/0862/fb26cb07-d5a9-4653-813c-f41609f26cd5.jpg\",\"img/0860/c7047cd2-7cc1-41b6-8a34-c0986774975f.jpg\"]","trial_type":"similarity","trial_index":172,"time_elapsed":1081450,"internal_node_id":"0.0-6.0-166.0"},{"sim_score":4,"rt":3249,"stimulus":"[\"img/0766/3c526a07-9e0a-4ae2-8142-00085f0127da.jpg\",\"img/0901/62315ff5-ed95-46b4-b099-92552079659b.jpg\"]","trial_type":"similarity","trial_index":173,"time_elapsed":1091075,"internal_node_id":"0.0-6.0-167.0"},{"sim_score":7,"rt":3145,"stimulus":"[\"img/0862/cdaed51d-9e2f-4807-801a-4663c40077e2.jpg\",\"img/0862/99a99e39-8355-44ec-b993-e7bcec111e1c.jpg\"]","trial_type":"similarity","trial_index":174,"time_elapsed":1095258,"internal_node_id":"0.0-6.0-168.0"},{"sim_score":7,"rt":3096,"stimulus":"[\"img/0894/6b2e9509-8699-42b7-9582-7741df0ba2d7.jpg\",\"img/0764/d7c215ab-ea9a-45be-8d5f-417d5b9a8a17.jpg\"]","trial_type":"similarity","trial_index":175,"time_elapsed":1099390,"internal_node_id":"0.0-6.0-169.0"},{"sim_score":3,"rt":3472,"stimulus":"[\"img/0874/995f0332-0439-4eb4-add3-957335dbf6d9.jpg\",\"img/0898/68476bbb-34a1-42d9-8bc1-deab783d4489.jpg\"]","trial_type":"similarity","trial_index":176,"time_elapsed":1103891,"internal_node_id":"0.0-6.0-170.0"},{"sim_score":2,"rt":4456,"stimulus":"[\"img/0860/17b44a7d-c5ca-479f-9e87-f65a64f5c80e.jpg\",\"img/0766/f5f78e4e-d88f-4866-951a-118ba9fec4d0.jpg\"]","trial_type":"similarity","trial_index":177,"time_elapsed":1109384,"internal_node_id":"0.0-6.0-171.0"},{"sim_score":2,"rt":3620,"stimulus":"[\"img/0898/661621d4-a14e-487c-8c74-354134a29710.jpg\",\"img/0864/f92649a2-0590-4d31-9a7a-1bfb81666a2d.jpg\"]","trial_type":"similarity","trial_index":178,"time_elapsed":1114040,"internal_node_id":"0.0-6.0-172.0"},{"sim_score":3,"rt":4215,"stimulus":"[\"img/0881/f037e3b0-09cb-4a83-b2d9-6a71fe474e63.jpg\",\"img/0764/29072395-f595-4e3c-83d3-ff87010039fa.jpg\"]","trial_type":"similarity","trial_index":179,"time_elapsed":1119282,"internal_node_id":"0.0-6.0-173.0"},{"sim_score":1,"rt":2743,"stimulus":"[\"img/0898/a8f16b02-e19f-423b-86c3-a36562ae1f9b.jpg\",\"img/0868/179a5502-ab5c-478e-8263-5a1fbcc101d2.jpg\"]","trial_type":"similarity","trial_index":180,"time_elapsed":1123057,"internal_node_id":"0.0-6.0-174.0"},{"sim_score":7,"rt":2396,"stimulus":"[\"img/0864/ef9cbca0-4be8-435d-ad49-977259e80409.jpg\",\"img/0864/0116ca98-293d-4fa6-a93b-5a6144ef64cc.jpg\"]","trial_type":"similarity","trial_index":181,"time_elapsed":1126480,"internal_node_id":"0.0-6.0-175.0"},{"sim_score":2,"rt":4119,"stimulus":"[\"img/0899/0e1d936a-dbe2-4afc-9f19-7b7a1ae6c9ed.jpg\",\"img/0862/f188d4f0-76a4-4102-818c-a209969d73a5.jpg\"]","trial_type":"similarity","trial_index":182,"time_elapsed":1131628,"internal_node_id":"0.0-6.0-176.0"},{"sim_score":5,"rt":4196,"stimulus":"[\"img/0875/42910c99-5463-450a-a0f8-d4d060a11455.jpg\",\"img/0758/61d64021-9214-4951-bdf8-f871f9827cf9.jpg\"]","trial_type":"similarity","trial_index":183,"time_elapsed":1136886,"internal_node_id":"0.0-6.0-177.0"},{"sim_score":1,"rt":3508,"stimulus":"[\"img/0866/386235d2-6857-41e7-88a8-25cfc3430025.jpg\",\"img/0901/a6c90438-fa7c-4418-ac7c-16c2e772dd98.jpg\"]","trial_type":"similarity","trial_index":184,"time_elapsed":1141428,"internal_node_id":"0.0-6.0-178.0"},{"sim_score":3,"rt":2673,"stimulus":"[\"img/0769/022c7e3b-c3f2-4119-b4bc-f22fa7cae18c.jpg\",\"img/0874/ca23d307-fc00-4d7d-9106-584c6eb21b4d.jpg\"]","trial_type":"similarity","trial_index":185,"time_elapsed":1145132,"internal_node_id":"0.0-6.0-179.0"},{"sim_score":5,"rt":2358,"stimulus":"[\"img/0875/ebf7653f-ff45-4e9f-af58-2c042ab3cd2b.jpg\",\"img/0881/f4e3e181-b3c9-4af2-a5a4-fc135ab70d2e.jpg\"]","trial_type":"similarity","trial_index":186,"time_elapsed":1148515,"internal_node_id":"0.0-6.0-180.0"},{"sim_score":7,"rt":4367,"stimulus":"[\"img/0866/d493a2c8-66eb-44b4-be02-2f327b700b7c.jpg\",\"img/0868/fd307a36-9a3a-47d7-ab7c-f810d0b35040.jpg\"]","trial_type":"similarity","trial_index":187,"time_elapsed":1153924,"internal_node_id":"0.0-6.0-181.0"},{"sim_score":3,"rt":3547,"stimulus":"[\"img/0899/f95cbdb4-f804-4f5d-ad76-373ad343e658.jpg\",\"img/0758/a085b443-b5d7-4cb2-9ad4-b9dab0fc23f1.jpg\"]","trial_type":"similarity","trial_index":188,"time_elapsed":1158510,"internal_node_id":"0.0-6.0-182.0"},{"sim_score":5,"rt":2107,"stimulus":"[\"img/0874/eba003b4-cdab-4eee-8bc3-f064c7d94165.jpg\",\"img/0875/d59ff733-eaff-4ee2-9443-06954dd0bcb6.jpg\"]","trial_type":"similarity","trial_index":189,"time_elapsed":1161651,"internal_node_id":"0.0-6.0-183.0"},{"sim_score":4,"rt":2413,"stimulus":"[\"img/0904/4e58005d-a2ec-4aaa-b199-445343561396.jpg\",\"img/0862/92fcd8a4-8193-4a6a-ae09-dd4a6338b0df.jpg\"]","trial_type":"similarity","trial_index":190,"time_elapsed":1165105,"internal_node_id":"0.0-6.0-184.0"},{"sim_score":4,"rt":3373,"stimulus":"[\"img/0902/0eb85fbc-27c8-41df-9d0b-a5f9efd417d1.jpg\",\"img/0766/27f54113-8561-4568-9ffe-0a1650ae65ec.jpg\"]","trial_type":"similarity","trial_index":191,"time_elapsed":1169514,"internal_node_id":"0.0-6.0-185.0"},{"sim_score":3,"rt":5537,"stimulus":"[\"img/0758/a709631e-3705-4725-ac40-f0d916924f08.jpg\",\"img/0769/878531fd-e0e8-4ad1-b9ad-f018bb104ca0.jpg\"]","trial_type":"similarity","trial_index":192,"time_elapsed":1176084,"internal_node_id":"0.0-6.0-186.0"},{"sim_score":6,"rt":4245,"stimulus":"[\"img/0881/667e2147-d457-4f32-aa5f-6ab86e5848f1.jpg\",\"img/0881/db77fe00-aeb0-4d1d-aa66-f3a96fd077e4.jpg\"]","trial_type":"similarity","trial_index":193,"time_elapsed":1181366,"internal_node_id":"0.0-6.0-187.0"},{"sim_score":4,"rt":2590,"stimulus":"[\"img/0758/2fa3e613-e676-4e6e-bd12-705327eeb3e1.jpg\",\"img/0866/6f2a90d7-14f1-4f1b-bd64-fc0af6b9fe44.jpg\"]","trial_type":"similarity","trial_index":194,"time_elapsed":1185000,"internal_node_id":"0.0-6.0-188.0"},{"sim_score":5,"rt":3049,"stimulus":"[\"img/0764/23ea9375-f801-4a96-9925-7d453da887c7.jpg\",\"img/0898/b2732712-71c2-45d8-834f-2b2ed5504910.jpg\"]","trial_type":"similarity","trial_index":195,"time_elapsed":1189077,"internal_node_id":"0.0-6.0-189.0"},{"sim_score":6,"rt":4912,"stimulus":"[\"img/0903/24477210-856c-4550-9de0-9f85a32762eb.jpg\",\"img/0901/d61f267a-c492-4db6-9bfb-61efd49cf072.jpg\"]","trial_type":"similarity","trial_index":196,"time_elapsed":1195028,"internal_node_id":"0.0-6.0-190.0"},{"sim_score":7,"rt":2953,"stimulus":"[\"img/0902/aa6fca32-82b0-4414-b20a-8f6f8aa5a2d2.jpg\",\"img/0898/01bfe666-3510-4fc7-964f-d00d28732dc8.jpg\"]","trial_type":"similarity","trial_index":197,"time_elapsed":1199028,"internal_node_id":"0.0-6.0-191.0"},{"sim_score":4,"rt":2756,"stimulus":"[\"img/0864/c22faebd-9c53-47bc-ada3-b9a30c688e75.jpg\",\"img/0901/7c16dd9c-44ad-4d5b-990c-6a0b9b48b1b1.jpg\"]","trial_type":"similarity","trial_index":198,"time_elapsed":1202826,"internal_node_id":"0.0-6.0-192.0"},{"sim_score":5,"rt":2820,"stimulus":"[\"img/0894/76c1201f-8524-4865-85e6-dda8cb4ac986.jpg\",\"img/0881/292e9b4b-fca0-4ba8-87f1-4048f9e37b7d.jpg\"]","trial_type":"similarity","trial_index":199,"time_elapsed":1206679,"internal_node_id":"0.0-6.0-193.0"},{"sim_score":7,"rt":4204,"stimulus":"[\"img/0868/4bd5105a-d2c3-4f82-8c80-57196106ba53.jpg\",\"img/0868/0d3abd3a-b6c3-4584-a9f7-e2da63748b3d.jpg\"]","trial_type":"similarity","trial_index":200,"time_elapsed":1211921,"internal_node_id":"0.0-6.0-194.0"},{"sim_score":5,"rt":4179,"stimulus":"[\"img/0899/8abe6c69-822c-436c-9bf2-96c818b49ba5.jpg\",\"img/0764/c01e2d65-6586-441b-bef5-3c96fcd85380.jpg\"]","trial_type":"similarity","trial_index":201,"time_elapsed":1217127,"internal_node_id":"0.0-6.0-195.0"},{"sim_score":2,"rt":2744,"stimulus":"[\"img/0881/5fe04dd0-5c74-47b7-99c8-b068db9ca26a.jpg\",\"img/0904/09dac84f-3d1c-4445-a68e-d0389fdbf1e9.jpg\"]","trial_type":"similarity","trial_index":202,"time_elapsed":1220909,"internal_node_id":"0.0-6.0-196.0"},{"sim_score":2,"rt":6050,"stimulus":"[\"img/0864/c3b63e8f-ea39-4d70-a1f2-b3fe4be8eb75.jpg\",\"img/0902/12452bb1-b8c0-4e4d-ad4d-47e279e5933c.jpg\"]","trial_type":"similarity","trial_index":203,"time_elapsed":1227989,"internal_node_id":"0.0-6.0-197.0"},{"sim_score":7,"rt":2485,"stimulus":"[\"img/0894/e2446cf5-cd48-486a-badc-76498e087fbe.jpg\",\"img/0904/73920552-103b-4c9c-9ece-e0b8376b4504.jpg\"]","trial_type":"similarity","trial_index":204,"time_elapsed":1231522,"internal_node_id":"0.0-6.0-198.0"},{"sim_score":7,"rt":2573,"stimulus":"[\"img/0901/12da1841-e611-435c-9719-109413d536a8.jpg\",\"img/0901/1ede21d9-384f-4150-86b5-e1c57b5dc1d4.jpg\"]","trial_type":"similarity","trial_index":205,"time_elapsed":1235133,"internal_node_id":"0.0-6.0-199.0"},{"sim_score":2,"rt":3896,"stimulus":"[\"img/0894/5f15154e-e72e-4ce5-aafb-bce6f0564006.jpg\",\"img/0860/d9a0d117-6d1d-41c0-8fec-9aff0fd9e9f2.jpg\"]","trial_type":"similarity","trial_index":206,"time_elapsed":1240063,"internal_node_id":"0.0-6.0-200.0"},{"sim_score":6,"rt":5423,"stimulus":"[\"img/0898/224c1572-56b9-4f16-a9e4-6f3bc9c114bd.jpg\",\"img/0903/0fb24af7-9a26-4e9d-aadc-959a36f683e2.jpg\"]","trial_type":"similarity","trial_index":207,"time_elapsed":1246518,"internal_node_id":"0.0-6.0-201.0"},{"sim_score":2,"rt":3147,"stimulus":"[\"img/0864/3d4de670-b290-4285-9c3d-12a0e3af44e9.jpg\",\"img/0894/1b3888e6-cf36-4c4a-a039-187aa5cb71ac.jpg\"]","trial_type":"similarity","trial_index":208,"time_elapsed":1250700,"internal_node_id":"0.0-6.0-202.0"},{"sim_score":5,"rt":3427,"stimulus":"[\"img/0874/ca76a855-4e77-4f2f-872a-0a718153e7ed.jpg\",\"img/0860/9593362c-9fe5-4d12-9735-6000a11f6aa5.jpg\"]","trial_type":"similarity","trial_index":209,"time_elapsed":1255162,"internal_node_id":"0.0-6.0-203.0"},{"sim_score":5,"rt":3745,"stimulus":"[\"img/0862/5d887e9f-89e2-4ebc-80a0-6d46fe6480db.jpg\",\"img/0875/34132396-d896-4c2d-8087-646dd867e769.jpg\"]","trial_type":"similarity","trial_index":210,"time_elapsed":1259938,"internal_node_id":"0.0-6.0-204.0"},{"sim_score":5,"rt":2126,"stimulus":"[\"img/0867/075e0f95-856b-4cbb-acf5-092393aaf04e.jpg\",\"img/0881/4bd34581-94d8-4e88-8c89-5cef864ca3be.jpg\"]","trial_type":"similarity","trial_index":211,"time_elapsed":1263118,"internal_node_id":"0.0-6.0-205.0"},{"sim_score":6,"rt":3953,"stimulus":"[\"img/0901/deff6cfb-0072-4490-bc3e-206bbcd3e8bf.jpg\",\"img/0902/8af4182a-9af9-4212-a436-9195555112d6.jpg\"]","trial_type":"similarity","trial_index":212,"time_elapsed":1268104,"internal_node_id":"0.0-6.0-206.0"},{"sim_score":2,"rt":4008,"stimulus":"[\"img/0899/b45c550b-96c3-4255-ad59-48a2b4db1c1e.jpg\",\"img/0864/65210d57-1153-4657-886a-32e758f49b4a.jpg\"]","trial_type":"similarity","trial_index":213,"time_elapsed":1273135,"internal_node_id":"0.0-6.0-207.0"},{"sim_score":5,"rt":2439,"stimulus":"[\"img/0901/ae1e6ce4-2e10-4ca9-b1e7-21628637ab74.jpg\",\"img/0769/50985283-d353-4abc-9abe-14a91d56ebe6.jpg\"]","trial_type":"similarity","trial_index":214,"time_elapsed":1276621,"internal_node_id":"0.0-6.0-208.0"},{"sim_score":7,"rt":3346,"stimulus":"[\"img/0902/94198618-7047-4dc9-ad04-85f4ba913067.jpg\",\"img/0902/d3e55000-c839-4bf9-9b9b-4af0a9925af1.jpg\"]","trial_type":"similarity","trial_index":215,"time_elapsed":1285700,"internal_node_id":"0.0-6.0-209.0"},{"view_history":"[{\"page_index\":0,\"viewing_time\":4836}]","rt":4837,"trial_type":"instructions","trial_index":216,"time_elapsed":1291555,"internal_node_id":"0.0-7.0"},{"rt":10547,"responses":"{\"Q0\":\"Nashville Warbler\"}","answer":["Nashville Warbler"],"trial_type":"image-multi-choice","trial_index":217,"time_elapsed":1303202,"internal_node_id":"0.0-8.0-0.0"},{"rt":4791,"responses":"{\"Q0\":\"Black-and-white Warbler\"}","answer":["Black-and-white Warbler"],"trial_type":"image-multi-choice","trial_index":218,"time_elapsed":1309079,"internal_node_id":"0.0-8.0-1.0"},{"rt":3111,"responses":"{\"Q0\":\"Townsend's Warbler\"}","answer":["Townsend's Warbler"],"trial_type":"image-multi-choice","trial_index":219,"time_elapsed":1313285,"internal_node_id":"0.0-8.0-2.0"},{"rt":3460,"responses":"{\"Q0\":\"Lark Sparrow\"}","answer":["Lark Sparrow"],"trial_type":"image-multi-choice","trial_index":220,"time_elapsed":1317832,"internal_node_id":"0.0-8.0-3.0"},{"rt":3786,"responses":"{\"Q0\":\"Yellow Warbler\"}","answer":["Yellow Warbler"],"trial_type":"image-multi-choice","trial_index":221,"time_elapsed":1322708,"internal_node_id":"0.0-8.0-4.0"},{"rt":3987,"responses":"{\"Q0\":\"Orange-crowned Warbler\"}","answer":["Orange-crowned Warbler"],"trial_type":"image-multi-choice","trial_index":222,"time_elapsed":1327774,"internal_node_id":"0.0-8.0-5.0"},{"rt":2959,"responses":"{\"Q0\":\"White-throated Sparrow\"}","answer":["White-throated Sparrow"],"trial_type":"image-multi-choice","trial_index":223,"time_elapsed":1331814,"internal_node_id":"0.0-8.0-6.0"},{"rt":2860,"responses":"{\"Q0\":\"Fox Sparrow\"}","answer":["Fox Sparrow"],"trial_type":"image-multi-choice","trial_index":224,"time_elapsed":1335775,"internal_node_id":"0.0-8.0-7.0"},{"rt":4539,"responses":"{\"Q0\":\"Song Sparrow\"}","answer":["Song Sparrow"],"trial_type":"image-multi-choice","trial_index":225,"time_elapsed":1341401,"internal_node_id":"0.0-8.0-8.0"},{"rt":2967,"responses":"{\"Q0\":\"Blackburnian Warbler\"}","answer":["Blackburnian Warbler"],"trial_type":"image-multi-choice","trial_index":226,"time_elapsed":1345457,"internal_node_id":"0.0-8.0-9.0"},{"rt":5162,"responses":"{\"Q0\":\"Vesper Sparrow\"}","answer":["Vesper Sparrow"],"trial_type":"image-multi-choice","trial_index":227,"time_elapsed":1351707,"internal_node_id":"0.0-8.0-10.0"},{"rt":2512,"responses":"{\"Q0\":\"White-crowned Sparrow\"}","answer":["White-crowned Sparrow"],"trial_type":"image-multi-choice","trial_index":228,"time_elapsed":1355311,"internal_node_id":"0.0-8.0-11.0"},{"rt":7425,"responses":"{\"Q0\":\"American Tree Sparrow\"}","answer":["American Tree Sparrow"],"trial_type":"image-multi-choice","trial_index":229,"time_elapsed":1363821,"internal_node_id":"0.0-8.0-12.0"},{"rt":4543,"responses":"{\"Q0\":\"Tennessee Warbler\"}","answer":["Tennessee Warbler"],"trial_type":"image-multi-choice","trial_index":230,"time_elapsed":1369441,"internal_node_id":"0.0-8.0-13.0"},{"rt":2923,"responses":"{\"Q0\":\"Magnolia Warbler\"}","answer":["Magnolia Warbler"],"trial_type":"image-multi-choice","trial_index":231,"time_elapsed":1373440,"internal_node_id":"0.0-8.0-14.0"},{"rt":2828,"responses":"{\"Q0\":\"Northern Waterthrush\"}","answer":["Northern Waterthrush"],"trial_type":"image-multi-choice","trial_index":232,"time_elapsed":1377378,"internal_node_id":"0.0-8.0-15.0"},{"rt":7927,"responses":"{\"Q0\":\"Chipping Sparrow\"}","answer":["Chipping Sparrow"],"trial_type":"image-multi-choice","trial_index":233,"time_elapsed":1386380,"internal_node_id":"0.0-8.0-16.0"},{"rt":2788,"responses":"{\"Q0\":\"Swamp Sparrow\"}","answer":["Swamp Sparrow"],"trial_type":"image-multi-choice","trial_index":234,"time_elapsed":1390239,"internal_node_id":"0.0-8.0-17.0"},{"rt":3576,"responses":"{\"Q0\":\"Lincoln's Sparrow\"}","answer":["Lincoln's Sparrow"],"trial_type":"image-multi-choice","trial_index":235,"time_elapsed":1394920,"internal_node_id":"0.0-8.0-18.0"},{"rt":3036,"responses":"{\"Q0\":\"Ovenbird\"}","answer":["Ovenbird"],"trial_type":"image-multi-choice","trial_index":236,"time_elapsed":1399062,"internal_node_id":"0.0-8.0-19.0"}]