[{"view_history":"[{\"page_index\":0,\"viewing_time\":7650}]","rt":7651,"trial_type":"instructions","trial_index":0,"time_elapsed":7651,"internal_node_id":"0.0-0.0"},{"sim_score":6,"rt":7498,"stimulus":"[\"img/866.jpg\",\"img/868.jpg\"]","trial_type":"similarity_demo","trial_index":1,"time_elapsed":16154,"internal_node_id":"0.0-1.0"},{"view_history":"[{\"page_index\":0,\"viewing_time\":10672}]","rt":10672,"trial_type":"instructions","trial_index":2,"time_elapsed":27833,"internal_node_id":"0.0-2.0"},{"sim_score":4,"rt":3667,"stimulus":"[\"img/766.jpg\",\"img/867.jpg\"]","trial_type":"similarity_demo","trial_index":3,"time_elapsed":32505,"internal_node_id":"0.0-3.0"},{"view_history":"[{\"page_index\":0,\"viewing_time\":3475}]","rt":3475,"trial_type":"instructions","trial_index":4,"time_elapsed":36985,"internal_node_id":"0.0-4.0"},{"view_history":"[{\"page_index\":0,\"viewing_time\":15788}]","rt":15788,"trial_type":"instructions","trial_index":5,"time_elapsed":53780,"internal_node_id":"0.0-5.0"},{"sim_score":2,"rt":5868,"stimulus":"[\"img/0868/7b212364-ff5f-4e28-9241-7eb6ea00161b.jpg\",\"img/0901/33b51a81-06d9-46d9-9d4f-5a2d6d6b8058.jpg\"]","trial_type":"similarity","trial_index":6,"time_elapsed":60658,"internal_node_id":"0.0-6.0-0.0"},{"sim_score":3,"rt":3674,"stimulus":"[\"img/0769/057eb0a0-aa5b-40c7-9852-21444f68d767.jpg\",\"img/0867/179ab87a-8eac-4c52-a41f-2e48e3120f09.jpg\"]","trial_type":"similarity","trial_index":7,"time_elapsed":65345,"internal_node_id":"0.0-6.0-1.0"},{"sim_score":4,"rt":3708,"stimulus":"[\"img/0766/110832e5-2646-4bd0-a94e-5df8cc314269.jpg\",\"img/0898/cd3aaa3f-efa9-4ab3-8d6f-a6a9273ddf42.jpg\"]","trial_type":"similarity","trial_index":8,"time_elapsed":70074,"internal_node_id":"0.0-6.0-2.0"},{"sim_score":3,"rt":4204,"stimulus":"[\"img/0902/bd89a85f-3853-4786-acd6-98818ee29f1c.jpg\",\"img/0881/405484ae-0d00-4b05-bc57-6420a36adfac.jpg\"]","trial_type":"similarity","trial_index":9,"time_elapsed":75297,"internal_node_id":"0.0-6.0-3.0"},{"sim_score":6,"rt":3743,"stimulus":"[\"img/0894/5f15154e-e72e-4ce5-aafb-bce6f0564006.jpg\",\"img/0894/133a1636-d123-4893-873c-1718050f832a.jpg\"]","trial_type":"similarity","trial_index":10,"time_elapsed":80050,"internal_node_id":"0.0-6.0-4.0"},{"sim_score":3,"rt":6753,"stimulus":"[\"img/0874/ca23d307-fc00-4d7d-9106-584c6eb21b4d.jpg\",\"img/0899/00715b3f-851b-420b-a26b-d7f79f7759a9.jpg\"]","trial_type":"similarity","trial_index":11,"time_elapsed":87817,"internal_node_id":"0.0-6.0-5.0"},{"sim_score":6,"rt":4524,"stimulus":"[\"img/0904/96e503ea-6630-4996-85f2-0237688ce441.jpg\",\"img/0764/e0788029-9d7f-414c-b747-46d2a99f7c86.jpg\"]","trial_type":"similarity","trial_index":12,"time_elapsed":93346,"internal_node_id":"0.0-6.0-6.0"},{"sim_score":5,"rt":5241,"stimulus":"[\"img/0899/b45c550b-96c3-4255-ad59-48a2b4db1c1e.jpg\",\"img/0898/ec565187-2e31-4fdd-9a5c-153d0c789ae0.jpg\"]","trial_type":"similarity","trial_index":13,"time_elapsed":99594,"internal_node_id":"0.0-6.0-7.0"},{"sim_score":3,"rt":3286,"stimulus":"[\"img/0874/29830da7-be5f-44e5-b141-652a0ccf7269.jpg\",\"img/0903/f67c4ab9-f8c2-4fcd-848a-a54a7b031002.jpg\"]","trial_type":"similarity","trial_index":14,"time_elapsed":103890,"internal_node_id":"0.0-6.0-8.0"},{"sim_score":6,"rt":3569,"stimulus":"[\"img/0881/54ea8e77-c7e5-4197-b7fa-00b7020849a7.jpg\",\"img/0758/e1ba5e53-addc-436a-b428-d34fc1b130dc.jpg\"]","trial_type":"similarity","trial_index":15,"time_elapsed":108474,"internal_node_id":"0.0-6.0-9.0"},{"sim_score":4,"rt":2657,"stimulus":"[\"img/0898/b3290bf9-215b-4b45-b21a-65bdf73f142f.jpg\",\"img/0901/4f9cffe0-c0be-4d7f-bacd-9d51efd19b4a.jpg\"]","trial_type":"similarity","trial_index":16,"time_elapsed":112138,"internal_node_id":"0.0-6.0-10.0"},{"sim_score":4,"rt":2680,"stimulus":"[\"img/0903/d987e220-f3e6-4b6d-a270-fe6757041f6d.jpg\",\"img/0769/ecda2fb3-556b-43ba-8a67-e87dd75ff2b4.jpg\"]","trial_type":"similarity","trial_index":17,"time_elapsed":115826,"internal_node_id":"0.0-6.0-11.0"},{"sim_score":5,"rt":5704,"stimulus":"[\"img/0764/ca9829fe-aaf8-45b8-b98a-6bae751c63dd.jpg\",\"img/0868/77091fc7-a590-4ebb-b915-fdb2483a2399.jpg\"]","trial_type":"similarity","trial_index":18,"time_elapsed":122538,"internal_node_id":"0.0-6.0-12.0"},{"sim_score":1,"rt":4953,"stimulus":"[\"img/0867/f26f6b60-f772-4f4c-95a4-addc62cfd692.jpg\",\"img/0903/81368973-de81-46f4-844f-b901f3bfd66d.jpg\"]","trial_type":"similarity","trial_index":19,"time_elapsed":128507,"internal_node_id":"0.0-6.0-13.0"},{"sim_score":2,"rt":3228,"stimulus":"[\"img/0766/f5f78e4e-d88f-4866-951a-118ba9fec4d0.jpg\",\"img/0758/d540bee6-b460-4c32-ac57-bc282742d7d4.jpg\"]","trial_type":"similarity","trial_index":20,"time_elapsed":132746,"internal_node_id":"0.0-6.0-14.0"},{"sim_score":4,"rt":3271,"stimulus":"[\"img/0902/f3cfec34-482c-4bdb-9c92-19ea6cfce183.jpg\",\"img/0860/61fb959d-d4d9-4de4-9e4e-4fa62b4cfcd5.jpg\"]","trial_type":"similarity","trial_index":21,"time_elapsed":137026,"internal_node_id":"0.0-6.0-15.0"},{"sim_score":2,"rt":3315,"stimulus":"[\"img/0769/1afb527f-9887-428c-bd26-a12c2f9efb68.jpg\",\"img/0875/ebf7653f-ff45-4e9f-af58-2c042ab3cd2b.jpg\"]","trial_type":"similarity","trial_index":22,"time_elapsed":141354,"internal_node_id":"0.0-6.0-16.0"},{"sim_score":3,"rt":3098,"stimulus":"[\"img/0904/1d10df11-b5c8-4370-9a6b-097a7f965895.jpg\",\"img/0866/a15b02be-11bb-43e3-b0e0-ecc3bd7dfc49.jpg\"]","trial_type":"similarity","trial_index":23,"time_elapsed":145458,"internal_node_id":"0.0-6.0-17.0"},{"sim_score":7,"rt":4281,"stimulus":"[\"img/0875/3ecb367d-e9eb-4826-8aaa-7aa72fb98019.jpg\",\"img/0875/99698b4d-b4a1-44bc-8c83-8ea755bbbf61.jpg\"]","trial_type":"similarity","trial_index":24,"time_elapsed":150754,"internal_node_id":"0.0-6.0-18.0"},{"sim_score":7,"rt":3973,"stimulus":"[\"img/0758/a709631e-3705-4725-ac40-f0d916924f08.jpg\",\"img/0758/335851a0-a55b-46d8-ab05-8463eda48349.jpg\"]","trial_type":"similarity","trial_index":25,"time_elapsed":155738,"internal_node_id":"0.0-6.0-19.0"},{"sim_score":2,"rt":3436,"stimulus":"[\"img/0902/aa6fca32-82b0-4414-b20a-8f6f8aa5a2d2.jpg\",\"img/0874/a82926a3-0b43-4add-803c-d5f9ea7798ee.jpg\"]","trial_type":"similarity","trial_index":26,"time_elapsed":160186,"internal_node_id":"0.0-6.0-20.0"},{"sim_score":6,"rt":2959,"stimulus":"[\"img/0764/6fbd1902-fa2a-48d8-bc11-705b8ab68d8f.jpg\",\"img/0769/180213e5-1e50-4b4e-87b6-add77ba04d39.jpg\"]","trial_type":"similarity","trial_index":27,"time_elapsed":164162,"internal_node_id":"0.0-6.0-21.0"},{"sim_score":2,"rt":5483,"stimulus":"[\"img/0901/deff6cfb-0072-4490-bc3e-206bbcd3e8bf.jpg\",\"img/0874/995f0332-0439-4eb4-add3-957335dbf6d9.jpg\"]","trial_type":"similarity","trial_index":28,"time_elapsed":170659,"internal_node_id":"0.0-6.0-22.0"},{"sim_score":3,"rt":2546,"stimulus":"[\"img/0875/5a1e5100-0d94-4fec-bbe9-ca9894d2cf8e.jpg\",\"img/0903/2a9c8033-3e70-47fa-816d-97ee1813a3a3.jpg\"]","trial_type":"similarity","trial_index":29,"time_elapsed":174212,"internal_node_id":"0.0-6.0-23.0"},{"sim_score":3,"rt":3554,"stimulus":"[\"img/0769/9ea9ceb6-049e-4ad9-be8f-00645cd35803.jpg\",\"img/0881/14236cf2-6b95-48b8-9368-78af09d2d27f.jpg\"]","trial_type":"similarity","trial_index":30,"time_elapsed":178786,"internal_node_id":"0.0-6.0-24.0"},{"sim_score":2,"rt":2852,"stimulus":"[\"img/0867/c71dc569-f49c-4397-8381-68b8d726736d.jpg\",\"img/0904/09dac84f-3d1c-4445-a68e-d0389fdbf1e9.jpg\"]","trial_type":"similarity","trial_index":31,"time_elapsed":182650,"internal_node_id":"0.0-6.0-25.0"},{"sim_score":4,"rt":3417,"stimulus":"[\"img/0860/99c589b9-9140-4d17-90c0-b344323edcda.jpg\",\"img/0881/c24f3051-eefa-42de-aba6-fccb56d93c70.jpg\"]","trial_type":"similarity","trial_index":32,"time_elapsed":187074,"internal_node_id":"0.0-6.0-26.0"},{"sim_score":7,"rt":4765,"stimulus":"[\"img/0866/be24ab58-230e-4db8-9f45-ff04c9aec6bb.jpg\",\"img/0866/11a1d141-be5e-443c-98c1-a9d4d9e3dec0.jpg\"]","trial_type":"similarity","trial_index":33,"time_elapsed":192842,"internal_node_id":"0.0-6.0-27.0"},{"sim_score":1,"rt":3073,"stimulus":"[\"img/0764/06ea144f-f4f3-4a14-ba47-f20f35c561e0.jpg\",\"img/0862/fb26cb07-d5a9-4653-813c-f41609f26cd5.jpg\"]","trial_type":"similarity","trial_index":34,"time_elapsed":196922,"internal_node_id":"0.0-6.0-28.0"},{"sim_score":1,"rt":4583,"stimulus":"[\"img/0904/b5855d6a-7ef9-46ca-9215-6e9fa046e543.jpg\",\"img/0758/67c0be2f-9e91-48b3-8219-70ac0a1802fa.jpg\"]","trial_type":"similarity","trial_index":35,"time_elapsed":202515,"internal_node_id":"0.0-6.0-29.0"},{"sim_score":5,"rt":4524,"stimulus":"[\"img/0894/492d2f29-d7b9-4422-8be8-47fd58bfaa8b.jpg\",\"img/0899/5b56dd3e-3f49-47cc-af84-16da6457753b.jpg\"]","trial_type":"similarity","trial_index":36,"time_elapsed":208058,"internal_node_id":"0.0-6.0-30.0"},{"sim_score":1,"rt":4960,"stimulus":"[\"img/0860/29a21a9f-54bb-4093-ad3f-04823ceaa89f.jpg\",\"img/0904/b7c2a2c8-df33-4473-b3d4-ff7147c60db3.jpg\"]","trial_type":"similarity","trial_index":37,"time_elapsed":214026,"internal_node_id":"0.0-6.0-31.0"},{"sim_score":6,"rt":5187,"stimulus":"[\"img/0874/a3bc679d-619f-4db6-bb68-116dcb757d9c.jpg\",\"img/0881/f4e3e181-b3c9-4af2-a5a4-fc135ab70d2e.jpg\"]","trial_type":"similarity","trial_index":38,"time_elapsed":220226,"internal_node_id":"0.0-6.0-32.0"},{"sim_score":4,"rt":4003,"stimulus":"[\"img/0881/0c7068da-d0d9-4103-bda1-74ef7a2b32c3.jpg\",\"img/0899/51a7a498-98c7-42d7-bca8-bc2d8f0b5831.jpg\"]","trial_type":"similarity","trial_index":39,"time_elapsed":225242,"internal_node_id":"0.0-6.0-33.0"},{"sim_score":5,"rt":2564,"stimulus":"[\"img/0866/93a27239-8317-4e08-98ca-d8b1ff298e07.jpg\",\"img/0862/d0ca4c78-fc35-46ed-bdcc-8e124283c53e.jpg\"]","trial_type":"similarity","trial_index":40,"time_elapsed":228818,"internal_node_id":"0.0-6.0-34.0"},{"sim_score":3,"rt":3600,"stimulus":"[\"img/0868/293079b8-7e0c-4afd-a390-1e5d35fe3ded.jpg\",\"img/0894/5c7677b0-a4f1-479e-b274-7822c415175a.jpg\"]","trial_type":"similarity","trial_index":41,"time_elapsed":233426,"internal_node_id":"0.0-6.0-35.0"},{"sim_score":7,"rt":5235,"stimulus":"[\"img/0860/17b44a7d-c5ca-479f-9e87-f65a64f5c80e.jpg\",\"img/0860/c7047cd2-7cc1-41b6-8a34-c0986774975f.jpg\"]","trial_type":"similarity","trial_index":42,"time_elapsed":239666,"internal_node_id":"0.0-6.0-36.0"},{"sim_score":5,"rt":6065,"stimulus":"[\"img/0862/92fcd8a4-8193-4a6a-ae09-dd4a6338b0df.jpg\",\"img/0864/4bd81bc6-c13d-46df-95a9-485886dc7c1b.jpg\"]","trial_type":"similarity","trial_index":43,"time_elapsed":246738,"internal_node_id":"0.0-6.0-37.0"},{"sim_score":2,"rt":2546,"stimulus":"[\"img/0766/ea09dd5a-d24d-4e97-a099-7da3db1baef1.jpg\",\"img/0866/9b38d691-1802-4959-ab3f-fc902f0e4ea6.jpg\"]","trial_type":"similarity","trial_index":44,"time_elapsed":250298,"internal_node_id":"0.0-6.0-38.0"},{"sim_score":3,"rt":3294,"stimulus":"[\"img/0875/a4935837-7d3c-4df6-88c1-36a94d4991ca.jpg\",\"img/0898/81b08535-2020-4c15-9ce4-2f1e460755ae.jpg\"]","trial_type":"similarity","trial_index":45,"time_elapsed":254602,"internal_node_id":"0.0-6.0-39.0"},{"sim_score":5,"rt":3404,"stimulus":"[\"img/0766/717fd72f-a281-499b-a5ba-5e2ecc4d4866.jpg\",\"img/0769/ebef2ddc-ba59-4e0e-97f8-927864eb5081.jpg\"]","trial_type":"similarity","trial_index":46,"time_elapsed":259018,"internal_node_id":"0.0-6.0-40.0"},{"sim_score":3,"rt":4997,"stimulus":"[\"img/0874/767f289c-9814-4496-803f-745cc8913d1f.jpg\",\"img/0764/c80b3e06-2ee3-4326-9678-340607eb5348.jpg\"]","trial_type":"similarity","trial_index":47,"time_elapsed":276897,"internal_node_id":"0.0-6.0-41.0"},{"sim_score":1,"rt":5121,"stimulus":"[\"img/0868/0d3abd3a-b6c3-4584-a9f7-e2da63748b3d.jpg\",\"img/0902/4e0baa32-988e-46f6-989d-f669225ab645.jpg\"]","trial_type":"similarity","trial_index":48,"time_elapsed":283025,"internal_node_id":"0.0-6.0-42.0"},{"sim_score":2,"rt":4202,"stimulus":"[\"img/0875/d59ff733-eaff-4ee2-9443-06954dd0bcb6.jpg\",\"img/0899/d8f2dd94-570e-4e8c-a087-d96090fb9e8c.jpg\"]","trial_type":"similarity","trial_index":49,"time_elapsed":288241,"internal_node_id":"0.0-6.0-43.0"},{"sim_score":5,"rt":3048,"stimulus":"[\"img/0866/d493a2c8-66eb-44b4-be02-2f327b700b7c.jpg\",\"img/0860/5383b320-1518-4095-a58e-5cc1ae30b64c.jpg\"]","trial_type":"similarity","trial_index":50,"time_elapsed":292305,"internal_node_id":"0.0-6.0-44.0"},{"sim_score":5,"rt":3134,"stimulus":"[\"img/0766/33aa9ebb-c9f5-418f-8c8b-c77861889568.jpg\",\"img/0903/0e5c2854-42aa-48c0-9c3d-6e1ad2a400bd.jpg\"]","trial_type":"similarity","trial_index":51,"time_elapsed":296449,"internal_node_id":"0.0-6.0-45.0"},{"sim_score":5,"rt":5325,"stimulus":"[\"img/0901/ae1e6ce4-2e10-4ca9-b1e7-21628637ab74.jpg\",\"img/0904/4e58005d-a2ec-4aaa-b199-445343561396.jpg\"]","trial_type":"similarity","trial_index":52,"time_elapsed":302793,"internal_node_id":"0.0-6.0-46.0"},{"sim_score":3,"rt":3162,"stimulus":"[\"img/0758/6e95579b-5166-487c-b8cb-e417c6a218e3.jpg\",\"img/0902/97022122-01e4-46c3-a34f-c6260ad28428.jpg\"]","trial_type":"similarity","trial_index":53,"time_elapsed":306969,"internal_node_id":"0.0-6.0-47.0"},{"sim_score":7,"rt":3045,"stimulus":"[\"img/0764/1def7b22-b054-4ec2-860b-73d25691823b.jpg\",\"img/0764/e42c1dc9-7831-4995-be19-7ca7b4d141fc.jpg\"]","trial_type":"similarity","trial_index":54,"time_elapsed":311017,"internal_node_id":"0.0-6.0-48.0"},{"sim_score":2,"rt":3201,"stimulus":"[\"img/0866/386235d2-6857-41e7-88a8-25cfc3430025.jpg\",\"img/0902/31abfa33-7cdb-44ad-968e-9f7b324d577a.jpg\"]","trial_type":"similarity","trial_index":55,"time_elapsed":315225,"internal_node_id":"0.0-6.0-49.0"},{"sim_score":2,"rt":3117,"stimulus":"[\"img/0764/974d52cc-6318-4e7a-b294-2f3e92ff800f.jpg\",\"img/0758/dd559618-7f09-4a07-8018-d311c4a5ea29.jpg\"]","trial_type":"similarity","trial_index":56,"time_elapsed":319353,"internal_node_id":"0.0-6.0-50.0"},{"sim_score":6,"rt":2429,"stimulus":"[\"img/0898/993d8f2d-bef7-4251-a193-0f93a32b7763.jpg\",\"img/0894/a3d4170b-b7d8-40e3-955f-87e76ed745fc.jpg\"]","trial_type":"similarity","trial_index":57,"time_elapsed":322792,"internal_node_id":"0.0-6.0-51.0"},{"sim_score":6,"rt":2560,"stimulus":"[\"img/0875/f87b67d7-c33e-40d1-b281-248c4be1cb6e.jpg\",\"img/0866/6f2a90d7-14f1-4f1b-bd64-fc0af6b9fe44.jpg\"]","trial_type":"similarity","trial_index":58,"time_elapsed":326369,"internal_node_id":"0.0-6.0-52.0"},{"sim_score":6,"rt":5080,"stimulus":"[\"img/0904/9d30eff1-46ef-4453-b11e-124ef8145c00.jpg\",\"img/0904/25365108-e038-4021-aac9-797f2063b337.jpg\"]","trial_type":"similarity","trial_index":59,"time_elapsed":332465,"internal_node_id":"0.0-6.0-53.0"},{"sim_score":7,"rt":5051,"stimulus":"[\"img/0769/662ab839-88d1-4ebf-af05-9b2980cad943.jpg\",\"img/0769/f73c5138-2f4c-4354-981c-129dff9cc734.jpg\"]","trial_type":"similarity","trial_index":60,"time_elapsed":338530,"internal_node_id":"0.0-6.0-54.0"},{"sim_score":2,"rt":7451,"stimulus":"[\"img/0898/a114b375-cb89-44ba-9498-74213f1ecdee.jpg\",\"img/0758/65d426d6-3ff6-415d-8654-a43b83ecc4fe.jpg\"]","trial_type":"similarity","trial_index":61,"time_elapsed":346986,"internal_node_id":"0.0-6.0-55.0"},{"sim_score":5,"rt":3396,"stimulus":"[\"img/0769/47700831-0ca2-4fdd-a498-a3bc5a528f43.jpg\",\"img/0902/24d10fe7-314f-4d5a-8c7b-b43121bba0a4.jpg\"]","trial_type":"similarity","trial_index":62,"time_elapsed":351402,"internal_node_id":"0.0-6.0-56.0"},{"sim_score":6,"rt":3135,"stimulus":"[\"img/0864/66091c27-e588-4476-8af9-265dc6be4156.jpg\",\"img/0881/f037e3b0-09cb-4a83-b2d9-6a71fe474e63.jpg\"]","trial_type":"similarity","trial_index":63,"time_elapsed":355546,"internal_node_id":"0.0-6.0-57.0"},{"sim_score":4,"rt":2036,"stimulus":"[\"img/0758/b76ceca7-95ac-46e4-ac13-da02c8e93be9.jpg\",\"img/0868/15dd6fd7-791e-4b53-b203-195d617521a4.jpg\"]","trial_type":"similarity","trial_index":64,"time_elapsed":358595,"internal_node_id":"0.0-6.0-58.0"},{"sim_score":1,"rt":4333,"stimulus":"[\"img/0862/92f0146c-20c4-482e-aef5-adb693790338.jpg\",\"img/0769/9ea27d61-3d55-418c-8d14-82e90f656f01.jpg\"]","trial_type":"similarity","trial_index":65,"time_elapsed":363946,"internal_node_id":"0.0-6.0-59.0"},{"sim_score":5,"rt":5282,"stimulus":"[\"img/0764/4bec8d92-75aa-475a-954d-8215dbe538f5.jpg\",\"img/0903/36e4ab1f-caa9-40b3-8616-faada076df94.jpg\"]","trial_type":"similarity","trial_index":66,"time_elapsed":370242,"internal_node_id":"0.0-6.0-60.0"},{"sim_score":7,"rt":3029,"stimulus":"[\"img/0899/66bf4113-ee12-426c-84d2-ea410b6c803e.jpg\",\"img/0899/9de5e857-aa9a-4e0c-8ba2-46d79bd069a4.jpg\"]","trial_type":"similarity","trial_index":67,"time_elapsed":374290,"internal_node_id":"0.0-6.0-61.0"},{"sim_score":2,"rt":2710,"stimulus":"[\"img/0860/fd4662f9-4c03-4d79-8593-06735e55a64b.jpg\",\"img/0875/cff79b3a-a797-4393-9757-6275f999ec04.jpg\"]","trial_type":"similarity","trial_index":68,"time_elapsed":378018,"internal_node_id":"0.0-6.0-62.0"},{"sim_score":4,"rt":2430,"stimulus":"[\"img/0868/8b0b8473-e2c0-4331-aa56-c3a5c29369da.jpg\",\"img/0874/99f6563c-8a8d-4c1c-a41d-667b618c3fd5.jpg\"]","trial_type":"similarity","trial_index":69,"time_elapsed":381466,"internal_node_id":"0.0-6.0-63.0"},{"sim_score":5,"rt":3213,"stimulus":"[\"img/0758/ddc336e9-a8b6-4bb9-937a-c7e25e0e9250.jpg\",\"img/0862/f23038d4-c366-4f70-979f-66b62362efa4.jpg\"]","trial_type":"similarity","trial_index":70,"time_elapsed":385690,"internal_node_id":"0.0-6.0-64.0"},{"sim_score":4,"rt":2925,"stimulus":"[\"img/0904/0d17b811-063e-416e-a23c-3b3cfa4fcce5.jpg\",\"img/0898/224c1572-56b9-4f16-a9e4-6f3bc9c114bd.jpg\"]","trial_type":"similarity","trial_index":71,"time_elapsed":389626,"internal_node_id":"0.0-6.0-65.0"},{"sim_score":4,"rt":2563,"stimulus":"[\"img/0881/7e822106-76f7-4b10-a805-14dc68b2cfaf.jpg\",\"img/0866/a04d37f0-99dd-478a-b6c6-58b215138f84.jpg\"]","trial_type":"similarity","trial_index":72,"time_elapsed":393202,"internal_node_id":"0.0-6.0-66.0"},{"sim_score":3,"rt":3394,"stimulus":"[\"img/0867/2e1a0b58-cdb1-4107-a14e-452530d7b9b0.jpg\",\"img/0898/08c72dac-f8ad-407a-9ce6-8c9a5d679c3a.jpg\"]","trial_type":"similarity","trial_index":73,"time_elapsed":397602,"internal_node_id":"0.0-6.0-67.0"},{"sim_score":4,"rt":2246,"stimulus":"[\"img/0902/b03129ba-b087-4558-af37-e8399d6217d6.jpg\",\"img/0764/ca957454-126a-4bd3-b29c-7174a24c25dc.jpg\"]","trial_type":"similarity","trial_index":74,"time_elapsed":400857,"internal_node_id":"0.0-6.0-68.0"},{"sim_score":6,"rt":2832,"stimulus":"[\"img/0875/5a7c4e35-6514-4e12-8879-d16071da4cd6.jpg\",\"img/0867/de92135f-5b65-4ed9-b245-188292c7c2f8.jpg\"]","trial_type":"similarity","trial_index":75,"time_elapsed":404705,"internal_node_id":"0.0-6.0-69.0"},{"sim_score":6,"rt":3162,"stimulus":"[\"img/0766/51d3aab4-3d09-4dda-b99d-3dc7aaabc6f2.jpg\",\"img/0764/5d6fa3ce-9083-410c-bbdb-336a49b94cfc.jpg\"]","trial_type":"similarity","trial_index":76,"time_elapsed":408881,"internal_node_id":"0.0-6.0-70.0"},{"sim_score":2,"rt":3589,"stimulus":"[\"img/0894/5a49e858-2850-4892-9a06-e9f0efb5f94d.jpg\",\"img/0867/cc72ed48-7704-422c-86d6-467a1145287a.jpg\"]","trial_type":"similarity","trial_index":77,"time_elapsed":413489,"internal_node_id":"0.0-6.0-71.0"},{"sim_score":2,"rt":2993,"stimulus":"[\"img/0875/527ced51-8e53-4aab-ab05-86df219104c0.jpg\",\"img/0764/21e3292f-01ad-4238-828b-61b817857d16.jpg\"]","trial_type":"similarity","trial_index":78,"time_elapsed":417489,"internal_node_id":"0.0-6.0-72.0"},{"sim_score":7,"rt":2622,"stimulus":"[\"img/0867/ac1797e4-8afc-48fe-b252-86d1defb1cca.jpg\",\"img/0866/620cd1aa-0800-4414-8f6e-90342e7a99ad.jpg\"]","trial_type":"similarity","trial_index":79,"time_elapsed":421121,"internal_node_id":"0.0-6.0-73.0"},{"sim_score":1,"rt":4673,"stimulus":"[\"img/0903/8f7f9939-b8e6-433f-93dd-b362496c80a7.jpg\",\"img/0758/a085b443-b5d7-4cb2-9ad4-b9dab0fc23f1.jpg\"]","trial_type":"similarity","trial_index":80,"time_elapsed":426809,"internal_node_id":"0.0-6.0-74.0"},{"sim_score":2,"rt":3974,"stimulus":"[\"img/0766/5d1b8041-c5a1-4b02-b4fe-3453d98a0d72.jpg\",\"img/0868/6a28c3b0-3d76-498a-9fb7-ddafc665eca8.jpg\"]","trial_type":"similarity","trial_index":81,"time_elapsed":431801,"internal_node_id":"0.0-6.0-75.0"},{"sim_score":3,"rt":2894,"stimulus":"[\"img/0874/c0378dac-9370-439a-8b79-db27c96fb390.jpg\",\"img/0766/69e486f7-dbef-456b-9d48-53d814248a28.jpg\"]","trial_type":"similarity","trial_index":82,"time_elapsed":435713,"internal_node_id":"0.0-6.0-76.0"},{"sim_score":4,"rt":2780,"stimulus":"[\"img/0881/5fe04dd0-5c74-47b7-99c8-b068db9ca26a.jpg\",\"img/0868/c8ac40c7-6904-4e13-8d61-c75d3052dc4e.jpg\"]","trial_type":"similarity","trial_index":83,"time_elapsed":439505,"internal_node_id":"0.0-6.0-77.0"},{"sim_score":2,"rt":6181,"stimulus":"[\"img/0758/9fb5b2fe-3f00-4fe6-973c-1ce10d5f4cd5.jpg\",\"img/0901/0f670aef-ac36-496d-8142-ee5fdb21dd82.jpg\"]","trial_type":"similarity","trial_index":84,"time_elapsed":446705,"internal_node_id":"0.0-6.0-78.0"},{"sim_score":2,"rt":3973,"stimulus":"[\"img/0881/b1a136f7-8511-4d3a-a0f6-3879acf1e1a1.jpg\",\"img/0898/8605a25b-6895-476d-8c13-df7a83f96093.jpg\"]","trial_type":"similarity","trial_index":85,"time_elapsed":451697,"internal_node_id":"0.0-6.0-79.0"},{"sim_score":4,"rt":2226,"stimulus":"[\"img/0867/f8159067-056c-41f1-a136-c529fe5e970a.jpg\",\"img/0758/7ffbc76b-1fc1-432c-8f7e-9ec8d1b3f643.jpg\"]","trial_type":"similarity","trial_index":86,"time_elapsed":454929,"internal_node_id":"0.0-6.0-80.0"},{"sim_score":5,"rt":3292,"stimulus":"[\"img/0769/6c0bac4c-5f59-43c7-898c-3ca93cf55cfe.jpg\",\"img/0899/0433d056-aa30-4f8a-9aa1-abbb951e4edd.jpg\"]","trial_type":"similarity","trial_index":87,"time_elapsed":459234,"internal_node_id":"0.0-6.0-81.0"},{"sim_score":7,"rt":3357,"stimulus":"[\"img/0903/97a42b34-5462-4665-88c7-83c014b33d24.jpg\",\"img/0903/6b5dcc60-3ad3-4962-93e5-e6cf768477af.jpg\"]","trial_type":"similarity","trial_index":88,"time_elapsed":463602,"internal_node_id":"0.0-6.0-82.0"},{"sim_score":2,"rt":4356,"stimulus":"[\"img/0867/aa05d113-fc19-4756-a8eb-7878f580bc92.jpg\",\"img/0766/75c3d627-4f3b-40d5-9d9c-10c8a62db644.jpg\"]","trial_type":"similarity","trial_index":89,"time_elapsed":472305,"internal_node_id":"0.0-6.0-83.0"},{"sim_score":2,"rt":3523,"stimulus":"[\"img/0902/7499db23-3a41-41ea-ab5b-6ab4d4c3ed35.jpg\",\"img/0867/db7e032f-162b-46f5-ae67-2b29679adee4.jpg\"]","trial_type":"similarity","trial_index":90,"time_elapsed":476834,"internal_node_id":"0.0-6.0-84.0"},{"sim_score":2,"rt":3538,"stimulus":"[\"img/0901/8bb79e82-9c43-4b6f-a655-40655519598b.jpg\",\"img/0875/fb732ab5-013a-4366-9f65-27811ed157e9.jpg\"]","trial_type":"similarity","trial_index":91,"time_elapsed":481386,"internal_node_id":"0.0-6.0-85.0"},{"sim_score":3,"rt":3571,"stimulus":"[\"img/0764/fb7d4a20-a475-465e-a74f-aa39a0d33d16.jpg\",\"img/0866/8efcaa46-83ab-4dee-a35f-850402aa21ae.jpg\"]","trial_type":"similarity","trial_index":92,"time_elapsed":485962,"internal_node_id":"0.0-6.0-86.0"},{"sim_score":4,"rt":1731,"stimulus":"[\"img/0901/548d1110-7cb8-42a2-9927-9798875c8b5c.jpg\",\"img/0894/76c1201f-8524-4865-85e6-dda8cb4ac986.jpg\"]","trial_type":"similarity","trial_index":93,"time_elapsed":488698,"internal_node_id":"0.0-6.0-87.0"},{"sim_score":4,"rt":3341,"stimulus":"[\"img/0898/04e39a7a-fcf6-4156-ab0e-f5871f335e1c.jpg\",\"img/0769/35364db7-e0d5-40ef-93dc-faf9dfb95136.jpg\"]","trial_type":"similarity","trial_index":94,"time_elapsed":493050,"internal_node_id":"0.0-6.0-88.0"},{"sim_score":5,"rt":2479,"stimulus":"[\"img/0769/1ca58b80-2365-446d-9616-6c1719e6c46f.jpg\",\"img/0894/3664e04c-c6d3-4c9b-afb6-25d89974b174.jpg\"]","trial_type":"similarity","trial_index":95,"time_elapsed":496546,"internal_node_id":"0.0-6.0-89.0"},{"sim_score":5,"rt":2585,"stimulus":"[\"img/0862/cdaed51d-9e2f-4807-801a-4663c40077e2.jpg\",\"img/0874/2c9464dd-8a23-4baa-ac94-1ba3af5c15cc.jpg\"]","trial_type":"similarity","trial_index":96,"time_elapsed":500146,"internal_node_id":"0.0-6.0-90.0"},{"sim_score":5,"rt":4934,"stimulus":"[\"img/0894/661b9f9f-4bde-487a-b1ed-87085fde6948.jpg\",\"img/0766/3c526a07-9e0a-4ae2-8142-00085f0127da.jpg\"]","trial_type":"similarity","trial_index":97,"time_elapsed":506090,"internal_node_id":"0.0-6.0-91.0"},{"sim_score":4,"rt":2122,"stimulus":"[\"img/0874/93d1f8dc-acf2-4f03-bd8d-8ec35df276ed.jpg\",\"img/0867/5e07b34d-b40f-4b1c-ac10-49975bace45f.jpg\"]","trial_type":"similarity","trial_index":98,"time_elapsed":509218,"internal_node_id":"0.0-6.0-92.0"},{"sim_score":1,"rt":5118,"stimulus":"[\"img/0899/4f7bc593-8ddd-4da3-a0b9-84da730d3370.jpg\",\"img/0868/d6d1f30d-4323-435a-b194-7892521bc57e.jpg\"]","trial_type":"similarity","trial_index":99,"time_elapsed":515354,"internal_node_id":"0.0-6.0-93.0"},{"sim_score":4,"rt":2110,"stimulus":"[\"img/0903/07b445ee-0cdb-4d2c-a23b-d727613f4059.jpg\",\"img/0862/ee3b7bff-4a70-4e84-9bea-4a565e456acb.jpg\"]","trial_type":"similarity","trial_index":100,"time_elapsed":518474,"internal_node_id":"0.0-6.0-94.0"},{"sim_score":5,"rt":2534,"stimulus":"[\"img/0899/d60714ae-98d7-4564-8c98-94dba1351135.jpg\",\"img/0766/a1ed3f0f-e338-4a26-8fe4-4370f0c9fa6e.jpg\"]","trial_type":"similarity","trial_index":101,"time_elapsed":522026,"internal_node_id":"0.0-6.0-95.0"},{"sim_score":6,"rt":2552,"stimulus":"[\"img/0867/7d1c497b-c1b3-4ed8-abb5-d7f73306015f.jpg\",\"img/0868/179a5502-ab5c-478e-8263-5a1fbcc101d2.jpg\"]","trial_type":"similarity","trial_index":102,"time_elapsed":525586,"internal_node_id":"0.0-6.0-96.0"},{"sim_score":4,"rt":3044,"stimulus":"[\"img/0862/847e5208-38ec-4f36-949c-296cdd7424ee.jpg\",\"img/0901/f1116359-1ff1-4638-b3b3-700918d36d18.jpg\"]","trial_type":"similarity","trial_index":103,"time_elapsed":529634,"internal_node_id":"0.0-6.0-97.0"},{"sim_score":2,"rt":3777,"stimulus":"[\"img/0875/90da8d75-108a-44ad-b999-e21fee3860d3.jpg\",\"img/0766/ae0fce93-fe8d-4aa1-87ca-4c3e4b889f2f.jpg\"]","trial_type":"similarity","trial_index":104,"time_elapsed":534418,"internal_node_id":"0.0-6.0-98.0"},{"sim_score":6,"rt":3645,"stimulus":"[\"img/0758/f61ecdf8-a7d4-4db0-b84d-be46f7cfaffc.jpg\",\"img/0874/85eb9b8a-c4c6-4e5a-b8e7-363a87a82054.jpg\"]","trial_type":"similarity","trial_index":105,"time_elapsed":539081,"internal_node_id":"0.0-6.0-99.0"},{"sim_score":3,"rt":3221,"stimulus":"[\"img/0904/9b3568cc-3cf7-42be-9df3-fdafde7a58b8.jpg\",\"img/0868/d98ca254-b195-477f-b57e-5760a2717db8.jpg\"]","trial_type":"similarity","trial_index":106,"time_elapsed":543306,"internal_node_id":"0.0-6.0-100.0"},{"sim_score":2,"rt":5410,"stimulus":"[\"img/0903/6378ee1e-3d2b-48d2-87be-bebda32c8268.jpg\",\"img/0866/23a224f3-2012-4fc8-8e0f-3c36f8de27fd.jpg\"]","trial_type":"similarity","trial_index":107,"time_elapsed":549730,"internal_node_id":"0.0-6.0-101.0"},{"sim_score":3,"rt":2807,"stimulus":"[\"img/0868/09a9ef4d-d000-4cfa-a6aa-ebec7c2edeb4.jpg\",\"img/0769/3c1203c5-2ce7-466e-957a-8d77b5905460.jpg\"]","trial_type":"similarity","trial_index":108,"time_elapsed":553554,"internal_node_id":"0.0-6.0-102.0"},{"sim_score":4,"rt":1961,"stimulus":"[\"img/0902/b76efc44-a50f-4dac-b997-ff0222376067.jpg\",\"img/0899/57476fed-5962-4272-8fc9-b317bb777b54.jpg\"]","trial_type":"similarity","trial_index":109,"time_elapsed":556522,"internal_node_id":"0.0-6.0-103.0"},{"sim_score":4,"rt":2826,"stimulus":"[\"img/0868/1a62b2b2-18f5-466e-b564-5176a57c565e.jpg\",\"img/0862/1c20f772-3a51-4a80-aac0-f57dc9f86c28.jpg\"]","trial_type":"similarity","trial_index":110,"time_elapsed":560354,"internal_node_id":"0.0-6.0-104.0"},{"sim_score":5,"rt":2701,"stimulus":"[\"img/0903/aa842abe-6fa3-448a-bf71-88d3ad28663b.jpg\",\"img/0894/e5edf723-72a5-4673-8441-6c1734a8929b.jpg\"]","trial_type":"similarity","trial_index":111,"time_elapsed":564058,"internal_node_id":"0.0-6.0-105.0"},{"sim_score":6,"rt":3940,"stimulus":"[\"img/0864/65210d57-1153-4657-886a-32e758f49b4a.jpg\",\"img/0874/1016b306-087c-4afc-aa08-fa527b28dc76.jpg\"]","trial_type":"similarity","trial_index":112,"time_elapsed":569002,"internal_node_id":"0.0-6.0-106.0"},{"sim_score":4,"rt":3279,"stimulus":"[\"img/0862/f43ceabf-acc1-4107-b857-5d1849808f93.jpg\",\"img/0902/0eb85fbc-27c8-41df-9d0b-a5f9efd417d1.jpg\"]","trial_type":"similarity","trial_index":113,"time_elapsed":573290,"internal_node_id":"0.0-6.0-107.0"},{"sim_score":6,"rt":2544,"stimulus":"[\"img/0904/696ebb60-8891-417a-91fd-c53218907a95.jpg\",\"img/0903/150cf64c-0bd2-4674-abbb-a1387cf1f3e9.jpg\"]","trial_type":"similarity","trial_index":114,"time_elapsed":576841,"internal_node_id":"0.0-6.0-108.0"},{"sim_score":2,"rt":5082,"stimulus":"[\"img/0764/438c0217-036f-43c9-9b87-f43144e46011.jpg\",\"img/0864/da39ad34-04e0-40d4-a724-c08d53e0ea09.jpg\"]","trial_type":"similarity","trial_index":115,"time_elapsed":582930,"internal_node_id":"0.0-6.0-109.0"},{"sim_score":3,"rt":4034,"stimulus":"[\"img/0866/07c9c966-3c8d-40e7-8128-92b2acbaed5d.jpg\",\"img/0894/1b3888e6-cf36-4c4a-a039-187aa5cb71ac.jpg\"]","trial_type":"similarity","trial_index":116,"time_elapsed":587977,"internal_node_id":"0.0-6.0-110.0"},{"sim_score":5,"rt":2526,"stimulus":"[\"img/0899/8abe6c69-822c-436c-9bf2-96c818b49ba5.jpg\",\"img/0903/6a87dbad-9b8d-4ff5-9c41-03c9aa24f0c3.jpg\"]","trial_type":"similarity","trial_index":117,"time_elapsed":591522,"internal_node_id":"0.0-6.0-111.0"},{"sim_score":5,"rt":2091,"stimulus":"[\"img/0902/8af4182a-9af9-4212-a436-9195555112d6.jpg\",\"img/0904/e9423a8c-f946-43ad-ab7b-931acef870e2.jpg\"]","trial_type":"similarity","trial_index":118,"time_elapsed":594618,"internal_node_id":"0.0-6.0-112.0"},{"sim_score":5,"rt":3291,"stimulus":"[\"img/0864/ef9cbca0-4be8-435d-ad49-977259e80409.jpg\",\"img/0860/702bd09d-df3a-40aa-a267-5f04474305b5.jpg\"]","trial_type":"similarity","trial_index":119,"time_elapsed":598915,"internal_node_id":"0.0-6.0-113.0"},{"sim_score":2,"rt":2923,"stimulus":"[\"img/0860/5bff793e-cbd5-4d7e-b628-0ac2b0e30b64.jpg\",\"img/0899/fef567a2-c121-4481-9af0-ff108d199bbf.jpg\"]","trial_type":"similarity","trial_index":120,"time_elapsed":602850,"internal_node_id":"0.0-6.0-114.0"},{"sim_score":2,"rt":3131,"stimulus":"[\"img/0881/d373cb9f-a719-4549-a2a4-82def79fb2a5.jpg\",\"img/0903/005ad0de-4f52-433c-b515-dbe8d46184a3.jpg\"]","trial_type":"similarity","trial_index":121,"time_elapsed":606994,"internal_node_id":"0.0-6.0-115.0"},{"sim_score":1,"rt":3804,"stimulus":"[\"img/0894/b2d2f66e-e480-46da-a02a-6d0c6b285d78.jpg\",\"img/0874/3ce41e7c-40c8-4d58-a546-171114521796.jpg\"]","trial_type":"similarity","trial_index":122,"time_elapsed":611802,"internal_node_id":"0.0-6.0-116.0"},{"sim_score":5,"rt":2640,"stimulus":"[\"img/0881/adc02f34-ce97-4aef-850f-00519df06fd7.jpg\",\"img/0862/e8cc3bdf-cc43-4565-bccf-492626c70953.jpg\"]","trial_type":"similarity","trial_index":123,"time_elapsed":615449,"internal_node_id":"0.0-6.0-117.0"},{"sim_score":6,"rt":2192,"stimulus":"[\"img/0868/3a62db2d-97e9-44a3-b8e3-a48c6f0e423b.jpg\",\"img/0875/42910c99-5463-450a-a0f8-d4d060a11455.jpg\"]","trial_type":"similarity","trial_index":124,"time_elapsed":618660,"internal_node_id":"0.0-6.0-118.0"},{"sim_score":5,"rt":3515,"stimulus":"[\"img/0860/524b2e98-5767-4d53-942c-ebae6925659b.jpg\",\"img/0758/d41c06bf-ebaf-454b-91c6-1a17f917b659.jpg\"]","trial_type":"similarity","trial_index":125,"time_elapsed":623186,"internal_node_id":"0.0-6.0-119.0"},{"sim_score":4,"rt":2265,"stimulus":"[\"img/0864/8ddd2e30-a1d0-479f-9cbe-591213023893.jpg\",\"img/0875/5a716432-c6ca-4b1c-955a-2b8ac25198ee.jpg\"]","trial_type":"similarity","trial_index":126,"time_elapsed":626457,"internal_node_id":"0.0-6.0-120.0"},{"sim_score":1,"rt":3400,"stimulus":"[\"img/0898/6cd3830b-d44e-4915-be2b-88d31424b91c.jpg\",\"img/0866/945c6710-d15b-4a5b-a8f6-69af0850357f.jpg\"]","trial_type":"similarity","trial_index":127,"time_elapsed":630866,"internal_node_id":"0.0-6.0-121.0"},{"sim_score":2,"rt":2568,"stimulus":"[\"img/0874/31e22c7c-99aa-40b1-bf03-dd73fa2df4d6.jpg\",\"img/0904/4b8daf2a-13a9-4ea9-9e0b-b265b6e933e7.jpg\"]","trial_type":"similarity","trial_index":128,"time_elapsed":634450,"internal_node_id":"0.0-6.0-122.0"},{"sim_score":3,"rt":3156,"stimulus":"[\"img/0904/2fd488e9-960f-41f7-8a44-33375f7d5051.jpg\",\"img/0864/a248adb3-c70b-4652-b7a3-776d2a1e904b.jpg\"]","trial_type":"similarity","trial_index":129,"time_elapsed":638610,"internal_node_id":"0.0-6.0-123.0"},{"sim_score":4,"rt":2936,"stimulus":"[\"img/0894/2217bdcd-23a7-42d3-823b-23f2488d7e87.jpg\",\"img/0902/62f11694-7ed7-4cb7-8a73-9e95c43824e7.jpg\"]","trial_type":"similarity","trial_index":130,"time_elapsed":642554,"internal_node_id":"0.0-6.0-124.0"},{"sim_score":4,"rt":1926,"stimulus":"[\"img/0868/fd307a36-9a3a-47d7-ab7c-f810d0b35040.jpg\",\"img/0864/efcfbb1b-8197-44c9-b723-40d6c608dd3c.jpg\"]","trial_type":"similarity","trial_index":131,"time_elapsed":652785,"internal_node_id":"0.0-6.0-125.0"},{"sim_score":4,"rt":3059,"stimulus":"[\"img/0899/565ccdd9-0933-4536-a625-3c0e25a713dd.jpg\",\"img/0866/d266fece-59b3-46fa-b69f-96f6efb81b59.jpg\"]","trial_type":"similarity","trial_index":132,"time_elapsed":656857,"internal_node_id":"0.0-6.0-126.0"},{"sim_score":4,"rt":4500,"stimulus":"[\"img/0875/2e13d160-eea1-416b-aff1-d37ab99ecc1d.jpg\",\"img/0904/63dd06dd-dccb-47ba-9740-eb33239e18a7.jpg\"]","trial_type":"similarity","trial_index":133,"time_elapsed":662362,"internal_node_id":"0.0-6.0-127.0"},{"sim_score":1,"rt":5091,"stimulus":"[\"img/0867/1719a35d-f085-48c0-9099-16c94fe418b4.jpg\",\"img/0899/7b7380d5-d2be-44e5-a09a-c1756f87ef71.jpg\"]","trial_type":"similarity","trial_index":134,"time_elapsed":668458,"internal_node_id":"0.0-6.0-128.0"},{"sim_score":1,"rt":2965,"stimulus":"[\"img/0901/4ca4f962-40c0-4c59-b14a-3cd7b8c9029b.jpg\",\"img/0867/26611f4e-d694-4460-b7e2-43c62753ddc3.jpg\"]","trial_type":"similarity","trial_index":135,"time_elapsed":672435,"internal_node_id":"0.0-6.0-129.0"},{"sim_score":2,"rt":2916,"stimulus":"[\"img/0864/0f537697-a314-47c3-a8cc-8df23b7e536c.jpg\",\"img/0769/458d9c77-b844-40b5-bb1b-1e3bbd4da64e.jpg\"]","trial_type":"similarity","trial_index":136,"time_elapsed":676362,"internal_node_id":"0.0-6.0-130.0"},{"sim_score":1,"rt":3187,"stimulus":"[\"img/0903/8931c67c-a43d-47d3-a4c9-42aa2f81d344.jpg\",\"img/0868/5fa7f9d0-f0e5-454c-8224-74d964818f56.jpg\"]","trial_type":"similarity","trial_index":137,"time_elapsed":680562,"internal_node_id":"0.0-6.0-131.0"},{"sim_score":5,"rt":2327,"stimulus":"[\"img/0864/1ebbc554-99fa-49f9-8799-317375a79820.jpg\",\"img/0867/85a96c62-548f-4994-9553-819e03c3135a.jpg\"]","trial_type":"similarity","trial_index":138,"time_elapsed":683897,"internal_node_id":"0.0-6.0-132.0"},{"sim_score":4,"rt":3009,"stimulus":"[\"img/0901/7c16dd9c-44ad-4d5b-990c-6a0b9b48b1b1.jpg\",\"img/0860/4c530c3c-6aab-492a-94d1-9c01797bde40.jpg\"]","trial_type":"similarity","trial_index":139,"time_elapsed":687923,"internal_node_id":"0.0-6.0-133.0"},{"sim_score":3,"rt":2937,"stimulus":"[\"img/0881/ed4c971f-0873-4fc8-b6d6-e8bbd82f0bcc.jpg\",\"img/0766/f3276cc4-65de-4c2d-88d5-6cfebce14b8f.jpg\"]","trial_type":"similarity","trial_index":140,"time_elapsed":691874,"internal_node_id":"0.0-6.0-134.0"},{"sim_score":3,"rt":3114,"stimulus":"[\"img/0903/39365c8e-a733-4801-ac7d-b87e38c3784b.jpg\",\"img/0864/c3b63e8f-ea39-4d70-a1f2-b3fe4be8eb75.jpg\"]","trial_type":"similarity","trial_index":141,"time_elapsed":695994,"internal_node_id":"0.0-6.0-135.0"},{"sim_score":2,"rt":5768,"stimulus":"[\"img/0758/821c68d3-5cb0-4eae-8659-30e6263fca39.jpg\",\"img/0894/05161000-f476-499b-a878-c13c7f347fd9.jpg\"]","trial_type":"similarity","trial_index":142,"time_elapsed":702777,"internal_node_id":"0.0-6.0-136.0"},{"sim_score":1,"rt":4766,"stimulus":"[\"img/0769/7c50e5f5-cc38-4d48-b009-fbe17bcea61c.jpg\",\"img/0860/94ef7afc-e0e6-4a15-98c6-0bfac82bc832.jpg\"]","trial_type":"similarity","trial_index":143,"time_elapsed":708554,"internal_node_id":"0.0-6.0-137.0"},{"sim_score":6,"rt":4250,"stimulus":"[\"img/0904/da170c1b-9651-4f08-b231-2bdd1d9a046f.jpg\",\"img/0766/ef3b15ce-abb7-4292-ad93-aec8e8b50520.jpg\"]","trial_type":"similarity","trial_index":144,"time_elapsed":713818,"internal_node_id":"0.0-6.0-138.0"},{"sim_score":5,"rt":2387,"stimulus":"[\"img/0868/4bd5105a-d2c3-4f82-8c80-57196106ba53.jpg\",\"img/0860/e8b8c51e-1834-4875-8b61-6c5bc9b178bd.jpg\"]","trial_type":"similarity","trial_index":145,"time_elapsed":717210,"internal_node_id":"0.0-6.0-139.0"},{"sim_score":6,"rt":2181,"stimulus":"[\"img/0758/caa93da2-9edf-49fa-96b9-32dedd8f5078.jpg\",\"img/0864/e02eddb5-f468-499c-91bf-f7be3ffe979b.jpg\"]","trial_type":"similarity","trial_index":146,"time_elapsed":720409,"internal_node_id":"0.0-6.0-140.0"},{"sim_score":7,"rt":2390,"stimulus":"[\"img/0867/a749dddb-69f0-44a6-acdc-2bf295cf6dcc.jpg\",\"img/0867/98d8cd96-1476-4fe0-a3a3-04f875500a1b.jpg\"]","trial_type":"similarity","trial_index":147,"time_elapsed":723809,"internal_node_id":"0.0-6.0-141.0"},{"sim_score":7,"rt":2762,"stimulus":"[\"img/0898/0af304a2-6a7a-4082-ab7c-4450cd08cc58.jpg\",\"img/0898/26c41340-15bd-4ead-8fe4-c0d0ddca09c2.jpg\"]","trial_type":"similarity","trial_index":148,"time_elapsed":727586,"internal_node_id":"0.0-6.0-142.0"},{"sim_score":4,"rt":2646,"stimulus":"[\"img/0866/4a87911a-d5be-4d4e-ab8e-3d1f581bf507.jpg\",\"img/0769/96556ef3-7fac-4c9d-8281-1cb0ea5081bc.jpg\"]","trial_type":"similarity","trial_index":149,"time_elapsed":731233,"internal_node_id":"0.0-6.0-143.0"},{"sim_score":4,"rt":3996,"stimulus":"[\"img/0860/71e1aad0-2cdf-43bb-94a4-a8c016997c30.jpg\",\"img/0898/4184e5a2-84ea-4f36-9b42-ae58646f6f87.jpg\"]","trial_type":"similarity","trial_index":150,"time_elapsed":736233,"internal_node_id":"0.0-6.0-144.0"},{"sim_score":3,"rt":2984,"stimulus":"[\"img/0766/0bf3793e-c353-45e5-ac6f-753f5f484e10.jpg\",\"img/0864/300bb811-8b3c-4c42-8653-6097c3725197.jpg\"]","trial_type":"similarity","trial_index":151,"time_elapsed":740233,"internal_node_id":"0.0-6.0-145.0"},{"sim_score":4,"rt":5036,"stimulus":"[\"img/0860/f44ba3fb-03a2-42f0-8509-2c1ded493086.jpg\",\"img/0903/8fcafe03-43df-4c45-9da5-0df3a1eeccc5.jpg\"]","trial_type":"similarity","trial_index":152,"time_elapsed":746281,"internal_node_id":"0.0-6.0-146.0"},{"sim_score":2,"rt":3073,"stimulus":"[\"img/0867/a498eef3-9fa4-4ab2-9778-4ae82ac40dc5.jpg\",\"img/0764/ba0c0955-acbb-457d-b1c2-f006b88121d5.jpg\"]","trial_type":"similarity","trial_index":153,"time_elapsed":750362,"internal_node_id":"0.0-6.0-147.0"},{"sim_score":6,"rt":3769,"stimulus":"[\"img/0769/db94b61b-a5a7-4861-9d32-7b02ad194fb0.jpg\",\"img/0904/d23dd7be-7fe8-4435-82f7-bd592c01e6a1.jpg\"]","trial_type":"similarity","trial_index":154,"time_elapsed":755138,"internal_node_id":"0.0-6.0-148.0"},{"sim_score":4,"rt":2743,"stimulus":"[\"img/0764/29072395-f595-4e3c-83d3-ff87010039fa.jpg\",\"img/0901/f469cb1d-6d81-4a45-bab5-cd0b650c2b4f.jpg\"]","trial_type":"similarity","trial_index":155,"time_elapsed":758898,"internal_node_id":"0.0-6.0-149.0"},{"sim_score":5,"rt":2561,"stimulus":"[\"img/0904/4d7d70a3-9477-4921-bda0-f9531d0a5c5b.jpg\",\"img/0899/a05bea16-2bb4-4cb9-b8fb-4ff975db6971.jpg\"]","trial_type":"similarity","trial_index":156,"time_elapsed":762465,"internal_node_id":"0.0-6.0-150.0"},{"sim_score":4,"rt":2109,"stimulus":"[\"img/0862/e697469a-ec19-4414-b972-7b9f3564785b.jpg\",\"img/0867/6e19c858-b606-45b2-a4c6-910a73f1d82c.jpg\"]","trial_type":"similarity","trial_index":157,"time_elapsed":765585,"internal_node_id":"0.0-6.0-151.0"},{"sim_score":7,"rt":2752,"stimulus":"[\"img/0766/db750ba0-ce04-46e1-b601-e1b80212bad2.jpg\",\"img/0766/d5d38751-8fa5-476f-93e9-86ed2d9045ef.jpg\"]","trial_type":"similarity","trial_index":158,"time_elapsed":769354,"internal_node_id":"0.0-6.0-152.0"},{"sim_score":2,"rt":2971,"stimulus":"[\"img/0862/00c06b00-3b73-44e9-bc1e-c5aafb438321.jpg\",\"img/0894/38cf335f-f76f-4349-8d65-e20cd6859565.jpg\"]","trial_type":"similarity","trial_index":159,"time_elapsed":773329,"internal_node_id":"0.0-6.0-153.0"},{"sim_score":4,"rt":3186,"stimulus":"[\"img/0899/fd9efb43-701f-4cd6-baaa-4c38315f4bdc.jpg\",\"img/0901/d4d09bf5-093e-4050-838e-7c738be8e63c.jpg\"]","trial_type":"similarity","trial_index":160,"time_elapsed":777529,"internal_node_id":"0.0-6.0-154.0"},{"sim_score":7,"rt":4664,"stimulus":"[\"img/0874/adf9a8f1-c40b-402b-b95b-1e85a54a7b62.jpg\",\"img/0874/eba003b4-cdab-4eee-8bc3-f064c7d94165.jpg\"]","trial_type":"similarity","trial_index":161,"time_elapsed":783209,"internal_node_id":"0.0-6.0-155.0"},{"sim_score":4,"rt":4780,"stimulus":"[\"img/0860/9593362c-9fe5-4d12-9735-6000a11f6aa5.jpg\",\"img/0867/075e0f95-856b-4cbb-acf5-092393aaf04e.jpg\"]","trial_type":"similarity","trial_index":162,"time_elapsed":789002,"internal_node_id":"0.0-6.0-156.0"},{"sim_score":2,"rt":4271,"stimulus":"[\"img/0901/31c032fd-3c3d-4882-a226-da9a80198937.jpg\",\"img/0881/f7a8cc63-8842-40a4-9ff8-fe530310d62c.jpg\"]","trial_type":"similarity","trial_index":163,"time_elapsed":794290,"internal_node_id":"0.0-6.0-157.0"},{"sim_score":6,"rt":3296,"stimulus":"[\"img/0903/b7e3723f-fd03-4f3d-8820-f19496463a34.jpg\",\"img/0902/eb3e7e71-8ff1-4b88-a6a7-47e2c1ce1683.jpg\"]","trial_type":"similarity","trial_index":164,"time_elapsed":798602,"internal_node_id":"0.0-6.0-158.0"},{"sim_score":2,"rt":5083,"stimulus":"[\"img/0860/e14d67c1-6d92-4f1e-9257-c8607159c19c.jpg\",\"img/0764/cbdc4f20-3a9a-4211-9b40-090699e0abcc.jpg\"]","trial_type":"similarity","trial_index":165,"time_elapsed":804697,"internal_node_id":"0.0-6.0-159.0"},{"sim_score":4,"rt":3828,"stimulus":"[\"img/0902/07437a16-3d0f-4a5c-89ec-36d0efa4b3b8.jpg\",\"img/0875/8521fd58-3b1e-4dc5-97ae-804edfa6734a.jpg\"]","trial_type":"similarity","trial_index":166,"time_elapsed":809529,"internal_node_id":"0.0-6.0-160.0"},{"sim_score":3,"rt":3804,"stimulus":"[\"img/0898/68476bbb-34a1-42d9-8bc1-deab783d4489.jpg\",\"img/0862/f188d4f0-76a4-4102-818c-a209969d73a5.jpg\"]","trial_type":"similarity","trial_index":167,"time_elapsed":814338,"internal_node_id":"0.0-6.0-161.0"},{"sim_score":1,"rt":6060,"stimulus":"[\"img/0894/38f5931f-926d-414e-b498-66b188978b7a.jpg\",\"img/0875/34132396-d896-4c2d-8087-646dd867e769.jpg\"]","trial_type":"similarity","trial_index":168,"time_elapsed":821402,"internal_node_id":"0.0-6.0-162.0"},{"sim_score":5,"rt":3771,"stimulus":"[\"img/0866/02f5e6b9-52b7-448c-9708-5b460d0c9a23.jpg\",\"img/0864/6e846d43-94a6-4b37-a268-65eda979f052.jpg\"]","trial_type":"similarity","trial_index":169,"time_elapsed":826177,"internal_node_id":"0.0-6.0-163.0"},{"sim_score":1,"rt":3787,"stimulus":"[\"img/0766/af3be95e-e52e-4fae-899b-0ff02ec340aa.jpg\",\"img/0862/e0f1a4e9-e1b6-45f7-af67-89f334e6630d.jpg\"]","trial_type":"similarity","trial_index":170,"time_elapsed":830969,"internal_node_id":"0.0-6.0-164.0"},{"sim_score":6,"rt":4003,"stimulus":"[\"img/0866/bf14b5bd-fb55-47db-86b9-4f8aeb9a6dad.jpg\",\"img/0874/3f471690-9788-4d03-90c7-f615aecef149.jpg\"]","trial_type":"similarity","trial_index":171,"time_elapsed":835988,"internal_node_id":"0.0-6.0-165.0"},{"sim_score":6,"rt":3483,"stimulus":"[\"img/0862/de9ad88c-b522-430a-8ee9-eb06a9f85df5.jpg\",\"img/0860/b03b963d-949b-4d8d-b19c-4950c89eeca2.jpg\"]","trial_type":"similarity","trial_index":172,"time_elapsed":840490,"internal_node_id":"0.0-6.0-166.0"},{"sim_score":3,"rt":2625,"stimulus":"[\"img/0766/d8221e53-2300-4d99-ae1b-0bfb0eabe579.jpg\",\"img/0901/77087ed2-6e12-4329-b2a5-605bca6d972d.jpg\"]","trial_type":"similarity","trial_index":173,"time_elapsed":853633,"internal_node_id":"0.0-6.0-167.0"},{"sim_score":7,"rt":5306,"stimulus":"[\"img/0862/53a9cf7c-93c4-41b9-952f-07d17f7a17b2.jpg\",\"img/0862/ad593cc7-cabe-4bb7-8e14-8a447a0717b4.jpg\"]","trial_type":"similarity","trial_index":174,"time_elapsed":859954,"internal_node_id":"0.0-6.0-168.0"},{"sim_score":6,"rt":3361,"stimulus":"[\"img/0894/792c83e9-a747-4000-bc72-5663d2439edb.jpg\",\"img/0764/3297a811-ea8b-4d74-9547-59cecab7293a.jpg\"]","trial_type":"similarity","trial_index":175,"time_elapsed":864329,"internal_node_id":"0.0-6.0-169.0"},{"sim_score":2,"rt":3380,"stimulus":"[\"img/0874/8cdb1c07-1c32-46d2-981c-3636560fa6e5.jpg\",\"img/0898/e167334e-cc1d-4986-b3b1-c7bc7da64baa.jpg\"]","trial_type":"similarity","trial_index":176,"time_elapsed":868714,"internal_node_id":"0.0-6.0-170.0"},{"sim_score":1,"rt":3849,"stimulus":"[\"img/0860/31ff6436-98bf-4652-bed2-40f627229568.jpg\",\"img/0766/d14acac4-7db1-4b07-8f8f-302437326fc0.jpg\"]","trial_type":"similarity","trial_index":177,"time_elapsed":873578,"internal_node_id":"0.0-6.0-171.0"},{"sim_score":2,"rt":2448,"stimulus":"[\"img/0898/01bfe666-3510-4fc7-964f-d00d28732dc8.jpg\",\"img/0864/0116ca98-293d-4fa6-a93b-5a6144ef64cc.jpg\"]","trial_type":"similarity","trial_index":178,"time_elapsed":877036,"internal_node_id":"0.0-6.0-172.0"},{"sim_score":1,"rt":2992,"stimulus":"[\"img/0881/c843e210-bdfe-4a7c-8bbe-fcea1f90fe1c.jpg\",\"img/0764/17b088f8-3053-4140-b544-d15654cc79ef.jpg\"]","trial_type":"similarity","trial_index":179,"time_elapsed":881042,"internal_node_id":"0.0-6.0-173.0"},{"sim_score":2,"rt":3780,"stimulus":"[\"img/0898/881e2a85-d5c2-49be-a0c6-8a6ce2c4af08.jpg\",\"img/0868/e0aff734-077f-40dd-9781-74821abd3621.jpg\"]","trial_type":"similarity","trial_index":180,"time_elapsed":885841,"internal_node_id":"0.0-6.0-174.0"},{"sim_score":7,"rt":4202,"stimulus":"[\"img/0864/ea327690-500b-4137-bf91-451b309fe6a5.jpg\",\"img/0864/5f74a653-3bdc-4308-8cca-ac667dc22e1f.jpg\"]","trial_type":"similarity","trial_index":181,"time_elapsed":891050,"internal_node_id":"0.0-6.0-175.0"},{"sim_score":4,"rt":2047,"stimulus":"[\"img/0899/a048912c-b12c-40e3-90af-46b69b0cc4fe.jpg\",\"img/0862/eefa5588-9efd-4591-aa5f-a2e17c7d7bcc.jpg\"]","trial_type":"similarity","trial_index":182,"time_elapsed":894106,"internal_node_id":"0.0-6.0-176.0"},{"sim_score":5,"rt":1998,"stimulus":"[\"img/0875/2c361b79-c3d1-4eda-812e-bf03192407bf.jpg\",\"img/0758/2fa3e613-e676-4e6e-bd12-705327eeb3e1.jpg\"]","trial_type":"similarity","trial_index":183,"time_elapsed":897121,"internal_node_id":"0.0-6.0-177.0"},{"sim_score":2,"rt":2767,"stimulus":"[\"img/0866/f756f7d1-9ad8-4a34-9ef6-7a443d705bfe.jpg\",\"img/0901/b9141736-3041-4385-a586-b1fe911c76a5.jpg\"]","trial_type":"similarity","trial_index":184,"time_elapsed":900898,"internal_node_id":"0.0-6.0-178.0"},{"sim_score":4,"rt":2752,"stimulus":"[\"img/0769/688d0c52-ad73-4065-a5eb-f8c10d076bff.jpg\",\"img/0874/bf14b896-e930-4fd9-9c05-2e83317a2773.jpg\"]","trial_type":"similarity","trial_index":185,"time_elapsed":904657,"internal_node_id":"0.0-6.0-179.0"},{"sim_score":5,"rt":2450,"stimulus":"[\"img/0875/dbdd643e-6d0e-4a5c-ab57-b9c29b9c981a.jpg\",\"img/0881/6b1189e6-232d-4042-8885-16dc7b10e0d4.jpg\"]","trial_type":"similarity","trial_index":186,"time_elapsed":908121,"internal_node_id":"0.0-6.0-180.0"},{"sim_score":6,"rt":2355,"stimulus":"[\"img/0866/c446214b-a368-4c65-ae39-ea46894256ab.jpg\",\"img/0868/83b4350a-3b70-4cea-b7f5-b5b56f3050a8.jpg\"]","trial_type":"similarity","trial_index":187,"time_elapsed":911481,"internal_node_id":"0.0-6.0-181.0"},{"sim_score":5,"rt":2281,"stimulus":"[\"img/0899/06b0fc99-0581-461a-9913-d1a5a941ac61.jpg\",\"img/0758/6cd8c362-ae2a-41eb-80a3-3a4f7ace1530.jpg\"]","trial_type":"similarity","trial_index":188,"time_elapsed":914769,"internal_node_id":"0.0-6.0-182.0"},{"sim_score":4,"rt":2662,"stimulus":"[\"img/0874/ca76a855-4e77-4f2f-872a-0a718153e7ed.jpg\",\"img/0875/e7e66b13-b573-431e-b85e-288ce04a35a3.jpg\"]","trial_type":"similarity","trial_index":189,"time_elapsed":918442,"internal_node_id":"0.0-6.0-183.0"},{"sim_score":2,"rt":3903,"stimulus":"[\"img/0904/65e2b70a-b184-4da3-b5c0-5038bdf9469a.jpg\",\"img/0862/a0a3a7ba-7798-46a3-b4ca-05e1f6e581d0.jpg\"]","trial_type":"similarity","trial_index":190,"time_elapsed":923353,"internal_node_id":"0.0-6.0-184.0"},{"sim_score":4,"rt":2249,"stimulus":"[\"img/0902/8065aa6b-4aef-4368-afa2-02c6465ca582.jpg\",\"img/0766/f011ef45-fb48-44b8-8224-867ed2ccf786.jpg\"]","trial_type":"similarity","trial_index":191,"time_elapsed":926618,"internal_node_id":"0.0-6.0-185.0"},{"sim_score":1,"rt":4398,"stimulus":"[\"img/0758/20497cbe-ddae-489e-86e2-ab06985ed07c.jpg\",\"img/0769/b664b502-a86c-46c1-ad6f-5ebffc2e1bd3.jpg\"]","trial_type":"similarity","trial_index":192,"time_elapsed":932025,"internal_node_id":"0.0-6.0-186.0"},{"sim_score":7,"rt":3242,"stimulus":"[\"img/0881/566f45f8-5fed-4479-a60f-26377e60a62d.jpg\",\"img/0881/e046471a-35b4-4159-bbf7-3cfd201bef66.jpg\"]","trial_type":"similarity","trial_index":193,"time_elapsed":936274,"internal_node_id":"0.0-6.0-187.0"},{"sim_score":5,"rt":2239,"stimulus":"[\"img/0758/61d64021-9214-4951-bdf8-f871f9827cf9.jpg\",\"img/0866/0207e9a2-7dbb-40b5-9459-b472aaeceb2a.jpg\"]","trial_type":"similarity","trial_index":194,"time_elapsed":939530,"internal_node_id":"0.0-6.0-188.0"},{"sim_score":3,"rt":3052,"stimulus":"[\"img/0764/1f95ab5f-fb65-4d70-b5db-d6bd6351a8aa.jpg\",\"img/0898/79233891-305a-4a6a-8ddf-5c8604858203.jpg\"]","trial_type":"similarity","trial_index":195,"time_elapsed":943594,"internal_node_id":"0.0-6.0-189.0"},{"sim_score":4,"rt":2934,"stimulus":"[\"img/0903/59defeb8-98bd-4570-a2f8-9bd189e68ef4.jpg\",\"img/0901/148b747a-7392-437e-8823-33053c5dff3f.jpg\"]","trial_type":"similarity","trial_index":196,"time_elapsed":947545,"internal_node_id":"0.0-6.0-190.0"},{"sim_score":5,"rt":3027,"stimulus":"[\"img/0902/44cd9b7e-fdfb-4f78-90de-8d4c9d279365.jpg\",\"img/0898/0c7dde4f-efce-4b7a-9387-6921635b7890.jpg\"]","trial_type":"similarity","trial_index":197,"time_elapsed":951585,"internal_node_id":"0.0-6.0-191.0"},{"sim_score":4,"rt":2931,"stimulus":"[\"img/0864/1d15626a-2f7c-410f-819c-0fa2c967e95e.jpg\",\"img/0901/233a6948-48eb-4b67-8259-222b916b2322.jpg\"]","trial_type":"similarity","trial_index":198,"time_elapsed":955528,"internal_node_id":"0.0-6.0-192.0"},{"sim_score":3,"rt":3003,"stimulus":"[\"img/0894/767a0eec-1064-46b1-b1aa-dfa02b0cd74e.jpg\",\"img/0881/62a64f90-7a72-4aee-a1a1-0c548ac9bdda.jpg\"]","trial_type":"similarity","trial_index":199,"time_elapsed":959536,"internal_node_id":"0.0-6.0-193.0"},{"sim_score":7,"rt":3094,"stimulus":"[\"img/0868/4a8a45ed-2c4f-421b-9564-409a33ecd26c.jpg\",\"img/0868/4e626425-63c8-484a-8a1d-e66ee4e0bef8.jpg\"]","trial_type":"similarity","trial_index":200,"time_elapsed":963640,"internal_node_id":"0.0-6.0-194.0"},{"sim_score":6,"rt":2695,"stimulus":"[\"img/0899/0e1d936a-dbe2-4afc-9f19-7b7a1ae6c9ed.jpg\",\"img/0764/c643e165-df19-459f-8c2b-8357bf432a17.jpg\"]","trial_type":"similarity","trial_index":201,"time_elapsed":967352,"internal_node_id":"0.0-6.0-195.0"},{"sim_score":3,"rt":2303,"stimulus":"[\"img/0881/609a5e93-38b5-4940-8627-2bf8fad7f802.jpg\",\"img/0904/fe746a3f-8458-48d0-8a13-8cba2a9df9f8.jpg\"]","trial_type":"similarity","trial_index":202,"time_elapsed":970658,"internal_node_id":"0.0-6.0-196.0"},{"sim_score":2,"rt":2565,"stimulus":"[\"img/0864/f92649a2-0590-4d31-9a7a-1bfb81666a2d.jpg\",\"img/0902/b56db912-c3c0-4fc2-b325-d640acd7cb58.jpg\"]","trial_type":"similarity","trial_index":203,"time_elapsed":974232,"internal_node_id":"0.0-6.0-197.0"},{"sim_score":6,"rt":2886,"stimulus":"[\"img/0894/0130a973-d993-41f8-874a-fee23d9ac11f.jpg\",\"img/0904/ba8e689e-9ca6-4608-a2a1-3b0940666ae6.jpg\"]","trial_type":"similarity","trial_index":204,"time_elapsed":978128,"internal_node_id":"0.0-6.0-198.0"},{"sim_score":7,"rt":2337,"stimulus":"[\"img/0901/a9b9c0a0-8aed-4888-a78a-65fb7e764d13.jpg\",\"img/0901/5b97abf9-f0c8-4fd1-b921-36d574779078.jpg\"]","trial_type":"similarity","trial_index":205,"time_elapsed":981472,"internal_node_id":"0.0-6.0-199.0"},{"sim_score":1,"rt":4207,"stimulus":"[\"img/0894/11674fa4-285d-44e2-939f-2228c6a64080.jpg\",\"img/0860/4f695df5-afac-4da7-9875-fee39b0b24ad.jpg\"]","trial_type":"similarity","trial_index":206,"time_elapsed":986688,"internal_node_id":"0.0-6.0-200.0"},{"sim_score":6,"rt":4018,"stimulus":"[\"img/0898/661621d4-a14e-487c-8c74-354134a29710.jpg\",\"img/0903/f45a103c-9bfe-49fd-ad96-bdd8d2589195.jpg\"]","trial_type":"similarity","trial_index":207,"time_elapsed":991712,"internal_node_id":"0.0-6.0-201.0"},{"sim_score":4,"rt":3005,"stimulus":"[\"img/0864/49150900-7f25-4ce8-8d10-9b47a71d1997.jpg\",\"img/0894/8cadb87a-7001-4e47-99fb-1867bebf1668.jpg\"]","trial_type":"similarity","trial_index":208,"time_elapsed":995721,"internal_node_id":"0.0-6.0-202.0"},{"sim_score":4,"rt":2554,"stimulus":"[\"img/0874/7e4f2150-3b59-4a36-b5da-a4e0ba410531.jpg\",\"img/0860/4a022222-056d-461c-ab02-39fac9647552.jpg\"]","trial_type":"similarity","trial_index":209,"time_elapsed":999280,"internal_node_id":"0.0-6.0-203.0"},{"sim_score":5,"rt":3981,"stimulus":"[\"img/0862/5d887e9f-89e2-4ebc-80a0-6d46fe6480db.jpg\",\"img/0875/03c3c331-738b-4446-af92-3d7386b08c2e.jpg\"]","trial_type":"similarity","trial_index":210,"time_elapsed":1004272,"internal_node_id":"0.0-6.0-204.0"},{"sim_score":4,"rt":2545,"stimulus":"[\"img/0867/8ba0c5a7-c7e4-42cf-a80a-543763b90779.jpg\",\"img/0881/f6bd3b96-dc40-4e99-8681-bc3a35cf896d.jpg\"]","trial_type":"similarity","trial_index":211,"time_elapsed":1007833,"internal_node_id":"0.0-6.0-205.0"},{"sim_score":5,"rt":2149,"stimulus":"[\"img/0901/4d1bed7e-3c4e-4f6c-ada9-4beb66ba9e39.jpg\",\"img/0902/a6fb6dd5-696c-47ec-be7d-d7b88f1544f1.jpg\"]","trial_type":"similarity","trial_index":212,"time_elapsed":1010986,"internal_node_id":"0.0-6.0-206.0"},{"sim_score":2,"rt":3280,"stimulus":"[\"img/0899/8de08897-b430-42fe-9d42-840670b80f94.jpg\",\"img/0864/87c467d3-abca-482f-ad80-3766c21b1bb3.jpg\"]","trial_type":"similarity","trial_index":213,"time_elapsed":1015274,"internal_node_id":"0.0-6.0-207.0"},{"sim_score":3,"rt":2911,"stimulus":"[\"img/0901/d61f267a-c492-4db6-9bfb-61efd49cf072.jpg\",\"img/0769/c7cfacc3-7f07-46ff-9f5d-8073f4c4679b.jpg\"]","trial_type":"similarity","trial_index":214,"time_elapsed":1019193,"internal_node_id":"0.0-6.0-208.0"},{"sim_score":6,"rt":3946,"stimulus":"[\"img/0902/794606a0-d8a8-4e58-8bf8-9d114ed5a548.jpg\",\"img/0902/a323b62d-2fd5-4ac8-acc6-35b768f3c3f2.jpg\"]","trial_type":"similarity","trial_index":215,"time_elapsed":1026513,"internal_node_id":"0.0-6.0-209.0"},{"view_history":"[{\"page_index\":0,\"viewing_time\":4397}]","rt":4397,"trial_type":"instructions","trial_index":216,"time_elapsed":1031913,"internal_node_id":"0.0-7.0"},{"rt":7950,"responses":"{\"Q0\":\"Nashville Warbler\"}","answer":["Nashville Warbler"],"trial_type":"image-multi-choice","trial_index":217,"time_elapsed":1040899,"internal_node_id":"0.0-8.0-0.0"},{"rt":3478,"responses":"{\"Q0\":\"Black-and-white Warbler\"}","answer":["Black-and-white Warbler"],"trial_type":"image-multi-choice","trial_index":218,"time_elapsed":1045402,"internal_node_id":"0.0-8.0-1.0"},{"rt":4906,"responses":"{\"Q0\":\"Townsend's Warbler\"}","answer":["Townsend's Warbler"],"trial_type":"image-multi-choice","trial_index":219,"time_elapsed":1051330,"internal_node_id":"0.0-8.0-2.0"},{"rt":3451,"responses":"{\"Q0\":\"Lark Sparrow\"}","answer":["Lark Sparrow"],"trial_type":"image-multi-choice","trial_index":220,"time_elapsed":1055810,"internal_node_id":"0.0-8.0-3.0"},{"rt":3614,"responses":"{\"Q0\":\"Yellow Warbler\"}","answer":["Yellow Warbler"],"trial_type":"image-multi-choice","trial_index":221,"time_elapsed":1060450,"internal_node_id":"0.0-8.0-4.0"},{"rt":8840,"responses":"{\"Q0\":\"Orange-crowned Warbler\"}","answer":["Orange-crowned Warbler"],"trial_type":"image-multi-choice","trial_index":222,"time_elapsed":1070306,"internal_node_id":"0.0-8.0-5.0"},{"rt":2790,"responses":"{\"Q0\":\"White-throated Sparrow\"}","answer":["White-throated Sparrow"],"trial_type":"image-multi-choice","trial_index":223,"time_elapsed":1074114,"internal_node_id":"0.0-8.0-6.0"},{"rt":3424,"responses":"{\"Q0\":\"Fox Sparrow\"}","answer":["Fox Sparrow"],"trial_type":"image-multi-choice","trial_index":224,"time_elapsed":1078562,"internal_node_id":"0.0-8.0-7.0"},{"rt":3265,"responses":"{\"Q0\":\"Song Sparrow\"}","answer":["Song Sparrow"],"trial_type":"image-multi-choice","trial_index":225,"time_elapsed":1082850,"internal_node_id":"0.0-8.0-8.0"},{"rt":3768,"responses":"{\"Q0\":\"Blackburnian Warbler\"}","answer":["Blackburnian Warbler"],"trial_type":"image-multi-choice","trial_index":226,"time_elapsed":1087633,"internal_node_id":"0.0-8.0-9.0"},{"rt":4362,"responses":"{\"Q0\":\"Vesper Sparrow\"}","answer":["Vesper Sparrow"],"trial_type":"image-multi-choice","trial_index":227,"time_elapsed":1093001,"internal_node_id":"0.0-8.0-10.0"},{"rt":2882,"responses":"{\"Q0\":\"White-crowned Sparrow\"}","answer":["White-crowned Sparrow"],"trial_type":"image-multi-choice","trial_index":228,"time_elapsed":1096906,"internal_node_id":"0.0-8.0-11.0"},{"rt":3501,"responses":"{\"Q0\":\"American Tree Sparrow\"}","answer":["American Tree Sparrow"],"trial_type":"image-multi-choice","trial_index":229,"time_elapsed":1101426,"internal_node_id":"0.0-8.0-12.0"},{"rt":5507,"responses":"{\"Q0\":\"Tennessee Warbler\"}","answer":["Tennessee Warbler"],"trial_type":"image-multi-choice","trial_index":230,"time_elapsed":1107953,"internal_node_id":"0.0-8.0-13.0"},{"rt":3692,"responses":"{\"Q0\":\"Magnolia Warbler\"}","answer":["Magnolia Warbler"],"trial_type":"image-multi-choice","trial_index":231,"time_elapsed":1112674,"internal_node_id":"0.0-8.0-14.0"},{"rt":4677,"responses":"{\"Q0\":\"Northern Waterthrush\"}","answer":["Northern Waterthrush"],"trial_type":"image-multi-choice","trial_index":232,"time_elapsed":1118377,"internal_node_id":"0.0-8.0-15.0"},{"rt":4122,"responses":"{\"Q0\":\"Chipping Sparrow\"}","answer":["Chipping Sparrow"],"trial_type":"image-multi-choice","trial_index":233,"time_elapsed":1123513,"internal_node_id":"0.0-8.0-16.0"},{"rt":4089,"responses":"{\"Q0\":\"Swamp Sparrow\"}","answer":["Swamp Sparrow"],"trial_type":"image-multi-choice","trial_index":234,"time_elapsed":1128626,"internal_node_id":"0.0-8.0-17.0"},{"rt":2744,"responses":"{\"Q0\":\"Lincoln's Sparrow\"}","answer":["Lincoln's Sparrow"],"trial_type":"image-multi-choice","trial_index":235,"time_elapsed":1132386,"internal_node_id":"0.0-8.0-18.0"},{"rt":2754,"responses":"{\"Q0\":\"Ovenbird\"}","answer":["Ovenbird"],"trial_type":"image-multi-choice","trial_index":236,"time_elapsed":1136162,"internal_node_id":"0.0-8.0-19.0"}]