"view_history","rt","trial_type","trial_index","time_elapsed","internal_node_id","sim_score","stimulus","responses","answer"
"[{""page_index"":0,""viewing_time"":22649}]","22650","instructions","0","22652","0.0-0.0","","","",""
"","10276","similarity_demo","1","33941","0.0-1.0","3","[""img/866.jpg"",""img/868.jpg""]","",""
"[{""page_index"":0,""viewing_time"":8695}]","8695","instructions","2","43638","0.0-2.0","","","",""
"","3606","similarity_demo","3","48253","0.0-3.0","1","[""img/766.jpg"",""img/867.jpg""]","",""
"[{""page_index"":0,""viewing_time"":4571}]","4571","instructions","4","53825","0.0-4.0","","","",""
"[{""page_index"":0,""viewing_time"":8448}]","8448","instructions","5","63274","0.0-5.0","","","",""
"","4953","similarity","6","69236","0.0-6.0-0.0","2","[""img/0868/c8ac40c7-6904-4e13-8d61-c75d3052dc4e.jpg"",""img/0901/b9141736-3041-4385-a586-b1fe911c76a5.jpg""]","",""
"","3877","similarity","7","74121","0.0-6.0-1.0","1","[""img/0769/47700831-0ca2-4fdd-a498-a3bc5a528f43.jpg"",""img/0867/2e1a0b58-cdb1-4107-a14e-452530d7b9b0.jpg""]","",""
"","3659","similarity","8","78786","0.0-6.0-2.0","4","[""img/0766/ef3b15ce-abb7-4292-ad93-aec8e8b50520.jpg"",""img/0898/0c7dde4f-efce-4b7a-9387-6921635b7890.jpg""]","",""
"","3552","similarity","9","83342","0.0-6.0-3.0","4","[""img/0902/a323b62d-2fd5-4ac8-acc6-35b768f3c3f2.jpg"",""img/0881/ee44e27f-d662-4608-b265-e7ffa19b216f.jpg""]","",""
"","4101","similarity","10","88452","0.0-6.0-4.0","7","[""img/0894/5f15154e-e72e-4ce5-aafb-bce6f0564006.jpg"",""img/0894/9b1333fd-3561-43bf-aee5-99b7b7ca3dc3.jpg""]","",""
"","3834","similarity","11","93291","0.0-6.0-5.0","3","[""img/0874/767f289c-9814-4496-803f-745cc8913d1f.jpg"",""img/0899/f95cbdb4-f804-4f5d-ad76-373ad343e658.jpg""]","",""
"","3718","similarity","12","98016","0.0-6.0-6.0","4","[""img/0904/5aec2708-cf14-4a58-aa30-9a8a61c1be0e.jpg"",""img/0764/39a9fc7e-b863-432c-9374-de43983f31a5.jpg""]","",""
"","4109","similarity","13","103132","0.0-6.0-7.0","3","[""img/0899/fef567a2-c121-4481-9af0-ff108d199bbf.jpg"",""img/0898/a8f16b02-e19f-423b-86c3-a36562ae1f9b.jpg""]","",""
"","4292","similarity","14","108430","0.0-6.0-8.0","1","[""img/0874/a82926a3-0b43-4add-803c-d5f9ea7798ee.jpg"",""img/0903/6f343da5-00d9-4d50-89d1-2ed24cdb8319.jpg""]","",""
"","6188","similarity","15","115628","0.0-6.0-9.0","6","[""img/0881/54ea8e77-c7e5-4197-b7fa-00b7020849a7.jpg"",""img/0758/eabcd7a8-56ad-4fd2-bc24-90f6b7b33265.jpg""]","",""
"","5313","similarity","16","121948","0.0-6.0-10.0","3","[""img/0898/e167334e-cc1d-4986-b3b1-c7bc7da64baa.jpg"",""img/0901/875dedb9-24c9-4443-9f8c-85e97d70ee5a.jpg""]","",""
"","5030","similarity","17","127984","0.0-6.0-11.0","3","[""img/0903/f67c4ab9-f8c2-4fcd-848a-a54a7b031002.jpg"",""img/0769/91acb237-65a3-4d0b-9748-af5c7b83d3c7.jpg""]","",""
"","3090","similarity","18","132081","0.0-6.0-12.0","1","[""img/0764/b8e23f4f-ff19-4472-ad9b-2f85548ebca0.jpg"",""img/0868/7b212364-ff5f-4e28-9241-7eb6ea00161b.jpg""]","",""
"","3328","similarity","19","136415","0.0-6.0-13.0","1","[""img/0867/50a1b60e-3a29-44bf-b606-d4bd3746fea9.jpg"",""img/0903/b4a0f61e-a964-4b79-a9a7-f767a8f92f34.jpg""]","",""
"","4394","similarity","20","141816","0.0-6.0-14.0","2","[""img/0766/dd3e18d0-0c98-4d05-b850-69976ee8cd75.jpg"",""img/0758/6cd8c362-ae2a-41eb-80a3-3a4f7ace1530.jpg""]","",""
"","5814","similarity","21","148635","0.0-6.0-15.0","3","[""img/0902/af45fe42-178c-4c1a-99ef-256e87e3b092.jpg"",""img/0860/9593362c-9fe5-4d12-9735-6000a11f6aa5.jpg""]","",""
"","6233","similarity","22","155873","0.0-6.0-16.0","3","[""img/0769/3c1203c5-2ce7-466e-957a-8d77b5905460.jpg"",""img/0875/90da8d75-108a-44ad-b999-e21fee3860d3.jpg""]","",""
"","3411","similarity","23","160292","0.0-6.0-17.0","1","[""img/0904/b5855d6a-7ef9-46ca-9215-6e9fa046e543.jpg"",""img/0866/c446214b-a368-4c65-ae39-ea46894256ab.jpg""]","",""
"","4093","similarity","24","165392","0.0-6.0-18.0","7","[""img/0875/dbdd643e-6d0e-4a5c-ab57-b9c29b9c981a.jpg"",""img/0875/5a716432-c6ca-4b1c-955a-2b8ac25198ee.jpg""]","",""
"","4341","similarity","25","170741","0.0-6.0-19.0","7","[""img/0758/7fba58df-2a7a-4b76-8a8f-62739f97f271.jpg"",""img/0758/a709631e-3705-4725-ac40-f0d916924f08.jpg""]","",""
"","4853","similarity","26","176599","0.0-6.0-20.0","2","[""img/0902/94ee9c53-a9a2-4f95-b9b7-794a5fc62bb6.jpg"",""img/0874/2c9464dd-8a23-4baa-ac94-1ba3af5c15cc.jpg""]","",""
"","5821","similarity","27","183429","0.0-6.0-21.0","5","[""img/0764/ca957454-126a-4bd3-b29c-7174a24c25dc.jpg"",""img/0769/5bd04f55-d091-4f57-85db-38426f26bd1a.jpg""]","",""
"","2911","similarity","28","187347","0.0-6.0-22.0","1","[""img/0901/8bb79e82-9c43-4b6f-a655-40655519598b.jpg"",""img/0874/eba003b4-cdab-4eee-8bc3-f064c7d94165.jpg""]","",""
"","3465","similarity","29","191819","0.0-6.0-23.0","2","[""img/0875/5a7c4e35-6514-4e12-8879-d16071da4cd6.jpg"",""img/0903/647ce311-8c71-479a-8361-961db1457139.jpg""]","",""
"","5379","similarity","30","198205","0.0-6.0-24.0","2","[""img/0769/a1ce8d07-ba37-40de-bade-2778805521e0.jpg"",""img/0881/f6bd3b96-dc40-4e99-8681-bc3a35cf896d.jpg""]","",""
"","3267","similarity","31","202479","0.0-6.0-25.0","2","[""img/0867/f26f6b60-f772-4f4c-95a4-addc62cfd692.jpg"",""img/0904/60d1a521-edf7-4696-9263-f21ac0e62a01.jpg""]","",""
"","4370","similarity","32","207854","0.0-6.0-26.0","3","[""img/0860/29a21a9f-54bb-4093-ad3f-04823ceaa89f.jpg"",""img/0881/d1982897-8d8d-4704-a940-1ee5d07a1f15.jpg""]","",""
"","3684","similarity","33","212544","0.0-6.0-27.0","7","[""img/0866/11a1d141-be5e-443c-98c1-a9d4d9e3dec0.jpg"",""img/0866/4a87911a-d5be-4d4e-ab8e-3d1f581bf507.jpg""]","",""
"","4856","similarity","34","218406","0.0-6.0-28.0","4","[""img/0764/1def7b22-b054-4ec2-860b-73d25691823b.jpg"",""img/0862/ad593cc7-cabe-4bb7-8e14-8a447a0717b4.jpg""]","",""
"","3182","similarity","35","222595","0.0-6.0-29.0","3","[""img/0904/9d30eff1-46ef-4453-b11e-124ef8145c00.jpg"",""img/0758/67c0be2f-9e91-48b3-8219-70ac0a1802fa.jpg""]","",""
"","4033","similarity","36","227634","0.0-6.0-30.0","5","[""img/0894/3adef67d-7676-4995-80b2-bb31b8aca3ef.jpg"",""img/0899/25ae6ec8-9565-49fe-a8bb-8d0666f52716.jpg""]","",""
"","2538","similarity","37","231179","0.0-6.0-31.0","4","[""img/0860/c5ccd1a4-4bb7-48e1-9b25-72cfaf06909b.jpg"",""img/0904/2c98dc56-88d1-4fb5-a999-b6a7861f65f0.jpg""]","",""
"","3603","similarity","38","235788","0.0-6.0-32.0","5","[""img/0874/7e4f2150-3b59-4a36-b5da-a4e0ba410531.jpg"",""img/0881/7e31e5dc-2240-4b1b-b5a0-3acd980099ef.jpg""]","",""
"","5452","similarity","39","242246","0.0-6.0-33.0","4","[""img/0881/ed4c971f-0873-4fc8-b6d6-e8bbd82f0bcc.jpg"",""img/0899/f58b8d2f-b19d-4b59-8b94-8834be92e4ba.jpg""]","",""
"","3335","similarity","40","246588","0.0-6.0-34.0","5","[""img/0866/93a27239-8317-4e08-98ca-d8b1ff298e07.jpg"",""img/0862/de9ad88c-b522-430a-8ee9-eb06a9f85df5.jpg""]","",""
"","3893","similarity","41","251486","0.0-6.0-35.0","2","[""img/0868/4a8a45ed-2c4f-421b-9564-409a33ecd26c.jpg"",""img/0894/7f2f31fd-6618-41c6-b65a-0fd8b2851bc9.jpg""]","",""
"","3541","similarity","42","256035","0.0-6.0-36.0","7","[""img/0860/99c589b9-9140-4d17-90c0-b344323edcda.jpg"",""img/0860/4c530c3c-6aab-492a-94d1-9c01797bde40.jpg""]","",""
"","3048","similarity","43","260088","0.0-6.0-37.0","5","[""img/0862/f23038d4-c366-4f70-979f-66b62362efa4.jpg"",""img/0864/afcba0a3-7e27-4757-b254-e9f05fad27e2.jpg""]","",""
"","3934","similarity","44","265028","0.0-6.0-38.0","2","[""img/0766/fd064894-7147-4af5-97e9-2089d5472656.jpg"",""img/0866/d266fece-59b3-46fa-b69f-96f6efb81b59.jpg""]","",""
"","4778","similarity","45","270814","0.0-6.0-39.0","2","[""img/0875/99698b4d-b4a1-44bc-8c83-8ea755bbbf61.jpg"",""img/0898/79233891-305a-4a6a-8ddf-5c8604858203.jpg""]","",""
"","3363","similarity","46","275181","0.0-6.0-40.0","4","[""img/0766/f3276cc4-65de-4c2d-88d5-6cfebce14b8f.jpg"",""img/0769/b664b502-a86c-46c1-ad6f-5ebffc2e1bd3.jpg""]","",""
"","3597","similarity","47","297105","0.0-6.0-41.0","3","[""img/0874/3ce41e7c-40c8-4d58-a546-171114521796.jpg"",""img/0764/d0bef2e0-e16b-4c82-9451-c1d16265eb67.jpg""]","",""
"","4778","similarity","48","302890","0.0-6.0-42.0","3","[""img/0868/1a62b2b2-18f5-466e-b564-5176a57c565e.jpg"",""img/0902/b56db912-c3c0-4fc2-b325-d640acd7cb58.jpg""]","",""
"","3246","similarity","49","307143","0.0-6.0-43.0","1","[""img/0875/cff79b3a-a797-4393-9757-6275f999ec04.jpg"",""img/0899/00715b3f-851b-420b-a26b-d7f79f7759a9.jpg""]","",""
"","4747","similarity","50","312897","0.0-6.0-44.0","3","[""img/0866/02f5e6b9-52b7-448c-9708-5b460d0c9a23.jpg"",""img/0860/94ef7afc-e0e6-4a15-98c6-0bfac82bc832.jpg""]","",""
"","6651","similarity","51","320554","0.0-6.0-45.0","3","[""img/0766/33aa9ebb-c9f5-418f-8c8b-c77861889568.jpg"",""img/0903/470acfd5-5571-4a7b-b3a4-28d87e098138.jpg""]","",""
"","5328","similarity","52","326889","0.0-6.0-46.0","3","[""img/0901/62315ff5-ed95-46b4-b099-92552079659b.jpg"",""img/0904/56e73f28-7e64-489b-a161-e6b1a063878d.jpg""]","",""
"","4101","similarity","53","331998","0.0-6.0-47.0","2","[""img/0758/3ddd05d3-557e-4ee7-8b78-9d2d681d8ae2.jpg"",""img/0902/2db723b6-130f-454c-8c8d-88829edbcd65.jpg""]","",""
"","3733","similarity","54","336737","0.0-6.0-48.0","7","[""img/0764/a86eed5b-d0af-4c3f-8c7a-26e98e98cf1a.jpg"",""img/0764/ca9829fe-aaf8-45b8-b98a-6bae751c63dd.jpg""]","",""
"","3002","similarity","55","340745","0.0-6.0-49.0","1","[""img/0866/be24ab58-230e-4db8-9f45-ff04c9aec6bb.jpg"",""img/0902/07437a16-3d0f-4a5c-89ec-36d0efa4b3b8.jpg""]","",""
"","5749","similarity","56","347502","0.0-6.0-50.0","2","[""img/0764/713cc27e-2338-4486-bfe9-5f5725fbd7a0.jpg"",""img/0758/d57c2592-a317-4f63-91be-91a3a9afd222.jpg""]","",""
"","6600","similarity","57","355111","0.0-6.0-51.0","3","[""img/0898/04e39a7a-fcf6-4156-ab0e-f5871f335e1c.jpg"",""img/0894/38f5931f-926d-414e-b498-66b188978b7a.jpg""]","",""
"","5768","similarity","58","361885","0.0-6.0-52.0","5","[""img/0875/42910c99-5463-450a-a0f8-d4d060a11455.jpg"",""img/0866/07c9c966-3c8d-40e7-8128-92b2acbaed5d.jpg""]","",""
"","7543","similarity","59","370435","0.0-6.0-53.0","4","[""img/0904/96e503ea-6630-4996-85f2-0237688ce441.jpg"",""img/0904/09dac84f-3d1c-4445-a68e-d0389fdbf1e9.jpg""]","",""
"","4695","similarity","60","376137","0.0-6.0-54.0","7","[""img/0769/1d8734c4-77ab-4165-9e71-5cfe672ff01c.jpg"",""img/0769/a3cfbdeb-acb3-4eac-87fb-4b117f42d4f8.jpg""]","",""
"","4471","similarity","61","381614","0.0-6.0-55.0","1","[""img/0898/01bfe666-3510-4fc7-964f-d00d28732dc8.jpg"",""img/0758/e1ba5e53-addc-436a-b428-d34fc1b130dc.jpg""]","",""
"","6798","similarity","62","389419","0.0-6.0-56.0","5","[""img/0769/387a9744-d6a7-42b8-bab8-33007ec434aa.jpg"",""img/0902/24d10fe7-314f-4d5a-8c7b-b43121bba0a4.jpg""]","",""
"","3653","similarity","63","394080","0.0-6.0-57.0","5","[""img/0864/66091c27-e588-4476-8af9-265dc6be4156.jpg"",""img/0881/d373cb9f-a719-4549-a2a4-82def79fb2a5.jpg""]","",""
"","6032","similarity","64","401119","0.0-6.0-58.0","3","[""img/0758/7ffbc76b-1fc1-432c-8f7e-9ec8d1b3f643.jpg"",""img/0868/15dd6fd7-791e-4b53-b203-195d617521a4.jpg""]","",""
"","3736","similarity","65","405860","0.0-6.0-59.0","4","[""img/0862/24cdc752-c2e5-4a17-86a6-6f2045d8553b.jpg"",""img/0769/f73c5138-2f4c-4354-981c-129dff9cc734.jpg""]","",""
"","4895","similarity","66","411761","0.0-6.0-60.0","5","[""img/0764/bc3865c9-9004-4582-88a7-048478673f97.jpg"",""img/0903/f1fa0f8d-e62b-4b4a-a174-31a0fabfe61b.jpg""]","",""
"","2745","similarity","67","415512","0.0-6.0-61.0","7","[""img/0899/57476fed-5962-4272-8fc9-b317bb777b54.jpg"",""img/0899/1b3457ea-87d4-4946-a01c-aac1863ed46c.jpg""]","",""
"","4055","similarity","68","420574","0.0-6.0-62.0","4","[""img/0860/5bff793e-cbd5-4d7e-b628-0ac2b0e30b64.jpg"",""img/0875/d59ff733-eaff-4ee2-9443-06954dd0bcb6.jpg""]","",""
"","5332","similarity","69","426914","0.0-6.0-63.0","4","[""img/0868/fd307a36-9a3a-47d7-ab7c-f810d0b35040.jpg"",""img/0874/ca76a855-4e77-4f2f-872a-0a718153e7ed.jpg""]","",""
"","7083","similarity","70","435002","0.0-6.0-64.0","5","[""img/0758/dd559618-7f09-4a07-8018-d311c4a5ea29.jpg"",""img/0862/ee3b7bff-4a70-4e84-9bea-4a565e456acb.jpg""]","",""
"","3223","similarity","71","439230","0.0-6.0-65.0","4","[""img/0904/65e2b70a-b184-4da3-b5c0-5038bdf9469a.jpg"",""img/0898/26c41340-15bd-4ead-8fe4-c0d0ddca09c2.jpg""]","",""
"","7179","similarity","72","447415","0.0-6.0-66.0","4","[""img/0881/f8bd891e-aa09-4782-89db-33e7cb2b0cf1.jpg"",""img/0866/9b38d691-1802-4959-ab3f-fc902f0e4ea6.jpg""]","",""
"","2876","similarity","73","451298","0.0-6.0-67.0","2","[""img/0867/db7e032f-162b-46f5-ae67-2b29679adee4.jpg"",""img/0898/f3a3f225-1248-4ac7-b93b-f0ff28485bf3.jpg""]","",""
"","3067","similarity","74","455372","0.0-6.0-68.0","4","[""img/0902/71c03003-03ef-4b0f-8229-e0c857150a5d.jpg"",""img/0764/f9f890e6-3c2f-40cd-84e9-85e0b54cb28e.jpg""]","",""
"","2852","similarity","75","459231","0.0-6.0-69.0","4","[""img/0875/3ecb367d-e9eb-4826-8aaa-7aa72fb98019.jpg"",""img/0867/8ba0c5a7-c7e4-42cf-a80a-543763b90779.jpg""]","",""
"","4690","similarity","76","464927","0.0-6.0-70.0","5","[""img/0766/79767d11-b612-4e8a-9e4b-a8ac95bb6a54.jpg"",""img/0764/e30dba15-e68a-4659-89db-e1654b52fe02.jpg""]","",""
"","4431","similarity","77","470366","0.0-6.0-71.0","2","[""img/0894/7fb082e0-ce79-485c-9109-04367fb32275.jpg"",""img/0867/c66898ba-b71b-4d50-84f9-f7f84853a98d.jpg""]","",""
"","5629","similarity","78","477001","0.0-6.0-72.0","1","[""img/0875/2c361b79-c3d1-4eda-812e-bf03192407bf.jpg"",""img/0764/ef0e64c6-d0dd-4dc6-87b6-ce5c0665f421.jpg""]","",""
"","3256","similarity","79","481262","0.0-6.0-73.0","7","[""img/0867/bf560d4f-dee3-4f11-a385-705cc1aa5f3c.jpg"",""img/0866/386235d2-6857-41e7-88a8-25cfc3430025.jpg""]","",""
"","4402","similarity","80","486671","0.0-6.0-74.0","3","[""img/0903/5995f4a8-fa82-46f8-8760-fd7800a5ca34.jpg"",""img/0758/b76ceca7-95ac-46e4-ac13-da02c8e93be9.jpg""]","",""
"","3061","similarity","81","490739","0.0-6.0-75.0","1","[""img/0766/e8052e17-9dae-4139-802b-6e590cb2d526.jpg"",""img/0868/179a5502-ab5c-478e-8263-5a1fbcc101d2.jpg""]","",""
"","3706","similarity","82","495452","0.0-6.0-76.0","3","[""img/0874/93d1f8dc-acf2-4f03-bd8d-8ec35df276ed.jpg"",""img/0766/75c3d627-4f3b-40d5-9d9c-10c8a62db644.jpg""]","",""
"","4327","similarity","83","500785","0.0-6.0-77.0","4","[""img/0881/84397291-bc14-4fbf-90e8-241e486ab0fe.jpg"",""img/0868/8b0b8473-e2c0-4331-aa56-c3a5c29369da.jpg""]","",""
"","5348","similarity","84","507140","0.0-6.0-78.0","1","[""img/0758/9fb5b2fe-3f00-4fe6-973c-1ce10d5f4cd5.jpg"",""img/0901/d4d09bf5-093e-4050-838e-7c738be8e63c.jpg""]","",""
"","4353","similarity","85","512497","0.0-6.0-79.0","2","[""img/0881/633c6f40-56d9-4b48-bf1c-ecd83116eabb.jpg"",""img/0898/68476bbb-34a1-42d9-8bc1-deab783d4489.jpg""]","",""
"","3110","similarity","86","516613","0.0-6.0-80.0","4","[""img/0867/c71dc569-f49c-4397-8381-68b8d726736d.jpg"",""img/0758/e38fd80d-18d0-42f3-b848-f930788e8bd7.jpg""]","",""
"","3589","similarity","87","521209","0.0-6.0-81.0","6","[""img/0769/0fe124d3-bcad-45f6-b64d-8f6eb8ee5251.jpg"",""img/0899/565ccdd9-0933-4536-a625-3c0e25a713dd.jpg""]","",""
"","3479","similarity","88","525695","0.0-6.0-82.0","7","[""img/0903/2c7b4aed-6038-4aac-958a-e3e58341c313.jpg"",""img/0903/72197c2b-403e-4a26-b391-f1aa8dea4b76.jpg""]","",""
"","5392","similarity","89","541409","0.0-6.0-83.0","2","[""img/0867/85a96c62-548f-4994-9553-819e03c3135a.jpg"",""img/0766/26d3ae14-8275-4e08-99b2-a6598c193ddf.jpg""]","",""
"","3251","similarity","90","545666","0.0-6.0-84.0","3","[""img/0902/30c420f5-c714-4681-ae5a-c0ba8f636a26.jpg"",""img/0867/a749dddb-69f0-44a6-acdc-2bf295cf6dcc.jpg""]","",""
"","3573","similarity","91","550244","0.0-6.0-85.0","1","[""img/0901/ae1e6ce4-2e10-4ca9-b1e7-21628637ab74.jpg"",""img/0875/34132396-d896-4c2d-8087-646dd867e769.jpg""]","",""
"","2790","similarity","92","554040","0.0-6.0-86.0","1","[""img/0764/e48e6c6f-9e28-420f-836a-8043b2319bb4.jpg"",""img/0866/bf14b5bd-fb55-47db-86b9-4f8aeb9a6dad.jpg""]","",""
"","3861","similarity","93","558909","0.0-6.0-87.0","5","[""img/0901/693e0535-ef7e-4d60-af9d-fac2f38e8307.jpg"",""img/0894/5a49e858-2850-4892-9a06-e9f0efb5f94d.jpg""]","",""
"","2732","similarity","94","562646","0.0-6.0-88.0","6","[""img/0898/a114b375-cb89-44ba-9498-74213f1ecdee.jpg"",""img/0769/f229321f-04dd-42d7-b14a-ffad6b509862.jpg""]","",""
"","3014","similarity","95","566667","0.0-6.0-89.0","6","[""img/0769/da36e3f7-2337-434f-ab57-11822dd7eed7.jpg"",""img/0894/6aa5545f-fa7d-4286-bbaa-aaf34dc7ec96.jpg""]","",""
"","3447","similarity","96","571120","0.0-6.0-90.0","5","[""img/0862/57b6f83f-c763-4858-830d-102f97bfefbf.jpg"",""img/0874/8cdb1c07-1c32-46d2-981c-3636560fa6e5.jpg""]","",""
"","2680","similarity","97","574805","0.0-6.0-91.0","5","[""img/0894/2d2db7b3-e8a3-499b-b63a-14f51bf73882.jpg"",""img/0766/717fd72f-a281-499b-a5ba-5e2ecc4d4866.jpg""]","",""
"","3507","similarity","98","579319","0.0-6.0-92.0","5","[""img/0874/adf9a8f1-c40b-402b-b95b-1e85a54a7b62.jpg"",""img/0867/98d8cd96-1476-4fe0-a3a3-04f875500a1b.jpg""]","",""
"","4675","similarity","99","585002","0.0-6.0-93.0","1","[""img/0899/a05bea16-2bb4-4cb9-b8fb-4ff975db6971.jpg"",""img/0868/e0aff734-077f-40dd-9781-74821abd3621.jpg""]","",""
"","3386","similarity","100","589394","0.0-6.0-94.0","5","[""img/0903/6b5dcc60-3ad3-4962-93e5-e6cf768477af.jpg"",""img/0862/92fcd8a4-8193-4a6a-ae09-dd4a6338b0df.jpg""]","",""
"","3567","similarity","101","593967","0.0-6.0-95.0","6","[""img/0899/8abe6c69-822c-436c-9bf2-96c818b49ba5.jpg"",""img/0766/110832e5-2646-4bd0-a94e-5df8cc314269.jpg""]","",""
"","4882","similarity","102","599856","0.0-6.0-96.0","5","[""img/0867/1719a35d-f085-48c0-9099-16c94fe418b4.jpg"",""img/0868/5fa7f9d0-f0e5-454c-8224-74d964818f56.jpg""]","",""
"","3925","similarity","103","604787","0.0-6.0-97.0","5","[""img/0862/ba89835a-408c-480b-8594-ed4ffa97eb5c.jpg"",""img/0901/233a6948-48eb-4b67-8259-222b916b2322.jpg""]","",""
"","3245","similarity","104","609039","0.0-6.0-98.0","1","[""img/0875/fb732ab5-013a-4366-9f65-27811ed157e9.jpg"",""img/0766/a1ed3f0f-e338-4a26-8fe4-4370f0c9fa6e.jpg""]","",""
"","5073","similarity","105","615118","0.0-6.0-99.0","6","[""img/0758/caa93da2-9edf-49fa-96b9-32dedd8f5078.jpg"",""img/0874/bf14b896-e930-4fd9-9c05-2e83317a2773.jpg""]","",""
"","3392","similarity","106","619517","0.0-6.0-100.0","3","[""img/0904/a8c3c7d2-9bcf-4347-9e03-8203adfc1fc5.jpg"",""img/0868/3a62db2d-97e9-44a3-b8e3-a48c6f0e423b.jpg""]","",""
"","3993","similarity","107","624516","0.0-6.0-101.0","3","[""img/0903/81368973-de81-46f4-844f-b901f3bfd66d.jpg"",""img/0866/6f2a90d7-14f1-4f1b-bd64-fc0af6b9fe44.jpg""]","",""
"","2634","similarity","108","628156","0.0-6.0-102.0","1","[""img/0868/6a28c3b0-3d76-498a-9fb7-ddafc665eca8.jpg"",""img/0769/35f2dd39-40aa-498e-b401-9f1ef2622d00.jpg""]","",""
"","3312","similarity","109","632474","0.0-6.0-103.0","5","[""img/0902/97022122-01e4-46c3-a34f-c6260ad28428.jpg"",""img/0899/ad8268c5-8199-48d0-ad70-c5b6d6c599ec.jpg""]","",""
"","2917","similarity","110","636397","0.0-6.0-104.0","5","[""img/0868/77091fc7-a590-4ebb-b915-fdb2483a2399.jpg"",""img/0862/d0ca4c78-fc35-46ed-bdcc-8e124283c53e.jpg""]","",""
"","2759","similarity","111","640164","0.0-6.0-105.0","6","[""img/0903/8fcafe03-43df-4c45-9da5-0df3a1eeccc5.jpg"",""img/0894/43216a7f-27bc-4b5a-8841-d122a30da9d9.jpg""]","",""
"","4307","similarity","112","645478","0.0-6.0-106.0","4","[""img/0864/3d4de670-b290-4285-9c3d-12a0e3af44e9.jpg"",""img/0874/29830da7-be5f-44e5-b141-652a0ccf7269.jpg""]","",""
"","4338","similarity","113","650823","0.0-6.0-107.0","3","[""img/0862/fb26cb07-d5a9-4653-813c-f41609f26cd5.jpg"",""img/0902/8065aa6b-4aef-4368-afa2-02c6465ca582.jpg""]","",""
"","4688","similarity","114","656517","0.0-6.0-108.0","7","[""img/0904/e9423a8c-f946-43ad-ab7b-931acef870e2.jpg"",""img/0903/8f7f9939-b8e6-433f-93dd-b362496c80a7.jpg""]","",""
"","5105","similarity","115","662630","0.0-6.0-109.0","4","[""img/0764/4bec8d92-75aa-475a-954d-8215dbe538f5.jpg"",""img/0864/49150900-7f25-4ce8-8d10-9b47a71d1997.jpg""]","",""
"","3769","similarity","116","667405","0.0-6.0-110.0","3","[""img/0866/d493a2c8-66eb-44b4-be02-2f327b700b7c.jpg"",""img/0894/767a0eec-1064-46b1-b1aa-dfa02b0cd74e.jpg""]","",""
"","3443","similarity","117","671856","0.0-6.0-111.0","5","[""img/0899/66bf4113-ee12-426c-84d2-ea410b6c803e.jpg"",""img/0903/9b60ef5b-234f-4239-892b-3d4c412accc2.jpg""]","",""
"","4021","similarity","118","676881","0.0-6.0-112.0","7","[""img/0902/c9c74d2d-9b82-42d7-a9d0-3b8ff67ff81e.jpg"",""img/0904/73920552-103b-4c9c-9ece-e0b8376b4504.jpg""]","",""
"","6019","similarity","119","683907","0.0-6.0-113.0","3","[""img/0864/ea327690-500b-4137-bf91-451b309fe6a5.jpg"",""img/0860/702bd09d-df3a-40aa-a267-5f04474305b5.jpg""]","",""
"","5384","similarity","120","690297","0.0-6.0-114.0","3","[""img/0860/4a022222-056d-461c-ab02-39fac9647552.jpg"",""img/0899/a048912c-b12c-40e3-90af-46b69b0cc4fe.jpg""]","",""
"","4462","similarity","121","695767","0.0-6.0-115.0","2","[""img/0881/5fe04dd0-5c74-47b7-99c8-b068db9ca26a.jpg"",""img/0903/45e2d600-57ff-4d69-b22c-0c7896cd38f0.jpg""]","",""
"","3023","similarity","122","699796","0.0-6.0-116.0","1","[""img/0894/1b3888e6-cf36-4c4a-a039-187aa5cb71ac.jpg"",""img/0874/a3bc679d-619f-4db6-bb68-116dcb757d9c.jpg""]","",""
"","3120","similarity","123","703923","0.0-6.0-117.0","5","[""img/0881/609a5e93-38b5-4940-8627-2bf8fad7f802.jpg"",""img/0862/f43ceabf-acc1-4107-b857-5d1849808f93.jpg""]","",""
"","2810","similarity","124","707739","0.0-6.0-118.0","4","[""img/0868/09a9ef4d-d000-4cfa-a6aa-ebec7c2edeb4.jpg"",""img/0875/03c3c331-738b-4446-af92-3d7386b08c2e.jpg""]","",""
"","3660","similarity","125","712404","0.0-6.0-119.0","5","[""img/0860/17b44a7d-c5ca-479f-9e87-f65a64f5c80e.jpg"",""img/0758/ddc336e9-a8b6-4bb9-937a-c7e25e0e9250.jpg""]","",""
"","2443","similarity","126","715853","0.0-6.0-120.0","4","[""img/0864/65210d57-1153-4657-886a-32e758f49b4a.jpg"",""img/0875/ebf7653f-ff45-4e9f-af58-2c042ab3cd2b.jpg""]","",""
"","2593","similarity","127","719452","0.0-6.0-121.0","3","[""img/0898/224c1572-56b9-4f16-a9e4-6f3bc9c114bd.jpg"",""img/0866/a04d37f0-99dd-478a-b6c6-58b215138f84.jpg""]","",""
"","3569","similarity","128","724027","0.0-6.0-122.0","3","[""img/0874/1016b306-087c-4afc-aa08-fa527b28dc76.jpg"",""img/0904/ba8e689e-9ca6-4608-a2a1-3b0940666ae6.jpg""]","",""
"","5008","similarity","129","730041","0.0-6.0-123.0","3","[""img/0904/25365108-e038-4021-aac9-797f2063b337.jpg"",""img/0864/da39ad34-04e0-40d4-a724-c08d53e0ea09.jpg""]","",""
"","6739","similarity","130","737788","0.0-6.0-124.0","6","[""img/0894/8cadb87a-7001-4e47-99fb-1867bebf1668.jpg"",""img/0902/b03129ba-b087-4558-af37-e8399d6217d6.jpg""]","",""
"","3714","similarity","131","745200","0.0-6.0-125.0","5","[""img/0868/0d3abd3a-b6c3-4584-a9f7-e2da63748b3d.jpg"",""img/0864/e336a4c5-6648-4fd7-b2f6-93a3fb83f8c6.jpg""]","",""
"","2693","similarity","132","748902","0.0-6.0-126.0","1","[""img/0899/06b0fc99-0581-461a-9913-d1a5a941ac61.jpg"",""img/0866/a15b02be-11bb-43e3-b0e0-ecc3bd7dfc49.jpg""]","",""
"","3603","similarity","133","753510","0.0-6.0-127.0","1","[""img/0875/2e13d160-eea1-416b-aff1-d37ab99ecc1d.jpg"",""img/0904/09934646-45d2-4147-8fec-64a22a5ac822.jpg""]","",""
"","2928","similarity","134","757445","0.0-6.0-128.0","1","[""img/0867/ac1797e4-8afc-48fe-b252-86d1defb1cca.jpg"",""img/0899/76ad07e2-ca25-45eb-84f2-8d80b8ca3e26.jpg""]","",""
"","4704","similarity","135","763159","0.0-6.0-129.0","1","[""img/0901/d6d15b1c-4a30-4f74-a3fd-d4c8ee4169ca.jpg"",""img/0867/7d1c497b-c1b3-4ed8-abb5-d7f73306015f.jpg""]","",""
"","4034","similarity","136","768196","0.0-6.0-130.0","3","[""img/0864/9b2490c5-a282-400a-9736-e1a0ecbf1cb7.jpg"",""img/0769/8056889f-2b14-4782-bb25-b4e8896ab65b.jpg""]","",""
"","3411","similarity","137","772614","0.0-6.0-131.0","1","[""img/0903/bf0a7d60-eca5-44b0-bafd-baf21db9904b.jpg"",""img/0868/d6d1f30d-4323-435a-b194-7892521bc57e.jpg""]","",""
"","4260","similarity","138","777882","0.0-6.0-132.0","4","[""img/0864/b3c4e378-28f0-4699-9338-2a257b4bca04.jpg"",""img/0867/6e19c858-b606-45b2-a4c6-910a73f1d82c.jpg""]","",""
"","3562","similarity","139","782450","0.0-6.0-133.0","4","[""img/0901/c6df1a21-44ed-47c2-960e-7c52220e329e.jpg"",""img/0860/71e1aad0-2cdf-43bb-94a4-a8c016997c30.jpg""]","",""
"","2265","similarity","140","785722","0.0-6.0-134.0","4","[""img/0881/44e09805-5a25-4f17-a716-4ad4a331b174.jpg"",""img/0766/2e1cf445-9aef-40e7-92f4-5facf48b64c5.jpg""]","",""
"","4229","similarity","141","790957","0.0-6.0-135.0","5","[""img/0903/8931c67c-a43d-47d3-a4c9-42aa2f81d344.jpg"",""img/0864/efcfbb1b-8197-44c9-b723-40d6c608dd3c.jpg""]","",""
"","3311","similarity","142","795275","0.0-6.0-136.0","3","[""img/0758/6e95579b-5166-487c-b8cb-e417c6a218e3.jpg"",""img/0894/3664e04c-c6d3-4c9b-afb6-25d89974b174.jpg""]","",""
"","3511","similarity","143","799791","0.0-6.0-137.0","4","[""img/0769/48a1144d-fbda-4809-991b-fc8424a32ee4.jpg"",""img/0860/c7047cd2-7cc1-41b6-8a34-c0986774975f.jpg""]","",""
"","4037","similarity","144","804835","0.0-6.0-138.0","5","[""img/0904/4d7d70a3-9477-4921-bda0-f9531d0a5c5b.jpg"",""img/0766/69e486f7-dbef-456b-9d48-53d814248a28.jpg""]","",""
"","2944","similarity","145","808786","0.0-6.0-139.0","5","[""img/0868/83b4350a-3b70-4cea-b7f5-b5b56f3050a8.jpg"",""img/0860/18dfed73-e36b-4487-a8bd-0b8cff8e3668.jpg""]","",""
"","3420","similarity","146","813213","0.0-6.0-140.0","6","[""img/0758/53f35650-e455-4b53-8be4-c3c8271c6466.jpg"",""img/0864/87c467d3-abca-482f-ad80-3766c21b1bb3.jpg""]","",""
"","4128","similarity","147","818348","0.0-6.0-141.0","7","[""img/0867/de92135f-5b65-4ed9-b245-188292c7c2f8.jpg"",""img/0867/5e07b34d-b40f-4b1c-ac10-49975bace45f.jpg""]","",""
"","3963","similarity","148","823317","0.0-6.0-142.0","7","[""img/0898/c3cecf20-f7fd-45fa-97d0-dc0a63e8d6c0.jpg"",""img/0898/993d8f2d-bef7-4251-a193-0f93a32b7763.jpg""]","",""
"","5021","similarity","149","829347","0.0-6.0-143.0","3","[""img/0866/945c6710-d15b-4a5b-a8f6-69af0850357f.jpg"",""img/0769/c7cfacc3-7f07-46ff-9f5d-8073f4c4679b.jpg""]","",""
"","2552","similarity","150","832903","0.0-6.0-144.0","4","[""img/0860/61fb959d-d4d9-4de4-9e4e-4fa62b4cfcd5.jpg"",""img/0898/b2732712-71c2-45d8-834f-2b2ed5504910.jpg""]","",""
"","3827","similarity","151","837735","0.0-6.0-145.0","3","[""img/0766/3c526a07-9e0a-4ae2-8142-00085f0127da.jpg"",""img/0864/1d15626a-2f7c-410f-819c-0fa2c967e95e.jpg""]","",""
"","4092","similarity","152","842833","0.0-6.0-146.0","5","[""img/0860/87039971-2210-4aab-93c0-8e9b5f1655b2.jpg"",""img/0903/2a9c8033-3e70-47fa-816d-97ee1813a3a3.jpg""]","",""
"","3608","similarity","153","847447","0.0-6.0-147.0","1","[""img/0867/f8159067-056c-41f1-a136-c529fe5e970a.jpg"",""img/0764/fb92924f-5cfe-4b89-b130-0cce8cc5636b.jpg""]","",""
"","3162","similarity","154","851616","0.0-6.0-148.0","5","[""img/0769/688d0c52-ad73-4065-a5eb-f8c10d076bff.jpg"",""img/0904/d23dd7be-7fe8-4435-82f7-bd592c01e6a1.jpg""]","",""
"","4937","similarity","155","857560","0.0-6.0-149.0","4","[""img/0764/06ea144f-f4f3-4a14-ba47-f20f35c561e0.jpg"",""img/0901/4ca4f962-40c0-4c59-b14a-3cd7b8c9029b.jpg""]","",""
"","2980","similarity","156","861545","0.0-6.0-150.0","5","[""img/0904/63dd06dd-dccb-47ba-9740-eb33239e18a7.jpg"",""img/0899/93494f3b-d539-4075-b027-d82e344563da.jpg""]","",""
"","3459","similarity","157","866011","0.0-6.0-151.0","5","[""img/0862/e697469a-ec19-4414-b972-7b9f3564785b.jpg"",""img/0867/cc72ed48-7704-422c-86d6-467a1145287a.jpg""]","",""
"","3193","similarity","158","870213","0.0-6.0-152.0","7","[""img/0766/f011ef45-fb48-44b8-8224-867ed2ccf786.jpg"",""img/0766/1bc0dccc-a5b5-4375-87fa-28360ca42b12.jpg""]","",""
"","3797","similarity","159","875018","0.0-6.0-153.0","3","[""img/0862/064818ee-13d5-4618-bb24-21c7368ea278.jpg"",""img/0894/11674fa4-285d-44e2-939f-2228c6a64080.jpg""]","",""
"","3139","similarity","160","879166","0.0-6.0-154.0","5","[""img/0899/4408c14d-c168-4a7d-96f6-bc87bfb58f83.jpg"",""img/0901/a373612d-67e2-4fec-9764-21d3d6ef6359.jpg""]","",""
"","4304","similarity","161","884476","0.0-6.0-155.0","6","[""img/0874/995f0332-0439-4eb4-add3-957335dbf6d9.jpg"",""img/0874/3f471690-9788-4d03-90c7-f615aecef149.jpg""]","",""
"","2940","similarity","162","888422","0.0-6.0-156.0","5","[""img/0860/15b24a61-25be-4356-9eac-5ce95d0cb4a4.jpg"",""img/0867/a498eef3-9fa4-4ab2-9778-4ae82ac40dc5.jpg""]","",""
"","4212","similarity","163","893639","0.0-6.0-157.0","3","[""img/0901/1b86f2fc-7a1d-4aa8-9252-114f92edef3b.jpg"",""img/0881/db77fe00-aeb0-4d1d-aa66-f3a96fd077e4.jpg""]","",""
"","4148","similarity","164","898793","0.0-6.0-158.0","6","[""img/0903/47e39de8-6959-469f-8be9-6999a6db207c.jpg"",""img/0902/cdec1bc6-7f90-4f72-9e01-f5a4111bac1d.jpg""]","",""
"","3543","similarity","165","903343","0.0-6.0-159.0","4","[""img/0860/fd4662f9-4c03-4d79-8593-06735e55a64b.jpg"",""img/0764/21e3292f-01ad-4238-828b-61b817857d16.jpg""]","",""
"","6375","similarity","166","910724","0.0-6.0-160.0","3","[""img/0902/d2c34af0-8c50-437d-8cc3-619195a3e8ba.jpg"",""img/0875/a4935837-7d3c-4df6-88c1-36a94d4991ca.jpg""]","",""
"","4556","similarity","167","916288","0.0-6.0-161.0","4","[""img/0898/6cd3830b-d44e-4915-be2b-88d31424b91c.jpg"",""img/0862/92f0146c-20c4-482e-aef5-adb693790338.jpg""]","",""
"","3585","similarity","168","920878","0.0-6.0-162.0","2","[""img/0894/b422d5c6-3c5a-49ae-a53e-7e88ac993f49.jpg"",""img/0875/8521fd58-3b1e-4dc5-97ae-804edfa6734a.jpg""]","",""
"","4705","similarity","169","926589","0.0-6.0-163.0","4","[""img/0866/8efcaa46-83ab-4dee-a35f-850402aa21ae.jpg"",""img/0864/5f33e097-23e3-4002-882d-76e8cb15f451.jpg""]","",""
"","6947","similarity","170","934542","0.0-6.0-164.0","1","[""img/0766/006035d8-c736-4daf-bbe4-a9e373af9da6.jpg"",""img/0862/53a9cf7c-93c4-41b9-952f-07d17f7a17b2.jpg""]","",""
"","4104","similarity","171","939652","0.0-6.0-165.0","5","[""img/0866/23a224f3-2012-4fc8-8e0f-3c36f8de27fd.jpg"",""img/0874/ca23d307-fc00-4d7d-9106-584c6eb21b4d.jpg""]","",""
"","3609","similarity","172","944267","0.0-6.0-166.0","5","[""img/0862/5d887e9f-89e2-4ebc-80a0-6d46fe6480db.jpg"",""img/0860/e14d67c1-6d92-4f1e-9257-c8607159c19c.jpg""]","",""
"","3499","similarity","173","954463","0.0-6.0-167.0","5","[""img/0766/aaec5f42-7f0a-4a16-aeca-488d757acbcc.jpg"",""img/0901/da4fe30f-d12a-491e-96a2-5ab8ebaadd09.jpg""]","",""
"","2753","similarity","174","958222","0.0-6.0-168.0","7","[""img/0862/4f0a3b4c-afbf-486e-b248-1d54982f54b4.jpg"",""img/0862/eefa5588-9efd-4591-aa5f-a2e17c7d7bcc.jpg""]","",""
"","3296","similarity","175","962524","0.0-6.0-169.0","6","[""img/0894/b2d2f66e-e480-46da-a02a-6d0c6b285d78.jpg"",""img/0764/c0b03adb-bd0a-4b96-a915-a827c2fd5211.jpg""]","",""
"","3337","similarity","176","966868","0.0-6.0-170.0","3","[""img/0874/99f6563c-8a8d-4c1c-a41d-667b618c3fd5.jpg"",""img/0898/881e2a85-d5c2-49be-a0c6-8a6ce2c4af08.jpg""]","",""
"","3484","similarity","177","971358","0.0-6.0-171.0","3","[""img/0860/4f695df5-afac-4da7-9875-fee39b0b24ad.jpg"",""img/0766/908bc45b-7c9e-4f95-806e-86b196ebcb2c.jpg""]","",""
"","3000","similarity","178","975362","0.0-6.0-172.0","2","[""img/0898/ec565187-2e31-4fdd-9a5c-153d0c789ae0.jpg"",""img/0864/6f631579-acf1-415c-a42c-1207f62a8d99.jpg""]","",""
"","3091","similarity","179","979458","0.0-6.0-173.0","4","[""img/0881/b549bc99-a61c-4450-bab5-9efc3a197bf0.jpg"",""img/0764/e42c1dc9-7831-4995-be19-7ca7b4d141fc.jpg""]","",""
"","5913","similarity","180","986378","0.0-6.0-174.0","2","[""img/0898/b3290bf9-215b-4b45-b21a-65bdf73f142f.jpg"",""img/0868/4e626425-63c8-484a-8a1d-e66ee4e0bef8.jpg""]","",""
"","4620","similarity","181","992004","0.0-6.0-175.0","7","[""img/0864/0116ca98-293d-4fa6-a93b-5a6144ef64cc.jpg"",""img/0864/8ddd2e30-a1d0-479f-9cbe-591213023893.jpg""]","",""
"","3670","similarity","182","996680","0.0-6.0-176.0","2","[""img/0899/8de08897-b430-42fe-9d42-840670b80f94.jpg"",""img/0862/a0a3a7ba-7798-46a3-b4ca-05e1f6e581d0.jpg""]","",""
"","5141","similarity","183","1002827","0.0-6.0-177.0","4","[""img/0875/527ced51-8e53-4aab-ab05-86df219104c0.jpg"",""img/0758/821c68d3-5cb0-4eae-8659-30e6263fca39.jpg""]","",""
"","3109","similarity","184","1006942","0.0-6.0-178.0","2","[""img/0866/f756f7d1-9ad8-4a34-9ef6-7a443d705bfe.jpg"",""img/0901/d61f267a-c492-4db6-9bfb-61efd49cf072.jpg""]","",""
"","3988","similarity","185","1011936","0.0-6.0-179.0","5","[""img/0769/e31b3bd8-efcb-413e-aa8c-75fac2b8f2ac.jpg"",""img/0874/c0378dac-9370-439a-8b79-db27c96fb390.jpg""]","",""
"","3448","similarity","186","1016391","0.0-6.0-180.0","4","[""img/0875/e7e66b13-b573-431e-b85e-288ce04a35a3.jpg"",""img/0881/20af39f5-373d-4a55-a437-2dc4c0382c46.jpg""]","",""
"","2694","similarity","187","1020093","0.0-6.0-181.0","6","[""img/0866/0207e9a2-7dbb-40b5-9459-b472aaeceb2a.jpg"",""img/0868/d98ca254-b195-477f-b57e-5760a2717db8.jpg""]","",""
"","3559","similarity","188","1024659","0.0-6.0-182.0","5","[""img/0899/0433d056-aa30-4f8a-9aa1-abbb951e4edd.jpg"",""img/0758/7ee8bc8f-c40b-4b3a-84ec-3e83580622d4.jpg""]","",""
"","2389","similarity","189","1028053","0.0-6.0-183.0","4","[""img/0874/85eb9b8a-c4c6-4e5a-b8e7-363a87a82054.jpg"",""img/0875/5a1e5100-0d94-4fec-bbe9-ca9894d2cf8e.jpg""]","",""
"","2984","similarity","190","1032043","0.0-6.0-184.0","3","[""img/0904/5cceabc9-de1d-4c67-989b-c28a4ef77e79.jpg"",""img/0862/99a99e39-8355-44ec-b993-e7bcec111e1c.jpg""]","",""
"","2991","similarity","191","1036039","0.0-6.0-185.0","5","[""img/0902/962f645e-9b55-4628-9b50-c703422bfe1a.jpg"",""img/0766/d919cedb-f9b7-4f30-83bb-3e9c65001ceb.jpg""]","",""
"","4642","similarity","192","1041687","0.0-6.0-186.0","4","[""img/0758/61d64021-9214-4951-bdf8-f871f9827cf9.jpg"",""img/0769/f6396414-6788-4d59-9683-de153298d89c.jpg""]","",""
"","3277","similarity","193","1045972","0.0-6.0-187.0","7","[""img/0881/48ed65a5-471f-41af-86ec-3793805c116d.jpg"",""img/0881/c843e210-bdfe-4a7c-8bbe-fcea1f90fe1c.jpg""]","",""
"","2441","similarity","194","1049420","0.0-6.0-188.0","5","[""img/0758/a085b443-b5d7-4cb2-9ad4-b9dab0fc23f1.jpg"",""img/0866/620cd1aa-0800-4414-8f6e-90342e7a99ad.jpg""]","",""
"","2758","similarity","195","1053186","0.0-6.0-189.0","5","[""img/0764/62fafeea-6274-48ce-976f-35d3d3484c65.jpg"",""img/0898/8605a25b-6895-476d-8c13-df7a83f96093.jpg""]","",""
"","4302","similarity","196","1058492","0.0-6.0-190.0","5","[""img/0903/5ea5bbe0-f238-4724-abe7-9ed8dee8c0ba.jpg"",""img/0901/04a53755-6da5-44d4-a7a6-48a6bc0a2280.jpg""]","",""
"","2794","similarity","197","1062293","0.0-6.0-191.0","5","[""img/0902/62f11694-7ed7-4cb7-8a73-9e95c43824e7.jpg"",""img/0898/5f699581-3853-4547-856c-12f419ba5af7.jpg""]","",""
"","3301","similarity","198","1066602","0.0-6.0-192.0","2","[""img/0864/1ebbc554-99fa-49f9-8799-317375a79820.jpg"",""img/0901/08d6d1d1-c043-43c4-bb08-d45e062822b9.jpg""]","",""
"","3437","similarity","199","1071045","0.0-6.0-193.0","1","[""img/0894/e6385e52-6c35-43bd-b0af-bc803d107b11.jpg"",""img/0881/7e822106-76f7-4b10-a805-14dc68b2cfaf.jpg""]","",""
"","4673","similarity","200","1076725","0.0-6.0-194.0","7","[""img/0868/4bd5105a-d2c3-4f82-8c80-57196106ba53.jpg"",""img/0868/293079b8-7e0c-4afd-a390-1e5d35fe3ded.jpg""]","",""
"","3617","similarity","201","1081348","0.0-6.0-195.0","6","[""img/0899/d8f2dd94-570e-4e8c-a087-d96090fb9e8c.jpg"",""img/0764/4eff630a-6426-4f8d-b2ba-b4d9842a0962.jpg""]","",""
"","3239","similarity","202","1085594","0.0-6.0-196.0","1","[""img/0881/4da99fdd-1f40-4bbb-8e21-8833eef313f5.jpg"",""img/0904/0d25eb24-bb20-4e8d-9787-8b489558b4cb.jpg""]","",""
"","2397","similarity","203","1088996","0.0-6.0-197.0","1","[""img/0864/6e846d43-94a6-4b37-a268-65eda979f052.jpg"",""img/0902/511abb54-0094-4f4d-b6dc-3f2c97050521.jpg""]","",""
"","3272","similarity","204","1093273","0.0-6.0-198.0","5","[""img/0894/a98416c0-51e2-4960-85da-d81d8688b9d5.jpg"",""img/0904/b7c2a2c8-df33-4473-b3d4-ff7147c60db3.jpg""]","",""
"","2862","similarity","205","1097141","0.0-6.0-199.0","7","[""img/0901/168eb52c-c415-43f1-b5c8-e76e1a1ec247.jpg"",""img/0901/a6776381-91fe-43f8-ab73-261d318f95fd.jpg""]","",""
"","2821","similarity","206","1100968","0.0-6.0-200.0","5","[""img/0894/492d2f29-d7b9-4422-8be8-47fd58bfaa8b.jpg"",""img/0860/5383b320-1518-4095-a58e-5cc1ae30b64c.jpg""]","",""
"","2395","similarity","207","1104370","0.0-6.0-201.0","6","[""img/0898/0af304a2-6a7a-4082-ab7c-4450cd08cc58.jpg"",""img/0903/b0a3c45f-467e-412f-a183-c9c1827f2e63.jpg""]","",""
"","2935","similarity","208","1108311","0.0-6.0-202.0","3","[""img/0864/e02eddb5-f468-499c-91bf-f7be3ffe979b.jpg"",""img/0894/1a010553-d598-4b06-a772-81f1e7b3addb.jpg""]","",""
"","2123","similarity","209","1111440","0.0-6.0-203.0","4","[""img/0874/31e22c7c-99aa-40b1-bf03-dd73fa2df4d6.jpg"",""img/0860/524b2e98-5767-4d53-942c-ebae6925659b.jpg""]","",""
"","3354","similarity","210","1115800","0.0-6.0-204.0","3","[""img/0862/fad1d7c1-8187-43c3-942a-0fc12183e48e.jpg"",""img/0875/f87b67d7-c33e-40d1-b281-248c4be1cb6e.jpg""]","",""
"","3868","similarity","211","1120674","0.0-6.0-205.0","3","[""img/0867/f8488a47-94ee-4166-952c-44e16cf172f6.jpg"",""img/0881/667e2147-d457-4f32-aa5f-6ab86e5848f1.jpg""]","",""
"","2679","similarity","212","1124359","0.0-6.0-206.0","5","[""img/0901/548d1110-7cb8-42a2-9927-9798875c8b5c.jpg"",""img/0902/b03fee99-d5ca-4bf8-871c-a4a743a39842.jpg""]","",""
"","2716","similarity","213","1128081","0.0-6.0-207.0","5","[""img/0899/9de5e857-aa9a-4e0c-8ba2-46d79bd069a4.jpg"",""img/0864/300bb811-8b3c-4c42-8653-6097c3725197.jpg""]","",""
"","3194","similarity","214","1132281","0.0-6.0-208.0","2","[""img/0901/12da1841-e611-435c-9719-109413d536a8.jpg"",""img/0769/d1be2815-fa79-46e8-b5c3-7d81caaca490.jpg""]","",""
"","3021","similarity","215","1137802","0.0-6.0-209.0","7","[""img/0902/c920f0e1-1c81-480f-a164-c77f2dc6ce9a.jpg"",""img/0902/cf9dee9c-2bdf-4d64-9302-97f1660fe52c.jpg""]","",""
"[{""page_index"":0,""viewing_time"":4139}]","4141","instructions","216","1142945","0.0-7.0","","","",""
"","28515","image-multi-choice","217","1172480","0.0-8.0-0.0","","","{""Q0"":""Nashville Warbler""}","Nashville Warbler"
"","3630","image-multi-choice","218","1177127","0.0-8.0-1.0","","","{""Q0"":""Black-and-white Warbler""}","Black-and-white Warbler"
"","7050","image-multi-choice","219","1185194","0.0-8.0-2.0","","","{""Q0"":""Townsend's Warbler""}","Townsend's Warbler"
"","4208","image-multi-choice","220","1190414","0.0-8.0-3.0","","","{""Q0"":""Lark Sparrow""}","Lark Sparrow"
"","3642","image-multi-choice","221","1195074","0.0-8.0-4.0","","","{""Q0"":""Yellow Warbler""}","Yellow Warbler"
"","9027","image-multi-choice","222","1205116","0.0-8.0-5.0","","","{""Q0"":""Orange-crowned Warbler""}","Orange-crowned Warbler"
"","4219","image-multi-choice","223","1210352","0.0-8.0-6.0","","","{""Q0"":""White-throated Sparrow""}","White-throated Sparrow"
"","3406","image-multi-choice","224","1214774","0.0-8.0-7.0","","","{""Q0"":""Fox Sparrow""}","Fox Sparrow"
"","37673","image-multi-choice","225","1253464","0.0-8.0-8.0","","","{""Q0"":""Song Sparrow""}","Song Sparrow"
"","5039","image-multi-choice","226","1259519","0.0-8.0-9.0","","","{""Q0"":""Blackburnian Warbler""}","Blackburnian Warbler"
"","8238","image-multi-choice","227","1268765","0.0-8.0-10.0","","","{""Q0"":""Vesper Sparrow""}","Vesper Sparrow"
"","3626","image-multi-choice","228","1273406","0.0-8.0-11.0","","","{""Q0"":""White-crowned Sparrow""}","White-crowned Sparrow"
"","3904","image-multi-choice","229","1278326","0.0-8.0-12.0","","","{""Q0"":""American Tree Sparrow""}","American Tree Sparrow"
"","4270","image-multi-choice","230","1283613","0.0-8.0-13.0","","","{""Q0"":""Tennessee Warbler""}","Tennessee Warbler"
"","5243","image-multi-choice","231","1289871","0.0-8.0-14.0","","","{""Q0"":""Magnolia Warbler""}","Magnolia Warbler"
"","4315","image-multi-choice","232","1295202","0.0-8.0-15.0","","","{""Q0"":""Northern Waterthrush""}","Northern Waterthrush"
"","4038","image-multi-choice","233","1300254","0.0-8.0-16.0","","","{""Q0"":""Chipping Sparrow""}","Chipping Sparrow"
"","12498","image-multi-choice","234","1313769","0.0-8.0-17.0","","","{""Q0"":""Swamp Sparrow""}","Swamp Sparrow"
"","5560","image-multi-choice","235","1320342","0.0-8.0-18.0","","","{""Q0"":""Lincoln's Sparrow""}","Lincoln's Sparrow"
"","3493","image-multi-choice","236","1324850","0.0-8.0-19.0","","","{""Q0"":""Ovenbird""}","Ovenbird"
