[{"view_history":"[{\"page_index\":0,\"viewing_time\":22649}]","rt":22650,"trial_type":"instructions","trial_index":0,"time_elapsed":22652,"internal_node_id":"0.0-0.0"},{"sim_score":3,"rt":10276,"stimulus":"[\"img/866.jpg\",\"img/868.jpg\"]","trial_type":"similarity_demo","trial_index":1,"time_elapsed":33941,"internal_node_id":"0.0-1.0"},{"view_history":"[{\"page_index\":0,\"viewing_time\":8695}]","rt":8695,"trial_type":"instructions","trial_index":2,"time_elapsed":43638,"internal_node_id":"0.0-2.0"},{"sim_score":1,"rt":3606,"stimulus":"[\"img/766.jpg\",\"img/867.jpg\"]","trial_type":"similarity_demo","trial_index":3,"time_elapsed":48253,"internal_node_id":"0.0-3.0"},{"view_history":"[{\"page_index\":0,\"viewing_time\":4571}]","rt":4571,"trial_type":"instructions","trial_index":4,"time_elapsed":53825,"internal_node_id":"0.0-4.0"},{"view_history":"[{\"page_index\":0,\"viewing_time\":8448}]","rt":8448,"trial_type":"instructions","trial_index":5,"time_elapsed":63274,"internal_node_id":"0.0-5.0"},{"sim_score":2,"rt":4953,"stimulus":"[\"img/0868/c8ac40c7-6904-4e13-8d61-c75d3052dc4e.jpg\",\"img/0901/b9141736-3041-4385-a586-b1fe911c76a5.jpg\"]","trial_type":"similarity","trial_index":6,"time_elapsed":69236,"internal_node_id":"0.0-6.0-0.0"},{"sim_score":1,"rt":3877,"stimulus":"[\"img/0769/47700831-0ca2-4fdd-a498-a3bc5a528f43.jpg\",\"img/0867/2e1a0b58-cdb1-4107-a14e-452530d7b9b0.jpg\"]","trial_type":"similarity","trial_index":7,"time_elapsed":74121,"internal_node_id":"0.0-6.0-1.0"},{"sim_score":4,"rt":3659,"stimulus":"[\"img/0766/ef3b15ce-abb7-4292-ad93-aec8e8b50520.jpg\",\"img/0898/0c7dde4f-efce-4b7a-9387-6921635b7890.jpg\"]","trial_type":"similarity","trial_index":8,"time_elapsed":78786,"internal_node_id":"0.0-6.0-2.0"},{"sim_score":4,"rt":3552,"stimulus":"[\"img/0902/a323b62d-2fd5-4ac8-acc6-35b768f3c3f2.jpg\",\"img/0881/ee44e27f-d662-4608-b265-e7ffa19b216f.jpg\"]","trial_type":"similarity","trial_index":9,"time_elapsed":83342,"internal_node_id":"0.0-6.0-3.0"},{"sim_score":7,"rt":4101,"stimulus":"[\"img/0894/5f15154e-e72e-4ce5-aafb-bce6f0564006.jpg\",\"img/0894/9b1333fd-3561-43bf-aee5-99b7b7ca3dc3.jpg\"]","trial_type":"similarity","trial_index":10,"time_elapsed":88452,"internal_node_id":"0.0-6.0-4.0"},{"sim_score":3,"rt":3834,"stimulus":"[\"img/0874/767f289c-9814-4496-803f-745cc8913d1f.jpg\",\"img/0899/f95cbdb4-f804-4f5d-ad76-373ad343e658.jpg\"]","trial_type":"similarity","trial_index":11,"time_elapsed":93291,"internal_node_id":"0.0-6.0-5.0"},{"sim_score":4,"rt":3718,"stimulus":"[\"img/0904/5aec2708-cf14-4a58-aa30-9a8a61c1be0e.jpg\",\"img/0764/39a9fc7e-b863-432c-9374-de43983f31a5.jpg\"]","trial_type":"similarity","trial_index":12,"time_elapsed":98016,"internal_node_id":"0.0-6.0-6.0"},{"sim_score":3,"rt":4109,"stimulus":"[\"img/0899/fef567a2-c121-4481-9af0-ff108d199bbf.jpg\",\"img/0898/a8f16b02-e19f-423b-86c3-a36562ae1f9b.jpg\"]","trial_type":"similarity","trial_index":13,"time_elapsed":103132,"internal_node_id":"0.0-6.0-7.0"},{"sim_score":1,"rt":4292,"stimulus":"[\"img/0874/a82926a3-0b43-4add-803c-d5f9ea7798ee.jpg\",\"img/0903/6f343da5-00d9-4d50-89d1-2ed24cdb8319.jpg\"]","trial_type":"similarity","trial_index":14,"time_elapsed":108430,"internal_node_id":"0.0-6.0-8.0"},{"sim_score":6,"rt":6188,"stimulus":"[\"img/0881/54ea8e77-c7e5-4197-b7fa-00b7020849a7.jpg\",\"img/0758/eabcd7a8-56ad-4fd2-bc24-90f6b7b33265.jpg\"]","trial_type":"similarity","trial_index":15,"time_elapsed":115628,"internal_node_id":"0.0-6.0-9.0"},{"sim_score":3,"rt":5313,"stimulus":"[\"img/0898/e167334e-cc1d-4986-b3b1-c7bc7da64baa.jpg\",\"img/0901/875dedb9-24c9-4443-9f8c-85e97d70ee5a.jpg\"]","trial_type":"similarity","trial_index":16,"time_elapsed":121948,"internal_node_id":"0.0-6.0-10.0"},{"sim_score":3,"rt":5030,"stimulus":"[\"img/0903/f67c4ab9-f8c2-4fcd-848a-a54a7b031002.jpg\",\"img/0769/91acb237-65a3-4d0b-9748-af5c7b83d3c7.jpg\"]","trial_type":"similarity","trial_index":17,"time_elapsed":127984,"internal_node_id":"0.0-6.0-11.0"},{"sim_score":1,"rt":3090,"stimulus":"[\"img/0764/b8e23f4f-ff19-4472-ad9b-2f85548ebca0.jpg\",\"img/0868/7b212364-ff5f-4e28-9241-7eb6ea00161b.jpg\"]","trial_type":"similarity","trial_index":18,"time_elapsed":132081,"internal_node_id":"0.0-6.0-12.0"},{"sim_score":1,"rt":3328,"stimulus":"[\"img/0867/50a1b60e-3a29-44bf-b606-d4bd3746fea9.jpg\",\"img/0903/b4a0f61e-a964-4b79-a9a7-f767a8f92f34.jpg\"]","trial_type":"similarity","trial_index":19,"time_elapsed":136415,"internal_node_id":"0.0-6.0-13.0"},{"sim_score":2,"rt":4394,"stimulus":"[\"img/0766/dd3e18d0-0c98-4d05-b850-69976ee8cd75.jpg\",\"img/0758/6cd8c362-ae2a-41eb-80a3-3a4f7ace1530.jpg\"]","trial_type":"similarity","trial_index":20,"time_elapsed":141816,"internal_node_id":"0.0-6.0-14.0"},{"sim_score":3,"rt":5814,"stimulus":"[\"img/0902/af45fe42-178c-4c1a-99ef-256e87e3b092.jpg\",\"img/0860/9593362c-9fe5-4d12-9735-6000a11f6aa5.jpg\"]","trial_type":"similarity","trial_index":21,"time_elapsed":148635,"internal_node_id":"0.0-6.0-15.0"},{"sim_score":3,"rt":6233,"stimulus":"[\"img/0769/3c1203c5-2ce7-466e-957a-8d77b5905460.jpg\",\"img/0875/90da8d75-108a-44ad-b999-e21fee3860d3.jpg\"]","trial_type":"similarity","trial_index":22,"time_elapsed":155873,"internal_node_id":"0.0-6.0-16.0"},{"sim_score":1,"rt":3411,"stimulus":"[\"img/0904/b5855d6a-7ef9-46ca-9215-6e9fa046e543.jpg\",\"img/0866/c446214b-a368-4c65-ae39-ea46894256ab.jpg\"]","trial_type":"similarity","trial_index":23,"time_elapsed":160292,"internal_node_id":"0.0-6.0-17.0"},{"sim_score":7,"rt":4093,"stimulus":"[\"img/0875/dbdd643e-6d0e-4a5c-ab57-b9c29b9c981a.jpg\",\"img/0875/5a716432-c6ca-4b1c-955a-2b8ac25198ee.jpg\"]","trial_type":"similarity","trial_index":24,"time_elapsed":165392,"internal_node_id":"0.0-6.0-18.0"},{"sim_score":7,"rt":4341,"stimulus":"[\"img/0758/7fba58df-2a7a-4b76-8a8f-62739f97f271.jpg\",\"img/0758/a709631e-3705-4725-ac40-f0d916924f08.jpg\"]","trial_type":"similarity","trial_index":25,"time_elapsed":170741,"internal_node_id":"0.0-6.0-19.0"},{"sim_score":2,"rt":4853,"stimulus":"[\"img/0902/94ee9c53-a9a2-4f95-b9b7-794a5fc62bb6.jpg\",\"img/0874/2c9464dd-8a23-4baa-ac94-1ba3af5c15cc.jpg\"]","trial_type":"similarity","trial_index":26,"time_elapsed":176599,"internal_node_id":"0.0-6.0-20.0"},{"sim_score":5,"rt":5821,"stimulus":"[\"img/0764/ca957454-126a-4bd3-b29c-7174a24c25dc.jpg\",\"img/0769/5bd04f55-d091-4f57-85db-38426f26bd1a.jpg\"]","trial_type":"similarity","trial_index":27,"time_elapsed":183429,"internal_node_id":"0.0-6.0-21.0"},{"sim_score":1,"rt":2911,"stimulus":"[\"img/0901/8bb79e82-9c43-4b6f-a655-40655519598b.jpg\",\"img/0874/eba003b4-cdab-4eee-8bc3-f064c7d94165.jpg\"]","trial_type":"similarity","trial_index":28,"time_elapsed":187347,"internal_node_id":"0.0-6.0-22.0"},{"sim_score":2,"rt":3465,"stimulus":"[\"img/0875/5a7c4e35-6514-4e12-8879-d16071da4cd6.jpg\",\"img/0903/647ce311-8c71-479a-8361-961db1457139.jpg\"]","trial_type":"similarity","trial_index":29,"time_elapsed":191819,"internal_node_id":"0.0-6.0-23.0"},{"sim_score":2,"rt":5379,"stimulus":"[\"img/0769/a1ce8d07-ba37-40de-bade-2778805521e0.jpg\",\"img/0881/f6bd3b96-dc40-4e99-8681-bc3a35cf896d.jpg\"]","trial_type":"similarity","trial_index":30,"time_elapsed":198205,"internal_node_id":"0.0-6.0-24.0"},{"sim_score":2,"rt":3267,"stimulus":"[\"img/0867/f26f6b60-f772-4f4c-95a4-addc62cfd692.jpg\",\"img/0904/60d1a521-edf7-4696-9263-f21ac0e62a01.jpg\"]","trial_type":"similarity","trial_index":31,"time_elapsed":202479,"internal_node_id":"0.0-6.0-25.0"},{"sim_score":3,"rt":4370,"stimulus":"[\"img/0860/29a21a9f-54bb-4093-ad3f-04823ceaa89f.jpg\",\"img/0881/d1982897-8d8d-4704-a940-1ee5d07a1f15.jpg\"]","trial_type":"similarity","trial_index":32,"time_elapsed":207854,"internal_node_id":"0.0-6.0-26.0"},{"sim_score":7,"rt":3684,"stimulus":"[\"img/0866/11a1d141-be5e-443c-98c1-a9d4d9e3dec0.jpg\",\"img/0866/4a87911a-d5be-4d4e-ab8e-3d1f581bf507.jpg\"]","trial_type":"similarity","trial_index":33,"time_elapsed":212544,"internal_node_id":"0.0-6.0-27.0"},{"sim_score":4,"rt":4856,"stimulus":"[\"img/0764/1def7b22-b054-4ec2-860b-73d25691823b.jpg\",\"img/0862/ad593cc7-cabe-4bb7-8e14-8a447a0717b4.jpg\"]","trial_type":"similarity","trial_index":34,"time_elapsed":218406,"internal_node_id":"0.0-6.0-28.0"},{"sim_score":3,"rt":3182,"stimulus":"[\"img/0904/9d30eff1-46ef-4453-b11e-124ef8145c00.jpg\",\"img/0758/67c0be2f-9e91-48b3-8219-70ac0a1802fa.jpg\"]","trial_type":"similarity","trial_index":35,"time_elapsed":222595,"internal_node_id":"0.0-6.0-29.0"},{"sim_score":5,"rt":4033,"stimulus":"[\"img/0894/3adef67d-7676-4995-80b2-bb31b8aca3ef.jpg\",\"img/0899/25ae6ec8-9565-49fe-a8bb-8d0666f52716.jpg\"]","trial_type":"similarity","trial_index":36,"time_elapsed":227634,"internal_node_id":"0.0-6.0-30.0"},{"sim_score":4,"rt":2538,"stimulus":"[\"img/0860/c5ccd1a4-4bb7-48e1-9b25-72cfaf06909b.jpg\",\"img/0904/2c98dc56-88d1-4fb5-a999-b6a7861f65f0.jpg\"]","trial_type":"similarity","trial_index":37,"time_elapsed":231179,"internal_node_id":"0.0-6.0-31.0"},{"sim_score":5,"rt":3603,"stimulus":"[\"img/0874/7e4f2150-3b59-4a36-b5da-a4e0ba410531.jpg\",\"img/0881/7e31e5dc-2240-4b1b-b5a0-3acd980099ef.jpg\"]","trial_type":"similarity","trial_index":38,"time_elapsed":235788,"internal_node_id":"0.0-6.0-32.0"},{"sim_score":4,"rt":5452,"stimulus":"[\"img/0881/ed4c971f-0873-4fc8-b6d6-e8bbd82f0bcc.jpg\",\"img/0899/f58b8d2f-b19d-4b59-8b94-8834be92e4ba.jpg\"]","trial_type":"similarity","trial_index":39,"time_elapsed":242246,"internal_node_id":"0.0-6.0-33.0"},{"sim_score":5,"rt":3335,"stimulus":"[\"img/0866/93a27239-8317-4e08-98ca-d8b1ff298e07.jpg\",\"img/0862/de9ad88c-b522-430a-8ee9-eb06a9f85df5.jpg\"]","trial_type":"similarity","trial_index":40,"time_elapsed":246588,"internal_node_id":"0.0-6.0-34.0"},{"sim_score":2,"rt":3893,"stimulus":"[\"img/0868/4a8a45ed-2c4f-421b-9564-409a33ecd26c.jpg\",\"img/0894/7f2f31fd-6618-41c6-b65a-0fd8b2851bc9.jpg\"]","trial_type":"similarity","trial_index":41,"time_elapsed":251486,"internal_node_id":"0.0-6.0-35.0"},{"sim_score":7,"rt":3541,"stimulus":"[\"img/0860/99c589b9-9140-4d17-90c0-b344323edcda.jpg\",\"img/0860/4c530c3c-6aab-492a-94d1-9c01797bde40.jpg\"]","trial_type":"similarity","trial_index":42,"time_elapsed":256035,"internal_node_id":"0.0-6.0-36.0"},{"sim_score":5,"rt":3048,"stimulus":"[\"img/0862/f23038d4-c366-4f70-979f-66b62362efa4.jpg\",\"img/0864/afcba0a3-7e27-4757-b254-e9f05fad27e2.jpg\"]","trial_type":"similarity","trial_index":43,"time_elapsed":260088,"internal_node_id":"0.0-6.0-37.0"},{"sim_score":2,"rt":3934,"stimulus":"[\"img/0766/fd064894-7147-4af5-97e9-2089d5472656.jpg\",\"img/0866/d266fece-59b3-46fa-b69f-96f6efb81b59.jpg\"]","trial_type":"similarity","trial_index":44,"time_elapsed":265028,"internal_node_id":"0.0-6.0-38.0"},{"sim_score":2,"rt":4778,"stimulus":"[\"img/0875/99698b4d-b4a1-44bc-8c83-8ea755bbbf61.jpg\",\"img/0898/79233891-305a-4a6a-8ddf-5c8604858203.jpg\"]","trial_type":"similarity","trial_index":45,"time_elapsed":270814,"internal_node_id":"0.0-6.0-39.0"},{"sim_score":4,"rt":3363,"stimulus":"[\"img/0766/f3276cc4-65de-4c2d-88d5-6cfebce14b8f.jpg\",\"img/0769/b664b502-a86c-46c1-ad6f-5ebffc2e1bd3.jpg\"]","trial_type":"similarity","trial_index":46,"time_elapsed":275181,"internal_node_id":"0.0-6.0-40.0"},{"sim_score":3,"rt":3597,"stimulus":"[\"img/0874/3ce41e7c-40c8-4d58-a546-171114521796.jpg\",\"img/0764/d0bef2e0-e16b-4c82-9451-c1d16265eb67.jpg\"]","trial_type":"similarity","trial_index":47,"time_elapsed":297105,"internal_node_id":"0.0-6.0-41.0"},{"sim_score":3,"rt":4778,"stimulus":"[\"img/0868/1a62b2b2-18f5-466e-b564-5176a57c565e.jpg\",\"img/0902/b56db912-c3c0-4fc2-b325-d640acd7cb58.jpg\"]","trial_type":"similarity","trial_index":48,"time_elapsed":302890,"internal_node_id":"0.0-6.0-42.0"},{"sim_score":1,"rt":3246,"stimulus":"[\"img/0875/cff79b3a-a797-4393-9757-6275f999ec04.jpg\",\"img/0899/00715b3f-851b-420b-a26b-d7f79f7759a9.jpg\"]","trial_type":"similarity","trial_index":49,"time_elapsed":307143,"internal_node_id":"0.0-6.0-43.0"},{"sim_score":3,"rt":4747,"stimulus":"[\"img/0866/02f5e6b9-52b7-448c-9708-5b460d0c9a23.jpg\",\"img/0860/94ef7afc-e0e6-4a15-98c6-0bfac82bc832.jpg\"]","trial_type":"similarity","trial_index":50,"time_elapsed":312897,"internal_node_id":"0.0-6.0-44.0"},{"sim_score":3,"rt":6651,"stimulus":"[\"img/0766/33aa9ebb-c9f5-418f-8c8b-c77861889568.jpg\",\"img/0903/470acfd5-5571-4a7b-b3a4-28d87e098138.jpg\"]","trial_type":"similarity","trial_index":51,"time_elapsed":320554,"internal_node_id":"0.0-6.0-45.0"},{"sim_score":3,"rt":5328,"stimulus":"[\"img/0901/62315ff5-ed95-46b4-b099-92552079659b.jpg\",\"img/0904/56e73f28-7e64-489b-a161-e6b1a063878d.jpg\"]","trial_type":"similarity","trial_index":52,"time_elapsed":326889,"internal_node_id":"0.0-6.0-46.0"},{"sim_score":2,"rt":4101,"stimulus":"[\"img/0758/3ddd05d3-557e-4ee7-8b78-9d2d681d8ae2.jpg\",\"img/0902/2db723b6-130f-454c-8c8d-88829edbcd65.jpg\"]","trial_type":"similarity","trial_index":53,"time_elapsed":331998,"internal_node_id":"0.0-6.0-47.0"},{"sim_score":7,"rt":3733,"stimulus":"[\"img/0764/a86eed5b-d0af-4c3f-8c7a-26e98e98cf1a.jpg\",\"img/0764/ca9829fe-aaf8-45b8-b98a-6bae751c63dd.jpg\"]","trial_type":"similarity","trial_index":54,"time_elapsed":336737,"internal_node_id":"0.0-6.0-48.0"},{"sim_score":1,"rt":3002,"stimulus":"[\"img/0866/be24ab58-230e-4db8-9f45-ff04c9aec6bb.jpg\",\"img/0902/07437a16-3d0f-4a5c-89ec-36d0efa4b3b8.jpg\"]","trial_type":"similarity","trial_index":55,"time_elapsed":340745,"internal_node_id":"0.0-6.0-49.0"},{"sim_score":2,"rt":5749,"stimulus":"[\"img/0764/713cc27e-2338-4486-bfe9-5f5725fbd7a0.jpg\",\"img/0758/d57c2592-a317-4f63-91be-91a3a9afd222.jpg\"]","trial_type":"similarity","trial_index":56,"time_elapsed":347502,"internal_node_id":"0.0-6.0-50.0"},{"sim_score":3,"rt":6600,"stimulus":"[\"img/0898/04e39a7a-fcf6-4156-ab0e-f5871f335e1c.jpg\",\"img/0894/38f5931f-926d-414e-b498-66b188978b7a.jpg\"]","trial_type":"similarity","trial_index":57,"time_elapsed":355111,"internal_node_id":"0.0-6.0-51.0"},{"sim_score":5,"rt":5768,"stimulus":"[\"img/0875/42910c99-5463-450a-a0f8-d4d060a11455.jpg\",\"img/0866/07c9c966-3c8d-40e7-8128-92b2acbaed5d.jpg\"]","trial_type":"similarity","trial_index":58,"time_elapsed":361885,"internal_node_id":"0.0-6.0-52.0"},{"sim_score":4,"rt":7543,"stimulus":"[\"img/0904/96e503ea-6630-4996-85f2-0237688ce441.jpg\",\"img/0904/09dac84f-3d1c-4445-a68e-d0389fdbf1e9.jpg\"]","trial_type":"similarity","trial_index":59,"time_elapsed":370435,"internal_node_id":"0.0-6.0-53.0"},{"sim_score":7,"rt":4695,"stimulus":"[\"img/0769/1d8734c4-77ab-4165-9e71-5cfe672ff01c.jpg\",\"img/0769/a3cfbdeb-acb3-4eac-87fb-4b117f42d4f8.jpg\"]","trial_type":"similarity","trial_index":60,"time_elapsed":376137,"internal_node_id":"0.0-6.0-54.0"},{"sim_score":1,"rt":4471,"stimulus":"[\"img/0898/01bfe666-3510-4fc7-964f-d00d28732dc8.jpg\",\"img/0758/e1ba5e53-addc-436a-b428-d34fc1b130dc.jpg\"]","trial_type":"similarity","trial_index":61,"time_elapsed":381614,"internal_node_id":"0.0-6.0-55.0"},{"sim_score":5,"rt":6798,"stimulus":"[\"img/0769/387a9744-d6a7-42b8-bab8-33007ec434aa.jpg\",\"img/0902/24d10fe7-314f-4d5a-8c7b-b43121bba0a4.jpg\"]","trial_type":"similarity","trial_index":62,"time_elapsed":389419,"internal_node_id":"0.0-6.0-56.0"},{"sim_score":5,"rt":3653,"stimulus":"[\"img/0864/66091c27-e588-4476-8af9-265dc6be4156.jpg\",\"img/0881/d373cb9f-a719-4549-a2a4-82def79fb2a5.jpg\"]","trial_type":"similarity","trial_index":63,"time_elapsed":394080,"internal_node_id":"0.0-6.0-57.0"},{"sim_score":3,"rt":6032,"stimulus":"[\"img/0758/7ffbc76b-1fc1-432c-8f7e-9ec8d1b3f643.jpg\",\"img/0868/15dd6fd7-791e-4b53-b203-195d617521a4.jpg\"]","trial_type":"similarity","trial_index":64,"time_elapsed":401119,"internal_node_id":"0.0-6.0-58.0"},{"sim_score":4,"rt":3736,"stimulus":"[\"img/0862/24cdc752-c2e5-4a17-86a6-6f2045d8553b.jpg\",\"img/0769/f73c5138-2f4c-4354-981c-129dff9cc734.jpg\"]","trial_type":"similarity","trial_index":65,"time_elapsed":405860,"internal_node_id":"0.0-6.0-59.0"},{"sim_score":5,"rt":4895,"stimulus":"[\"img/0764/bc3865c9-9004-4582-88a7-048478673f97.jpg\",\"img/0903/f1fa0f8d-e62b-4b4a-a174-31a0fabfe61b.jpg\"]","trial_type":"similarity","trial_index":66,"time_elapsed":411761,"internal_node_id":"0.0-6.0-60.0"},{"sim_score":7,"rt":2745,"stimulus":"[\"img/0899/57476fed-5962-4272-8fc9-b317bb777b54.jpg\",\"img/0899/1b3457ea-87d4-4946-a01c-aac1863ed46c.jpg\"]","trial_type":"similarity","trial_index":67,"time_elapsed":415512,"internal_node_id":"0.0-6.0-61.0"},{"sim_score":4,"rt":4055,"stimulus":"[\"img/0860/5bff793e-cbd5-4d7e-b628-0ac2b0e30b64.jpg\",\"img/0875/d59ff733-eaff-4ee2-9443-06954dd0bcb6.jpg\"]","trial_type":"similarity","trial_index":68,"time_elapsed":420574,"internal_node_id":"0.0-6.0-62.0"},{"sim_score":4,"rt":5332,"stimulus":"[\"img/0868/fd307a36-9a3a-47d7-ab7c-f810d0b35040.jpg\",\"img/0874/ca76a855-4e77-4f2f-872a-0a718153e7ed.jpg\"]","trial_type":"similarity","trial_index":69,"time_elapsed":426914,"internal_node_id":"0.0-6.0-63.0"},{"sim_score":5,"rt":7083,"stimulus":"[\"img/0758/dd559618-7f09-4a07-8018-d311c4a5ea29.jpg\",\"img/0862/ee3b7bff-4a70-4e84-9bea-4a565e456acb.jpg\"]","trial_type":"similarity","trial_index":70,"time_elapsed":435002,"internal_node_id":"0.0-6.0-64.0"},{"sim_score":4,"rt":3223,"stimulus":"[\"img/0904/65e2b70a-b184-4da3-b5c0-5038bdf9469a.jpg\",\"img/0898/26c41340-15bd-4ead-8fe4-c0d0ddca09c2.jpg\"]","trial_type":"similarity","trial_index":71,"time_elapsed":439230,"internal_node_id":"0.0-6.0-65.0"},{"sim_score":4,"rt":7179,"stimulus":"[\"img/0881/f8bd891e-aa09-4782-89db-33e7cb2b0cf1.jpg\",\"img/0866/9b38d691-1802-4959-ab3f-fc902f0e4ea6.jpg\"]","trial_type":"similarity","trial_index":72,"time_elapsed":447415,"internal_node_id":"0.0-6.0-66.0"},{"sim_score":2,"rt":2876,"stimulus":"[\"img/0867/db7e032f-162b-46f5-ae67-2b29679adee4.jpg\",\"img/0898/f3a3f225-1248-4ac7-b93b-f0ff28485bf3.jpg\"]","trial_type":"similarity","trial_index":73,"time_elapsed":451298,"internal_node_id":"0.0-6.0-67.0"},{"sim_score":4,"rt":3067,"stimulus":"[\"img/0902/71c03003-03ef-4b0f-8229-e0c857150a5d.jpg\",\"img/0764/f9f890e6-3c2f-40cd-84e9-85e0b54cb28e.jpg\"]","trial_type":"similarity","trial_index":74,"time_elapsed":455372,"internal_node_id":"0.0-6.0-68.0"},{"sim_score":4,"rt":2852,"stimulus":"[\"img/0875/3ecb367d-e9eb-4826-8aaa-7aa72fb98019.jpg\",\"img/0867/8ba0c5a7-c7e4-42cf-a80a-543763b90779.jpg\"]","trial_type":"similarity","trial_index":75,"time_elapsed":459231,"internal_node_id":"0.0-6.0-69.0"},{"sim_score":5,"rt":4690,"stimulus":"[\"img/0766/79767d11-b612-4e8a-9e4b-a8ac95bb6a54.jpg\",\"img/0764/e30dba15-e68a-4659-89db-e1654b52fe02.jpg\"]","trial_type":"similarity","trial_index":76,"time_elapsed":464927,"internal_node_id":"0.0-6.0-70.0"},{"sim_score":2,"rt":4431,"stimulus":"[\"img/0894/7fb082e0-ce79-485c-9109-04367fb32275.jpg\",\"img/0867/c66898ba-b71b-4d50-84f9-f7f84853a98d.jpg\"]","trial_type":"similarity","trial_index":77,"time_elapsed":470366,"internal_node_id":"0.0-6.0-71.0"},{"sim_score":1,"rt":5629,"stimulus":"[\"img/0875/2c361b79-c3d1-4eda-812e-bf03192407bf.jpg\",\"img/0764/ef0e64c6-d0dd-4dc6-87b6-ce5c0665f421.jpg\"]","trial_type":"similarity","trial_index":78,"time_elapsed":477001,"internal_node_id":"0.0-6.0-72.0"},{"sim_score":7,"rt":3256,"stimulus":"[\"img/0867/bf560d4f-dee3-4f11-a385-705cc1aa5f3c.jpg\",\"img/0866/386235d2-6857-41e7-88a8-25cfc3430025.jpg\"]","trial_type":"similarity","trial_index":79,"time_elapsed":481262,"internal_node_id":"0.0-6.0-73.0"},{"sim_score":3,"rt":4402,"stimulus":"[\"img/0903/5995f4a8-fa82-46f8-8760-fd7800a5ca34.jpg\",\"img/0758/b76ceca7-95ac-46e4-ac13-da02c8e93be9.jpg\"]","trial_type":"similarity","trial_index":80,"time_elapsed":486671,"internal_node_id":"0.0-6.0-74.0"},{"sim_score":1,"rt":3061,"stimulus":"[\"img/0766/e8052e17-9dae-4139-802b-6e590cb2d526.jpg\",\"img/0868/179a5502-ab5c-478e-8263-5a1fbcc101d2.jpg\"]","trial_type":"similarity","trial_index":81,"time_elapsed":490739,"internal_node_id":"0.0-6.0-75.0"},{"sim_score":3,"rt":3706,"stimulus":"[\"img/0874/93d1f8dc-acf2-4f03-bd8d-8ec35df276ed.jpg\",\"img/0766/75c3d627-4f3b-40d5-9d9c-10c8a62db644.jpg\"]","trial_type":"similarity","trial_index":82,"time_elapsed":495452,"internal_node_id":"0.0-6.0-76.0"},{"sim_score":4,"rt":4327,"stimulus":"[\"img/0881/84397291-bc14-4fbf-90e8-241e486ab0fe.jpg\",\"img/0868/8b0b8473-e2c0-4331-aa56-c3a5c29369da.jpg\"]","trial_type":"similarity","trial_index":83,"time_elapsed":500785,"internal_node_id":"0.0-6.0-77.0"},{"sim_score":1,"rt":5348,"stimulus":"[\"img/0758/9fb5b2fe-3f00-4fe6-973c-1ce10d5f4cd5.jpg\",\"img/0901/d4d09bf5-093e-4050-838e-7c738be8e63c.jpg\"]","trial_type":"similarity","trial_index":84,"time_elapsed":507140,"internal_node_id":"0.0-6.0-78.0"},{"sim_score":2,"rt":4353,"stimulus":"[\"img/0881/633c6f40-56d9-4b48-bf1c-ecd83116eabb.jpg\",\"img/0898/68476bbb-34a1-42d9-8bc1-deab783d4489.jpg\"]","trial_type":"similarity","trial_index":85,"time_elapsed":512497,"internal_node_id":"0.0-6.0-79.0"},{"sim_score":4,"rt":3110,"stimulus":"[\"img/0867/c71dc569-f49c-4397-8381-68b8d726736d.jpg\",\"img/0758/e38fd80d-18d0-42f3-b848-f930788e8bd7.jpg\"]","trial_type":"similarity","trial_index":86,"time_elapsed":516613,"internal_node_id":"0.0-6.0-80.0"},{"sim_score":6,"rt":3589,"stimulus":"[\"img/0769/0fe124d3-bcad-45f6-b64d-8f6eb8ee5251.jpg\",\"img/0899/565ccdd9-0933-4536-a625-3c0e25a713dd.jpg\"]","trial_type":"similarity","trial_index":87,"time_elapsed":521209,"internal_node_id":"0.0-6.0-81.0"},{"sim_score":7,"rt":3479,"stimulus":"[\"img/0903/2c7b4aed-6038-4aac-958a-e3e58341c313.jpg\",\"img/0903/72197c2b-403e-4a26-b391-f1aa8dea4b76.jpg\"]","trial_type":"similarity","trial_index":88,"time_elapsed":525695,"internal_node_id":"0.0-6.0-82.0"},{"sim_score":2,"rt":5392,"stimulus":"[\"img/0867/85a96c62-548f-4994-9553-819e03c3135a.jpg\",\"img/0766/26d3ae14-8275-4e08-99b2-a6598c193ddf.jpg\"]","trial_type":"similarity","trial_index":89,"time_elapsed":541409,"internal_node_id":"0.0-6.0-83.0"},{"sim_score":3,"rt":3251,"stimulus":"[\"img/0902/30c420f5-c714-4681-ae5a-c0ba8f636a26.jpg\",\"img/0867/a749dddb-69f0-44a6-acdc-2bf295cf6dcc.jpg\"]","trial_type":"similarity","trial_index":90,"time_elapsed":545666,"internal_node_id":"0.0-6.0-84.0"},{"sim_score":1,"rt":3573,"stimulus":"[\"img/0901/ae1e6ce4-2e10-4ca9-b1e7-21628637ab74.jpg\",\"img/0875/34132396-d896-4c2d-8087-646dd867e769.jpg\"]","trial_type":"similarity","trial_index":91,"time_elapsed":550244,"internal_node_id":"0.0-6.0-85.0"},{"sim_score":1,"rt":2790,"stimulus":"[\"img/0764/e48e6c6f-9e28-420f-836a-8043b2319bb4.jpg\",\"img/0866/bf14b5bd-fb55-47db-86b9-4f8aeb9a6dad.jpg\"]","trial_type":"similarity","trial_index":92,"time_elapsed":554040,"internal_node_id":"0.0-6.0-86.0"},{"sim_score":5,"rt":3861,"stimulus":"[\"img/0901/693e0535-ef7e-4d60-af9d-fac2f38e8307.jpg\",\"img/0894/5a49e858-2850-4892-9a06-e9f0efb5f94d.jpg\"]","trial_type":"similarity","trial_index":93,"time_elapsed":558909,"internal_node_id":"0.0-6.0-87.0"},{"sim_score":6,"rt":2732,"stimulus":"[\"img/0898/a114b375-cb89-44ba-9498-74213f1ecdee.jpg\",\"img/0769/f229321f-04dd-42d7-b14a-ffad6b509862.jpg\"]","trial_type":"similarity","trial_index":94,"time_elapsed":562646,"internal_node_id":"0.0-6.0-88.0"},{"sim_score":6,"rt":3014,"stimulus":"[\"img/0769/da36e3f7-2337-434f-ab57-11822dd7eed7.jpg\",\"img/0894/6aa5545f-fa7d-4286-bbaa-aaf34dc7ec96.jpg\"]","trial_type":"similarity","trial_index":95,"time_elapsed":566667,"internal_node_id":"0.0-6.0-89.0"},{"sim_score":5,"rt":3447,"stimulus":"[\"img/0862/57b6f83f-c763-4858-830d-102f97bfefbf.jpg\",\"img/0874/8cdb1c07-1c32-46d2-981c-3636560fa6e5.jpg\"]","trial_type":"similarity","trial_index":96,"time_elapsed":571120,"internal_node_id":"0.0-6.0-90.0"},{"sim_score":5,"rt":2680,"stimulus":"[\"img/0894/2d2db7b3-e8a3-499b-b63a-14f51bf73882.jpg\",\"img/0766/717fd72f-a281-499b-a5ba-5e2ecc4d4866.jpg\"]","trial_type":"similarity","trial_index":97,"time_elapsed":574805,"internal_node_id":"0.0-6.0-91.0"},{"sim_score":5,"rt":3507,"stimulus":"[\"img/0874/adf9a8f1-c40b-402b-b95b-1e85a54a7b62.jpg\",\"img/0867/98d8cd96-1476-4fe0-a3a3-04f875500a1b.jpg\"]","trial_type":"similarity","trial_index":98,"time_elapsed":579319,"internal_node_id":"0.0-6.0-92.0"},{"sim_score":1,"rt":4675,"stimulus":"[\"img/0899/a05bea16-2bb4-4cb9-b8fb-4ff975db6971.jpg\",\"img/0868/e0aff734-077f-40dd-9781-74821abd3621.jpg\"]","trial_type":"similarity","trial_index":99,"time_elapsed":585002,"internal_node_id":"0.0-6.0-93.0"},{"sim_score":5,"rt":3386,"stimulus":"[\"img/0903/6b5dcc60-3ad3-4962-93e5-e6cf768477af.jpg\",\"img/0862/92fcd8a4-8193-4a6a-ae09-dd4a6338b0df.jpg\"]","trial_type":"similarity","trial_index":100,"time_elapsed":589394,"internal_node_id":"0.0-6.0-94.0"},{"sim_score":6,"rt":3567,"stimulus":"[\"img/0899/8abe6c69-822c-436c-9bf2-96c818b49ba5.jpg\",\"img/0766/110832e5-2646-4bd0-a94e-5df8cc314269.jpg\"]","trial_type":"similarity","trial_index":101,"time_elapsed":593967,"internal_node_id":"0.0-6.0-95.0"},{"sim_score":5,"rt":4882,"stimulus":"[\"img/0867/1719a35d-f085-48c0-9099-16c94fe418b4.jpg\",\"img/0868/5fa7f9d0-f0e5-454c-8224-74d964818f56.jpg\"]","trial_type":"similarity","trial_index":102,"time_elapsed":599856,"internal_node_id":"0.0-6.0-96.0"},{"sim_score":5,"rt":3925,"stimulus":"[\"img/0862/ba89835a-408c-480b-8594-ed4ffa97eb5c.jpg\",\"img/0901/233a6948-48eb-4b67-8259-222b916b2322.jpg\"]","trial_type":"similarity","trial_index":103,"time_elapsed":604787,"internal_node_id":"0.0-6.0-97.0"},{"sim_score":1,"rt":3245,"stimulus":"[\"img/0875/fb732ab5-013a-4366-9f65-27811ed157e9.jpg\",\"img/0766/a1ed3f0f-e338-4a26-8fe4-4370f0c9fa6e.jpg\"]","trial_type":"similarity","trial_index":104,"time_elapsed":609039,"internal_node_id":"0.0-6.0-98.0"},{"sim_score":6,"rt":5073,"stimulus":"[\"img/0758/caa93da2-9edf-49fa-96b9-32dedd8f5078.jpg\",\"img/0874/bf14b896-e930-4fd9-9c05-2e83317a2773.jpg\"]","trial_type":"similarity","trial_index":105,"time_elapsed":615118,"internal_node_id":"0.0-6.0-99.0"},{"sim_score":3,"rt":3392,"stimulus":"[\"img/0904/a8c3c7d2-9bcf-4347-9e03-8203adfc1fc5.jpg\",\"img/0868/3a62db2d-97e9-44a3-b8e3-a48c6f0e423b.jpg\"]","trial_type":"similarity","trial_index":106,"time_elapsed":619517,"internal_node_id":"0.0-6.0-100.0"},{"sim_score":3,"rt":3993,"stimulus":"[\"img/0903/81368973-de81-46f4-844f-b901f3bfd66d.jpg\",\"img/0866/6f2a90d7-14f1-4f1b-bd64-fc0af6b9fe44.jpg\"]","trial_type":"similarity","trial_index":107,"time_elapsed":624516,"internal_node_id":"0.0-6.0-101.0"},{"sim_score":1,"rt":2634,"stimulus":"[\"img/0868/6a28c3b0-3d76-498a-9fb7-ddafc665eca8.jpg\",\"img/0769/35f2dd39-40aa-498e-b401-9f1ef2622d00.jpg\"]","trial_type":"similarity","trial_index":108,"time_elapsed":628156,"internal_node_id":"0.0-6.0-102.0"},{"sim_score":5,"rt":3312,"stimulus":"[\"img/0902/97022122-01e4-46c3-a34f-c6260ad28428.jpg\",\"img/0899/ad8268c5-8199-48d0-ad70-c5b6d6c599ec.jpg\"]","trial_type":"similarity","trial_index":109,"time_elapsed":632474,"internal_node_id":"0.0-6.0-103.0"},{"sim_score":5,"rt":2917,"stimulus":"[\"img/0868/77091fc7-a590-4ebb-b915-fdb2483a2399.jpg\",\"img/0862/d0ca4c78-fc35-46ed-bdcc-8e124283c53e.jpg\"]","trial_type":"similarity","trial_index":110,"time_elapsed":636397,"internal_node_id":"0.0-6.0-104.0"},{"sim_score":6,"rt":2759,"stimulus":"[\"img/0903/8fcafe03-43df-4c45-9da5-0df3a1eeccc5.jpg\",\"img/0894/43216a7f-27bc-4b5a-8841-d122a30da9d9.jpg\"]","trial_type":"similarity","trial_index":111,"time_elapsed":640164,"internal_node_id":"0.0-6.0-105.0"},{"sim_score":4,"rt":4307,"stimulus":"[\"img/0864/3d4de670-b290-4285-9c3d-12a0e3af44e9.jpg\",\"img/0874/29830da7-be5f-44e5-b141-652a0ccf7269.jpg\"]","trial_type":"similarity","trial_index":112,"time_elapsed":645478,"internal_node_id":"0.0-6.0-106.0"},{"sim_score":3,"rt":4338,"stimulus":"[\"img/0862/fb26cb07-d5a9-4653-813c-f41609f26cd5.jpg\",\"img/0902/8065aa6b-4aef-4368-afa2-02c6465ca582.jpg\"]","trial_type":"similarity","trial_index":113,"time_elapsed":650823,"internal_node_id":"0.0-6.0-107.0"},{"sim_score":7,"rt":4688,"stimulus":"[\"img/0904/e9423a8c-f946-43ad-ab7b-931acef870e2.jpg\",\"img/0903/8f7f9939-b8e6-433f-93dd-b362496c80a7.jpg\"]","trial_type":"similarity","trial_index":114,"time_elapsed":656517,"internal_node_id":"0.0-6.0-108.0"},{"sim_score":4,"rt":5105,"stimulus":"[\"img/0764/4bec8d92-75aa-475a-954d-8215dbe538f5.jpg\",\"img/0864/49150900-7f25-4ce8-8d10-9b47a71d1997.jpg\"]","trial_type":"similarity","trial_index":115,"time_elapsed":662630,"internal_node_id":"0.0-6.0-109.0"},{"sim_score":3,"rt":3769,"stimulus":"[\"img/0866/d493a2c8-66eb-44b4-be02-2f327b700b7c.jpg\",\"img/0894/767a0eec-1064-46b1-b1aa-dfa02b0cd74e.jpg\"]","trial_type":"similarity","trial_index":116,"time_elapsed":667405,"internal_node_id":"0.0-6.0-110.0"},{"sim_score":5,"rt":3443,"stimulus":"[\"img/0899/66bf4113-ee12-426c-84d2-ea410b6c803e.jpg\",\"img/0903/9b60ef5b-234f-4239-892b-3d4c412accc2.jpg\"]","trial_type":"similarity","trial_index":117,"time_elapsed":671856,"internal_node_id":"0.0-6.0-111.0"},{"sim_score":7,"rt":4021,"stimulus":"[\"img/0902/c9c74d2d-9b82-42d7-a9d0-3b8ff67ff81e.jpg\",\"img/0904/73920552-103b-4c9c-9ece-e0b8376b4504.jpg\"]","trial_type":"similarity","trial_index":118,"time_elapsed":676881,"internal_node_id":"0.0-6.0-112.0"},{"sim_score":3,"rt":6019,"stimulus":"[\"img/0864/ea327690-500b-4137-bf91-451b309fe6a5.jpg\",\"img/0860/702bd09d-df3a-40aa-a267-5f04474305b5.jpg\"]","trial_type":"similarity","trial_index":119,"time_elapsed":683907,"internal_node_id":"0.0-6.0-113.0"},{"sim_score":3,"rt":5384,"stimulus":"[\"img/0860/4a022222-056d-461c-ab02-39fac9647552.jpg\",\"img/0899/a048912c-b12c-40e3-90af-46b69b0cc4fe.jpg\"]","trial_type":"similarity","trial_index":120,"time_elapsed":690297,"internal_node_id":"0.0-6.0-114.0"},{"sim_score":2,"rt":4462,"stimulus":"[\"img/0881/5fe04dd0-5c74-47b7-99c8-b068db9ca26a.jpg\",\"img/0903/45e2d600-57ff-4d69-b22c-0c7896cd38f0.jpg\"]","trial_type":"similarity","trial_index":121,"time_elapsed":695767,"internal_node_id":"0.0-6.0-115.0"},{"sim_score":1,"rt":3023,"stimulus":"[\"img/0894/1b3888e6-cf36-4c4a-a039-187aa5cb71ac.jpg\",\"img/0874/a3bc679d-619f-4db6-bb68-116dcb757d9c.jpg\"]","trial_type":"similarity","trial_index":122,"time_elapsed":699796,"internal_node_id":"0.0-6.0-116.0"},{"sim_score":5,"rt":3120,"stimulus":"[\"img/0881/609a5e93-38b5-4940-8627-2bf8fad7f802.jpg\",\"img/0862/f43ceabf-acc1-4107-b857-5d1849808f93.jpg\"]","trial_type":"similarity","trial_index":123,"time_elapsed":703923,"internal_node_id":"0.0-6.0-117.0"},{"sim_score":4,"rt":2810,"stimulus":"[\"img/0868/09a9ef4d-d000-4cfa-a6aa-ebec7c2edeb4.jpg\",\"img/0875/03c3c331-738b-4446-af92-3d7386b08c2e.jpg\"]","trial_type":"similarity","trial_index":124,"time_elapsed":707739,"internal_node_id":"0.0-6.0-118.0"},{"sim_score":5,"rt":3660,"stimulus":"[\"img/0860/17b44a7d-c5ca-479f-9e87-f65a64f5c80e.jpg\",\"img/0758/ddc336e9-a8b6-4bb9-937a-c7e25e0e9250.jpg\"]","trial_type":"similarity","trial_index":125,"time_elapsed":712404,"internal_node_id":"0.0-6.0-119.0"},{"sim_score":4,"rt":2443,"stimulus":"[\"img/0864/65210d57-1153-4657-886a-32e758f49b4a.jpg\",\"img/0875/ebf7653f-ff45-4e9f-af58-2c042ab3cd2b.jpg\"]","trial_type":"similarity","trial_index":126,"time_elapsed":715853,"internal_node_id":"0.0-6.0-120.0"},{"sim_score":3,"rt":2593,"stimulus":"[\"img/0898/224c1572-56b9-4f16-a9e4-6f3bc9c114bd.jpg\",\"img/0866/a04d37f0-99dd-478a-b6c6-58b215138f84.jpg\"]","trial_type":"similarity","trial_index":127,"time_elapsed":719452,"internal_node_id":"0.0-6.0-121.0"},{"sim_score":3,"rt":3569,"stimulus":"[\"img/0874/1016b306-087c-4afc-aa08-fa527b28dc76.jpg\",\"img/0904/ba8e689e-9ca6-4608-a2a1-3b0940666ae6.jpg\"]","trial_type":"similarity","trial_index":128,"time_elapsed":724027,"internal_node_id":"0.0-6.0-122.0"},{"sim_score":3,"rt":5008,"stimulus":"[\"img/0904/25365108-e038-4021-aac9-797f2063b337.jpg\",\"img/0864/da39ad34-04e0-40d4-a724-c08d53e0ea09.jpg\"]","trial_type":"similarity","trial_index":129,"time_elapsed":730041,"internal_node_id":"0.0-6.0-123.0"},{"sim_score":6,"rt":6739,"stimulus":"[\"img/0894/8cadb87a-7001-4e47-99fb-1867bebf1668.jpg\",\"img/0902/b03129ba-b087-4558-af37-e8399d6217d6.jpg\"]","trial_type":"similarity","trial_index":130,"time_elapsed":737788,"internal_node_id":"0.0-6.0-124.0"},{"sim_score":5,"rt":3714,"stimulus":"[\"img/0868/0d3abd3a-b6c3-4584-a9f7-e2da63748b3d.jpg\",\"img/0864/e336a4c5-6648-4fd7-b2f6-93a3fb83f8c6.jpg\"]","trial_type":"similarity","trial_index":131,"time_elapsed":745200,"internal_node_id":"0.0-6.0-125.0"},{"sim_score":1,"rt":2693,"stimulus":"[\"img/0899/06b0fc99-0581-461a-9913-d1a5a941ac61.jpg\",\"img/0866/a15b02be-11bb-43e3-b0e0-ecc3bd7dfc49.jpg\"]","trial_type":"similarity","trial_index":132,"time_elapsed":748902,"internal_node_id":"0.0-6.0-126.0"},{"sim_score":1,"rt":3603,"stimulus":"[\"img/0875/2e13d160-eea1-416b-aff1-d37ab99ecc1d.jpg\",\"img/0904/09934646-45d2-4147-8fec-64a22a5ac822.jpg\"]","trial_type":"similarity","trial_index":133,"time_elapsed":753510,"internal_node_id":"0.0-6.0-127.0"},{"sim_score":1,"rt":2928,"stimulus":"[\"img/0867/ac1797e4-8afc-48fe-b252-86d1defb1cca.jpg\",\"img/0899/76ad07e2-ca25-45eb-84f2-8d80b8ca3e26.jpg\"]","trial_type":"similarity","trial_index":134,"time_elapsed":757445,"internal_node_id":"0.0-6.0-128.0"},{"sim_score":1,"rt":4704,"stimulus":"[\"img/0901/d6d15b1c-4a30-4f74-a3fd-d4c8ee4169ca.jpg\",\"img/0867/7d1c497b-c1b3-4ed8-abb5-d7f73306015f.jpg\"]","trial_type":"similarity","trial_index":135,"time_elapsed":763159,"internal_node_id":"0.0-6.0-129.0"},{"sim_score":3,"rt":4034,"stimulus":"[\"img/0864/9b2490c5-a282-400a-9736-e1a0ecbf1cb7.jpg\",\"img/0769/8056889f-2b14-4782-bb25-b4e8896ab65b.jpg\"]","trial_type":"similarity","trial_index":136,"time_elapsed":768196,"internal_node_id":"0.0-6.0-130.0"},{"sim_score":1,"rt":3411,"stimulus":"[\"img/0903/bf0a7d60-eca5-44b0-bafd-baf21db9904b.jpg\",\"img/0868/d6d1f30d-4323-435a-b194-7892521bc57e.jpg\"]","trial_type":"similarity","trial_index":137,"time_elapsed":772614,"internal_node_id":"0.0-6.0-131.0"},{"sim_score":4,"rt":4260,"stimulus":"[\"img/0864/b3c4e378-28f0-4699-9338-2a257b4bca04.jpg\",\"img/0867/6e19c858-b606-45b2-a4c6-910a73f1d82c.jpg\"]","trial_type":"similarity","trial_index":138,"time_elapsed":777882,"internal_node_id":"0.0-6.0-132.0"},{"sim_score":4,"rt":3562,"stimulus":"[\"img/0901/c6df1a21-44ed-47c2-960e-7c52220e329e.jpg\",\"img/0860/71e1aad0-2cdf-43bb-94a4-a8c016997c30.jpg\"]","trial_type":"similarity","trial_index":139,"time_elapsed":782450,"internal_node_id":"0.0-6.0-133.0"},{"sim_score":4,"rt":2265,"stimulus":"[\"img/0881/44e09805-5a25-4f17-a716-4ad4a331b174.jpg\",\"img/0766/2e1cf445-9aef-40e7-92f4-5facf48b64c5.jpg\"]","trial_type":"similarity","trial_index":140,"time_elapsed":785722,"internal_node_id":"0.0-6.0-134.0"},{"sim_score":5,"rt":4229,"stimulus":"[\"img/0903/8931c67c-a43d-47d3-a4c9-42aa2f81d344.jpg\",\"img/0864/efcfbb1b-8197-44c9-b723-40d6c608dd3c.jpg\"]","trial_type":"similarity","trial_index":141,"time_elapsed":790957,"internal_node_id":"0.0-6.0-135.0"},{"sim_score":3,"rt":3311,"stimulus":"[\"img/0758/6e95579b-5166-487c-b8cb-e417c6a218e3.jpg\",\"img/0894/3664e04c-c6d3-4c9b-afb6-25d89974b174.jpg\"]","trial_type":"similarity","trial_index":142,"time_elapsed":795275,"internal_node_id":"0.0-6.0-136.0"},{"sim_score":4,"rt":3511,"stimulus":"[\"img/0769/48a1144d-fbda-4809-991b-fc8424a32ee4.jpg\",\"img/0860/c7047cd2-7cc1-41b6-8a34-c0986774975f.jpg\"]","trial_type":"similarity","trial_index":143,"time_elapsed":799791,"internal_node_id":"0.0-6.0-137.0"},{"sim_score":5,"rt":4037,"stimulus":"[\"img/0904/4d7d70a3-9477-4921-bda0-f9531d0a5c5b.jpg\",\"img/0766/69e486f7-dbef-456b-9d48-53d814248a28.jpg\"]","trial_type":"similarity","trial_index":144,"time_elapsed":804835,"internal_node_id":"0.0-6.0-138.0"},{"sim_score":5,"rt":2944,"stimulus":"[\"img/0868/83b4350a-3b70-4cea-b7f5-b5b56f3050a8.jpg\",\"img/0860/18dfed73-e36b-4487-a8bd-0b8cff8e3668.jpg\"]","trial_type":"similarity","trial_index":145,"time_elapsed":808786,"internal_node_id":"0.0-6.0-139.0"},{"sim_score":6,"rt":3420,"stimulus":"[\"img/0758/53f35650-e455-4b53-8be4-c3c8271c6466.jpg\",\"img/0864/87c467d3-abca-482f-ad80-3766c21b1bb3.jpg\"]","trial_type":"similarity","trial_index":146,"time_elapsed":813213,"internal_node_id":"0.0-6.0-140.0"},{"sim_score":7,"rt":4128,"stimulus":"[\"img/0867/de92135f-5b65-4ed9-b245-188292c7c2f8.jpg\",\"img/0867/5e07b34d-b40f-4b1c-ac10-49975bace45f.jpg\"]","trial_type":"similarity","trial_index":147,"time_elapsed":818348,"internal_node_id":"0.0-6.0-141.0"},{"sim_score":7,"rt":3963,"stimulus":"[\"img/0898/c3cecf20-f7fd-45fa-97d0-dc0a63e8d6c0.jpg\",\"img/0898/993d8f2d-bef7-4251-a193-0f93a32b7763.jpg\"]","trial_type":"similarity","trial_index":148,"time_elapsed":823317,"internal_node_id":"0.0-6.0-142.0"},{"sim_score":3,"rt":5021,"stimulus":"[\"img/0866/945c6710-d15b-4a5b-a8f6-69af0850357f.jpg\",\"img/0769/c7cfacc3-7f07-46ff-9f5d-8073f4c4679b.jpg\"]","trial_type":"similarity","trial_index":149,"time_elapsed":829347,"internal_node_id":"0.0-6.0-143.0"},{"sim_score":4,"rt":2552,"stimulus":"[\"img/0860/61fb959d-d4d9-4de4-9e4e-4fa62b4cfcd5.jpg\",\"img/0898/b2732712-71c2-45d8-834f-2b2ed5504910.jpg\"]","trial_type":"similarity","trial_index":150,"time_elapsed":832903,"internal_node_id":"0.0-6.0-144.0"},{"sim_score":3,"rt":3827,"stimulus":"[\"img/0766/3c526a07-9e0a-4ae2-8142-00085f0127da.jpg\",\"img/0864/1d15626a-2f7c-410f-819c-0fa2c967e95e.jpg\"]","trial_type":"similarity","trial_index":151,"time_elapsed":837735,"internal_node_id":"0.0-6.0-145.0"},{"sim_score":5,"rt":4092,"stimulus":"[\"img/0860/87039971-2210-4aab-93c0-8e9b5f1655b2.jpg\",\"img/0903/2a9c8033-3e70-47fa-816d-97ee1813a3a3.jpg\"]","trial_type":"similarity","trial_index":152,"time_elapsed":842833,"internal_node_id":"0.0-6.0-146.0"},{"sim_score":1,"rt":3608,"stimulus":"[\"img/0867/f8159067-056c-41f1-a136-c529fe5e970a.jpg\",\"img/0764/fb92924f-5cfe-4b89-b130-0cce8cc5636b.jpg\"]","trial_type":"similarity","trial_index":153,"time_elapsed":847447,"internal_node_id":"0.0-6.0-147.0"},{"sim_score":5,"rt":3162,"stimulus":"[\"img/0769/688d0c52-ad73-4065-a5eb-f8c10d076bff.jpg\",\"img/0904/d23dd7be-7fe8-4435-82f7-bd592c01e6a1.jpg\"]","trial_type":"similarity","trial_index":154,"time_elapsed":851616,"internal_node_id":"0.0-6.0-148.0"},{"sim_score":4,"rt":4937,"stimulus":"[\"img/0764/06ea144f-f4f3-4a14-ba47-f20f35c561e0.jpg\",\"img/0901/4ca4f962-40c0-4c59-b14a-3cd7b8c9029b.jpg\"]","trial_type":"similarity","trial_index":155,"time_elapsed":857560,"internal_node_id":"0.0-6.0-149.0"},{"sim_score":5,"rt":2980,"stimulus":"[\"img/0904/63dd06dd-dccb-47ba-9740-eb33239e18a7.jpg\",\"img/0899/93494f3b-d539-4075-b027-d82e344563da.jpg\"]","trial_type":"similarity","trial_index":156,"time_elapsed":861545,"internal_node_id":"0.0-6.0-150.0"},{"sim_score":5,"rt":3459,"stimulus":"[\"img/0862/e697469a-ec19-4414-b972-7b9f3564785b.jpg\",\"img/0867/cc72ed48-7704-422c-86d6-467a1145287a.jpg\"]","trial_type":"similarity","trial_index":157,"time_elapsed":866011,"internal_node_id":"0.0-6.0-151.0"},{"sim_score":7,"rt":3193,"stimulus":"[\"img/0766/f011ef45-fb48-44b8-8224-867ed2ccf786.jpg\",\"img/0766/1bc0dccc-a5b5-4375-87fa-28360ca42b12.jpg\"]","trial_type":"similarity","trial_index":158,"time_elapsed":870213,"internal_node_id":"0.0-6.0-152.0"},{"sim_score":3,"rt":3797,"stimulus":"[\"img/0862/064818ee-13d5-4618-bb24-21c7368ea278.jpg\",\"img/0894/11674fa4-285d-44e2-939f-2228c6a64080.jpg\"]","trial_type":"similarity","trial_index":159,"time_elapsed":875018,"internal_node_id":"0.0-6.0-153.0"},{"sim_score":5,"rt":3139,"stimulus":"[\"img/0899/4408c14d-c168-4a7d-96f6-bc87bfb58f83.jpg\",\"img/0901/a373612d-67e2-4fec-9764-21d3d6ef6359.jpg\"]","trial_type":"similarity","trial_index":160,"time_elapsed":879166,"internal_node_id":"0.0-6.0-154.0"},{"sim_score":6,"rt":4304,"stimulus":"[\"img/0874/995f0332-0439-4eb4-add3-957335dbf6d9.jpg\",\"img/0874/3f471690-9788-4d03-90c7-f615aecef149.jpg\"]","trial_type":"similarity","trial_index":161,"time_elapsed":884476,"internal_node_id":"0.0-6.0-155.0"},{"sim_score":5,"rt":2940,"stimulus":"[\"img/0860/15b24a61-25be-4356-9eac-5ce95d0cb4a4.jpg\",\"img/0867/a498eef3-9fa4-4ab2-9778-4ae82ac40dc5.jpg\"]","trial_type":"similarity","trial_index":162,"time_elapsed":888422,"internal_node_id":"0.0-6.0-156.0"},{"sim_score":3,"rt":4212,"stimulus":"[\"img/0901/1b86f2fc-7a1d-4aa8-9252-114f92edef3b.jpg\",\"img/0881/db77fe00-aeb0-4d1d-aa66-f3a96fd077e4.jpg\"]","trial_type":"similarity","trial_index":163,"time_elapsed":893639,"internal_node_id":"0.0-6.0-157.0"},{"sim_score":6,"rt":4148,"stimulus":"[\"img/0903/47e39de8-6959-469f-8be9-6999a6db207c.jpg\",\"img/0902/cdec1bc6-7f90-4f72-9e01-f5a4111bac1d.jpg\"]","trial_type":"similarity","trial_index":164,"time_elapsed":898793,"internal_node_id":"0.0-6.0-158.0"},{"sim_score":4,"rt":3543,"stimulus":"[\"img/0860/fd4662f9-4c03-4d79-8593-06735e55a64b.jpg\",\"img/0764/21e3292f-01ad-4238-828b-61b817857d16.jpg\"]","trial_type":"similarity","trial_index":165,"time_elapsed":903343,"internal_node_id":"0.0-6.0-159.0"},{"sim_score":3,"rt":6375,"stimulus":"[\"img/0902/d2c34af0-8c50-437d-8cc3-619195a3e8ba.jpg\",\"img/0875/a4935837-7d3c-4df6-88c1-36a94d4991ca.jpg\"]","trial_type":"similarity","trial_index":166,"time_elapsed":910724,"internal_node_id":"0.0-6.0-160.0"},{"sim_score":4,"rt":4556,"stimulus":"[\"img/0898/6cd3830b-d44e-4915-be2b-88d31424b91c.jpg\",\"img/0862/92f0146c-20c4-482e-aef5-adb693790338.jpg\"]","trial_type":"similarity","trial_index":167,"time_elapsed":916288,"internal_node_id":"0.0-6.0-161.0"},{"sim_score":2,"rt":3585,"stimulus":"[\"img/0894/b422d5c6-3c5a-49ae-a53e-7e88ac993f49.jpg\",\"img/0875/8521fd58-3b1e-4dc5-97ae-804edfa6734a.jpg\"]","trial_type":"similarity","trial_index":168,"time_elapsed":920878,"internal_node_id":"0.0-6.0-162.0"},{"sim_score":4,"rt":4705,"stimulus":"[\"img/0866/8efcaa46-83ab-4dee-a35f-850402aa21ae.jpg\",\"img/0864/5f33e097-23e3-4002-882d-76e8cb15f451.jpg\"]","trial_type":"similarity","trial_index":169,"time_elapsed":926589,"internal_node_id":"0.0-6.0-163.0"},{"sim_score":1,"rt":6947,"stimulus":"[\"img/0766/006035d8-c736-4daf-bbe4-a9e373af9da6.jpg\",\"img/0862/53a9cf7c-93c4-41b9-952f-07d17f7a17b2.jpg\"]","trial_type":"similarity","trial_index":170,"time_elapsed":934542,"internal_node_id":"0.0-6.0-164.0"},{"sim_score":5,"rt":4104,"stimulus":"[\"img/0866/23a224f3-2012-4fc8-8e0f-3c36f8de27fd.jpg\",\"img/0874/ca23d307-fc00-4d7d-9106-584c6eb21b4d.jpg\"]","trial_type":"similarity","trial_index":171,"time_elapsed":939652,"internal_node_id":"0.0-6.0-165.0"},{"sim_score":5,"rt":3609,"stimulus":"[\"img/0862/5d887e9f-89e2-4ebc-80a0-6d46fe6480db.jpg\",\"img/0860/e14d67c1-6d92-4f1e-9257-c8607159c19c.jpg\"]","trial_type":"similarity","trial_index":172,"time_elapsed":944267,"internal_node_id":"0.0-6.0-166.0"},{"sim_score":5,"rt":3499,"stimulus":"[\"img/0766/aaec5f42-7f0a-4a16-aeca-488d757acbcc.jpg\",\"img/0901/da4fe30f-d12a-491e-96a2-5ab8ebaadd09.jpg\"]","trial_type":"similarity","trial_index":173,"time_elapsed":954463,"internal_node_id":"0.0-6.0-167.0"},{"sim_score":7,"rt":2753,"stimulus":"[\"img/0862/4f0a3b4c-afbf-486e-b248-1d54982f54b4.jpg\",\"img/0862/eefa5588-9efd-4591-aa5f-a2e17c7d7bcc.jpg\"]","trial_type":"similarity","trial_index":174,"time_elapsed":958222,"internal_node_id":"0.0-6.0-168.0"},{"sim_score":6,"rt":3296,"stimulus":"[\"img/0894/b2d2f66e-e480-46da-a02a-6d0c6b285d78.jpg\",\"img/0764/c0b03adb-bd0a-4b96-a915-a827c2fd5211.jpg\"]","trial_type":"similarity","trial_index":175,"time_elapsed":962524,"internal_node_id":"0.0-6.0-169.0"},{"sim_score":3,"rt":3337,"stimulus":"[\"img/0874/99f6563c-8a8d-4c1c-a41d-667b618c3fd5.jpg\",\"img/0898/881e2a85-d5c2-49be-a0c6-8a6ce2c4af08.jpg\"]","trial_type":"similarity","trial_index":176,"time_elapsed":966868,"internal_node_id":"0.0-6.0-170.0"},{"sim_score":3,"rt":3484,"stimulus":"[\"img/0860/4f695df5-afac-4da7-9875-fee39b0b24ad.jpg\",\"img/0766/908bc45b-7c9e-4f95-806e-86b196ebcb2c.jpg\"]","trial_type":"similarity","trial_index":177,"time_elapsed":971358,"internal_node_id":"0.0-6.0-171.0"},{"sim_score":2,"rt":3000,"stimulus":"[\"img/0898/ec565187-2e31-4fdd-9a5c-153d0c789ae0.jpg\",\"img/0864/6f631579-acf1-415c-a42c-1207f62a8d99.jpg\"]","trial_type":"similarity","trial_index":178,"time_elapsed":975362,"internal_node_id":"0.0-6.0-172.0"},{"sim_score":4,"rt":3091,"stimulus":"[\"img/0881/b549bc99-a61c-4450-bab5-9efc3a197bf0.jpg\",\"img/0764/e42c1dc9-7831-4995-be19-7ca7b4d141fc.jpg\"]","trial_type":"similarity","trial_index":179,"time_elapsed":979458,"internal_node_id":"0.0-6.0-173.0"},{"sim_score":2,"rt":5913,"stimulus":"[\"img/0898/b3290bf9-215b-4b45-b21a-65bdf73f142f.jpg\",\"img/0868/4e626425-63c8-484a-8a1d-e66ee4e0bef8.jpg\"]","trial_type":"similarity","trial_index":180,"time_elapsed":986378,"internal_node_id":"0.0-6.0-174.0"},{"sim_score":7,"rt":4620,"stimulus":"[\"img/0864/0116ca98-293d-4fa6-a93b-5a6144ef64cc.jpg\",\"img/0864/8ddd2e30-a1d0-479f-9cbe-591213023893.jpg\"]","trial_type":"similarity","trial_index":181,"time_elapsed":992004,"internal_node_id":"0.0-6.0-175.0"},{"sim_score":2,"rt":3670,"stimulus":"[\"img/0899/8de08897-b430-42fe-9d42-840670b80f94.jpg\",\"img/0862/a0a3a7ba-7798-46a3-b4ca-05e1f6e581d0.jpg\"]","trial_type":"similarity","trial_index":182,"time_elapsed":996680,"internal_node_id":"0.0-6.0-176.0"},{"sim_score":4,"rt":5141,"stimulus":"[\"img/0875/527ced51-8e53-4aab-ab05-86df219104c0.jpg\",\"img/0758/821c68d3-5cb0-4eae-8659-30e6263fca39.jpg\"]","trial_type":"similarity","trial_index":183,"time_elapsed":1002827,"internal_node_id":"0.0-6.0-177.0"},{"sim_score":2,"rt":3109,"stimulus":"[\"img/0866/f756f7d1-9ad8-4a34-9ef6-7a443d705bfe.jpg\",\"img/0901/d61f267a-c492-4db6-9bfb-61efd49cf072.jpg\"]","trial_type":"similarity","trial_index":184,"time_elapsed":1006942,"internal_node_id":"0.0-6.0-178.0"},{"sim_score":5,"rt":3988,"stimulus":"[\"img/0769/e31b3bd8-efcb-413e-aa8c-75fac2b8f2ac.jpg\",\"img/0874/c0378dac-9370-439a-8b79-db27c96fb390.jpg\"]","trial_type":"similarity","trial_index":185,"time_elapsed":1011936,"internal_node_id":"0.0-6.0-179.0"},{"sim_score":4,"rt":3448,"stimulus":"[\"img/0875/e7e66b13-b573-431e-b85e-288ce04a35a3.jpg\",\"img/0881/20af39f5-373d-4a55-a437-2dc4c0382c46.jpg\"]","trial_type":"similarity","trial_index":186,"time_elapsed":1016391,"internal_node_id":"0.0-6.0-180.0"},{"sim_score":6,"rt":2694,"stimulus":"[\"img/0866/0207e9a2-7dbb-40b5-9459-b472aaeceb2a.jpg\",\"img/0868/d98ca254-b195-477f-b57e-5760a2717db8.jpg\"]","trial_type":"similarity","trial_index":187,"time_elapsed":1020093,"internal_node_id":"0.0-6.0-181.0"},{"sim_score":5,"rt":3559,"stimulus":"[\"img/0899/0433d056-aa30-4f8a-9aa1-abbb951e4edd.jpg\",\"img/0758/7ee8bc8f-c40b-4b3a-84ec-3e83580622d4.jpg\"]","trial_type":"similarity","trial_index":188,"time_elapsed":1024659,"internal_node_id":"0.0-6.0-182.0"},{"sim_score":4,"rt":2389,"stimulus":"[\"img/0874/85eb9b8a-c4c6-4e5a-b8e7-363a87a82054.jpg\",\"img/0875/5a1e5100-0d94-4fec-bbe9-ca9894d2cf8e.jpg\"]","trial_type":"similarity","trial_index":189,"time_elapsed":1028053,"internal_node_id":"0.0-6.0-183.0"},{"sim_score":3,"rt":2984,"stimulus":"[\"img/0904/5cceabc9-de1d-4c67-989b-c28a4ef77e79.jpg\",\"img/0862/99a99e39-8355-44ec-b993-e7bcec111e1c.jpg\"]","trial_type":"similarity","trial_index":190,"time_elapsed":1032043,"internal_node_id":"0.0-6.0-184.0"},{"sim_score":5,"rt":2991,"stimulus":"[\"img/0902/962f645e-9b55-4628-9b50-c703422bfe1a.jpg\",\"img/0766/d919cedb-f9b7-4f30-83bb-3e9c65001ceb.jpg\"]","trial_type":"similarity","trial_index":191,"time_elapsed":1036039,"internal_node_id":"0.0-6.0-185.0"},{"sim_score":4,"rt":4642,"stimulus":"[\"img/0758/61d64021-9214-4951-bdf8-f871f9827cf9.jpg\",\"img/0769/f6396414-6788-4d59-9683-de153298d89c.jpg\"]","trial_type":"similarity","trial_index":192,"time_elapsed":1041687,"internal_node_id":"0.0-6.0-186.0"},{"sim_score":7,"rt":3277,"stimulus":"[\"img/0881/48ed65a5-471f-41af-86ec-3793805c116d.jpg\",\"img/0881/c843e210-bdfe-4a7c-8bbe-fcea1f90fe1c.jpg\"]","trial_type":"similarity","trial_index":193,"time_elapsed":1045972,"internal_node_id":"0.0-6.0-187.0"},{"sim_score":5,"rt":2441,"stimulus":"[\"img/0758/a085b443-b5d7-4cb2-9ad4-b9dab0fc23f1.jpg\",\"img/0866/620cd1aa-0800-4414-8f6e-90342e7a99ad.jpg\"]","trial_type":"similarity","trial_index":194,"time_elapsed":1049420,"internal_node_id":"0.0-6.0-188.0"},{"sim_score":5,"rt":2758,"stimulus":"[\"img/0764/62fafeea-6274-48ce-976f-35d3d3484c65.jpg\",\"img/0898/8605a25b-6895-476d-8c13-df7a83f96093.jpg\"]","trial_type":"similarity","trial_index":195,"time_elapsed":1053186,"internal_node_id":"0.0-6.0-189.0"},{"sim_score":5,"rt":4302,"stimulus":"[\"img/0903/5ea5bbe0-f238-4724-abe7-9ed8dee8c0ba.jpg\",\"img/0901/04a53755-6da5-44d4-a7a6-48a6bc0a2280.jpg\"]","trial_type":"similarity","trial_index":196,"time_elapsed":1058492,"internal_node_id":"0.0-6.0-190.0"},{"sim_score":5,"rt":2794,"stimulus":"[\"img/0902/62f11694-7ed7-4cb7-8a73-9e95c43824e7.jpg\",\"img/0898/5f699581-3853-4547-856c-12f419ba5af7.jpg\"]","trial_type":"similarity","trial_index":197,"time_elapsed":1062293,"internal_node_id":"0.0-6.0-191.0"},{"sim_score":2,"rt":3301,"stimulus":"[\"img/0864/1ebbc554-99fa-49f9-8799-317375a79820.jpg\",\"img/0901/08d6d1d1-c043-43c4-bb08-d45e062822b9.jpg\"]","trial_type":"similarity","trial_index":198,"time_elapsed":1066602,"internal_node_id":"0.0-6.0-192.0"},{"sim_score":1,"rt":3437,"stimulus":"[\"img/0894/e6385e52-6c35-43bd-b0af-bc803d107b11.jpg\",\"img/0881/7e822106-76f7-4b10-a805-14dc68b2cfaf.jpg\"]","trial_type":"similarity","trial_index":199,"time_elapsed":1071045,"internal_node_id":"0.0-6.0-193.0"},{"sim_score":7,"rt":4673,"stimulus":"[\"img/0868/4bd5105a-d2c3-4f82-8c80-57196106ba53.jpg\",\"img/0868/293079b8-7e0c-4afd-a390-1e5d35fe3ded.jpg\"]","trial_type":"similarity","trial_index":200,"time_elapsed":1076725,"internal_node_id":"0.0-6.0-194.0"},{"sim_score":6,"rt":3617,"stimulus":"[\"img/0899/d8f2dd94-570e-4e8c-a087-d96090fb9e8c.jpg\",\"img/0764/4eff630a-6426-4f8d-b2ba-b4d9842a0962.jpg\"]","trial_type":"similarity","trial_index":201,"time_elapsed":1081348,"internal_node_id":"0.0-6.0-195.0"},{"sim_score":1,"rt":3239,"stimulus":"[\"img/0881/4da99fdd-1f40-4bbb-8e21-8833eef313f5.jpg\",\"img/0904/0d25eb24-bb20-4e8d-9787-8b489558b4cb.jpg\"]","trial_type":"similarity","trial_index":202,"time_elapsed":1085594,"internal_node_id":"0.0-6.0-196.0"},{"sim_score":1,"rt":2397,"stimulus":"[\"img/0864/6e846d43-94a6-4b37-a268-65eda979f052.jpg\",\"img/0902/511abb54-0094-4f4d-b6dc-3f2c97050521.jpg\"]","trial_type":"similarity","trial_index":203,"time_elapsed":1088996,"internal_node_id":"0.0-6.0-197.0"},{"sim_score":5,"rt":3272,"stimulus":"[\"img/0894/a98416c0-51e2-4960-85da-d81d8688b9d5.jpg\",\"img/0904/b7c2a2c8-df33-4473-b3d4-ff7147c60db3.jpg\"]","trial_type":"similarity","trial_index":204,"time_elapsed":1093273,"internal_node_id":"0.0-6.0-198.0"},{"sim_score":7,"rt":2862,"stimulus":"[\"img/0901/168eb52c-c415-43f1-b5c8-e76e1a1ec247.jpg\",\"img/0901/a6776381-91fe-43f8-ab73-261d318f95fd.jpg\"]","trial_type":"similarity","trial_index":205,"time_elapsed":1097141,"internal_node_id":"0.0-6.0-199.0"},{"sim_score":5,"rt":2821,"stimulus":"[\"img/0894/492d2f29-d7b9-4422-8be8-47fd58bfaa8b.jpg\",\"img/0860/5383b320-1518-4095-a58e-5cc1ae30b64c.jpg\"]","trial_type":"similarity","trial_index":206,"time_elapsed":1100968,"internal_node_id":"0.0-6.0-200.0"},{"sim_score":6,"rt":2395,"stimulus":"[\"img/0898/0af304a2-6a7a-4082-ab7c-4450cd08cc58.jpg\",\"img/0903/b0a3c45f-467e-412f-a183-c9c1827f2e63.jpg\"]","trial_type":"similarity","trial_index":207,"time_elapsed":1104370,"internal_node_id":"0.0-6.0-201.0"},{"sim_score":3,"rt":2935,"stimulus":"[\"img/0864/e02eddb5-f468-499c-91bf-f7be3ffe979b.jpg\",\"img/0894/1a010553-d598-4b06-a772-81f1e7b3addb.jpg\"]","trial_type":"similarity","trial_index":208,"time_elapsed":1108311,"internal_node_id":"0.0-6.0-202.0"},{"sim_score":4,"rt":2123,"stimulus":"[\"img/0874/31e22c7c-99aa-40b1-bf03-dd73fa2df4d6.jpg\",\"img/0860/524b2e98-5767-4d53-942c-ebae6925659b.jpg\"]","trial_type":"similarity","trial_index":209,"time_elapsed":1111440,"internal_node_id":"0.0-6.0-203.0"},{"sim_score":3,"rt":3354,"stimulus":"[\"img/0862/fad1d7c1-8187-43c3-942a-0fc12183e48e.jpg\",\"img/0875/f87b67d7-c33e-40d1-b281-248c4be1cb6e.jpg\"]","trial_type":"similarity","trial_index":210,"time_elapsed":1115800,"internal_node_id":"0.0-6.0-204.0"},{"sim_score":3,"rt":3868,"stimulus":"[\"img/0867/f8488a47-94ee-4166-952c-44e16cf172f6.jpg\",\"img/0881/667e2147-d457-4f32-aa5f-6ab86e5848f1.jpg\"]","trial_type":"similarity","trial_index":211,"time_elapsed":1120674,"internal_node_id":"0.0-6.0-205.0"},{"sim_score":5,"rt":2679,"stimulus":"[\"img/0901/548d1110-7cb8-42a2-9927-9798875c8b5c.jpg\",\"img/0902/b03fee99-d5ca-4bf8-871c-a4a743a39842.jpg\"]","trial_type":"similarity","trial_index":212,"time_elapsed":1124359,"internal_node_id":"0.0-6.0-206.0"},{"sim_score":5,"rt":2716,"stimulus":"[\"img/0899/9de5e857-aa9a-4e0c-8ba2-46d79bd069a4.jpg\",\"img/0864/300bb811-8b3c-4c42-8653-6097c3725197.jpg\"]","trial_type":"similarity","trial_index":213,"time_elapsed":1128081,"internal_node_id":"0.0-6.0-207.0"},{"sim_score":2,"rt":3194,"stimulus":"[\"img/0901/12da1841-e611-435c-9719-109413d536a8.jpg\",\"img/0769/d1be2815-fa79-46e8-b5c3-7d81caaca490.jpg\"]","trial_type":"similarity","trial_index":214,"time_elapsed":1132281,"internal_node_id":"0.0-6.0-208.0"},{"sim_score":7,"rt":3021,"stimulus":"[\"img/0902/c920f0e1-1c81-480f-a164-c77f2dc6ce9a.jpg\",\"img/0902/cf9dee9c-2bdf-4d64-9302-97f1660fe52c.jpg\"]","trial_type":"similarity","trial_index":215,"time_elapsed":1137802,"internal_node_id":"0.0-6.0-209.0"},{"view_history":"[{\"page_index\":0,\"viewing_time\":4139}]","rt":4141,"trial_type":"instructions","trial_index":216,"time_elapsed":1142945,"internal_node_id":"0.0-7.0"},{"rt":28515,"responses":"{\"Q0\":\"Nashville Warbler\"}","answer":["Nashville Warbler"],"trial_type":"image-multi-choice","trial_index":217,"time_elapsed":1172480,"internal_node_id":"0.0-8.0-0.0"},{"rt":3630,"responses":"{\"Q0\":\"Black-and-white Warbler\"}","answer":["Black-and-white Warbler"],"trial_type":"image-multi-choice","trial_index":218,"time_elapsed":1177127,"internal_node_id":"0.0-8.0-1.0"},{"rt":7050,"responses":"{\"Q0\":\"Townsend's Warbler\"}","answer":["Townsend's Warbler"],"trial_type":"image-multi-choice","trial_index":219,"time_elapsed":1185194,"internal_node_id":"0.0-8.0-2.0"},{"rt":4208,"responses":"{\"Q0\":\"Lark Sparrow\"}","answer":["Lark Sparrow"],"trial_type":"image-multi-choice","trial_index":220,"time_elapsed":1190414,"internal_node_id":"0.0-8.0-3.0"},{"rt":3642,"responses":"{\"Q0\":\"Yellow Warbler\"}","answer":["Yellow Warbler"],"trial_type":"image-multi-choice","trial_index":221,"time_elapsed":1195074,"internal_node_id":"0.0-8.0-4.0"},{"rt":9027,"responses":"{\"Q0\":\"Orange-crowned Warbler\"}","answer":["Orange-crowned Warbler"],"trial_type":"image-multi-choice","trial_index":222,"time_elapsed":1205116,"internal_node_id":"0.0-8.0-5.0"},{"rt":4219,"responses":"{\"Q0\":\"White-throated Sparrow\"}","answer":["White-throated Sparrow"],"trial_type":"image-multi-choice","trial_index":223,"time_elapsed":1210352,"internal_node_id":"0.0-8.0-6.0"},{"rt":3406,"responses":"{\"Q0\":\"Fox Sparrow\"}","answer":["Fox Sparrow"],"trial_type":"image-multi-choice","trial_index":224,"time_elapsed":1214774,"internal_node_id":"0.0-8.0-7.0"},{"rt":37673,"responses":"{\"Q0\":\"Song Sparrow\"}","answer":["Song Sparrow"],"trial_type":"image-multi-choice","trial_index":225,"time_elapsed":1253464,"internal_node_id":"0.0-8.0-8.0"},{"rt":5039,"responses":"{\"Q0\":\"Blackburnian Warbler\"}","answer":["Blackburnian Warbler"],"trial_type":"image-multi-choice","trial_index":226,"time_elapsed":1259519,"internal_node_id":"0.0-8.0-9.0"},{"rt":8238,"responses":"{\"Q0\":\"Vesper Sparrow\"}","answer":["Vesper Sparrow"],"trial_type":"image-multi-choice","trial_index":227,"time_elapsed":1268765,"internal_node_id":"0.0-8.0-10.0"},{"rt":3626,"responses":"{\"Q0\":\"White-crowned Sparrow\"}","answer":["White-crowned Sparrow"],"trial_type":"image-multi-choice","trial_index":228,"time_elapsed":1273406,"internal_node_id":"0.0-8.0-11.0"},{"rt":3904,"responses":"{\"Q0\":\"American Tree Sparrow\"}","answer":["American Tree Sparrow"],"trial_type":"image-multi-choice","trial_index":229,"time_elapsed":1278326,"internal_node_id":"0.0-8.0-12.0"},{"rt":4270,"responses":"{\"Q0\":\"Tennessee Warbler\"}","answer":["Tennessee Warbler"],"trial_type":"image-multi-choice","trial_index":230,"time_elapsed":1283613,"internal_node_id":"0.0-8.0-13.0"},{"rt":5243,"responses":"{\"Q0\":\"Magnolia Warbler\"}","answer":["Magnolia Warbler"],"trial_type":"image-multi-choice","trial_index":231,"time_elapsed":1289871,"internal_node_id":"0.0-8.0-14.0"},{"rt":4315,"responses":"{\"Q0\":\"Northern Waterthrush\"}","answer":["Northern Waterthrush"],"trial_type":"image-multi-choice","trial_index":232,"time_elapsed":1295202,"internal_node_id":"0.0-8.0-15.0"},{"rt":4038,"responses":"{\"Q0\":\"Chipping Sparrow\"}","answer":["Chipping Sparrow"],"trial_type":"image-multi-choice","trial_index":233,"time_elapsed":1300254,"internal_node_id":"0.0-8.0-16.0"},{"rt":12498,"responses":"{\"Q0\":\"Swamp Sparrow\"}","answer":["Swamp Sparrow"],"trial_type":"image-multi-choice","trial_index":234,"time_elapsed":1313769,"internal_node_id":"0.0-8.0-17.0"},{"rt":5560,"responses":"{\"Q0\":\"Lincoln's Sparrow\"}","answer":["Lincoln's Sparrow"],"trial_type":"image-multi-choice","trial_index":235,"time_elapsed":1320342,"internal_node_id":"0.0-8.0-18.0"},{"rt":3493,"responses":"{\"Q0\":\"Ovenbird\"}","answer":["Ovenbird"],"trial_type":"image-multi-choice","trial_index":236,"time_elapsed":1324850,"internal_node_id":"0.0-8.0-19.0"}]