"view_history","rt","trial_type","trial_index","time_elapsed","internal_node_id","sim_score","stimulus","responses","answer"
"[{""page_index"":0,""viewing_time"":3394}]","3395","instructions","0","3397","0.0-0.0","","","",""
"","14992","similarity_demo","1","19395","0.0-1.0","3","[""img/866.jpg"",""img/868.jpg""]","",""
"[{""page_index"":0,""viewing_time"":14757}]","14757","instructions","2","35152","0.0-2.0","","","",""
"","5983","similarity_demo","3","42138","0.0-3.0","2","[""img/766.jpg"",""img/867.jpg""]","",""
"[{""page_index"":0,""viewing_time"":5870}]","5870","instructions","4","49007","0.0-4.0","","","",""
"[{""page_index"":0,""viewing_time"":19384}]","19384","instructions","5","69391","0.0-5.0","","","",""
"","4566","similarity","6","74961","0.0-6.0-0.0","2","[""img/0868/0d3abd3a-b6c3-4584-a9f7-e2da63748b3d.jpg"",""img/0901/f469cb1d-6d81-4a45-bab5-cd0b650c2b4f.jpg""]","",""
"","3909","similarity","7","79872","0.0-6.0-1.0","3","[""img/0769/1d8734c4-77ab-4165-9e71-5cfe672ff01c.jpg"",""img/0867/7d1c497b-c1b3-4ed8-abb5-d7f73306015f.jpg""]","",""
"","3324","similarity","8","84200","0.0-6.0-2.0","2","[""img/0766/717fd72f-a281-499b-a5ba-5e2ecc4d4866.jpg"",""img/0898/ec565187-2e31-4fdd-9a5c-153d0c789ae0.jpg""]","",""
"","4225","similarity","9","89432","0.0-6.0-3.0","3","[""img/0902/417d8b4a-3c72-4adc-ac78-820e833316f2.jpg"",""img/0881/d373cb9f-a719-4549-a2a4-82def79fb2a5.jpg""]","",""
"","4157","similarity","10","94593","0.0-6.0-4.0","5","[""img/0894/b2d2f66e-e480-46da-a02a-6d0c6b285d78.jpg"",""img/0894/38cf335f-f76f-4349-8d65-e20cd6859565.jpg""]","",""
"","4317","similarity","11","99912","0.0-6.0-5.0","3","[""img/0874/ca76a855-4e77-4f2f-872a-0a718153e7ed.jpg"",""img/0899/9de5e857-aa9a-4e0c-8ba2-46d79bd069a4.jpg""]","",""
"","4062","similarity","12","104977","0.0-6.0-6.0","3","[""img/0904/e9423a8c-f946-43ad-ab7b-931acef870e2.jpg"",""img/0764/83c93cce-18d1-4aa7-9e23-2c268afe0a46.jpg""]","",""
"","3069","similarity","13","109049","0.0-6.0-7.0","2","[""img/0899/93494f3b-d539-4075-b027-d82e344563da.jpg"",""img/0898/881e2a85-d5c2-49be-a0c6-8a6ce2c4af08.jpg""]","",""
"","3253","similarity","14","113306","0.0-6.0-8.0","1","[""img/0874/995f0332-0439-4eb4-add3-957335dbf6d9.jpg"",""img/0903/8635cf25-2648-4fe9-8c42-79d2598e999c.jpg""]","",""
"","4852","similarity","15","119161","0.0-6.0-9.0","6","[""img/0881/7e31e5dc-2240-4b1b-b5a0-3acd980099ef.jpg"",""img/0758/e38fd80d-18d0-42f3-b848-f930788e8bd7.jpg""]","",""
"","5357","similarity","16","125521","0.0-6.0-10.0","2","[""img/0898/8605a25b-6895-476d-8c13-df7a83f96093.jpg"",""img/0901/1e23ffbd-19de-4c4f-aa23-c54aaa3319a3.jpg""]","",""
"","3350","similarity","17","129874","0.0-6.0-11.0","4","[""img/0903/f45a103c-9bfe-49fd-ad96-bdd8d2589195.jpg"",""img/0769/91acb237-65a3-4d0b-9748-af5c7b83d3c7.jpg""]","",""
"","3693","similarity","18","134570","0.0-6.0-12.0","2","[""img/0764/6c7fe363-2d37-418f-9e5e-a3273af5d4fb.jpg"",""img/0868/293079b8-7e0c-4afd-a390-1e5d35fe3ded.jpg""]","",""
"","3861","similarity","19","139433","0.0-6.0-13.0","3","[""img/0867/1719a35d-f085-48c0-9099-16c94fe418b4.jpg"",""img/0903/b0a3c45f-467e-412f-a183-c9c1827f2e63.jpg""]","",""
"","5197","similarity","20","145633","0.0-6.0-14.0","1","[""img/0766/2e1cf445-9aef-40e7-92f4-5facf48b64c5.jpg"",""img/0758/a085b443-b5d7-4cb2-9ad4-b9dab0fc23f1.jpg""]","",""
"","4110","similarity","21","150747","0.0-6.0-15.0","5","[""img/0902/b03fee99-d5ca-4bf8-871c-a4a743a39842.jpg"",""img/0860/702bd09d-df3a-40aa-a267-5f04474305b5.jpg""]","",""
"","4132","similarity","22","155881","0.0-6.0-16.0","2","[""img/0769/f2740c58-7c02-433f-920b-746b0b75435b.jpg"",""img/0875/90da8d75-108a-44ad-b999-e21fee3860d3.jpg""]","",""
"","3453","similarity","23","160337","0.0-6.0-17.0","2","[""img/0904/65e2b70a-b184-4da3-b5c0-5038bdf9469a.jpg"",""img/0866/a15b02be-11bb-43e3-b0e0-ecc3bd7dfc49.jpg""]","",""
"","3389","similarity","24","164729","0.0-6.0-18.0","4","[""img/0875/d59ff733-eaff-4ee2-9443-06954dd0bcb6.jpg"",""img/0875/f87b67d7-c33e-40d1-b281-248c4be1cb6e.jpg""]","",""
"","4453","similarity","25","170184","0.0-6.0-19.0","7","[""img/0758/821c68d3-5cb0-4eae-8659-30e6263fca39.jpg"",""img/0758/53f35650-e455-4b53-8be4-c3c8271c6466.jpg""]","",""
"","4101","similarity","26","175288","0.0-6.0-20.0","2","[""img/0902/af45fe42-178c-4c1a-99ef-256e87e3b092.jpg"",""img/0874/a82926a3-0b43-4add-803c-d5f9ea7798ee.jpg""]","",""
"","3581","similarity","27","179873","0.0-6.0-21.0","5","[""img/0764/c643e165-df19-459f-8c2b-8357bf432a17.jpg"",""img/0769/387a9744-d6a7-42b8-bab8-33007ec434aa.jpg""]","",""
"","2861","similarity","28","183736","0.0-6.0-22.0","2","[""img/0901/168eb52c-c415-43f1-b5c8-e76e1a1ec247.jpg"",""img/0874/c0378dac-9370-439a-8b79-db27c96fb390.jpg""]","",""
"","4660","similarity","29","189400","0.0-6.0-23.0","2","[""img/0875/34132396-d896-4c2d-8087-646dd867e769.jpg"",""img/0903/14f179a2-8786-48a2-8377-88d1d404341b.jpg""]","",""
"","3733","similarity","30","194137","0.0-6.0-24.0","2","[""img/0769/6c0bac4c-5f59-43c7-898c-3ca93cf55cfe.jpg"",""img/0881/c24f3051-eefa-42de-aba6-fccb56d93c70.jpg""]","",""
"","3403","similarity","31","198544","0.0-6.0-25.0","2","[""img/0867/a749dddb-69f0-44a6-acdc-2bf295cf6dcc.jpg"",""img/0904/09934646-45d2-4147-8fec-64a22a5ac822.jpg""]","",""
"","3868","similarity","32","203416","0.0-6.0-26.0","2","[""img/0860/c47fdead-eb02-4989-b078-26f4852f44fe.jpg"",""img/0881/405484ae-0d00-4b05-bc57-6420a36adfac.jpg""]","",""
"","3998","similarity","33","208416","0.0-6.0-27.0","6","[""img/0866/620cd1aa-0800-4414-8f6e-90342e7a99ad.jpg"",""img/0866/386235d2-6857-41e7-88a8-25cfc3430025.jpg""]","",""
"","6173","similarity","34","215592","0.0-6.0-28.0","2","[""img/0764/39a9fc7e-b863-432c-9374-de43983f31a5.jpg"",""img/0862/fad1d7c1-8187-43c3-942a-0fc12183e48e.jpg""]","",""
"","3230","similarity","35","219825","0.0-6.0-29.0","2","[""img/0904/9d30eff1-46ef-4453-b11e-124ef8145c00.jpg"",""img/0758/d41c06bf-ebaf-454b-91c6-1a17f917b659.jpg""]","",""
"","5214","similarity","36","226041","0.0-6.0-30.0","3","[""img/0894/05161000-f476-499b-a878-c13c7f347fd9.jpg"",""img/0899/8abe6c69-822c-436c-9bf2-96c818b49ba5.jpg""]","",""
"","4869","similarity","37","231913","0.0-6.0-31.0","3","[""img/0860/71e1aad0-2cdf-43bb-94a4-a8c016997c30.jpg"",""img/0904/4e58005d-a2ec-4aaa-b199-445343561396.jpg""]","",""
"","3894","similarity","38","236809","0.0-6.0-32.0","7","[""img/0874/a3bc679d-619f-4db6-bb68-116dcb757d9c.jpg"",""img/0881/b549bc99-a61c-4450-bab5-9efc3a197bf0.jpg""]","",""
"","3926","similarity","39","241737","0.0-6.0-33.0","5","[""img/0881/667e2147-d457-4f32-aa5f-6ab86e5848f1.jpg"",""img/0899/ad8268c5-8199-48d0-ad70-c5b6d6c599ec.jpg""]","",""
"","3997","similarity","40","246737","0.0-6.0-34.0","2","[""img/0866/6f2a90d7-14f1-4f1b-bd64-fc0af6b9fe44.jpg"",""img/0862/f43ceabf-acc1-4107-b857-5d1849808f93.jpg""]","",""
"","3517","similarity","41","251257","0.0-6.0-35.0","3","[""img/0868/c8ac40c7-6904-4e13-8d61-c75d3052dc4e.jpg"",""img/0894/9b1333fd-3561-43bf-aee5-99b7b7ca3dc3.jpg""]","",""
"","3316","similarity","42","255577","0.0-6.0-36.0","7","[""img/0860/17b44a7d-c5ca-479f-9e87-f65a64f5c80e.jpg"",""img/0860/4f695df5-afac-4da7-9875-fee39b0b24ad.jpg""]","",""
"","3870","similarity","43","260449","0.0-6.0-37.0","3","[""img/0862/7918ca67-5bd3-4606-a5ea-c39fb11a9297.jpg"",""img/0864/3651d070-2fc5-4848-b6a6-088a2d9ac5c9.jpg""]","",""
"","3013","similarity","44","264465","0.0-6.0-38.0","1","[""img/0766/71b81ebd-0937-4d7f-b8bf-c4e46a4728fd.jpg"",""img/0866/bf14b5bd-fb55-47db-86b9-4f8aeb9a6dad.jpg""]","",""
"","3309","similarity","45","268777","0.0-6.0-39.0","2","[""img/0875/42910c99-5463-450a-a0f8-d4d060a11455.jpg"",""img/0898/a8f16b02-e19f-423b-86c3-a36562ae1f9b.jpg""]","",""
"","3158","similarity","46","272937","0.0-6.0-40.0","3","[""img/0766/c23b5a20-e50f-4d85-841f-cf89212a4348.jpg"",""img/0769/11518cb3-13ea-4dd0-890c-30cfab728ade.jpg""]","",""
"","3189","similarity","47","296688","0.0-6.0-41.0","2","[""img/0874/3ce41e7c-40c8-4d58-a546-171114521796.jpg"",""img/0764/e0788029-9d7f-414c-b747-46d2a99f7c86.jpg""]","",""
"","4492","similarity","48","302184","0.0-6.0-42.0","3","[""img/0868/3a62db2d-97e9-44a3-b8e3-a48c6f0e423b.jpg"",""img/0902/51493fab-2a10-4385-aa88-bee3db441626.jpg""]","",""
"","2542","similarity","49","305728","0.0-6.0-43.0","2","[""img/0875/cff79b3a-a797-4393-9757-6275f999ec04.jpg"",""img/0899/7f9d45d0-b2c6-40d3-aa41-c207db2c411b.jpg""]","",""
"","3910","similarity","50","310640","0.0-6.0-44.0","3","[""img/0866/d493a2c8-66eb-44b4-be02-2f327b700b7c.jpg"",""img/0860/31ff6436-98bf-4652-bed2-40f627229568.jpg""]","",""
"","3262","similarity","51","314904","0.0-6.0-45.0","5","[""img/0766/006035d8-c736-4daf-bbe4-a9e373af9da6.jpg"",""img/0903/2a9c8033-3e70-47fa-816d-97ee1813a3a3.jpg""]","",""
"","2925","similarity","52","318850","0.0-6.0-46.0","3","[""img/0901/7c16dd9c-44ad-4d5b-990c-6a0b9b48b1b1.jpg"",""img/0904/09dac84f-3d1c-4445-a68e-d0389fdbf1e9.jpg""]","",""
"","4651","similarity","53","324505","0.0-6.0-47.0","1","[""img/0758/6cd8c362-ae2a-41eb-80a3-3a4f7ace1530.jpg"",""img/0902/8af4182a-9af9-4212-a436-9195555112d6.jpg""]","",""
"","3037","similarity","54","328545","0.0-6.0-48.0","7","[""img/0764/ec2dd087-c471-4370-b570-95a542506a96.jpg"",""img/0764/4eff630a-6426-4f8d-b2ba-b4d9842a0962.jpg""]","",""
"","3387","similarity","55","332936","0.0-6.0-49.0","2","[""img/0866/f756f7d1-9ad8-4a34-9ef6-7a443d705bfe.jpg"",""img/0902/d3e55000-c839-4bf9-9b9b-4af0a9925af1.jpg""]","",""
"","3765","similarity","56","337704","0.0-6.0-50.0","1","[""img/0764/ef0e64c6-d0dd-4dc6-87b6-ce5c0665f421.jpg"",""img/0758/eabcd7a8-56ad-4fd2-bc24-90f6b7b33265.jpg""]","",""
"","3070","similarity","57","341776","0.0-6.0-51.0","5","[""img/0898/993d8f2d-bef7-4251-a193-0f93a32b7763.jpg"",""img/0894/a3d4170b-b7d8-40e3-955f-87e76ed745fc.jpg""]","",""
"","4829","similarity","58","347608","0.0-6.0-52.0","3","[""img/0875/2c361b79-c3d1-4eda-812e-bf03192407bf.jpg"",""img/0866/0207e9a2-7dbb-40b5-9459-b472aaeceb2a.jpg""]","",""
"","4012","similarity","59","352625","0.0-6.0-53.0","6","[""img/0904/b5855d6a-7ef9-46ca-9215-6e9fa046e543.jpg"",""img/0904/2c98dc56-88d1-4fb5-a999-b6a7861f65f0.jpg""]","",""
"","3430","similarity","60","357057","0.0-6.0-54.0","7","[""img/0769/1afb527f-9887-428c-bd26-a12c2f9efb68.jpg"",""img/0769/e31b3bd8-efcb-413e-aa8c-75fac2b8f2ac.jpg""]","",""
"","3916","similarity","61","361977","0.0-6.0-55.0","2","[""img/0898/01bfe666-3510-4fc7-964f-d00d28732dc8.jpg"",""img/0758/67c0be2f-9e91-48b3-8219-70ac0a1802fa.jpg""]","",""
"","4637","similarity","62","367617","0.0-6.0-56.0","5","[""img/0769/3c1efec9-f8fd-487d-8955-4be88e48c832.jpg"",""img/0902/bd89a85f-3853-4786-acd6-98818ee29f1c.jpg""]","",""
"","4574","similarity","63","373194","0.0-6.0-57.0","5","[""img/0864/a248adb3-c70b-4652-b7a3-776d2a1e904b.jpg"",""img/0881/e046471a-35b4-4159-bbf7-3cfd201bef66.jpg""]","",""
"","2428","similarity","64","376626","0.0-6.0-58.0","2","[""img/0758/61d64021-9214-4951-bdf8-f871f9827cf9.jpg"",""img/0868/8b0b8473-e2c0-4331-aa56-c3a5c29369da.jpg""]","",""
"","3533","similarity","65","381161","0.0-6.0-59.0","4","[""img/0862/47ed5efd-4ec9-4b74-bb4e-a5f5cf0c3e7d.jpg"",""img/0769/5bd04f55-d091-4f57-85db-38426f26bd1a.jpg""]","",""
"","2454","similarity","66","384617","0.0-6.0-60.0","5","[""img/0764/29072395-f595-4e3c-83d3-ff87010039fa.jpg"",""img/0903/6b5dcc60-3ad3-4962-93e5-e6cf768477af.jpg""]","",""
"","5973","similarity","67","391593","0.0-6.0-61.0","7","[""img/0899/4408c14d-c168-4a7d-96f6-bc87bfb58f83.jpg"",""img/0899/66bf4113-ee12-426c-84d2-ea410b6c803e.jpg""]","",""
"","3702","similarity","68","396298","0.0-6.0-62.0","3","[""img/0860/29a21a9f-54bb-4093-ad3f-04823ceaa89f.jpg"",""img/0875/2e13d160-eea1-416b-aff1-d37ab99ecc1d.jpg""]","",""
"","4669","similarity","69","401970","0.0-6.0-63.0","2","[""img/0868/83b4350a-3b70-4cea-b7f5-b5b56f3050a8.jpg"",""img/0874/adf9a8f1-c40b-402b-b95b-1e85a54a7b62.jpg""]","",""
"","3364","similarity","70","406338","0.0-6.0-64.0","3","[""img/0758/7ee8bc8f-c40b-4b3a-84ec-3e83580622d4.jpg"",""img/0862/eefa5588-9efd-4591-aa5f-a2e17c7d7bcc.jpg""]","",""
"","2579","similarity","71","409920","0.0-6.0-65.0","6","[""img/0904/5cceabc9-de1d-4c67-989b-c28a4ef77e79.jpg"",""img/0898/c3cecf20-f7fd-45fa-97d0-dc0a63e8d6c0.jpg""]","",""
"","3294","similarity","72","414216","0.0-6.0-66.0","3","[""img/0881/4bd34581-94d8-4e88-8c89-5cef864ca3be.jpg"",""img/0866/02f5e6b9-52b7-448c-9708-5b460d0c9a23.jpg""]","",""
"","5493","similarity","73","420712","0.0-6.0-67.0","3","[""img/0867/26611f4e-d694-4460-b7e2-43c62753ddc3.jpg"",""img/0898/224c1572-56b9-4f16-a9e4-6f3bc9c114bd.jpg""]","",""
"","4253","similarity","74","425967","0.0-6.0-68.0","5","[""img/0902/8065aa6b-4aef-4368-afa2-02c6465ca582.jpg"",""img/0764/c0b03adb-bd0a-4b96-a915-a827c2fd5211.jpg""]","",""
"","4126","similarity","75","431097","0.0-6.0-69.0","6","[""img/0875/03c3c331-738b-4446-af92-3d7386b08c2e.jpg"",""img/0867/c66898ba-b71b-4d50-84f9-f7f84853a98d.jpg""]","",""
"","2709","similarity","76","434808","0.0-6.0-70.0","5","[""img/0766/214866ee-423d-4629-9bb9-41572bdc7dac.jpg"",""img/0764/17b088f8-3053-4140-b544-d15654cc79ef.jpg""]","",""
"","3133","similarity","77","438944","0.0-6.0-71.0","5","[""img/0894/6b2e9509-8699-42b7-9582-7741df0ba2d7.jpg"",""img/0867/85a96c62-548f-4994-9553-819e03c3135a.jpg""]","",""
"","3955","similarity","78","443904","0.0-6.0-72.0","2","[""img/0875/fb732ab5-013a-4366-9f65-27811ed157e9.jpg"",""img/0764/bc3865c9-9004-4582-88a7-048478673f97.jpg""]","",""
"","3054","similarity","79","447960","0.0-6.0-73.0","6","[""img/0867/bf560d4f-dee3-4f11-a385-705cc1aa5f3c.jpg"",""img/0866/8efcaa46-83ab-4dee-a35f-850402aa21ae.jpg""]","",""
"","3718","similarity","80","452680","0.0-6.0-74.0","3","[""img/0903/12bd8657-92e6-4c36-a06c-597e7a1d51f3.jpg"",""img/0758/9fb5b2fe-3f00-4fe6-973c-1ce10d5f4cd5.jpg""]","",""
"","2758","similarity","81","456440","0.0-6.0-75.0","1","[""img/0766/33519c22-aaa4-49d7-8d49-ab551db1945e.jpg"",""img/0868/4e626425-63c8-484a-8a1d-e66ee4e0bef8.jpg""]","",""
"","4678","similarity","82","462120","0.0-6.0-76.0","3","[""img/0874/85eb9b8a-c4c6-4e5a-b8e7-363a87a82054.jpg"",""img/0766/5d1b8041-c5a1-4b02-b4fe-3453d98a0d72.jpg""]","",""
"","2574","similarity","83","465697","0.0-6.0-77.0","1","[""img/0881/f6bd3b96-dc40-4e99-8681-bc3a35cf896d.jpg"",""img/0868/179a5502-ab5c-478e-8263-5a1fbcc101d2.jpg""]","",""
"","3973","similarity","84","470673","0.0-6.0-78.0","2","[""img/0758/e1ba5e53-addc-436a-b428-d34fc1b130dc.jpg"",""img/0901/deff6cfb-0072-4490-bc3e-206bbcd3e8bf.jpg""]","",""
"","3381","similarity","85","475057","0.0-6.0-79.0","4","[""img/0881/f8bd891e-aa09-4782-89db-33e7cb2b0cf1.jpg"",""img/0898/82231d4c-218b-4d0a-b50d-35a49b524e97.jpg""]","",""
"","2589","similarity","86","478648","0.0-6.0-80.0","1","[""img/0867/f8488a47-94ee-4166-952c-44e16cf172f6.jpg"",""img/0758/20497cbe-ddae-489e-86e2-ab06985ed07c.jpg""]","",""
"","3663","similarity","87","483313","0.0-6.0-81.0","5","[""img/0769/14d393ce-e5be-4ca1-86ce-cc27d4b6074c.jpg"",""img/0899/fd9efb43-701f-4cd6-baaa-4c38315f4bdc.jpg""]","",""
"","3270","similarity","88","487585","0.0-6.0-82.0","7","[""img/0903/005ad0de-4f52-433c-b515-dbe8d46184a3.jpg"",""img/0903/d987e220-f3e6-4b6d-a270-fe6757041f6d.jpg""]","",""
"","3437","similarity","89","503728","0.0-6.0-83.0","1","[""img/0867/2e1a0b58-cdb1-4107-a14e-452530d7b9b0.jpg"",""img/0766/e8052e17-9dae-4139-802b-6e590cb2d526.jpg""]","",""
"","3022","similarity","90","507753","0.0-6.0-84.0","2","[""img/0902/0eb85fbc-27c8-41df-9d0b-a5f9efd417d1.jpg"",""img/0867/cc72ed48-7704-422c-86d6-467a1145287a.jpg""]","",""
"","2845","similarity","91","511601","0.0-6.0-85.0","2","[""img/0901/b123d109-47b4-4f9a-80c9-9bb16da42efa.jpg"",""img/0875/5a1e5100-0d94-4fec-bbe9-ca9894d2cf8e.jpg""]","",""
"","2990","similarity","92","515593","0.0-6.0-86.0","3","[""img/0764/f9f890e6-3c2f-40cd-84e9-85e0b54cb28e.jpg"",""img/0866/be24ab58-230e-4db8-9f45-ff04c9aec6bb.jpg""]","",""
"","3230","similarity","93","519825","0.0-6.0-87.0","3","[""img/0901/0f670aef-ac36-496d-8142-ee5fdb21dd82.jpg"",""img/0894/8cadb87a-7001-4e47-99fb-1867bebf1668.jpg""]","",""
"","2966","similarity","94","523793","0.0-6.0-88.0","5","[""img/0898/b2732712-71c2-45d8-834f-2b2ed5504910.jpg"",""img/0769/35f2dd39-40aa-498e-b401-9f1ef2622d00.jpg""]","",""
"","11293","similarity","95","536088","0.0-6.0-89.0","5","[""img/0769/4a1d0b52-3fe8-40fb-bb1c-c814fe49a68c.jpg"",""img/0894/1b3888e6-cf36-4c4a-a039-187aa5cb71ac.jpg""]","",""
"","2998","similarity","96","540088","0.0-6.0-90.0","3","[""img/0862/92fcd8a4-8193-4a6a-ae09-dd4a6338b0df.jpg"",""img/0874/ca23d307-fc00-4d7d-9106-584c6eb21b4d.jpg""]","",""
"","3669","similarity","97","544760","0.0-6.0-91.0","6","[""img/0894/492d2f29-d7b9-4422-8be8-47fd58bfaa8b.jpg"",""img/0766/db750ba0-ce04-46e1-b601-e1b80212bad2.jpg""]","",""
"","2661","similarity","98","548424","0.0-6.0-92.0","1","[""img/0874/7e4f2150-3b59-4a36-b5da-a4e0ba410531.jpg"",""img/0867/179ab87a-8eac-4c52-a41f-2e48e3120f09.jpg""]","",""
"","2780","similarity","99","552209","0.0-6.0-93.0","5","[""img/0899/fef567a2-c121-4481-9af0-ff108d199bbf.jpg"",""img/0868/6a28c3b0-3d76-498a-9fb7-ddafc665eca8.jpg""]","",""
"","2540","similarity","100","555752","0.0-6.0-94.0","5","[""img/0903/bf0a7d60-eca5-44b0-bafd-baf21db9904b.jpg"",""img/0862/fb26cb07-d5a9-4653-813c-f41609f26cd5.jpg""]","",""
"","3348","similarity","101","560104","0.0-6.0-95.0","5","[""img/0899/25ae6ec8-9565-49fe-a8bb-8d0666f52716.jpg"",""img/0766/a754e4b6-5019-4cf4-8f58-34c20547a1f5.jpg""]","",""
"","3829","similarity","102","564936","0.0-6.0-96.0","7","[""img/0867/de92135f-5b65-4ed9-b245-188292c7c2f8.jpg"",""img/0868/4bd5105a-d2c3-4f82-8c80-57196106ba53.jpg""]","",""
"","4062","similarity","103","570006","0.0-6.0-97.0","2","[""img/0862/57b6f83f-c763-4858-830d-102f97bfefbf.jpg"",""img/0901/b453df0b-4c39-49bb-8ced-6127efffa898.jpg""]","",""
"","3030","similarity","104","574040","0.0-6.0-98.0","2","[""img/0875/527ced51-8e53-4aab-ab05-86df219104c0.jpg"",""img/0766/27f54113-8561-4568-9ffe-0a1650ae65ec.jpg""]","",""
"","3501","similarity","105","578544","0.0-6.0-99.0","5","[""img/0758/65d426d6-3ff6-415d-8654-a43b83ecc4fe.jpg"",""img/0874/8cdb1c07-1c32-46d2-981c-3636560fa6e5.jpg""]","",""
"","2733","similarity","106","582280","0.0-6.0-100.0","2","[""img/0904/4b8daf2a-13a9-4ea9-9e0b-b265b6e933e7.jpg"",""img/0868/fd307a36-9a3a-47d7-ab7c-f810d0b35040.jpg""]","",""
"","3806","similarity","107","587088","0.0-6.0-101.0","2","[""img/0903/150cf64c-0bd2-4674-abbb-a1387cf1f3e9.jpg"",""img/0866/4a87911a-d5be-4d4e-ab8e-3d1f581bf507.jpg""]","",""
"","3350","similarity","108","591440","0.0-6.0-102.0","3","[""img/0868/15dd6fd7-791e-4b53-b203-195d617521a4.jpg"",""img/0769/3c1203c5-2ce7-466e-957a-8d77b5905460.jpg""]","",""
"","3734","similarity","109","596177","0.0-6.0-103.0","6","[""img/0902/3f0eeac5-c996-4026-a376-563ce8f28521.jpg"",""img/0899/5b56dd3e-3f49-47cc-af84-16da6457753b.jpg""]","",""
"","3085","similarity","110","600265","0.0-6.0-104.0","3","[""img/0868/e0aff734-077f-40dd-9781-74821abd3621.jpg"",""img/0862/f188d4f0-76a4-4102-818c-a209969d73a5.jpg""]","",""
"","2806","similarity","111","604075","0.0-6.0-105.0","2","[""img/0903/c708d08f-a108-4e04-8288-c3fcf6375db4.jpg"",""img/0894/0130a973-d993-41f8-874a-fee23d9ac11f.jpg""]","",""
"","3164","similarity","112","608241","0.0-6.0-106.0","5","[""img/0864/b3c4e378-28f0-4699-9338-2a257b4bca04.jpg"",""img/0874/bf14b896-e930-4fd9-9c05-2e83317a2773.jpg""]","",""
"","3981","similarity","113","613225","0.0-6.0-107.0","3","[""img/0862/ad593cc7-cabe-4bb7-8e14-8a447a0717b4.jpg"",""img/0902/cdec1bc6-7f90-4f72-9e01-f5a4111bac1d.jpg""]","",""
"","2909","similarity","114","617137","0.0-6.0-108.0","7","[""img/0904/fe746a3f-8458-48d0-8a13-8cba2a9df9f8.jpg"",""img/0903/6a87dbad-9b8d-4ff5-9c41-03c9aa24f0c3.jpg""]","",""
"","3982","similarity","115","622121","0.0-6.0-109.0","3","[""img/0764/5d6fa3ce-9083-410c-bbdb-336a49b94cfc.jpg"",""img/0864/c3b63e8f-ea39-4d70-a1f2-b3fe4be8eb75.jpg""]","",""
"","3502","similarity","116","626625","0.0-6.0-110.0","3","[""img/0866/d266fece-59b3-46fa-b69f-96f6efb81b59.jpg"",""img/0894/151063aa-6472-4745-837b-36603aba5966.jpg""]","",""
"","3493","similarity","117","631121","0.0-6.0-111.0","5","[""img/0899/b45c550b-96c3-4255-ad59-48a2b4db1c1e.jpg"",""img/0903/f10e9eb5-0c21-4a6a-944c-5f10a6d0fa4d.jpg""]","",""
"","3213","similarity","118","635337","0.0-6.0-112.0","5","[""img/0902/168ebd47-9e82-4ab7-a18b-c3da85072db8.jpg"",""img/0904/9dd5708f-3f8b-46a9-b49f-2f2fab87b357.jpg""]","",""
"","35788","similarity","119","672129","0.0-6.0-113.0","2","[""img/0864/ea327690-500b-4137-bf91-451b309fe6a5.jpg"",""img/0860/15b24a61-25be-4356-9eac-5ce95d0cb4a4.jpg""]","",""
"","3429","similarity","120","676560","0.0-6.0-114.0","2","[""img/0860/87039971-2210-4aab-93c0-8e9b5f1655b2.jpg"",""img/0899/00715b3f-851b-420b-a26b-d7f79f7759a9.jpg""]","",""
"","3750","similarity","121","681312","0.0-6.0-115.0","2","[""img/0881/33d65d80-8a8e-4ecf-852d-0ad7725c17a2.jpg"",""img/0903/45e2d600-57ff-4d69-b22c-0c7896cd38f0.jpg""]","",""
"","4301","similarity","122","686616","0.0-6.0-116.0","2","[""img/0894/7dd6ff43-f8fc-408a-8a41-a2b261871820.jpg"",""img/0874/1016b306-087c-4afc-aa08-fa527b28dc76.jpg""]","",""
"","2494","similarity","123","690113","0.0-6.0-117.0","3","[""img/0881/445edb15-bd7f-4af3-8bd5-c6ad9677bb31.jpg"",""img/0862/d0ca4c78-fc35-46ed-bdcc-8e124283c53e.jpg""]","",""
"","2555","similarity","124","693672","0.0-6.0-118.0","5","[""img/0868/1a62b2b2-18f5-466e-b564-5176a57c565e.jpg"",""img/0875/3ecb367d-e9eb-4826-8aaa-7aa72fb98019.jpg""]","",""
"","3294","similarity","125","697968","0.0-6.0-119.0","3","[""img/0860/c5ccd1a4-4bb7-48e1-9b25-72cfaf06909b.jpg"",""img/0758/2fa3e613-e676-4e6e-bd12-705327eeb3e1.jpg""]","",""
"","2358","similarity","126","701328","0.0-6.0-120.0","3","[""img/0864/5f33e097-23e3-4002-882d-76e8cb15f451.jpg"",""img/0875/8521fd58-3b1e-4dc5-97ae-804edfa6734a.jpg""]","",""
"","2653","similarity","127","704984","0.0-6.0-121.0","2","[""img/0898/a114b375-cb89-44ba-9498-74213f1ecdee.jpg"",""img/0866/07c9c966-3c8d-40e7-8128-92b2acbaed5d.jpg""]","",""
"","4078","similarity","128","710064","0.0-6.0-122.0","2","[""img/0874/31e22c7c-99aa-40b1-bf03-dd73fa2df4d6.jpg"",""img/0904/ba8e689e-9ca6-4608-a2a1-3b0940666ae6.jpg""]","",""
"","5110","similarity","129","716176","0.0-6.0-123.0","2","[""img/0904/6291eb43-c10c-4810-a36a-101d09868b04.jpg"",""img/0864/afcba0a3-7e27-4757-b254-e9f05fad27e2.jpg""]","",""
"","2853","similarity","130","720032","0.0-6.0-124.0","5","[""img/0894/e2446cf5-cd48-486a-badc-76498e087fbe.jpg"",""img/0902/2db723b6-130f-454c-8c8d-88829edbcd65.jpg""]","",""
"","4718","similarity","131","728776","0.0-6.0-125.0","2","[""img/0868/7b212364-ff5f-4e28-9241-7eb6ea00161b.jpg"",""img/0864/5f74a653-3bdc-4308-8cca-ac667dc22e1f.jpg""]","",""
"","2751","similarity","132","732529","0.0-6.0-126.0","2","[""img/0899/f58b8d2f-b19d-4b59-8b94-8834be92e4ba.jpg"",""img/0866/11a1d141-be5e-443c-98c1-a9d4d9e3dec0.jpg""]","",""
"","4333","similarity","133","737865","0.0-6.0-127.0","3","[""img/0875/dbdd643e-6d0e-4a5c-ab57-b9c29b9c981a.jpg"",""img/0904/2fd488e9-960f-41f7-8a44-33375f7d5051.jpg""]","",""
"","2429","similarity","134","741297","0.0-6.0-128.0","2","[""img/0867/98d8cd96-1476-4fe0-a3a3-04f875500a1b.jpg"",""img/0899/56a605c3-d0a2-4215-89e1-779279d85a7c.jpg""]","",""
"","3886","similarity","135","746188","0.0-6.0-129.0","2","[""img/0901/4f9cffe0-c0be-4d7f-bacd-9d51efd19b4a.jpg"",""img/0867/aa05d113-fc19-4756-a8eb-7878f580bc92.jpg""]","",""
"","4171","similarity","136","751361","0.0-6.0-130.0","3","[""img/0864/e336a4c5-6648-4fd7-b2f6-93a3fb83f8c6.jpg"",""img/0769/022c7e3b-c3f2-4119-b4bc-f22fa7cae18c.jpg""]","",""
"","3070","similarity","137","755434","0.0-6.0-131.0","2","[""img/0903/39365c8e-a733-4801-ac7d-b87e38c3784b.jpg"",""img/0868/09a9ef4d-d000-4cfa-a6aa-ebec7c2edeb4.jpg""]","",""
"","3997","similarity","138","760433","0.0-6.0-132.0","2","[""img/0864/8ddd2e30-a1d0-479f-9cbe-591213023893.jpg"",""img/0867/12264664-1860-46df-8c21-162b9817cdda.jpg""]","",""
"","3086","similarity","139","764521","0.0-6.0-133.0","6","[""img/0901/08d6d1d1-c043-43c4-bb08-d45e062822b9.jpg"",""img/0860/4a022222-056d-461c-ab02-39fac9647552.jpg""]","",""
"","2702","similarity","140","768225","0.0-6.0-134.0","1","[""img/0881/4da99fdd-1f40-4bbb-8e21-8833eef313f5.jpg"",""img/0766/d50d734f-285c-4840-bc7a-c8dd4aff391e.jpg""]","",""
"","3173","similarity","141","772401","0.0-6.0-135.0","2","[""img/0903/8f7f9939-b8e6-433f-93dd-b362496c80a7.jpg"",""img/0864/c22faebd-9c53-47bc-ada3-b9a30c688e75.jpg""]","",""
"","3286","similarity","142","776690","0.0-6.0-136.0","1","[""img/0758/caa93da2-9edf-49fa-96b9-32dedd8f5078.jpg"",""img/0894/c505c65a-cde2-4f2c-8cde-f8676f7c894d.jpg""]","",""
"","4252","similarity","143","781945","0.0-6.0-137.0","6","[""img/0769/96556ef3-7fac-4c9d-8281-1cb0ea5081bc.jpg"",""img/0860/61fb959d-d4d9-4de4-9e4e-4fa62b4cfcd5.jpg""]","",""
"","5205","similarity","144","788153","0.0-6.0-138.0","5","[""img/0904/63dd06dd-dccb-47ba-9740-eb33239e18a7.jpg"",""img/0766/ba35c0fc-4d5b-490d-959e-c94b279cdd02.jpg""]","",""
"","3357","similarity","145","792512","0.0-6.0-139.0","2","[""img/0868/4a8a45ed-2c4f-421b-9564-409a33ecd26c.jpg"",""img/0860/18dfed73-e36b-4487-a8bd-0b8cff8e3668.jpg""]","",""
"","3982","similarity","146","797497","0.0-6.0-140.0","3","[""img/0758/3ddd05d3-557e-4ee7-8b78-9d2d681d8ae2.jpg"",""img/0864/3d4de670-b290-4285-9c3d-12a0e3af44e9.jpg""]","",""
"","2614","similarity","147","801114","0.0-6.0-141.0","6","[""img/0867/8ba0c5a7-c7e4-42cf-a80a-543763b90779.jpg"",""img/0867/ac1797e4-8afc-48fe-b252-86d1defb1cca.jpg""]","",""
"","5700","similarity","148","807817","0.0-6.0-142.0","7","[""img/0898/4184e5a2-84ea-4f36-9b42-ae58646f6f87.jpg"",""img/0898/5f699581-3853-4547-856c-12f419ba5af7.jpg""]","",""
"","2654","similarity","149","811474","0.0-6.0-143.0","5","[""img/0866/23a224f3-2012-4fc8-8e0f-3c36f8de27fd.jpg"",""img/0769/ebef2ddc-ba59-4e0e-97f8-927864eb5081.jpg""]","",""
"","2794","similarity","150","815273","0.0-6.0-144.0","5","[""img/0860/d9a0d117-6d1d-41c0-8fec-9aff0fd9e9f2.jpg"",""img/0898/661621d4-a14e-487c-8c74-354134a29710.jpg""]","",""
"","3574","similarity","151","819849","0.0-6.0-145.0","2","[""img/0766/d3bab2fc-ddcc-40a0-bb72-c0d0ebe19978.jpg"",""img/0864/e8bd659f-aa43-4748-877e-3118e8b4e189.jpg""]","",""
"","6997","similarity","152","827848","0.0-6.0-146.0","5","[""img/0860/5383b320-1518-4095-a58e-5cc1ae30b64c.jpg"",""img/0903/f1fa0f8d-e62b-4b4a-a174-31a0fabfe61b.jpg""]","",""
"","3255","similarity","153","832105","0.0-6.0-147.0","1","[""img/0867/c71dc569-f49c-4397-8381-68b8d726736d.jpg"",""img/0764/e42c1dc9-7831-4995-be19-7ca7b4d141fc.jpg""]","",""
"","3910","similarity","154","837018","0.0-6.0-148.0","6","[""img/0769/a1ce8d07-ba37-40de-bade-2778805521e0.jpg"",""img/0904/a8c3c7d2-9bcf-4347-9e03-8203adfc1fc5.jpg""]","",""
"","5980","similarity","155","844001","0.0-6.0-149.0","2","[""img/0764/c84fbfa8-521c-407a-9bd3-24f7308d896c.jpg"",""img/0901/31c032fd-3c3d-4882-a226-da9a80198937.jpg""]","",""
"","3678","similarity","156","848682","0.0-6.0-150.0","5","[""img/0904/25365108-e038-4021-aac9-797f2063b337.jpg"",""img/0899/0adc0bc3-6fca-4078-be6f-d45ddf1653d5.jpg""]","",""
"","4309","similarity","157","853993","0.0-6.0-151.0","2","[""img/0862/99a99e39-8355-44ec-b993-e7bcec111e1c.jpg"",""img/0867/50a1b60e-3a29-44bf-b606-d4bd3746fea9.jpg""]","",""
"","3237","similarity","158","858233","0.0-6.0-152.0","7","[""img/0766/aaec5f42-7f0a-4a16-aeca-488d757acbcc.jpg"",""img/0766/ef3b15ce-abb7-4292-ad93-aec8e8b50520.jpg""]","",""
"","4911","similarity","159","864146","0.0-6.0-153.0","1","[""img/0862/064818ee-13d5-4618-bb24-21c7368ea278.jpg"",""img/0894/2d2db7b3-e8a3-499b-b63a-14f51bf73882.jpg""]","",""
"","2845","similarity","160","867993","0.0-6.0-154.0","5","[""img/0899/76ad07e2-ca25-45eb-84f2-8d80b8ca3e26.jpg"",""img/0901/ae1e6ce4-2e10-4ca9-b1e7-21628637ab74.jpg""]","",""
"","3870","similarity","161","872866","0.0-6.0-155.0","6","[""img/0874/2c9464dd-8a23-4baa-ac94-1ba3af5c15cc.jpg"",""img/0874/29830da7-be5f-44e5-b141-652a0ccf7269.jpg""]","",""
"","3643","similarity","162","877513","0.0-6.0-156.0","2","[""img/0860/9593362c-9fe5-4d12-9735-6000a11f6aa5.jpg"",""img/0867/db7e032f-162b-46f5-ae67-2b29679adee4.jpg""]","",""
"","3478","similarity","163","881993","0.0-6.0-157.0","1","[""img/0901/12da1841-e611-435c-9719-109413d536a8.jpg"",""img/0881/62a64f90-7a72-4aee-a1a1-0c548ac9bdda.jpg""]","",""
"","4150","similarity","164","887145","0.0-6.0-158.0","5","[""img/0903/c3cb4a01-2797-43ca-b216-88c67b323fbb.jpg"",""img/0902/511abb54-0094-4f4d-b6dc-3f2c97050521.jpg""]","",""
"","3230","similarity","165","891377","0.0-6.0-159.0","2","[""img/0860/e14d67c1-6d92-4f1e-9257-c8607159c19c.jpg"",""img/0764/ba0c0955-acbb-457d-b1c2-f006b88121d5.jpg""]","",""
"","2901","similarity","166","895281","0.0-6.0-160.0","2","[""img/0902/62f11694-7ed7-4cb7-8a73-9e95c43824e7.jpg"",""img/0875/ebf7653f-ff45-4e9f-af58-2c042ab3cd2b.jpg""]","",""
"","3230","similarity","167","899513","0.0-6.0-161.0","5","[""img/0898/81b08535-2020-4c15-9ce4-2f1e460755ae.jpg"",""img/0862/92f0146c-20c4-482e-aef5-adb693790338.jpg""]","",""
"","4030","similarity","168","904546","0.0-6.0-162.0","5","[""img/0894/10f22b96-040c-44f4-950b-a4963f3f506c.jpg"",""img/0875/5a7c4e35-6514-4e12-8879-d16071da4cd6.jpg""]","",""
"","4181","similarity","169","909729","0.0-6.0-163.0","1","[""img/0866/a04d37f0-99dd-478a-b6c6-58b215138f84.jpg"",""img/0864/efcfbb1b-8197-44c9-b723-40d6c608dd3c.jpg""]","",""
"","3349","similarity","170","914081","0.0-6.0-164.0","3","[""img/0766/1865bfc9-2410-4765-a804-3ae4ba2393d0.jpg"",""img/0862/e697469a-ec19-4414-b972-7b9f3564785b.jpg""]","",""
"","3758","similarity","171","918841","0.0-6.0-165.0","1","[""img/0866/c446214b-a368-4c65-ae39-ea46894256ab.jpg"",""img/0874/767f289c-9814-4496-803f-745cc8913d1f.jpg""]","",""
"","2318","similarity","172","922162","0.0-6.0-166.0","6","[""img/0862/de9ad88c-b522-430a-8ee9-eb06a9f85df5.jpg"",""img/0860/524b2e98-5767-4d53-942c-ebae6925659b.jpg""]","",""
"","3453","similarity","173","933584","0.0-6.0-167.0","3","[""img/0766/dd3e18d0-0c98-4d05-b850-69976ee8cd75.jpg"",""img/0901/00acf6c1-b66e-4060-bb04-4caf29b5a8b0.jpg""]","",""
"","5591","similarity","174","940177","0.0-6.0-168.0","6","[""img/0862/847e5208-38ec-4f36-949c-296cdd7424ee.jpg"",""img/0862/ba89835a-408c-480b-8594-ed4ffa97eb5c.jpg""]","",""
"","3574","similarity","175","944753","0.0-6.0-169.0","5","[""img/0894/661b9f9f-4bde-487a-b1ed-87085fde6948.jpg"",""img/0764/06ea144f-f4f3-4a14-ba47-f20f35c561e0.jpg""]","",""
"","2419","similarity","176","948177","0.0-6.0-170.0","2","[""img/0874/99f6563c-8a8d-4c1c-a41d-667b618c3fd5.jpg"",""img/0898/e167334e-cc1d-4986-b3b1-c7bc7da64baa.jpg""]","",""
"","2590","similarity","177","951769","0.0-6.0-171.0","1","[""img/0860/4c530c3c-6aab-492a-94d1-9c01797bde40.jpg"",""img/0766/908bc45b-7c9e-4f95-806e-86b196ebcb2c.jpg""]","",""
"","3374","similarity","178","956145","0.0-6.0-172.0","5","[""img/0898/79233891-305a-4a6a-8ddf-5c8604858203.jpg"",""img/0864/300bb811-8b3c-4c42-8653-6097c3725197.jpg""]","",""
"","4206","similarity","179","961353","0.0-6.0-173.0","2","[""img/0881/344de456-b358-4887-bd0e-e4c3278af887.jpg"",""img/0764/6fbd1902-fa2a-48d8-bc11-705b8ab68d8f.jpg""]","",""
"","4157","similarity","180","966513","0.0-6.0-174.0","3","[""img/0898/68476bbb-34a1-42d9-8bc1-deab783d4489.jpg"",""img/0868/d6d1f30d-4323-435a-b194-7892521bc57e.jpg""]","",""
"","3446","similarity","181","970961","0.0-6.0-175.0","6","[""img/0864/ef9cbca0-4be8-435d-ad49-977259e80409.jpg"",""img/0864/da39ad34-04e0-40d4-a724-c08d53e0ea09.jpg""]","",""
"","4587","similarity","182","976553","0.0-6.0-176.0","2","[""img/0899/a048912c-b12c-40e3-90af-46b69b0cc4fe.jpg"",""img/0862/f23038d4-c366-4f70-979f-66b62362efa4.jpg""]","",""
"","4437","similarity","183","981993","0.0-6.0-177.0","3","[""img/0875/e7e66b13-b573-431e-b85e-288ce04a35a3.jpg"",""img/0758/d540bee6-b460-4c32-ac57-bc282742d7d4.jpg""]","",""
"","2981","similarity","184","985976","0.0-6.0-178.0","1","[""img/0866/9b38d691-1802-4959-ab3f-fc902f0e4ea6.jpg"",""img/0901/8bb79e82-9c43-4b6f-a655-40655519598b.jpg""]","",""
"","3111","similarity","185","990089","0.0-6.0-179.0","5","[""img/0769/c7cfacc3-7f07-46ff-9f5d-8073f4c4679b.jpg"",""img/0874/93d1f8dc-acf2-4f03-bd8d-8ec35df276ed.jpg""]","",""
"","3406","similarity","186","994497","0.0-6.0-180.0","3","[""img/0875/a4935837-7d3c-4df6-88c1-36a94d4991ca.jpg"",""img/0881/14236cf2-6b95-48b8-9368-78af09d2d27f.jpg""]","",""
"","3077","similarity","187","998577","0.0-6.0-181.0","5","[""img/0866/93a27239-8317-4e08-98ca-d8b1ff298e07.jpg"",""img/0868/5fa7f9d0-f0e5-454c-8224-74d964818f56.jpg""]","",""
"","3171","similarity","188","1002752","0.0-6.0-182.0","3","[""img/0899/4f7bc593-8ddd-4da3-a0b9-84da730d3370.jpg"",""img/0758/d57c2592-a317-4f63-91be-91a3a9afd222.jpg""]","",""
"","5868","similarity","189","1009625","0.0-6.0-183.0","6","[""img/0874/3f471690-9788-4d03-90c7-f615aecef149.jpg"",""img/0875/99698b4d-b4a1-44bc-8c83-8ea755bbbf61.jpg""]","",""
"","4510","similarity","190","1015137","0.0-6.0-184.0","3","[""img/0904/06dacdc5-2206-4fb8-92b7-88042d22833c.jpg"",""img/0862/53a9cf7c-93c4-41b9-952f-07d17f7a17b2.jpg""]","",""
"","2805","similarity","191","1018945","0.0-6.0-185.0","2","[""img/0902/9f543501-3cf1-45a7-a2f1-eeca87cc15b9.jpg"",""img/0766/2da002a4-05c9-4f5c-9ed7-433b4183e273.jpg""]","",""
"","4582","similarity","192","1024529","0.0-6.0-186.0","2","[""img/0758/dd559618-7f09-4a07-8018-d311c4a5ea29.jpg"",""img/0769/da36e3f7-2337-434f-ab57-11822dd7eed7.jpg""]","",""
"","5166","similarity","193","1030697","0.0-6.0-187.0","7","[""img/0881/5fe04dd0-5c74-47b7-99c8-b068db9ca26a.jpg"",""img/0881/f62bdcd1-a4b7-4d48-83da-d9c9e01c8727.jpg""]","",""
"","3029","similarity","194","1034729","0.0-6.0-188.0","2","[""img/0758/335851a0-a55b-46d8-ab05-8463eda48349.jpg"",""img/0866/945c6710-d15b-4a5b-a8f6-69af0850357f.jpg""]","",""
"","5662","similarity","195","1041394","0.0-6.0-189.0","5","[""img/0764/8389e74f-e0e0-435d-945f-da1f4c92ccb6.jpg"",""img/0898/0af304a2-6a7a-4082-ab7c-4450cd08cc58.jpg""]","",""
"","2853","similarity","196","1045249","0.0-6.0-190.0","3","[""img/0903/0fb24af7-9a26-4e9d-aadc-959a36f683e2.jpg"",""img/0901/148b747a-7392-437e-8823-33053c5dff3f.jpg""]","",""
"","4061","similarity","197","1050313","0.0-6.0-191.0","5","[""img/0902/f3cfec34-482c-4bdb-9c92-19ea6cfce183.jpg"",""img/0898/04e39a7a-fcf6-4156-ab0e-f5871f335e1c.jpg""]","",""
"","5151","similarity","198","1056489","0.0-6.0-192.0","3","[""img/0864/49150900-7f25-4ce8-8d10-9b47a71d1997.jpg"",""img/0901/875dedb9-24c9-4443-9f8c-85e97d70ee5a.jpg""]","",""
"","3853","similarity","199","1061345","0.0-6.0-193.0","3","[""img/0894/4739e06d-c31e-4bf1-bf91-c97fa9afb456.jpg"",""img/0881/292e9b4b-fca0-4ba8-87f1-4048f9e37b7d.jpg""]","",""
"","4606","similarity","200","1066959","0.0-6.0-194.0","6","[""img/0868/77091fc7-a590-4ebb-b915-fdb2483a2399.jpg"",""img/0868/d98ca254-b195-477f-b57e-5760a2717db8.jpg""]","",""
"","4030","similarity","201","1071993","0.0-6.0-195.0","3","[""img/0899/f95cbdb4-f804-4f5d-ad76-373ad343e658.jpg"",""img/0764/f2f23359-8e82-41d3-8900-5b9f4433991d.jpg""]","",""
"","4390","similarity","202","1077386","0.0-6.0-196.0","2","[""img/0881/d1982897-8d8d-4704-a940-1ee5d07a1f15.jpg"",""img/0904/73920552-103b-4c9c-9ece-e0b8376b4504.jpg""]","",""
"","6437","similarity","203","1084825","0.0-6.0-197.0","3","[""img/0864/1d15626a-2f7c-410f-819c-0fa2c967e95e.jpg"",""img/0902/71c03003-03ef-4b0f-8229-e0c857150a5d.jpg""]","",""
"","5886","similarity","204","1091713","0.0-6.0-198.0","6","[""img/0894/767a0eec-1064-46b1-b1aa-dfa02b0cd74e.jpg"",""img/0904/d23dd7be-7fe8-4435-82f7-bd592c01e6a1.jpg""]","",""
"","3206","similarity","205","1095921","0.0-6.0-199.0","7","[""img/0901/50e1d53e-a49f-4806-8610-be6dec5a2475.jpg"",""img/0901/71e551a2-9ce2-409c-9c7c-dd556a0791e9.jpg""]","",""
"","3870","similarity","206","1100793","0.0-6.0-200.0","3","[""img/0894/86201968-6e78-4d68-9b3a-d1692e066210.jpg"",""img/0860/5bff793e-cbd5-4d7e-b628-0ac2b0e30b64.jpg""]","",""
"","5589","similarity","207","1107385","0.0-6.0-201.0","6","[""img/0898/b3290bf9-215b-4b45-b21a-65bdf73f142f.jpg"",""img/0903/4cbdc464-e562-4ec2-9bb6-15f894fdf528.jpg""]","",""
"","3662","similarity","208","1112049","0.0-6.0-202.0","2","[""img/0864/0116ca98-293d-4fa6-a93b-5a6144ef64cc.jpg"",""img/0894/e5edf723-72a5-4673-8441-6c1734a8929b.jpg""]","",""
"","4806","similarity","209","1117858","0.0-6.0-203.0","2","[""img/0874/eba003b4-cdab-4eee-8bc3-f064c7d94165.jpg"",""img/0860/c7047cd2-7cc1-41b6-8a34-c0986774975f.jpg""]","",""
"","4628","similarity","210","1123489","0.0-6.0-204.0","2","[""img/0862/5d887e9f-89e2-4ebc-80a0-6d46fe6480db.jpg"",""img/0875/5a716432-c6ca-4b1c-955a-2b8ac25198ee.jpg""]","",""
"","3910","similarity","211","1128401","0.0-6.0-205.0","1","[""img/0867/075e0f95-856b-4cbb-acf5-092393aaf04e.jpg"",""img/0881/84397291-bc14-4fbf-90e8-241e486ab0fe.jpg""]","",""
"","4438","similarity","212","1133841","0.0-6.0-206.0","5","[""img/0901/548d1110-7cb8-42a2-9927-9798875c8b5c.jpg"",""img/0902/c920f0e1-1c81-480f-a164-c77f2dc6ce9a.jpg""]","",""
"","7901","similarity","213","1142745","0.0-6.0-207.0","4","[""img/0899/06b0fc99-0581-461a-9913-d1a5a941ac61.jpg"",""img/0864/65210d57-1153-4657-886a-32e758f49b4a.jpg""]","",""
"","3830","similarity","214","1147577","0.0-6.0-208.0","3","[""img/0901/a9b9c0a0-8aed-4888-a78a-65fb7e764d13.jpg"",""img/0769/a3cfbdeb-acb3-4eac-87fb-4b117f42d4f8.jpg""]","",""
"","4278","similarity","215","1163264","0.0-6.0-209.0","6","[""img/0902/40d0b6ec-3907-4573-b227-e7d8e9cad1c3.jpg"",""img/0902/6c2c243a-f663-45db-baf5-038d3d58c589.jpg""]","",""
"[{""page_index"":0,""viewing_time"":6207}]","6208","instructions","216","1170472","0.0-7.0","","","",""
"","62180","image-multi-choice","217","1233666","0.0-8.0-0.0","","","{""Q0"":""Yellow Warbler""}","Nashville Warbler"
"","4901","image-multi-choice","218","1239576","0.0-8.0-1.0","","","{""Q0"":""Black-and-white Warbler""}","Black-and-white Warbler"
"","6617","image-multi-choice","219","1247200","0.0-8.0-2.0","","","{""Q0"":""Townsend's Warbler""}","Townsend's Warbler"
"","4777","image-multi-choice","220","1252985","0.0-8.0-3.0","","","{""Q0"":""Lark Sparrow""}","Lark Sparrow"
"","2903","image-multi-choice","221","1256896","0.0-8.0-4.0","","","{""Q0"":""Yellow Warbler""}","Yellow Warbler"
"","11097","image-multi-choice","222","1269001","0.0-8.0-5.0","","","{""Q0"":""Orange-crowned Warbler""}","Orange-crowned Warbler"
"","3469","image-multi-choice","223","1273481","0.0-8.0-6.0","","","{""Q0"":""White-throated Sparrow""}","White-throated Sparrow"
"","3973","image-multi-choice","224","1278464","0.0-8.0-7.0","","","{""Q0"":""Fox Sparrow""}","Fox Sparrow"
"","34343","image-multi-choice","225","1313817","0.0-8.0-8.0","","","{""Q0"":""Song Sparrow""}","Song Sparrow"
"","4633","image-multi-choice","226","1319458","0.0-8.0-9.0","","","{""Q0"":""Blackburnian Warbler""}","Blackburnian Warbler"
"","11751","image-multi-choice","227","1332218","0.0-8.0-10.0","","","{""Q0"":""Vesper Sparrow""}","Vesper Sparrow"
"","3719","image-multi-choice","228","1336946","0.0-8.0-11.0","","","{""Q0"":""White-crowned Sparrow""}","White-crowned Sparrow"
"","17608","image-multi-choice","229","1355562","0.0-8.0-12.0","","","{""Q0"":""American Tree Sparrow""}","American Tree Sparrow"
"","6258","image-multi-choice","230","1362827","0.0-8.0-13.0","","","{""Q0"":""Tennessee Warbler""}","Tennessee Warbler"
"","3654","image-multi-choice","231","1367489","0.0-8.0-14.0","","","{""Q0"":""Magnolia Warbler""}","Magnolia Warbler"
"","4257","image-multi-choice","232","1372754","0.0-8.0-15.0","","","{""Q0"":""Northern Waterthrush""}","Northern Waterthrush"
"","9527","image-multi-choice","233","1383289","0.0-8.0-16.0","","","{""Q0"":""Chipping Sparrow""}","Chipping Sparrow"
"","13872","image-multi-choice","234","1398169","0.0-8.0-17.0","","","{""Q0"":""Lincoln's Sparrow""}","Swamp Sparrow"
"","5503","image-multi-choice","235","1404681","0.0-8.0-18.0","","","{""Q0"":""Lincoln's Sparrow""}","Lincoln's Sparrow"
"","4223","image-multi-choice","236","1409914","0.0-8.0-19.0","","","{""Q0"":""Ovenbird""}","Ovenbird"
