[{"view_history":"[{\"page_index\":0,\"viewing_time\":16458}]","rt":16458,"trial_type":"instructions","trial_index":0,"time_elapsed":16459,"internal_node_id":"0.0-0.0"},{"sim_score":6,"rt":12208,"stimulus":"[\"img/866.jpg\",\"img/868.jpg\"]","trial_type":"similarity_demo","trial_index":1,"time_elapsed":29678,"internal_node_id":"0.0-1.0"},{"view_history":"[{\"page_index\":0,\"viewing_time\":11336}]","rt":11336,"trial_type":"instructions","trial_index":2,"time_elapsed":42028,"internal_node_id":"0.0-2.0"},{"sim_score":3,"rt":8431,"stimulus":"[\"img/766.jpg\",\"img/867.jpg\"]","trial_type":"similarity_demo","trial_index":3,"time_elapsed":51473,"internal_node_id":"0.0-3.0"},{"view_history":"[{\"page_index\":0,\"viewing_time\":6601}]","rt":6601,"trial_type":"instructions","trial_index":4,"time_elapsed":59084,"internal_node_id":"0.0-4.0"},{"view_history":"[{\"page_index\":0,\"viewing_time\":6635}]","rt":6635,"trial_type":"instructions","trial_index":5,"time_elapsed":66732,"internal_node_id":"0.0-5.0"},{"sim_score":2,"rt":3494,"stimulus":"[\"img/0868/0d3abd3a-b6c3-4584-a9f7-e2da63748b3d.jpg\",\"img/0901/a6c90438-fa7c-4418-ac7c-16c2e772dd98.jpg\"]","trial_type":"similarity","trial_index":6,"time_elapsed":71240,"internal_node_id":"0.0-6.0-0.0"},{"sim_score":2,"rt":3482,"stimulus":"[\"img/0769/878531fd-e0e8-4ad1-b9ad-f018bb104ca0.jpg\",\"img/0867/ac1797e4-8afc-48fe-b252-86d1defb1cca.jpg\"]","trial_type":"similarity","trial_index":7,"time_elapsed":75726,"internal_node_id":"0.0-6.0-1.0"},{"sim_score":5,"rt":4477,"stimulus":"[\"img/0766/d3bab2fc-ddcc-40a0-bb72-c0d0ebe19978.jpg\",\"img/0898/82231d4c-218b-4d0a-b50d-35a49b524e97.jpg\"]","trial_type":"similarity","trial_index":8,"time_elapsed":81226,"internal_node_id":"0.0-6.0-2.0"},{"sim_score":3,"rt":2406,"stimulus":"[\"img/0902/962f645e-9b55-4628-9b50-c703422bfe1a.jpg\",\"img/0881/b1a136f7-8511-4d3a-a0f6-3879acf1e1a1.jpg\"]","trial_type":"similarity","trial_index":9,"time_elapsed":84636,"internal_node_id":"0.0-6.0-3.0"},{"sim_score":7,"rt":3786,"stimulus":"[\"img/0894/5c7677b0-a4f1-479e-b274-7822c415175a.jpg\",\"img/0894/38f5931f-926d-414e-b498-66b188978b7a.jpg\"]","trial_type":"similarity","trial_index":10,"time_elapsed":89435,"internal_node_id":"0.0-6.0-4.0"},{"sim_score":2,"rt":4648,"stimulus":"[\"img/0874/bf14b896-e930-4fd9-9c05-2e83317a2773.jpg\",\"img/0899/0433d056-aa30-4f8a-9aa1-abbb951e4edd.jpg\"]","trial_type":"similarity","trial_index":11,"time_elapsed":95096,"internal_node_id":"0.0-6.0-5.0"},{"sim_score":5,"rt":5572,"stimulus":"[\"img/0904/a8c3c7d2-9bcf-4347-9e03-8203adfc1fc5.jpg\",\"img/0764/21e3292f-01ad-4238-828b-61b817857d16.jpg\"]","trial_type":"similarity","trial_index":12,"time_elapsed":101682,"internal_node_id":"0.0-6.0-6.0"},{"sim_score":6,"rt":4757,"stimulus":"[\"img/0899/8abe6c69-822c-436c-9bf2-96c818b49ba5.jpg\",\"img/0898/4184e5a2-84ea-4f36-9b42-ae58646f6f87.jpg\"]","trial_type":"similarity","trial_index":13,"time_elapsed":107445,"internal_node_id":"0.0-6.0-7.0"},{"sim_score":3,"rt":3287,"stimulus":"[\"img/0874/adf9a8f1-c40b-402b-b95b-1e85a54a7b62.jpg\",\"img/0903/470acfd5-5571-4a7b-b3a4-28d87e098138.jpg\"]","trial_type":"similarity","trial_index":14,"time_elapsed":111747,"internal_node_id":"0.0-6.0-8.0"},{"sim_score":7,"rt":4425,"stimulus":"[\"img/0881/5fe04dd0-5c74-47b7-99c8-b068db9ca26a.jpg\",\"img/0758/9fb5b2fe-3f00-4fe6-973c-1ce10d5f4cd5.jpg\"]","trial_type":"similarity","trial_index":15,"time_elapsed":117175,"internal_node_id":"0.0-6.0-9.0"},{"sim_score":5,"rt":3872,"stimulus":"[\"img/0898/661621d4-a14e-487c-8c74-354134a29710.jpg\",\"img/0901/04a53755-6da5-44d4-a7a6-48a6bc0a2280.jpg\"]","trial_type":"similarity","trial_index":16,"time_elapsed":122057,"internal_node_id":"0.0-6.0-10.0"},{"sim_score":5,"rt":2261,"stimulus":"[\"img/0903/2a9c8033-3e70-47fa-816d-97ee1813a3a3.jpg\",\"img/0769/35364db7-e0d5-40ef-93dc-faf9dfb95136.jpg\"]","trial_type":"similarity","trial_index":17,"time_elapsed":125323,"internal_node_id":"0.0-6.0-11.0"},{"sim_score":2,"rt":2528,"stimulus":"[\"img/0764/ef0e64c6-d0dd-4dc6-87b6-ce5c0665f421.jpg\",\"img/0868/e0aff734-077f-40dd-9781-74821abd3621.jpg\"]","trial_type":"similarity","trial_index":18,"time_elapsed":128860,"internal_node_id":"0.0-6.0-12.0"},{"sim_score":2,"rt":3444,"stimulus":"[\"img/0867/db7e032f-162b-46f5-ae67-2b29679adee4.jpg\",\"img/0903/f1fa0f8d-e62b-4b4a-a174-31a0fabfe61b.jpg\"]","trial_type":"similarity","trial_index":19,"time_elapsed":133322,"internal_node_id":"0.0-6.0-13.0"},{"sim_score":2,"rt":3391,"stimulus":"[\"img/0766/af3be95e-e52e-4fae-899b-0ff02ec340aa.jpg\",\"img/0758/67c0be2f-9e91-48b3-8219-70ac0a1802fa.jpg\"]","trial_type":"similarity","trial_index":20,"time_elapsed":137717,"internal_node_id":"0.0-6.0-14.0"},{"sim_score":3,"rt":2462,"stimulus":"[\"img/0902/30c420f5-c714-4681-ae5a-c0ba8f636a26.jpg\",\"img/0860/61fb959d-d4d9-4de4-9e4e-4fa62b4cfcd5.jpg\"]","trial_type":"similarity","trial_index":21,"time_elapsed":141194,"internal_node_id":"0.0-6.0-15.0"},{"sim_score":2,"rt":2590,"stimulus":"[\"img/0769/c34b7763-8ff2-46d5-9e92-f1d8f3bedbd8.jpg\",\"img/0875/2e13d160-eea1-416b-aff1-d37ab99ecc1d.jpg\"]","trial_type":"similarity","trial_index":22,"time_elapsed":144787,"internal_node_id":"0.0-6.0-16.0"},{"sim_score":2,"rt":2220,"stimulus":"[\"img/0904/56e73f28-7e64-489b-a161-e6b1a063878d.jpg\",\"img/0866/6f2a90d7-14f1-4f1b-bd64-fc0af6b9fe44.jpg\"]","trial_type":"similarity","trial_index":23,"time_elapsed":148027,"internal_node_id":"0.0-6.0-17.0"},{"sim_score":7,"rt":2279,"stimulus":"[\"img/0875/99698b4d-b4a1-44bc-8c83-8ea755bbbf61.jpg\",\"img/0875/5a716432-c6ca-4b1c-955a-2b8ac25198ee.jpg\"]","trial_type":"similarity","trial_index":24,"time_elapsed":151316,"internal_node_id":"0.0-6.0-18.0"},{"sim_score":7,"rt":1899,"stimulus":"[\"img/0758/335851a0-a55b-46d8-ab05-8463eda48349.jpg\",\"img/0758/f61ecdf8-a7d4-4db0-b84d-be46f7cfaffc.jpg\"]","trial_type":"similarity","trial_index":25,"time_elapsed":154235,"internal_node_id":"0.0-6.0-19.0"},{"sim_score":2,"rt":2056,"stimulus":"[\"img/0902/a323b62d-2fd5-4ac8-acc6-35b768f3c3f2.jpg\",\"img/0874/7e4f2150-3b59-4a36-b5da-a4e0ba410531.jpg\"]","trial_type":"similarity","trial_index":26,"time_elapsed":157295,"internal_node_id":"0.0-6.0-20.0"},{"sim_score":6,"rt":4163,"stimulus":"[\"img/0764/f2f23359-8e82-41d3-8900-5b9f4433991d.jpg\",\"img/0769/8c7cf147-1780-4d5c-8ddf-5ea23ff03ac9.jpg\"]","trial_type":"similarity","trial_index":27,"time_elapsed":162464,"internal_node_id":"0.0-6.0-21.0"},{"sim_score":1,"rt":2457,"stimulus":"[\"img/0901/00acf6c1-b66e-4060-bb04-4caf29b5a8b0.jpg\",\"img/0874/31e22c7c-99aa-40b1-bf03-dd73fa2df4d6.jpg\"]","trial_type":"similarity","trial_index":28,"time_elapsed":165928,"internal_node_id":"0.0-6.0-22.0"},{"sim_score":2,"rt":2136,"stimulus":"[\"img/0875/527ced51-8e53-4aab-ab05-86df219104c0.jpg\",\"img/0903/b0df4094-a3be-4b5b-81bd-8d260f13f61b.jpg\"]","trial_type":"similarity","trial_index":29,"time_elapsed":169074,"internal_node_id":"0.0-6.0-23.0"},{"sim_score":3,"rt":2259,"stimulus":"[\"img/0769/662ab839-88d1-4ebf-af05-9b2980cad943.jpg\",\"img/0881/c843e210-bdfe-4a7c-8bbe-fcea1f90fe1c.jpg\"]","trial_type":"similarity","trial_index":30,"time_elapsed":172347,"internal_node_id":"0.0-6.0-24.0"},{"sim_score":2,"rt":2319,"stimulus":"[\"img/0867/bf560d4f-dee3-4f11-a385-705cc1aa5f3c.jpg\",\"img/0904/96e503ea-6630-4996-85f2-0237688ce441.jpg\"]","trial_type":"similarity","trial_index":31,"time_elapsed":175670,"internal_node_id":"0.0-6.0-25.0"},{"sim_score":5,"rt":3050,"stimulus":"[\"img/0860/8a92e21b-6a32-4e4a-a445-2d5a487ed0a4.jpg\",\"img/0881/84397291-bc14-4fbf-90e8-241e486ab0fe.jpg\"]","trial_type":"similarity","trial_index":32,"time_elapsed":179731,"internal_node_id":"0.0-6.0-26.0"},{"sim_score":6,"rt":3297,"stimulus":"[\"img/0866/386235d2-6857-41e7-88a8-25cfc3430025.jpg\",\"img/0866/93a27239-8317-4e08-98ca-d8b1ff298e07.jpg\"]","trial_type":"similarity","trial_index":33,"time_elapsed":184029,"internal_node_id":"0.0-6.0-27.0"},{"sim_score":3,"rt":3167,"stimulus":"[\"img/0764/7f4ee8e3-9315-4a57-be7d-db8454b33766.jpg\",\"img/0862/ba89835a-408c-480b-8594-ed4ffa97eb5c.jpg\"]","trial_type":"similarity","trial_index":34,"time_elapsed":188207,"internal_node_id":"0.0-6.0-28.0"},{"sim_score":2,"rt":2339,"stimulus":"[\"img/0904/696ebb60-8891-417a-91fd-c53218907a95.jpg\",\"img/0758/caa93da2-9edf-49fa-96b9-32dedd8f5078.jpg\"]","trial_type":"similarity","trial_index":35,"time_elapsed":191557,"internal_node_id":"0.0-6.0-29.0"},{"sim_score":5,"rt":2528,"stimulus":"[\"img/0894/7dd6ff43-f8fc-408a-8a41-a2b261871820.jpg\",\"img/0899/b45c550b-96c3-4255-ad59-48a2b4db1c1e.jpg\"]","trial_type":"similarity","trial_index":36,"time_elapsed":195107,"internal_node_id":"0.0-6.0-30.0"},{"sim_score":3,"rt":1631,"stimulus":"[\"img/0860/f44ba3fb-03a2-42f0-8509-2c1ded493086.jpg\",\"img/0904/09934646-45d2-4147-8fec-64a22a5ac822.jpg\"]","trial_type":"similarity","trial_index":37,"time_elapsed":197739,"internal_node_id":"0.0-6.0-31.0"},{"sim_score":6,"rt":1968,"stimulus":"[\"img/0874/a82926a3-0b43-4add-803c-d5f9ea7798ee.jpg\",\"img/0881/0c7068da-d0d9-4103-bda1-74ef7a2b32c3.jpg\"]","trial_type":"similarity","trial_index":38,"time_elapsed":200718,"internal_node_id":"0.0-6.0-32.0"},{"sim_score":3,"rt":2192,"stimulus":"[\"img/0881/f8bd891e-aa09-4782-89db-33e7cb2b0cf1.jpg\",\"img/0899/56a605c3-d0a2-4215-89e1-779279d85a7c.jpg\"]","trial_type":"similarity","trial_index":39,"time_elapsed":203921,"internal_node_id":"0.0-6.0-33.0"},{"sim_score":5,"rt":3318,"stimulus":"[\"img/0866/bf14b5bd-fb55-47db-86b9-4f8aeb9a6dad.jpg\",\"img/0862/92f0146c-20c4-482e-aef5-adb693790338.jpg\"]","trial_type":"similarity","trial_index":40,"time_elapsed":208266,"internal_node_id":"0.0-6.0-34.0"},{"sim_score":3,"rt":2206,"stimulus":"[\"img/0868/15dd6fd7-791e-4b53-b203-195d617521a4.jpg\",\"img/0894/767a0eec-1064-46b1-b1aa-dfa02b0cd74e.jpg\"]","trial_type":"similarity","trial_index":41,"time_elapsed":211478,"internal_node_id":"0.0-6.0-35.0"},{"sim_score":7,"rt":4614,"stimulus":"[\"img/0860/8277806e-b684-4474-8f7b-3fca946d7d4f.jpg\",\"img/0860/c7047cd2-7cc1-41b6-8a34-c0986774975f.jpg\"]","trial_type":"similarity","trial_index":42,"time_elapsed":217106,"internal_node_id":"0.0-6.0-36.0"},{"sim_score":5,"rt":4180,"stimulus":"[\"img/0862/99a99e39-8355-44ec-b993-e7bcec111e1c.jpg\",\"img/0864/b3c4e378-28f0-4699-9338-2a257b4bca04.jpg\"]","trial_type":"similarity","trial_index":43,"time_elapsed":222300,"internal_node_id":"0.0-6.0-37.0"},{"sim_score":1,"rt":3779,"stimulus":"[\"img/0766/00891401-e4c9-4ce1-bc19-f70740d174bc.jpg\",\"img/0866/9b38d691-1802-4959-ab3f-fc902f0e4ea6.jpg\"]","trial_type":"similarity","trial_index":44,"time_elapsed":227093,"internal_node_id":"0.0-6.0-38.0"},{"sim_score":2,"rt":2220,"stimulus":"[\"img/0875/5a1e5100-0d94-4fec-bbe9-ca9894d2cf8e.jpg\",\"img/0898/f3a3f225-1248-4ac7-b93b-f0ff28485bf3.jpg\"]","trial_type":"similarity","trial_index":45,"time_elapsed":230326,"internal_node_id":"0.0-6.0-39.0"},{"sim_score":6,"rt":2916,"stimulus":"[\"img/0766/110832e5-2646-4bd0-a94e-5df8cc314269.jpg\",\"img/0769/db94b61b-a5a7-4861-9d32-7b02ad194fb0.jpg\"]","trial_type":"similarity","trial_index":46,"time_elapsed":234254,"internal_node_id":"0.0-6.0-40.0"},{"sim_score":3,"rt":2233,"stimulus":"[\"img/0874/93d1f8dc-acf2-4f03-bd8d-8ec35df276ed.jpg\",\"img/0764/ec2dd087-c471-4370-b570-95a542506a96.jpg\"]","trial_type":"similarity","trial_index":47,"time_elapsed":241007,"internal_node_id":"0.0-6.0-41.0"},{"sim_score":2,"rt":2059,"stimulus":"[\"img/0868/d98ca254-b195-477f-b57e-5760a2717db8.jpg\",\"img/0902/3f0eeac5-c996-4026-a376-563ce8f28521.jpg\"]","trial_type":"similarity","trial_index":48,"time_elapsed":244076,"internal_node_id":"0.0-6.0-42.0"},{"sim_score":1,"rt":1945,"stimulus":"[\"img/0875/2c361b79-c3d1-4eda-812e-bf03192407bf.jpg\",\"img/0899/fef567a2-c121-4481-9af0-ff108d199bbf.jpg\"]","trial_type":"similarity","trial_index":49,"time_elapsed":247035,"internal_node_id":"0.0-6.0-43.0"},{"sim_score":5,"rt":2297,"stimulus":"[\"img/0866/d493a2c8-66eb-44b4-be02-2f327b700b7c.jpg\",\"img/0860/4a022222-056d-461c-ab02-39fac9647552.jpg\"]","trial_type":"similarity","trial_index":50,"time_elapsed":250335,"internal_node_id":"0.0-6.0-44.0"},{"sim_score":6,"rt":2443,"stimulus":"[\"img/0766/6d32752d-aa05-40dc-9541-640b6e9d6fa1.jpg\",\"img/0903/6138142e-c84e-45fc-9487-c974f3d4968a.jpg\"]","trial_type":"similarity","trial_index":51,"time_elapsed":253785,"internal_node_id":"0.0-6.0-45.0"},{"sim_score":6,"rt":3699,"stimulus":"[\"img/0901/da4fe30f-d12a-491e-96a2-5ab8ebaadd09.jpg\",\"img/0904/4e58005d-a2ec-4aaa-b199-445343561396.jpg\"]","trial_type":"similarity","trial_index":52,"time_elapsed":258490,"internal_node_id":"0.0-6.0-46.0"},{"sim_score":2,"rt":3786,"stimulus":"[\"img/0758/a709631e-3705-4725-ac40-f0d916924f08.jpg\",\"img/0902/c9c74d2d-9b82-42d7-a9d0-3b8ff67ff81e.jpg\"]","trial_type":"similarity","trial_index":53,"time_elapsed":263286,"internal_node_id":"0.0-6.0-47.0"},{"sim_score":7,"rt":2822,"stimulus":"[\"img/0764/c80b3e06-2ee3-4326-9678-340607eb5348.jpg\",\"img/0764/e0788029-9d7f-414c-b747-46d2a99f7c86.jpg\"]","trial_type":"similarity","trial_index":54,"time_elapsed":267117,"internal_node_id":"0.0-6.0-48.0"},{"sim_score":2,"rt":4581,"stimulus":"[\"img/0866/f756f7d1-9ad8-4a34-9ef6-7a443d705bfe.jpg\",\"img/0902/b76efc44-a50f-4dac-b997-ff0222376067.jpg\"]","trial_type":"similarity","trial_index":55,"time_elapsed":272711,"internal_node_id":"0.0-6.0-49.0"},{"sim_score":2,"rt":2587,"stimulus":"[\"img/0764/e30dba15-e68a-4659-89db-e1654b52fe02.jpg\",\"img/0758/b76ceca7-95ac-46e4-ac13-da02c8e93be9.jpg\"]","trial_type":"similarity","trial_index":56,"time_elapsed":276308,"internal_node_id":"0.0-6.0-50.0"},{"sim_score":5,"rt":3084,"stimulus":"[\"img/0898/a114b375-cb89-44ba-9498-74213f1ecdee.jpg\",\"img/0894/b422d5c6-3c5a-49ae-a53e-7e88ac993f49.jpg\"]","trial_type":"similarity","trial_index":57,"time_elapsed":280402,"internal_node_id":"0.0-6.0-51.0"},{"sim_score":6,"rt":3026,"stimulus":"[\"img/0875/d59ff733-eaff-4ee2-9443-06954dd0bcb6.jpg\",\"img/0866/620cd1aa-0800-4414-8f6e-90342e7a99ad.jpg\"]","trial_type":"similarity","trial_index":58,"time_elapsed":284443,"internal_node_id":"0.0-6.0-52.0"},{"sim_score":7,"rt":3205,"stimulus":"[\"img/0904/1d10df11-b5c8-4370-9a6b-097a7f965895.jpg\",\"img/0904/4d7d70a3-9477-4921-bda0-f9531d0a5c5b.jpg\"]","trial_type":"similarity","trial_index":59,"time_elapsed":288655,"internal_node_id":"0.0-6.0-53.0"},{"sim_score":6,"rt":3662,"stimulus":"[\"img/0769/aad494cc-674d-4a08-9bfa-24a88ebe3c79.jpg\",\"img/0769/c7cfacc3-7f07-46ff-9f5d-8073f4c4679b.jpg\"]","trial_type":"similarity","trial_index":60,"time_elapsed":293351,"internal_node_id":"0.0-6.0-54.0"},{"sim_score":2,"rt":2388,"stimulus":"[\"img/0898/b2732712-71c2-45d8-834f-2b2ed5504910.jpg\",\"img/0758/e38fd80d-18d0-42f3-b848-f930788e8bd7.jpg\"]","trial_type":"similarity","trial_index":61,"time_elapsed":296751,"internal_node_id":"0.0-6.0-55.0"},{"sim_score":5,"rt":3952,"stimulus":"[\"img/0769/e31b3bd8-efcb-413e-aa8c-75fac2b8f2ac.jpg\",\"img/0902/b56db912-c3c0-4fc2-b325-d640acd7cb58.jpg\"]","trial_type":"similarity","trial_index":62,"time_elapsed":301714,"internal_node_id":"0.0-6.0-56.0"},{"sim_score":6,"rt":2897,"stimulus":"[\"img/0864/6f631579-acf1-415c-a42c-1207f62a8d99.jpg\",\"img/0881/445edb15-bd7f-4af3-8bd5-c6ad9677bb31.jpg\"]","trial_type":"similarity","trial_index":63,"time_elapsed":305618,"internal_node_id":"0.0-6.0-57.0"},{"sim_score":6,"rt":2008,"stimulus":"[\"img/0758/7ee8bc8f-c40b-4b3a-84ec-3e83580622d4.jpg\",\"img/0868/3a62db2d-97e9-44a3-b8e3-a48c6f0e423b.jpg\"]","trial_type":"similarity","trial_index":64,"time_elapsed":308637,"internal_node_id":"0.0-6.0-58.0"},{"sim_score":3,"rt":2051,"stimulus":"[\"img/0862/e697469a-ec19-4414-b972-7b9f3564785b.jpg\",\"img/0769/4a1d0b52-3fe8-40fb-bb1c-c814fe49a68c.jpg\"]","trial_type":"similarity","trial_index":65,"time_elapsed":311696,"internal_node_id":"0.0-6.0-59.0"},{"sim_score":2,"rt":1911,"stimulus":"[\"img/0764/ba0c0955-acbb-457d-b1c2-f006b88121d5.jpg\",\"img/0903/43ffd882-077a-40dd-a264-e58d519420a1.jpg\"]","trial_type":"similarity","trial_index":66,"time_elapsed":314618,"internal_node_id":"0.0-6.0-60.0"},{"sim_score":7,"rt":2508,"stimulus":"[\"img/0899/0e1d936a-dbe2-4afc-9f19-7b7a1ae6c9ed.jpg\",\"img/0899/76ad07e2-ca25-45eb-84f2-8d80b8ca3e26.jpg\"]","trial_type":"similarity","trial_index":67,"time_elapsed":318138,"internal_node_id":"0.0-6.0-61.0"},{"sim_score":5,"rt":1922,"stimulus":"[\"img/0860/5bff793e-cbd5-4d7e-b628-0ac2b0e30b64.jpg\",\"img/0875/42910c99-5463-450a-a0f8-d4d060a11455.jpg\"]","trial_type":"similarity","trial_index":68,"time_elapsed":321071,"internal_node_id":"0.0-6.0-62.0"},{"sim_score":5,"rt":2113,"stimulus":"[\"img/0868/77091fc7-a590-4ebb-b915-fdb2483a2399.jpg\",\"img/0874/3ce41e7c-40c8-4d58-a546-171114521796.jpg\"]","trial_type":"similarity","trial_index":69,"time_elapsed":324203,"internal_node_id":"0.0-6.0-63.0"},{"sim_score":5,"rt":2114,"stimulus":"[\"img/0758/eabcd7a8-56ad-4fd2-bc24-90f6b7b33265.jpg\",\"img/0862/92fcd8a4-8193-4a6a-ae09-dd4a6338b0df.jpg\"]","trial_type":"similarity","trial_index":70,"time_elapsed":327337,"internal_node_id":"0.0-6.0-64.0"},{"sim_score":6,"rt":2308,"stimulus":"[\"img/0904/9d30eff1-46ef-4453-b11e-124ef8145c00.jpg\",\"img/0898/01bfe666-3510-4fc7-964f-d00d28732dc8.jpg\"]","trial_type":"similarity","trial_index":71,"time_elapsed":330647,"internal_node_id":"0.0-6.0-65.0"},{"sim_score":5,"rt":3183,"stimulus":"[\"img/0881/44e09805-5a25-4f17-a716-4ad4a331b174.jpg\",\"img/0866/a04d37f0-99dd-478a-b6c6-58b215138f84.jpg\"]","trial_type":"similarity","trial_index":72,"time_elapsed":334834,"internal_node_id":"0.0-6.0-66.0"},{"sim_score":3,"rt":1989,"stimulus":"[\"img/0867/1719a35d-f085-48c0-9099-16c94fe418b4.jpg\",\"img/0898/cd3aaa3f-efa9-4ab3-8d6f-a6a9273ddf42.jpg\"]","trial_type":"similarity","trial_index":73,"time_elapsed":337840,"internal_node_id":"0.0-6.0-67.0"},{"sim_score":6,"rt":2580,"stimulus":"[\"img/0902/d5e25767-e8ec-45f3-ac0a-7b4a6f7a9edc.jpg\",\"img/0764/c01e2d65-6586-441b-bef5-3c96fcd85380.jpg\"]","trial_type":"similarity","trial_index":74,"time_elapsed":341440,"internal_node_id":"0.0-6.0-68.0"},{"sim_score":6,"rt":2418,"stimulus":"[\"img/0875/03c3c331-738b-4446-af92-3d7386b08c2e.jpg\",\"img/0867/c71dc569-f49c-4397-8381-68b8d726736d.jpg\"]","trial_type":"similarity","trial_index":75,"time_elapsed":344864,"internal_node_id":"0.0-6.0-69.0"},{"sim_score":6,"rt":2907,"stimulus":"[\"img/0766/d919cedb-f9b7-4f30-83bb-3e9c65001ceb.jpg\",\"img/0764/b8e23f4f-ff19-4472-ad9b-2f85548ebca0.jpg\"]","trial_type":"similarity","trial_index":76,"time_elapsed":348785,"internal_node_id":"0.0-6.0-70.0"},{"sim_score":3,"rt":1962,"stimulus":"[\"img/0894/5a49e858-2850-4892-9a06-e9f0efb5f94d.jpg\",\"img/0867/7d1c497b-c1b3-4ed8-abb5-d7f73306015f.jpg\"]","trial_type":"similarity","trial_index":77,"time_elapsed":351757,"internal_node_id":"0.0-6.0-71.0"},{"sim_score":2,"rt":3362,"stimulus":"[\"img/0875/e7e66b13-b573-431e-b85e-288ce04a35a3.jpg\",\"img/0764/958b8576-3a3b-4acc-96dc-06b74de69f37.jpg\"]","trial_type":"similarity","trial_index":78,"time_elapsed":356129,"internal_node_id":"0.0-6.0-72.0"},{"sim_score":7,"rt":3485,"stimulus":"[\"img/0867/de92135f-5b65-4ed9-b245-188292c7c2f8.jpg\",\"img/0866/23a224f3-2012-4fc8-8e0f-3c36f8de27fd.jpg\"]","trial_type":"similarity","trial_index":79,"time_elapsed":360627,"internal_node_id":"0.0-6.0-73.0"},{"sim_score":2,"rt":2513,"stimulus":"[\"img/0903/f10e9eb5-0c21-4a6a-944c-5f10a6d0fa4d.jpg\",\"img/0758/61d64021-9214-4951-bdf8-f871f9827cf9.jpg\"]","trial_type":"similarity","trial_index":80,"time_elapsed":364147,"internal_node_id":"0.0-6.0-74.0"},{"sim_score":2,"rt":3592,"stimulus":"[\"img/0766/69e486f7-dbef-456b-9d48-53d814248a28.jpg\",\"img/0868/fd307a36-9a3a-47d7-ab7c-f810d0b35040.jpg\"]","trial_type":"similarity","trial_index":81,"time_elapsed":368749,"internal_node_id":"0.0-6.0-75.0"},{"sim_score":3,"rt":2633,"stimulus":"[\"img/0874/995f0332-0439-4eb4-add3-957335dbf6d9.jpg\",\"img/0766/214866ee-423d-4629-9bb9-41572bdc7dac.jpg\"]","trial_type":"similarity","trial_index":82,"time_elapsed":372400,"internal_node_id":"0.0-6.0-76.0"},{"sim_score":5,"rt":2227,"stimulus":"[\"img/0881/62a64f90-7a72-4aee-a1a1-0c548ac9bdda.jpg\",\"img/0868/8b0b8473-e2c0-4331-aa56-c3a5c29369da.jpg\"]","trial_type":"similarity","trial_index":83,"time_elapsed":375629,"internal_node_id":"0.0-6.0-77.0"},{"sim_score":1,"rt":3034,"stimulus":"[\"img/0758/7ffbc76b-1fc1-432c-8f7e-9ec8d1b3f643.jpg\",\"img/0901/d6d15b1c-4a30-4f74-a3fd-d4c8ee4169ca.jpg\"]","trial_type":"similarity","trial_index":84,"time_elapsed":379672,"internal_node_id":"0.0-6.0-78.0"},{"sim_score":2,"rt":2766,"stimulus":"[\"img/0881/667e2147-d457-4f32-aa5f-6ab86e5848f1.jpg\",\"img/0898/6cd3830b-d44e-4915-be2b-88d31424b91c.jpg\"]","trial_type":"similarity","trial_index":85,"time_elapsed":383447,"internal_node_id":"0.0-6.0-79.0"},{"sim_score":6,"rt":3075,"stimulus":"[\"img/0867/8ba0c5a7-c7e4-42cf-a80a-543763b90779.jpg\",\"img/0758/e1ba5e53-addc-436a-b428-d34fc1b130dc.jpg\"]","trial_type":"similarity","trial_index":86,"time_elapsed":387535,"internal_node_id":"0.0-6.0-80.0"},{"sim_score":5,"rt":3047,"stimulus":"[\"img/0769/35f2dd39-40aa-498e-b401-9f1ef2622d00.jpg\",\"img/0899/06b0fc99-0581-461a-9913-d1a5a941ac61.jpg\"]","trial_type":"similarity","trial_index":87,"time_elapsed":391591,"internal_node_id":"0.0-6.0-81.0"},{"sim_score":7,"rt":4180,"stimulus":"[\"img/0903/8f7f9939-b8e6-433f-93dd-b362496c80a7.jpg\",\"img/0903/59defeb8-98bd-4570-a2f8-9bd189e68ef4.jpg\"]","trial_type":"similarity","trial_index":88,"time_elapsed":396773,"internal_node_id":"0.0-6.0-82.0"},{"sim_score":2,"rt":3068,"stimulus":"[\"img/0867/f8159067-056c-41f1-a136-c529fe5e970a.jpg\",\"img/0766/75c3d627-4f3b-40d5-9d9c-10c8a62db644.jpg\"]","trial_type":"similarity","trial_index":89,"time_elapsed":402013,"internal_node_id":"0.0-6.0-83.0"},{"sim_score":2,"rt":2834,"stimulus":"[\"img/0902/c920f0e1-1c81-480f-a164-c77f2dc6ce9a.jpg\",\"img/0867/f26f6b60-f772-4f4c-95a4-addc62cfd692.jpg\"]","trial_type":"similarity","trial_index":90,"time_elapsed":405857,"internal_node_id":"0.0-6.0-84.0"},{"sim_score":2,"rt":1832,"stimulus":"[\"img/0901/7d4a3388-488d-4e9b-9d32-9d0def7aae8d.jpg\",\"img/0875/8521fd58-3b1e-4dc5-97ae-804edfa6734a.jpg\"]","trial_type":"similarity","trial_index":91,"time_elapsed":408702,"internal_node_id":"0.0-6.0-85.0"},{"sim_score":2,"rt":2134,"stimulus":"[\"img/0764/a3226bc4-dcc3-4608-bde8-1414d685ce5c.jpg\",\"img/0866/02f5e6b9-52b7-448c-9708-5b460d0c9a23.jpg\"]","trial_type":"similarity","trial_index":92,"time_elapsed":411847,"internal_node_id":"0.0-6.0-86.0"},{"sim_score":5,"rt":2052,"stimulus":"[\"img/0901/c6c877e0-dd63-4e00-9657-33af29d55aab.jpg\",\"img/0894/6b2e9509-8699-42b7-9582-7741df0ba2d7.jpg\"]","trial_type":"similarity","trial_index":93,"time_elapsed":414903,"internal_node_id":"0.0-6.0-87.0"},{"sim_score":5,"rt":2336,"stimulus":"[\"img/0898/e167334e-cc1d-4986-b3b1-c7bc7da64baa.jpg\",\"img/0769/3c1efec9-f8fd-487d-8955-4be88e48c832.jpg\"]","trial_type":"similarity","trial_index":94,"time_elapsed":418252,"internal_node_id":"0.0-6.0-88.0"},{"sim_score":7,"rt":1935,"stimulus":"[\"img/0769/8056889f-2b14-4782-bb25-b4e8896ab65b.jpg\",\"img/0894/e6385e52-6c35-43bd-b0af-bc803d107b11.jpg\"]","trial_type":"similarity","trial_index":95,"time_elapsed":421201,"internal_node_id":"0.0-6.0-89.0"},{"sim_score":5,"rt":3008,"stimulus":"[\"img/0862/d0ca4c78-fc35-46ed-bdcc-8e124283c53e.jpg\",\"img/0874/ca23d307-fc00-4d7d-9106-584c6eb21b4d.jpg\"]","trial_type":"similarity","trial_index":96,"time_elapsed":425226,"internal_node_id":"0.0-6.0-90.0"},{"sim_score":5,"rt":2326,"stimulus":"[\"img/0894/6aa5545f-fa7d-4286-bbaa-aaf34dc7ec96.jpg\",\"img/0766/db750ba0-ce04-46e1-b601-e1b80212bad2.jpg\"]","trial_type":"similarity","trial_index":97,"time_elapsed":428565,"internal_node_id":"0.0-6.0-91.0"},{"sim_score":5,"rt":1841,"stimulus":"[\"img/0874/8cdb1c07-1c32-46d2-981c-3636560fa6e5.jpg\",\"img/0867/85a96c62-548f-4994-9553-819e03c3135a.jpg\"]","trial_type":"similarity","trial_index":98,"time_elapsed":431414,"internal_node_id":"0.0-6.0-92.0"},{"sim_score":3,"rt":1842,"stimulus":"[\"img/0899/f58b8d2f-b19d-4b59-8b94-8834be92e4ba.jpg\",\"img/0868/5fa7f9d0-f0e5-454c-8224-74d964818f56.jpg\"]","trial_type":"similarity","trial_index":99,"time_elapsed":434274,"internal_node_id":"0.0-6.0-93.0"},{"sim_score":3,"rt":2355,"stimulus":"[\"img/0903/07b445ee-0cdb-4d2c-a23b-d727613f4059.jpg\",\"img/0862/de9ad88c-b522-430a-8ee9-eb06a9f85df5.jpg\"]","trial_type":"similarity","trial_index":100,"time_elapsed":437637,"internal_node_id":"0.0-6.0-94.0"},{"sim_score":6,"rt":2741,"stimulus":"[\"img/0899/1b3457ea-87d4-4946-a01c-aac1863ed46c.jpg\",\"img/0766/a754e4b6-5019-4cf4-8f58-34c20547a1f5.jpg\"]","trial_type":"similarity","trial_index":101,"time_elapsed":441391,"internal_node_id":"0.0-6.0-95.0"},{"sim_score":7,"rt":1938,"stimulus":"[\"img/0867/5e07b34d-b40f-4b1c-ac10-49975bace45f.jpg\",\"img/0868/83b4350a-3b70-4cea-b7f5-b5b56f3050a8.jpg\"]","trial_type":"similarity","trial_index":102,"time_elapsed":444346,"internal_node_id":"0.0-6.0-96.0"},{"sim_score":3,"rt":2513,"stimulus":"[\"img/0862/a0a3a7ba-7798-46a3-b4ca-05e1f6e581d0.jpg\",\"img/0901/1e23ffbd-19de-4c4f-aa23-c54aaa3319a3.jpg\"]","trial_type":"similarity","trial_index":103,"time_elapsed":447867,"internal_node_id":"0.0-6.0-97.0"},{"sim_score":2,"rt":3760,"stimulus":"[\"img/0875/5a7c4e35-6514-4e12-8879-d16071da4cd6.jpg\",\"img/0766/b84598d0-5b41-4841-88b0-b441b48289f5.jpg\"]","trial_type":"similarity","trial_index":104,"time_elapsed":452636,"internal_node_id":"0.0-6.0-98.0"},{"sim_score":7,"rt":4950,"stimulus":"[\"img/0758/d57c2592-a317-4f63-91be-91a3a9afd222.jpg\",\"img/0874/3f471690-9788-4d03-90c7-f615aecef149.jpg\"]","trial_type":"similarity","trial_index":105,"time_elapsed":458594,"internal_node_id":"0.0-6.0-99.0"},{"sim_score":2,"rt":3471,"stimulus":"[\"img/0904/0d17b811-063e-416e-a23c-3b3cfa4fcce5.jpg\",\"img/0868/4e626425-63c8-484a-8a1d-e66ee4e0bef8.jpg\"]","trial_type":"similarity","trial_index":106,"time_elapsed":463076,"internal_node_id":"0.0-6.0-100.0"},{"sim_score":3,"rt":3543,"stimulus":"[\"img/0903/3e9ee8a5-eb66-47f5-8973-8a5af1ddc87e.jpg\",\"img/0866/945c6710-d15b-4a5b-a8f6-69af0850357f.jpg\"]","trial_type":"similarity","trial_index":107,"time_elapsed":467628,"internal_node_id":"0.0-6.0-101.0"},{"sim_score":2,"rt":1968,"stimulus":"[\"img/0868/293079b8-7e0c-4afd-a390-1e5d35fe3ded.jpg\",\"img/0769/057eb0a0-aa5b-40c7-9852-21444f68d767.jpg\"]","trial_type":"similarity","trial_index":108,"time_elapsed":470610,"internal_node_id":"0.0-6.0-102.0"},{"sim_score":5,"rt":1724,"stimulus":"[\"img/0902/62f11694-7ed7-4cb7-8a73-9e95c43824e7.jpg\",\"img/0899/25ae6ec8-9565-49fe-a8bb-8d0666f52716.jpg\"]","trial_type":"similarity","trial_index":109,"time_elapsed":473350,"internal_node_id":"0.0-6.0-103.0"},{"sim_score":5,"rt":1747,"stimulus":"[\"img/0868/4bd5105a-d2c3-4f82-8c80-57196106ba53.jpg\",\"img/0862/1c20f772-3a51-4a80-aac0-f57dc9f86c28.jpg\"]","trial_type":"similarity","trial_index":110,"time_elapsed":476105,"internal_node_id":"0.0-6.0-104.0"},{"sim_score":5,"rt":1836,"stimulus":"[\"img/0903/5ea5bbe0-f238-4724-abe7-9ed8dee8c0ba.jpg\",\"img/0894/3adef67d-7676-4995-80b2-bb31b8aca3ef.jpg\"]","trial_type":"similarity","trial_index":111,"time_elapsed":478944,"internal_node_id":"0.0-6.0-105.0"},{"sim_score":6,"rt":4013,"stimulus":"[\"img/0864/3651d070-2fc5-4848-b6a6-088a2d9ac5c9.jpg\",\"img/0874/c0378dac-9370-439a-8b79-db27c96fb390.jpg\"]","trial_type":"similarity","trial_index":112,"time_elapsed":483960,"internal_node_id":"0.0-6.0-106.0"},{"sim_score":3,"rt":1936,"stimulus":"[\"img/0862/fb26cb07-d5a9-4653-813c-f41609f26cd5.jpg\",\"img/0902/27b84584-948a-485b-8749-cb09929ef631.jpg\"]","trial_type":"similarity","trial_index":113,"time_elapsed":486899,"internal_node_id":"0.0-6.0-107.0"},{"sim_score":7,"rt":2249,"stimulus":"[\"img/0904/b5855d6a-7ef9-46ca-9215-6e9fa046e543.jpg\",\"img/0903/9b60ef5b-234f-4239-892b-3d4c412accc2.jpg\"]","trial_type":"similarity","trial_index":114,"time_elapsed":490165,"internal_node_id":"0.0-6.0-108.0"},{"sim_score":3,"rt":2213,"stimulus":"[\"img/0764/cbdc4f20-3a9a-4211-9b40-090699e0abcc.jpg\",\"img/0864/4bd81bc6-c13d-46df-95a9-485886dc7c1b.jpg\"]","trial_type":"similarity","trial_index":115,"time_elapsed":493388,"internal_node_id":"0.0-6.0-109.0"},{"sim_score":3,"rt":2228,"stimulus":"[\"img/0866/c446214b-a368-4c65-ae39-ea46894256ab.jpg\",\"img/0894/8cadb87a-7001-4e47-99fb-1867bebf1668.jpg\"]","trial_type":"similarity","trial_index":116,"time_elapsed":496621,"internal_node_id":"0.0-6.0-110.0"},{"sim_score":6,"rt":2187,"stimulus":"[\"img/0899/ad8268c5-8199-48d0-ad70-c5b6d6c599ec.jpg\",\"img/0903/39365c8e-a733-4801-ac7d-b87e38c3784b.jpg\"]","trial_type":"similarity","trial_index":117,"time_elapsed":499817,"internal_node_id":"0.0-6.0-111.0"},{"sim_score":6,"rt":4026,"stimulus":"[\"img/0902/0db94c50-f1fb-4091-953c-29ca0466bee2.jpg\",\"img/0904/6291eb43-c10c-4810-a36a-101d09868b04.jpg\"]","trial_type":"similarity","trial_index":118,"time_elapsed":504853,"internal_node_id":"0.0-6.0-112.0"},{"sim_score":5,"rt":2614,"stimulus":"[\"img/0864/c22faebd-9c53-47bc-ada3-b9a30c688e75.jpg\",\"img/0860/5383b320-1518-4095-a58e-5cc1ae30b64c.jpg\"]","trial_type":"similarity","trial_index":119,"time_elapsed":508490,"internal_node_id":"0.0-6.0-113.0"},{"sim_score":3,"rt":2978,"stimulus":"[\"img/0860/18dfed73-e36b-4487-a8bd-0b8cff8e3668.jpg\",\"img/0899/565ccdd9-0933-4536-a625-3c0e25a713dd.jpg\"]","trial_type":"similarity","trial_index":120,"time_elapsed":512481,"internal_node_id":"0.0-6.0-114.0"},{"sim_score":3,"rt":2031,"stimulus":"[\"img/0881/344de456-b358-4887-bd0e-e4c3278af887.jpg\",\"img/0903/5248eedd-7e6a-4d39-91b0-06ec227f3ed0.jpg\"]","trial_type":"similarity","trial_index":121,"time_elapsed":515520,"internal_node_id":"0.0-6.0-115.0"},{"sim_score":6,"rt":2516,"stimulus":"[\"img/0894/7f2f31fd-6618-41c6-b65a-0fd8b2851bc9.jpg\",\"img/0874/29830da7-be5f-44e5-b141-652a0ccf7269.jpg\"]","trial_type":"similarity","trial_index":122,"time_elapsed":519047,"internal_node_id":"0.0-6.0-116.0"},{"sim_score":5,"rt":2108,"stimulus":"[\"img/0881/b549bc99-a61c-4450-bab5-9efc3a197bf0.jpg\",\"img/0862/ad593cc7-cabe-4bb7-8e14-8a447a0717b4.jpg\"]","trial_type":"similarity","trial_index":123,"time_elapsed":522159,"internal_node_id":"0.0-6.0-117.0"},{"sim_score":6,"rt":4219,"stimulus":"[\"img/0868/d6d1f30d-4323-435a-b194-7892521bc57e.jpg\",\"img/0875/fb732ab5-013a-4366-9f65-27811ed157e9.jpg\"]","trial_type":"similarity","trial_index":124,"time_elapsed":527383,"internal_node_id":"0.0-6.0-118.0"},{"sim_score":5,"rt":1880,"stimulus":"[\"img/0860/702bd09d-df3a-40aa-a267-5f04474305b5.jpg\",\"img/0758/d540bee6-b460-4c32-ac57-bc282742d7d4.jpg\"]","trial_type":"similarity","trial_index":125,"time_elapsed":530271,"internal_node_id":"0.0-6.0-119.0"},{"sim_score":5,"rt":2213,"stimulus":"[\"img/0864/300bb811-8b3c-4c42-8653-6097c3725197.jpg\",\"img/0875/a4935837-7d3c-4df6-88c1-36a94d4991ca.jpg\"]","trial_type":"similarity","trial_index":126,"time_elapsed":533493,"internal_node_id":"0.0-6.0-120.0"},{"sim_score":3,"rt":2533,"stimulus":"[\"img/0898/26c41340-15bd-4ead-8fe4-c0d0ddca09c2.jpg\",\"img/0866/4a87911a-d5be-4d4e-ab8e-3d1f581bf507.jpg\"]","trial_type":"similarity","trial_index":127,"time_elapsed":537044,"internal_node_id":"0.0-6.0-121.0"},{"sim_score":3,"rt":2001,"stimulus":"[\"img/0874/eba003b4-cdab-4eee-8bc3-f064c7d94165.jpg\",\"img/0904/2c98dc56-88d1-4fb5-a999-b6a7861f65f0.jpg\"]","trial_type":"similarity","trial_index":128,"time_elapsed":540046,"internal_node_id":"0.0-6.0-122.0"},{"sim_score":3,"rt":2186,"stimulus":"[\"img/0904/65e2b70a-b184-4da3-b5c0-5038bdf9469a.jpg\",\"img/0864/8ddd2e30-a1d0-479f-9cbe-591213023893.jpg\"]","trial_type":"similarity","trial_index":129,"time_elapsed":543246,"internal_node_id":"0.0-6.0-123.0"},{"sim_score":6,"rt":2179,"stimulus":"[\"img/0894/05161000-f476-499b-a878-c13c7f347fd9.jpg\",\"img/0902/31abfa33-7cdb-44ad-968e-9f7b324d577a.jpg\"]","trial_type":"similarity","trial_index":130,"time_elapsed":546435,"internal_node_id":"0.0-6.0-124.0"},{"sim_score":5,"rt":2516,"stimulus":"[\"img/0868/09a9ef4d-d000-4cfa-a6aa-ebec7c2edeb4.jpg\",\"img/0864/3d4de670-b290-4285-9c3d-12a0e3af44e9.jpg\"]","trial_type":"similarity","trial_index":131,"time_elapsed":551271,"internal_node_id":"0.0-6.0-125.0"},{"sim_score":1,"rt":2902,"stimulus":"[\"img/0899/f95cbdb4-f804-4f5d-ad76-373ad343e658.jpg\",\"img/0866/a15b02be-11bb-43e3-b0e0-ecc3bd7dfc49.jpg\"]","trial_type":"similarity","trial_index":132,"time_elapsed":555185,"internal_node_id":"0.0-6.0-126.0"},{"sim_score":2,"rt":2649,"stimulus":"[\"img/0875/ebf7653f-ff45-4e9f-af58-2c042ab3cd2b.jpg\",\"img/0904/5aec2708-cf14-4a58-aa30-9a8a61c1be0e.jpg\"]","trial_type":"similarity","trial_index":133,"time_elapsed":558839,"internal_node_id":"0.0-6.0-127.0"},{"sim_score":1,"rt":2156,"stimulus":"[\"img/0867/075e0f95-856b-4cbb-acf5-092393aaf04e.jpg\",\"img/0899/9de5e857-aa9a-4e0c-8ba2-46d79bd069a4.jpg\"]","trial_type":"similarity","trial_index":134,"time_elapsed":562008,"internal_node_id":"0.0-6.0-128.0"},{"sim_score":2,"rt":3495,"stimulus":"[\"img/0901/33b51a81-06d9-46d9-9d4f-5a2d6d6b8058.jpg\",\"img/0867/aa05d113-fc19-4756-a8eb-7878f580bc92.jpg\"]","trial_type":"similarity","trial_index":135,"time_elapsed":566514,"internal_node_id":"0.0-6.0-129.0"},{"sim_score":3,"rt":1707,"stimulus":"[\"img/0864/5f33e097-23e3-4002-882d-76e8cb15f451.jpg\",\"img/0769/7c50e5f5-cc38-4d48-b009-fbe17bcea61c.jpg\"]","trial_type":"similarity","trial_index":136,"time_elapsed":569232,"internal_node_id":"0.0-6.0-130.0"},{"sim_score":3,"rt":2219,"stimulus":"[\"img/0903/71dbc325-b588-4297-a5cf-7f268a722ad9.jpg\",\"img/0868/c8ac40c7-6904-4e13-8d61-c75d3052dc4e.jpg\"]","trial_type":"similarity","trial_index":137,"time_elapsed":572458,"internal_node_id":"0.0-6.0-131.0"},{"sim_score":5,"rt":2026,"stimulus":"[\"img/0864/da39ad34-04e0-40d4-a724-c08d53e0ea09.jpg\",\"img/0867/2e1a0b58-cdb1-4107-a14e-452530d7b9b0.jpg\"]","trial_type":"similarity","trial_index":138,"time_elapsed":575507,"internal_node_id":"0.0-6.0-132.0"},{"sim_score":3,"rt":2319,"stimulus":"[\"img/0901/b9141736-3041-4385-a586-b1fe911c76a5.jpg\",\"img/0860/17b44a7d-c5ca-479f-9e87-f65a64f5c80e.jpg\"]","trial_type":"similarity","trial_index":139,"time_elapsed":578831,"internal_node_id":"0.0-6.0-133.0"},{"sim_score":3,"rt":2426,"stimulus":"[\"img/0881/33d65d80-8a8e-4ecf-852d-0ad7725c17a2.jpg\",\"img/0766/c23b5a20-e50f-4d85-841f-cf89212a4348.jpg\"]","trial_type":"similarity","trial_index":140,"time_elapsed":582270,"internal_node_id":"0.0-6.0-134.0"},{"sim_score":2,"rt":4423,"stimulus":"[\"img/0903/b7e3723f-fd03-4f3d-8820-f19496463a34.jpg\",\"img/0864/0f537697-a314-47c3-a8cc-8df23b7e536c.jpg\"]","trial_type":"similarity","trial_index":141,"time_elapsed":587704,"internal_node_id":"0.0-6.0-135.0"},{"sim_score":3,"rt":1885,"stimulus":"[\"img/0758/6e95579b-5166-487c-b8cb-e417c6a218e3.jpg\",\"img/0894/e5edf723-72a5-4673-8441-6c1734a8929b.jpg\"]","trial_type":"similarity","trial_index":142,"time_elapsed":590600,"internal_node_id":"0.0-6.0-136.0"},{"sim_score":3,"rt":3794,"stimulus":"[\"img/0769/04347740-f8f6-48bb-887a-f68babd0a0d4.jpg\",\"img/0860/e8b8c51e-1834-4875-8b61-6c5bc9b178bd.jpg\"]","trial_type":"similarity","trial_index":143,"time_elapsed":595405,"internal_node_id":"0.0-6.0-137.0"},{"sim_score":6,"rt":3045,"stimulus":"[\"img/0904/4b8daf2a-13a9-4ea9-9e0b-b265b6e933e7.jpg\",\"img/0766/006035d8-c736-4daf-bbe4-a9e373af9da6.jpg\"]","trial_type":"similarity","trial_index":144,"time_elapsed":599458,"internal_node_id":"0.0-6.0-138.0"},{"sim_score":5,"rt":3411,"stimulus":"[\"img/0868/4a8a45ed-2c4f-421b-9564-409a33ecd26c.jpg\",\"img/0860/9593362c-9fe5-4d12-9735-6000a11f6aa5.jpg\"]","trial_type":"similarity","trial_index":145,"time_elapsed":603875,"internal_node_id":"0.0-6.0-139.0"},{"sim_score":6,"rt":3092,"stimulus":"[\"img/0758/ddc336e9-a8b6-4bb9-937a-c7e25e0e9250.jpg\",\"img/0864/5f74a653-3bdc-4308-8cca-ac667dc22e1f.jpg\"]","trial_type":"similarity","trial_index":146,"time_elapsed":607982,"internal_node_id":"0.0-6.0-140.0"},{"sim_score":7,"rt":2276,"stimulus":"[\"img/0867/f8488a47-94ee-4166-952c-44e16cf172f6.jpg\",\"img/0867/6e19c858-b606-45b2-a4c6-910a73f1d82c.jpg\"]","trial_type":"similarity","trial_index":147,"time_elapsed":611272,"internal_node_id":"0.0-6.0-141.0"},{"sim_score":7,"rt":2944,"stimulus":"[\"img/0898/08c72dac-f8ad-407a-9ce6-8c9a5d679c3a.jpg\",\"img/0898/68476bbb-34a1-42d9-8bc1-deab783d4489.jpg\"]","trial_type":"similarity","trial_index":148,"time_elapsed":615220,"internal_node_id":"0.0-6.0-142.0"},{"sim_score":3,"rt":1815,"stimulus":"[\"img/0866/be24ab58-230e-4db8-9f45-ff04c9aec6bb.jpg\",\"img/0769/f6396414-6788-4d59-9683-de153298d89c.jpg\"]","trial_type":"similarity","trial_index":149,"time_elapsed":618042,"internal_node_id":"0.0-6.0-143.0"},{"sim_score":3,"rt":2025,"stimulus":"[\"img/0860/c47fdead-eb02-4989-b078-26f4852f44fe.jpg\",\"img/0898/a8f16b02-e19f-423b-86c3-a36562ae1f9b.jpg\"]","trial_type":"similarity","trial_index":150,"time_elapsed":621077,"internal_node_id":"0.0-6.0-144.0"},{"sim_score":3,"rt":1973,"stimulus":"[\"img/0766/a1ed3f0f-e338-4a26-8fe4-4370f0c9fa6e.jpg\",\"img/0864/ef9cbca0-4be8-435d-ad49-977259e80409.jpg\"]","trial_type":"similarity","trial_index":151,"time_elapsed":624057,"internal_node_id":"0.0-6.0-145.0"},{"sim_score":3,"rt":1940,"stimulus":"[\"img/0860/29a21a9f-54bb-4093-ad3f-04823ceaa89f.jpg\",\"img/0903/97a42b34-5462-4665-88c7-83c014b33d24.jpg\"]","trial_type":"similarity","trial_index":152,"time_elapsed":627009,"internal_node_id":"0.0-6.0-146.0"},{"sim_score":2,"rt":2159,"stimulus":"[\"img/0867/a749dddb-69f0-44a6-acdc-2bf295cf6dcc.jpg\",\"img/0764/fb7d4a20-a475-465e-a74f-aa39a0d33d16.jpg\"]","trial_type":"similarity","trial_index":153,"time_elapsed":630185,"internal_node_id":"0.0-6.0-147.0"},{"sim_score":6,"rt":1989,"stimulus":"[\"img/0769/688d0c52-ad73-4065-a5eb-f8c10d076bff.jpg\",\"img/0904/9dd5708f-3f8b-46a9-b49f-2f2fab87b357.jpg\"]","trial_type":"similarity","trial_index":154,"time_elapsed":633201,"internal_node_id":"0.0-6.0-148.0"},{"sim_score":5,"rt":2748,"stimulus":"[\"img/0764/29072395-f595-4e3c-83d3-ff87010039fa.jpg\",\"img/0901/effc03f6-8f9d-46db-a66c-16fc83891c5c.jpg\"]","trial_type":"similarity","trial_index":155,"time_elapsed":636955,"internal_node_id":"0.0-6.0-149.0"},{"sim_score":6,"rt":2740,"stimulus":"[\"img/0904/73920552-103b-4c9c-9ece-e0b8376b4504.jpg\",\"img/0899/ddf96ade-692e-4602-bd22-dedbb46401bc.jpg\"]","trial_type":"similarity","trial_index":156,"time_elapsed":640708,"internal_node_id":"0.0-6.0-150.0"},{"sim_score":5,"rt":2437,"stimulus":"[\"img/0862/f23038d4-c366-4f70-979f-66b62362efa4.jpg\",\"img/0867/a498eef3-9fa4-4ab2-9778-4ae82ac40dc5.jpg\"]","trial_type":"similarity","trial_index":157,"time_elapsed":644152,"internal_node_id":"0.0-6.0-151.0"},{"sim_score":7,"rt":3109,"stimulus":"[\"img/0766/5d6e0d1d-4369-41f0-a64c-91f3503055c7.jpg\",\"img/0766/0b48f9e0-7d37-4161-8adb-4e3f5b6b7583.jpg\"]","trial_type":"similarity","trial_index":158,"time_elapsed":648274,"internal_node_id":"0.0-6.0-152.0"},{"sim_score":3,"rt":2519,"stimulus":"[\"img/0862/4f0a3b4c-afbf-486e-b248-1d54982f54b4.jpg\",\"img/0894/792c83e9-a747-4000-bc72-5663d2439edb.jpg\"]","trial_type":"similarity","trial_index":159,"time_elapsed":651810,"internal_node_id":"0.0-6.0-153.0"},{"sim_score":6,"rt":2251,"stimulus":"[\"img/0899/fd9efb43-701f-4cd6-baaa-4c38315f4bdc.jpg\",\"img/0901/168eb52c-c415-43f1-b5c8-e76e1a1ec247.jpg\"]","trial_type":"similarity","trial_index":160,"time_elapsed":655076,"internal_node_id":"0.0-6.0-154.0"},{"sim_score":7,"rt":2083,"stimulus":"[\"img/0874/2c9464dd-8a23-4baa-ac94-1ba3af5c15cc.jpg\",\"img/0874/99f6563c-8a8d-4c1c-a41d-667b618c3fd5.jpg\"]","trial_type":"similarity","trial_index":161,"time_elapsed":658162,"internal_node_id":"0.0-6.0-155.0"},{"sim_score":5,"rt":1648,"stimulus":"[\"img/0860/524b2e98-5767-4d53-942c-ebae6925659b.jpg\",\"img/0867/26611f4e-d694-4460-b7e2-43c62753ddc3.jpg\"]","trial_type":"similarity","trial_index":162,"time_elapsed":660823,"internal_node_id":"0.0-6.0-156.0"},{"sim_score":3,"rt":2523,"stimulus":"[\"img/0901/77087ed2-6e12-4329-b2a5-605bca6d972d.jpg\",\"img/0881/f4e3e181-b3c9-4af2-a5a4-fc135ab70d2e.jpg\"]","trial_type":"similarity","trial_index":163,"time_elapsed":664356,"internal_node_id":"0.0-6.0-157.0"},{"sim_score":7,"rt":3061,"stimulus":"[\"img/0903/b4a0f61e-a964-4b79-a9a7-f767a8f92f34.jpg\",\"img/0902/794606a0-d8a8-4e58-8bf8-9d114ed5a548.jpg\"]","trial_type":"similarity","trial_index":164,"time_elapsed":668429,"internal_node_id":"0.0-6.0-158.0"},{"sim_score":3,"rt":2495,"stimulus":"[\"img/0860/fd4662f9-4c03-4d79-8593-06735e55a64b.jpg\",\"img/0764/4952d0a0-c9be-471a-8ec7-94a37bf4051d.jpg\"]","trial_type":"similarity","trial_index":165,"time_elapsed":671925,"internal_node_id":"0.0-6.0-159.0"},{"sim_score":2,"rt":2480,"stimulus":"[\"img/0902/8af4182a-9af9-4212-a436-9195555112d6.jpg\",\"img/0875/3ecb367d-e9eb-4826-8aaa-7aa72fb98019.jpg\"]","trial_type":"similarity","trial_index":166,"time_elapsed":675415,"internal_node_id":"0.0-6.0-160.0"},{"sim_score":3,"rt":2031,"stimulus":"[\"img/0898/40f99fb2-64d2-4e72-8a7f-a1cf60741e69.jpg\",\"img/0862/f43ceabf-acc1-4107-b857-5d1849808f93.jpg\"]","trial_type":"similarity","trial_index":167,"time_elapsed":678459,"internal_node_id":"0.0-6.0-161.0"},{"sim_score":2,"rt":3219,"stimulus":"[\"img/0894/10f22b96-040c-44f4-950b-a4963f3f506c.jpg\",\"img/0875/dbdd643e-6d0e-4a5c-ab57-b9c29b9c981a.jpg\"]","trial_type":"similarity","trial_index":168,"time_elapsed":682682,"internal_node_id":"0.0-6.0-162.0"},{"sim_score":6,"rt":2015,"stimulus":"[\"img/0866/d266fece-59b3-46fa-b69f-96f6efb81b59.jpg\",\"img/0864/c3b63e8f-ea39-4d70-a1f2-b3fe4be8eb75.jpg\"]","trial_type":"similarity","trial_index":169,"time_elapsed":685701,"internal_node_id":"0.0-6.0-163.0"},{"sim_score":3,"rt":2439,"stimulus":"[\"img/0766/51d3aab4-3d09-4dda-b99d-3dc7aaabc6f2.jpg\",\"img/0862/ee3b7bff-4a70-4e84-9bea-4a565e456acb.jpg\"]","trial_type":"similarity","trial_index":170,"time_elapsed":689164,"internal_node_id":"0.0-6.0-164.0"},{"sim_score":6,"rt":2383,"stimulus":"[\"img/0866/07c9c966-3c8d-40e7-8128-92b2acbaed5d.jpg\",\"img/0874/767f289c-9814-4496-803f-745cc8913d1f.jpg\"]","trial_type":"similarity","trial_index":171,"time_elapsed":692554,"internal_node_id":"0.0-6.0-165.0"},{"sim_score":6,"rt":3624,"stimulus":"[\"img/0862/5d887e9f-89e2-4ebc-80a0-6d46fe6480db.jpg\",\"img/0860/d9a0d117-6d1d-41c0-8fec-9aff0fd9e9f2.jpg\"]","trial_type":"similarity","trial_index":172,"time_elapsed":697196,"internal_node_id":"0.0-6.0-166.0"},{"sim_score":5,"rt":3512,"stimulus":"[\"img/0766/5d1b8041-c5a1-4b02-b4fe-3453d98a0d72.jpg\",\"img/0901/d4d09bf5-093e-4050-838e-7c738be8e63c.jpg\"]","trial_type":"similarity","trial_index":173,"time_elapsed":705141,"internal_node_id":"0.0-6.0-167.0"},{"sim_score":7,"rt":2069,"stimulus":"[\"img/0862/00c06b00-3b73-44e9-bc1e-c5aafb438321.jpg\",\"img/0862/eefa5588-9efd-4591-aa5f-a2e17c7d7bcc.jpg\"]","trial_type":"similarity","trial_index":174,"time_elapsed":708221,"internal_node_id":"0.0-6.0-168.0"},{"sim_score":5,"rt":2844,"stimulus":"[\"img/0894/5f15154e-e72e-4ce5-aafb-bce6f0564006.jpg\",\"img/0764/b328441c-f81c-486c-9eae-b947c70ba7cd.jpg\"]","trial_type":"similarity","trial_index":175,"time_elapsed":712075,"internal_node_id":"0.0-6.0-169.0"},{"sim_score":2,"rt":2095,"stimulus":"[\"img/0874/85eb9b8a-c4c6-4e5a-b8e7-363a87a82054.jpg\",\"img/0898/0c7dde4f-efce-4b7a-9387-6921635b7890.jpg\"]","trial_type":"similarity","trial_index":176,"time_elapsed":715176,"internal_node_id":"0.0-6.0-170.0"},{"sim_score":3,"rt":2486,"stimulus":"[\"img/0860/87039971-2210-4aab-93c0-8e9b5f1655b2.jpg\",\"img/0766/e8052e17-9dae-4139-802b-6e590cb2d526.jpg\"]","trial_type":"similarity","trial_index":177,"time_elapsed":718673,"internal_node_id":"0.0-6.0-171.0"},{"sim_score":3,"rt":1816,"stimulus":"[\"img/0898/81b08535-2020-4c15-9ce4-2f1e460755ae.jpg\",\"img/0864/6e846d43-94a6-4b37-a268-65eda979f052.jpg\"]","trial_type":"similarity","trial_index":178,"time_elapsed":721495,"internal_node_id":"0.0-6.0-172.0"},{"sim_score":3,"rt":3252,"stimulus":"[\"img/0881/f037e3b0-09cb-4a83-b2d9-6a71fe474e63.jpg\",\"img/0764/17b088f8-3053-4140-b544-d15654cc79ef.jpg\"]","trial_type":"similarity","trial_index":179,"time_elapsed":725763,"internal_node_id":"0.0-6.0-173.0"},{"sim_score":3,"rt":2385,"stimulus":"[\"img/0898/b3290bf9-215b-4b45-b21a-65bdf73f142f.jpg\",\"img/0868/1a62b2b2-18f5-466e-b564-5176a57c565e.jpg\"]","trial_type":"similarity","trial_index":180,"time_elapsed":729159,"internal_node_id":"0.0-6.0-174.0"},{"sim_score":7,"rt":1851,"stimulus":"[\"img/0864/66091c27-e588-4476-8af9-265dc6be4156.jpg\",\"img/0864/f92649a2-0590-4d31-9a7a-1bfb81666a2d.jpg\"]","trial_type":"similarity","trial_index":181,"time_elapsed":732021,"internal_node_id":"0.0-6.0-175.0"},{"sim_score":2,"rt":2647,"stimulus":"[\"img/0899/4f7bc593-8ddd-4da3-a0b9-84da730d3370.jpg\",\"img/0862/f188d4f0-76a4-4102-818c-a209969d73a5.jpg\"]","trial_type":"similarity","trial_index":182,"time_elapsed":735682,"internal_node_id":"0.0-6.0-176.0"},{"sim_score":6,"rt":2707,"stimulus":"[\"img/0875/34132396-d896-4c2d-8087-646dd867e769.jpg\",\"img/0758/3ddd05d3-557e-4ee7-8b78-9d2d681d8ae2.jpg\"]","trial_type":"similarity","trial_index":183,"time_elapsed":739402,"internal_node_id":"0.0-6.0-177.0"},{"sim_score":1,"rt":2019,"stimulus":"[\"img/0866/11a1d141-be5e-443c-98c1-a9d4d9e3dec0.jpg\",\"img/0901/1ede21d9-384f-4150-86b5-e1c57b5dc1d4.jpg\"]","trial_type":"similarity","trial_index":184,"time_elapsed":742428,"internal_node_id":"0.0-6.0-178.0"},{"sim_score":2,"rt":2102,"stimulus":"[\"img/0769/1ca58b80-2365-446d-9616-6c1719e6c46f.jpg\",\"img/0874/a3bc679d-619f-4db6-bb68-116dcb757d9c.jpg\"]","trial_type":"similarity","trial_index":185,"time_elapsed":745534,"internal_node_id":"0.0-6.0-179.0"},{"sim_score":6,"rt":2577,"stimulus":"[\"img/0875/90da8d75-108a-44ad-b999-e21fee3860d3.jpg\",\"img/0881/19e82c47-8e4b-45d2-a6c8-74181eb4155e.jpg\"]","trial_type":"similarity","trial_index":186,"time_elapsed":749124,"internal_node_id":"0.0-6.0-180.0"},{"sim_score":7,"rt":2160,"stimulus":"[\"img/0866/8efcaa46-83ab-4dee-a35f-850402aa21ae.jpg\",\"img/0868/7b212364-ff5f-4e28-9241-7eb6ea00161b.jpg\"]","trial_type":"similarity","trial_index":187,"time_elapsed":752287,"internal_node_id":"0.0-6.0-181.0"},{"sim_score":1,"rt":2014,"stimulus":"[\"img/0899/51a7a498-98c7-42d7-bca8-bc2d8f0b5831.jpg\",\"img/0758/821c68d3-5cb0-4eae-8659-30e6263fca39.jpg\"]","trial_type":"similarity","trial_index":188,"time_elapsed":755309,"internal_node_id":"0.0-6.0-182.0"},{"sim_score":6,"rt":2771,"stimulus":"[\"img/0874/ca76a855-4e77-4f2f-872a-0a718153e7ed.jpg\",\"img/0875/cff79b3a-a797-4393-9757-6275f999ec04.jpg\"]","trial_type":"similarity","trial_index":189,"time_elapsed":759093,"internal_node_id":"0.0-6.0-183.0"},{"sim_score":3,"rt":2032,"stimulus":"[\"img/0904/60d1a521-edf7-4696-9263-f21ac0e62a01.jpg\",\"img/0862/57b6f83f-c763-4858-830d-102f97bfefbf.jpg\"]","trial_type":"similarity","trial_index":190,"time_elapsed":762139,"internal_node_id":"0.0-6.0-184.0"},{"sim_score":6,"rt":3201,"stimulus":"[\"img/0902/b03129ba-b087-4558-af37-e8399d6217d6.jpg\",\"img/0766/71b81ebd-0937-4d7f-b8bf-c4e46a4728fd.jpg\"]","trial_type":"similarity","trial_index":191,"time_elapsed":766350,"internal_node_id":"0.0-6.0-185.0"},{"sim_score":2,"rt":2731,"stimulus":"[\"img/0758/6cd8c362-ae2a-41eb-80a3-3a4f7ace1530.jpg\",\"img/0769/47700831-0ca2-4fdd-a498-a3bc5a528f43.jpg\"]","trial_type":"similarity","trial_index":192,"time_elapsed":770091,"internal_node_id":"0.0-6.0-186.0"},{"sim_score":7,"rt":1995,"stimulus":"[\"img/0881/f6bd3b96-dc40-4e99-8681-bc3a35cf896d.jpg\",\"img/0881/566f45f8-5fed-4479-a60f-26377e60a62d.jpg\"]","trial_type":"similarity","trial_index":193,"time_elapsed":773091,"internal_node_id":"0.0-6.0-187.0"},{"sim_score":6,"rt":1549,"stimulus":"[\"img/0758/dd559618-7f09-4a07-8018-d311c4a5ea29.jpg\",\"img/0866/0207e9a2-7dbb-40b5-9459-b472aaeceb2a.jpg\"]","trial_type":"similarity","trial_index":194,"time_elapsed":775650,"internal_node_id":"0.0-6.0-188.0"},{"sim_score":6,"rt":1899,"stimulus":"[\"img/0764/3297a811-ea8b-4d74-9547-59cecab7293a.jpg\",\"img/0898/993d8f2d-bef7-4251-a193-0f93a32b7763.jpg\"]","trial_type":"similarity","trial_index":195,"time_elapsed":778556,"internal_node_id":"0.0-6.0-189.0"},{"sim_score":6,"rt":1953,"stimulus":"[\"img/0903/70d764d9-1f35-4da7-a35d-4cc39834d270.jpg\",\"img/0901/8bb79e82-9c43-4b6f-a655-40655519598b.jpg\"]","trial_type":"similarity","trial_index":196,"time_elapsed":781518,"internal_node_id":"0.0-6.0-190.0"},{"sim_score":6,"rt":2693,"stimulus":"[\"img/0902/71c03003-03ef-4b0f-8229-e0c857150a5d.jpg\",\"img/0898/224c1572-56b9-4f16-a9e4-6f3bc9c114bd.jpg\"]","trial_type":"similarity","trial_index":197,"time_elapsed":785228,"internal_node_id":"0.0-6.0-191.0"},{"sim_score":1,"rt":2530,"stimulus":"[\"img/0864/87c467d3-abca-482f-ad80-3766c21b1bb3.jpg\",\"img/0901/1b86f2fc-7a1d-4aa8-9252-114f92edef3b.jpg\"]","trial_type":"similarity","trial_index":198,"time_elapsed":788762,"internal_node_id":"0.0-6.0-192.0"},{"sim_score":3,"rt":2631,"stimulus":"[\"img/0894/43216a7f-27bc-4b5a-8841-d122a30da9d9.jpg\",\"img/0881/dea58fad-b4f1-41d9-bd3f-916eff19a3fd.jpg\"]","trial_type":"similarity","trial_index":199,"time_elapsed":792415,"internal_node_id":"0.0-6.0-193.0"},{"sim_score":7,"rt":1832,"stimulus":"[\"img/0868/179a5502-ab5c-478e-8263-5a1fbcc101d2.jpg\",\"img/0868/6a28c3b0-3d76-498a-9fb7-ddafc665eca8.jpg\"]","trial_type":"similarity","trial_index":200,"time_elapsed":795254,"internal_node_id":"0.0-6.0-194.0"},{"sim_score":6,"rt":4517,"stimulus":"[\"img/0899/5b56dd3e-3f49-47cc-af84-16da6457753b.jpg\",\"img/0764/55b3fab1-b809-4d38-a461-3f40ce062f52.jpg\"]","trial_type":"similarity","trial_index":201,"time_elapsed":800781,"internal_node_id":"0.0-6.0-195.0"},{"sim_score":2,"rt":3110,"stimulus":"[\"img/0881/adc02f34-ce97-4aef-850f-00519df06fd7.jpg\",\"img/0904/d23dd7be-7fe8-4435-82f7-bd592c01e6a1.jpg\"]","trial_type":"similarity","trial_index":202,"time_elapsed":804899,"internal_node_id":"0.0-6.0-196.0"},{"sim_score":3,"rt":2653,"stimulus":"[\"img/0864/e336a4c5-6648-4fd7-b2f6-93a3fb83f8c6.jpg\",\"img/0902/97022122-01e4-46c3-a34f-c6260ad28428.jpg\"]","trial_type":"similarity","trial_index":203,"time_elapsed":808566,"internal_node_id":"0.0-6.0-197.0"},{"sim_score":6,"rt":2677,"stimulus":"[\"img/0894/3664e04c-c6d3-4c9b-afb6-25d89974b174.jpg\",\"img/0904/06dacdc5-2206-4fb8-92b7-88042d22833c.jpg\"]","trial_type":"similarity","trial_index":204,"time_elapsed":812263,"internal_node_id":"0.0-6.0-198.0"},{"sim_score":7,"rt":2333,"stimulus":"[\"img/0901/62315ff5-ed95-46b4-b099-92552079659b.jpg\",\"img/0901/71e551a2-9ce2-409c-9c7c-dd556a0791e9.jpg\"]","trial_type":"similarity","trial_index":205,"time_elapsed":815599,"internal_node_id":"0.0-6.0-199.0"},{"sim_score":3,"rt":2285,"stimulus":"[\"img/0894/76c1201f-8524-4865-85e6-dda8cb4ac986.jpg\",\"img/0860/4f695df5-afac-4da7-9875-fee39b0b24ad.jpg\"]","trial_type":"similarity","trial_index":206,"time_elapsed":818893,"internal_node_id":"0.0-6.0-200.0"},{"sim_score":6,"rt":2322,"stimulus":"[\"img/0898/04e39a7a-fcf6-4156-ab0e-f5871f335e1c.jpg\",\"img/0903/e2e55a9e-0397-4dc0-8adf-4a54cfefe1fe.jpg\"]","trial_type":"similarity","trial_index":207,"time_elapsed":822232,"internal_node_id":"0.0-6.0-201.0"},{"sim_score":3,"rt":1917,"stimulus":"[\"img/0864/e8bd659f-aa43-4748-877e-3118e8b4e189.jpg\",\"img/0894/a3d4170b-b7d8-40e3-955f-87e76ed745fc.jpg\"]","trial_type":"similarity","trial_index":208,"time_elapsed":825158,"internal_node_id":"0.0-6.0-202.0"},{"sim_score":5,"rt":2269,"stimulus":"[\"img/0874/1016b306-087c-4afc-aa08-fa527b28dc76.jpg\",\"img/0860/c3379ff7-0763-48fe-a1ec-7ea3d611bc7a.jpg\"]","trial_type":"similarity","trial_index":209,"time_elapsed":828447,"internal_node_id":"0.0-6.0-203.0"},{"sim_score":5,"rt":2289,"stimulus":"[\"img/0862/064818ee-13d5-4618-bb24-21c7368ea278.jpg\",\"img/0875/f87b67d7-c33e-40d1-b281-248c4be1cb6e.jpg\"]","trial_type":"similarity","trial_index":210,"time_elapsed":831737,"internal_node_id":"0.0-6.0-204.0"},{"sim_score":6,"rt":1809,"stimulus":"[\"img/0867/179ab87a-8eac-4c52-a41f-2e48e3120f09.jpg\",\"img/0881/54ea8e77-c7e5-4197-b7fa-00b7020849a7.jpg\"]","trial_type":"similarity","trial_index":211,"time_elapsed":834559,"internal_node_id":"0.0-6.0-205.0"},{"sim_score":6,"rt":1856,"stimulus":"[\"img/0901/50e1d53e-a49f-4806-8610-be6dec5a2475.jpg\",\"img/0902/168ebd47-9e82-4ab7-a18b-c3da85072db8.jpg\"]","trial_type":"similarity","trial_index":212,"time_elapsed":837429,"internal_node_id":"0.0-6.0-206.0"},{"sim_score":2,"rt":4047,"stimulus":"[\"img/0899/8de08897-b430-42fe-9d42-840670b80f94.jpg\",\"img/0864/1d15626a-2f7c-410f-819c-0fa2c967e95e.jpg\"]","trial_type":"similarity","trial_index":213,"time_elapsed":842479,"internal_node_id":"0.0-6.0-207.0"},{"sim_score":5,"rt":3731,"stimulus":"[\"img/0901/f1116359-1ff1-4638-b3b3-700918d36d18.jpg\",\"img/0769/48a1144d-fbda-4809-991b-fc8424a32ee4.jpg\"]","trial_type":"similarity","trial_index":214,"time_elapsed":847221,"internal_node_id":"0.0-6.0-208.0"},{"sim_score":7,"rt":3939,"stimulus":"[\"img/0902/5b45a7a0-81c8-4a71-aaa2-2ce09adb5a29.jpg\",\"img/0902/ca3160ba-ad5d-459f-a1b6-8b4f3c85ecd5.jpg\"]","trial_type":"similarity","trial_index":215,"time_elapsed":870198,"internal_node_id":"0.0-6.0-209.0"},{"view_history":"[{\"page_index\":0,\"viewing_time\":6300}]","rt":6300,"trial_type":"instructions","trial_index":216,"time_elapsed":877509,"internal_node_id":"0.0-7.0"},{"rt":87970,"responses":"{\"Q0\":\"Nashville Warbler\"}","answer":["Nashville Warbler"],"trial_type":"image-multi-choice","trial_index":217,"time_elapsed":966489,"internal_node_id":"0.0-8.0-0.0"},{"rt":3322,"responses":"{\"Q0\":\"Black-and-white Warbler\"}","answer":["Black-and-white Warbler"],"trial_type":"image-multi-choice","trial_index":218,"time_elapsed":970831,"internal_node_id":"0.0-8.0-1.0"},{"rt":7237,"responses":"{\"Q0\":\"Magnolia Warbler\"}","answer":["Townsend's Warbler"],"trial_type":"image-multi-choice","trial_index":219,"time_elapsed":979071,"internal_node_id":"0.0-8.0-2.0"},{"rt":3993,"responses":"{\"Q0\":\"Lark Sparrow\"}","answer":["Lark Sparrow"],"trial_type":"image-multi-choice","trial_index":220,"time_elapsed":984073,"internal_node_id":"0.0-8.0-3.0"},{"rt":2623,"responses":"{\"Q0\":\"Yellow Warbler\"}","answer":["Yellow Warbler"],"trial_type":"image-multi-choice","trial_index":221,"time_elapsed":987703,"internal_node_id":"0.0-8.0-4.0"},{"rt":13464,"responses":"{\"Q0\":\"Tennessee Warbler\"}","answer":["Orange-crowned Warbler"],"trial_type":"image-multi-choice","trial_index":222,"time_elapsed":1002171,"internal_node_id":"0.0-8.0-5.0"},{"rt":4208,"responses":"{\"Q0\":\"White-throated Sparrow\"}","answer":["White-throated Sparrow"],"trial_type":"image-multi-choice","trial_index":223,"time_elapsed":1007395,"internal_node_id":"0.0-8.0-6.0"},{"rt":3059,"responses":"{\"Q0\":\"Fox Sparrow\"}","answer":["Fox Sparrow"],"trial_type":"image-multi-choice","trial_index":224,"time_elapsed":1011462,"internal_node_id":"0.0-8.0-7.0"},{"rt":24854,"responses":"{\"Q0\":\"Lincoln's Sparrow\"}","answer":["Song Sparrow"],"trial_type":"image-multi-choice","trial_index":225,"time_elapsed":1037323,"internal_node_id":"0.0-8.0-8.0"},{"rt":6602,"responses":"{\"Q0\":\"Blackburnian Warbler\"}","answer":["Blackburnian Warbler"],"trial_type":"image-multi-choice","trial_index":226,"time_elapsed":1044934,"internal_node_id":"0.0-8.0-9.0"},{"rt":8879,"responses":"{\"Q0\":\"Vesper Sparrow\"}","answer":["Vesper Sparrow"],"trial_type":"image-multi-choice","trial_index":227,"time_elapsed":1054823,"internal_node_id":"0.0-8.0-10.0"},{"rt":2974,"responses":"{\"Q0\":\"White-crowned Sparrow\"}","answer":["White-crowned Sparrow"],"trial_type":"image-multi-choice","trial_index":228,"time_elapsed":1058804,"internal_node_id":"0.0-8.0-11.0"},{"rt":3661,"responses":"{\"Q0\":\"American Tree Sparrow\"}","answer":["American Tree Sparrow"],"trial_type":"image-multi-choice","trial_index":229,"time_elapsed":1063473,"internal_node_id":"0.0-8.0-12.0"},{"rt":14259,"responses":"{\"Q0\":\"Tennessee Warbler\"}","answer":["Tennessee Warbler"],"trial_type":"image-multi-choice","trial_index":230,"time_elapsed":1078745,"internal_node_id":"0.0-8.0-13.0"},{"rt":15754,"responses":"{\"Q0\":\"Magnolia Warbler\"}","answer":["Magnolia Warbler"],"trial_type":"image-multi-choice","trial_index":231,"time_elapsed":1095504,"internal_node_id":"0.0-8.0-14.0"},{"rt":5013,"responses":"{\"Q0\":\"Northern Waterthrush\"}","answer":["Northern Waterthrush"],"trial_type":"image-multi-choice","trial_index":232,"time_elapsed":1101521,"internal_node_id":"0.0-8.0-15.0"},{"rt":3582,"responses":"{\"Q0\":\"Chipping Sparrow\"}","answer":["Chipping Sparrow"],"trial_type":"image-multi-choice","trial_index":233,"time_elapsed":1106110,"internal_node_id":"0.0-8.0-16.0"},{"rt":4318,"responses":"{\"Q0\":\"Swamp Sparrow\"}","answer":["Swamp Sparrow"],"trial_type":"image-multi-choice","trial_index":234,"time_elapsed":1111438,"internal_node_id":"0.0-8.0-17.0"},{"rt":6609,"responses":"{\"Q0\":\"Lincoln's Sparrow\"}","answer":["Lincoln's Sparrow"],"trial_type":"image-multi-choice","trial_index":235,"time_elapsed":1119059,"internal_node_id":"0.0-8.0-18.0"},{"rt":2664,"responses":"{\"Q0\":\"Ovenbird\"}","answer":["Ovenbird"],"trial_type":"image-multi-choice","trial_index":236,"time_elapsed":1122726,"internal_node_id":"0.0-8.0-19.0"}]