[{"view_history":"[{\"page_index\":0,\"viewing_time\":28378}]","rt":28380,"trial_type":"instructions","trial_index":0,"time_elapsed":28382,"internal_node_id":"0.0-0.0"},{"sim_score":2,"rt":5567,"stimulus":"[\"img/866.jpg\",\"img/868.jpg\"]","trial_type":"similarity_demo","trial_index":1,"time_elapsed":34972,"internal_node_id":"0.0-1.0"},{"view_history":"[{\"page_index\":0,\"viewing_time\":19942}]","rt":19943,"trial_type":"instructions","trial_index":2,"time_elapsed":55917,"internal_node_id":"0.0-2.0"},{"sim_score":2,"rt":5403,"stimulus":"[\"img/766.jpg\",\"img/867.jpg\"]","trial_type":"similarity_demo","trial_index":3,"time_elapsed":62329,"internal_node_id":"0.0-3.0"},{"view_history":"[{\"page_index\":0,\"viewing_time\":7242}]","rt":7243,"trial_type":"instructions","trial_index":4,"time_elapsed":70574,"internal_node_id":"0.0-4.0"},{"view_history":"[{\"page_index\":0,\"viewing_time\":18101}]","rt":18102,"trial_type":"instructions","trial_index":5,"time_elapsed":89676,"internal_node_id":"0.0-5.0"},{"sim_score":5,"rt":5434,"stimulus":"[\"img/0868/15dd6fd7-791e-4b53-b203-195d617521a4.jpg\",\"img/0901/50e1d53e-a49f-4806-8610-be6dec5a2475.jpg\"]","trial_type":"similarity","trial_index":6,"time_elapsed":96122,"internal_node_id":"0.0-6.0-0.0"},{"sim_score":3,"rt":4027,"stimulus":"[\"img/0769/35364db7-e0d5-40ef-93dc-faf9dfb95136.jpg\",\"img/0867/de92135f-5b65-4ed9-b245-188292c7c2f8.jpg\"]","trial_type":"similarity","trial_index":7,"time_elapsed":101157,"internal_node_id":"0.0-6.0-1.0"},{"sim_score":2,"rt":3533,"stimulus":"[\"img/0766/d5d38751-8fa5-476f-93e9-86ed2d9045ef.jpg\",\"img/0898/224c1572-56b9-4f16-a9e4-6f3bc9c114bd.jpg\"]","trial_type":"similarity","trial_index":8,"time_elapsed":105700,"internal_node_id":"0.0-6.0-2.0"},{"sim_score":3,"rt":4365,"stimulus":"[\"img/0902/82d20e8c-2162-47a6-925b-52906558c046.jpg\",\"img/0881/4da99fdd-1f40-4bbb-8e21-8833eef313f5.jpg\"]","trial_type":"similarity","trial_index":9,"time_elapsed":111076,"internal_node_id":"0.0-6.0-3.0"},{"sim_score":6,"rt":4445,"stimulus":"[\"img/0894/9b1333fd-3561-43bf-aee5-99b7b7ca3dc3.jpg\",\"img/0894/767a0eec-1064-46b1-b1aa-dfa02b0cd74e.jpg\"]","trial_type":"similarity","trial_index":10,"time_elapsed":116531,"internal_node_id":"0.0-6.0-4.0"},{"sim_score":3,"rt":5944,"stimulus":"[\"img/0874/7e4f2150-3b59-4a36-b5da-a4e0ba410531.jpg\",\"img/0899/a048912c-b12c-40e3-90af-46b69b0cc4fe.jpg\"]","trial_type":"similarity","trial_index":11,"time_elapsed":123482,"internal_node_id":"0.0-6.0-5.0"},{"sim_score":3,"rt":4413,"stimulus":"[\"img/0904/25365108-e038-4021-aac9-797f2063b337.jpg\",\"img/0764/6ef77040-1fae-4afa-bfe7-eda98e6d0376.jpg\"]","trial_type":"similarity","trial_index":12,"time_elapsed":128903,"internal_node_id":"0.0-6.0-6.0"},{"sim_score":2,"rt":4658,"stimulus":"[\"img/0899/f58b8d2f-b19d-4b59-8b94-8834be92e4ba.jpg\",\"img/0898/5f699581-3853-4547-856c-12f419ba5af7.jpg\"]","trial_type":"similarity","trial_index":13,"time_elapsed":134568,"internal_node_id":"0.0-6.0-7.0"},{"sim_score":3,"rt":4895,"stimulus":"[\"img/0874/a3bc679d-619f-4db6-bb68-116dcb757d9c.jpg\",\"img/0903/6f343da5-00d9-4d50-89d1-2ed24cdb8319.jpg\"]","trial_type":"similarity","trial_index":14,"time_elapsed":140474,"internal_node_id":"0.0-6.0-8.0"},{"sim_score":5,"rt":4557,"stimulus":"[\"img/0881/d1982897-8d8d-4704-a940-1ee5d07a1f15.jpg\",\"img/0758/f61ecdf8-a7d4-4db0-b84d-be46f7cfaffc.jpg\"]","trial_type":"similarity","trial_index":15,"time_elapsed":146039,"internal_node_id":"0.0-6.0-9.0"},{"sim_score":4,"rt":5625,"stimulus":"[\"img/0898/b2732712-71c2-45d8-834f-2b2ed5504910.jpg\",\"img/0901/f1116359-1ff1-4638-b3b3-700918d36d18.jpg\"]","trial_type":"similarity","trial_index":16,"time_elapsed":152671,"internal_node_id":"0.0-6.0-10.0"},{"sim_score":4,"rt":7315,"stimulus":"[\"img/0903/680ed18e-b311-4ecf-9b00-7dea32128334.jpg\",\"img/0769/965c3c44-d9e5-47c5-b61a-2bbdf4215d9a.jpg\"]","trial_type":"similarity","trial_index":17,"time_elapsed":160996,"internal_node_id":"0.0-6.0-11.0"},{"sim_score":2,"rt":3507,"stimulus":"[\"img/0764/06ea144f-f4f3-4a14-ba47-f20f35c561e0.jpg\",\"img/0868/1a62b2b2-18f5-466e-b564-5176a57c565e.jpg\"]","trial_type":"similarity","trial_index":18,"time_elapsed":165511,"internal_node_id":"0.0-6.0-12.0"},{"sim_score":3,"rt":4223,"stimulus":"[\"img/0867/c71dc569-f49c-4397-8381-68b8d726736d.jpg\",\"img/0903/8fcafe03-43df-4c45-9da5-0df3a1eeccc5.jpg\"]","trial_type":"similarity","trial_index":19,"time_elapsed":170742,"internal_node_id":"0.0-6.0-13.0"},{"sim_score":2,"rt":3914,"stimulus":"[\"img/0766/d50d734f-285c-4840-bc7a-c8dd4aff391e.jpg\",\"img/0758/a085b443-b5d7-4cb2-9ad4-b9dab0fc23f1.jpg\"]","trial_type":"similarity","trial_index":20,"time_elapsed":175663,"internal_node_id":"0.0-6.0-14.0"},{"sim_score":3,"rt":9662,"stimulus":"[\"img/0902/30c420f5-c714-4681-ae5a-c0ba8f636a26.jpg\",\"img/0860/8277806e-b684-4474-8f7b-3fca946d7d4f.jpg\"]","trial_type":"similarity","trial_index":21,"time_elapsed":186332,"internal_node_id":"0.0-6.0-15.0"},{"sim_score":3,"rt":6361,"stimulus":"[\"img/0769/ebef2ddc-ba59-4e0e-97f8-927864eb5081.jpg\",\"img/0875/e7e66b13-b573-431e-b85e-288ce04a35a3.jpg\"]","trial_type":"similarity","trial_index":22,"time_elapsed":193701,"internal_node_id":"0.0-6.0-16.0"},{"sim_score":3,"rt":4260,"stimulus":"[\"img/0904/9b3568cc-3cf7-42be-9df3-fdafde7a58b8.jpg\",\"img/0866/8efcaa46-83ab-4dee-a35f-850402aa21ae.jpg\"]","trial_type":"similarity","trial_index":23,"time_elapsed":198971,"internal_node_id":"0.0-6.0-17.0"},{"sim_score":7,"rt":4010,"stimulus":"[\"img/0875/5a7c4e35-6514-4e12-8879-d16071da4cd6.jpg\",\"img/0875/5a1e5100-0d94-4fec-bbe9-ca9894d2cf8e.jpg\"]","trial_type":"similarity","trial_index":24,"time_elapsed":203991,"internal_node_id":"0.0-6.0-18.0"},{"sim_score":6,"rt":4590,"stimulus":"[\"img/0758/9fb5b2fe-3f00-4fe6-973c-1ce10d5f4cd5.jpg\",\"img/0758/7fba58df-2a7a-4b76-8a8f-62739f97f271.jpg\"]","trial_type":"similarity","trial_index":25,"time_elapsed":209592,"internal_node_id":"0.0-6.0-19.0"},{"sim_score":4,"rt":3638,"stimulus":"[\"img/0902/7f1dcd35-237a-4995-9e42-7f63f3f434d4.jpg\",\"img/0874/adf9a8f1-c40b-402b-b95b-1e85a54a7b62.jpg\"]","trial_type":"similarity","trial_index":26,"time_elapsed":214241,"internal_node_id":"0.0-6.0-20.0"},{"sim_score":5,"rt":4600,"stimulus":"[\"img/0764/5d83b9db-3b2b-4dc8-9bd1-2b515b19c858.jpg\",\"img/0769/a1ce8d07-ba37-40de-bade-2778805521e0.jpg\"]","trial_type":"similarity","trial_index":27,"time_elapsed":219852,"internal_node_id":"0.0-6.0-21.0"},{"sim_score":3,"rt":3095,"stimulus":"[\"img/0901/5b97abf9-f0c8-4fd1-b921-36d574779078.jpg\",\"img/0874/8cdb1c07-1c32-46d2-981c-3636560fa6e5.jpg\"]","trial_type":"similarity","trial_index":28,"time_elapsed":223957,"internal_node_id":"0.0-6.0-22.0"},{"sim_score":6,"rt":3864,"stimulus":"[\"img/0875/cff79b3a-a797-4393-9757-6275f999ec04.jpg\",\"img/0903/0a92ec52-4e87-410a-857a-4455cde56a70.jpg\"]","trial_type":"similarity","trial_index":29,"time_elapsed":228833,"internal_node_id":"0.0-6.0-23.0"},{"sim_score":3,"rt":3976,"stimulus":"[\"img/0769/f229321f-04dd-42d7-b14a-ffad6b509862.jpg\",\"img/0881/445edb15-bd7f-4af3-8bd5-c6ad9677bb31.jpg\"]","trial_type":"similarity","trial_index":30,"time_elapsed":233815,"internal_node_id":"0.0-6.0-24.0"},{"sim_score":3,"rt":2735,"stimulus":"[\"img/0867/50a1b60e-3a29-44bf-b606-d4bd3746fea9.jpg\",\"img/0904/fe746a3f-8458-48d0-8a13-8cba2a9df9f8.jpg\"]","trial_type":"similarity","trial_index":31,"time_elapsed":237560,"internal_node_id":"0.0-6.0-25.0"},{"sim_score":2,"rt":3097,"stimulus":"[\"img/0860/e8b8c51e-1834-4875-8b61-6c5bc9b178bd.jpg\",\"img/0881/633c6f40-56d9-4b48-bf1c-ecd83116eabb.jpg\"]","trial_type":"similarity","trial_index":32,"time_elapsed":241663,"internal_node_id":"0.0-6.0-26.0"},{"sim_score":5,"rt":6065,"stimulus":"[\"img/0866/23a224f3-2012-4fc8-8e0f-3c36f8de27fd.jpg\",\"img/0866/02f5e6b9-52b7-448c-9708-5b460d0c9a23.jpg\"]","trial_type":"similarity","trial_index":33,"time_elapsed":248737,"internal_node_id":"0.0-6.0-27.0"},{"sim_score":3,"rt":4015,"stimulus":"[\"img/0764/d0bef2e0-e16b-4c82-9451-c1d16265eb67.jpg\",\"img/0862/92fcd8a4-8193-4a6a-ae09-dd4a6338b0df.jpg\"]","trial_type":"similarity","trial_index":34,"time_elapsed":253758,"internal_node_id":"0.0-6.0-28.0"},{"sim_score":3,"rt":4131,"stimulus":"[\"img/0904/a8c3c7d2-9bcf-4347-9e03-8203adfc1fc5.jpg\",\"img/0758/d41c06bf-ebaf-454b-91c6-1a17f917b659.jpg\"]","trial_type":"similarity","trial_index":35,"time_elapsed":258898,"internal_node_id":"0.0-6.0-29.0"},{"sim_score":3,"rt":3357,"stimulus":"[\"img/0894/11674fa4-285d-44e2-939f-2228c6a64080.jpg\",\"img/0899/56a605c3-d0a2-4215-89e1-779279d85a7c.jpg\"]","trial_type":"similarity","trial_index":36,"time_elapsed":263263,"internal_node_id":"0.0-6.0-30.0"},{"sim_score":5,"rt":5461,"stimulus":"[\"img/0860/c47fdead-eb02-4989-b078-26f4852f44fe.jpg\",\"img/0904/60d1a521-edf7-4696-9263-f21ac0e62a01.jpg\"]","trial_type":"similarity","trial_index":37,"time_elapsed":269731,"internal_node_id":"0.0-6.0-31.0"},{"sim_score":5,"rt":6058,"stimulus":"[\"img/0874/31e22c7c-99aa-40b1-bf03-dd73fa2df4d6.jpg\",\"img/0881/54ea8e77-c7e5-4197-b7fa-00b7020849a7.jpg\"]","trial_type":"similarity","trial_index":38,"time_elapsed":276796,"internal_node_id":"0.0-6.0-32.0"},{"sim_score":3,"rt":4495,"stimulus":"[\"img/0881/adc02f34-ce97-4aef-850f-00519df06fd7.jpg\",\"img/0899/fef567a2-c121-4481-9af0-ff108d199bbf.jpg\"]","trial_type":"similarity","trial_index":39,"time_elapsed":282298,"internal_node_id":"0.0-6.0-33.0"},{"sim_score":2,"rt":4193,"stimulus":"[\"img/0866/4a87911a-d5be-4d4e-ab8e-3d1f581bf507.jpg\",\"img/0862/a0a3a7ba-7798-46a3-b4ca-05e1f6e581d0.jpg\"]","trial_type":"similarity","trial_index":40,"time_elapsed":287497,"internal_node_id":"0.0-6.0-34.0"},{"sim_score":3,"rt":7123,"stimulus":"[\"img/0868/0d3abd3a-b6c3-4584-a9f7-e2da63748b3d.jpg\",\"img/0894/133a1636-d123-4893-873c-1718050f832a.jpg\"]","trial_type":"similarity","trial_index":41,"time_elapsed":295628,"internal_node_id":"0.0-6.0-35.0"},{"sim_score":7,"rt":5974,"stimulus":"[\"img/0860/15b24a61-25be-4356-9eac-5ce95d0cb4a4.jpg\",\"img/0860/8a92e21b-6a32-4e4a-a445-2d5a487ed0a4.jpg\"]","trial_type":"similarity","trial_index":42,"time_elapsed":302611,"internal_node_id":"0.0-6.0-36.0"},{"sim_score":5,"rt":5081,"stimulus":"[\"img/0862/fad1d7c1-8187-43c3-942a-0fc12183e48e.jpg\",\"img/0864/4bd81bc6-c13d-46df-95a9-485886dc7c1b.jpg\"]","trial_type":"similarity","trial_index":43,"time_elapsed":308701,"internal_node_id":"0.0-6.0-37.0"},{"sim_score":2,"rt":3153,"stimulus":"[\"img/0766/f011ef45-fb48-44b8-8224-867ed2ccf786.jpg\",\"img/0866/bf14b5bd-fb55-47db-86b9-4f8aeb9a6dad.jpg\"]","trial_type":"similarity","trial_index":44,"time_elapsed":312860,"internal_node_id":"0.0-6.0-38.0"},{"sim_score":3,"rt":5161,"stimulus":"[\"img/0875/90da8d75-108a-44ad-b999-e21fee3860d3.jpg\",\"img/0898/82231d4c-218b-4d0a-b50d-35a49b524e97.jpg\"]","trial_type":"similarity","trial_index":45,"time_elapsed":319029,"internal_node_id":"0.0-6.0-39.0"},{"sim_score":7,"rt":4347,"stimulus":"[\"img/0766/dd3e18d0-0c98-4d05-b850-69976ee8cd75.jpg\",\"img/0769/9ea27d61-3d55-418c-8d14-82e90f656f01.jpg\"]","trial_type":"similarity","trial_index":46,"time_elapsed":324380,"internal_node_id":"0.0-6.0-40.0"},{"sim_score":2,"rt":3170,"stimulus":"[\"img/0874/29830da7-be5f-44e5-b141-652a0ccf7269.jpg\",\"img/0764/5c8fbafc-e62e-43ed-9b37-f73e8e45147d.jpg\"]","trial_type":"similarity","trial_index":47,"time_elapsed":468495,"internal_node_id":"0.0-6.0-41.0"},{"sim_score":2,"rt":3784,"stimulus":"[\"img/0868/d6d1f30d-4323-435a-b194-7892521bc57e.jpg\",\"img/0902/40d0b6ec-3907-4573-b227-e7d8e9cad1c3.jpg\"]","trial_type":"similarity","trial_index":48,"time_elapsed":473288,"internal_node_id":"0.0-6.0-42.0"},{"sim_score":1,"rt":4084,"stimulus":"[\"img/0875/8521fd58-3b1e-4dc5-97ae-804edfa6734a.jpg\",\"img/0899/8de08897-b430-42fe-9d42-840670b80f94.jpg\"]","trial_type":"similarity","trial_index":49,"time_elapsed":478377,"internal_node_id":"0.0-6.0-43.0"},{"sim_score":2,"rt":3489,"stimulus":"[\"img/0866/c446214b-a368-4c65-ae39-ea46894256ab.jpg\",\"img/0860/c7047cd2-7cc1-41b6-8a34-c0986774975f.jpg\"]","trial_type":"similarity","trial_index":50,"time_elapsed":482874,"internal_node_id":"0.0-6.0-44.0"},{"sim_score":4,"rt":4198,"stimulus":"[\"img/0766/ea09dd5a-d24d-4e97-a099-7da3db1baef1.jpg\",\"img/0903/97a42b34-5462-4665-88c7-83c014b33d24.jpg\"]","trial_type":"similarity","trial_index":51,"time_elapsed":488078,"internal_node_id":"0.0-6.0-45.0"},{"sim_score":5,"rt":3725,"stimulus":"[\"img/0901/d6d15b1c-4a30-4f74-a3fd-d4c8ee4169ca.jpg\",\"img/0904/ba8e689e-9ca6-4608-a2a1-3b0940666ae6.jpg\"]","trial_type":"similarity","trial_index":52,"time_elapsed":492811,"internal_node_id":"0.0-6.0-46.0"},{"sim_score":2,"rt":4025,"stimulus":"[\"img/0758/2fa3e613-e676-4e6e-bd12-705327eeb3e1.jpg\",\"img/0902/511abb54-0094-4f4d-b6dc-3f2c97050521.jpg\"]","trial_type":"similarity","trial_index":53,"time_elapsed":497846,"internal_node_id":"0.0-6.0-47.0"},{"sim_score":6,"rt":3443,"stimulus":"[\"img/0764/4952d0a0-c9be-471a-8ec7-94a37bf4051d.jpg\",\"img/0764/56441045-b648-4ede-9632-3e9c0227080b.jpg\"]","trial_type":"similarity","trial_index":54,"time_elapsed":502300,"internal_node_id":"0.0-6.0-48.0"},{"sim_score":1,"rt":3960,"stimulus":"[\"img/0866/945c6710-d15b-4a5b-a8f6-69af0850357f.jpg\",\"img/0902/1f4a4c62-68c1-4993-b213-05652a173ed1.jpg\"]","trial_type":"similarity","trial_index":55,"time_elapsed":507268,"internal_node_id":"0.0-6.0-49.0"},{"sim_score":3,"rt":5109,"stimulus":"[\"img/0764/e0788029-9d7f-414c-b747-46d2a99f7c86.jpg\",\"img/0758/61d64021-9214-4951-bdf8-f871f9827cf9.jpg\"]","trial_type":"similarity","trial_index":56,"time_elapsed":513383,"internal_node_id":"0.0-6.0-50.0"},{"sim_score":3,"rt":4292,"stimulus":"[\"img/0898/40f99fb2-64d2-4e72-8a7f-a1cf60741e69.jpg\",\"img/0894/492d2f29-d7b9-4422-8be8-47fd58bfaa8b.jpg\"]","trial_type":"similarity","trial_index":57,"time_elapsed":518682,"internal_node_id":"0.0-6.0-51.0"},{"sim_score":5,"rt":4138,"stimulus":"[\"img/0875/ebf7653f-ff45-4e9f-af58-2c042ab3cd2b.jpg\",\"img/0866/11a1d141-be5e-443c-98c1-a9d4d9e3dec0.jpg\"]","trial_type":"similarity","trial_index":58,"time_elapsed":523828,"internal_node_id":"0.0-6.0-52.0"},{"sim_score":7,"rt":4139,"stimulus":"[\"img/0904/e9423a8c-f946-43ad-ab7b-931acef870e2.jpg\",\"img/0904/9d30eff1-46ef-4453-b11e-124ef8145c00.jpg\"]","trial_type":"similarity","trial_index":59,"time_elapsed":528973,"internal_node_id":"0.0-6.0-53.0"},{"sim_score":6,"rt":5828,"stimulus":"[\"img/0769/14d393ce-e5be-4ca1-86ce-cc27d4b6074c.jpg\",\"img/0769/1ca58b80-2365-446d-9616-6c1719e6c46f.jpg\"]","trial_type":"similarity","trial_index":60,"time_elapsed":535807,"internal_node_id":"0.0-6.0-54.0"},{"sim_score":1,"rt":6788,"stimulus":"[\"img/0898/e167334e-cc1d-4986-b3b1-c7bc7da64baa.jpg\",\"img/0758/ddc336e9-a8b6-4bb9-937a-c7e25e0e9250.jpg\"]","trial_type":"similarity","trial_index":61,"time_elapsed":543604,"internal_node_id":"0.0-6.0-55.0"},{"sim_score":6,"rt":5524,"stimulus":"[\"img/0769/7c50e5f5-cc38-4d48-b009-fbe17bcea61c.jpg\",\"img/0902/1a120fb9-dbd6-443e-ba91-b4aceab963da.jpg\"]","trial_type":"similarity","trial_index":62,"time_elapsed":550141,"internal_node_id":"0.0-6.0-56.0"},{"sim_score":7,"rt":4217,"stimulus":"[\"img/0864/66091c27-e588-4476-8af9-265dc6be4156.jpg\",\"img/0881/292e9b4b-fca0-4ba8-87f1-4048f9e37b7d.jpg\"]","trial_type":"similarity","trial_index":63,"time_elapsed":555366,"internal_node_id":"0.0-6.0-57.0"},{"sim_score":1,"rt":4986,"stimulus":"[\"img/0758/821c68d3-5cb0-4eae-8659-30e6263fca39.jpg\",\"img/0868/293079b8-7e0c-4afd-a390-1e5d35fe3ded.jpg\"]","trial_type":"similarity","trial_index":64,"time_elapsed":561357,"internal_node_id":"0.0-6.0-58.0"},{"sim_score":2,"rt":4029,"stimulus":"[\"img/0862/92f0146c-20c4-482e-aef5-adb693790338.jpg\",\"img/0769/47700831-0ca2-4fdd-a498-a3bc5a528f43.jpg\"]","trial_type":"similarity","trial_index":65,"time_elapsed":566393,"internal_node_id":"0.0-6.0-59.0"},{"sim_score":4,"rt":4886,"stimulus":"[\"img/0764/713cc27e-2338-4486-bfe9-5f5725fbd7a0.jpg\",\"img/0903/776b74ee-a8ab-4ab8-a78d-097c0747538d.jpg\"]","trial_type":"similarity","trial_index":66,"time_elapsed":572286,"internal_node_id":"0.0-6.0-60.0"},{"sim_score":7,"rt":3887,"stimulus":"[\"img/0899/4408c14d-c168-4a7d-96f6-bc87bfb58f83.jpg\",\"img/0899/b45c550b-96c3-4255-ad59-48a2b4db1c1e.jpg\"]","trial_type":"similarity","trial_index":67,"time_elapsed":577178,"internal_node_id":"0.0-6.0-61.0"},{"sim_score":6,"rt":5362,"stimulus":"[\"img/0860/fd4662f9-4c03-4d79-8593-06735e55a64b.jpg\",\"img/0875/f87b67d7-c33e-40d1-b281-248c4be1cb6e.jpg\"]","trial_type":"similarity","trial_index":68,"time_elapsed":583550,"internal_node_id":"0.0-6.0-62.0"},{"sim_score":2,"rt":4672,"stimulus":"[\"img/0868/3a62db2d-97e9-44a3-b8e3-a48c6f0e423b.jpg\",\"img/0874/767f289c-9814-4496-803f-745cc8913d1f.jpg\"]","trial_type":"similarity","trial_index":69,"time_elapsed":589228,"internal_node_id":"0.0-6.0-63.0"},{"sim_score":2,"rt":5718,"stimulus":"[\"img/0758/20497cbe-ddae-489e-86e2-ab06985ed07c.jpg\",\"img/0862/847e5208-38ec-4f36-949c-296cdd7424ee.jpg\"]","trial_type":"similarity","trial_index":70,"time_elapsed":595955,"internal_node_id":"0.0-6.0-64.0"},{"sim_score":5,"rt":3865,"stimulus":"[\"img/0904/56e73f28-7e64-489b-a161-e6b1a063878d.jpg\",\"img/0898/04e39a7a-fcf6-4156-ab0e-f5871f335e1c.jpg\"]","trial_type":"similarity","trial_index":71,"time_elapsed":600827,"internal_node_id":"0.0-6.0-65.0"},{"sim_score":3,"rt":5555,"stimulus":"[\"img/0881/62a64f90-7a72-4aee-a1a1-0c548ac9bdda.jpg\",\"img/0866/0207e9a2-7dbb-40b5-9459-b472aaeceb2a.jpg\"]","trial_type":"similarity","trial_index":72,"time_elapsed":607389,"internal_node_id":"0.0-6.0-66.0"},{"sim_score":1,"rt":5754,"stimulus":"[\"img/0867/aa05d113-fc19-4756-a8eb-7878f580bc92.jpg\",\"img/0898/08c72dac-f8ad-407a-9ce6-8c9a5d679c3a.jpg\"]","trial_type":"similarity","trial_index":73,"time_elapsed":614150,"internal_node_id":"0.0-6.0-67.0"},{"sim_score":7,"rt":4408,"stimulus":"[\"img/0902/62f11694-7ed7-4cb7-8a73-9e95c43824e7.jpg\",\"img/0764/50f1b062-d608-4bc0-ab25-b872dcf2ed93.jpg\"]","trial_type":"similarity","trial_index":74,"time_elapsed":619567,"internal_node_id":"0.0-6.0-68.0"},{"sim_score":3,"rt":4928,"stimulus":"[\"img/0875/dbdd643e-6d0e-4a5c-ab57-b9c29b9c981a.jpg\",\"img/0867/cc72ed48-7704-422c-86d6-467a1145287a.jpg\"]","trial_type":"similarity","trial_index":75,"time_elapsed":625503,"internal_node_id":"0.0-6.0-69.0"},{"sim_score":6,"rt":5246,"stimulus":"[\"img/0766/f5f78e4e-d88f-4866-951a-118ba9fec4d0.jpg\",\"img/0764/17b088f8-3053-4140-b544-d15654cc79ef.jpg\"]","trial_type":"similarity","trial_index":76,"time_elapsed":631755,"internal_node_id":"0.0-6.0-70.0"},{"sim_score":2,"rt":6361,"stimulus":"[\"img/0894/38f5931f-926d-414e-b498-66b188978b7a.jpg\",\"img/0867/2e1a0b58-cdb1-4107-a14e-452530d7b9b0.jpg\"]","trial_type":"similarity","trial_index":77,"time_elapsed":639122,"internal_node_id":"0.0-6.0-71.0"},{"sim_score":5,"rt":5904,"stimulus":"[\"img/0875/a4935837-7d3c-4df6-88c1-36a94d4991ca.jpg\",\"img/0764/c01e2d65-6586-441b-bef5-3c96fcd85380.jpg\"]","trial_type":"similarity","trial_index":78,"time_elapsed":646035,"internal_node_id":"0.0-6.0-72.0"},{"sim_score":7,"rt":6259,"stimulus":"[\"img/0867/f8159067-056c-41f1-a136-c529fe5e970a.jpg\",\"img/0866/9b38d691-1802-4959-ab3f-fc902f0e4ea6.jpg\"]","trial_type":"similarity","trial_index":79,"time_elapsed":653299,"internal_node_id":"0.0-6.0-73.0"},{"sim_score":1,"rt":5637,"stimulus":"[\"img/0903/d987e220-f3e6-4b6d-a270-fe6757041f6d.jpg\",\"img/0758/67c0be2f-9e91-48b3-8219-70ac0a1802fa.jpg\"]","trial_type":"similarity","trial_index":80,"time_elapsed":659944,"internal_node_id":"0.0-6.0-74.0"},{"sim_score":2,"rt":6662,"stimulus":"[\"img/0766/ae0fce93-fe8d-4aa1-87ca-4c3e4b889f2f.jpg\",\"img/0868/8b0b8473-e2c0-4331-aa56-c3a5c29369da.jpg\"]","trial_type":"similarity","trial_index":81,"time_elapsed":667612,"internal_node_id":"0.0-6.0-75.0"},{"sim_score":5,"rt":4011,"stimulus":"[\"img/0874/99f6563c-8a8d-4c1c-a41d-667b618c3fd5.jpg\",\"img/0766/908bc45b-7c9e-4f95-806e-86b196ebcb2c.jpg\"]","trial_type":"similarity","trial_index":82,"time_elapsed":672632,"internal_node_id":"0.0-6.0-76.0"},{"sim_score":1,"rt":3442,"stimulus":"[\"img/0881/344de456-b358-4887-bd0e-e4c3278af887.jpg\",\"img/0868/6a28c3b0-3d76-498a-9fb7-ddafc665eca8.jpg\"]","trial_type":"similarity","trial_index":83,"time_elapsed":677080,"internal_node_id":"0.0-6.0-77.0"},{"sim_score":6,"rt":6316,"stimulus":"[\"img/0758/a709631e-3705-4725-ac40-f0d916924f08.jpg\",\"img/0901/08d6d1d1-c043-43c4-bb08-d45e062822b9.jpg\"]","trial_type":"similarity","trial_index":84,"time_elapsed":684409,"internal_node_id":"0.0-6.0-78.0"},{"sim_score":6,"rt":4986,"stimulus":"[\"img/0881/19e82c47-8e4b-45d2-a6c8-74181eb4155e.jpg\",\"img/0898/a8f16b02-e19f-423b-86c3-a36562ae1f9b.jpg\"]","trial_type":"similarity","trial_index":85,"time_elapsed":690403,"internal_node_id":"0.0-6.0-79.0"},{"sim_score":1,"rt":3598,"stimulus":"[\"img/0867/8ba0c5a7-c7e4-42cf-a80a-543763b90779.jpg\",\"img/0758/6cd8c362-ae2a-41eb-80a3-3a4f7ace1530.jpg\"]","trial_type":"similarity","trial_index":86,"time_elapsed":695011,"internal_node_id":"0.0-6.0-80.0"},{"sim_score":6,"rt":6974,"stimulus":"[\"img/0769/50985283-d353-4abc-9abe-14a91d56ebe6.jpg\",\"img/0899/0433d056-aa30-4f8a-9aa1-abbb951e4edd.jpg\"]","trial_type":"similarity","trial_index":87,"time_elapsed":702993,"internal_node_id":"0.0-6.0-81.0"},{"sim_score":7,"rt":4028,"stimulus":"[\"img/0903/6a87dbad-9b8d-4ff5-9c41-03c9aa24f0c3.jpg\",\"img/0903/72197c2b-403e-4a26-b391-f1aa8dea4b76.jpg\"]","trial_type":"similarity","trial_index":88,"time_elapsed":708028,"internal_node_id":"0.0-6.0-82.0"},{"sim_score":2,"rt":4130,"stimulus":"[\"img/0867/bf560d4f-dee3-4f11-a385-705cc1aa5f3c.jpg\",\"img/0766/ef3b15ce-abb7-4292-ad93-aec8e8b50520.jpg\"]","trial_type":"similarity","trial_index":89,"time_elapsed":855368,"internal_node_id":"0.0-6.0-83.0"},{"sim_score":1,"rt":5985,"stimulus":"[\"img/0902/4e0baa32-988e-46f6-989d-f669225ab645.jpg\",\"img/0867/f8488a47-94ee-4166-952c-44e16cf172f6.jpg\"]","trial_type":"similarity","trial_index":90,"time_elapsed":862362,"internal_node_id":"0.0-6.0-84.0"},{"sim_score":2,"rt":4265,"stimulus":"[\"img/0901/f469cb1d-6d81-4a45-bab5-cd0b650c2b4f.jpg\",\"img/0875/fb732ab5-013a-4366-9f65-27811ed157e9.jpg\"]","trial_type":"similarity","trial_index":91,"time_elapsed":867634,"internal_node_id":"0.0-6.0-85.0"},{"sim_score":5,"rt":2941,"stimulus":"[\"img/0764/5d6fa3ce-9083-410c-bbdb-336a49b94cfc.jpg\",\"img/0866/f756f7d1-9ad8-4a34-9ef6-7a443d705bfe.jpg\"]","trial_type":"similarity","trial_index":92,"time_elapsed":871582,"internal_node_id":"0.0-6.0-86.0"},{"sim_score":3,"rt":4580,"stimulus":"[\"img/0901/c6c877e0-dd63-4e00-9657-33af29d55aab.jpg\",\"img/0894/2d2db7b3-e8a3-499b-b63a-14f51bf73882.jpg\"]","trial_type":"similarity","trial_index":93,"time_elapsed":877168,"internal_node_id":"0.0-6.0-87.0"},{"sim_score":6,"rt":3355,"stimulus":"[\"img/0898/cd3aaa3f-efa9-4ab3-8d6f-a6a9273ddf42.jpg\",\"img/0769/bb8c4e53-6f32-4814-97ee-392d4decfb2e.jpg\"]","trial_type":"similarity","trial_index":94,"time_elapsed":881532,"internal_node_id":"0.0-6.0-88.0"},{"sim_score":6,"rt":6146,"stimulus":"[\"img/0769/387a9744-d6a7-42b8-bab8-33007ec434aa.jpg\",\"img/0894/05161000-f476-499b-a878-c13c7f347fd9.jpg\"]","trial_type":"similarity","trial_index":95,"time_elapsed":888685,"internal_node_id":"0.0-6.0-89.0"},{"sim_score":5,"rt":3093,"stimulus":"[\"img/0862/f43ceabf-acc1-4107-b857-5d1849808f93.jpg\",\"img/0874/ca76a855-4e77-4f2f-872a-0a718153e7ed.jpg\"]","trial_type":"similarity","trial_index":96,"time_elapsed":892787,"internal_node_id":"0.0-6.0-90.0"},{"sim_score":6,"rt":4048,"stimulus":"[\"img/0894/e5edf723-72a5-4673-8441-6c1734a8929b.jpg\",\"img/0766/d512b99c-a2dc-40d7-8e86-827323a0cbcf.jpg\"]","trial_type":"similarity","trial_index":97,"time_elapsed":897843,"internal_node_id":"0.0-6.0-91.0"},{"sim_score":3,"rt":6308,"stimulus":"[\"img/0874/85eb9b8a-c4c6-4e5a-b8e7-363a87a82054.jpg\",\"img/0867/6e19c858-b606-45b2-a4c6-910a73f1d82c.jpg\"]","trial_type":"similarity","trial_index":98,"time_elapsed":905158,"internal_node_id":"0.0-6.0-92.0"},{"sim_score":1,"rt":3818,"stimulus":"[\"img/0899/00715b3f-851b-420b-a26b-d7f79f7759a9.jpg\",\"img/0868/4bd5105a-d2c3-4f82-8c80-57196106ba53.jpg\"]","trial_type":"similarity","trial_index":99,"time_elapsed":909984,"internal_node_id":"0.0-6.0-93.0"},{"sim_score":5,"rt":5748,"stimulus":"[\"img/0903/14f179a2-8786-48a2-8377-88d1d404341b.jpg\",\"img/0862/f188d4f0-76a4-4102-818c-a209969d73a5.jpg\"]","trial_type":"similarity","trial_index":100,"time_elapsed":916741,"internal_node_id":"0.0-6.0-94.0"},{"sim_score":6,"rt":4950,"stimulus":"[\"img/0899/ad8268c5-8199-48d0-ad70-c5b6d6c599ec.jpg\",\"img/0766/110832e5-2646-4bd0-a94e-5df8cc314269.jpg\"]","trial_type":"similarity","trial_index":101,"time_elapsed":922698,"internal_node_id":"0.0-6.0-95.0"},{"sim_score":4,"rt":12004,"stimulus":"[\"img/0867/7d1c497b-c1b3-4ed8-abb5-d7f73306015f.jpg\",\"img/0868/4e626425-63c8-484a-8a1d-e66ee4e0bef8.jpg\"]","trial_type":"similarity","trial_index":102,"time_elapsed":935707,"internal_node_id":"0.0-6.0-96.0"},{"sim_score":4,"rt":3002,"stimulus":"[\"img/0862/99a99e39-8355-44ec-b993-e7bcec111e1c.jpg\",\"img/0901/b13fa50f-dbe0-4d0f-8647-6ac0fd8f40bd.jpg\"]","trial_type":"similarity","trial_index":103,"time_elapsed":939716,"internal_node_id":"0.0-6.0-97.0"},{"sim_score":3,"rt":3624,"stimulus":"[\"img/0875/5a716432-c6ca-4b1c-955a-2b8ac25198ee.jpg\",\"img/0766/6d32752d-aa05-40dc-9541-640b6e9d6fa1.jpg\"]","trial_type":"similarity","trial_index":104,"time_elapsed":944346,"internal_node_id":"0.0-6.0-98.0"},{"sim_score":3,"rt":4033,"stimulus":"[\"img/0758/eabcd7a8-56ad-4fd2-bc24-90f6b7b33265.jpg\",\"img/0874/eba003b4-cdab-4eee-8bc3-f064c7d94165.jpg\"]","trial_type":"similarity","trial_index":105,"time_elapsed":949391,"internal_node_id":"0.0-6.0-99.0"},{"sim_score":3,"rt":5474,"stimulus":"[\"img/0904/b5855d6a-7ef9-46ca-9215-6e9fa046e543.jpg\",\"img/0868/179a5502-ab5c-478e-8263-5a1fbcc101d2.jpg\"]","trial_type":"similarity","trial_index":106,"time_elapsed":955875,"internal_node_id":"0.0-6.0-100.0"},{"sim_score":2,"rt":3978,"stimulus":"[\"img/0903/ea75f240-fb62-4edb-a709-83e858b202c0.jpg\",\"img/0866/386235d2-6857-41e7-88a8-25cfc3430025.jpg\"]","trial_type":"similarity","trial_index":107,"time_elapsed":960858,"internal_node_id":"0.0-6.0-101.0"},{"sim_score":4,"rt":5107,"stimulus":"[\"img/0868/77091fc7-a590-4ebb-b915-fdb2483a2399.jpg\",\"img/0769/b664b502-a86c-46c1-ad6f-5ebffc2e1bd3.jpg\"]","trial_type":"similarity","trial_index":108,"time_elapsed":966973,"internal_node_id":"0.0-6.0-102.0"},{"sim_score":4,"rt":4188,"stimulus":"[\"img/0902/962f645e-9b55-4628-9b50-c703422bfe1a.jpg\",\"img/0899/7b7380d5-d2be-44e5-a09a-c1756f87ef71.jpg\"]","trial_type":"similarity","trial_index":109,"time_elapsed":972172,"internal_node_id":"0.0-6.0-103.0"},{"sim_score":2,"rt":4214,"stimulus":"[\"img/0868/4a8a45ed-2c4f-421b-9564-409a33ecd26c.jpg\",\"img/0862/ad593cc7-cabe-4bb7-8e14-8a447a0717b4.jpg\"]","trial_type":"similarity","trial_index":110,"time_elapsed":977393,"internal_node_id":"0.0-6.0-104.0"},{"sim_score":3,"rt":4013,"stimulus":"[\"img/0903/9b60ef5b-234f-4239-892b-3d4c412accc2.jpg\",\"img/0894/43216a7f-27bc-4b5a-8841-d122a30da9d9.jpg\"]","trial_type":"similarity","trial_index":111,"time_elapsed":982414,"internal_node_id":"0.0-6.0-105.0"},{"sim_score":7,"rt":4243,"stimulus":"[\"img/0864/300bb811-8b3c-4c42-8653-6097c3725197.jpg\",\"img/0874/bf14b896-e930-4fd9-9c05-2e83317a2773.jpg\"]","trial_type":"similarity","trial_index":112,"time_elapsed":987667,"internal_node_id":"0.0-6.0-106.0"},{"sim_score":4,"rt":3705,"stimulus":"[\"img/0862/47ed5efd-4ec9-4b74-bb4e-a5f5cf0c3e7d.jpg\",\"img/0902/24d10fe7-314f-4d5a-8c7b-b43121bba0a4.jpg\"]","trial_type":"similarity","trial_index":113,"time_elapsed":992378,"internal_node_id":"0.0-6.0-107.0"},{"sim_score":7,"rt":6503,"stimulus":"[\"img/0904/63dd06dd-dccb-47ba-9740-eb33239e18a7.jpg\",\"img/0903/bf0a7d60-eca5-44b0-bafd-baf21db9904b.jpg\"]","trial_type":"similarity","trial_index":114,"time_elapsed":999888,"internal_node_id":"0.0-6.0-108.0"},{"sim_score":6,"rt":4341,"stimulus":"[\"img/0764/f64dfa83-333d-494c-87b5-73e942f1766e.jpg\",\"img/0864/6f631579-acf1-415c-a42c-1207f62a8d99.jpg\"]","trial_type":"similarity","trial_index":115,"time_elapsed":1005236,"internal_node_id":"0.0-6.0-109.0"},{"sim_score":4,"rt":5394,"stimulus":"[\"img/0866/a04d37f0-99dd-478a-b6c6-58b215138f84.jpg\",\"img/0894/e6385e52-6c35-43bd-b0af-bc803d107b11.jpg\"]","trial_type":"similarity","trial_index":116,"time_elapsed":1011636,"internal_node_id":"0.0-6.0-110.0"},{"sim_score":2,"rt":4281,"stimulus":"[\"img/0899/f95cbdb4-f804-4f5d-ad76-373ad343e658.jpg\",\"img/0903/47e39de8-6959-469f-8be9-6999a6db207c.jpg\"]","trial_type":"similarity","trial_index":117,"time_elapsed":1016924,"internal_node_id":"0.0-6.0-111.0"},{"sim_score":4,"rt":5372,"stimulus":"[\"img/0902/2db723b6-130f-454c-8c8d-88829edbcd65.jpg\",\"img/0904/4d7d70a3-9477-4921-bda0-f9531d0a5c5b.jpg\"]","trial_type":"similarity","trial_index":118,"time_elapsed":1023302,"internal_node_id":"0.0-6.0-112.0"},{"sim_score":4,"rt":5567,"stimulus":"[\"img/0864/65210d57-1153-4657-886a-32e758f49b4a.jpg\",\"img/0860/4a022222-056d-461c-ab02-39fac9647552.jpg\"]","trial_type":"similarity","trial_index":119,"time_elapsed":1029875,"internal_node_id":"0.0-6.0-113.0"},{"sim_score":2,"rt":4760,"stimulus":"[\"img/0860/4f695df5-afac-4da7-9875-fee39b0b24ad.jpg\",\"img/0899/06b0fc99-0581-461a-9913-d1a5a941ac61.jpg\"]","trial_type":"similarity","trial_index":120,"time_elapsed":1035642,"internal_node_id":"0.0-6.0-114.0"},{"sim_score":3,"rt":4509,"stimulus":"[\"img/0881/e6746727-7f89-47ec-b939-d98abe78372d.jpg\",\"img/0903/f1fa0f8d-e62b-4b4a-a174-31a0fabfe61b.jpg\"]","trial_type":"similarity","trial_index":121,"time_elapsed":1041157,"internal_node_id":"0.0-6.0-115.0"},{"sim_score":4,"rt":4354,"stimulus":"[\"img/0894/76c1201f-8524-4865-85e6-dda8cb4ac986.jpg\",\"img/0874/3ce41e7c-40c8-4d58-a546-171114521796.jpg\"]","trial_type":"similarity","trial_index":122,"time_elapsed":1046518,"internal_node_id":"0.0-6.0-116.0"},{"sim_score":3,"rt":10124,"stimulus":"[\"img/0881/f4e3e181-b3c9-4af2-a5a4-fc135ab70d2e.jpg\",\"img/0862/de9ad88c-b522-430a-8ee9-eb06a9f85df5.jpg\"]","trial_type":"similarity","trial_index":123,"time_elapsed":1057650,"internal_node_id":"0.0-6.0-117.0"},{"sim_score":2,"rt":7634,"stimulus":"[\"img/0868/7b212364-ff5f-4e28-9241-7eb6ea00161b.jpg\",\"img/0875/527ced51-8e53-4aab-ab05-86df219104c0.jpg\"]","trial_type":"similarity","trial_index":124,"time_elapsed":1066291,"internal_node_id":"0.0-6.0-118.0"},{"sim_score":4,"rt":5658,"stimulus":"[\"img/0860/702bd09d-df3a-40aa-a267-5f04474305b5.jpg\",\"img/0758/6e95579b-5166-487c-b8cb-e417c6a218e3.jpg\"]","trial_type":"similarity","trial_index":125,"time_elapsed":1072957,"internal_node_id":"0.0-6.0-119.0"},{"sim_score":6,"rt":4229,"stimulus":"[\"img/0864/a248adb3-c70b-4652-b7a3-776d2a1e904b.jpg\",\"img/0875/d59ff733-eaff-4ee2-9443-06954dd0bcb6.jpg\"]","trial_type":"similarity","trial_index":126,"time_elapsed":1078193,"internal_node_id":"0.0-6.0-120.0"},{"sim_score":3,"rt":5150,"stimulus":"[\"img/0898/8605a25b-6895-476d-8c13-df7a83f96093.jpg\",\"img/0866/93a27239-8317-4e08-98ca-d8b1ff298e07.jpg\"]","trial_type":"similarity","trial_index":127,"time_elapsed":1084351,"internal_node_id":"0.0-6.0-121.0"},{"sim_score":5,"rt":5794,"stimulus":"[\"img/0874/93d1f8dc-acf2-4f03-bd8d-8ec35df276ed.jpg\",\"img/0904/73920552-103b-4c9c-9ece-e0b8376b4504.jpg\"]","trial_type":"similarity","trial_index":128,"time_elapsed":1091153,"internal_node_id":"0.0-6.0-122.0"},{"sim_score":5,"rt":3266,"stimulus":"[\"img/0904/6291eb43-c10c-4810-a36a-101d09868b04.jpg\",\"img/0864/5f33e097-23e3-4002-882d-76e8cb15f451.jpg\"]","trial_type":"similarity","trial_index":129,"time_elapsed":1095425,"internal_node_id":"0.0-6.0-123.0"},{"sim_score":4,"rt":2892,"stimulus":"[\"img/0894/661b9f9f-4bde-487a-b1ed-87085fde6948.jpg\",\"img/0902/b56db912-c3c0-4fc2-b325-d640acd7cb58.jpg\"]","trial_type":"similarity","trial_index":130,"time_elapsed":1099326,"internal_node_id":"0.0-6.0-124.0"},{"sim_score":1,"rt":4820,"stimulus":"[\"img/0868/09a9ef4d-d000-4cfa-a6aa-ebec7c2edeb4.jpg\",\"img/0864/6e846d43-94a6-4b37-a268-65eda979f052.jpg\"]","trial_type":"similarity","trial_index":131,"time_elapsed":1625918,"internal_node_id":"0.0-6.0-125.0"},{"sim_score":4,"rt":3929,"stimulus":"[\"img/0899/fd9efb43-701f-4cd6-baaa-4c38315f4bdc.jpg\",\"img/0866/07c9c966-3c8d-40e7-8128-92b2acbaed5d.jpg\"]","trial_type":"similarity","trial_index":132,"time_elapsed":1630854,"internal_node_id":"0.0-6.0-126.0"},{"sim_score":3,"rt":6182,"stimulus":"[\"img/0875/42910c99-5463-450a-a0f8-d4d060a11455.jpg\",\"img/0904/1d10df11-b5c8-4370-9a6b-097a7f965895.jpg\"]","trial_type":"similarity","trial_index":133,"time_elapsed":1638043,"internal_node_id":"0.0-6.0-127.0"},{"sim_score":2,"rt":4230,"stimulus":"[\"img/0867/db7e032f-162b-46f5-ae67-2b29679adee4.jpg\",\"img/0899/0adc0bc3-6fca-4078-be6f-d45ddf1653d5.jpg\"]","trial_type":"similarity","trial_index":134,"time_elapsed":1643280,"internal_node_id":"0.0-6.0-128.0"},{"sim_score":2,"rt":4606,"stimulus":"[\"img/0901/a373612d-67e2-4fec-9764-21d3d6ef6359.jpg\",\"img/0867/075e0f95-856b-4cbb-acf5-092393aaf04e.jpg\"]","trial_type":"similarity","trial_index":135,"time_elapsed":1648899,"internal_node_id":"0.0-6.0-129.0"},{"sim_score":6,"rt":3525,"stimulus":"[\"img/0864/49150900-7f25-4ce8-8d10-9b47a71d1997.jpg\",\"img/0769/8c7cf147-1780-4d5c-8ddf-5ea23ff03ac9.jpg\"]","trial_type":"similarity","trial_index":136,"time_elapsed":1653435,"internal_node_id":"0.0-6.0-130.0"},{"sim_score":6,"rt":3639,"stimulus":"[\"img/0903/8f7f9939-b8e6-433f-93dd-b362496c80a7.jpg\",\"img/0868/83b4350a-3b70-4cea-b7f5-b5b56f3050a8.jpg\"]","trial_type":"similarity","trial_index":137,"time_elapsed":1658081,"internal_node_id":"0.0-6.0-131.0"},{"sim_score":1,"rt":5115,"stimulus":"[\"img/0864/c22faebd-9c53-47bc-ada3-b9a30c688e75.jpg\",\"img/0867/98d8cd96-1476-4fe0-a3a3-04f875500a1b.jpg\"]","trial_type":"similarity","trial_index":138,"time_elapsed":1664203,"internal_node_id":"0.0-6.0-132.0"},{"sim_score":5,"rt":5469,"stimulus":"[\"img/0901/bc47e078-bda4-40ed-b89a-bbd819164b95.jpg\",\"img/0860/b03b963d-949b-4d8d-b19c-4950c89eeca2.jpg\"]","trial_type":"similarity","trial_index":139,"time_elapsed":1670679,"internal_node_id":"0.0-6.0-133.0"},{"sim_score":7,"rt":3936,"stimulus":"[\"img/0881/20af39f5-373d-4a55-a437-2dc4c0382c46.jpg\",\"img/0766/ba35c0fc-4d5b-490d-959e-c94b279cdd02.jpg\"]","trial_type":"similarity","trial_index":140,"time_elapsed":1675621,"internal_node_id":"0.0-6.0-134.0"},{"sim_score":5,"rt":6308,"stimulus":"[\"img/0903/8931c67c-a43d-47d3-a4c9-42aa2f81d344.jpg\",\"img/0864/8ddd2e30-a1d0-479f-9cbe-591213023893.jpg\"]","trial_type":"similarity","trial_index":141,"time_elapsed":1682935,"internal_node_id":"0.0-6.0-135.0"},{"sim_score":7,"rt":4626,"stimulus":"[\"img/0758/3ddd05d3-557e-4ee7-8b78-9d2d681d8ae2.jpg\",\"img/0894/1b3888e6-cf36-4c4a-a039-187aa5cb71ac.jpg\"]","trial_type":"similarity","trial_index":142,"time_elapsed":1688566,"internal_node_id":"0.0-6.0-136.0"},{"sim_score":2,"rt":5087,"stimulus":"[\"img/0769/c7cfacc3-7f07-46ff-9f5d-8073f4c4679b.jpg\",\"img/0860/31ff6436-98bf-4652-bed2-40f627229568.jpg\"]","trial_type":"similarity","trial_index":143,"time_elapsed":1694660,"internal_node_id":"0.0-6.0-137.0"},{"sim_score":4,"rt":6686,"stimulus":"[\"img/0904/da170c1b-9651-4f08-b231-2bdd1d9a046f.jpg\",\"img/0766/f3276cc4-65de-4c2d-88d5-6cfebce14b8f.jpg\"]","trial_type":"similarity","trial_index":144,"time_elapsed":1702352,"internal_node_id":"0.0-6.0-138.0"},{"sim_score":1,"rt":4956,"stimulus":"[\"img/0868/c8ac40c7-6904-4e13-8d61-c75d3052dc4e.jpg\",\"img/0860/5bff793e-cbd5-4d7e-b628-0ac2b0e30b64.jpg\"]","trial_type":"similarity","trial_index":145,"time_elapsed":1708318,"internal_node_id":"0.0-6.0-139.0"},{"sim_score":6,"rt":5767,"stimulus":"[\"img/0758/65d426d6-3ff6-415d-8654-a43b83ecc4fe.jpg\",\"img/0864/efcfbb1b-8197-44c9-b723-40d6c608dd3c.jpg\"]","trial_type":"similarity","trial_index":146,"time_elapsed":1715091,"internal_node_id":"0.0-6.0-140.0"},{"sim_score":6,"rt":3866,"stimulus":"[\"img/0867/1719a35d-f085-48c0-9099-16c94fe418b4.jpg\",\"img/0867/a498eef3-9fa4-4ab2-9778-4ae82ac40dc5.jpg\"]","trial_type":"similarity","trial_index":147,"time_elapsed":1719965,"internal_node_id":"0.0-6.0-141.0"},{"sim_score":7,"rt":4230,"stimulus":"[\"img/0898/01bfe666-3510-4fc7-964f-d00d28732dc8.jpg\",\"img/0898/c3cecf20-f7fd-45fa-97d0-dc0a63e8d6c0.jpg\"]","trial_type":"similarity","trial_index":148,"time_elapsed":1725206,"internal_node_id":"0.0-6.0-142.0"},{"sim_score":5,"rt":3690,"stimulus":"[\"img/0866/a15b02be-11bb-43e3-b0e0-ecc3bd7dfc49.jpg\",\"img/0769/3adfa417-3b90-4aab-b437-5eaa474189cb.jpg\"]","trial_type":"similarity","trial_index":149,"time_elapsed":1729904,"internal_node_id":"0.0-6.0-143.0"},{"sim_score":3,"rt":4778,"stimulus":"[\"img/0860/61fb959d-d4d9-4de4-9e4e-4fa62b4cfcd5.jpg\",\"img/0898/68476bbb-34a1-42d9-8bc1-deab783d4489.jpg\"]","trial_type":"similarity","trial_index":150,"time_elapsed":1735690,"internal_node_id":"0.0-6.0-144.0"},{"sim_score":5,"rt":4847,"stimulus":"[\"img/0766/26d3ae14-8275-4e08-99b2-a6598c193ddf.jpg\",\"img/0864/87c467d3-abca-482f-ad80-3766c21b1bb3.jpg\"]","trial_type":"similarity","trial_index":151,"time_elapsed":1741543,"internal_node_id":"0.0-6.0-145.0"},{"sim_score":7,"rt":4203,"stimulus":"[\"img/0860/87039971-2210-4aab-93c0-8e9b5f1655b2.jpg\",\"img/0903/b4a0f61e-a964-4b79-a9a7-f767a8f92f34.jpg\"]","trial_type":"similarity","trial_index":152,"time_elapsed":1746753,"internal_node_id":"0.0-6.0-146.0"},{"sim_score":3,"rt":3962,"stimulus":"[\"img/0867/5e07b34d-b40f-4b1c-ac10-49975bace45f.jpg\",\"img/0764/e30dba15-e68a-4659-89db-e1654b52fe02.jpg\"]","trial_type":"similarity","trial_index":153,"time_elapsed":1751722,"internal_node_id":"0.0-6.0-147.0"},{"sim_score":6,"rt":4344,"stimulus":"[\"img/0769/76eaa4a3-dfe9-4dc1-9efb-caebe86264e1.jpg\",\"img/0904/b7c2a2c8-df33-4473-b3d4-ff7147c60db3.jpg\"]","trial_type":"similarity","trial_index":154,"time_elapsed":1757074,"internal_node_id":"0.0-6.0-148.0"},{"sim_score":2,"rt":4807,"stimulus":"[\"img/0764/ca957454-126a-4bd3-b29c-7174a24c25dc.jpg\",\"img/0901/12da1841-e611-435c-9719-109413d536a8.jpg\"]","trial_type":"similarity","trial_index":155,"time_elapsed":1762887,"internal_node_id":"0.0-6.0-149.0"},{"sim_score":3,"rt":4732,"stimulus":"[\"img/0904/65e2b70a-b184-4da3-b5c0-5038bdf9469a.jpg\",\"img/0899/93494f3b-d539-4075-b027-d82e344563da.jpg\"]","trial_type":"similarity","trial_index":156,"time_elapsed":1768625,"internal_node_id":"0.0-6.0-150.0"},{"sim_score":1,"rt":5113,"stimulus":"[\"img/0862/e697469a-ec19-4414-b972-7b9f3564785b.jpg\",\"img/0867/a749dddb-69f0-44a6-acdc-2bf295cf6dcc.jpg\"]","trial_type":"similarity","trial_index":157,"time_elapsed":1774744,"internal_node_id":"0.0-6.0-151.0"},{"sim_score":7,"rt":3852,"stimulus":"[\"img/0766/a0270213-fa0e-4972-8b56-228c3e01ff90.jpg\",\"img/0766/d8221e53-2300-4d99-ae1b-0bfb0eabe579.jpg\"]","trial_type":"similarity","trial_index":158,"time_elapsed":1779609,"internal_node_id":"0.0-6.0-152.0"},{"sim_score":2,"rt":3834,"stimulus":"[\"img/0862/4f0a3b4c-afbf-486e-b248-1d54982f54b4.jpg\",\"img/0894/0130a973-d993-41f8-874a-fee23d9ac11f.jpg\"]","trial_type":"similarity","trial_index":159,"time_elapsed":1784453,"internal_node_id":"0.0-6.0-153.0"},{"sim_score":2,"rt":7467,"stimulus":"[\"img/0899/9de5e857-aa9a-4e0c-8ba2-46d79bd069a4.jpg\",\"img/0901/548d1110-7cb8-42a2-9927-9798875c8b5c.jpg\"]","trial_type":"similarity","trial_index":160,"time_elapsed":1792927,"internal_node_id":"0.0-6.0-154.0"},{"sim_score":7,"rt":3875,"stimulus":"[\"img/0874/a82926a3-0b43-4add-803c-d5f9ea7798ee.jpg\",\"img/0874/1016b306-087c-4afc-aa08-fa527b28dc76.jpg\"]","trial_type":"similarity","trial_index":161,"time_elapsed":1797810,"internal_node_id":"0.0-6.0-155.0"},{"sim_score":2,"rt":3666,"stimulus":"[\"img/0860/99c589b9-9140-4d17-90c0-b344323edcda.jpg\",\"img/0867/12264664-1860-46df-8c21-162b9817cdda.jpg\"]","trial_type":"similarity","trial_index":162,"time_elapsed":1802481,"internal_node_id":"0.0-6.0-156.0"},{"sim_score":5,"rt":4251,"stimulus":"[\"img/0901/0f670aef-ac36-496d-8142-ee5fdb21dd82.jpg\",\"img/0881/f8bd891e-aa09-4782-89db-33e7cb2b0cf1.jpg\"]","trial_type":"similarity","trial_index":163,"time_elapsed":1807738,"internal_node_id":"0.0-6.0-157.0"},{"sim_score":5,"rt":6206,"stimulus":"[\"img/0903/71dbc325-b588-4297-a5cf-7f268a722ad9.jpg\",\"img/0902/aa6fca32-82b0-4414-b20a-8f6f8aa5a2d2.jpg\"]","trial_type":"similarity","trial_index":164,"time_elapsed":1814952,"internal_node_id":"0.0-6.0-158.0"},{"sim_score":3,"rt":5337,"stimulus":"[\"img/0860/c3379ff7-0763-48fe-a1ec-7ea3d611bc7a.jpg\",\"img/0764/c80b3e06-2ee3-4326-9678-340607eb5348.jpg\"]","trial_type":"similarity","trial_index":165,"time_elapsed":1821298,"internal_node_id":"0.0-6.0-159.0"},{"sim_score":4,"rt":7425,"stimulus":"[\"img/0902/b76efc44-a50f-4dac-b997-ff0222376067.jpg\",\"img/0875/2e13d160-eea1-416b-aff1-d37ab99ecc1d.jpg\"]","trial_type":"similarity","trial_index":166,"time_elapsed":1829733,"internal_node_id":"0.0-6.0-160.0"},{"sim_score":2,"rt":7620,"stimulus":"[\"img/0898/661621d4-a14e-487c-8c74-354134a29710.jpg\",\"img/0862/5d887e9f-89e2-4ebc-80a0-6d46fe6480db.jpg\"]","trial_type":"similarity","trial_index":167,"time_elapsed":1838362,"internal_node_id":"0.0-6.0-161.0"},{"sim_score":3,"rt":4536,"stimulus":"[\"img/0894/10f22b96-040c-44f4-950b-a4963f3f506c.jpg\",\"img/0875/99698b4d-b4a1-44bc-8c83-8ea755bbbf61.jpg\"]","trial_type":"similarity","trial_index":168,"time_elapsed":1843904,"internal_node_id":"0.0-6.0-162.0"},{"sim_score":1,"rt":3043,"stimulus":"[\"img/0866/be24ab58-230e-4db8-9f45-ff04c9aec6bb.jpg\",\"img/0864/3651d070-2fc5-4848-b6a6-088a2d9ac5c9.jpg\"]","trial_type":"similarity","trial_index":169,"time_elapsed":1847958,"internal_node_id":"0.0-6.0-163.0"},{"sim_score":4,"rt":3920,"stimulus":"[\"img/0766/00891401-e4c9-4ce1-bc19-f70740d174bc.jpg\",\"img/0862/57b6f83f-c763-4858-830d-102f97bfefbf.jpg\"]","trial_type":"similarity","trial_index":170,"time_elapsed":1852885,"internal_node_id":"0.0-6.0-164.0"},{"sim_score":6,"rt":7899,"stimulus":"[\"img/0866/620cd1aa-0800-4414-8f6e-90342e7a99ad.jpg\",\"img/0874/ca23d307-fc00-4d7d-9106-584c6eb21b4d.jpg\"]","trial_type":"similarity","trial_index":171,"time_elapsed":1861792,"internal_node_id":"0.0-6.0-165.0"},{"sim_score":6,"rt":5152,"stimulus":"[\"img/0862/e8cc3bdf-cc43-4565-bccf-492626c70953.jpg\",\"img/0860/9593362c-9fe5-4d12-9735-6000a11f6aa5.jpg\"]","trial_type":"similarity","trial_index":172,"time_elapsed":1867956,"internal_node_id":"0.0-6.0-166.0"},{"sim_score":2,"rt":5058,"stimulus":"[\"img/0766/d14acac4-7db1-4b07-8f8f-302437326fc0.jpg\",\"img/0901/da4fe30f-d12a-491e-96a2-5ab8ebaadd09.jpg\"]","trial_type":"similarity","trial_index":173,"time_elapsed":2010341,"internal_node_id":"0.0-6.0-167.0"},{"sim_score":7,"rt":3060,"stimulus":"[\"img/0862/24cdc752-c2e5-4a17-86a6-6f2045d8553b.jpg\",\"img/0862/cdaed51d-9e2f-4807-801a-4663c40077e2.jpg\"]","trial_type":"similarity","trial_index":174,"time_elapsed":2014407,"internal_node_id":"0.0-6.0-168.0"},{"sim_score":6,"rt":4835,"stimulus":"[\"img/0894/b2d2f66e-e480-46da-a02a-6d0c6b285d78.jpg\",\"img/0764/e42c1dc9-7831-4995-be19-7ca7b4d141fc.jpg\"]","trial_type":"similarity","trial_index":175,"time_elapsed":2020248,"internal_node_id":"0.0-6.0-169.0"},{"sim_score":2,"rt":4312,"stimulus":"[\"img/0874/c0378dac-9370-439a-8b79-db27c96fb390.jpg\",\"img/0898/0af304a2-6a7a-4082-ab7c-4450cd08cc58.jpg\"]","trial_type":"similarity","trial_index":176,"time_elapsed":2025566,"internal_node_id":"0.0-6.0-170.0"},{"sim_score":1,"rt":3456,"stimulus":"[\"img/0860/e14d67c1-6d92-4f1e-9257-c8607159c19c.jpg\",\"img/0766/c23b5a20-e50f-4d85-841f-cf89212a4348.jpg\"]","trial_type":"similarity","trial_index":177,"time_elapsed":2030027,"internal_node_id":"0.0-6.0-171.0"},{"sim_score":5,"rt":5039,"stimulus":"[\"img/0898/6cd3830b-d44e-4915-be2b-88d31424b91c.jpg\",\"img/0864/e02eddb5-f468-499c-91bf-f7be3ffe979b.jpg\"]","trial_type":"similarity","trial_index":178,"time_elapsed":2036074,"internal_node_id":"0.0-6.0-172.0"},{"sim_score":6,"rt":5130,"stimulus":"[\"img/0881/c24f3051-eefa-42de-aba6-fccb56d93c70.jpg\",\"img/0764/cbdc4f20-3a9a-4211-9b40-090699e0abcc.jpg\"]","trial_type":"similarity","trial_index":179,"time_elapsed":2042210,"internal_node_id":"0.0-6.0-173.0"},{"sim_score":1,"rt":5249,"stimulus":"[\"img/0898/4184e5a2-84ea-4f36-9b42-ae58646f6f87.jpg\",\"img/0868/d98ca254-b195-477f-b57e-5760a2717db8.jpg\"]","trial_type":"similarity","trial_index":180,"time_elapsed":2048466,"internal_node_id":"0.0-6.0-174.0"},{"sim_score":7,"rt":4478,"stimulus":"[\"img/0864/afcba0a3-7e27-4757-b254-e9f05fad27e2.jpg\",\"img/0864/0116ca98-293d-4fa6-a93b-5a6144ef64cc.jpg\"]","trial_type":"similarity","trial_index":181,"time_elapsed":2053951,"internal_node_id":"0.0-6.0-175.0"},{"sim_score":4,"rt":4970,"stimulus":"[\"img/0899/d8f2dd94-570e-4e8c-a087-d96090fb9e8c.jpg\",\"img/0862/1c20f772-3a51-4a80-aac0-f57dc9f86c28.jpg\"]","trial_type":"similarity","trial_index":182,"time_elapsed":2059929,"internal_node_id":"0.0-6.0-176.0"},{"sim_score":6,"rt":9871,"stimulus":"[\"img/0875/3ecb367d-e9eb-4826-8aaa-7aa72fb98019.jpg\",\"img/0758/e38fd80d-18d0-42f3-b848-f930788e8bd7.jpg\"]","trial_type":"similarity","trial_index":183,"time_elapsed":2070805,"internal_node_id":"0.0-6.0-177.0"},{"sim_score":3,"rt":5066,"stimulus":"[\"img/0866/d493a2c8-66eb-44b4-be02-2f327b700b7c.jpg\",\"img/0901/58978a6d-a3e2-4c59-8d62-f60693ecc0f6.jpg\"]","trial_type":"similarity","trial_index":184,"time_elapsed":2076879,"internal_node_id":"0.0-6.0-178.0"},{"sim_score":2,"rt":4887,"stimulus":"[\"img/0769/180213e5-1e50-4b4e-87b6-add77ba04d39.jpg\",\"img/0874/995f0332-0439-4eb4-add3-957335dbf6d9.jpg\"]","trial_type":"similarity","trial_index":185,"time_elapsed":2082772,"internal_node_id":"0.0-6.0-179.0"},{"sim_score":4,"rt":4657,"stimulus":"[\"img/0875/2c361b79-c3d1-4eda-812e-bf03192407bf.jpg\",\"img/0881/44e09805-5a25-4f17-a716-4ad4a331b174.jpg\"]","trial_type":"similarity","trial_index":186,"time_elapsed":2088437,"internal_node_id":"0.0-6.0-180.0"},{"sim_score":3,"rt":4916,"stimulus":"[\"img/0866/6f2a90d7-14f1-4f1b-bd64-fc0af6b9fe44.jpg\",\"img/0868/fd307a36-9a3a-47d7-ab7c-f810d0b35040.jpg\"]","trial_type":"similarity","trial_index":187,"time_elapsed":2094360,"internal_node_id":"0.0-6.0-181.0"},{"sim_score":6,"rt":4139,"stimulus":"[\"img/0899/4f7bc593-8ddd-4da3-a0b9-84da730d3370.jpg\",\"img/0758/d540bee6-b460-4c32-ac57-bc282742d7d4.jpg\"]","trial_type":"similarity","trial_index":188,"time_elapsed":2099507,"internal_node_id":"0.0-6.0-182.0"},{"sim_score":4,"rt":5086,"stimulus":"[\"img/0874/2c9464dd-8a23-4baa-ac94-1ba3af5c15cc.jpg\",\"img/0875/03c3c331-738b-4446-af92-3d7386b08c2e.jpg\"]","trial_type":"similarity","trial_index":189,"time_elapsed":2105599,"internal_node_id":"0.0-6.0-183.0"},{"sim_score":4,"rt":5142,"stimulus":"[\"img/0904/5cceabc9-de1d-4c67-989b-c28a4ef77e79.jpg\",\"img/0862/eefa5588-9efd-4591-aa5f-a2e17c7d7bcc.jpg\"]","trial_type":"similarity","trial_index":190,"time_elapsed":2111749,"internal_node_id":"0.0-6.0-184.0"},{"sim_score":4,"rt":6881,"stimulus":"[\"img/0902/d2c34af0-8c50-437d-8cc3-619195a3e8ba.jpg\",\"img/0766/b84598d0-5b41-4841-88b0-b441b48289f5.jpg\"]","trial_type":"similarity","trial_index":191,"time_elapsed":2119636,"internal_node_id":"0.0-6.0-185.0"},{"sim_score":3,"rt":5936,"stimulus":"[\"img/0758/caa93da2-9edf-49fa-96b9-32dedd8f5078.jpg\",\"img/0769/aad494cc-674d-4a08-9bfa-24a88ebe3c79.jpg\"]","trial_type":"similarity","trial_index":192,"time_elapsed":2126578,"internal_node_id":"0.0-6.0-186.0"},{"sim_score":6,"rt":3609,"stimulus":"[\"img/0881/ee44e27f-d662-4608-b265-e7ffa19b216f.jpg\",\"img/0881/7e31e5dc-2240-4b1b-b5a0-3acd980099ef.jpg\"]","trial_type":"similarity","trial_index":193,"time_elapsed":2131194,"internal_node_id":"0.0-6.0-187.0"},{"sim_score":1,"rt":4915,"stimulus":"[\"img/0758/7ffbc76b-1fc1-432c-8f7e-9ec8d1b3f643.jpg\",\"img/0866/d266fece-59b3-46fa-b69f-96f6efb81b59.jpg\"]","trial_type":"similarity","trial_index":194,"time_elapsed":2137116,"internal_node_id":"0.0-6.0-188.0"},{"sim_score":2,"rt":4678,"stimulus":"[\"img/0764/21e3292f-01ad-4238-828b-61b817857d16.jpg\",\"img/0898/ec565187-2e31-4fdd-9a5c-153d0c789ae0.jpg\"]","trial_type":"similarity","trial_index":195,"time_elapsed":2142799,"internal_node_id":"0.0-6.0-189.0"},{"sim_score":2,"rt":4354,"stimulus":"[\"img/0903/aa842abe-6fa3-448a-bf71-88d3ad28663b.jpg\",\"img/0901/a9b9c0a0-8aed-4888-a78a-65fb7e764d13.jpg\"]","trial_type":"similarity","trial_index":196,"time_elapsed":2148159,"internal_node_id":"0.0-6.0-190.0"},{"sim_score":6,"rt":5441,"stimulus":"[\"img/0902/af40b98b-3d23-4d95-b401-49ba5783ce39.jpg\",\"img/0898/a114b375-cb89-44ba-9498-74213f1ecdee.jpg\"]","trial_type":"similarity","trial_index":197,"time_elapsed":2154608,"internal_node_id":"0.0-6.0-191.0"},{"sim_score":1,"rt":4011,"stimulus":"[\"img/0864/e336a4c5-6648-4fd7-b2f6-93a3fb83f8c6.jpg\",\"img/0901/71e551a2-9ce2-409c-9c7c-dd556a0791e9.jpg\"]","trial_type":"similarity","trial_index":198,"time_elapsed":2159625,"internal_node_id":"0.0-6.0-192.0"},{"sim_score":6,"rt":4283,"stimulus":"[\"img/0894/6aa5545f-fa7d-4286-bbaa-aaf34dc7ec96.jpg\",\"img/0881/609a5e93-38b5-4940-8627-2bf8fad7f802.jpg\"]","trial_type":"similarity","trial_index":199,"time_elapsed":2164917,"internal_node_id":"0.0-6.0-193.0"},{"sim_score":7,"rt":5015,"stimulus":"[\"img/0868/e0aff734-077f-40dd-9781-74821abd3621.jpg\",\"img/0868/5fa7f9d0-f0e5-454c-8224-74d964818f56.jpg\"]","trial_type":"similarity","trial_index":200,"time_elapsed":2170940,"internal_node_id":"0.0-6.0-194.0"},{"sim_score":6,"rt":4619,"stimulus":"[\"img/0899/0e1d936a-dbe2-4afc-9f19-7b7a1ae6c9ed.jpg\",\"img/0764/ba0c0955-acbb-457d-b1c2-f006b88121d5.jpg\"]","trial_type":"similarity","trial_index":201,"time_elapsed":2176568,"internal_node_id":"0.0-6.0-195.0"},{"sim_score":2,"rt":6267,"stimulus":"[\"img/0881/f037e3b0-09cb-4a83-b2d9-6a71fe474e63.jpg\",\"img/0904/09dac84f-3d1c-4445-a68e-d0389fdbf1e9.jpg\"]","trial_type":"similarity","trial_index":202,"time_elapsed":2183842,"internal_node_id":"0.0-6.0-196.0"},{"sim_score":6,"rt":4316,"stimulus":"[\"img/0864/c3b63e8f-ea39-4d70-a1f2-b3fe4be8eb75.jpg\",\"img/0902/07437a16-3d0f-4a5c-89ec-36d0efa4b3b8.jpg\"]","trial_type":"similarity","trial_index":203,"time_elapsed":2189164,"internal_node_id":"0.0-6.0-197.0"},{"sim_score":6,"rt":5280,"stimulus":"[\"img/0894/7fb082e0-ce79-485c-9109-04367fb32275.jpg\",\"img/0904/d23dd7be-7fe8-4435-82f7-bd592c01e6a1.jpg\"]","trial_type":"similarity","trial_index":204,"time_elapsed":2195450,"internal_node_id":"0.0-6.0-198.0"},{"sim_score":7,"rt":3108,"stimulus":"[\"img/0901/ae1e6ce4-2e10-4ca9-b1e7-21628637ab74.jpg\",\"img/0901/77087ed2-6e12-4329-b2a5-605bca6d972d.jpg\"]","trial_type":"similarity","trial_index":205,"time_elapsed":2199566,"internal_node_id":"0.0-6.0-199.0"},{"sim_score":6,"rt":4623,"stimulus":"[\"img/0894/a3d4170b-b7d8-40e3-955f-87e76ed745fc.jpg\",\"img/0860/8fdba999-b946-4c7d-9891-336018b563ef.jpg\"]","trial_type":"similarity","trial_index":206,"time_elapsed":2205194,"internal_node_id":"0.0-6.0-200.0"},{"sim_score":6,"rt":4439,"stimulus":"[\"img/0898/881e2a85-d5c2-49be-a0c6-8a6ce2c4af08.jpg\",\"img/0903/f10e9eb5-0c21-4a6a-944c-5f10a6d0fa4d.jpg\"]","trial_type":"similarity","trial_index":207,"time_elapsed":2210639,"internal_node_id":"0.0-6.0-201.0"},{"sim_score":2,"rt":4779,"stimulus":"[\"img/0864/3d4de670-b290-4285-9c3d-12a0e3af44e9.jpg\",\"img/0894/3664e04c-c6d3-4c9b-afb6-25d89974b174.jpg\"]","trial_type":"similarity","trial_index":208,"time_elapsed":2216425,"internal_node_id":"0.0-6.0-202.0"},{"sim_score":6,"rt":7039,"stimulus":"[\"img/0874/3f471690-9788-4d03-90c7-f615aecef149.jpg\",\"img/0860/94ef7afc-e0e6-4a15-98c6-0bfac82bc832.jpg\"]","trial_type":"similarity","trial_index":209,"time_elapsed":2224471,"internal_node_id":"0.0-6.0-203.0"},{"sim_score":1,"rt":5512,"stimulus":"[\"img/0862/064818ee-13d5-4618-bb24-21c7368ea278.jpg\",\"img/0875/34132396-d896-4c2d-8087-646dd867e769.jpg\"]","trial_type":"similarity","trial_index":210,"time_elapsed":2230989,"internal_node_id":"0.0-6.0-204.0"},{"sim_score":2,"rt":4271,"stimulus":"[\"img/0867/26611f4e-d694-4460-b7e2-43c62753ddc3.jpg\",\"img/0881/405484ae-0d00-4b05-bc57-6420a36adfac.jpg\"]","trial_type":"similarity","trial_index":211,"time_elapsed":2236268,"internal_node_id":"0.0-6.0-205.0"},{"sim_score":1,"rt":4601,"stimulus":"[\"img/0901/2a953e50-d237-405c-a38d-5ed21494c968.jpg\",\"img/0902/0db94c50-f1fb-4091-953c-29ca0466bee2.jpg\"]","trial_type":"similarity","trial_index":212,"time_elapsed":2241876,"internal_node_id":"0.0-6.0-206.0"},{"sim_score":7,"rt":4569,"stimulus":"[\"img/0899/ddf96ade-692e-4602-bd22-dedbb46401bc.jpg\",\"img/0864/ea327690-500b-4137-bf91-451b309fe6a5.jpg\"]","trial_type":"similarity","trial_index":213,"time_elapsed":2247457,"internal_node_id":"0.0-6.0-207.0"},{"sim_score":4,"rt":3927,"stimulus":"[\"img/0901/04a53755-6da5-44d4-a7a6-48a6bc0a2280.jpg\",\"img/0769/688d0c52-ad73-4065-a5eb-f8c10d076bff.jpg\"]","trial_type":"similarity","trial_index":214,"time_elapsed":2252391,"internal_node_id":"0.0-6.0-208.0"},{"sim_score":7,"rt":4013,"stimulus":"[\"img/0902/0c760cc9-10ac-429e-8957-a7d51fc99683.jpg\",\"img/0902/04a6ad4a-afc6-4871-8225-56b299af7b6b.jpg\"]","trial_type":"similarity","trial_index":215,"time_elapsed":2265680,"internal_node_id":"0.0-6.0-209.0"},{"view_history":"[{\"page_index\":0,\"viewing_time\":10238}]","rt":10239,"trial_type":"instructions","trial_index":216,"time_elapsed":2276923,"internal_node_id":"0.0-7.0"},{"rt":19002,"responses":"{\"Q0\":\"Yellow Warbler\"}","answer":["Nashville Warbler"],"trial_type":"image-multi-choice","trial_index":217,"time_elapsed":2296963,"internal_node_id":"0.0-8.0-0.0"},{"rt":10601,"responses":"{\"Q0\":\"White-crowned Sparrow\"}","answer":["Black-and-white Warbler"],"trial_type":"image-multi-choice","trial_index":218,"time_elapsed":2308586,"internal_node_id":"0.0-8.0-1.0"},{"rt":15220,"responses":"{\"Q0\":\"Fox Sparrow\"}","answer":["Townsend's Warbler"],"trial_type":"image-multi-choice","trial_index":219,"time_elapsed":2324831,"internal_node_id":"0.0-8.0-2.0"},{"rt":8297,"responses":"{\"Q0\":\"Chipping Sparrow\"}","answer":["Lark Sparrow"],"trial_type":"image-multi-choice","trial_index":220,"time_elapsed":2334146,"internal_node_id":"0.0-8.0-3.0"},{"rt":16439,"responses":"{\"Q0\":\"Blackburnian Warbler\"}","answer":["Yellow Warbler"],"trial_type":"image-multi-choice","trial_index":221,"time_elapsed":2351604,"internal_node_id":"0.0-8.0-4.0"},{"rt":51861,"responses":"{\"Q0\":\"Orange-crowned Warbler\"}","answer":["Orange-crowned Warbler"],"trial_type":"image-multi-choice","trial_index":222,"time_elapsed":2404488,"internal_node_id":"0.0-8.0-5.0"},{"rt":6402,"responses":"{\"Q0\":\"White-crowned Sparrow\"}","answer":["White-throated Sparrow"],"trial_type":"image-multi-choice","trial_index":223,"time_elapsed":2411920,"internal_node_id":"0.0-8.0-6.0"},{"rt":9344,"responses":"{\"Q0\":\"Lincoln's Sparrow\"}","answer":["Fox Sparrow"],"trial_type":"image-multi-choice","trial_index":224,"time_elapsed":2422284,"internal_node_id":"0.0-8.0-7.0"},{"rt":98714,"responses":"{\"Q0\":\"Lincoln's Sparrow\"}","answer":["Song Sparrow"],"trial_type":"image-multi-choice","trial_index":225,"time_elapsed":2522019,"internal_node_id":"0.0-8.0-8.0"},{"rt":4510,"responses":"{\"Q0\":\"Black-and-white Warbler\"}","answer":["Blackburnian Warbler"],"trial_type":"image-multi-choice","trial_index":226,"time_elapsed":2527550,"internal_node_id":"0.0-8.0-9.0"},{"rt":7180,"responses":"{\"Q0\":\"American Tree Sparrow\"}","answer":["Vesper Sparrow"],"trial_type":"image-multi-choice","trial_index":227,"time_elapsed":2535749,"internal_node_id":"0.0-8.0-10.0"},{"rt":10181,"responses":"{\"Q0\":\"Song Sparrow\"}","answer":["White-crowned Sparrow"],"trial_type":"image-multi-choice","trial_index":228,"time_elapsed":2546953,"internal_node_id":"0.0-8.0-11.0"},{"rt":12976,"responses":"{\"Q0\":\"White-throated Sparrow\"}","answer":["American Tree Sparrow"],"trial_type":"image-multi-choice","trial_index":229,"time_elapsed":2560956,"internal_node_id":"0.0-8.0-12.0"},{"rt":9867,"responses":"{\"Q0\":\"Nashville Warbler\"}","answer":["Tennessee Warbler"],"trial_type":"image-multi-choice","trial_index":230,"time_elapsed":2571847,"internal_node_id":"0.0-8.0-13.0"},{"rt":8263,"responses":"{\"Q0\":\"Black-and-white Warbler\"}","answer":["Magnolia Warbler"],"trial_type":"image-multi-choice","trial_index":231,"time_elapsed":2581131,"internal_node_id":"0.0-8.0-14.0"},{"rt":12614,"responses":"{\"Q0\":\"Swamp Sparrow\"}","answer":["Northern Waterthrush"],"trial_type":"image-multi-choice","trial_index":232,"time_elapsed":2594764,"internal_node_id":"0.0-8.0-15.0"},{"rt":118141,"responses":"{\"Q0\":\"Tennessee Warbler\"}","answer":["Chipping Sparrow"],"trial_type":"image-multi-choice","trial_index":233,"time_elapsed":2713929,"internal_node_id":"0.0-8.0-16.0"},{"rt":12385,"responses":"{\"Q0\":\"Fox Sparrow\"}","answer":["Swamp Sparrow"],"trial_type":"image-multi-choice","trial_index":234,"time_elapsed":2727337,"internal_node_id":"0.0-8.0-17.0"},{"rt":11139,"responses":"{\"Q0\":\"Lincoln's Sparrow\"}","answer":["Lincoln's Sparrow"],"trial_type":"image-multi-choice","trial_index":235,"time_elapsed":2739498,"internal_node_id":"0.0-8.0-18.0"},{"rt":54808,"responses":"{\"Q0\":\"Northern Waterthrush\"}","answer":["Ovenbird"],"trial_type":"image-multi-choice","trial_index":236,"time_elapsed":2795328,"internal_node_id":"0.0-8.0-19.0"}]