"view_history","rt","trial_type","trial_index","time_elapsed","internal_node_id","sim_score","stimulus","responses","answer"
"[{""page_index"":0,""viewing_time"":28378}]","28380","instructions","0","28382","0.0-0.0","","","",""
"","5567","similarity_demo","1","34972","0.0-1.0","2","[""img/866.jpg"",""img/868.jpg""]","",""
"[{""page_index"":0,""viewing_time"":19942}]","19943","instructions","2","55917","0.0-2.0","","","",""
"","5403","similarity_demo","3","62329","0.0-3.0","2","[""img/766.jpg"",""img/867.jpg""]","",""
"[{""page_index"":0,""viewing_time"":7242}]","7243","instructions","4","70574","0.0-4.0","","","",""
"[{""page_index"":0,""viewing_time"":18101}]","18102","instructions","5","89676","0.0-5.0","","","",""
"","5434","similarity","6","96122","0.0-6.0-0.0","5","[""img/0868/15dd6fd7-791e-4b53-b203-195d617521a4.jpg"",""img/0901/50e1d53e-a49f-4806-8610-be6dec5a2475.jpg""]","",""
"","4027","similarity","7","101157","0.0-6.0-1.0","3","[""img/0769/35364db7-e0d5-40ef-93dc-faf9dfb95136.jpg"",""img/0867/de92135f-5b65-4ed9-b245-188292c7c2f8.jpg""]","",""
"","3533","similarity","8","105700","0.0-6.0-2.0","2","[""img/0766/d5d38751-8fa5-476f-93e9-86ed2d9045ef.jpg"",""img/0898/224c1572-56b9-4f16-a9e4-6f3bc9c114bd.jpg""]","",""
"","4365","similarity","9","111076","0.0-6.0-3.0","3","[""img/0902/82d20e8c-2162-47a6-925b-52906558c046.jpg"",""img/0881/4da99fdd-1f40-4bbb-8e21-8833eef313f5.jpg""]","",""
"","4445","similarity","10","116531","0.0-6.0-4.0","6","[""img/0894/9b1333fd-3561-43bf-aee5-99b7b7ca3dc3.jpg"",""img/0894/767a0eec-1064-46b1-b1aa-dfa02b0cd74e.jpg""]","",""
"","5944","similarity","11","123482","0.0-6.0-5.0","3","[""img/0874/7e4f2150-3b59-4a36-b5da-a4e0ba410531.jpg"",""img/0899/a048912c-b12c-40e3-90af-46b69b0cc4fe.jpg""]","",""
"","4413","similarity","12","128903","0.0-6.0-6.0","3","[""img/0904/25365108-e038-4021-aac9-797f2063b337.jpg"",""img/0764/6ef77040-1fae-4afa-bfe7-eda98e6d0376.jpg""]","",""
"","4658","similarity","13","134568","0.0-6.0-7.0","2","[""img/0899/f58b8d2f-b19d-4b59-8b94-8834be92e4ba.jpg"",""img/0898/5f699581-3853-4547-856c-12f419ba5af7.jpg""]","",""
"","4895","similarity","14","140474","0.0-6.0-8.0","3","[""img/0874/a3bc679d-619f-4db6-bb68-116dcb757d9c.jpg"",""img/0903/6f343da5-00d9-4d50-89d1-2ed24cdb8319.jpg""]","",""
"","4557","similarity","15","146039","0.0-6.0-9.0","5","[""img/0881/d1982897-8d8d-4704-a940-1ee5d07a1f15.jpg"",""img/0758/f61ecdf8-a7d4-4db0-b84d-be46f7cfaffc.jpg""]","",""
"","5625","similarity","16","152671","0.0-6.0-10.0","4","[""img/0898/b2732712-71c2-45d8-834f-2b2ed5504910.jpg"",""img/0901/f1116359-1ff1-4638-b3b3-700918d36d18.jpg""]","",""
"","7315","similarity","17","160996","0.0-6.0-11.0","4","[""img/0903/680ed18e-b311-4ecf-9b00-7dea32128334.jpg"",""img/0769/965c3c44-d9e5-47c5-b61a-2bbdf4215d9a.jpg""]","",""
"","3507","similarity","18","165511","0.0-6.0-12.0","2","[""img/0764/06ea144f-f4f3-4a14-ba47-f20f35c561e0.jpg"",""img/0868/1a62b2b2-18f5-466e-b564-5176a57c565e.jpg""]","",""
"","4223","similarity","19","170742","0.0-6.0-13.0","3","[""img/0867/c71dc569-f49c-4397-8381-68b8d726736d.jpg"",""img/0903/8fcafe03-43df-4c45-9da5-0df3a1eeccc5.jpg""]","",""
"","3914","similarity","20","175663","0.0-6.0-14.0","2","[""img/0766/d50d734f-285c-4840-bc7a-c8dd4aff391e.jpg"",""img/0758/a085b443-b5d7-4cb2-9ad4-b9dab0fc23f1.jpg""]","",""
"","9662","similarity","21","186332","0.0-6.0-15.0","3","[""img/0902/30c420f5-c714-4681-ae5a-c0ba8f636a26.jpg"",""img/0860/8277806e-b684-4474-8f7b-3fca946d7d4f.jpg""]","",""
"","6361","similarity","22","193701","0.0-6.0-16.0","3","[""img/0769/ebef2ddc-ba59-4e0e-97f8-927864eb5081.jpg"",""img/0875/e7e66b13-b573-431e-b85e-288ce04a35a3.jpg""]","",""
"","4260","similarity","23","198971","0.0-6.0-17.0","3","[""img/0904/9b3568cc-3cf7-42be-9df3-fdafde7a58b8.jpg"",""img/0866/8efcaa46-83ab-4dee-a35f-850402aa21ae.jpg""]","",""
"","4010","similarity","24","203991","0.0-6.0-18.0","7","[""img/0875/5a7c4e35-6514-4e12-8879-d16071da4cd6.jpg"",""img/0875/5a1e5100-0d94-4fec-bbe9-ca9894d2cf8e.jpg""]","",""
"","4590","similarity","25","209592","0.0-6.0-19.0","6","[""img/0758/9fb5b2fe-3f00-4fe6-973c-1ce10d5f4cd5.jpg"",""img/0758/7fba58df-2a7a-4b76-8a8f-62739f97f271.jpg""]","",""
"","3638","similarity","26","214241","0.0-6.0-20.0","4","[""img/0902/7f1dcd35-237a-4995-9e42-7f63f3f434d4.jpg"",""img/0874/adf9a8f1-c40b-402b-b95b-1e85a54a7b62.jpg""]","",""
"","4600","similarity","27","219852","0.0-6.0-21.0","5","[""img/0764/5d83b9db-3b2b-4dc8-9bd1-2b515b19c858.jpg"",""img/0769/a1ce8d07-ba37-40de-bade-2778805521e0.jpg""]","",""
"","3095","similarity","28","223957","0.0-6.0-22.0","3","[""img/0901/5b97abf9-f0c8-4fd1-b921-36d574779078.jpg"",""img/0874/8cdb1c07-1c32-46d2-981c-3636560fa6e5.jpg""]","",""
"","3864","similarity","29","228833","0.0-6.0-23.0","6","[""img/0875/cff79b3a-a797-4393-9757-6275f999ec04.jpg"",""img/0903/0a92ec52-4e87-410a-857a-4455cde56a70.jpg""]","",""
"","3976","similarity","30","233815","0.0-6.0-24.0","3","[""img/0769/f229321f-04dd-42d7-b14a-ffad6b509862.jpg"",""img/0881/445edb15-bd7f-4af3-8bd5-c6ad9677bb31.jpg""]","",""
"","2735","similarity","31","237560","0.0-6.0-25.0","3","[""img/0867/50a1b60e-3a29-44bf-b606-d4bd3746fea9.jpg"",""img/0904/fe746a3f-8458-48d0-8a13-8cba2a9df9f8.jpg""]","",""
"","3097","similarity","32","241663","0.0-6.0-26.0","2","[""img/0860/e8b8c51e-1834-4875-8b61-6c5bc9b178bd.jpg"",""img/0881/633c6f40-56d9-4b48-bf1c-ecd83116eabb.jpg""]","",""
"","6065","similarity","33","248737","0.0-6.0-27.0","5","[""img/0866/23a224f3-2012-4fc8-8e0f-3c36f8de27fd.jpg"",""img/0866/02f5e6b9-52b7-448c-9708-5b460d0c9a23.jpg""]","",""
"","4015","similarity","34","253758","0.0-6.0-28.0","3","[""img/0764/d0bef2e0-e16b-4c82-9451-c1d16265eb67.jpg"",""img/0862/92fcd8a4-8193-4a6a-ae09-dd4a6338b0df.jpg""]","",""
"","4131","similarity","35","258898","0.0-6.0-29.0","3","[""img/0904/a8c3c7d2-9bcf-4347-9e03-8203adfc1fc5.jpg"",""img/0758/d41c06bf-ebaf-454b-91c6-1a17f917b659.jpg""]","",""
"","3357","similarity","36","263263","0.0-6.0-30.0","3","[""img/0894/11674fa4-285d-44e2-939f-2228c6a64080.jpg"",""img/0899/56a605c3-d0a2-4215-89e1-779279d85a7c.jpg""]","",""
"","5461","similarity","37","269731","0.0-6.0-31.0","5","[""img/0860/c47fdead-eb02-4989-b078-26f4852f44fe.jpg"",""img/0904/60d1a521-edf7-4696-9263-f21ac0e62a01.jpg""]","",""
"","6058","similarity","38","276796","0.0-6.0-32.0","5","[""img/0874/31e22c7c-99aa-40b1-bf03-dd73fa2df4d6.jpg"",""img/0881/54ea8e77-c7e5-4197-b7fa-00b7020849a7.jpg""]","",""
"","4495","similarity","39","282298","0.0-6.0-33.0","3","[""img/0881/adc02f34-ce97-4aef-850f-00519df06fd7.jpg"",""img/0899/fef567a2-c121-4481-9af0-ff108d199bbf.jpg""]","",""
"","4193","similarity","40","287497","0.0-6.0-34.0","2","[""img/0866/4a87911a-d5be-4d4e-ab8e-3d1f581bf507.jpg"",""img/0862/a0a3a7ba-7798-46a3-b4ca-05e1f6e581d0.jpg""]","",""
"","7123","similarity","41","295628","0.0-6.0-35.0","3","[""img/0868/0d3abd3a-b6c3-4584-a9f7-e2da63748b3d.jpg"",""img/0894/133a1636-d123-4893-873c-1718050f832a.jpg""]","",""
"","5974","similarity","42","302611","0.0-6.0-36.0","7","[""img/0860/15b24a61-25be-4356-9eac-5ce95d0cb4a4.jpg"",""img/0860/8a92e21b-6a32-4e4a-a445-2d5a487ed0a4.jpg""]","",""
"","5081","similarity","43","308701","0.0-6.0-37.0","5","[""img/0862/fad1d7c1-8187-43c3-942a-0fc12183e48e.jpg"",""img/0864/4bd81bc6-c13d-46df-95a9-485886dc7c1b.jpg""]","",""
"","3153","similarity","44","312860","0.0-6.0-38.0","2","[""img/0766/f011ef45-fb48-44b8-8224-867ed2ccf786.jpg"",""img/0866/bf14b5bd-fb55-47db-86b9-4f8aeb9a6dad.jpg""]","",""
"","5161","similarity","45","319029","0.0-6.0-39.0","3","[""img/0875/90da8d75-108a-44ad-b999-e21fee3860d3.jpg"",""img/0898/82231d4c-218b-4d0a-b50d-35a49b524e97.jpg""]","",""
"","4347","similarity","46","324380","0.0-6.0-40.0","7","[""img/0766/dd3e18d0-0c98-4d05-b850-69976ee8cd75.jpg"",""img/0769/9ea27d61-3d55-418c-8d14-82e90f656f01.jpg""]","",""
"","3170","similarity","47","468495","0.0-6.0-41.0","2","[""img/0874/29830da7-be5f-44e5-b141-652a0ccf7269.jpg"",""img/0764/5c8fbafc-e62e-43ed-9b37-f73e8e45147d.jpg""]","",""
"","3784","similarity","48","473288","0.0-6.0-42.0","2","[""img/0868/d6d1f30d-4323-435a-b194-7892521bc57e.jpg"",""img/0902/40d0b6ec-3907-4573-b227-e7d8e9cad1c3.jpg""]","",""
"","4084","similarity","49","478377","0.0-6.0-43.0","1","[""img/0875/8521fd58-3b1e-4dc5-97ae-804edfa6734a.jpg"",""img/0899/8de08897-b430-42fe-9d42-840670b80f94.jpg""]","",""
"","3489","similarity","50","482874","0.0-6.0-44.0","2","[""img/0866/c446214b-a368-4c65-ae39-ea46894256ab.jpg"",""img/0860/c7047cd2-7cc1-41b6-8a34-c0986774975f.jpg""]","",""
"","4198","similarity","51","488078","0.0-6.0-45.0","4","[""img/0766/ea09dd5a-d24d-4e97-a099-7da3db1baef1.jpg"",""img/0903/97a42b34-5462-4665-88c7-83c014b33d24.jpg""]","",""
"","3725","similarity","52","492811","0.0-6.0-46.0","5","[""img/0901/d6d15b1c-4a30-4f74-a3fd-d4c8ee4169ca.jpg"",""img/0904/ba8e689e-9ca6-4608-a2a1-3b0940666ae6.jpg""]","",""
"","4025","similarity","53","497846","0.0-6.0-47.0","2","[""img/0758/2fa3e613-e676-4e6e-bd12-705327eeb3e1.jpg"",""img/0902/511abb54-0094-4f4d-b6dc-3f2c97050521.jpg""]","",""
"","3443","similarity","54","502300","0.0-6.0-48.0","6","[""img/0764/4952d0a0-c9be-471a-8ec7-94a37bf4051d.jpg"",""img/0764/56441045-b648-4ede-9632-3e9c0227080b.jpg""]","",""
"","3960","similarity","55","507268","0.0-6.0-49.0","1","[""img/0866/945c6710-d15b-4a5b-a8f6-69af0850357f.jpg"",""img/0902/1f4a4c62-68c1-4993-b213-05652a173ed1.jpg""]","",""
"","5109","similarity","56","513383","0.0-6.0-50.0","3","[""img/0764/e0788029-9d7f-414c-b747-46d2a99f7c86.jpg"",""img/0758/61d64021-9214-4951-bdf8-f871f9827cf9.jpg""]","",""
"","4292","similarity","57","518682","0.0-6.0-51.0","3","[""img/0898/40f99fb2-64d2-4e72-8a7f-a1cf60741e69.jpg"",""img/0894/492d2f29-d7b9-4422-8be8-47fd58bfaa8b.jpg""]","",""
"","4138","similarity","58","523828","0.0-6.0-52.0","5","[""img/0875/ebf7653f-ff45-4e9f-af58-2c042ab3cd2b.jpg"",""img/0866/11a1d141-be5e-443c-98c1-a9d4d9e3dec0.jpg""]","",""
"","4139","similarity","59","528973","0.0-6.0-53.0","7","[""img/0904/e9423a8c-f946-43ad-ab7b-931acef870e2.jpg"",""img/0904/9d30eff1-46ef-4453-b11e-124ef8145c00.jpg""]","",""
"","5828","similarity","60","535807","0.0-6.0-54.0","6","[""img/0769/14d393ce-e5be-4ca1-86ce-cc27d4b6074c.jpg"",""img/0769/1ca58b80-2365-446d-9616-6c1719e6c46f.jpg""]","",""
"","6788","similarity","61","543604","0.0-6.0-55.0","1","[""img/0898/e167334e-cc1d-4986-b3b1-c7bc7da64baa.jpg"",""img/0758/ddc336e9-a8b6-4bb9-937a-c7e25e0e9250.jpg""]","",""
"","5524","similarity","62","550141","0.0-6.0-56.0","6","[""img/0769/7c50e5f5-cc38-4d48-b009-fbe17bcea61c.jpg"",""img/0902/1a120fb9-dbd6-443e-ba91-b4aceab963da.jpg""]","",""
"","4217","similarity","63","555366","0.0-6.0-57.0","7","[""img/0864/66091c27-e588-4476-8af9-265dc6be4156.jpg"",""img/0881/292e9b4b-fca0-4ba8-87f1-4048f9e37b7d.jpg""]","",""
"","4986","similarity","64","561357","0.0-6.0-58.0","1","[""img/0758/821c68d3-5cb0-4eae-8659-30e6263fca39.jpg"",""img/0868/293079b8-7e0c-4afd-a390-1e5d35fe3ded.jpg""]","",""
"","4029","similarity","65","566393","0.0-6.0-59.0","2","[""img/0862/92f0146c-20c4-482e-aef5-adb693790338.jpg"",""img/0769/47700831-0ca2-4fdd-a498-a3bc5a528f43.jpg""]","",""
"","4886","similarity","66","572286","0.0-6.0-60.0","4","[""img/0764/713cc27e-2338-4486-bfe9-5f5725fbd7a0.jpg"",""img/0903/776b74ee-a8ab-4ab8-a78d-097c0747538d.jpg""]","",""
"","3887","similarity","67","577178","0.0-6.0-61.0","7","[""img/0899/4408c14d-c168-4a7d-96f6-bc87bfb58f83.jpg"",""img/0899/b45c550b-96c3-4255-ad59-48a2b4db1c1e.jpg""]","",""
"","5362","similarity","68","583550","0.0-6.0-62.0","6","[""img/0860/fd4662f9-4c03-4d79-8593-06735e55a64b.jpg"",""img/0875/f87b67d7-c33e-40d1-b281-248c4be1cb6e.jpg""]","",""
"","4672","similarity","69","589228","0.0-6.0-63.0","2","[""img/0868/3a62db2d-97e9-44a3-b8e3-a48c6f0e423b.jpg"",""img/0874/767f289c-9814-4496-803f-745cc8913d1f.jpg""]","",""
"","5718","similarity","70","595955","0.0-6.0-64.0","2","[""img/0758/20497cbe-ddae-489e-86e2-ab06985ed07c.jpg"",""img/0862/847e5208-38ec-4f36-949c-296cdd7424ee.jpg""]","",""
"","3865","similarity","71","600827","0.0-6.0-65.0","5","[""img/0904/56e73f28-7e64-489b-a161-e6b1a063878d.jpg"",""img/0898/04e39a7a-fcf6-4156-ab0e-f5871f335e1c.jpg""]","",""
"","5555","similarity","72","607389","0.0-6.0-66.0","3","[""img/0881/62a64f90-7a72-4aee-a1a1-0c548ac9bdda.jpg"",""img/0866/0207e9a2-7dbb-40b5-9459-b472aaeceb2a.jpg""]","",""
"","5754","similarity","73","614150","0.0-6.0-67.0","1","[""img/0867/aa05d113-fc19-4756-a8eb-7878f580bc92.jpg"",""img/0898/08c72dac-f8ad-407a-9ce6-8c9a5d679c3a.jpg""]","",""
"","4408","similarity","74","619567","0.0-6.0-68.0","7","[""img/0902/62f11694-7ed7-4cb7-8a73-9e95c43824e7.jpg"",""img/0764/50f1b062-d608-4bc0-ab25-b872dcf2ed93.jpg""]","",""
"","4928","similarity","75","625503","0.0-6.0-69.0","3","[""img/0875/dbdd643e-6d0e-4a5c-ab57-b9c29b9c981a.jpg"",""img/0867/cc72ed48-7704-422c-86d6-467a1145287a.jpg""]","",""
"","5246","similarity","76","631755","0.0-6.0-70.0","6","[""img/0766/f5f78e4e-d88f-4866-951a-118ba9fec4d0.jpg"",""img/0764/17b088f8-3053-4140-b544-d15654cc79ef.jpg""]","",""
"","6361","similarity","77","639122","0.0-6.0-71.0","2","[""img/0894/38f5931f-926d-414e-b498-66b188978b7a.jpg"",""img/0867/2e1a0b58-cdb1-4107-a14e-452530d7b9b0.jpg""]","",""
"","5904","similarity","78","646035","0.0-6.0-72.0","5","[""img/0875/a4935837-7d3c-4df6-88c1-36a94d4991ca.jpg"",""img/0764/c01e2d65-6586-441b-bef5-3c96fcd85380.jpg""]","",""
"","6259","similarity","79","653299","0.0-6.0-73.0","7","[""img/0867/f8159067-056c-41f1-a136-c529fe5e970a.jpg"",""img/0866/9b38d691-1802-4959-ab3f-fc902f0e4ea6.jpg""]","",""
"","5637","similarity","80","659944","0.0-6.0-74.0","1","[""img/0903/d987e220-f3e6-4b6d-a270-fe6757041f6d.jpg"",""img/0758/67c0be2f-9e91-48b3-8219-70ac0a1802fa.jpg""]","",""
"","6662","similarity","81","667612","0.0-6.0-75.0","2","[""img/0766/ae0fce93-fe8d-4aa1-87ca-4c3e4b889f2f.jpg"",""img/0868/8b0b8473-e2c0-4331-aa56-c3a5c29369da.jpg""]","",""
"","4011","similarity","82","672632","0.0-6.0-76.0","5","[""img/0874/99f6563c-8a8d-4c1c-a41d-667b618c3fd5.jpg"",""img/0766/908bc45b-7c9e-4f95-806e-86b196ebcb2c.jpg""]","",""
"","3442","similarity","83","677080","0.0-6.0-77.0","1","[""img/0881/344de456-b358-4887-bd0e-e4c3278af887.jpg"",""img/0868/6a28c3b0-3d76-498a-9fb7-ddafc665eca8.jpg""]","",""
"","6316","similarity","84","684409","0.0-6.0-78.0","6","[""img/0758/a709631e-3705-4725-ac40-f0d916924f08.jpg"",""img/0901/08d6d1d1-c043-43c4-bb08-d45e062822b9.jpg""]","",""
"","4986","similarity","85","690403","0.0-6.0-79.0","6","[""img/0881/19e82c47-8e4b-45d2-a6c8-74181eb4155e.jpg"",""img/0898/a8f16b02-e19f-423b-86c3-a36562ae1f9b.jpg""]","",""
"","3598","similarity","86","695011","0.0-6.0-80.0","1","[""img/0867/8ba0c5a7-c7e4-42cf-a80a-543763b90779.jpg"",""img/0758/6cd8c362-ae2a-41eb-80a3-3a4f7ace1530.jpg""]","",""
"","6974","similarity","87","702993","0.0-6.0-81.0","6","[""img/0769/50985283-d353-4abc-9abe-14a91d56ebe6.jpg"",""img/0899/0433d056-aa30-4f8a-9aa1-abbb951e4edd.jpg""]","",""
"","4028","similarity","88","708028","0.0-6.0-82.0","7","[""img/0903/6a87dbad-9b8d-4ff5-9c41-03c9aa24f0c3.jpg"",""img/0903/72197c2b-403e-4a26-b391-f1aa8dea4b76.jpg""]","",""
"","4130","similarity","89","855368","0.0-6.0-83.0","2","[""img/0867/bf560d4f-dee3-4f11-a385-705cc1aa5f3c.jpg"",""img/0766/ef3b15ce-abb7-4292-ad93-aec8e8b50520.jpg""]","",""
"","5985","similarity","90","862362","0.0-6.0-84.0","1","[""img/0902/4e0baa32-988e-46f6-989d-f669225ab645.jpg"",""img/0867/f8488a47-94ee-4166-952c-44e16cf172f6.jpg""]","",""
"","4265","similarity","91","867634","0.0-6.0-85.0","2","[""img/0901/f469cb1d-6d81-4a45-bab5-cd0b650c2b4f.jpg"",""img/0875/fb732ab5-013a-4366-9f65-27811ed157e9.jpg""]","",""
"","2941","similarity","92","871582","0.0-6.0-86.0","5","[""img/0764/5d6fa3ce-9083-410c-bbdb-336a49b94cfc.jpg"",""img/0866/f756f7d1-9ad8-4a34-9ef6-7a443d705bfe.jpg""]","",""
"","4580","similarity","93","877168","0.0-6.0-87.0","3","[""img/0901/c6c877e0-dd63-4e00-9657-33af29d55aab.jpg"",""img/0894/2d2db7b3-e8a3-499b-b63a-14f51bf73882.jpg""]","",""
"","3355","similarity","94","881532","0.0-6.0-88.0","6","[""img/0898/cd3aaa3f-efa9-4ab3-8d6f-a6a9273ddf42.jpg"",""img/0769/bb8c4e53-6f32-4814-97ee-392d4decfb2e.jpg""]","",""
"","6146","similarity","95","888685","0.0-6.0-89.0","6","[""img/0769/387a9744-d6a7-42b8-bab8-33007ec434aa.jpg"",""img/0894/05161000-f476-499b-a878-c13c7f347fd9.jpg""]","",""
"","3093","similarity","96","892787","0.0-6.0-90.0","5","[""img/0862/f43ceabf-acc1-4107-b857-5d1849808f93.jpg"",""img/0874/ca76a855-4e77-4f2f-872a-0a718153e7ed.jpg""]","",""
"","4048","similarity","97","897843","0.0-6.0-91.0","6","[""img/0894/e5edf723-72a5-4673-8441-6c1734a8929b.jpg"",""img/0766/d512b99c-a2dc-40d7-8e86-827323a0cbcf.jpg""]","",""
"","6308","similarity","98","905158","0.0-6.0-92.0","3","[""img/0874/85eb9b8a-c4c6-4e5a-b8e7-363a87a82054.jpg"",""img/0867/6e19c858-b606-45b2-a4c6-910a73f1d82c.jpg""]","",""
"","3818","similarity","99","909984","0.0-6.0-93.0","1","[""img/0899/00715b3f-851b-420b-a26b-d7f79f7759a9.jpg"",""img/0868/4bd5105a-d2c3-4f82-8c80-57196106ba53.jpg""]","",""
"","5748","similarity","100","916741","0.0-6.0-94.0","5","[""img/0903/14f179a2-8786-48a2-8377-88d1d404341b.jpg"",""img/0862/f188d4f0-76a4-4102-818c-a209969d73a5.jpg""]","",""
"","4950","similarity","101","922698","0.0-6.0-95.0","6","[""img/0899/ad8268c5-8199-48d0-ad70-c5b6d6c599ec.jpg"",""img/0766/110832e5-2646-4bd0-a94e-5df8cc314269.jpg""]","",""
"","12004","similarity","102","935707","0.0-6.0-96.0","4","[""img/0867/7d1c497b-c1b3-4ed8-abb5-d7f73306015f.jpg"",""img/0868/4e626425-63c8-484a-8a1d-e66ee4e0bef8.jpg""]","",""
"","3002","similarity","103","939716","0.0-6.0-97.0","4","[""img/0862/99a99e39-8355-44ec-b993-e7bcec111e1c.jpg"",""img/0901/b13fa50f-dbe0-4d0f-8647-6ac0fd8f40bd.jpg""]","",""
"","3624","similarity","104","944346","0.0-6.0-98.0","3","[""img/0875/5a716432-c6ca-4b1c-955a-2b8ac25198ee.jpg"",""img/0766/6d32752d-aa05-40dc-9541-640b6e9d6fa1.jpg""]","",""
"","4033","similarity","105","949391","0.0-6.0-99.0","3","[""img/0758/eabcd7a8-56ad-4fd2-bc24-90f6b7b33265.jpg"",""img/0874/eba003b4-cdab-4eee-8bc3-f064c7d94165.jpg""]","",""
"","5474","similarity","106","955875","0.0-6.0-100.0","3","[""img/0904/b5855d6a-7ef9-46ca-9215-6e9fa046e543.jpg"",""img/0868/179a5502-ab5c-478e-8263-5a1fbcc101d2.jpg""]","",""
"","3978","similarity","107","960858","0.0-6.0-101.0","2","[""img/0903/ea75f240-fb62-4edb-a709-83e858b202c0.jpg"",""img/0866/386235d2-6857-41e7-88a8-25cfc3430025.jpg""]","",""
"","5107","similarity","108","966973","0.0-6.0-102.0","4","[""img/0868/77091fc7-a590-4ebb-b915-fdb2483a2399.jpg"",""img/0769/b664b502-a86c-46c1-ad6f-5ebffc2e1bd3.jpg""]","",""
"","4188","similarity","109","972172","0.0-6.0-103.0","4","[""img/0902/962f645e-9b55-4628-9b50-c703422bfe1a.jpg"",""img/0899/7b7380d5-d2be-44e5-a09a-c1756f87ef71.jpg""]","",""
"","4214","similarity","110","977393","0.0-6.0-104.0","2","[""img/0868/4a8a45ed-2c4f-421b-9564-409a33ecd26c.jpg"",""img/0862/ad593cc7-cabe-4bb7-8e14-8a447a0717b4.jpg""]","",""
"","4013","similarity","111","982414","0.0-6.0-105.0","3","[""img/0903/9b60ef5b-234f-4239-892b-3d4c412accc2.jpg"",""img/0894/43216a7f-27bc-4b5a-8841-d122a30da9d9.jpg""]","",""
"","4243","similarity","112","987667","0.0-6.0-106.0","7","[""img/0864/300bb811-8b3c-4c42-8653-6097c3725197.jpg"",""img/0874/bf14b896-e930-4fd9-9c05-2e83317a2773.jpg""]","",""
"","3705","similarity","113","992378","0.0-6.0-107.0","4","[""img/0862/47ed5efd-4ec9-4b74-bb4e-a5f5cf0c3e7d.jpg"",""img/0902/24d10fe7-314f-4d5a-8c7b-b43121bba0a4.jpg""]","",""
"","6503","similarity","114","999888","0.0-6.0-108.0","7","[""img/0904/63dd06dd-dccb-47ba-9740-eb33239e18a7.jpg"",""img/0903/bf0a7d60-eca5-44b0-bafd-baf21db9904b.jpg""]","",""
"","4341","similarity","115","1005236","0.0-6.0-109.0","6","[""img/0764/f64dfa83-333d-494c-87b5-73e942f1766e.jpg"",""img/0864/6f631579-acf1-415c-a42c-1207f62a8d99.jpg""]","",""
"","5394","similarity","116","1011636","0.0-6.0-110.0","4","[""img/0866/a04d37f0-99dd-478a-b6c6-58b215138f84.jpg"",""img/0894/e6385e52-6c35-43bd-b0af-bc803d107b11.jpg""]","",""
"","4281","similarity","117","1016924","0.0-6.0-111.0","2","[""img/0899/f95cbdb4-f804-4f5d-ad76-373ad343e658.jpg"",""img/0903/47e39de8-6959-469f-8be9-6999a6db207c.jpg""]","",""
"","5372","similarity","118","1023302","0.0-6.0-112.0","4","[""img/0902/2db723b6-130f-454c-8c8d-88829edbcd65.jpg"",""img/0904/4d7d70a3-9477-4921-bda0-f9531d0a5c5b.jpg""]","",""
"","5567","similarity","119","1029875","0.0-6.0-113.0","4","[""img/0864/65210d57-1153-4657-886a-32e758f49b4a.jpg"",""img/0860/4a022222-056d-461c-ab02-39fac9647552.jpg""]","",""
"","4760","similarity","120","1035642","0.0-6.0-114.0","2","[""img/0860/4f695df5-afac-4da7-9875-fee39b0b24ad.jpg"",""img/0899/06b0fc99-0581-461a-9913-d1a5a941ac61.jpg""]","",""
"","4509","similarity","121","1041157","0.0-6.0-115.0","3","[""img/0881/e6746727-7f89-47ec-b939-d98abe78372d.jpg"",""img/0903/f1fa0f8d-e62b-4b4a-a174-31a0fabfe61b.jpg""]","",""
"","4354","similarity","122","1046518","0.0-6.0-116.0","4","[""img/0894/76c1201f-8524-4865-85e6-dda8cb4ac986.jpg"",""img/0874/3ce41e7c-40c8-4d58-a546-171114521796.jpg""]","",""
"","10124","similarity","123","1057650","0.0-6.0-117.0","3","[""img/0881/f4e3e181-b3c9-4af2-a5a4-fc135ab70d2e.jpg"",""img/0862/de9ad88c-b522-430a-8ee9-eb06a9f85df5.jpg""]","",""
"","7634","similarity","124","1066291","0.0-6.0-118.0","2","[""img/0868/7b212364-ff5f-4e28-9241-7eb6ea00161b.jpg"",""img/0875/527ced51-8e53-4aab-ab05-86df219104c0.jpg""]","",""
"","5658","similarity","125","1072957","0.0-6.0-119.0","4","[""img/0860/702bd09d-df3a-40aa-a267-5f04474305b5.jpg"",""img/0758/6e95579b-5166-487c-b8cb-e417c6a218e3.jpg""]","",""
"","4229","similarity","126","1078193","0.0-6.0-120.0","6","[""img/0864/a248adb3-c70b-4652-b7a3-776d2a1e904b.jpg"",""img/0875/d59ff733-eaff-4ee2-9443-06954dd0bcb6.jpg""]","",""
"","5150","similarity","127","1084351","0.0-6.0-121.0","3","[""img/0898/8605a25b-6895-476d-8c13-df7a83f96093.jpg"",""img/0866/93a27239-8317-4e08-98ca-d8b1ff298e07.jpg""]","",""
"","5794","similarity","128","1091153","0.0-6.0-122.0","5","[""img/0874/93d1f8dc-acf2-4f03-bd8d-8ec35df276ed.jpg"",""img/0904/73920552-103b-4c9c-9ece-e0b8376b4504.jpg""]","",""
"","3266","similarity","129","1095425","0.0-6.0-123.0","5","[""img/0904/6291eb43-c10c-4810-a36a-101d09868b04.jpg"",""img/0864/5f33e097-23e3-4002-882d-76e8cb15f451.jpg""]","",""
"","2892","similarity","130","1099326","0.0-6.0-124.0","4","[""img/0894/661b9f9f-4bde-487a-b1ed-87085fde6948.jpg"",""img/0902/b56db912-c3c0-4fc2-b325-d640acd7cb58.jpg""]","",""
"","4820","similarity","131","1625918","0.0-6.0-125.0","1","[""img/0868/09a9ef4d-d000-4cfa-a6aa-ebec7c2edeb4.jpg"",""img/0864/6e846d43-94a6-4b37-a268-65eda979f052.jpg""]","",""
"","3929","similarity","132","1630854","0.0-6.0-126.0","4","[""img/0899/fd9efb43-701f-4cd6-baaa-4c38315f4bdc.jpg"",""img/0866/07c9c966-3c8d-40e7-8128-92b2acbaed5d.jpg""]","",""
"","6182","similarity","133","1638043","0.0-6.0-127.0","3","[""img/0875/42910c99-5463-450a-a0f8-d4d060a11455.jpg"",""img/0904/1d10df11-b5c8-4370-9a6b-097a7f965895.jpg""]","",""
"","4230","similarity","134","1643280","0.0-6.0-128.0","2","[""img/0867/db7e032f-162b-46f5-ae67-2b29679adee4.jpg"",""img/0899/0adc0bc3-6fca-4078-be6f-d45ddf1653d5.jpg""]","",""
"","4606","similarity","135","1648899","0.0-6.0-129.0","2","[""img/0901/a373612d-67e2-4fec-9764-21d3d6ef6359.jpg"",""img/0867/075e0f95-856b-4cbb-acf5-092393aaf04e.jpg""]","",""
"","3525","similarity","136","1653435","0.0-6.0-130.0","6","[""img/0864/49150900-7f25-4ce8-8d10-9b47a71d1997.jpg"",""img/0769/8c7cf147-1780-4d5c-8ddf-5ea23ff03ac9.jpg""]","",""
"","3639","similarity","137","1658081","0.0-6.0-131.0","6","[""img/0903/8f7f9939-b8e6-433f-93dd-b362496c80a7.jpg"",""img/0868/83b4350a-3b70-4cea-b7f5-b5b56f3050a8.jpg""]","",""
"","5115","similarity","138","1664203","0.0-6.0-132.0","1","[""img/0864/c22faebd-9c53-47bc-ada3-b9a30c688e75.jpg"",""img/0867/98d8cd96-1476-4fe0-a3a3-04f875500a1b.jpg""]","",""
"","5469","similarity","139","1670679","0.0-6.0-133.0","5","[""img/0901/bc47e078-bda4-40ed-b89a-bbd819164b95.jpg"",""img/0860/b03b963d-949b-4d8d-b19c-4950c89eeca2.jpg""]","",""
"","3936","similarity","140","1675621","0.0-6.0-134.0","7","[""img/0881/20af39f5-373d-4a55-a437-2dc4c0382c46.jpg"",""img/0766/ba35c0fc-4d5b-490d-959e-c94b279cdd02.jpg""]","",""
"","6308","similarity","141","1682935","0.0-6.0-135.0","5","[""img/0903/8931c67c-a43d-47d3-a4c9-42aa2f81d344.jpg"",""img/0864/8ddd2e30-a1d0-479f-9cbe-591213023893.jpg""]","",""
"","4626","similarity","142","1688566","0.0-6.0-136.0","7","[""img/0758/3ddd05d3-557e-4ee7-8b78-9d2d681d8ae2.jpg"",""img/0894/1b3888e6-cf36-4c4a-a039-187aa5cb71ac.jpg""]","",""
"","5087","similarity","143","1694660","0.0-6.0-137.0","2","[""img/0769/c7cfacc3-7f07-46ff-9f5d-8073f4c4679b.jpg"",""img/0860/31ff6436-98bf-4652-bed2-40f627229568.jpg""]","",""
"","6686","similarity","144","1702352","0.0-6.0-138.0","4","[""img/0904/da170c1b-9651-4f08-b231-2bdd1d9a046f.jpg"",""img/0766/f3276cc4-65de-4c2d-88d5-6cfebce14b8f.jpg""]","",""
"","4956","similarity","145","1708318","0.0-6.0-139.0","1","[""img/0868/c8ac40c7-6904-4e13-8d61-c75d3052dc4e.jpg"",""img/0860/5bff793e-cbd5-4d7e-b628-0ac2b0e30b64.jpg""]","",""
"","5767","similarity","146","1715091","0.0-6.0-140.0","6","[""img/0758/65d426d6-3ff6-415d-8654-a43b83ecc4fe.jpg"",""img/0864/efcfbb1b-8197-44c9-b723-40d6c608dd3c.jpg""]","",""
"","3866","similarity","147","1719965","0.0-6.0-141.0","6","[""img/0867/1719a35d-f085-48c0-9099-16c94fe418b4.jpg"",""img/0867/a498eef3-9fa4-4ab2-9778-4ae82ac40dc5.jpg""]","",""
"","4230","similarity","148","1725206","0.0-6.0-142.0","7","[""img/0898/01bfe666-3510-4fc7-964f-d00d28732dc8.jpg"",""img/0898/c3cecf20-f7fd-45fa-97d0-dc0a63e8d6c0.jpg""]","",""
"","3690","similarity","149","1729904","0.0-6.0-143.0","5","[""img/0866/a15b02be-11bb-43e3-b0e0-ecc3bd7dfc49.jpg"",""img/0769/3adfa417-3b90-4aab-b437-5eaa474189cb.jpg""]","",""
"","4778","similarity","150","1735690","0.0-6.0-144.0","3","[""img/0860/61fb959d-d4d9-4de4-9e4e-4fa62b4cfcd5.jpg"",""img/0898/68476bbb-34a1-42d9-8bc1-deab783d4489.jpg""]","",""
"","4847","similarity","151","1741543","0.0-6.0-145.0","5","[""img/0766/26d3ae14-8275-4e08-99b2-a6598c193ddf.jpg"",""img/0864/87c467d3-abca-482f-ad80-3766c21b1bb3.jpg""]","",""
"","4203","similarity","152","1746753","0.0-6.0-146.0","7","[""img/0860/87039971-2210-4aab-93c0-8e9b5f1655b2.jpg"",""img/0903/b4a0f61e-a964-4b79-a9a7-f767a8f92f34.jpg""]","",""
"","3962","similarity","153","1751722","0.0-6.0-147.0","3","[""img/0867/5e07b34d-b40f-4b1c-ac10-49975bace45f.jpg"",""img/0764/e30dba15-e68a-4659-89db-e1654b52fe02.jpg""]","",""
"","4344","similarity","154","1757074","0.0-6.0-148.0","6","[""img/0769/76eaa4a3-dfe9-4dc1-9efb-caebe86264e1.jpg"",""img/0904/b7c2a2c8-df33-4473-b3d4-ff7147c60db3.jpg""]","",""
"","4807","similarity","155","1762887","0.0-6.0-149.0","2","[""img/0764/ca957454-126a-4bd3-b29c-7174a24c25dc.jpg"",""img/0901/12da1841-e611-435c-9719-109413d536a8.jpg""]","",""
"","4732","similarity","156","1768625","0.0-6.0-150.0","3","[""img/0904/65e2b70a-b184-4da3-b5c0-5038bdf9469a.jpg"",""img/0899/93494f3b-d539-4075-b027-d82e344563da.jpg""]","",""
"","5113","similarity","157","1774744","0.0-6.0-151.0","1","[""img/0862/e697469a-ec19-4414-b972-7b9f3564785b.jpg"",""img/0867/a749dddb-69f0-44a6-acdc-2bf295cf6dcc.jpg""]","",""
"","3852","similarity","158","1779609","0.0-6.0-152.0","7","[""img/0766/a0270213-fa0e-4972-8b56-228c3e01ff90.jpg"",""img/0766/d8221e53-2300-4d99-ae1b-0bfb0eabe579.jpg""]","",""
"","3834","similarity","159","1784453","0.0-6.0-153.0","2","[""img/0862/4f0a3b4c-afbf-486e-b248-1d54982f54b4.jpg"",""img/0894/0130a973-d993-41f8-874a-fee23d9ac11f.jpg""]","",""
"","7467","similarity","160","1792927","0.0-6.0-154.0","2","[""img/0899/9de5e857-aa9a-4e0c-8ba2-46d79bd069a4.jpg"",""img/0901/548d1110-7cb8-42a2-9927-9798875c8b5c.jpg""]","",""
"","3875","similarity","161","1797810","0.0-6.0-155.0","7","[""img/0874/a82926a3-0b43-4add-803c-d5f9ea7798ee.jpg"",""img/0874/1016b306-087c-4afc-aa08-fa527b28dc76.jpg""]","",""
"","3666","similarity","162","1802481","0.0-6.0-156.0","2","[""img/0860/99c589b9-9140-4d17-90c0-b344323edcda.jpg"",""img/0867/12264664-1860-46df-8c21-162b9817cdda.jpg""]","",""
"","4251","similarity","163","1807738","0.0-6.0-157.0","5","[""img/0901/0f670aef-ac36-496d-8142-ee5fdb21dd82.jpg"",""img/0881/f8bd891e-aa09-4782-89db-33e7cb2b0cf1.jpg""]","",""
"","6206","similarity","164","1814952","0.0-6.0-158.0","5","[""img/0903/71dbc325-b588-4297-a5cf-7f268a722ad9.jpg"",""img/0902/aa6fca32-82b0-4414-b20a-8f6f8aa5a2d2.jpg""]","",""
"","5337","similarity","165","1821298","0.0-6.0-159.0","3","[""img/0860/c3379ff7-0763-48fe-a1ec-7ea3d611bc7a.jpg"",""img/0764/c80b3e06-2ee3-4326-9678-340607eb5348.jpg""]","",""
"","7425","similarity","166","1829733","0.0-6.0-160.0","4","[""img/0902/b76efc44-a50f-4dac-b997-ff0222376067.jpg"",""img/0875/2e13d160-eea1-416b-aff1-d37ab99ecc1d.jpg""]","",""
"","7620","similarity","167","1838362","0.0-6.0-161.0","2","[""img/0898/661621d4-a14e-487c-8c74-354134a29710.jpg"",""img/0862/5d887e9f-89e2-4ebc-80a0-6d46fe6480db.jpg""]","",""
"","4536","similarity","168","1843904","0.0-6.0-162.0","3","[""img/0894/10f22b96-040c-44f4-950b-a4963f3f506c.jpg"",""img/0875/99698b4d-b4a1-44bc-8c83-8ea755bbbf61.jpg""]","",""
"","3043","similarity","169","1847958","0.0-6.0-163.0","1","[""img/0866/be24ab58-230e-4db8-9f45-ff04c9aec6bb.jpg"",""img/0864/3651d070-2fc5-4848-b6a6-088a2d9ac5c9.jpg""]","",""
"","3920","similarity","170","1852885","0.0-6.0-164.0","4","[""img/0766/00891401-e4c9-4ce1-bc19-f70740d174bc.jpg"",""img/0862/57b6f83f-c763-4858-830d-102f97bfefbf.jpg""]","",""
"","7899","similarity","171","1861792","0.0-6.0-165.0","6","[""img/0866/620cd1aa-0800-4414-8f6e-90342e7a99ad.jpg"",""img/0874/ca23d307-fc00-4d7d-9106-584c6eb21b4d.jpg""]","",""
"","5152","similarity","172","1867956","0.0-6.0-166.0","6","[""img/0862/e8cc3bdf-cc43-4565-bccf-492626c70953.jpg"",""img/0860/9593362c-9fe5-4d12-9735-6000a11f6aa5.jpg""]","",""
"","5058","similarity","173","2010341","0.0-6.0-167.0","2","[""img/0766/d14acac4-7db1-4b07-8f8f-302437326fc0.jpg"",""img/0901/da4fe30f-d12a-491e-96a2-5ab8ebaadd09.jpg""]","",""
"","3060","similarity","174","2014407","0.0-6.0-168.0","7","[""img/0862/24cdc752-c2e5-4a17-86a6-6f2045d8553b.jpg"",""img/0862/cdaed51d-9e2f-4807-801a-4663c40077e2.jpg""]","",""
"","4835","similarity","175","2020248","0.0-6.0-169.0","6","[""img/0894/b2d2f66e-e480-46da-a02a-6d0c6b285d78.jpg"",""img/0764/e42c1dc9-7831-4995-be19-7ca7b4d141fc.jpg""]","",""
"","4312","similarity","176","2025566","0.0-6.0-170.0","2","[""img/0874/c0378dac-9370-439a-8b79-db27c96fb390.jpg"",""img/0898/0af304a2-6a7a-4082-ab7c-4450cd08cc58.jpg""]","",""
"","3456","similarity","177","2030027","0.0-6.0-171.0","1","[""img/0860/e14d67c1-6d92-4f1e-9257-c8607159c19c.jpg"",""img/0766/c23b5a20-e50f-4d85-841f-cf89212a4348.jpg""]","",""
"","5039","similarity","178","2036074","0.0-6.0-172.0","5","[""img/0898/6cd3830b-d44e-4915-be2b-88d31424b91c.jpg"",""img/0864/e02eddb5-f468-499c-91bf-f7be3ffe979b.jpg""]","",""
"","5130","similarity","179","2042210","0.0-6.0-173.0","6","[""img/0881/c24f3051-eefa-42de-aba6-fccb56d93c70.jpg"",""img/0764/cbdc4f20-3a9a-4211-9b40-090699e0abcc.jpg""]","",""
"","5249","similarity","180","2048466","0.0-6.0-174.0","1","[""img/0898/4184e5a2-84ea-4f36-9b42-ae58646f6f87.jpg"",""img/0868/d98ca254-b195-477f-b57e-5760a2717db8.jpg""]","",""
"","4478","similarity","181","2053951","0.0-6.0-175.0","7","[""img/0864/afcba0a3-7e27-4757-b254-e9f05fad27e2.jpg"",""img/0864/0116ca98-293d-4fa6-a93b-5a6144ef64cc.jpg""]","",""
"","4970","similarity","182","2059929","0.0-6.0-176.0","4","[""img/0899/d8f2dd94-570e-4e8c-a087-d96090fb9e8c.jpg"",""img/0862/1c20f772-3a51-4a80-aac0-f57dc9f86c28.jpg""]","",""
"","9871","similarity","183","2070805","0.0-6.0-177.0","6","[""img/0875/3ecb367d-e9eb-4826-8aaa-7aa72fb98019.jpg"",""img/0758/e38fd80d-18d0-42f3-b848-f930788e8bd7.jpg""]","",""
"","5066","similarity","184","2076879","0.0-6.0-178.0","3","[""img/0866/d493a2c8-66eb-44b4-be02-2f327b700b7c.jpg"",""img/0901/58978a6d-a3e2-4c59-8d62-f60693ecc0f6.jpg""]","",""
"","4887","similarity","185","2082772","0.0-6.0-179.0","2","[""img/0769/180213e5-1e50-4b4e-87b6-add77ba04d39.jpg"",""img/0874/995f0332-0439-4eb4-add3-957335dbf6d9.jpg""]","",""
"","4657","similarity","186","2088437","0.0-6.0-180.0","4","[""img/0875/2c361b79-c3d1-4eda-812e-bf03192407bf.jpg"",""img/0881/44e09805-5a25-4f17-a716-4ad4a331b174.jpg""]","",""
"","4916","similarity","187","2094360","0.0-6.0-181.0","3","[""img/0866/6f2a90d7-14f1-4f1b-bd64-fc0af6b9fe44.jpg"",""img/0868/fd307a36-9a3a-47d7-ab7c-f810d0b35040.jpg""]","",""
"","4139","similarity","188","2099507","0.0-6.0-182.0","6","[""img/0899/4f7bc593-8ddd-4da3-a0b9-84da730d3370.jpg"",""img/0758/d540bee6-b460-4c32-ac57-bc282742d7d4.jpg""]","",""
"","5086","similarity","189","2105599","0.0-6.0-183.0","4","[""img/0874/2c9464dd-8a23-4baa-ac94-1ba3af5c15cc.jpg"",""img/0875/03c3c331-738b-4446-af92-3d7386b08c2e.jpg""]","",""
"","5142","similarity","190","2111749","0.0-6.0-184.0","4","[""img/0904/5cceabc9-de1d-4c67-989b-c28a4ef77e79.jpg"",""img/0862/eefa5588-9efd-4591-aa5f-a2e17c7d7bcc.jpg""]","",""
"","6881","similarity","191","2119636","0.0-6.0-185.0","4","[""img/0902/d2c34af0-8c50-437d-8cc3-619195a3e8ba.jpg"",""img/0766/b84598d0-5b41-4841-88b0-b441b48289f5.jpg""]","",""
"","5936","similarity","192","2126578","0.0-6.0-186.0","3","[""img/0758/caa93da2-9edf-49fa-96b9-32dedd8f5078.jpg"",""img/0769/aad494cc-674d-4a08-9bfa-24a88ebe3c79.jpg""]","",""
"","3609","similarity","193","2131194","0.0-6.0-187.0","6","[""img/0881/ee44e27f-d662-4608-b265-e7ffa19b216f.jpg"",""img/0881/7e31e5dc-2240-4b1b-b5a0-3acd980099ef.jpg""]","",""
"","4915","similarity","194","2137116","0.0-6.0-188.0","1","[""img/0758/7ffbc76b-1fc1-432c-8f7e-9ec8d1b3f643.jpg"",""img/0866/d266fece-59b3-46fa-b69f-96f6efb81b59.jpg""]","",""
"","4678","similarity","195","2142799","0.0-6.0-189.0","2","[""img/0764/21e3292f-01ad-4238-828b-61b817857d16.jpg"",""img/0898/ec565187-2e31-4fdd-9a5c-153d0c789ae0.jpg""]","",""
"","4354","similarity","196","2148159","0.0-6.0-190.0","2","[""img/0903/aa842abe-6fa3-448a-bf71-88d3ad28663b.jpg"",""img/0901/a9b9c0a0-8aed-4888-a78a-65fb7e764d13.jpg""]","",""
"","5441","similarity","197","2154608","0.0-6.0-191.0","6","[""img/0902/af40b98b-3d23-4d95-b401-49ba5783ce39.jpg"",""img/0898/a114b375-cb89-44ba-9498-74213f1ecdee.jpg""]","",""
"","4011","similarity","198","2159625","0.0-6.0-192.0","1","[""img/0864/e336a4c5-6648-4fd7-b2f6-93a3fb83f8c6.jpg"",""img/0901/71e551a2-9ce2-409c-9c7c-dd556a0791e9.jpg""]","",""
"","4283","similarity","199","2164917","0.0-6.0-193.0","6","[""img/0894/6aa5545f-fa7d-4286-bbaa-aaf34dc7ec96.jpg"",""img/0881/609a5e93-38b5-4940-8627-2bf8fad7f802.jpg""]","",""
"","5015","similarity","200","2170940","0.0-6.0-194.0","7","[""img/0868/e0aff734-077f-40dd-9781-74821abd3621.jpg"",""img/0868/5fa7f9d0-f0e5-454c-8224-74d964818f56.jpg""]","",""
"","4619","similarity","201","2176568","0.0-6.0-195.0","6","[""img/0899/0e1d936a-dbe2-4afc-9f19-7b7a1ae6c9ed.jpg"",""img/0764/ba0c0955-acbb-457d-b1c2-f006b88121d5.jpg""]","",""
"","6267","similarity","202","2183842","0.0-6.0-196.0","2","[""img/0881/f037e3b0-09cb-4a83-b2d9-6a71fe474e63.jpg"",""img/0904/09dac84f-3d1c-4445-a68e-d0389fdbf1e9.jpg""]","",""
"","4316","similarity","203","2189164","0.0-6.0-197.0","6","[""img/0864/c3b63e8f-ea39-4d70-a1f2-b3fe4be8eb75.jpg"",""img/0902/07437a16-3d0f-4a5c-89ec-36d0efa4b3b8.jpg""]","",""
"","5280","similarity","204","2195450","0.0-6.0-198.0","6","[""img/0894/7fb082e0-ce79-485c-9109-04367fb32275.jpg"",""img/0904/d23dd7be-7fe8-4435-82f7-bd592c01e6a1.jpg""]","",""
"","3108","similarity","205","2199566","0.0-6.0-199.0","7","[""img/0901/ae1e6ce4-2e10-4ca9-b1e7-21628637ab74.jpg"",""img/0901/77087ed2-6e12-4329-b2a5-605bca6d972d.jpg""]","",""
"","4623","similarity","206","2205194","0.0-6.0-200.0","6","[""img/0894/a3d4170b-b7d8-40e3-955f-87e76ed745fc.jpg"",""img/0860/8fdba999-b946-4c7d-9891-336018b563ef.jpg""]","",""
"","4439","similarity","207","2210639","0.0-6.0-201.0","6","[""img/0898/881e2a85-d5c2-49be-a0c6-8a6ce2c4af08.jpg"",""img/0903/f10e9eb5-0c21-4a6a-944c-5f10a6d0fa4d.jpg""]","",""
"","4779","similarity","208","2216425","0.0-6.0-202.0","2","[""img/0864/3d4de670-b290-4285-9c3d-12a0e3af44e9.jpg"",""img/0894/3664e04c-c6d3-4c9b-afb6-25d89974b174.jpg""]","",""
"","7039","similarity","209","2224471","0.0-6.0-203.0","6","[""img/0874/3f471690-9788-4d03-90c7-f615aecef149.jpg"",""img/0860/94ef7afc-e0e6-4a15-98c6-0bfac82bc832.jpg""]","",""
"","5512","similarity","210","2230989","0.0-6.0-204.0","1","[""img/0862/064818ee-13d5-4618-bb24-21c7368ea278.jpg"",""img/0875/34132396-d896-4c2d-8087-646dd867e769.jpg""]","",""
"","4271","similarity","211","2236268","0.0-6.0-205.0","2","[""img/0867/26611f4e-d694-4460-b7e2-43c62753ddc3.jpg"",""img/0881/405484ae-0d00-4b05-bc57-6420a36adfac.jpg""]","",""
"","4601","similarity","212","2241876","0.0-6.0-206.0","1","[""img/0901/2a953e50-d237-405c-a38d-5ed21494c968.jpg"",""img/0902/0db94c50-f1fb-4091-953c-29ca0466bee2.jpg""]","",""
"","4569","similarity","213","2247457","0.0-6.0-207.0","7","[""img/0899/ddf96ade-692e-4602-bd22-dedbb46401bc.jpg"",""img/0864/ea327690-500b-4137-bf91-451b309fe6a5.jpg""]","",""
"","3927","similarity","214","2252391","0.0-6.0-208.0","4","[""img/0901/04a53755-6da5-44d4-a7a6-48a6bc0a2280.jpg"",""img/0769/688d0c52-ad73-4065-a5eb-f8c10d076bff.jpg""]","",""
"","4013","similarity","215","2265680","0.0-6.0-209.0","7","[""img/0902/0c760cc9-10ac-429e-8957-a7d51fc99683.jpg"",""img/0902/04a6ad4a-afc6-4871-8225-56b299af7b6b.jpg""]","",""
"[{""page_index"":0,""viewing_time"":10238}]","10239","instructions","216","2276923","0.0-7.0","","","",""
"","19002","image-multi-choice","217","2296963","0.0-8.0-0.0","","","{""Q0"":""Yellow Warbler""}","Nashville Warbler"
"","10601","image-multi-choice","218","2308586","0.0-8.0-1.0","","","{""Q0"":""White-crowned Sparrow""}","Black-and-white Warbler"
"","15220","image-multi-choice","219","2324831","0.0-8.0-2.0","","","{""Q0"":""Fox Sparrow""}","Townsend's Warbler"
"","8297","image-multi-choice","220","2334146","0.0-8.0-3.0","","","{""Q0"":""Chipping Sparrow""}","Lark Sparrow"
"","16439","image-multi-choice","221","2351604","0.0-8.0-4.0","","","{""Q0"":""Blackburnian Warbler""}","Yellow Warbler"
"","51861","image-multi-choice","222","2404488","0.0-8.0-5.0","","","{""Q0"":""Orange-crowned Warbler""}","Orange-crowned Warbler"
"","6402","image-multi-choice","223","2411920","0.0-8.0-6.0","","","{""Q0"":""White-crowned Sparrow""}","White-throated Sparrow"
"","9344","image-multi-choice","224","2422284","0.0-8.0-7.0","","","{""Q0"":""Lincoln's Sparrow""}","Fox Sparrow"
"","98714","image-multi-choice","225","2522019","0.0-8.0-8.0","","","{""Q0"":""Lincoln's Sparrow""}","Song Sparrow"
"","4510","image-multi-choice","226","2527550","0.0-8.0-9.0","","","{""Q0"":""Black-and-white Warbler""}","Blackburnian Warbler"
"","7180","image-multi-choice","227","2535749","0.0-8.0-10.0","","","{""Q0"":""American Tree Sparrow""}","Vesper Sparrow"
"","10181","image-multi-choice","228","2546953","0.0-8.0-11.0","","","{""Q0"":""Song Sparrow""}","White-crowned Sparrow"
"","12976","image-multi-choice","229","2560956","0.0-8.0-12.0","","","{""Q0"":""White-throated Sparrow""}","American Tree Sparrow"
"","9867","image-multi-choice","230","2571847","0.0-8.0-13.0","","","{""Q0"":""Nashville Warbler""}","Tennessee Warbler"
"","8263","image-multi-choice","231","2581131","0.0-8.0-14.0","","","{""Q0"":""Black-and-white Warbler""}","Magnolia Warbler"
"","12614","image-multi-choice","232","2594764","0.0-8.0-15.0","","","{""Q0"":""Swamp Sparrow""}","Northern Waterthrush"
"","118141","image-multi-choice","233","2713929","0.0-8.0-16.0","","","{""Q0"":""Tennessee Warbler""}","Chipping Sparrow"
"","12385","image-multi-choice","234","2727337","0.0-8.0-17.0","","","{""Q0"":""Fox Sparrow""}","Swamp Sparrow"
"","11139","image-multi-choice","235","2739498","0.0-8.0-18.0","","","{""Q0"":""Lincoln's Sparrow""}","Lincoln's Sparrow"
"","54808","image-multi-choice","236","2795328","0.0-8.0-19.0","","","{""Q0"":""Northern Waterthrush""}","Ovenbird"
