"view_history","rt","trial_type","trial_index","time_elapsed","internal_node_id","sim_score","stimulus","responses","answer"
"[{""page_index"":0,""viewing_time"":14855}]","14856","instructions","0","14858","0.0-0.0","","","",""
"","13089","similarity_demo","1","28958","0.0-1.0","4","[""img/866.jpg"",""img/868.jpg""]","",""
"[{""page_index"":0,""viewing_time"":5725}]","5725","instructions","2","35683","0.0-2.0","","","",""
"","8480","similarity_demo","3","45170","0.0-3.0","1","[""img/766.jpg"",""img/867.jpg""]","",""
"[{""page_index"":0,""viewing_time"":3779}]","3780","instructions","4","49950","0.0-4.0","","","",""
"[{""page_index"":0,""viewing_time"":57894}]","57895","instructions","5","108846","0.0-5.0","","","",""
"","5569","similarity","6","115421","0.0-6.0-0.0","1","[""img/0868/c8ac40c7-6904-4e13-8d61-c75d3052dc4e.jpg"",""img/0901/3db47171-0139-4235-82cd-0b1787b6775f.jpg""]","",""
"","7248","similarity","7","123673","0.0-6.0-1.0","5","[""img/0769/e8ed913b-8a88-44f6-9327-d34afec3116b.jpg"",""img/0867/cc72ed48-7704-422c-86d6-467a1145287a.jpg""]","",""
"","6246","similarity","8","130926","0.0-6.0-2.0","5","[""img/0766/5d6e0d1d-4369-41f0-a64c-91f3503055c7.jpg"",""img/0898/224c1572-56b9-4f16-a9e4-6f3bc9c114bd.jpg""]","",""
"","10272","similarity","9","142200","0.0-6.0-3.0","5","[""img/0902/0db94c50-f1fb-4091-953c-29ca0466bee2.jpg"",""img/0881/44e09805-5a25-4f17-a716-4ad4a331b174.jpg""]","",""
"","6074","similarity","10","149280","0.0-6.0-4.0","7","[""img/0894/86201968-6e78-4d68-9b3a-d1692e066210.jpg"",""img/0894/e2446cf5-cd48-486a-badc-76498e087fbe.jpg""]","",""
"","7574","similarity","11","157858","0.0-6.0-5.0","5","[""img/0874/a82926a3-0b43-4add-803c-d5f9ea7798ee.jpg"",""img/0899/4f7bc593-8ddd-4da3-a0b9-84da730d3370.jpg""]","",""
"","7770","similarity","12","166632","0.0-6.0-6.0","1","[""img/0904/696ebb60-8891-417a-91fd-c53218907a95.jpg"",""img/0764/6ef77040-1fae-4afa-bfe7-eda98e6d0376.jpg""]","",""
"","6947","similarity","13","174583","0.0-6.0-7.0","3","[""img/0899/51a7a498-98c7-42d7-bca8-bc2d8f0b5831.jpg"",""img/0898/e167334e-cc1d-4986-b3b1-c7bc7da64baa.jpg""]","",""
"","8165","similarity","14","183753","0.0-6.0-8.0","1","[""img/0874/c0378dac-9370-439a-8b79-db27c96fb390.jpg"",""img/0903/e2e55a9e-0397-4dc0-8adf-4a54cfefe1fe.jpg""]","",""
"","6578","similarity","15","191337","0.0-6.0-9.0","7","[""img/0881/e6746727-7f89-47ec-b939-d98abe78372d.jpg"",""img/0758/e1ba5e53-addc-436a-b428-d34fc1b130dc.jpg""]","",""
"","5954","similarity","16","198293","0.0-6.0-10.0","1","[""img/0898/f3a3f225-1248-4ac7-b93b-f0ff28485bf3.jpg"",""img/0901/08d6d1d1-c043-43c4-bb08-d45e062822b9.jpg""]","",""
"","6743","similarity","17","206040","0.0-6.0-11.0","1","[""img/0903/c3cb4a01-2797-43ca-b216-88c67b323fbb.jpg"",""img/0769/e31b3bd8-efcb-413e-aa8c-75fac2b8f2ac.jpg""]","",""
"","8643","similarity","18","215687","0.0-6.0-12.0","1","[""img/0764/bc3865c9-9004-4582-88a7-048478673f97.jpg"",""img/0868/6a28c3b0-3d76-498a-9fb7-ddafc665eca8.jpg""]","",""
"","6915","similarity","19","223606","0.0-6.0-13.0","1","[""img/0867/85a96c62-548f-4994-9553-819e03c3135a.jpg"",""img/0903/81368973-de81-46f4-844f-b901f3bfd66d.jpg""]","",""
"","11685","similarity","20","236294","0.0-6.0-14.0","3","[""img/0766/0bf3793e-c353-45e5-ac6f-753f5f484e10.jpg"",""img/0758/53f35650-e455-4b53-8be4-c3c8271c6466.jpg""]","",""
"","6318","similarity","21","243615","0.0-6.0-15.0","7","[""img/0902/44cd9b7e-fdfb-4f78-90de-8d4c9d279365.jpg"",""img/0860/4a022222-056d-461c-ab02-39fac9647552.jpg""]","",""
"","6220","similarity","22","250837","0.0-6.0-16.0","1","[""img/0769/8c7cf147-1780-4d5c-8ddf-5ea23ff03ac9.jpg"",""img/0875/ebf7653f-ff45-4e9f-af58-2c042ab3cd2b.jpg""]","",""
"","7752","similarity","23","259593","0.0-6.0-17.0","5","[""img/0904/0d25eb24-bb20-4e8d-9787-8b489558b4cb.jpg"",""img/0866/c446214b-a368-4c65-ae39-ea46894256ab.jpg""]","",""
"","5017","similarity","24","265614","0.0-6.0-18.0","7","[""img/0875/cff79b3a-a797-4393-9757-6275f999ec04.jpg"",""img/0875/d59ff733-eaff-4ee2-9443-06954dd0bcb6.jpg""]","",""
"","5686","similarity","25","272305","0.0-6.0-19.0","7","[""img/0758/61d64021-9214-4951-bdf8-f871f9827cf9.jpg"",""img/0758/821c68d3-5cb0-4eae-8659-30e6263fca39.jpg""]","",""
"","8754","similarity","26","282062","0.0-6.0-20.0","5","[""img/0902/e5a46bda-30d1-41ca-b36d-b8529b5a63d1.jpg"",""img/0874/3ce41e7c-40c8-4d58-a546-171114521796.jpg""]","",""
"","6039","similarity","27","289104","0.0-6.0-21.0","7","[""img/0764/fb92924f-5cfe-4b89-b130-0cce8cc5636b.jpg"",""img/0769/c7cfacc3-7f07-46ff-9f5d-8073f4c4679b.jpg""]","",""
"","6358","similarity","28","296465","0.0-6.0-22.0","3","[""img/0901/58978a6d-a3e2-4c59-8d62-f60693ecc0f6.jpg"",""img/0874/2c9464dd-8a23-4baa-ac94-1ba3af5c15cc.jpg""]","",""
"","6519","similarity","29","303987","0.0-6.0-23.0","1","[""img/0875/e7e66b13-b573-431e-b85e-288ce04a35a3.jpg"",""img/0903/9b60ef5b-234f-4239-892b-3d4c412accc2.jpg""]","",""
"","5654","similarity","30","310644","0.0-6.0-24.0","7","[""img/0769/180213e5-1e50-4b4e-87b6-add77ba04d39.jpg"",""img/0881/2a8413be-fec2-4de6-88ad-614dd4cccc9d.jpg""]","",""
"","6463","similarity","31","318112","0.0-6.0-25.0","3","[""img/0867/075e0f95-856b-4cbb-acf5-092393aaf04e.jpg"",""img/0904/4b8daf2a-13a9-4ea9-9e0b-b265b6e933e7.jpg""]","",""
"","6751","similarity","32","325866","0.0-6.0-26.0","1","[""img/0860/4c530c3c-6aab-492a-94d1-9c01797bde40.jpg"",""img/0881/f4e3e181-b3c9-4af2-a5a4-fc135ab70d2e.jpg""]","",""
"","5783","similarity","33","332652","0.0-6.0-27.0","7","[""img/0866/d266fece-59b3-46fa-b69f-96f6efb81b59.jpg"",""img/0866/0207e9a2-7dbb-40b5-9459-b472aaeceb2a.jpg""]","",""
"","7606","similarity","34","341261","0.0-6.0-28.0","3","[""img/0764/6fbd1902-fa2a-48d8-bc11-705b8ab68d8f.jpg"",""img/0862/92f0146c-20c4-482e-aef5-adb693790338.jpg""]","",""
"","6376","similarity","35","348640","0.0-6.0-29.0","3","[""img/0904/06dacdc5-2206-4fb8-92b7-88042d22833c.jpg"",""img/0758/ddc336e9-a8b6-4bb9-937a-c7e25e0e9250.jpg""]","",""
"","6043","similarity","36","355685","0.0-6.0-30.0","7","[""img/0894/1a010553-d598-4b06-a772-81f1e7b3addb.jpg"",""img/0899/56a605c3-d0a2-4215-89e1-779279d85a7c.jpg""]","",""
"","9060","similarity","37","365747","0.0-6.0-31.0","5","[""img/0860/b03b963d-949b-4d8d-b19c-4950c89eeca2.jpg"",""img/0904/a8c3c7d2-9bcf-4347-9e03-8203adfc1fc5.jpg""]","",""
"","5455","similarity","38","372206","0.0-6.0-32.0","5","[""img/0874/3f471690-9788-4d03-90c7-f615aecef149.jpg"",""img/0881/0c7068da-d0d9-4103-bda1-74ef7a2b32c3.jpg""]","",""
"","6007","similarity","39","379216","0.0-6.0-33.0","7","[""img/0881/566f45f8-5fed-4479-a60f-26377e60a62d.jpg"",""img/0899/25ae6ec8-9565-49fe-a8bb-8d0666f52716.jpg""]","",""
"","6657","similarity","40","386876","0.0-6.0-34.0","3","[""img/0866/386235d2-6857-41e7-88a8-25cfc3430025.jpg"",""img/0862/5d887e9f-89e2-4ebc-80a0-6d46fe6480db.jpg""]","",""
"","5816","similarity","41","393696","0.0-6.0-35.0","3","[""img/0868/179a5502-ab5c-478e-8263-5a1fbcc101d2.jpg"",""img/0894/e6385e52-6c35-43bd-b0af-bc803d107b11.jpg""]","",""
"","5754","similarity","42","400454","0.0-6.0-36.0","5","[""img/0860/8fdba999-b946-4c7d-9891-336018b563ef.jpg"",""img/0860/29a21a9f-54bb-4093-ad3f-04823ceaa89f.jpg""]","",""
"","4959","similarity","43","406416","0.0-6.0-37.0","7","[""img/0862/ad593cc7-cabe-4bb7-8e14-8a447a0717b4.jpg"",""img/0864/6e846d43-94a6-4b37-a268-65eda979f052.jpg""]","",""
"","8010","similarity","44","415429","0.0-6.0-38.0","1","[""img/0766/71b81ebd-0937-4d7f-b8bf-c4e46a4728fd.jpg"",""img/0866/bf14b5bd-fb55-47db-86b9-4f8aeb9a6dad.jpg""]","",""
"","5566","similarity","45","421998","0.0-6.0-39.0","3","[""img/0875/8521fd58-3b1e-4dc5-97ae-804edfa6734a.jpg"",""img/0898/b2732712-71c2-45d8-834f-2b2ed5504910.jpg""]","",""
"","5804","similarity","46","428805","0.0-6.0-40.0","5","[""img/0766/d14acac4-7db1-4b07-8f8f-302437326fc0.jpg"",""img/0769/8056889f-2b14-4782-bb25-b4e8896ab65b.jpg""]","",""
"","4930","similarity","47","449920","0.0-6.0-41.0","3","[""img/0874/1016b306-087c-4afc-aa08-fa527b28dc76.jpg"",""img/0764/f9f890e6-3c2f-40cd-84e9-85e0b54cb28e.jpg""]","",""
"","5391","similarity","48","456314","0.0-6.0-42.0","1","[""img/0868/4e626425-63c8-484a-8a1d-e66ee4e0bef8.jpg"",""img/0902/40d0b6ec-3907-4573-b227-e7d8e9cad1c3.jpg""]","",""
"","5647","similarity","49","462965","0.0-6.0-43.0","1","[""img/0875/3ecb367d-e9eb-4826-8aaa-7aa72fb98019.jpg"",""img/0899/0adc0bc3-6fca-4078-be6f-d45ddf1653d5.jpg""]","",""
"","5830","similarity","50","469800","0.0-6.0-44.0","5","[""img/0866/02f5e6b9-52b7-448c-9708-5b460d0c9a23.jpg"",""img/0860/71e1aad0-2cdf-43bb-94a4-a8c016997c30.jpg""]","",""
"","5277","similarity","51","476080","0.0-6.0-45.0","1","[""img/0766/aaec5f42-7f0a-4a16-aeca-488d757acbcc.jpg"",""img/0903/72197c2b-403e-4a26-b391-f1aa8dea4b76.jpg""]","",""
"","5672","similarity","52","482754","0.0-6.0-46.0","1","[""img/0901/33b51a81-06d9-46d9-9d4f-5a2d6d6b8058.jpg"",""img/0904/d23dd7be-7fe8-4435-82f7-bd592c01e6a1.jpg""]","",""
"","6193","similarity","53","489952","0.0-6.0-47.0","3","[""img/0758/d540bee6-b460-4c32-ac57-bc282742d7d4.jpg"",""img/0902/0c760cc9-10ac-429e-8957-a7d51fc99683.jpg""]","",""
"","5266","similarity","54","496221","0.0-6.0-48.0","7","[""img/0764/17b088f8-3053-4140-b544-d15654cc79ef.jpg"",""img/0764/5d6fa3ce-9083-410c-bbdb-336a49b94cfc.jpg""]","",""
"","6544","similarity","55","503768","0.0-6.0-49.0","5","[""img/0866/23a224f3-2012-4fc8-8e0f-3c36f8de27fd.jpg"",""img/0902/8af4182a-9af9-4212-a436-9195555112d6.jpg""]","",""
"","5532","similarity","56","510303","0.0-6.0-50.0","5","[""img/0764/f713847b-4832-42d1-8fb3-e17e37fd745c.jpg"",""img/0758/f61ecdf8-a7d4-4db0-b84d-be46f7cfaffc.jpg""]","",""
"","5951","similarity","57","517257","0.0-6.0-51.0","7","[""img/0898/08c72dac-f8ad-407a-9ce6-8c9a5d679c3a.jpg"",""img/0894/9b1333fd-3561-43bf-aee5-99b7b7ca3dc3.jpg""]","",""
"","7316","similarity","58","525576","0.0-6.0-52.0","5","[""img/0875/5a716432-c6ca-4b1c-955a-2b8ac25198ee.jpg"",""img/0866/a04d37f0-99dd-478a-b6c6-58b215138f84.jpg""]","",""
"","6037","similarity","59","532626","0.0-6.0-53.0","5","[""img/0904/9dd5708f-3f8b-46a9-b49f-2f2fab87b357.jpg"",""img/0904/73920552-103b-4c9c-9ece-e0b8376b4504.jpg""]","",""
"","5184","similarity","60","538816","0.0-6.0-54.0","7","[""img/0769/75f7e514-0548-4329-b1e4-93c05e74f038.jpg"",""img/0769/f2740c58-7c02-433f-920b-746b0b75435b.jpg""]","",""
"","6417","similarity","61","546237","0.0-6.0-55.0","1","[""img/0898/0af304a2-6a7a-4082-ab7c-4450cd08cc58.jpg"",""img/0758/7fba58df-2a7a-4b76-8a8f-62739f97f271.jpg""]","",""
"","5255","similarity","62","552496","0.0-6.0-56.0","3","[""img/0769/76eaa4a3-dfe9-4dc1-9efb-caebe86264e1.jpg"",""img/0902/b03fee99-d5ca-4bf8-871c-a4a743a39842.jpg""]","",""
"","8288","similarity","63","561788","0.0-6.0-57.0","5","[""img/0864/1ebbc554-99fa-49f9-8799-317375a79820.jpg"",""img/0881/f62bdcd1-a4b7-4d48-83da-d9c9e01c8727.jpg""]","",""
"","5936","similarity","64","568726","0.0-6.0-58.0","1","[""img/0758/d41c06bf-ebaf-454b-91c6-1a17f917b659.jpg"",""img/0868/d6d1f30d-4323-435a-b194-7892521bc57e.jpg""]","",""
"","6081","similarity","65","575810","0.0-6.0-59.0","5","[""img/0862/24cdc752-c2e5-4a17-86a6-6f2045d8553b.jpg"",""img/0769/91acb237-65a3-4d0b-9748-af5c7b83d3c7.jpg""]","",""
"","7506","similarity","66","584319","0.0-6.0-60.0","5","[""img/0764/e42c1dc9-7831-4995-be19-7ca7b4d141fc.jpg"",""img/0903/150cf64c-0bd2-4674-abbb-a1387cf1f3e9.jpg""]","",""
"","6082","similarity","67","591404","0.0-6.0-61.0","3","[""img/0899/d8f2dd94-570e-4e8c-a087-d96090fb9e8c.jpg"",""img/0899/f58b8d2f-b19d-4b59-8b94-8834be92e4ba.jpg""]","",""
"","5423","similarity","68","597830","0.0-6.0-62.0","3","[""img/0860/c47fdead-eb02-4989-b078-26f4852f44fe.jpg"",""img/0875/2c361b79-c3d1-4eda-812e-bf03192407bf.jpg""]","",""
"","6249","similarity","69","605082","0.0-6.0-63.0","3","[""img/0868/fd307a36-9a3a-47d7-ab7c-f810d0b35040.jpg"",""img/0874/bf14b896-e930-4fd9-9c05-2e83317a2773.jpg""]","",""
"","5812","similarity","70","611897","0.0-6.0-64.0","5","[""img/0758/b76ceca7-95ac-46e4-ac13-da02c8e93be9.jpg"",""img/0862/f23038d4-c366-4f70-979f-66b62362efa4.jpg""]","",""
"","6110","similarity","71","619010","0.0-6.0-65.0","7","[""img/0904/b5855d6a-7ef9-46ca-9215-6e9fa046e543.jpg"",""img/0898/0c7dde4f-efce-4b7a-9387-6921635b7890.jpg""]","",""
"","7073","similarity","72","627086","0.0-6.0-66.0","7","[""img/0881/e046471a-35b4-4159-bbf7-3cfd201bef66.jpg"",""img/0866/93a27239-8317-4e08-98ca-d8b1ff298e07.jpg""]","",""
"","6918","similarity","73","635007","0.0-6.0-67.0","3","[""img/0867/12264664-1860-46df-8c21-162b9817cdda.jpg"",""img/0898/881e2a85-d5c2-49be-a0c6-8a6ce2c4af08.jpg""]","",""
"","6290","similarity","74","642299","0.0-6.0-68.0","5","[""img/0902/95a36b6b-9601-4fa5-8fd9-606ea62f9425.jpg"",""img/0764/6c7fe363-2d37-418f-9e5e-a3273af5d4fb.jpg""]","",""
"","6776","similarity","75","650078","0.0-6.0-69.0","7","[""img/0875/03c3c331-738b-4446-af92-3d7386b08c2e.jpg"",""img/0867/2e1a0b58-cdb1-4107-a14e-452530d7b9b0.jpg""]","",""
"","5981","similarity","76","657062","0.0-6.0-70.0","7","[""img/0766/60033a74-9919-47e5-913c-71d0d483e7e5.jpg"",""img/0764/bd2eaa3e-95a9-4a59-a78e-3f81c766eea9.jpg""]","",""
"","6084","similarity","77","664149","0.0-6.0-71.0","7","[""img/0894/4739e06d-c31e-4bf1-bf91-c97fa9afb456.jpg"",""img/0867/f8159067-056c-41f1-a136-c529fe5e970a.jpg""]","",""
"","6731","similarity","78","671883","0.0-6.0-72.0","3","[""img/0875/527ced51-8e53-4aab-ab05-86df219104c0.jpg"",""img/0764/ba0c0955-acbb-457d-b1c2-f006b88121d5.jpg""]","",""
"","5537","similarity","79","678424","0.0-6.0-73.0","7","[""img/0867/98d8cd96-1476-4fe0-a3a3-04f875500a1b.jpg"",""img/0866/be24ab58-230e-4db8-9f45-ff04c9aec6bb.jpg""]","",""
"","5578","similarity","80","685005","0.0-6.0-74.0","1","[""img/0903/71dbc325-b588-4297-a5cf-7f268a722ad9.jpg"",""img/0758/2fa3e613-e676-4e6e-bd12-705327eeb3e1.jpg""]","",""
"","5146","similarity","81","691154","0.0-6.0-75.0","1","[""img/0766/51d3aab4-3d09-4dda-b99d-3dc7aaabc6f2.jpg"",""img/0868/0d3abd3a-b6c3-4584-a9f7-e2da63748b3d.jpg""]","",""
"","5204","similarity","82","697361","0.0-6.0-76.0","5","[""img/0874/29830da7-be5f-44e5-b141-652a0ccf7269.jpg"",""img/0766/0b48f9e0-7d37-4161-8adb-4e3f5b6b7583.jpg""]","",""
"","5114","similarity","83","703478","0.0-6.0-77.0","1","[""img/0881/f6bd3b96-dc40-4e99-8681-bc3a35cf896d.jpg"",""img/0868/4a8a45ed-2c4f-421b-9564-409a33ecd26c.jpg""]","",""
"","7728","similarity","84","712210","0.0-6.0-78.0","1","[""img/0758/eabcd7a8-56ad-4fd2-bc24-90f6b7b33265.jpg"",""img/0901/71e551a2-9ce2-409c-9c7c-dd556a0791e9.jpg""]","",""
"","6773","similarity","85","719985","0.0-6.0-79.0","5","[""img/0881/1407b85b-a1c6-45b1-9884-3b24203efadb.jpg"",""img/0898/b3290bf9-215b-4b45-b21a-65bdf73f142f.jpg""]","",""
"","6667","similarity","86","727656","0.0-6.0-80.0","1","[""img/0867/8ba0c5a7-c7e4-42cf-a80a-543763b90779.jpg"",""img/0758/6cd8c362-ae2a-41eb-80a3-3a4f7ace1530.jpg""]","",""
"","5481","similarity","87","734139","0.0-6.0-81.0","7","[""img/0769/6c0bac4c-5f59-43c7-898c-3ca93cf55cfe.jpg"",""img/0899/ddf96ade-692e-4602-bd22-dedbb46401bc.jpg""]","",""
"","5303","similarity","88","740444","0.0-6.0-82.0","7","[""img/0903/47e39de8-6959-469f-8be9-6999a6db207c.jpg"",""img/0903/f45a103c-9bfe-49fd-ad96-bdd8d2589195.jpg""]","",""
"","5385","similarity","89","761966","0.0-6.0-83.0","3","[""img/0867/5e07b34d-b40f-4b1c-ac10-49975bace45f.jpg"",""img/0766/2da002a4-05c9-4f5c-9ed7-433b4183e273.jpg""]","",""
"","8357","similarity","90","771326","0.0-6.0-84.0","2","[""img/0902/10d99c89-71f7-4c81-a31e-dfc7c59f5232.jpg"",""img/0867/f8488a47-94ee-4166-952c-44e16cf172f6.jpg""]","",""
"","5288","similarity","91","777616","0.0-6.0-85.0","7","[""img/0901/a6c90438-fa7c-4418-ac7c-16c2e772dd98.jpg"",""img/0875/fb732ab5-013a-4366-9f65-27811ed157e9.jpg""]","",""
"","6782","similarity","92","785400","0.0-6.0-86.0","7","[""img/0764/cffc80b0-4a90-4acb-a530-6f480f3ca303.jpg"",""img/0866/07c9c966-3c8d-40e7-8128-92b2acbaed5d.jpg""]","",""
"","6680","similarity","93","793083","0.0-6.0-87.0","5","[""img/0901/1b86f2fc-7a1d-4aa8-9252-114f92edef3b.jpg"",""img/0894/1b3888e6-cf36-4c4a-a039-187aa5cb71ac.jpg""]","",""
"","6127","similarity","94","800213","0.0-6.0-88.0","5","[""img/0898/01bfe666-3510-4fc7-964f-d00d28732dc8.jpg"",""img/0769/ecda2fb3-556b-43ba-8a67-e87dd75ff2b4.jpg""]","",""
"","5323","similarity","95","806540","0.0-6.0-89.0","7","[""img/0769/f6396414-6788-4d59-9683-de153298d89c.jpg"",""img/0894/b2d2f66e-e480-46da-a02a-6d0c6b285d78.jpg""]","",""
"","6584","similarity","96","814127","0.0-6.0-90.0","3","[""img/0862/de9ad88c-b522-430a-8ee9-eb06a9f85df5.jpg"",""img/0874/99f6563c-8a8d-4c1c-a41d-667b618c3fd5.jpg""]","",""
"","10230","similarity","97","825359","0.0-6.0-91.0","5","[""img/0894/a3d4170b-b7d8-40e3-955f-87e76ed745fc.jpg"",""img/0766/d919cedb-f9b7-4f30-83bb-3e9c65001ceb.jpg""]","",""
"","7546","similarity","98","833920","0.0-6.0-92.0","1","[""img/0874/eba003b4-cdab-4eee-8bc3-f064c7d94165.jpg"",""img/0867/aa05d113-fc19-4756-a8eb-7878f580bc92.jpg""]","",""
"","5460","similarity","99","840387","0.0-6.0-93.0","1","[""img/0899/f95cbdb4-f804-4f5d-ad76-373ad343e658.jpg"",""img/0868/4bd5105a-d2c3-4f82-8c80-57196106ba53.jpg""]","",""
"","6265","similarity","100","847655","0.0-6.0-94.0","5","[""img/0903/b4a0f61e-a964-4b79-a9a7-f767a8f92f34.jpg"",""img/0862/00c06b00-3b73-44e9-bc1e-c5aafb438321.jpg""]","",""
"","5255","similarity","101","853913","0.0-6.0-95.0","7","[""img/0899/7b7380d5-d2be-44e5-a09a-c1756f87ef71.jpg"",""img/0766/00891401-e4c9-4ce1-bc19-f70740d174bc.jpg""]","",""
"","4920","similarity","102","859837","0.0-6.0-96.0","7","[""img/0867/db7e032f-162b-46f5-ae67-2b29679adee4.jpg"",""img/0868/5fa7f9d0-f0e5-454c-8224-74d964818f56.jpg""]","",""
"","6865","similarity","103","867705","0.0-6.0-97.0","5","[""img/0862/f43ceabf-acc1-4107-b857-5d1849808f93.jpg"",""img/0901/b123d109-47b4-4f9a-80c9-9bb16da42efa.jpg""]","",""
"","8230","similarity","104","876938","0.0-6.0-98.0","1","[""img/0875/f87b67d7-c33e-40d1-b281-248c4be1cb6e.jpg"",""img/0766/6d32752d-aa05-40dc-9541-640b6e9d6fa1.jpg""]","",""
"","5992","similarity","105","883933","0.0-6.0-99.0","5","[""img/0758/a085b443-b5d7-4cb2-9ad4-b9dab0fc23f1.jpg"",""img/0874/8cdb1c07-1c32-46d2-981c-3636560fa6e5.jpg""]","",""
"","6613","similarity","106","891549","0.0-6.0-100.0","3","[""img/0904/96e503ea-6630-4996-85f2-0237688ce441.jpg"",""img/0868/e0aff734-077f-40dd-9781-74821abd3621.jpg""]","",""
"","5325","similarity","107","897877","0.0-6.0-101.0","1","[""img/0903/6f343da5-00d9-4d50-89d1-2ed24cdb8319.jpg"",""img/0866/945c6710-d15b-4a5b-a8f6-69af0850357f.jpg""]","",""
"","10930","similarity","108","909809","0.0-6.0-102.0","3","[""img/0868/15dd6fd7-791e-4b53-b203-195d617521a4.jpg"",""img/0769/48a1144d-fbda-4809-991b-fc8424a32ee4.jpg""]","",""
"","11817","similarity","109","922629","0.0-6.0-103.0","6","[""img/0902/01b41522-de46-4c3a-b0af-a61b2682b40e.jpg"",""img/0899/66bf4113-ee12-426c-84d2-ea410b6c803e.jpg""]","",""
"","8285","similarity","110","931919","0.0-6.0-104.0","2","[""img/0868/83b4350a-3b70-4cea-b7f5-b5b56f3050a8.jpg"",""img/0862/fad1d7c1-8187-43c3-942a-0fc12183e48e.jpg""]","",""
"","7291","similarity","111","940213","0.0-6.0-105.0","6","[""img/0903/f1fa0f8d-e62b-4b4a-a174-31a0fabfe61b.jpg"",""img/0894/5f15154e-e72e-4ce5-aafb-bce6f0564006.jpg""]","",""
"","5769","similarity","112","946985","0.0-6.0-106.0","6","[""img/0864/e8bd659f-aa43-4748-877e-3118e8b4e189.jpg"",""img/0874/ca76a855-4e77-4f2f-872a-0a718153e7ed.jpg""]","",""
"","5868","similarity","113","953857","0.0-6.0-107.0","7","[""img/0862/e0f1a4e9-e1b6-45f7-af67-89f334e6630d.jpg"",""img/0902/a323b62d-2fd5-4ac8-acc6-35b768f3c3f2.jpg""]","",""
"","5683","similarity","114","960543","0.0-6.0-108.0","7","[""img/0904/da170c1b-9651-4f08-b231-2bdd1d9a046f.jpg"",""img/0903/14f179a2-8786-48a2-8377-88d1d404341b.jpg""]","",""
"","5648","similarity","115","967195","0.0-6.0-109.0","5","[""img/0764/d7c215ab-ea9a-45be-8d5f-417d5b9a8a17.jpg"",""img/0864/1d15626a-2f7c-410f-819c-0fa2c967e95e.jpg""]","",""
"","6314","similarity","116","974512","0.0-6.0-110.0","3","[""img/0866/620cd1aa-0800-4414-8f6e-90342e7a99ad.jpg"",""img/0894/7f2f31fd-6618-41c6-b65a-0fd8b2851bc9.jpg""]","",""
"","5660","similarity","117","981174","0.0-6.0-111.0","3","[""img/0899/fd9efb43-701f-4cd6-baaa-4c38315f4bdc.jpg"",""img/0903/5c6b1f57-b3a2-40f5-9fb1-82785e24b6a0.jpg""]","",""
"","5037","similarity","118","987214","0.0-6.0-112.0","7","[""img/0902/30c420f5-c714-4681-ae5a-c0ba8f636a26.jpg"",""img/0904/0d17b811-063e-416e-a23c-3b3cfa4fcce5.jpg""]","",""
"","4582","similarity","119","992798","0.0-6.0-113.0","5","[""img/0864/4bd81bc6-c13d-46df-95a9-485886dc7c1b.jpg"",""img/0860/4f695df5-afac-4da7-9875-fee39b0b24ad.jpg""]","",""
"","5082","similarity","120","998883","0.0-6.0-114.0","7","[""img/0860/c7047cd2-7cc1-41b6-8a34-c0986774975f.jpg"",""img/0899/0e1d936a-dbe2-4afc-9f19-7b7a1ae6c9ed.jpg""]","",""
"","5232","similarity","121","1005117","0.0-6.0-115.0","5","[""img/0881/ed4c971f-0873-4fc8-b6d6-e8bbd82f0bcc.jpg"",""img/0903/97a42b34-5462-4665-88c7-83c014b33d24.jpg""]","",""
"","4840","similarity","122","1010959","0.0-6.0-116.0","5","[""img/0894/792c83e9-a747-4000-bc72-5663d2439edb.jpg"",""img/0874/85eb9b8a-c4c6-4e5a-b8e7-363a87a82054.jpg""]","",""
"","6732","similarity","123","1018694","0.0-6.0-117.0","4","[""img/0881/b1a136f7-8511-4d3a-a0f6-3879acf1e1a1.jpg"",""img/0862/ee3b7bff-4a70-4e84-9bea-4a565e456acb.jpg""]","",""
"","7396","similarity","124","1027093","0.0-6.0-118.0","6","[""img/0868/d98ca254-b195-477f-b57e-5760a2717db8.jpg"",""img/0875/42910c99-5463-450a-a0f8-d4d060a11455.jpg""]","",""
"","9268","similarity","125","1037364","0.0-6.0-119.0","6","[""img/0860/9593362c-9fe5-4d12-9735-6000a11f6aa5.jpg"",""img/0758/dd559618-7f09-4a07-8018-d311c4a5ea29.jpg""]","",""
"","7357","similarity","126","1045723","0.0-6.0-120.0","5","[""img/0864/87c467d3-abca-482f-ad80-3766c21b1bb3.jpg"",""img/0875/a4935837-7d3c-4df6-88c1-36a94d4991ca.jpg""]","",""
"","6695","similarity","127","1053422","0.0-6.0-121.0","2","[""img/0898/04e39a7a-fcf6-4156-ab0e-f5871f335e1c.jpg"",""img/0866/11a1d141-be5e-443c-98c1-a9d4d9e3dec0.jpg""]","",""
"","6571","similarity","128","1060996","0.0-6.0-122.0","5","[""img/0874/a3bc679d-619f-4db6-bb68-116dcb757d9c.jpg"",""img/0904/09dac84f-3d1c-4445-a68e-d0389fdbf1e9.jpg""]","",""
"","4830","similarity","129","1066829","0.0-6.0-123.0","7","[""img/0904/56e73f28-7e64-489b-a161-e6b1a063878d.jpg"",""img/0864/9b2490c5-a282-400a-9736-e1a0ecbf1cb7.jpg""]","",""
"","5648","similarity","130","1073479","0.0-6.0-124.0","7","[""img/0894/492d2f29-d7b9-4422-8be8-47fd58bfaa8b.jpg"",""img/0902/51493fab-2a10-4385-aa88-bee3db441626.jpg""]","",""
"","4839","similarity","131","1090631","0.0-6.0-125.0","1","[""img/0868/293079b8-7e0c-4afd-a390-1e5d35fe3ded.jpg"",""img/0864/300bb811-8b3c-4c42-8653-6097c3725197.jpg""]","",""
"","5792","similarity","132","1097428","0.0-6.0-126.0","1","[""img/0899/ad8268c5-8199-48d0-ad70-c5b6d6c599ec.jpg"",""img/0866/8efcaa46-83ab-4dee-a35f-850402aa21ae.jpg""]","",""
"","4238","similarity","133","1102669","0.0-6.0-127.0","6","[""img/0875/5a7c4e35-6514-4e12-8879-d16071da4cd6.jpg"",""img/0904/1d10df11-b5c8-4370-9a6b-097a7f965895.jpg""]","",""
"","5624","similarity","134","1109296","0.0-6.0-128.0","2","[""img/0867/bf560d4f-dee3-4f11-a385-705cc1aa5f3c.jpg"",""img/0899/d60714ae-98d7-4564-8c98-94dba1351135.jpg""]","",""
"","4453","similarity","135","1114753","0.0-6.0-129.0","1","[""img/0901/875dedb9-24c9-4443-9f8c-85e97d70ee5a.jpg"",""img/0867/1719a35d-f085-48c0-9099-16c94fe418b4.jpg""]","",""
"","6511","similarity","136","1122267","0.0-6.0-130.0","4","[""img/0864/c22faebd-9c53-47bc-ada3-b9a30c688e75.jpg"",""img/0769/ebef2ddc-ba59-4e0e-97f8-927864eb5081.jpg""]","",""
"","5137","similarity","137","1128407","0.0-6.0-131.0","2","[""img/0903/45e2d600-57ff-4d69-b22c-0c7896cd38f0.jpg"",""img/0868/8b0b8473-e2c0-4331-aa56-c3a5c29369da.jpg""]","",""
"","5519","similarity","138","1134929","0.0-6.0-132.0","2","[""img/0864/da39ad34-04e0-40d4-a724-c08d53e0ea09.jpg"",""img/0867/a749dddb-69f0-44a6-acdc-2bf295cf6dcc.jpg""]","",""
"","8175","similarity","139","1144108","0.0-6.0-133.0","5","[""img/0901/1e23ffbd-19de-4c4f-aa23-c54aaa3319a3.jpg"",""img/0860/e14d67c1-6d92-4f1e-9257-c8607159c19c.jpg""]","",""
"","6990","similarity","140","1152101","0.0-6.0-134.0","6","[""img/0881/f037e3b0-09cb-4a83-b2d9-6a71fe474e63.jpg"",""img/0766/c23b5a20-e50f-4d85-841f-cf89212a4348.jpg""]","",""
"","6651","similarity","141","1159755","0.0-6.0-135.0","4","[""img/0903/2c7b4aed-6038-4aac-958a-e3e58341c313.jpg"",""img/0864/65210d57-1153-4657-886a-32e758f49b4a.jpg""]","",""
"","5966","similarity","142","1166724","0.0-6.0-136.0","5","[""img/0758/65d426d6-3ff6-415d-8654-a43b83ecc4fe.jpg"",""img/0894/e5edf723-72a5-4673-8441-6c1734a8929b.jpg""]","",""
"","5563","similarity","143","1173290","0.0-6.0-137.0","5","[""img/0769/0fe124d3-bcad-45f6-b64d-8f6eb8ee5251.jpg"",""img/0860/5bff793e-cbd5-4d7e-b628-0ac2b0e30b64.jpg""]","",""
"","6173","similarity","144","1180466","0.0-6.0-138.0","5","[""img/0904/e9423a8c-f946-43ad-ab7b-931acef870e2.jpg"",""img/0766/d5d38751-8fa5-476f-93e9-86ed2d9045ef.jpg""]","",""
"","5995","similarity","145","1187464","0.0-6.0-139.0","5","[""img/0868/1a62b2b2-18f5-466e-b564-5176a57c565e.jpg"",""img/0860/f44ba3fb-03a2-42f0-8509-2c1ded493086.jpg""]","",""
"","8171","similarity","146","1196638","0.0-6.0-140.0","7","[""img/0758/d57c2592-a317-4f63-91be-91a3a9afd222.jpg"",""img/0864/49150900-7f25-4ce8-8d10-9b47a71d1997.jpg""]","",""
"","5651","similarity","147","1203293","0.0-6.0-141.0","7","[""img/0867/f26f6b60-f772-4f4c-95a4-addc62cfd692.jpg"",""img/0867/6e19c858-b606-45b2-a4c6-910a73f1d82c.jpg""]","",""
"","5984","similarity","148","1210280","0.0-6.0-142.0","7","[""img/0898/4184e5a2-84ea-4f36-9b42-ae58646f6f87.jpg"",""img/0898/26c41340-15bd-4ead-8fe4-c0d0ddca09c2.jpg""]","",""
"","5839","similarity","149","1217121","0.0-6.0-143.0","6","[""img/0866/6f2a90d7-14f1-4f1b-bd64-fc0af6b9fe44.jpg"",""img/0769/3c1efec9-f8fd-487d-8955-4be88e48c832.jpg""]","",""
"","5194","similarity","150","1223320","0.0-6.0-144.0","7","[""img/0860/18dfed73-e36b-4487-a8bd-0b8cff8e3668.jpg"",""img/0898/993d8f2d-bef7-4251-a193-0f93a32b7763.jpg""]","",""
"","5011","similarity","151","1229335","0.0-6.0-145.0","6","[""img/0766/33519c22-aaa4-49d7-8d49-ab551db1945e.jpg"",""img/0864/ea327690-500b-4137-bf91-451b309fe6a5.jpg""]","",""
"","8179","similarity","152","1238517","0.0-6.0-146.0","3","[""img/0860/c5ccd1a4-4bb7-48e1-9b25-72cfaf06909b.jpg"",""img/0903/d987e220-f3e6-4b6d-a270-fe6757041f6d.jpg""]","",""
"","6769","similarity","153","1246289","0.0-6.0-147.0","4","[""img/0867/ac1797e4-8afc-48fe-b252-86d1defb1cca.jpg"",""img/0764/39a9fc7e-b863-432c-9374-de43983f31a5.jpg""]","",""
"","6478","similarity","154","1253770","0.0-6.0-148.0","1","[""img/0769/662ab839-88d1-4ebf-af05-9b2980cad943.jpg"",""img/0904/24fc38fe-842c-4831-ad8a-b1de5c25c0a8.jpg""]","",""
"","5837","similarity","155","1260610","0.0-6.0-149.0","2","[""img/0764/b8e23f4f-ff19-4472-ad9b-2f85548ebca0.jpg"",""img/0901/7d4a3388-488d-4e9b-9d32-9d0def7aae8d.jpg""]","",""
"","7854","similarity","156","1269467","0.0-6.0-150.0","3","[""img/0904/63dd06dd-dccb-47ba-9740-eb33239e18a7.jpg"",""img/0899/0433d056-aa30-4f8a-9aa1-abbb951e4edd.jpg""]","",""
"","6968","similarity","157","1277438","0.0-6.0-151.0","2","[""img/0862/57b6f83f-c763-4858-830d-102f97bfefbf.jpg"",""img/0867/179ab87a-8eac-4c52-a41f-2e48e3120f09.jpg""]","",""
"","5549","similarity","158","1283990","0.0-6.0-152.0","6","[""img/0766/db750ba0-ce04-46e1-b601-e1b80212bad2.jpg"",""img/0766/3c526a07-9e0a-4ae2-8142-00085f0127da.jpg""]","",""
"","6574","similarity","159","1291567","0.0-6.0-153.0","6","[""img/0862/1c20f772-3a51-4a80-aac0-f57dc9f86c28.jpg"",""img/0894/7fb082e0-ce79-485c-9109-04367fb32275.jpg""]","",""
"","6126","similarity","160","1298698","0.0-6.0-154.0","5","[""img/0899/4408c14d-c168-4a7d-96f6-bc87bfb58f83.jpg"",""img/0901/0f670aef-ac36-496d-8142-ee5fdb21dd82.jpg""]","",""
"","6467","similarity","161","1306167","0.0-6.0-155.0","6","[""img/0874/995f0332-0439-4eb4-add3-957335dbf6d9.jpg"",""img/0874/ca23d307-fc00-4d7d-9106-584c6eb21b4d.jpg""]","",""
"","5635","similarity","162","1312805","0.0-6.0-156.0","5","[""img/0860/8277806e-b684-4474-8f7b-3fca946d7d4f.jpg"",""img/0867/a498eef3-9fa4-4ab2-9778-4ae82ac40dc5.jpg""]","",""
"","8793","similarity","163","1322600","0.0-6.0-157.0","1","[""img/0901/2a953e50-d237-405c-a38d-5ed21494c968.jpg"",""img/0881/84397291-bc14-4fbf-90e8-241e486ab0fe.jpg""]","",""
"","6475","similarity","164","1330078","0.0-6.0-158.0","6","[""img/0903/39365c8e-a733-4801-ac7d-b87e38c3784b.jpg"",""img/0902/27b84584-948a-485b-8749-cb09929ef631.jpg""]","",""
"","5545","similarity","165","1336626","0.0-6.0-159.0","5","[""img/0860/31ff6436-98bf-4652-bed2-40f627229568.jpg"",""img/0764/c01e2d65-6586-441b-bef5-3c96fcd85380.jpg""]","",""
"","5854","similarity","166","1343494","0.0-6.0-160.0","2","[""img/0902/fbef27fa-ac83-4936-ab78-9d1c20a383e1.jpg"",""img/0875/5a1e5100-0d94-4fec-bbe9-ca9894d2cf8e.jpg""]","",""
"","5550","similarity","167","1350052","0.0-6.0-161.0","2","[""img/0898/c3cecf20-f7fd-45fa-97d0-dc0a63e8d6c0.jpg"",""img/0862/92fcd8a4-8193-4a6a-ae09-dd4a6338b0df.jpg""]","",""
"","5437","similarity","168","1356491","0.0-6.0-162.0","6","[""img/0894/05161000-f476-499b-a878-c13c7f347fd9.jpg"",""img/0875/34132396-d896-4c2d-8087-646dd867e769.jpg""]","",""
"","5926","similarity","169","1363421","0.0-6.0-163.0","1","[""img/0866/d493a2c8-66eb-44b4-be02-2f327b700b7c.jpg"",""img/0864/e02eddb5-f468-499c-91bf-f7be3ffe979b.jpg""]","",""
"","8216","similarity","170","1372640","0.0-6.0-164.0","2","[""img/0766/27f54113-8561-4568-9ffe-0a1650ae65ec.jpg"",""img/0862/d0ca4c78-fc35-46ed-bdcc-8e124283c53e.jpg""]","",""
"","4914","similarity","171","1378557","0.0-6.0-165.0","4","[""img/0866/a15b02be-11bb-43e3-b0e0-ecc3bd7dfc49.jpg"",""img/0874/31e22c7c-99aa-40b1-bf03-dd73fa2df4d6.jpg""]","",""
"","7838","similarity","172","1387400","0.0-6.0-166.0","5","[""img/0862/ba89835a-408c-480b-8594-ed4ffa97eb5c.jpg"",""img/0860/87039971-2210-4aab-93c0-8e9b5f1655b2.jpg""]","",""
"","6373","similarity","173","1400147","0.0-6.0-167.0","5","[""img/0766/ba35c0fc-4d5b-490d-959e-c94b279cdd02.jpg"",""img/0901/effc03f6-8f9d-46db-a66c-16fc83891c5c.jpg""]","",""
"","7432","similarity","174","1408581","0.0-6.0-168.0","7","[""img/0862/064818ee-13d5-4618-bb24-21c7368ea278.jpg"",""img/0862/47ed5efd-4ec9-4b74-bb4e-a5f5cf0c3e7d.jpg""]","",""
"","5158","similarity","175","1414741","0.0-6.0-169.0","6","[""img/0894/6aa5545f-fa7d-4286-bbaa-aaf34dc7ec96.jpg"",""img/0764/b887d7c6-aa81-4637-af8e-05135757ac59.jpg""]","",""
"","5763","similarity","176","1421508","0.0-6.0-170.0","5","[""img/0874/adf9a8f1-c40b-402b-b95b-1e85a54a7b62.jpg"",""img/0898/5f699581-3853-4547-856c-12f419ba5af7.jpg""]","",""
"","5177","similarity","177","1427689","0.0-6.0-171.0","5","[""img/0860/17b44a7d-c5ca-479f-9e87-f65a64f5c80e.jpg"",""img/0766/a754e4b6-5019-4cf4-8f58-34c20547a1f5.jpg""]","",""
"","6122","similarity","178","1434814","0.0-6.0-172.0","6","[""img/0898/a114b375-cb89-44ba-9498-74213f1ecdee.jpg"",""img/0864/66091c27-e588-4476-8af9-265dc6be4156.jpg""]","",""
"","5692","similarity","179","1441508","0.0-6.0-173.0","5","[""img/0881/667e2147-d457-4f32-aa5f-6ab86e5848f1.jpg"",""img/0764/974d52cc-6318-4e7a-b294-2f3e92ff800f.jpg""]","",""
"","5454","similarity","180","1447965","0.0-6.0-174.0","3","[""img/0898/40f99fb2-64d2-4e72-8a7f-a1cf60741e69.jpg"",""img/0868/09a9ef4d-d000-4cfa-a6aa-ebec7c2edeb4.jpg""]","",""
"","7418","similarity","181","1456385","0.0-6.0-175.0","7","[""img/0864/5f74a653-3bdc-4308-8cca-ac667dc22e1f.jpg"",""img/0864/0f537697-a314-47c3-a8cc-8df23b7e536c.jpg""]","",""
"","6096","similarity","182","1463484","0.0-6.0-176.0","1","[""img/0899/06b0fc99-0581-461a-9913-d1a5a941ac61.jpg"",""img/0862/53a9cf7c-93c4-41b9-952f-07d17f7a17b2.jpg""]","",""
"","6261","similarity","183","1470748","0.0-6.0-177.0","2","[""img/0875/dbdd643e-6d0e-4a5c-ab57-b9c29b9c981a.jpg"",""img/0758/caa93da2-9edf-49fa-96b9-32dedd8f5078.jpg""]","",""
"","6234","similarity","184","1477985","0.0-6.0-178.0","3","[""img/0866/f756f7d1-9ad8-4a34-9ef6-7a443d705bfe.jpg"",""img/0901/4f9cffe0-c0be-4d7f-bacd-9d51efd19b4a.jpg""]","",""
"","6245","similarity","185","1485233","0.0-6.0-179.0","5","[""img/0769/a3cfbdeb-acb3-4eac-87fb-4b117f42d4f8.jpg"",""img/0874/7e4f2150-3b59-4a36-b5da-a4e0ba410531.jpg""]","",""
"","5586","similarity","186","1491822","0.0-6.0-180.0","4","[""img/0875/2e13d160-eea1-416b-aff1-d37ab99ecc1d.jpg"",""img/0881/292e9b4b-fca0-4ba8-87f1-4048f9e37b7d.jpg""]","",""
"","6103","similarity","187","1498928","0.0-6.0-181.0","6","[""img/0866/9b38d691-1802-4959-ab3f-fc902f0e4ea6.jpg"",""img/0868/77091fc7-a590-4ebb-b915-fdb2483a2399.jpg""]","",""
"","5661","similarity","188","1505592","0.0-6.0-182.0","2","[""img/0899/9de5e857-aa9a-4e0c-8ba2-46d79bd069a4.jpg"",""img/0758/7ffbc76b-1fc1-432c-8f7e-9ec8d1b3f643.jpg""]","",""
"","10422","similarity","189","1517017","0.0-6.0-183.0","2","[""img/0874/767f289c-9814-4496-803f-745cc8913d1f.jpg"",""img/0875/90da8d75-108a-44ad-b999-e21fee3860d3.jpg""]","",""
"","5197","similarity","190","1523217","0.0-6.0-184.0","3","[""img/0904/25365108-e038-4021-aac9-797f2063b337.jpg"",""img/0862/847e5208-38ec-4f36-949c-296cdd7424ee.jpg""]","",""
"","5364","similarity","191","1529584","0.0-6.0-185.0","4","[""img/0902/417d8b4a-3c72-4adc-ac78-820e833316f2.jpg"",""img/0766/fd74fdbb-ea40-4f3a-a091-38d08dfd636e.jpg""]","",""
"","6536","similarity","192","1537124","0.0-6.0-186.0","5","[""img/0758/335851a0-a55b-46d8-ab05-8463eda48349.jpg"",""img/0769/bb8c4e53-6f32-4814-97ee-392d4decfb2e.jpg""]","",""
"","5943","similarity","193","1544070","0.0-6.0-187.0","7","[""img/0881/c24f3051-eefa-42de-aba6-fccb56d93c70.jpg"",""img/0881/adc02f34-ce97-4aef-850f-00519df06fd7.jpg""]","",""
"","7137","similarity","194","1552210","0.0-6.0-188.0","5","[""img/0758/6e95579b-5166-487c-b8cb-e417c6a218e3.jpg"",""img/0866/4a87911a-d5be-4d4e-ab8e-3d1f581bf507.jpg""]","",""
"","6611","similarity","195","1559824","0.0-6.0-189.0","5","[""img/0764/4952d0a0-c9be-471a-8ec7-94a37bf4051d.jpg"",""img/0898/cd3aaa3f-efa9-4ab3-8d6f-a6a9273ddf42.jpg""]","",""
"","6288","similarity","196","1567114","0.0-6.0-190.0","5","[""img/0903/365f176c-25a4-4973-bd3c-279bf1b39476.jpg"",""img/0901/148b747a-7392-437e-8823-33053c5dff3f.jpg""]","",""
"","5944","similarity","197","1574061","0.0-6.0-191.0","6","[""img/0902/af40b98b-3d23-4d95-b401-49ba5783ce39.jpg"",""img/0898/81b08535-2020-4c15-9ce4-2f1e460755ae.jpg""]","",""
"","6190","similarity","198","1581254","0.0-6.0-192.0","3","[""img/0864/ef9cbca0-4be8-435d-ad49-977259e80409.jpg"",""img/0901/a9b9c0a0-8aed-4888-a78a-65fb7e764d13.jpg""]","",""
"","5052","similarity","199","1587309","0.0-6.0-193.0","6","[""img/0894/5ff3c4f6-52e2-4075-8679-be0312e59703.jpg"",""img/0881/f7a8cc63-8842-40a4-9ff8-fe530310d62c.jpg""]","",""
"","5789","similarity","200","1594101","0.0-6.0-194.0","7","[""img/0868/7b212364-ff5f-4e28-9241-7eb6ea00161b.jpg"",""img/0868/3a62db2d-97e9-44a3-b8e3-a48c6f0e423b.jpg""]","",""
"","4896","similarity","201","1600000","0.0-6.0-195.0","7","[""img/0899/8abe6c69-822c-436c-9bf2-96c818b49ba5.jpg"",""img/0764/50f1b062-d608-4bc0-ab25-b872dcf2ed93.jpg""]","",""
"","4869","similarity","202","1605872","0.0-6.0-196.0","6","[""img/0881/b549bc99-a61c-4450-bab5-9efc3a197bf0.jpg"",""img/0904/2c98dc56-88d1-4fb5-a999-b6a7861f65f0.jpg""]","",""
"","6113","similarity","203","1612989","0.0-6.0-197.0","4","[""img/0864/a248adb3-c70b-4652-b7a3-776d2a1e904b.jpg"",""img/0902/12452bb1-b8c0-4e4d-ad4d-47e279e5933c.jpg""]","",""
"","7881","similarity","204","1621873","0.0-6.0-198.0","7","[""img/0894/2d2db7b3-e8a3-499b-b63a-14f51bf73882.jpg"",""img/0904/2fd488e9-960f-41f7-8a44-33375f7d5051.jpg""]","",""
"","6065","similarity","205","1628940","0.0-6.0-199.0","7","[""img/0901/7c16dd9c-44ad-4d5b-990c-6a0b9b48b1b1.jpg"",""img/0901/12da1841-e611-435c-9719-109413d536a8.jpg""]","",""
"","6859","similarity","206","1636803","0.0-6.0-200.0","6","[""img/0894/8cadb87a-7001-4e47-99fb-1867bebf1668.jpg"",""img/0860/8a92e21b-6a32-4e4a-a445-2d5a487ed0a4.jpg""]","",""
"","5971","similarity","207","1643776","0.0-6.0-201.0","6","[""img/0898/661621d4-a14e-487c-8c74-354134a29710.jpg"",""img/0903/aa842abe-6fa3-448a-bf71-88d3ad28663b.jpg""]","",""
"","6623","similarity","208","1651401","0.0-6.0-202.0","1","[""img/0864/3651d070-2fc5-4848-b6a6-088a2d9ac5c9.jpg"",""img/0894/43216a7f-27bc-4b5a-8841-d122a30da9d9.jpg""]","",""
"","5398","similarity","209","1657802","0.0-6.0-203.0","3","[""img/0874/93d1f8dc-acf2-4f03-bd8d-8ec35df276ed.jpg"",""img/0860/524b2e98-5767-4d53-942c-ebae6925659b.jpg""]","",""
"","9547","similarity","210","1668352","0.0-6.0-204.0","3","[""img/0862/f188d4f0-76a4-4102-818c-a209969d73a5.jpg"",""img/0875/99698b4d-b4a1-44bc-8c83-8ea755bbbf61.jpg""]","",""
"","7684","similarity","211","1677039","0.0-6.0-205.0","5","[""img/0867/26611f4e-d694-4460-b7e2-43c62753ddc3.jpg"",""img/0881/33d65d80-8a8e-4ecf-852d-0ad7725c17a2.jpg""]","",""
"","5444","similarity","212","1683486","0.0-6.0-206.0","6","[""img/0901/a373612d-67e2-4fec-9764-21d3d6ef6359.jpg"",""img/0902/418b716e-63e5-4c77-93e9-95b1f5a3ddf0.jpg""]","",""
"","6377","similarity","213","1690868","0.0-6.0-207.0","7","[""img/0899/00715b3f-851b-420b-a26b-d7f79f7759a9.jpg"",""img/0864/b3c4e378-28f0-4699-9338-2a257b4bca04.jpg""]","",""
"","6173","similarity","214","1698043","0.0-6.0-208.0","2","[""img/0901/a2d7b2f6-396b-4d91-8403-de5361c74af7.jpg"",""img/0769/9ea9ceb6-049e-4ad9-be8f-00645cd35803.jpg""]","",""
"","5521","similarity","215","1710297","0.0-6.0-209.0","6","[""img/0902/d1083f2c-5520-44ec-81a8-3f856fbf0e80.jpg"",""img/0902/af45fe42-178c-4c1a-99ef-256e87e3b092.jpg""]","",""
"[{""page_index"":0,""viewing_time"":5669}]","5670","instructions","216","1716967","0.0-7.0","","","",""
"","15856","image-multi-choice","217","1733838","0.0-8.0-0.0","","","{""Q0"":""Yellow Warbler""}","Nashville Warbler"
"","16523","image-multi-choice","218","1751371","0.0-8.0-1.0","","","{""Q0"":""Black-and-white Warbler""}","Black-and-white Warbler"
"","20224","image-multi-choice","219","1772605","0.0-8.0-2.0","","","{""Q0"":""Vesper Sparrow""}","Townsend's Warbler"
"","12592","image-multi-choice","220","1786206","0.0-8.0-3.0","","","{""Q0"":""Magnolia Warbler""}","Lark Sparrow"
"","13830","image-multi-choice","221","1801045","0.0-8.0-4.0","","","{""Q0"":""Yellow Warbler""}","Yellow Warbler"
"","8043","image-multi-choice","222","1810099","0.0-8.0-5.0","","","{""Q0"":""Townsend's Warbler""}","Orange-crowned Warbler"
"","15477","image-multi-choice","223","1826588","0.0-8.0-6.0","","","{""Q0"":""Song Sparrow""}","White-throated Sparrow"
"","15467","image-multi-choice","224","1843065","0.0-8.0-7.0","","","{""Q0"":""Ovenbird""}","Fox Sparrow"
"","13423","image-multi-choice","225","1857498","0.0-8.0-8.0","","","{""Q0"":""Swamp Sparrow""}","Song Sparrow"
"","10690","image-multi-choice","226","1869197","0.0-8.0-9.0","","","{""Q0"":""Blackburnian Warbler""}","Blackburnian Warbler"
"","8117","image-multi-choice","227","1878325","0.0-8.0-10.0","","","{""Q0"":""Tennessee Warbler""}","Vesper Sparrow"
"","8419","image-multi-choice","228","1887754","0.0-8.0-11.0","","","{""Q0"":""Northern Waterthrush""}","White-crowned Sparrow"
"","14360","image-multi-choice","229","1903125","0.0-8.0-12.0","","","{""Q0"":""American Tree Sparrow""}","American Tree Sparrow"
"","17515","image-multi-choice","230","1921651","0.0-8.0-13.0","","","{""Q0"":""Vesper Sparrow""}","Tennessee Warbler"
"","12329","image-multi-choice","231","1934993","0.0-8.0-14.0","","","{""Q0"":""Black-and-white Warbler""}","Magnolia Warbler"
"","7333","image-multi-choice","232","1943337","0.0-8.0-15.0","","","{""Q0"":""Swamp Sparrow""}","Northern Waterthrush"
"","17012","image-multi-choice","233","1961360","0.0-8.0-16.0","","","{""Q0"":""White-crowned Sparrow""}","Chipping Sparrow"
"","14950","image-multi-choice","234","1977322","0.0-8.0-17.0","","","{""Q0"":""Vesper Sparrow""}","Swamp Sparrow"
"","12280","image-multi-choice","235","1990613","0.0-8.0-18.0","","","{""Q0"":""Nashville Warbler""}","Lincoln's Sparrow"
"","21031","image-multi-choice","236","2012655","0.0-8.0-19.0","","","{""Q0"":""Lark Sparrow""}","Ovenbird"
