[{"view_history":"[{\"page_index\":0,\"viewing_time\":14855}]","rt":14856,"trial_type":"instructions","trial_index":0,"time_elapsed":14858,"internal_node_id":"0.0-0.0"},{"sim_score":4,"rt":13089,"stimulus":"[\"img/866.jpg\",\"img/868.jpg\"]","trial_type":"similarity_demo","trial_index":1,"time_elapsed":28958,"internal_node_id":"0.0-1.0"},{"view_history":"[{\"page_index\":0,\"viewing_time\":5725}]","rt":5725,"trial_type":"instructions","trial_index":2,"time_elapsed":35683,"internal_node_id":"0.0-2.0"},{"sim_score":1,"rt":8480,"stimulus":"[\"img/766.jpg\",\"img/867.jpg\"]","trial_type":"similarity_demo","trial_index":3,"time_elapsed":45170,"internal_node_id":"0.0-3.0"},{"view_history":"[{\"page_index\":0,\"viewing_time\":3779}]","rt":3780,"trial_type":"instructions","trial_index":4,"time_elapsed":49950,"internal_node_id":"0.0-4.0"},{"view_history":"[{\"page_index\":0,\"viewing_time\":57894}]","rt":57895,"trial_type":"instructions","trial_index":5,"time_elapsed":108846,"internal_node_id":"0.0-5.0"},{"sim_score":1,"rt":5569,"stimulus":"[\"img/0868/c8ac40c7-6904-4e13-8d61-c75d3052dc4e.jpg\",\"img/0901/3db47171-0139-4235-82cd-0b1787b6775f.jpg\"]","trial_type":"similarity","trial_index":6,"time_elapsed":115421,"internal_node_id":"0.0-6.0-0.0"},{"sim_score":5,"rt":7248,"stimulus":"[\"img/0769/e8ed913b-8a88-44f6-9327-d34afec3116b.jpg\",\"img/0867/cc72ed48-7704-422c-86d6-467a1145287a.jpg\"]","trial_type":"similarity","trial_index":7,"time_elapsed":123673,"internal_node_id":"0.0-6.0-1.0"},{"sim_score":5,"rt":6246,"stimulus":"[\"img/0766/5d6e0d1d-4369-41f0-a64c-91f3503055c7.jpg\",\"img/0898/224c1572-56b9-4f16-a9e4-6f3bc9c114bd.jpg\"]","trial_type":"similarity","trial_index":8,"time_elapsed":130926,"internal_node_id":"0.0-6.0-2.0"},{"sim_score":5,"rt":10272,"stimulus":"[\"img/0902/0db94c50-f1fb-4091-953c-29ca0466bee2.jpg\",\"img/0881/44e09805-5a25-4f17-a716-4ad4a331b174.jpg\"]","trial_type":"similarity","trial_index":9,"time_elapsed":142200,"internal_node_id":"0.0-6.0-3.0"},{"sim_score":7,"rt":6074,"stimulus":"[\"img/0894/86201968-6e78-4d68-9b3a-d1692e066210.jpg\",\"img/0894/e2446cf5-cd48-486a-badc-76498e087fbe.jpg\"]","trial_type":"similarity","trial_index":10,"time_elapsed":149280,"internal_node_id":"0.0-6.0-4.0"},{"sim_score":5,"rt":7574,"stimulus":"[\"img/0874/a82926a3-0b43-4add-803c-d5f9ea7798ee.jpg\",\"img/0899/4f7bc593-8ddd-4da3-a0b9-84da730d3370.jpg\"]","trial_type":"similarity","trial_index":11,"time_elapsed":157858,"internal_node_id":"0.0-6.0-5.0"},{"sim_score":1,"rt":7770,"stimulus":"[\"img/0904/696ebb60-8891-417a-91fd-c53218907a95.jpg\",\"img/0764/6ef77040-1fae-4afa-bfe7-eda98e6d0376.jpg\"]","trial_type":"similarity","trial_index":12,"time_elapsed":166632,"internal_node_id":"0.0-6.0-6.0"},{"sim_score":3,"rt":6947,"stimulus":"[\"img/0899/51a7a498-98c7-42d7-bca8-bc2d8f0b5831.jpg\",\"img/0898/e167334e-cc1d-4986-b3b1-c7bc7da64baa.jpg\"]","trial_type":"similarity","trial_index":13,"time_elapsed":174583,"internal_node_id":"0.0-6.0-7.0"},{"sim_score":1,"rt":8165,"stimulus":"[\"img/0874/c0378dac-9370-439a-8b79-db27c96fb390.jpg\",\"img/0903/e2e55a9e-0397-4dc0-8adf-4a54cfefe1fe.jpg\"]","trial_type":"similarity","trial_index":14,"time_elapsed":183753,"internal_node_id":"0.0-6.0-8.0"},{"sim_score":7,"rt":6578,"stimulus":"[\"img/0881/e6746727-7f89-47ec-b939-d98abe78372d.jpg\",\"img/0758/e1ba5e53-addc-436a-b428-d34fc1b130dc.jpg\"]","trial_type":"similarity","trial_index":15,"time_elapsed":191337,"internal_node_id":"0.0-6.0-9.0"},{"sim_score":1,"rt":5954,"stimulus":"[\"img/0898/f3a3f225-1248-4ac7-b93b-f0ff28485bf3.jpg\",\"img/0901/08d6d1d1-c043-43c4-bb08-d45e062822b9.jpg\"]","trial_type":"similarity","trial_index":16,"time_elapsed":198293,"internal_node_id":"0.0-6.0-10.0"},{"sim_score":1,"rt":6743,"stimulus":"[\"img/0903/c3cb4a01-2797-43ca-b216-88c67b323fbb.jpg\",\"img/0769/e31b3bd8-efcb-413e-aa8c-75fac2b8f2ac.jpg\"]","trial_type":"similarity","trial_index":17,"time_elapsed":206040,"internal_node_id":"0.0-6.0-11.0"},{"sim_score":1,"rt":8643,"stimulus":"[\"img/0764/bc3865c9-9004-4582-88a7-048478673f97.jpg\",\"img/0868/6a28c3b0-3d76-498a-9fb7-ddafc665eca8.jpg\"]","trial_type":"similarity","trial_index":18,"time_elapsed":215687,"internal_node_id":"0.0-6.0-12.0"},{"sim_score":1,"rt":6915,"stimulus":"[\"img/0867/85a96c62-548f-4994-9553-819e03c3135a.jpg\",\"img/0903/81368973-de81-46f4-844f-b901f3bfd66d.jpg\"]","trial_type":"similarity","trial_index":19,"time_elapsed":223606,"internal_node_id":"0.0-6.0-13.0"},{"sim_score":3,"rt":11685,"stimulus":"[\"img/0766/0bf3793e-c353-45e5-ac6f-753f5f484e10.jpg\",\"img/0758/53f35650-e455-4b53-8be4-c3c8271c6466.jpg\"]","trial_type":"similarity","trial_index":20,"time_elapsed":236294,"internal_node_id":"0.0-6.0-14.0"},{"sim_score":7,"rt":6318,"stimulus":"[\"img/0902/44cd9b7e-fdfb-4f78-90de-8d4c9d279365.jpg\",\"img/0860/4a022222-056d-461c-ab02-39fac9647552.jpg\"]","trial_type":"similarity","trial_index":21,"time_elapsed":243615,"internal_node_id":"0.0-6.0-15.0"},{"sim_score":1,"rt":6220,"stimulus":"[\"img/0769/8c7cf147-1780-4d5c-8ddf-5ea23ff03ac9.jpg\",\"img/0875/ebf7653f-ff45-4e9f-af58-2c042ab3cd2b.jpg\"]","trial_type":"similarity","trial_index":22,"time_elapsed":250837,"internal_node_id":"0.0-6.0-16.0"},{"sim_score":5,"rt":7752,"stimulus":"[\"img/0904/0d25eb24-bb20-4e8d-9787-8b489558b4cb.jpg\",\"img/0866/c446214b-a368-4c65-ae39-ea46894256ab.jpg\"]","trial_type":"similarity","trial_index":23,"time_elapsed":259593,"internal_node_id":"0.0-6.0-17.0"},{"sim_score":7,"rt":5017,"stimulus":"[\"img/0875/cff79b3a-a797-4393-9757-6275f999ec04.jpg\",\"img/0875/d59ff733-eaff-4ee2-9443-06954dd0bcb6.jpg\"]","trial_type":"similarity","trial_index":24,"time_elapsed":265614,"internal_node_id":"0.0-6.0-18.0"},{"sim_score":7,"rt":5686,"stimulus":"[\"img/0758/61d64021-9214-4951-bdf8-f871f9827cf9.jpg\",\"img/0758/821c68d3-5cb0-4eae-8659-30e6263fca39.jpg\"]","trial_type":"similarity","trial_index":25,"time_elapsed":272305,"internal_node_id":"0.0-6.0-19.0"},{"sim_score":5,"rt":8754,"stimulus":"[\"img/0902/e5a46bda-30d1-41ca-b36d-b8529b5a63d1.jpg\",\"img/0874/3ce41e7c-40c8-4d58-a546-171114521796.jpg\"]","trial_type":"similarity","trial_index":26,"time_elapsed":282062,"internal_node_id":"0.0-6.0-20.0"},{"sim_score":7,"rt":6039,"stimulus":"[\"img/0764/fb92924f-5cfe-4b89-b130-0cce8cc5636b.jpg\",\"img/0769/c7cfacc3-7f07-46ff-9f5d-8073f4c4679b.jpg\"]","trial_type":"similarity","trial_index":27,"time_elapsed":289104,"internal_node_id":"0.0-6.0-21.0"},{"sim_score":3,"rt":6358,"stimulus":"[\"img/0901/58978a6d-a3e2-4c59-8d62-f60693ecc0f6.jpg\",\"img/0874/2c9464dd-8a23-4baa-ac94-1ba3af5c15cc.jpg\"]","trial_type":"similarity","trial_index":28,"time_elapsed":296465,"internal_node_id":"0.0-6.0-22.0"},{"sim_score":1,"rt":6519,"stimulus":"[\"img/0875/e7e66b13-b573-431e-b85e-288ce04a35a3.jpg\",\"img/0903/9b60ef5b-234f-4239-892b-3d4c412accc2.jpg\"]","trial_type":"similarity","trial_index":29,"time_elapsed":303987,"internal_node_id":"0.0-6.0-23.0"},{"sim_score":7,"rt":5654,"stimulus":"[\"img/0769/180213e5-1e50-4b4e-87b6-add77ba04d39.jpg\",\"img/0881/2a8413be-fec2-4de6-88ad-614dd4cccc9d.jpg\"]","trial_type":"similarity","trial_index":30,"time_elapsed":310644,"internal_node_id":"0.0-6.0-24.0"},{"sim_score":3,"rt":6463,"stimulus":"[\"img/0867/075e0f95-856b-4cbb-acf5-092393aaf04e.jpg\",\"img/0904/4b8daf2a-13a9-4ea9-9e0b-b265b6e933e7.jpg\"]","trial_type":"similarity","trial_index":31,"time_elapsed":318112,"internal_node_id":"0.0-6.0-25.0"},{"sim_score":1,"rt":6751,"stimulus":"[\"img/0860/4c530c3c-6aab-492a-94d1-9c01797bde40.jpg\",\"img/0881/f4e3e181-b3c9-4af2-a5a4-fc135ab70d2e.jpg\"]","trial_type":"similarity","trial_index":32,"time_elapsed":325866,"internal_node_id":"0.0-6.0-26.0"},{"sim_score":7,"rt":5783,"stimulus":"[\"img/0866/d266fece-59b3-46fa-b69f-96f6efb81b59.jpg\",\"img/0866/0207e9a2-7dbb-40b5-9459-b472aaeceb2a.jpg\"]","trial_type":"similarity","trial_index":33,"time_elapsed":332652,"internal_node_id":"0.0-6.0-27.0"},{"sim_score":3,"rt":7606,"stimulus":"[\"img/0764/6fbd1902-fa2a-48d8-bc11-705b8ab68d8f.jpg\",\"img/0862/92f0146c-20c4-482e-aef5-adb693790338.jpg\"]","trial_type":"similarity","trial_index":34,"time_elapsed":341261,"internal_node_id":"0.0-6.0-28.0"},{"sim_score":3,"rt":6376,"stimulus":"[\"img/0904/06dacdc5-2206-4fb8-92b7-88042d22833c.jpg\",\"img/0758/ddc336e9-a8b6-4bb9-937a-c7e25e0e9250.jpg\"]","trial_type":"similarity","trial_index":35,"time_elapsed":348640,"internal_node_id":"0.0-6.0-29.0"},{"sim_score":7,"rt":6043,"stimulus":"[\"img/0894/1a010553-d598-4b06-a772-81f1e7b3addb.jpg\",\"img/0899/56a605c3-d0a2-4215-89e1-779279d85a7c.jpg\"]","trial_type":"similarity","trial_index":36,"time_elapsed":355685,"internal_node_id":"0.0-6.0-30.0"},{"sim_score":5,"rt":9060,"stimulus":"[\"img/0860/b03b963d-949b-4d8d-b19c-4950c89eeca2.jpg\",\"img/0904/a8c3c7d2-9bcf-4347-9e03-8203adfc1fc5.jpg\"]","trial_type":"similarity","trial_index":37,"time_elapsed":365747,"internal_node_id":"0.0-6.0-31.0"},{"sim_score":5,"rt":5455,"stimulus":"[\"img/0874/3f471690-9788-4d03-90c7-f615aecef149.jpg\",\"img/0881/0c7068da-d0d9-4103-bda1-74ef7a2b32c3.jpg\"]","trial_type":"similarity","trial_index":38,"time_elapsed":372206,"internal_node_id":"0.0-6.0-32.0"},{"sim_score":7,"rt":6007,"stimulus":"[\"img/0881/566f45f8-5fed-4479-a60f-26377e60a62d.jpg\",\"img/0899/25ae6ec8-9565-49fe-a8bb-8d0666f52716.jpg\"]","trial_type":"similarity","trial_index":39,"time_elapsed":379216,"internal_node_id":"0.0-6.0-33.0"},{"sim_score":3,"rt":6657,"stimulus":"[\"img/0866/386235d2-6857-41e7-88a8-25cfc3430025.jpg\",\"img/0862/5d887e9f-89e2-4ebc-80a0-6d46fe6480db.jpg\"]","trial_type":"similarity","trial_index":40,"time_elapsed":386876,"internal_node_id":"0.0-6.0-34.0"},{"sim_score":3,"rt":5816,"stimulus":"[\"img/0868/179a5502-ab5c-478e-8263-5a1fbcc101d2.jpg\",\"img/0894/e6385e52-6c35-43bd-b0af-bc803d107b11.jpg\"]","trial_type":"similarity","trial_index":41,"time_elapsed":393696,"internal_node_id":"0.0-6.0-35.0"},{"sim_score":5,"rt":5754,"stimulus":"[\"img/0860/8fdba999-b946-4c7d-9891-336018b563ef.jpg\",\"img/0860/29a21a9f-54bb-4093-ad3f-04823ceaa89f.jpg\"]","trial_type":"similarity","trial_index":42,"time_elapsed":400454,"internal_node_id":"0.0-6.0-36.0"},{"sim_score":7,"rt":4959,"stimulus":"[\"img/0862/ad593cc7-cabe-4bb7-8e14-8a447a0717b4.jpg\",\"img/0864/6e846d43-94a6-4b37-a268-65eda979f052.jpg\"]","trial_type":"similarity","trial_index":43,"time_elapsed":406416,"internal_node_id":"0.0-6.0-37.0"},{"sim_score":1,"rt":8010,"stimulus":"[\"img/0766/71b81ebd-0937-4d7f-b8bf-c4e46a4728fd.jpg\",\"img/0866/bf14b5bd-fb55-47db-86b9-4f8aeb9a6dad.jpg\"]","trial_type":"similarity","trial_index":44,"time_elapsed":415429,"internal_node_id":"0.0-6.0-38.0"},{"sim_score":3,"rt":5566,"stimulus":"[\"img/0875/8521fd58-3b1e-4dc5-97ae-804edfa6734a.jpg\",\"img/0898/b2732712-71c2-45d8-834f-2b2ed5504910.jpg\"]","trial_type":"similarity","trial_index":45,"time_elapsed":421998,"internal_node_id":"0.0-6.0-39.0"},{"sim_score":5,"rt":5804,"stimulus":"[\"img/0766/d14acac4-7db1-4b07-8f8f-302437326fc0.jpg\",\"img/0769/8056889f-2b14-4782-bb25-b4e8896ab65b.jpg\"]","trial_type":"similarity","trial_index":46,"time_elapsed":428805,"internal_node_id":"0.0-6.0-40.0"},{"sim_score":3,"rt":4930,"stimulus":"[\"img/0874/1016b306-087c-4afc-aa08-fa527b28dc76.jpg\",\"img/0764/f9f890e6-3c2f-40cd-84e9-85e0b54cb28e.jpg\"]","trial_type":"similarity","trial_index":47,"time_elapsed":449920,"internal_node_id":"0.0-6.0-41.0"},{"sim_score":1,"rt":5391,"stimulus":"[\"img/0868/4e626425-63c8-484a-8a1d-e66ee4e0bef8.jpg\",\"img/0902/40d0b6ec-3907-4573-b227-e7d8e9cad1c3.jpg\"]","trial_type":"similarity","trial_index":48,"time_elapsed":456314,"internal_node_id":"0.0-6.0-42.0"},{"sim_score":1,"rt":5647,"stimulus":"[\"img/0875/3ecb367d-e9eb-4826-8aaa-7aa72fb98019.jpg\",\"img/0899/0adc0bc3-6fca-4078-be6f-d45ddf1653d5.jpg\"]","trial_type":"similarity","trial_index":49,"time_elapsed":462965,"internal_node_id":"0.0-6.0-43.0"},{"sim_score":5,"rt":5830,"stimulus":"[\"img/0866/02f5e6b9-52b7-448c-9708-5b460d0c9a23.jpg\",\"img/0860/71e1aad0-2cdf-43bb-94a4-a8c016997c30.jpg\"]","trial_type":"similarity","trial_index":50,"time_elapsed":469800,"internal_node_id":"0.0-6.0-44.0"},{"sim_score":1,"rt":5277,"stimulus":"[\"img/0766/aaec5f42-7f0a-4a16-aeca-488d757acbcc.jpg\",\"img/0903/72197c2b-403e-4a26-b391-f1aa8dea4b76.jpg\"]","trial_type":"similarity","trial_index":51,"time_elapsed":476080,"internal_node_id":"0.0-6.0-45.0"},{"sim_score":1,"rt":5672,"stimulus":"[\"img/0901/33b51a81-06d9-46d9-9d4f-5a2d6d6b8058.jpg\",\"img/0904/d23dd7be-7fe8-4435-82f7-bd592c01e6a1.jpg\"]","trial_type":"similarity","trial_index":52,"time_elapsed":482754,"internal_node_id":"0.0-6.0-46.0"},{"sim_score":3,"rt":6193,"stimulus":"[\"img/0758/d540bee6-b460-4c32-ac57-bc282742d7d4.jpg\",\"img/0902/0c760cc9-10ac-429e-8957-a7d51fc99683.jpg\"]","trial_type":"similarity","trial_index":53,"time_elapsed":489952,"internal_node_id":"0.0-6.0-47.0"},{"sim_score":7,"rt":5266,"stimulus":"[\"img/0764/17b088f8-3053-4140-b544-d15654cc79ef.jpg\",\"img/0764/5d6fa3ce-9083-410c-bbdb-336a49b94cfc.jpg\"]","trial_type":"similarity","trial_index":54,"time_elapsed":496221,"internal_node_id":"0.0-6.0-48.0"},{"sim_score":5,"rt":6544,"stimulus":"[\"img/0866/23a224f3-2012-4fc8-8e0f-3c36f8de27fd.jpg\",\"img/0902/8af4182a-9af9-4212-a436-9195555112d6.jpg\"]","trial_type":"similarity","trial_index":55,"time_elapsed":503768,"internal_node_id":"0.0-6.0-49.0"},{"sim_score":5,"rt":5532,"stimulus":"[\"img/0764/f713847b-4832-42d1-8fb3-e17e37fd745c.jpg\",\"img/0758/f61ecdf8-a7d4-4db0-b84d-be46f7cfaffc.jpg\"]","trial_type":"similarity","trial_index":56,"time_elapsed":510303,"internal_node_id":"0.0-6.0-50.0"},{"sim_score":7,"rt":5951,"stimulus":"[\"img/0898/08c72dac-f8ad-407a-9ce6-8c9a5d679c3a.jpg\",\"img/0894/9b1333fd-3561-43bf-aee5-99b7b7ca3dc3.jpg\"]","trial_type":"similarity","trial_index":57,"time_elapsed":517257,"internal_node_id":"0.0-6.0-51.0"},{"sim_score":5,"rt":7316,"stimulus":"[\"img/0875/5a716432-c6ca-4b1c-955a-2b8ac25198ee.jpg\",\"img/0866/a04d37f0-99dd-478a-b6c6-58b215138f84.jpg\"]","trial_type":"similarity","trial_index":58,"time_elapsed":525576,"internal_node_id":"0.0-6.0-52.0"},{"sim_score":5,"rt":6037,"stimulus":"[\"img/0904/9dd5708f-3f8b-46a9-b49f-2f2fab87b357.jpg\",\"img/0904/73920552-103b-4c9c-9ece-e0b8376b4504.jpg\"]","trial_type":"similarity","trial_index":59,"time_elapsed":532626,"internal_node_id":"0.0-6.0-53.0"},{"sim_score":7,"rt":5184,"stimulus":"[\"img/0769/75f7e514-0548-4329-b1e4-93c05e74f038.jpg\",\"img/0769/f2740c58-7c02-433f-920b-746b0b75435b.jpg\"]","trial_type":"similarity","trial_index":60,"time_elapsed":538816,"internal_node_id":"0.0-6.0-54.0"},{"sim_score":1,"rt":6417,"stimulus":"[\"img/0898/0af304a2-6a7a-4082-ab7c-4450cd08cc58.jpg\",\"img/0758/7fba58df-2a7a-4b76-8a8f-62739f97f271.jpg\"]","trial_type":"similarity","trial_index":61,"time_elapsed":546237,"internal_node_id":"0.0-6.0-55.0"},{"sim_score":3,"rt":5255,"stimulus":"[\"img/0769/76eaa4a3-dfe9-4dc1-9efb-caebe86264e1.jpg\",\"img/0902/b03fee99-d5ca-4bf8-871c-a4a743a39842.jpg\"]","trial_type":"similarity","trial_index":62,"time_elapsed":552496,"internal_node_id":"0.0-6.0-56.0"},{"sim_score":5,"rt":8288,"stimulus":"[\"img/0864/1ebbc554-99fa-49f9-8799-317375a79820.jpg\",\"img/0881/f62bdcd1-a4b7-4d48-83da-d9c9e01c8727.jpg\"]","trial_type":"similarity","trial_index":63,"time_elapsed":561788,"internal_node_id":"0.0-6.0-57.0"},{"sim_score":1,"rt":5936,"stimulus":"[\"img/0758/d41c06bf-ebaf-454b-91c6-1a17f917b659.jpg\",\"img/0868/d6d1f30d-4323-435a-b194-7892521bc57e.jpg\"]","trial_type":"similarity","trial_index":64,"time_elapsed":568726,"internal_node_id":"0.0-6.0-58.0"},{"sim_score":5,"rt":6081,"stimulus":"[\"img/0862/24cdc752-c2e5-4a17-86a6-6f2045d8553b.jpg\",\"img/0769/91acb237-65a3-4d0b-9748-af5c7b83d3c7.jpg\"]","trial_type":"similarity","trial_index":65,"time_elapsed":575810,"internal_node_id":"0.0-6.0-59.0"},{"sim_score":5,"rt":7506,"stimulus":"[\"img/0764/e42c1dc9-7831-4995-be19-7ca7b4d141fc.jpg\",\"img/0903/150cf64c-0bd2-4674-abbb-a1387cf1f3e9.jpg\"]","trial_type":"similarity","trial_index":66,"time_elapsed":584319,"internal_node_id":"0.0-6.0-60.0"},{"sim_score":3,"rt":6082,"stimulus":"[\"img/0899/d8f2dd94-570e-4e8c-a087-d96090fb9e8c.jpg\",\"img/0899/f58b8d2f-b19d-4b59-8b94-8834be92e4ba.jpg\"]","trial_type":"similarity","trial_index":67,"time_elapsed":591404,"internal_node_id":"0.0-6.0-61.0"},{"sim_score":3,"rt":5423,"stimulus":"[\"img/0860/c47fdead-eb02-4989-b078-26f4852f44fe.jpg\",\"img/0875/2c361b79-c3d1-4eda-812e-bf03192407bf.jpg\"]","trial_type":"similarity","trial_index":68,"time_elapsed":597830,"internal_node_id":"0.0-6.0-62.0"},{"sim_score":3,"rt":6249,"stimulus":"[\"img/0868/fd307a36-9a3a-47d7-ab7c-f810d0b35040.jpg\",\"img/0874/bf14b896-e930-4fd9-9c05-2e83317a2773.jpg\"]","trial_type":"similarity","trial_index":69,"time_elapsed":605082,"internal_node_id":"0.0-6.0-63.0"},{"sim_score":5,"rt":5812,"stimulus":"[\"img/0758/b76ceca7-95ac-46e4-ac13-da02c8e93be9.jpg\",\"img/0862/f23038d4-c366-4f70-979f-66b62362efa4.jpg\"]","trial_type":"similarity","trial_index":70,"time_elapsed":611897,"internal_node_id":"0.0-6.0-64.0"},{"sim_score":7,"rt":6110,"stimulus":"[\"img/0904/b5855d6a-7ef9-46ca-9215-6e9fa046e543.jpg\",\"img/0898/0c7dde4f-efce-4b7a-9387-6921635b7890.jpg\"]","trial_type":"similarity","trial_index":71,"time_elapsed":619010,"internal_node_id":"0.0-6.0-65.0"},{"sim_score":7,"rt":7073,"stimulus":"[\"img/0881/e046471a-35b4-4159-bbf7-3cfd201bef66.jpg\",\"img/0866/93a27239-8317-4e08-98ca-d8b1ff298e07.jpg\"]","trial_type":"similarity","trial_index":72,"time_elapsed":627086,"internal_node_id":"0.0-6.0-66.0"},{"sim_score":3,"rt":6918,"stimulus":"[\"img/0867/12264664-1860-46df-8c21-162b9817cdda.jpg\",\"img/0898/881e2a85-d5c2-49be-a0c6-8a6ce2c4af08.jpg\"]","trial_type":"similarity","trial_index":73,"time_elapsed":635007,"internal_node_id":"0.0-6.0-67.0"},{"sim_score":5,"rt":6290,"stimulus":"[\"img/0902/95a36b6b-9601-4fa5-8fd9-606ea62f9425.jpg\",\"img/0764/6c7fe363-2d37-418f-9e5e-a3273af5d4fb.jpg\"]","trial_type":"similarity","trial_index":74,"time_elapsed":642299,"internal_node_id":"0.0-6.0-68.0"},{"sim_score":7,"rt":6776,"stimulus":"[\"img/0875/03c3c331-738b-4446-af92-3d7386b08c2e.jpg\",\"img/0867/2e1a0b58-cdb1-4107-a14e-452530d7b9b0.jpg\"]","trial_type":"similarity","trial_index":75,"time_elapsed":650078,"internal_node_id":"0.0-6.0-69.0"},{"sim_score":7,"rt":5981,"stimulus":"[\"img/0766/60033a74-9919-47e5-913c-71d0d483e7e5.jpg\",\"img/0764/bd2eaa3e-95a9-4a59-a78e-3f81c766eea9.jpg\"]","trial_type":"similarity","trial_index":76,"time_elapsed":657062,"internal_node_id":"0.0-6.0-70.0"},{"sim_score":7,"rt":6084,"stimulus":"[\"img/0894/4739e06d-c31e-4bf1-bf91-c97fa9afb456.jpg\",\"img/0867/f8159067-056c-41f1-a136-c529fe5e970a.jpg\"]","trial_type":"similarity","trial_index":77,"time_elapsed":664149,"internal_node_id":"0.0-6.0-71.0"},{"sim_score":3,"rt":6731,"stimulus":"[\"img/0875/527ced51-8e53-4aab-ab05-86df219104c0.jpg\",\"img/0764/ba0c0955-acbb-457d-b1c2-f006b88121d5.jpg\"]","trial_type":"similarity","trial_index":78,"time_elapsed":671883,"internal_node_id":"0.0-6.0-72.0"},{"sim_score":7,"rt":5537,"stimulus":"[\"img/0867/98d8cd96-1476-4fe0-a3a3-04f875500a1b.jpg\",\"img/0866/be24ab58-230e-4db8-9f45-ff04c9aec6bb.jpg\"]","trial_type":"similarity","trial_index":79,"time_elapsed":678424,"internal_node_id":"0.0-6.0-73.0"},{"sim_score":1,"rt":5578,"stimulus":"[\"img/0903/71dbc325-b588-4297-a5cf-7f268a722ad9.jpg\",\"img/0758/2fa3e613-e676-4e6e-bd12-705327eeb3e1.jpg\"]","trial_type":"similarity","trial_index":80,"time_elapsed":685005,"internal_node_id":"0.0-6.0-74.0"},{"sim_score":1,"rt":5146,"stimulus":"[\"img/0766/51d3aab4-3d09-4dda-b99d-3dc7aaabc6f2.jpg\",\"img/0868/0d3abd3a-b6c3-4584-a9f7-e2da63748b3d.jpg\"]","trial_type":"similarity","trial_index":81,"time_elapsed":691154,"internal_node_id":"0.0-6.0-75.0"},{"sim_score":5,"rt":5204,"stimulus":"[\"img/0874/29830da7-be5f-44e5-b141-652a0ccf7269.jpg\",\"img/0766/0b48f9e0-7d37-4161-8adb-4e3f5b6b7583.jpg\"]","trial_type":"similarity","trial_index":82,"time_elapsed":697361,"internal_node_id":"0.0-6.0-76.0"},{"sim_score":1,"rt":5114,"stimulus":"[\"img/0881/f6bd3b96-dc40-4e99-8681-bc3a35cf896d.jpg\",\"img/0868/4a8a45ed-2c4f-421b-9564-409a33ecd26c.jpg\"]","trial_type":"similarity","trial_index":83,"time_elapsed":703478,"internal_node_id":"0.0-6.0-77.0"},{"sim_score":1,"rt":7728,"stimulus":"[\"img/0758/eabcd7a8-56ad-4fd2-bc24-90f6b7b33265.jpg\",\"img/0901/71e551a2-9ce2-409c-9c7c-dd556a0791e9.jpg\"]","trial_type":"similarity","trial_index":84,"time_elapsed":712210,"internal_node_id":"0.0-6.0-78.0"},{"sim_score":5,"rt":6773,"stimulus":"[\"img/0881/1407b85b-a1c6-45b1-9884-3b24203efadb.jpg\",\"img/0898/b3290bf9-215b-4b45-b21a-65bdf73f142f.jpg\"]","trial_type":"similarity","trial_index":85,"time_elapsed":719985,"internal_node_id":"0.0-6.0-79.0"},{"sim_score":1,"rt":6667,"stimulus":"[\"img/0867/8ba0c5a7-c7e4-42cf-a80a-543763b90779.jpg\",\"img/0758/6cd8c362-ae2a-41eb-80a3-3a4f7ace1530.jpg\"]","trial_type":"similarity","trial_index":86,"time_elapsed":727656,"internal_node_id":"0.0-6.0-80.0"},{"sim_score":7,"rt":5481,"stimulus":"[\"img/0769/6c0bac4c-5f59-43c7-898c-3ca93cf55cfe.jpg\",\"img/0899/ddf96ade-692e-4602-bd22-dedbb46401bc.jpg\"]","trial_type":"similarity","trial_index":87,"time_elapsed":734139,"internal_node_id":"0.0-6.0-81.0"},{"sim_score":7,"rt":5303,"stimulus":"[\"img/0903/47e39de8-6959-469f-8be9-6999a6db207c.jpg\",\"img/0903/f45a103c-9bfe-49fd-ad96-bdd8d2589195.jpg\"]","trial_type":"similarity","trial_index":88,"time_elapsed":740444,"internal_node_id":"0.0-6.0-82.0"},{"sim_score":3,"rt":5385,"stimulus":"[\"img/0867/5e07b34d-b40f-4b1c-ac10-49975bace45f.jpg\",\"img/0766/2da002a4-05c9-4f5c-9ed7-433b4183e273.jpg\"]","trial_type":"similarity","trial_index":89,"time_elapsed":761966,"internal_node_id":"0.0-6.0-83.0"},{"sim_score":2,"rt":8357,"stimulus":"[\"img/0902/10d99c89-71f7-4c81-a31e-dfc7c59f5232.jpg\",\"img/0867/f8488a47-94ee-4166-952c-44e16cf172f6.jpg\"]","trial_type":"similarity","trial_index":90,"time_elapsed":771326,"internal_node_id":"0.0-6.0-84.0"},{"sim_score":7,"rt":5288,"stimulus":"[\"img/0901/a6c90438-fa7c-4418-ac7c-16c2e772dd98.jpg\",\"img/0875/fb732ab5-013a-4366-9f65-27811ed157e9.jpg\"]","trial_type":"similarity","trial_index":91,"time_elapsed":777616,"internal_node_id":"0.0-6.0-85.0"},{"sim_score":7,"rt":6782,"stimulus":"[\"img/0764/cffc80b0-4a90-4acb-a530-6f480f3ca303.jpg\",\"img/0866/07c9c966-3c8d-40e7-8128-92b2acbaed5d.jpg\"]","trial_type":"similarity","trial_index":92,"time_elapsed":785400,"internal_node_id":"0.0-6.0-86.0"},{"sim_score":5,"rt":6680,"stimulus":"[\"img/0901/1b86f2fc-7a1d-4aa8-9252-114f92edef3b.jpg\",\"img/0894/1b3888e6-cf36-4c4a-a039-187aa5cb71ac.jpg\"]","trial_type":"similarity","trial_index":93,"time_elapsed":793083,"internal_node_id":"0.0-6.0-87.0"},{"sim_score":5,"rt":6127,"stimulus":"[\"img/0898/01bfe666-3510-4fc7-964f-d00d28732dc8.jpg\",\"img/0769/ecda2fb3-556b-43ba-8a67-e87dd75ff2b4.jpg\"]","trial_type":"similarity","trial_index":94,"time_elapsed":800213,"internal_node_id":"0.0-6.0-88.0"},{"sim_score":7,"rt":5323,"stimulus":"[\"img/0769/f6396414-6788-4d59-9683-de153298d89c.jpg\",\"img/0894/b2d2f66e-e480-46da-a02a-6d0c6b285d78.jpg\"]","trial_type":"similarity","trial_index":95,"time_elapsed":806540,"internal_node_id":"0.0-6.0-89.0"},{"sim_score":3,"rt":6584,"stimulus":"[\"img/0862/de9ad88c-b522-430a-8ee9-eb06a9f85df5.jpg\",\"img/0874/99f6563c-8a8d-4c1c-a41d-667b618c3fd5.jpg\"]","trial_type":"similarity","trial_index":96,"time_elapsed":814127,"internal_node_id":"0.0-6.0-90.0"},{"sim_score":5,"rt":10230,"stimulus":"[\"img/0894/a3d4170b-b7d8-40e3-955f-87e76ed745fc.jpg\",\"img/0766/d919cedb-f9b7-4f30-83bb-3e9c65001ceb.jpg\"]","trial_type":"similarity","trial_index":97,"time_elapsed":825359,"internal_node_id":"0.0-6.0-91.0"},{"sim_score":1,"rt":7546,"stimulus":"[\"img/0874/eba003b4-cdab-4eee-8bc3-f064c7d94165.jpg\",\"img/0867/aa05d113-fc19-4756-a8eb-7878f580bc92.jpg\"]","trial_type":"similarity","trial_index":98,"time_elapsed":833920,"internal_node_id":"0.0-6.0-92.0"},{"sim_score":1,"rt":5460,"stimulus":"[\"img/0899/f95cbdb4-f804-4f5d-ad76-373ad343e658.jpg\",\"img/0868/4bd5105a-d2c3-4f82-8c80-57196106ba53.jpg\"]","trial_type":"similarity","trial_index":99,"time_elapsed":840387,"internal_node_id":"0.0-6.0-93.0"},{"sim_score":5,"rt":6265,"stimulus":"[\"img/0903/b4a0f61e-a964-4b79-a9a7-f767a8f92f34.jpg\",\"img/0862/00c06b00-3b73-44e9-bc1e-c5aafb438321.jpg\"]","trial_type":"similarity","trial_index":100,"time_elapsed":847655,"internal_node_id":"0.0-6.0-94.0"},{"sim_score":7,"rt":5255,"stimulus":"[\"img/0899/7b7380d5-d2be-44e5-a09a-c1756f87ef71.jpg\",\"img/0766/00891401-e4c9-4ce1-bc19-f70740d174bc.jpg\"]","trial_type":"similarity","trial_index":101,"time_elapsed":853913,"internal_node_id":"0.0-6.0-95.0"},{"sim_score":7,"rt":4920,"stimulus":"[\"img/0867/db7e032f-162b-46f5-ae67-2b29679adee4.jpg\",\"img/0868/5fa7f9d0-f0e5-454c-8224-74d964818f56.jpg\"]","trial_type":"similarity","trial_index":102,"time_elapsed":859837,"internal_node_id":"0.0-6.0-96.0"},{"sim_score":5,"rt":6865,"stimulus":"[\"img/0862/f43ceabf-acc1-4107-b857-5d1849808f93.jpg\",\"img/0901/b123d109-47b4-4f9a-80c9-9bb16da42efa.jpg\"]","trial_type":"similarity","trial_index":103,"time_elapsed":867705,"internal_node_id":"0.0-6.0-97.0"},{"sim_score":1,"rt":8230,"stimulus":"[\"img/0875/f87b67d7-c33e-40d1-b281-248c4be1cb6e.jpg\",\"img/0766/6d32752d-aa05-40dc-9541-640b6e9d6fa1.jpg\"]","trial_type":"similarity","trial_index":104,"time_elapsed":876938,"internal_node_id":"0.0-6.0-98.0"},{"sim_score":5,"rt":5992,"stimulus":"[\"img/0758/a085b443-b5d7-4cb2-9ad4-b9dab0fc23f1.jpg\",\"img/0874/8cdb1c07-1c32-46d2-981c-3636560fa6e5.jpg\"]","trial_type":"similarity","trial_index":105,"time_elapsed":883933,"internal_node_id":"0.0-6.0-99.0"},{"sim_score":3,"rt":6613,"stimulus":"[\"img/0904/96e503ea-6630-4996-85f2-0237688ce441.jpg\",\"img/0868/e0aff734-077f-40dd-9781-74821abd3621.jpg\"]","trial_type":"similarity","trial_index":106,"time_elapsed":891549,"internal_node_id":"0.0-6.0-100.0"},{"sim_score":1,"rt":5325,"stimulus":"[\"img/0903/6f343da5-00d9-4d50-89d1-2ed24cdb8319.jpg\",\"img/0866/945c6710-d15b-4a5b-a8f6-69af0850357f.jpg\"]","trial_type":"similarity","trial_index":107,"time_elapsed":897877,"internal_node_id":"0.0-6.0-101.0"},{"sim_score":3,"rt":10930,"stimulus":"[\"img/0868/15dd6fd7-791e-4b53-b203-195d617521a4.jpg\",\"img/0769/48a1144d-fbda-4809-991b-fc8424a32ee4.jpg\"]","trial_type":"similarity","trial_index":108,"time_elapsed":909809,"internal_node_id":"0.0-6.0-102.0"},{"sim_score":6,"rt":11817,"stimulus":"[\"img/0902/01b41522-de46-4c3a-b0af-a61b2682b40e.jpg\",\"img/0899/66bf4113-ee12-426c-84d2-ea410b6c803e.jpg\"]","trial_type":"similarity","trial_index":109,"time_elapsed":922629,"internal_node_id":"0.0-6.0-103.0"},{"sim_score":2,"rt":8285,"stimulus":"[\"img/0868/83b4350a-3b70-4cea-b7f5-b5b56f3050a8.jpg\",\"img/0862/fad1d7c1-8187-43c3-942a-0fc12183e48e.jpg\"]","trial_type":"similarity","trial_index":110,"time_elapsed":931919,"internal_node_id":"0.0-6.0-104.0"},{"sim_score":6,"rt":7291,"stimulus":"[\"img/0903/f1fa0f8d-e62b-4b4a-a174-31a0fabfe61b.jpg\",\"img/0894/5f15154e-e72e-4ce5-aafb-bce6f0564006.jpg\"]","trial_type":"similarity","trial_index":111,"time_elapsed":940213,"internal_node_id":"0.0-6.0-105.0"},{"sim_score":6,"rt":5769,"stimulus":"[\"img/0864/e8bd659f-aa43-4748-877e-3118e8b4e189.jpg\",\"img/0874/ca76a855-4e77-4f2f-872a-0a718153e7ed.jpg\"]","trial_type":"similarity","trial_index":112,"time_elapsed":946985,"internal_node_id":"0.0-6.0-106.0"},{"sim_score":7,"rt":5868,"stimulus":"[\"img/0862/e0f1a4e9-e1b6-45f7-af67-89f334e6630d.jpg\",\"img/0902/a323b62d-2fd5-4ac8-acc6-35b768f3c3f2.jpg\"]","trial_type":"similarity","trial_index":113,"time_elapsed":953857,"internal_node_id":"0.0-6.0-107.0"},{"sim_score":7,"rt":5683,"stimulus":"[\"img/0904/da170c1b-9651-4f08-b231-2bdd1d9a046f.jpg\",\"img/0903/14f179a2-8786-48a2-8377-88d1d404341b.jpg\"]","trial_type":"similarity","trial_index":114,"time_elapsed":960543,"internal_node_id":"0.0-6.0-108.0"},{"sim_score":5,"rt":5648,"stimulus":"[\"img/0764/d7c215ab-ea9a-45be-8d5f-417d5b9a8a17.jpg\",\"img/0864/1d15626a-2f7c-410f-819c-0fa2c967e95e.jpg\"]","trial_type":"similarity","trial_index":115,"time_elapsed":967195,"internal_node_id":"0.0-6.0-109.0"},{"sim_score":3,"rt":6314,"stimulus":"[\"img/0866/620cd1aa-0800-4414-8f6e-90342e7a99ad.jpg\",\"img/0894/7f2f31fd-6618-41c6-b65a-0fd8b2851bc9.jpg\"]","trial_type":"similarity","trial_index":116,"time_elapsed":974512,"internal_node_id":"0.0-6.0-110.0"},{"sim_score":3,"rt":5660,"stimulus":"[\"img/0899/fd9efb43-701f-4cd6-baaa-4c38315f4bdc.jpg\",\"img/0903/5c6b1f57-b3a2-40f5-9fb1-82785e24b6a0.jpg\"]","trial_type":"similarity","trial_index":117,"time_elapsed":981174,"internal_node_id":"0.0-6.0-111.0"},{"sim_score":7,"rt":5037,"stimulus":"[\"img/0902/30c420f5-c714-4681-ae5a-c0ba8f636a26.jpg\",\"img/0904/0d17b811-063e-416e-a23c-3b3cfa4fcce5.jpg\"]","trial_type":"similarity","trial_index":118,"time_elapsed":987214,"internal_node_id":"0.0-6.0-112.0"},{"sim_score":5,"rt":4582,"stimulus":"[\"img/0864/4bd81bc6-c13d-46df-95a9-485886dc7c1b.jpg\",\"img/0860/4f695df5-afac-4da7-9875-fee39b0b24ad.jpg\"]","trial_type":"similarity","trial_index":119,"time_elapsed":992798,"internal_node_id":"0.0-6.0-113.0"},{"sim_score":7,"rt":5082,"stimulus":"[\"img/0860/c7047cd2-7cc1-41b6-8a34-c0986774975f.jpg\",\"img/0899/0e1d936a-dbe2-4afc-9f19-7b7a1ae6c9ed.jpg\"]","trial_type":"similarity","trial_index":120,"time_elapsed":998883,"internal_node_id":"0.0-6.0-114.0"},{"sim_score":5,"rt":5232,"stimulus":"[\"img/0881/ed4c971f-0873-4fc8-b6d6-e8bbd82f0bcc.jpg\",\"img/0903/97a42b34-5462-4665-88c7-83c014b33d24.jpg\"]","trial_type":"similarity","trial_index":121,"time_elapsed":1005117,"internal_node_id":"0.0-6.0-115.0"},{"sim_score":5,"rt":4840,"stimulus":"[\"img/0894/792c83e9-a747-4000-bc72-5663d2439edb.jpg\",\"img/0874/85eb9b8a-c4c6-4e5a-b8e7-363a87a82054.jpg\"]","trial_type":"similarity","trial_index":122,"time_elapsed":1010959,"internal_node_id":"0.0-6.0-116.0"},{"sim_score":4,"rt":6732,"stimulus":"[\"img/0881/b1a136f7-8511-4d3a-a0f6-3879acf1e1a1.jpg\",\"img/0862/ee3b7bff-4a70-4e84-9bea-4a565e456acb.jpg\"]","trial_type":"similarity","trial_index":123,"time_elapsed":1018694,"internal_node_id":"0.0-6.0-117.0"},{"sim_score":6,"rt":7396,"stimulus":"[\"img/0868/d98ca254-b195-477f-b57e-5760a2717db8.jpg\",\"img/0875/42910c99-5463-450a-a0f8-d4d060a11455.jpg\"]","trial_type":"similarity","trial_index":124,"time_elapsed":1027093,"internal_node_id":"0.0-6.0-118.0"},{"sim_score":6,"rt":9268,"stimulus":"[\"img/0860/9593362c-9fe5-4d12-9735-6000a11f6aa5.jpg\",\"img/0758/dd559618-7f09-4a07-8018-d311c4a5ea29.jpg\"]","trial_type":"similarity","trial_index":125,"time_elapsed":1037364,"internal_node_id":"0.0-6.0-119.0"},{"sim_score":5,"rt":7357,"stimulus":"[\"img/0864/87c467d3-abca-482f-ad80-3766c21b1bb3.jpg\",\"img/0875/a4935837-7d3c-4df6-88c1-36a94d4991ca.jpg\"]","trial_type":"similarity","trial_index":126,"time_elapsed":1045723,"internal_node_id":"0.0-6.0-120.0"},{"sim_score":2,"rt":6695,"stimulus":"[\"img/0898/04e39a7a-fcf6-4156-ab0e-f5871f335e1c.jpg\",\"img/0866/11a1d141-be5e-443c-98c1-a9d4d9e3dec0.jpg\"]","trial_type":"similarity","trial_index":127,"time_elapsed":1053422,"internal_node_id":"0.0-6.0-121.0"},{"sim_score":5,"rt":6571,"stimulus":"[\"img/0874/a3bc679d-619f-4db6-bb68-116dcb757d9c.jpg\",\"img/0904/09dac84f-3d1c-4445-a68e-d0389fdbf1e9.jpg\"]","trial_type":"similarity","trial_index":128,"time_elapsed":1060996,"internal_node_id":"0.0-6.0-122.0"},{"sim_score":7,"rt":4830,"stimulus":"[\"img/0904/56e73f28-7e64-489b-a161-e6b1a063878d.jpg\",\"img/0864/9b2490c5-a282-400a-9736-e1a0ecbf1cb7.jpg\"]","trial_type":"similarity","trial_index":129,"time_elapsed":1066829,"internal_node_id":"0.0-6.0-123.0"},{"sim_score":7,"rt":5648,"stimulus":"[\"img/0894/492d2f29-d7b9-4422-8be8-47fd58bfaa8b.jpg\",\"img/0902/51493fab-2a10-4385-aa88-bee3db441626.jpg\"]","trial_type":"similarity","trial_index":130,"time_elapsed":1073479,"internal_node_id":"0.0-6.0-124.0"},{"sim_score":1,"rt":4839,"stimulus":"[\"img/0868/293079b8-7e0c-4afd-a390-1e5d35fe3ded.jpg\",\"img/0864/300bb811-8b3c-4c42-8653-6097c3725197.jpg\"]","trial_type":"similarity","trial_index":131,"time_elapsed":1090631,"internal_node_id":"0.0-6.0-125.0"},{"sim_score":1,"rt":5792,"stimulus":"[\"img/0899/ad8268c5-8199-48d0-ad70-c5b6d6c599ec.jpg\",\"img/0866/8efcaa46-83ab-4dee-a35f-850402aa21ae.jpg\"]","trial_type":"similarity","trial_index":132,"time_elapsed":1097428,"internal_node_id":"0.0-6.0-126.0"},{"sim_score":6,"rt":4238,"stimulus":"[\"img/0875/5a7c4e35-6514-4e12-8879-d16071da4cd6.jpg\",\"img/0904/1d10df11-b5c8-4370-9a6b-097a7f965895.jpg\"]","trial_type":"similarity","trial_index":133,"time_elapsed":1102669,"internal_node_id":"0.0-6.0-127.0"},{"sim_score":2,"rt":5624,"stimulus":"[\"img/0867/bf560d4f-dee3-4f11-a385-705cc1aa5f3c.jpg\",\"img/0899/d60714ae-98d7-4564-8c98-94dba1351135.jpg\"]","trial_type":"similarity","trial_index":134,"time_elapsed":1109296,"internal_node_id":"0.0-6.0-128.0"},{"sim_score":1,"rt":4453,"stimulus":"[\"img/0901/875dedb9-24c9-4443-9f8c-85e97d70ee5a.jpg\",\"img/0867/1719a35d-f085-48c0-9099-16c94fe418b4.jpg\"]","trial_type":"similarity","trial_index":135,"time_elapsed":1114753,"internal_node_id":"0.0-6.0-129.0"},{"sim_score":4,"rt":6511,"stimulus":"[\"img/0864/c22faebd-9c53-47bc-ada3-b9a30c688e75.jpg\",\"img/0769/ebef2ddc-ba59-4e0e-97f8-927864eb5081.jpg\"]","trial_type":"similarity","trial_index":136,"time_elapsed":1122267,"internal_node_id":"0.0-6.0-130.0"},{"sim_score":2,"rt":5137,"stimulus":"[\"img/0903/45e2d600-57ff-4d69-b22c-0c7896cd38f0.jpg\",\"img/0868/8b0b8473-e2c0-4331-aa56-c3a5c29369da.jpg\"]","trial_type":"similarity","trial_index":137,"time_elapsed":1128407,"internal_node_id":"0.0-6.0-131.0"},{"sim_score":2,"rt":5519,"stimulus":"[\"img/0864/da39ad34-04e0-40d4-a724-c08d53e0ea09.jpg\",\"img/0867/a749dddb-69f0-44a6-acdc-2bf295cf6dcc.jpg\"]","trial_type":"similarity","trial_index":138,"time_elapsed":1134929,"internal_node_id":"0.0-6.0-132.0"},{"sim_score":5,"rt":8175,"stimulus":"[\"img/0901/1e23ffbd-19de-4c4f-aa23-c54aaa3319a3.jpg\",\"img/0860/e14d67c1-6d92-4f1e-9257-c8607159c19c.jpg\"]","trial_type":"similarity","trial_index":139,"time_elapsed":1144108,"internal_node_id":"0.0-6.0-133.0"},{"sim_score":6,"rt":6990,"stimulus":"[\"img/0881/f037e3b0-09cb-4a83-b2d9-6a71fe474e63.jpg\",\"img/0766/c23b5a20-e50f-4d85-841f-cf89212a4348.jpg\"]","trial_type":"similarity","trial_index":140,"time_elapsed":1152101,"internal_node_id":"0.0-6.0-134.0"},{"sim_score":4,"rt":6651,"stimulus":"[\"img/0903/2c7b4aed-6038-4aac-958a-e3e58341c313.jpg\",\"img/0864/65210d57-1153-4657-886a-32e758f49b4a.jpg\"]","trial_type":"similarity","trial_index":141,"time_elapsed":1159755,"internal_node_id":"0.0-6.0-135.0"},{"sim_score":5,"rt":5966,"stimulus":"[\"img/0758/65d426d6-3ff6-415d-8654-a43b83ecc4fe.jpg\",\"img/0894/e5edf723-72a5-4673-8441-6c1734a8929b.jpg\"]","trial_type":"similarity","trial_index":142,"time_elapsed":1166724,"internal_node_id":"0.0-6.0-136.0"},{"sim_score":5,"rt":5563,"stimulus":"[\"img/0769/0fe124d3-bcad-45f6-b64d-8f6eb8ee5251.jpg\",\"img/0860/5bff793e-cbd5-4d7e-b628-0ac2b0e30b64.jpg\"]","trial_type":"similarity","trial_index":143,"time_elapsed":1173290,"internal_node_id":"0.0-6.0-137.0"},{"sim_score":5,"rt":6173,"stimulus":"[\"img/0904/e9423a8c-f946-43ad-ab7b-931acef870e2.jpg\",\"img/0766/d5d38751-8fa5-476f-93e9-86ed2d9045ef.jpg\"]","trial_type":"similarity","trial_index":144,"time_elapsed":1180466,"internal_node_id":"0.0-6.0-138.0"},{"sim_score":5,"rt":5995,"stimulus":"[\"img/0868/1a62b2b2-18f5-466e-b564-5176a57c565e.jpg\",\"img/0860/f44ba3fb-03a2-42f0-8509-2c1ded493086.jpg\"]","trial_type":"similarity","trial_index":145,"time_elapsed":1187464,"internal_node_id":"0.0-6.0-139.0"},{"sim_score":7,"rt":8171,"stimulus":"[\"img/0758/d57c2592-a317-4f63-91be-91a3a9afd222.jpg\",\"img/0864/49150900-7f25-4ce8-8d10-9b47a71d1997.jpg\"]","trial_type":"similarity","trial_index":146,"time_elapsed":1196638,"internal_node_id":"0.0-6.0-140.0"},{"sim_score":7,"rt":5651,"stimulus":"[\"img/0867/f26f6b60-f772-4f4c-95a4-addc62cfd692.jpg\",\"img/0867/6e19c858-b606-45b2-a4c6-910a73f1d82c.jpg\"]","trial_type":"similarity","trial_index":147,"time_elapsed":1203293,"internal_node_id":"0.0-6.0-141.0"},{"sim_score":7,"rt":5984,"stimulus":"[\"img/0898/4184e5a2-84ea-4f36-9b42-ae58646f6f87.jpg\",\"img/0898/26c41340-15bd-4ead-8fe4-c0d0ddca09c2.jpg\"]","trial_type":"similarity","trial_index":148,"time_elapsed":1210280,"internal_node_id":"0.0-6.0-142.0"},{"sim_score":6,"rt":5839,"stimulus":"[\"img/0866/6f2a90d7-14f1-4f1b-bd64-fc0af6b9fe44.jpg\",\"img/0769/3c1efec9-f8fd-487d-8955-4be88e48c832.jpg\"]","trial_type":"similarity","trial_index":149,"time_elapsed":1217121,"internal_node_id":"0.0-6.0-143.0"},{"sim_score":7,"rt":5194,"stimulus":"[\"img/0860/18dfed73-e36b-4487-a8bd-0b8cff8e3668.jpg\",\"img/0898/993d8f2d-bef7-4251-a193-0f93a32b7763.jpg\"]","trial_type":"similarity","trial_index":150,"time_elapsed":1223320,"internal_node_id":"0.0-6.0-144.0"},{"sim_score":6,"rt":5011,"stimulus":"[\"img/0766/33519c22-aaa4-49d7-8d49-ab551db1945e.jpg\",\"img/0864/ea327690-500b-4137-bf91-451b309fe6a5.jpg\"]","trial_type":"similarity","trial_index":151,"time_elapsed":1229335,"internal_node_id":"0.0-6.0-145.0"},{"sim_score":3,"rt":8179,"stimulus":"[\"img/0860/c5ccd1a4-4bb7-48e1-9b25-72cfaf06909b.jpg\",\"img/0903/d987e220-f3e6-4b6d-a270-fe6757041f6d.jpg\"]","trial_type":"similarity","trial_index":152,"time_elapsed":1238517,"internal_node_id":"0.0-6.0-146.0"},{"sim_score":4,"rt":6769,"stimulus":"[\"img/0867/ac1797e4-8afc-48fe-b252-86d1defb1cca.jpg\",\"img/0764/39a9fc7e-b863-432c-9374-de43983f31a5.jpg\"]","trial_type":"similarity","trial_index":153,"time_elapsed":1246289,"internal_node_id":"0.0-6.0-147.0"},{"sim_score":1,"rt":6478,"stimulus":"[\"img/0769/662ab839-88d1-4ebf-af05-9b2980cad943.jpg\",\"img/0904/24fc38fe-842c-4831-ad8a-b1de5c25c0a8.jpg\"]","trial_type":"similarity","trial_index":154,"time_elapsed":1253770,"internal_node_id":"0.0-6.0-148.0"},{"sim_score":2,"rt":5837,"stimulus":"[\"img/0764/b8e23f4f-ff19-4472-ad9b-2f85548ebca0.jpg\",\"img/0901/7d4a3388-488d-4e9b-9d32-9d0def7aae8d.jpg\"]","trial_type":"similarity","trial_index":155,"time_elapsed":1260610,"internal_node_id":"0.0-6.0-149.0"},{"sim_score":3,"rt":7854,"stimulus":"[\"img/0904/63dd06dd-dccb-47ba-9740-eb33239e18a7.jpg\",\"img/0899/0433d056-aa30-4f8a-9aa1-abbb951e4edd.jpg\"]","trial_type":"similarity","trial_index":156,"time_elapsed":1269467,"internal_node_id":"0.0-6.0-150.0"},{"sim_score":2,"rt":6968,"stimulus":"[\"img/0862/57b6f83f-c763-4858-830d-102f97bfefbf.jpg\",\"img/0867/179ab87a-8eac-4c52-a41f-2e48e3120f09.jpg\"]","trial_type":"similarity","trial_index":157,"time_elapsed":1277438,"internal_node_id":"0.0-6.0-151.0"},{"sim_score":6,"rt":5549,"stimulus":"[\"img/0766/db750ba0-ce04-46e1-b601-e1b80212bad2.jpg\",\"img/0766/3c526a07-9e0a-4ae2-8142-00085f0127da.jpg\"]","trial_type":"similarity","trial_index":158,"time_elapsed":1283990,"internal_node_id":"0.0-6.0-152.0"},{"sim_score":6,"rt":6574,"stimulus":"[\"img/0862/1c20f772-3a51-4a80-aac0-f57dc9f86c28.jpg\",\"img/0894/7fb082e0-ce79-485c-9109-04367fb32275.jpg\"]","trial_type":"similarity","trial_index":159,"time_elapsed":1291567,"internal_node_id":"0.0-6.0-153.0"},{"sim_score":5,"rt":6126,"stimulus":"[\"img/0899/4408c14d-c168-4a7d-96f6-bc87bfb58f83.jpg\",\"img/0901/0f670aef-ac36-496d-8142-ee5fdb21dd82.jpg\"]","trial_type":"similarity","trial_index":160,"time_elapsed":1298698,"internal_node_id":"0.0-6.0-154.0"},{"sim_score":6,"rt":6467,"stimulus":"[\"img/0874/995f0332-0439-4eb4-add3-957335dbf6d9.jpg\",\"img/0874/ca23d307-fc00-4d7d-9106-584c6eb21b4d.jpg\"]","trial_type":"similarity","trial_index":161,"time_elapsed":1306167,"internal_node_id":"0.0-6.0-155.0"},{"sim_score":5,"rt":5635,"stimulus":"[\"img/0860/8277806e-b684-4474-8f7b-3fca946d7d4f.jpg\",\"img/0867/a498eef3-9fa4-4ab2-9778-4ae82ac40dc5.jpg\"]","trial_type":"similarity","trial_index":162,"time_elapsed":1312805,"internal_node_id":"0.0-6.0-156.0"},{"sim_score":1,"rt":8793,"stimulus":"[\"img/0901/2a953e50-d237-405c-a38d-5ed21494c968.jpg\",\"img/0881/84397291-bc14-4fbf-90e8-241e486ab0fe.jpg\"]","trial_type":"similarity","trial_index":163,"time_elapsed":1322600,"internal_node_id":"0.0-6.0-157.0"},{"sim_score":6,"rt":6475,"stimulus":"[\"img/0903/39365c8e-a733-4801-ac7d-b87e38c3784b.jpg\",\"img/0902/27b84584-948a-485b-8749-cb09929ef631.jpg\"]","trial_type":"similarity","trial_index":164,"time_elapsed":1330078,"internal_node_id":"0.0-6.0-158.0"},{"sim_score":5,"rt":5545,"stimulus":"[\"img/0860/31ff6436-98bf-4652-bed2-40f627229568.jpg\",\"img/0764/c01e2d65-6586-441b-bef5-3c96fcd85380.jpg\"]","trial_type":"similarity","trial_index":165,"time_elapsed":1336626,"internal_node_id":"0.0-6.0-159.0"},{"sim_score":2,"rt":5854,"stimulus":"[\"img/0902/fbef27fa-ac83-4936-ab78-9d1c20a383e1.jpg\",\"img/0875/5a1e5100-0d94-4fec-bbe9-ca9894d2cf8e.jpg\"]","trial_type":"similarity","trial_index":166,"time_elapsed":1343494,"internal_node_id":"0.0-6.0-160.0"},{"sim_score":2,"rt":5550,"stimulus":"[\"img/0898/c3cecf20-f7fd-45fa-97d0-dc0a63e8d6c0.jpg\",\"img/0862/92fcd8a4-8193-4a6a-ae09-dd4a6338b0df.jpg\"]","trial_type":"similarity","trial_index":167,"time_elapsed":1350052,"internal_node_id":"0.0-6.0-161.0"},{"sim_score":6,"rt":5437,"stimulus":"[\"img/0894/05161000-f476-499b-a878-c13c7f347fd9.jpg\",\"img/0875/34132396-d896-4c2d-8087-646dd867e769.jpg\"]","trial_type":"similarity","trial_index":168,"time_elapsed":1356491,"internal_node_id":"0.0-6.0-162.0"},{"sim_score":1,"rt":5926,"stimulus":"[\"img/0866/d493a2c8-66eb-44b4-be02-2f327b700b7c.jpg\",\"img/0864/e02eddb5-f468-499c-91bf-f7be3ffe979b.jpg\"]","trial_type":"similarity","trial_index":169,"time_elapsed":1363421,"internal_node_id":"0.0-6.0-163.0"},{"sim_score":2,"rt":8216,"stimulus":"[\"img/0766/27f54113-8561-4568-9ffe-0a1650ae65ec.jpg\",\"img/0862/d0ca4c78-fc35-46ed-bdcc-8e124283c53e.jpg\"]","trial_type":"similarity","trial_index":170,"time_elapsed":1372640,"internal_node_id":"0.0-6.0-164.0"},{"sim_score":4,"rt":4914,"stimulus":"[\"img/0866/a15b02be-11bb-43e3-b0e0-ecc3bd7dfc49.jpg\",\"img/0874/31e22c7c-99aa-40b1-bf03-dd73fa2df4d6.jpg\"]","trial_type":"similarity","trial_index":171,"time_elapsed":1378557,"internal_node_id":"0.0-6.0-165.0"},{"sim_score":5,"rt":7838,"stimulus":"[\"img/0862/ba89835a-408c-480b-8594-ed4ffa97eb5c.jpg\",\"img/0860/87039971-2210-4aab-93c0-8e9b5f1655b2.jpg\"]","trial_type":"similarity","trial_index":172,"time_elapsed":1387400,"internal_node_id":"0.0-6.0-166.0"},{"sim_score":5,"rt":6373,"stimulus":"[\"img/0766/ba35c0fc-4d5b-490d-959e-c94b279cdd02.jpg\",\"img/0901/effc03f6-8f9d-46db-a66c-16fc83891c5c.jpg\"]","trial_type":"similarity","trial_index":173,"time_elapsed":1400147,"internal_node_id":"0.0-6.0-167.0"},{"sim_score":7,"rt":7432,"stimulus":"[\"img/0862/064818ee-13d5-4618-bb24-21c7368ea278.jpg\",\"img/0862/47ed5efd-4ec9-4b74-bb4e-a5f5cf0c3e7d.jpg\"]","trial_type":"similarity","trial_index":174,"time_elapsed":1408581,"internal_node_id":"0.0-6.0-168.0"},{"sim_score":6,"rt":5158,"stimulus":"[\"img/0894/6aa5545f-fa7d-4286-bbaa-aaf34dc7ec96.jpg\",\"img/0764/b887d7c6-aa81-4637-af8e-05135757ac59.jpg\"]","trial_type":"similarity","trial_index":175,"time_elapsed":1414741,"internal_node_id":"0.0-6.0-169.0"},{"sim_score":5,"rt":5763,"stimulus":"[\"img/0874/adf9a8f1-c40b-402b-b95b-1e85a54a7b62.jpg\",\"img/0898/5f699581-3853-4547-856c-12f419ba5af7.jpg\"]","trial_type":"similarity","trial_index":176,"time_elapsed":1421508,"internal_node_id":"0.0-6.0-170.0"},{"sim_score":5,"rt":5177,"stimulus":"[\"img/0860/17b44a7d-c5ca-479f-9e87-f65a64f5c80e.jpg\",\"img/0766/a754e4b6-5019-4cf4-8f58-34c20547a1f5.jpg\"]","trial_type":"similarity","trial_index":177,"time_elapsed":1427689,"internal_node_id":"0.0-6.0-171.0"},{"sim_score":6,"rt":6122,"stimulus":"[\"img/0898/a114b375-cb89-44ba-9498-74213f1ecdee.jpg\",\"img/0864/66091c27-e588-4476-8af9-265dc6be4156.jpg\"]","trial_type":"similarity","trial_index":178,"time_elapsed":1434814,"internal_node_id":"0.0-6.0-172.0"},{"sim_score":5,"rt":5692,"stimulus":"[\"img/0881/667e2147-d457-4f32-aa5f-6ab86e5848f1.jpg\",\"img/0764/974d52cc-6318-4e7a-b294-2f3e92ff800f.jpg\"]","trial_type":"similarity","trial_index":179,"time_elapsed":1441508,"internal_node_id":"0.0-6.0-173.0"},{"sim_score":3,"rt":5454,"stimulus":"[\"img/0898/40f99fb2-64d2-4e72-8a7f-a1cf60741e69.jpg\",\"img/0868/09a9ef4d-d000-4cfa-a6aa-ebec7c2edeb4.jpg\"]","trial_type":"similarity","trial_index":180,"time_elapsed":1447965,"internal_node_id":"0.0-6.0-174.0"},{"sim_score":7,"rt":7418,"stimulus":"[\"img/0864/5f74a653-3bdc-4308-8cca-ac667dc22e1f.jpg\",\"img/0864/0f537697-a314-47c3-a8cc-8df23b7e536c.jpg\"]","trial_type":"similarity","trial_index":181,"time_elapsed":1456385,"internal_node_id":"0.0-6.0-175.0"},{"sim_score":1,"rt":6096,"stimulus":"[\"img/0899/06b0fc99-0581-461a-9913-d1a5a941ac61.jpg\",\"img/0862/53a9cf7c-93c4-41b9-952f-07d17f7a17b2.jpg\"]","trial_type":"similarity","trial_index":182,"time_elapsed":1463484,"internal_node_id":"0.0-6.0-176.0"},{"sim_score":2,"rt":6261,"stimulus":"[\"img/0875/dbdd643e-6d0e-4a5c-ab57-b9c29b9c981a.jpg\",\"img/0758/caa93da2-9edf-49fa-96b9-32dedd8f5078.jpg\"]","trial_type":"similarity","trial_index":183,"time_elapsed":1470748,"internal_node_id":"0.0-6.0-177.0"},{"sim_score":3,"rt":6234,"stimulus":"[\"img/0866/f756f7d1-9ad8-4a34-9ef6-7a443d705bfe.jpg\",\"img/0901/4f9cffe0-c0be-4d7f-bacd-9d51efd19b4a.jpg\"]","trial_type":"similarity","trial_index":184,"time_elapsed":1477985,"internal_node_id":"0.0-6.0-178.0"},{"sim_score":5,"rt":6245,"stimulus":"[\"img/0769/a3cfbdeb-acb3-4eac-87fb-4b117f42d4f8.jpg\",\"img/0874/7e4f2150-3b59-4a36-b5da-a4e0ba410531.jpg\"]","trial_type":"similarity","trial_index":185,"time_elapsed":1485233,"internal_node_id":"0.0-6.0-179.0"},{"sim_score":4,"rt":5586,"stimulus":"[\"img/0875/2e13d160-eea1-416b-aff1-d37ab99ecc1d.jpg\",\"img/0881/292e9b4b-fca0-4ba8-87f1-4048f9e37b7d.jpg\"]","trial_type":"similarity","trial_index":186,"time_elapsed":1491822,"internal_node_id":"0.0-6.0-180.0"},{"sim_score":6,"rt":6103,"stimulus":"[\"img/0866/9b38d691-1802-4959-ab3f-fc902f0e4ea6.jpg\",\"img/0868/77091fc7-a590-4ebb-b915-fdb2483a2399.jpg\"]","trial_type":"similarity","trial_index":187,"time_elapsed":1498928,"internal_node_id":"0.0-6.0-181.0"},{"sim_score":2,"rt":5661,"stimulus":"[\"img/0899/9de5e857-aa9a-4e0c-8ba2-46d79bd069a4.jpg\",\"img/0758/7ffbc76b-1fc1-432c-8f7e-9ec8d1b3f643.jpg\"]","trial_type":"similarity","trial_index":188,"time_elapsed":1505592,"internal_node_id":"0.0-6.0-182.0"},{"sim_score":2,"rt":10422,"stimulus":"[\"img/0874/767f289c-9814-4496-803f-745cc8913d1f.jpg\",\"img/0875/90da8d75-108a-44ad-b999-e21fee3860d3.jpg\"]","trial_type":"similarity","trial_index":189,"time_elapsed":1517017,"internal_node_id":"0.0-6.0-183.0"},{"sim_score":3,"rt":5197,"stimulus":"[\"img/0904/25365108-e038-4021-aac9-797f2063b337.jpg\",\"img/0862/847e5208-38ec-4f36-949c-296cdd7424ee.jpg\"]","trial_type":"similarity","trial_index":190,"time_elapsed":1523217,"internal_node_id":"0.0-6.0-184.0"},{"sim_score":4,"rt":5364,"stimulus":"[\"img/0902/417d8b4a-3c72-4adc-ac78-820e833316f2.jpg\",\"img/0766/fd74fdbb-ea40-4f3a-a091-38d08dfd636e.jpg\"]","trial_type":"similarity","trial_index":191,"time_elapsed":1529584,"internal_node_id":"0.0-6.0-185.0"},{"sim_score":5,"rt":6536,"stimulus":"[\"img/0758/335851a0-a55b-46d8-ab05-8463eda48349.jpg\",\"img/0769/bb8c4e53-6f32-4814-97ee-392d4decfb2e.jpg\"]","trial_type":"similarity","trial_index":192,"time_elapsed":1537124,"internal_node_id":"0.0-6.0-186.0"},{"sim_score":7,"rt":5943,"stimulus":"[\"img/0881/c24f3051-eefa-42de-aba6-fccb56d93c70.jpg\",\"img/0881/adc02f34-ce97-4aef-850f-00519df06fd7.jpg\"]","trial_type":"similarity","trial_index":193,"time_elapsed":1544070,"internal_node_id":"0.0-6.0-187.0"},{"sim_score":5,"rt":7137,"stimulus":"[\"img/0758/6e95579b-5166-487c-b8cb-e417c6a218e3.jpg\",\"img/0866/4a87911a-d5be-4d4e-ab8e-3d1f581bf507.jpg\"]","trial_type":"similarity","trial_index":194,"time_elapsed":1552210,"internal_node_id":"0.0-6.0-188.0"},{"sim_score":5,"rt":6611,"stimulus":"[\"img/0764/4952d0a0-c9be-471a-8ec7-94a37bf4051d.jpg\",\"img/0898/cd3aaa3f-efa9-4ab3-8d6f-a6a9273ddf42.jpg\"]","trial_type":"similarity","trial_index":195,"time_elapsed":1559824,"internal_node_id":"0.0-6.0-189.0"},{"sim_score":5,"rt":6288,"stimulus":"[\"img/0903/365f176c-25a4-4973-bd3c-279bf1b39476.jpg\",\"img/0901/148b747a-7392-437e-8823-33053c5dff3f.jpg\"]","trial_type":"similarity","trial_index":196,"time_elapsed":1567114,"internal_node_id":"0.0-6.0-190.0"},{"sim_score":6,"rt":5944,"stimulus":"[\"img/0902/af40b98b-3d23-4d95-b401-49ba5783ce39.jpg\",\"img/0898/81b08535-2020-4c15-9ce4-2f1e460755ae.jpg\"]","trial_type":"similarity","trial_index":197,"time_elapsed":1574061,"internal_node_id":"0.0-6.0-191.0"},{"sim_score":3,"rt":6190,"stimulus":"[\"img/0864/ef9cbca0-4be8-435d-ad49-977259e80409.jpg\",\"img/0901/a9b9c0a0-8aed-4888-a78a-65fb7e764d13.jpg\"]","trial_type":"similarity","trial_index":198,"time_elapsed":1581254,"internal_node_id":"0.0-6.0-192.0"},{"sim_score":6,"rt":5052,"stimulus":"[\"img/0894/5ff3c4f6-52e2-4075-8679-be0312e59703.jpg\",\"img/0881/f7a8cc63-8842-40a4-9ff8-fe530310d62c.jpg\"]","trial_type":"similarity","trial_index":199,"time_elapsed":1587309,"internal_node_id":"0.0-6.0-193.0"},{"sim_score":7,"rt":5789,"stimulus":"[\"img/0868/7b212364-ff5f-4e28-9241-7eb6ea00161b.jpg\",\"img/0868/3a62db2d-97e9-44a3-b8e3-a48c6f0e423b.jpg\"]","trial_type":"similarity","trial_index":200,"time_elapsed":1594101,"internal_node_id":"0.0-6.0-194.0"},{"sim_score":7,"rt":4896,"stimulus":"[\"img/0899/8abe6c69-822c-436c-9bf2-96c818b49ba5.jpg\",\"img/0764/50f1b062-d608-4bc0-ab25-b872dcf2ed93.jpg\"]","trial_type":"similarity","trial_index":201,"time_elapsed":1600000,"internal_node_id":"0.0-6.0-195.0"},{"sim_score":6,"rt":4869,"stimulus":"[\"img/0881/b549bc99-a61c-4450-bab5-9efc3a197bf0.jpg\",\"img/0904/2c98dc56-88d1-4fb5-a999-b6a7861f65f0.jpg\"]","trial_type":"similarity","trial_index":202,"time_elapsed":1605872,"internal_node_id":"0.0-6.0-196.0"},{"sim_score":4,"rt":6113,"stimulus":"[\"img/0864/a248adb3-c70b-4652-b7a3-776d2a1e904b.jpg\",\"img/0902/12452bb1-b8c0-4e4d-ad4d-47e279e5933c.jpg\"]","trial_type":"similarity","trial_index":203,"time_elapsed":1612989,"internal_node_id":"0.0-6.0-197.0"},{"sim_score":7,"rt":7881,"stimulus":"[\"img/0894/2d2db7b3-e8a3-499b-b63a-14f51bf73882.jpg\",\"img/0904/2fd488e9-960f-41f7-8a44-33375f7d5051.jpg\"]","trial_type":"similarity","trial_index":204,"time_elapsed":1621873,"internal_node_id":"0.0-6.0-198.0"},{"sim_score":7,"rt":6065,"stimulus":"[\"img/0901/7c16dd9c-44ad-4d5b-990c-6a0b9b48b1b1.jpg\",\"img/0901/12da1841-e611-435c-9719-109413d536a8.jpg\"]","trial_type":"similarity","trial_index":205,"time_elapsed":1628940,"internal_node_id":"0.0-6.0-199.0"},{"sim_score":6,"rt":6859,"stimulus":"[\"img/0894/8cadb87a-7001-4e47-99fb-1867bebf1668.jpg\",\"img/0860/8a92e21b-6a32-4e4a-a445-2d5a487ed0a4.jpg\"]","trial_type":"similarity","trial_index":206,"time_elapsed":1636803,"internal_node_id":"0.0-6.0-200.0"},{"sim_score":6,"rt":5971,"stimulus":"[\"img/0898/661621d4-a14e-487c-8c74-354134a29710.jpg\",\"img/0903/aa842abe-6fa3-448a-bf71-88d3ad28663b.jpg\"]","trial_type":"similarity","trial_index":207,"time_elapsed":1643776,"internal_node_id":"0.0-6.0-201.0"},{"sim_score":1,"rt":6623,"stimulus":"[\"img/0864/3651d070-2fc5-4848-b6a6-088a2d9ac5c9.jpg\",\"img/0894/43216a7f-27bc-4b5a-8841-d122a30da9d9.jpg\"]","trial_type":"similarity","trial_index":208,"time_elapsed":1651401,"internal_node_id":"0.0-6.0-202.0"},{"sim_score":3,"rt":5398,"stimulus":"[\"img/0874/93d1f8dc-acf2-4f03-bd8d-8ec35df276ed.jpg\",\"img/0860/524b2e98-5767-4d53-942c-ebae6925659b.jpg\"]","trial_type":"similarity","trial_index":209,"time_elapsed":1657802,"internal_node_id":"0.0-6.0-203.0"},{"sim_score":3,"rt":9547,"stimulus":"[\"img/0862/f188d4f0-76a4-4102-818c-a209969d73a5.jpg\",\"img/0875/99698b4d-b4a1-44bc-8c83-8ea755bbbf61.jpg\"]","trial_type":"similarity","trial_index":210,"time_elapsed":1668352,"internal_node_id":"0.0-6.0-204.0"},{"sim_score":5,"rt":7684,"stimulus":"[\"img/0867/26611f4e-d694-4460-b7e2-43c62753ddc3.jpg\",\"img/0881/33d65d80-8a8e-4ecf-852d-0ad7725c17a2.jpg\"]","trial_type":"similarity","trial_index":211,"time_elapsed":1677039,"internal_node_id":"0.0-6.0-205.0"},{"sim_score":6,"rt":5444,"stimulus":"[\"img/0901/a373612d-67e2-4fec-9764-21d3d6ef6359.jpg\",\"img/0902/418b716e-63e5-4c77-93e9-95b1f5a3ddf0.jpg\"]","trial_type":"similarity","trial_index":212,"time_elapsed":1683486,"internal_node_id":"0.0-6.0-206.0"},{"sim_score":7,"rt":6377,"stimulus":"[\"img/0899/00715b3f-851b-420b-a26b-d7f79f7759a9.jpg\",\"img/0864/b3c4e378-28f0-4699-9338-2a257b4bca04.jpg\"]","trial_type":"similarity","trial_index":213,"time_elapsed":1690868,"internal_node_id":"0.0-6.0-207.0"},{"sim_score":2,"rt":6173,"stimulus":"[\"img/0901/a2d7b2f6-396b-4d91-8403-de5361c74af7.jpg\",\"img/0769/9ea9ceb6-049e-4ad9-be8f-00645cd35803.jpg\"]","trial_type":"similarity","trial_index":214,"time_elapsed":1698043,"internal_node_id":"0.0-6.0-208.0"},{"sim_score":6,"rt":5521,"stimulus":"[\"img/0902/d1083f2c-5520-44ec-81a8-3f856fbf0e80.jpg\",\"img/0902/af45fe42-178c-4c1a-99ef-256e87e3b092.jpg\"]","trial_type":"similarity","trial_index":215,"time_elapsed":1710297,"internal_node_id":"0.0-6.0-209.0"},{"view_history":"[{\"page_index\":0,\"viewing_time\":5669}]","rt":5670,"trial_type":"instructions","trial_index":216,"time_elapsed":1716967,"internal_node_id":"0.0-7.0"},{"rt":15856,"responses":"{\"Q0\":\"Yellow Warbler\"}","answer":["Nashville Warbler"],"trial_type":"image-multi-choice","trial_index":217,"time_elapsed":1733838,"internal_node_id":"0.0-8.0-0.0"},{"rt":16523,"responses":"{\"Q0\":\"Black-and-white Warbler\"}","answer":["Black-and-white Warbler"],"trial_type":"image-multi-choice","trial_index":218,"time_elapsed":1751371,"internal_node_id":"0.0-8.0-1.0"},{"rt":20224,"responses":"{\"Q0\":\"Vesper Sparrow\"}","answer":["Townsend's Warbler"],"trial_type":"image-multi-choice","trial_index":219,"time_elapsed":1772605,"internal_node_id":"0.0-8.0-2.0"},{"rt":12592,"responses":"{\"Q0\":\"Magnolia Warbler\"}","answer":["Lark Sparrow"],"trial_type":"image-multi-choice","trial_index":220,"time_elapsed":1786206,"internal_node_id":"0.0-8.0-3.0"},{"rt":13830,"responses":"{\"Q0\":\"Yellow Warbler\"}","answer":["Yellow Warbler"],"trial_type":"image-multi-choice","trial_index":221,"time_elapsed":1801045,"internal_node_id":"0.0-8.0-4.0"},{"rt":8043,"responses":"{\"Q0\":\"Townsend's Warbler\"}","answer":["Orange-crowned Warbler"],"trial_type":"image-multi-choice","trial_index":222,"time_elapsed":1810099,"internal_node_id":"0.0-8.0-5.0"},{"rt":15477,"responses":"{\"Q0\":\"Song Sparrow\"}","answer":["White-throated Sparrow"],"trial_type":"image-multi-choice","trial_index":223,"time_elapsed":1826588,"internal_node_id":"0.0-8.0-6.0"},{"rt":15467,"responses":"{\"Q0\":\"Ovenbird\"}","answer":["Fox Sparrow"],"trial_type":"image-multi-choice","trial_index":224,"time_elapsed":1843065,"internal_node_id":"0.0-8.0-7.0"},{"rt":13423,"responses":"{\"Q0\":\"Swamp Sparrow\"}","answer":["Song Sparrow"],"trial_type":"image-multi-choice","trial_index":225,"time_elapsed":1857498,"internal_node_id":"0.0-8.0-8.0"},{"rt":10690,"responses":"{\"Q0\":\"Blackburnian Warbler\"}","answer":["Blackburnian Warbler"],"trial_type":"image-multi-choice","trial_index":226,"time_elapsed":1869197,"internal_node_id":"0.0-8.0-9.0"},{"rt":8117,"responses":"{\"Q0\":\"Tennessee Warbler\"}","answer":["Vesper Sparrow"],"trial_type":"image-multi-choice","trial_index":227,"time_elapsed":1878325,"internal_node_id":"0.0-8.0-10.0"},{"rt":8419,"responses":"{\"Q0\":\"Northern Waterthrush\"}","answer":["White-crowned Sparrow"],"trial_type":"image-multi-choice","trial_index":228,"time_elapsed":1887754,"internal_node_id":"0.0-8.0-11.0"},{"rt":14360,"responses":"{\"Q0\":\"American Tree Sparrow\"}","answer":["American Tree Sparrow"],"trial_type":"image-multi-choice","trial_index":229,"time_elapsed":1903125,"internal_node_id":"0.0-8.0-12.0"},{"rt":17515,"responses":"{\"Q0\":\"Vesper Sparrow\"}","answer":["Tennessee Warbler"],"trial_type":"image-multi-choice","trial_index":230,"time_elapsed":1921651,"internal_node_id":"0.0-8.0-13.0"},{"rt":12329,"responses":"{\"Q0\":\"Black-and-white Warbler\"}","answer":["Magnolia Warbler"],"trial_type":"image-multi-choice","trial_index":231,"time_elapsed":1934993,"internal_node_id":"0.0-8.0-14.0"},{"rt":7333,"responses":"{\"Q0\":\"Swamp Sparrow\"}","answer":["Northern Waterthrush"],"trial_type":"image-multi-choice","trial_index":232,"time_elapsed":1943337,"internal_node_id":"0.0-8.0-15.0"},{"rt":17012,"responses":"{\"Q0\":\"White-crowned Sparrow\"}","answer":["Chipping Sparrow"],"trial_type":"image-multi-choice","trial_index":233,"time_elapsed":1961360,"internal_node_id":"0.0-8.0-16.0"},{"rt":14950,"responses":"{\"Q0\":\"Vesper Sparrow\"}","answer":["Swamp Sparrow"],"trial_type":"image-multi-choice","trial_index":234,"time_elapsed":1977322,"internal_node_id":"0.0-8.0-17.0"},{"rt":12280,"responses":"{\"Q0\":\"Nashville Warbler\"}","answer":["Lincoln's Sparrow"],"trial_type":"image-multi-choice","trial_index":235,"time_elapsed":1990613,"internal_node_id":"0.0-8.0-18.0"},{"rt":21031,"responses":"{\"Q0\":\"Lark Sparrow\"}","answer":["Ovenbird"],"trial_type":"image-multi-choice","trial_index":236,"time_elapsed":2012655,"internal_node_id":"0.0-8.0-19.0"}]