"view_history","rt","trial_type","trial_index","time_elapsed","internal_node_id","sim_score","stimulus","responses","answer"
"[{""page_index"":0,""viewing_time"":62414}]","62415","instructions","0","62417","0.0-0.0","","","",""
"","10686","similarity_demo","1","74114","0.0-1.0","5","[""img/866.jpg"",""img/868.jpg""]","",""
"[{""page_index"":0,""viewing_time"":5850}]","5850","instructions","2","80969","0.0-2.0","","","",""
"","7094","similarity_demo","3","89070","0.0-3.0","3","[""img/766.jpg"",""img/867.jpg""]","",""
"[{""page_index"":0,""viewing_time"":3252}]","3252","instructions","4","93323","0.0-4.0","","","",""
"[{""page_index"":0,""viewing_time"":12972}]","12972","instructions","5","107297","0.0-5.0","","","",""
"","7717","similarity","6","116023","0.0-6.0-0.0","2","[""img/0868/09a9ef4d-d000-4cfa-a6aa-ebec7c2edeb4.jpg"",""img/0901/00acf6c1-b66e-4060-bb04-4caf29b5a8b0.jpg""]","",""
"","3667","similarity","7","120694","0.0-6.0-1.0","2","[""img/0769/35364db7-e0d5-40ef-93dc-faf9dfb95136.jpg"",""img/0867/ac1797e4-8afc-48fe-b252-86d1defb1cca.jpg""]","",""
"","2730","similarity","8","124427","0.0-6.0-2.0","1","[""img/0766/6d32752d-aa05-40dc-9541-640b6e9d6fa1.jpg"",""img/0898/04e39a7a-fcf6-4156-ab0e-f5871f335e1c.jpg""]","",""
"","5302","similarity","9","130735","0.0-6.0-3.0","3","[""img/0902/24d10fe7-314f-4d5a-8c7b-b43121bba0a4.jpg"",""img/0881/33d65d80-8a8e-4ecf-852d-0ad7725c17a2.jpg""]","",""
"","4623","similarity","10","136362","0.0-6.0-4.0","5","[""img/0894/767a0eec-1064-46b1-b1aa-dfa02b0cd74e.jpg"",""img/0894/7f2f31fd-6618-41c6-b65a-0fd8b2851bc9.jpg""]","",""
"","3324","similarity","11","140691","0.0-6.0-5.0","5","[""img/0874/adf9a8f1-c40b-402b-b95b-1e85a54a7b62.jpg"",""img/0899/51a7a498-98c7-42d7-bca8-bc2d8f0b5831.jpg""]","",""
"","3025","similarity","12","144721","0.0-6.0-6.0","5","[""img/0904/09934646-45d2-4147-8fec-64a22a5ac822.jpg"",""img/0764/7f4ee8e3-9315-4a57-be7d-db8454b33766.jpg""]","",""
"","3737","similarity","13","149461","0.0-6.0-7.0","6","[""img/0899/0433d056-aa30-4f8a-9aa1-abbb951e4edd.jpg"",""img/0898/ec565187-2e31-4fdd-9a5c-153d0c789ae0.jpg""]","",""
"","4837","similarity","14","155302","0.0-6.0-8.0","4","[""img/0874/7e4f2150-3b59-4a36-b5da-a4e0ba410531.jpg"",""img/0903/4cbdc464-e562-4ec2-9bb6-15f894fdf528.jpg""]","",""
"","4114","similarity","15","160424","0.0-6.0-9.0","7","[""img/0881/f62bdcd1-a4b7-4d48-83da-d9c9e01c8727.jpg"",""img/0758/335851a0-a55b-46d8-ab05-8463eda48349.jpg""]","",""
"","3211","similarity","16","164638","0.0-6.0-10.0","5","[""img/0898/40f99fb2-64d2-4e72-8a7f-a1cf60741e69.jpg"",""img/0901/443f2e59-199b-4f7b-9de9-c44ad97326a5.jpg""]","",""
"","3766","similarity","17","169408","0.0-6.0-11.0","6","[""img/0903/81368973-de81-46f4-844f-b901f3bfd66d.jpg"",""img/0769/04347740-f8f6-48bb-887a-f68babd0a0d4.jpg""]","",""
"","4860","similarity","18","175276","0.0-6.0-12.0","2","[""img/0764/56441045-b648-4ede-9632-3e9c0227080b.jpg"",""img/0868/fd307a36-9a3a-47d7-ab7c-f810d0b35040.jpg""]","",""
"","4636","similarity","19","180917","0.0-6.0-13.0","2","[""img/0867/a498eef3-9fa4-4ab2-9778-4ae82ac40dc5.jpg"",""img/0903/2c7b4aed-6038-4aac-958a-e3e58341c313.jpg""]","",""
"","3909","similarity","20","185830","0.0-6.0-14.0","2","[""img/0766/09f646c8-a69e-4ed3-879c-8d29b04ad7f9.jpg"",""img/0758/eabcd7a8-56ad-4fd2-bc24-90f6b7b33265.jpg""]","",""
"","3327","similarity","21","190161","0.0-6.0-15.0","3","[""img/0902/3b243e54-0803-4c29-af42-4037c2118495.jpg"",""img/0860/18dfed73-e36b-4487-a8bd-0b8cff8e3668.jpg""]","",""
"","3820","similarity","22","194985","0.0-6.0-16.0","1","[""img/0769/180213e5-1e50-4b4e-87b6-add77ba04d39.jpg"",""img/0875/d59ff733-eaff-4ee2-9443-06954dd0bcb6.jpg""]","",""
"","2999","similarity","23","198990","0.0-6.0-17.0","3","[""img/0904/06dacdc5-2206-4fb8-92b7-88042d22833c.jpg"",""img/0866/23a224f3-2012-4fc8-8e0f-3c36f8de27fd.jpg""]","",""
"","3870","similarity","24","203863","0.0-6.0-18.0","7","[""img/0875/5a716432-c6ca-4b1c-955a-2b8ac25198ee.jpg"",""img/0875/2e13d160-eea1-416b-aff1-d37ab99ecc1d.jpg""]","",""
"","3688","similarity","25","208554","0.0-6.0-19.0","7","[""img/0758/6e95579b-5166-487c-b8cb-e417c6a218e3.jpg"",""img/0758/3ddd05d3-557e-4ee7-8b78-9d2d681d8ae2.jpg""]","",""
"","4161","similarity","26","213722","0.0-6.0-20.0","3","[""img/0902/d5e25767-e8ec-45f3-ac0a-7b4a6f7a9edc.jpg"",""img/0874/767f289c-9814-4496-803f-745cc8913d1f.jpg""]","",""
"","4614","similarity","27","219344","0.0-6.0-21.0","5","[""img/0764/ca9829fe-aaf8-45b8-b98a-6bae751c63dd.jpg"",""img/0769/6c0bac4c-5f59-43c7-898c-3ca93cf55cfe.jpg""]","",""
"","3528","similarity","28","223876","0.0-6.0-22.0","1","[""img/0901/f1116359-1ff1-4638-b3b3-700918d36d18.jpg"",""img/0874/3ce41e7c-40c8-4d58-a546-171114521796.jpg""]","",""
"","5498","similarity","29","230382","0.0-6.0-23.0","1","[""img/0875/fb732ab5-013a-4366-9f65-27811ed157e9.jpg"",""img/0903/39365c8e-a733-4801-ac7d-b87e38c3784b.jpg""]","",""
"","3755","similarity","30","235146","0.0-6.0-24.0","3","[""img/0769/c34b7763-8ff2-46d5-9e92-f1d8f3bedbd8.jpg"",""img/0881/4bd34581-94d8-4e88-8c89-5cef864ca3be.jpg""]","",""
"","4949","similarity","31","241099","0.0-6.0-25.0","1","[""img/0867/2e1a0b58-cdb1-4107-a14e-452530d7b9b0.jpg"",""img/0904/2f88ce53-02d0-4f95-a082-182c56a0eeb4.jpg""]","",""
"","3563","similarity","32","245669","0.0-6.0-26.0","5","[""img/0860/b03b963d-949b-4d8d-b19c-4950c89eeca2.jpg"",""img/0881/f6bd3b96-dc40-4e99-8681-bc3a35cf896d.jpg""]","",""
"","4200","similarity","33","250874","0.0-6.0-27.0","7","[""img/0866/a15b02be-11bb-43e3-b0e0-ecc3bd7dfc49.jpg"",""img/0866/6f2a90d7-14f1-4f1b-bd64-fc0af6b9fe44.jpg""]","",""
"","3542","similarity","34","255419","0.0-6.0-28.0","2","[""img/0764/a86eed5b-d0af-4c3f-8c7a-26e98e98cf1a.jpg"",""img/0862/57b6f83f-c763-4858-830d-102f97bfefbf.jpg""]","",""
"","4760","similarity","35","261183","0.0-6.0-29.0","3","[""img/0904/4d7d70a3-9477-4921-bda0-f9531d0a5c5b.jpg"",""img/0758/e38fd80d-18d0-42f3-b848-f930788e8bd7.jpg""]","",""
"","3097","similarity","36","265289","0.0-6.0-30.0","5","[""img/0894/38cf335f-f76f-4349-8d65-e20cd6859565.jpg"",""img/0899/66bf4113-ee12-426c-84d2-ea410b6c803e.jpg""]","",""
"","3229","similarity","37","269523","0.0-6.0-31.0","5","[""img/0860/5bff793e-cbd5-4d7e-b628-0ac2b0e30b64.jpg"",""img/0904/ba8e689e-9ca6-4608-a2a1-3b0940666ae6.jpg""]","",""
"","3770","similarity","38","274296","0.0-6.0-32.0","7","[""img/0874/99f6563c-8a8d-4c1c-a41d-667b618c3fd5.jpg"",""img/0881/0c7068da-d0d9-4103-bda1-74ef7a2b32c3.jpg""]","",""
"","3830","similarity","39","279131","0.0-6.0-33.0","2","[""img/0881/e046471a-35b4-4159-bbf7-3cfd201bef66.jpg"",""img/0899/00715b3f-851b-420b-a26b-d7f79f7759a9.jpg""]","",""
"","4333","similarity","40","284469","0.0-6.0-34.0","5","[""img/0866/d266fece-59b3-46fa-b69f-96f6efb81b59.jpg"",""img/0862/847e5208-38ec-4f36-949c-296cdd7424ee.jpg""]","",""
"","3280","similarity","41","288755","0.0-6.0-35.0","3","[""img/0868/83b4350a-3b70-4cea-b7f5-b5b56f3050a8.jpg"",""img/0894/661b9f9f-4bde-487a-b1ed-87085fde6948.jpg""]","",""
"","4370","similarity","42","294134","0.0-6.0-36.0","7","[""img/0860/524b2e98-5767-4d53-942c-ebae6925659b.jpg"",""img/0860/5383b320-1518-4095-a58e-5cc1ae30b64c.jpg""]","",""
"","2621","similarity","43","297761","0.0-6.0-37.0","5","[""img/0862/99a99e39-8355-44ec-b993-e7bcec111e1c.jpg"",""img/0864/e8bd659f-aa43-4748-877e-3118e8b4e189.jpg""]","",""
"","3296","similarity","44","302063","0.0-6.0-38.0","1","[""img/0766/fd74fdbb-ea40-4f3a-a091-38d08dfd636e.jpg"",""img/0866/d493a2c8-66eb-44b4-be02-2f327b700b7c.jpg""]","",""
"","3742","similarity","45","306808","0.0-6.0-39.0","2","[""img/0875/527ced51-8e53-4aab-ab05-86df219104c0.jpg"",""img/0898/a8f16b02-e19f-423b-86c3-a36562ae1f9b.jpg""]","",""
"","4014","similarity","46","311828","0.0-6.0-40.0","7","[""img/0766/b84598d0-5b41-4841-88b0-b441b48289f5.jpg"",""img/0769/d1be2815-fa79-46e8-b5c3-7d81caaca490.jpg""]","",""
"","3756","similarity","47","335228","0.0-6.0-41.0","2","[""img/0874/eba003b4-cdab-4eee-8bc3-f064c7d94165.jpg"",""img/0764/4eff630a-6426-4f8d-b2ba-b4d9842a0962.jpg""]","",""
"","4530","similarity","48","340765","0.0-6.0-42.0","4","[""img/0868/4bd5105a-d2c3-4f82-8c80-57196106ba53.jpg"",""img/0902/01b41522-de46-4c3a-b0af-a61b2682b40e.jpg""]","",""
"","5376","similarity","49","347144","0.0-6.0-43.0","5","[""img/0875/03c3c331-738b-4446-af92-3d7386b08c2e.jpg"",""img/0899/06b0fc99-0581-461a-9913-d1a5a941ac61.jpg""]","",""
"","6462","similarity","50","354609","0.0-6.0-44.0","5","[""img/0866/4a87911a-d5be-4d4e-ab8e-3d1f581bf507.jpg"",""img/0860/8fdba999-b946-4c7d-9891-336018b563ef.jpg""]","",""
"","5444","similarity","51","361061","0.0-6.0-45.0","6","[""img/0766/91fc8c4d-862f-4d2b-b1a1-2db8d729b6b7.jpg"",""img/0903/72197c2b-403e-4a26-b391-f1aa8dea4b76.jpg""]","",""
"","4040","similarity","52","366106","0.0-6.0-46.0","6","[""img/0901/c6df1a21-44ed-47c2-960e-7c52220e329e.jpg"",""img/0904/4e58005d-a2ec-4aaa-b199-445343561396.jpg""]","",""
"","734713","similarity","53","1101825","0.0-6.0-47.0","4","[""img/0758/61d64021-9214-4951-bdf8-f871f9827cf9.jpg"",""img/0902/b03129ba-b087-4558-af37-e8399d6217d6.jpg""]","",""
"","3195","similarity","54","1106025","0.0-6.0-48.0","7","[""img/0764/e0788029-9d7f-414c-b747-46d2a99f7c86.jpg"",""img/0764/03c07b98-3f18-4b71-bb70-ecff564a78d1.jpg""]","",""
"","3679","similarity","55","1110707","0.0-6.0-49.0","2","[""img/0866/8efcaa46-83ab-4dee-a35f-850402aa21ae.jpg"",""img/0902/b03fee99-d5ca-4bf8-871c-a4a743a39842.jpg""]","",""
"","3291","similarity","56","1115001","0.0-6.0-50.0","3","[""img/0764/f713847b-4832-42d1-8fb3-e17e37fd745c.jpg"",""img/0758/a709631e-3705-4725-ac40-f0d916924f08.jpg""]","",""
"","3619","similarity","57","1119623","0.0-6.0-51.0","6","[""img/0898/224c1572-56b9-4f16-a9e4-6f3bc9c114bd.jpg"",""img/0894/38f5931f-926d-414e-b498-66b188978b7a.jpg""]","",""
"","3829","similarity","58","1124458","0.0-6.0-52.0","3","[""img/0875/e7e66b13-b573-431e-b85e-288ce04a35a3.jpg"",""img/0866/93a27239-8317-4e08-98ca-d8b1ff298e07.jpg""]","",""
"","3757","similarity","59","1129220","0.0-6.0-53.0","6","[""img/0904/5aec2708-cf14-4a58-aa30-9a8a61c1be0e.jpg"",""img/0904/9d30eff1-46ef-4453-b11e-124ef8145c00.jpg""]","",""
"","2930","similarity","60","1133153","0.0-6.0-54.0","5","[""img/0769/8c7cf147-1780-4d5c-8ddf-5ea23ff03ac9.jpg"",""img/0769/a1ce8d07-ba37-40de-bade-2778805521e0.jpg""]","",""
"","3045","similarity","61","1137202","0.0-6.0-55.0","1","[""img/0898/661621d4-a14e-487c-8c74-354134a29710.jpg"",""img/0758/53f35650-e455-4b53-8be4-c3c8271c6466.jpg""]","",""
"","3499","similarity","62","1141705","0.0-6.0-56.0","3","[""img/0769/f73c5138-2f4c-4354-981c-129dff9cc734.jpg"",""img/0902/27b84584-948a-485b-8749-cb09929ef631.jpg""]","",""
"","3299","similarity","63","1146007","0.0-6.0-57.0","5","[""img/0864/65210d57-1153-4657-886a-32e758f49b4a.jpg"",""img/0881/62a64f90-7a72-4aee-a1a1-0c548ac9bdda.jpg""]","",""
"","4187","similarity","64","1140471","0.0-6.0-58.0","4","[""img/0758/d540bee6-b460-4c32-ac57-bc282742d7d4.jpg"",""img/0868/179a5502-ab5c-478e-8263-5a1fbcc101d2.jpg""]","",""
"","3697","similarity","65","1145173","0.0-6.0-59.0","4","[""img/0862/92fcd8a4-8193-4a6a-ae09-dd4a6338b0df.jpg"",""img/0769/8598a429-c671-4d2f-842c-32f681f5e412.jpg""]","",""
"","4375","similarity","66","1150554","0.0-6.0-60.0","3","[""img/0764/438c0217-036f-43c9-9b87-f43144e46011.jpg"",""img/0903/6a87dbad-9b8d-4ff5-9c41-03c9aa24f0c3.jpg""]","",""
"","3627","similarity","67","1155187","0.0-6.0-61.0","7","[""img/0899/ad8268c5-8199-48d0-ad70-c5b6d6c599ec.jpg"",""img/0899/7f9d45d0-b2c6-40d3-aa41-c207db2c411b.jpg""]","",""
"","2759","similarity","68","1158951","0.0-6.0-62.0","5","[""img/0860/99c589b9-9140-4d17-90c0-b344323edcda.jpg"",""img/0875/42910c99-5463-450a-a0f8-d4d060a11455.jpg""]","",""
"","3885","similarity","69","1163839","0.0-6.0-63.0","3","[""img/0868/15dd6fd7-791e-4b53-b203-195d617521a4.jpg"",""img/0874/31e22c7c-99aa-40b1-bf03-dd73fa2df4d6.jpg""]","",""
"","3718","similarity","70","1168560","0.0-6.0-64.0","5","[""img/0758/20497cbe-ddae-489e-86e2-ab06985ed07c.jpg"",""img/0862/e697469a-ec19-4414-b972-7b9f3564785b.jpg""]","",""
"","3295","similarity","71","1172858","0.0-6.0-65.0","6","[""img/0904/9dd5708f-3f8b-46a9-b49f-2f2fab87b357.jpg"",""img/0898/79233891-305a-4a6a-8ddf-5c8604858203.jpg""]","",""
"","3366","similarity","72","1177227","0.0-6.0-66.0","3","[""img/0881/b1a136f7-8511-4d3a-a0f6-3879acf1e1a1.jpg"",""img/0866/620cd1aa-0800-4414-8f6e-90342e7a99ad.jpg""]","",""
"","5038","similarity","73","1183268","0.0-6.0-67.0","1","[""img/0867/075e0f95-856b-4cbb-acf5-092393aaf04e.jpg"",""img/0898/b3290bf9-215b-4b45-b21a-65bdf73f142f.jpg""]","",""
"","3754","similarity","74","1188025","0.0-6.0-68.0","6","[""img/0902/417d8b4a-3c72-4adc-ac78-820e833316f2.jpg"",""img/0764/e42c1dc9-7831-4995-be19-7ca7b4d141fc.jpg""]","",""
"","2784","similarity","75","1191818","0.0-6.0-69.0","4","[""img/0875/cff79b3a-a797-4393-9757-6275f999ec04.jpg"",""img/0867/f26f6b60-f772-4f4c-95a4-addc62cfd692.jpg""]","",""
"","3757","similarity","76","1196578","0.0-6.0-70.0","7","[""img/0766/d5d38751-8fa5-476f-93e9-86ed2d9045ef.jpg"",""img/0764/d0bef2e0-e16b-4c82-9451-c1d16265eb67.jpg""]","",""
"","4690","similarity","77","1202272","0.0-6.0-71.0","3","[""img/0894/76c1201f-8524-4865-85e6-dda8cb4ac986.jpg"",""img/0867/1719a35d-f085-48c0-9099-16c94fe418b4.jpg""]","",""
"","5078","similarity","78","1208354","0.0-6.0-72.0","1","[""img/0875/f87b67d7-c33e-40d1-b281-248c4be1cb6e.jpg"",""img/0764/cbdc4f20-3a9a-4211-9b40-090699e0abcc.jpg""]","",""
"","6060","similarity","79","1215418","0.0-6.0-73.0","6","[""img/0867/db7e032f-162b-46f5-ae67-2b29679adee4.jpg"",""img/0866/07c9c966-3c8d-40e7-8128-92b2acbaed5d.jpg""]","",""
"","2463","similarity","80","1218885","0.0-6.0-74.0","3","[""img/0903/b0df4094-a3be-4b5b-81bd-8d260f13f61b.jpg"",""img/0758/7ffbc76b-1fc1-432c-8f7e-9ec8d1b3f643.jpg""]","",""
"","4822","similarity","81","1224710","0.0-6.0-75.0","2","[""img/0766/d3bab2fc-ddcc-40a0-bb72-c0d0ebe19978.jpg"",""img/0868/1a62b2b2-18f5-466e-b564-5176a57c565e.jpg""]","",""
"","3860","similarity","82","1229576","0.0-6.0-76.0","5","[""img/0874/93d1f8dc-acf2-4f03-bd8d-8ec35df276ed.jpg"",""img/0766/db750ba0-ce04-46e1-b601-e1b80212bad2.jpg""]","",""
"","3870","similarity","83","1234453","0.0-6.0-77.0","2","[""img/0881/7e822106-76f7-4b10-a805-14dc68b2cfaf.jpg"",""img/0868/8b0b8473-e2c0-4331-aa56-c3a5c29369da.jpg""]","",""
"","4400","similarity","84","1239858","0.0-6.0-78.0","1","[""img/0758/821c68d3-5cb0-4eae-8659-30e6263fca39.jpg"",""img/0901/a0d65c84-3f20-476a-92d1-0c01e8019cf4.jpg""]","",""
"","2610","similarity","85","1243473","0.0-6.0-79.0","4","[""img/0881/ee44e27f-d662-4608-b265-e7ffa19b216f.jpg"",""img/0898/e167334e-cc1d-4986-b3b1-c7bc7da64baa.jpg""]","",""
"","3321","similarity","86","1247800","0.0-6.0-80.0","5","[""img/0867/26611f4e-d694-4460-b7e2-43c62753ddc3.jpg"",""img/0758/b76ceca7-95ac-46e4-ac13-da02c8e93be9.jpg""]","",""
"","2650","similarity","87","1251456","0.0-6.0-81.0","5","[""img/0769/82ab9db6-4578-4e79-874f-f09100439f09.jpg"",""img/0899/76ad07e2-ca25-45eb-84f2-8d80b8ca3e26.jpg""]","",""
"","3948","similarity","88","1256410","0.0-6.0-82.0","7","[""img/0903/8c358e9e-a4f4-466e-8b93-7aec0d2358e8.jpg"",""img/0903/6378ee1e-3d2b-48d2-87be-bebda32c8268.jpg""]","",""
"","3575","similarity","89","1299106","0.0-6.0-83.0","1","[""img/0867/50a1b60e-3a29-44bf-b606-d4bd3746fea9.jpg"",""img/0766/51d3aab4-3d09-4dda-b99d-3dc7aaabc6f2.jpg""]","",""
"","4540","similarity","90","1304651","0.0-6.0-84.0","4","[""img/0902/f3cfec34-482c-4bdb-9c92-19ea6cfce183.jpg"",""img/0867/bf560d4f-dee3-4f11-a385-705cc1aa5f3c.jpg""]","",""
"","3562","similarity","91","1309216","0.0-6.0-85.0","2","[""img/0901/b123d109-47b4-4f9a-80c9-9bb16da42efa.jpg"",""img/0875/5a7c4e35-6514-4e12-8879-d16071da4cd6.jpg""]","",""
"","2858","similarity","92","1313077","0.0-6.0-86.0","1","[""img/0764/39a9fc7e-b863-432c-9374-de43983f31a5.jpg"",""img/0866/bf14b5bd-fb55-47db-86b9-4f8aeb9a6dad.jpg""]","",""
"","3207","similarity","93","1317291","0.0-6.0-87.0","6","[""img/0901/548d1110-7cb8-42a2-9927-9798875c8b5c.jpg"",""img/0894/e5edf723-72a5-4673-8441-6c1734a8929b.jpg""]","",""
"","4283","similarity","94","1322579","0.0-6.0-88.0","6","[""img/0898/5f699581-3853-4547-856c-12f419ba5af7.jpg"",""img/0769/e8ed913b-8a88-44f6-9327-d34afec3116b.jpg""]","",""
"","2510","similarity","95","1326093","0.0-6.0-89.0","7","[""img/0769/e31b3bd8-efcb-413e-aa8c-75fac2b8f2ac.jpg"",""img/0894/05161000-f476-499b-a878-c13c7f347fd9.jpg""]","",""
"","5259","similarity","96","1332359","0.0-6.0-90.0","4","[""img/0862/f23038d4-c366-4f70-979f-66b62362efa4.jpg"",""img/0874/29830da7-be5f-44e5-b141-652a0ccf7269.jpg""]","",""
"","3570","similarity","97","1336935","0.0-6.0-91.0","5","[""img/0894/10f22b96-040c-44f4-950b-a4963f3f506c.jpg"",""img/0766/33aa9ebb-c9f5-418f-8c8b-c77861889568.jpg""]","",""
"","3023","similarity","98","1340965","0.0-6.0-92.0","6","[""img/0874/a3bc679d-619f-4db6-bb68-116dcb757d9c.jpg"",""img/0867/7d1c497b-c1b3-4ed8-abb5-d7f73306015f.jpg""]","",""
"","4379","similarity","99","1346349","0.0-6.0-93.0","3","[""img/0899/0adc0bc3-6fca-4078-be6f-d45ddf1653d5.jpg"",""img/0868/3a62db2d-97e9-44a3-b8e3-a48c6f0e423b.jpg""]","",""
"","4801","similarity","100","1352154","0.0-6.0-94.0","1","[""img/0903/647ce311-8c71-479a-8361-961db1457139.jpg"",""img/0862/4f0a3b4c-afbf-486e-b248-1d54982f54b4.jpg""]","",""
"","3917","similarity","101","1357077","0.0-6.0-95.0","7","[""img/0899/8de08897-b430-42fe-9d42-840670b80f94.jpg"",""img/0766/006035d8-c736-4daf-bbe4-a9e373af9da6.jpg""]","",""
"","4450","similarity","102","1362532","0.0-6.0-96.0","6","[""img/0867/12264664-1860-46df-8c21-162b9817cdda.jpg"",""img/0868/0d3abd3a-b6c3-4584-a9f7-e2da63748b3d.jpg""]","",""
"","5318","similarity","103","1368853","0.0-6.0-97.0","2","[""img/0862/eefa5588-9efd-4591-aa5f-a2e17c7d7bcc.jpg"",""img/0901/62315ff5-ed95-46b4-b099-92552079659b.jpg""]","",""
"","3028","similarity","104","1372888","0.0-6.0-98.0","1","[""img/0875/8521fd58-3b1e-4dc5-97ae-804edfa6734a.jpg"",""img/0766/110832e5-2646-4bd0-a94e-5df8cc314269.jpg""]","",""
"","5615","similarity","105","1379509","0.0-6.0-99.0","3","[""img/0758/caa93da2-9edf-49fa-96b9-32dedd8f5078.jpg"",""img/0874/c0378dac-9370-439a-8b79-db27c96fb390.jpg""]","",""
"","6323","similarity","106","1386838","0.0-6.0-100.0","6","[""img/0904/9b3568cc-3cf7-42be-9df3-fdafde7a58b8.jpg"",""img/0868/293079b8-7e0c-4afd-a390-1e5d35fe3ded.jpg""]","",""
"","2835","similarity","107","1390678","0.0-6.0-101.0","3","[""img/0903/5248eedd-7e6a-4d39-91b0-06ec227f3ed0.jpg"",""img/0866/9b38d691-1802-4959-ab3f-fc902f0e4ea6.jpg""]","",""
"","3021","similarity","108","1394703","0.0-6.0-102.0","4","[""img/0868/4a8a45ed-2c4f-421b-9564-409a33ecd26c.jpg"",""img/0769/da36e3f7-2337-434f-ab57-11822dd7eed7.jpg""]","",""
"","4186","similarity","109","1399892","0.0-6.0-103.0","6","[""img/0902/bd89a85f-3853-4786-acd6-98818ee29f1c.jpg"",""img/0899/565ccdd9-0933-4536-a625-3c0e25a713dd.jpg""]","",""
"","2645","similarity","110","1403544","0.0-6.0-104.0","4","[""img/0868/4e626425-63c8-484a-8a1d-e66ee4e0bef8.jpg"",""img/0862/e0f1a4e9-e1b6-45f7-af67-89f334e6630d.jpg""]","",""
"","4146","similarity","111","1408698","0.0-6.0-105.0","6","[""img/0903/776b74ee-a8ab-4ab8-a78d-097c0747538d.jpg"",""img/0894/b422d5c6-3c5a-49ae-a53e-7e88ac993f49.jpg""]","",""
"","4810","similarity","112","1414514","0.0-6.0-106.0","5","[""img/0864/c3b63e8f-ea39-4d70-a1f2-b3fe4be8eb75.jpg"",""img/0874/bf14b896-e930-4fd9-9c05-2e83317a2773.jpg""]","",""
"","4746","similarity","113","1420263","0.0-6.0-107.0","2","[""img/0862/00c06b00-3b73-44e9-bc1e-c5aafb438321.jpg"",""img/0902/af40b98b-3d23-4d95-b401-49ba5783ce39.jpg""]","",""
"","2889","similarity","114","1424155","0.0-6.0-108.0","7","[""img/0904/da170c1b-9651-4f08-b231-2bdd1d9a046f.jpg"",""img/0903/ea75f240-fb62-4edb-a709-83e858b202c0.jpg""]","",""
"","2946","similarity","115","1428107","0.0-6.0-109.0","4","[""img/0764/da207710-e7e4-4f42-b2e6-99b5f357f433.jpg"",""img/0864/66091c27-e588-4476-8af9-265dc6be4156.jpg""]","",""
"","5071","similarity","116","1434185","0.0-6.0-110.0","2","[""img/0866/386235d2-6857-41e7-88a8-25cfc3430025.jpg"",""img/0894/2217bdcd-23a7-42d3-823b-23f2488d7e87.jpg""]","",""
"","4375","similarity","117","1439567","0.0-6.0-111.0","2","[""img/0899/66ab3178-c3fe-4455-ad17-d5952b08e018.jpg"",""img/0903/c3cb4a01-2797-43ca-b216-88c67b323fbb.jpg""]","",""
"","4382","similarity","118","1444953","0.0-6.0-112.0","3","[""img/0902/d1083f2c-5520-44ec-81a8-3f856fbf0e80.jpg"",""img/0904/b7c2a2c8-df33-4473-b3d4-ff7147c60db3.jpg""]","",""
"","5258","similarity","119","1451219","0.0-6.0-113.0","1","[""img/0864/3d4de670-b290-4285-9c3d-12a0e3af44e9.jpg"",""img/0860/87039971-2210-4aab-93c0-8e9b5f1655b2.jpg""]","",""
"","6791","similarity","120","1459014","0.0-6.0-114.0","2","[""img/0860/71e1aad0-2cdf-43bb-94a4-a8c016997c30.jpg"",""img/0899/d60714ae-98d7-4564-8c98-94dba1351135.jpg""]","",""
"","4556","similarity","121","1464574","0.0-6.0-115.0","2","[""img/0881/c843e210-bdfe-4a7c-8bbe-fcea1f90fe1c.jpg"",""img/0903/a0673b55-6040-47fe-9040-24bca27ca3c9.jpg""]","",""
"","6712","similarity","122","1472293","0.0-6.0-116.0","2","[""img/0894/b2d2f66e-e480-46da-a02a-6d0c6b285d78.jpg"",""img/0874/8cdb1c07-1c32-46d2-981c-3636560fa6e5.jpg""]","",""
"","6011","similarity","123","1479310","0.0-6.0-117.0","4","[""img/0881/667e2147-d457-4f32-aa5f-6ab86e5848f1.jpg"",""img/0862/fad1d7c1-8187-43c3-942a-0fc12183e48e.jpg""]","",""
"","3149","similarity","124","1483465","0.0-6.0-118.0","6","[""img/0868/77091fc7-a590-4ebb-b915-fdb2483a2399.jpg"",""img/0875/a4935837-7d3c-4df6-88c1-36a94d4991ca.jpg""]","",""
"","2610","similarity","125","1487079","0.0-6.0-119.0","4","[""img/0860/17b44a7d-c5ca-479f-9e87-f65a64f5c80e.jpg"",""img/0758/dd559618-7f09-4a07-8018-d311c4a5ea29.jpg""]","",""
"","1901","similarity","126","1489986","0.0-6.0-120.0","4","[""img/0864/afcba0a3-7e27-4757-b254-e9f05fad27e2.jpg"",""img/0875/3ecb367d-e9eb-4826-8aaa-7aa72fb98019.jpg""]","",""
"","4682","similarity","127","1495671","0.0-6.0-121.0","1","[""img/0898/a114b375-cb89-44ba-9498-74213f1ecdee.jpg"",""img/0866/be24ab58-230e-4db8-9f45-ff04c9aec6bb.jpg""]","",""
"","5554","similarity","128","1502229","0.0-6.0-122.0","2","[""img/0874/1016b306-087c-4afc-aa08-fa527b28dc76.jpg"",""img/0904/09dac84f-3d1c-4445-a68e-d0389fdbf1e9.jpg""]","",""
"","4581","similarity","129","1507818","0.0-6.0-123.0","3","[""img/0904/56e73f28-7e64-489b-a161-e6b1a063878d.jpg"",""img/0864/1d15626a-2f7c-410f-819c-0fa2c967e95e.jpg""]","",""
"","5547","similarity","130","1514368","0.0-6.0-124.0","5","[""img/0894/6b2e9509-8699-42b7-9582-7741df0ba2d7.jpg"",""img/0902/962f645e-9b55-4628-9b50-c703422bfe1a.jpg""]","",""
"","5923","similarity","131","1527468","0.0-6.0-125.0","4","[""img/0868/7b212364-ff5f-4e28-9241-7eb6ea00161b.jpg"",""img/0864/300bb811-8b3c-4c42-8653-6097c3725197.jpg""]","",""
"","2623","similarity","132","1531096","0.0-6.0-126.0","4","[""img/0899/1b3457ea-87d4-4946-a01c-aac1863ed46c.jpg"",""img/0866/c446214b-a368-4c65-ae39-ea46894256ab.jpg""]","",""
"","5213","similarity","133","1537318","0.0-6.0-127.0","3","[""img/0875/5a1e5100-0d94-4fec-bbe9-ca9894d2cf8e.jpg"",""img/0904/73920552-103b-4c9c-9ece-e0b8376b4504.jpg""]","",""
"","2256","similarity","134","1540580","0.0-6.0-128.0","4","[""img/0867/f8159067-056c-41f1-a136-c529fe5e970a.jpg"",""img/0899/4f7bc593-8ddd-4da3-a0b9-84da730d3370.jpg""]","",""
"","3691","similarity","135","1545276","0.0-6.0-129.0","2","[""img/0901/0adb3bd6-d758-4ba7-9723-3ad6cac05bd5.jpg"",""img/0867/98d8cd96-1476-4fe0-a3a3-04f875500a1b.jpg""]","",""
"","5510","similarity","136","1551789","0.0-6.0-130.0","6","[""img/0864/87c467d3-abca-482f-ad80-3766c21b1bb3.jpg"",""img/0769/96556ef3-7fac-4c9d-8281-1cb0ea5081bc.jpg""]","",""
"","4114","similarity","137","1556906","0.0-6.0-131.0","2","[""img/0903/8635cf25-2648-4fe9-8c42-79d2598e999c.jpg"",""img/0868/e0aff734-077f-40dd-9781-74821abd3621.jpg""]","",""
"","4884","similarity","138","1562794","0.0-6.0-132.0","4","[""img/0864/4bd81bc6-c13d-46df-95a9-485886dc7c1b.jpg"",""img/0867/de92135f-5b65-4ed9-b245-188292c7c2f8.jpg""]","",""
"","99947","similarity","139","1663749","0.0-6.0-133.0","4","[""img/0901/58ec7fa9-b466-4651-90aa-c082df0972de.jpg"",""img/0860/61fb959d-d4d9-4de4-9e4e-4fa62b4cfcd5.jpg""]","",""
"","16914","similarity","140","1681669","0.0-6.0-134.0","5","[""img/0881/566f45f8-5fed-4479-a60f-26377e60a62d.jpg"",""img/0766/5d1b8041-c5a1-4b02-b4fe-3453d98a0d72.jpg""]","",""
"","4060","similarity","141","1686733","0.0-6.0-135.0","2","[""img/0903/07b445ee-0cdb-4d2c-a23b-d727613f4059.jpg"",""img/0864/3651d070-2fc5-4848-b6a6-088a2d9ac5c9.jpg""]","",""
"","5385","similarity","142","1693127","0.0-6.0-136.0","3","[""img/0758/ddc336e9-a8b6-4bb9-937a-c7e25e0e9250.jpg"",""img/0894/5f15154e-e72e-4ce5-aafb-bce6f0564006.jpg""]","",""
"","2875","similarity","143","1697005","0.0-6.0-137.0","4","[""img/0769/5bd04f55-d091-4f57-85db-38426f26bd1a.jpg"",""img/0860/e8b8c51e-1834-4875-8b61-6c5bc9b178bd.jpg""]","",""
"","5278","similarity","144","1703288","0.0-6.0-138.0","3","[""img/0904/a8c3c7d2-9bcf-4347-9e03-8203adfc1fc5.jpg"",""img/0766/d512b99c-a2dc-40d7-8e86-827323a0cbcf.jpg""]","",""
"","5938","similarity","145","1710231","0.0-6.0-139.0","2","[""img/0868/d6d1f30d-4323-435a-b194-7892521bc57e.jpg"",""img/0860/9593362c-9fe5-4d12-9735-6000a11f6aa5.jpg""]","",""
"","3679","similarity","146","1714913","0.0-6.0-140.0","2","[""img/0758/d41c06bf-ebaf-454b-91c6-1a17f917b659.jpg"",""img/0864/ef9cbca0-4be8-435d-ad49-977259e80409.jpg""]","",""
"","2749","similarity","147","1718667","0.0-6.0-141.0","7","[""img/0867/179ab87a-8eac-4c52-a41f-2e48e3120f09.jpg"",""img/0867/5e07b34d-b40f-4b1c-ac10-49975bace45f.jpg""]","",""
"","4604","similarity","148","1724275","0.0-6.0-142.0","7","[""img/0898/82231d4c-218b-4d0a-b50d-35a49b524e97.jpg"",""img/0898/0c7dde4f-efce-4b7a-9387-6921635b7890.jpg""]","",""
"","3645","similarity","149","1728925","0.0-6.0-143.0","4","[""img/0866/f756f7d1-9ad8-4a34-9ef6-7a443d705bfe.jpg"",""img/0769/0fe124d3-bcad-45f6-b64d-8f6eb8ee5251.jpg""]","",""
"","3848","similarity","150","1733777","0.0-6.0-144.0","3","[""img/0860/29a21a9f-54bb-4093-ad3f-04823ceaa89f.jpg"",""img/0898/6cd3830b-d44e-4915-be2b-88d31424b91c.jpg""]","",""
"","4027","similarity","151","1738812","0.0-6.0-145.0","7","[""img/0766/79767d11-b612-4e8a-9e4b-a8ac95bb6a54.jpg"",""img/0864/efcfbb1b-8197-44c9-b723-40d6c608dd3c.jpg""]","",""
"","4445","similarity","152","1744265","0.0-6.0-146.0","6","[""img/0860/31ff6436-98bf-4652-bed2-40f627229568.jpg"",""img/0903/47e39de8-6959-469f-8be9-6999a6db207c.jpg""]","",""
"","4726","similarity","153","1749994","0.0-6.0-147.0","5","[""img/0867/c71dc569-f49c-4397-8381-68b8d726736d.jpg"",""img/0764/cffc80b0-4a90-4acb-a530-6f480f3ca303.jpg""]","",""
"","3148","similarity","154","1754147","0.0-6.0-148.0","6","[""img/0769/91acb237-65a3-4d0b-9748-af5c7b83d3c7.jpg"",""img/0904/0d17b811-063e-416e-a23c-3b3cfa4fcce5.jpg""]","",""
"","3560","similarity","155","1758714","0.0-6.0-149.0","4","[""img/0764/f990b2e8-ecee-481e-be7c-0239fce350e2.jpg"",""img/0901/bc47e078-bda4-40ed-b89a-bbd819164b95.jpg""]","",""
"","4013","similarity","156","1763731","0.0-6.0-150.0","3","[""img/0904/1d10df11-b5c8-4370-9a6b-097a7f965895.jpg"",""img/0899/57476fed-5962-4272-8fc9-b317bb777b54.jpg""]","",""
"","2123","similarity","157","1766860","0.0-6.0-151.0","4","[""img/0862/ee3b7bff-4a70-4e84-9bea-4a565e456acb.jpg"",""img/0867/c66898ba-b71b-4d50-84f9-f7f84853a98d.jpg""]","",""
"","4173","similarity","158","1772037","0.0-6.0-152.0","7","[""img/0766/2e1cf445-9aef-40e7-92f4-5facf48b64c5.jpg"",""img/0766/d50d734f-285c-4840-bc7a-c8dd4aff391e.jpg""]","",""
"","5490","similarity","159","1778534","0.0-6.0-153.0","2","[""img/0862/53a9cf7c-93c4-41b9-952f-07d17f7a17b2.jpg"",""img/0894/5c7677b0-a4f1-479e-b274-7822c415175a.jpg""]","",""
"","2971","similarity","160","1782511","0.0-6.0-154.0","5","[""img/0899/0e1d936a-dbe2-4afc-9f19-7b7a1ae6c9ed.jpg"",""img/0901/1ede21d9-384f-4150-86b5-e1c57b5dc1d4.jpg""]","",""
"","4479","similarity","161","1787996","0.0-6.0-155.0","7","[""img/0874/995f0332-0439-4eb4-add3-957335dbf6d9.jpg"",""img/0874/2c9464dd-8a23-4baa-ac94-1ba3af5c15cc.jpg""]","",""
"","4803","similarity","162","1793804","0.0-6.0-156.0","3","[""img/0860/c7047cd2-7cc1-41b6-8a34-c0986774975f.jpg"",""img/0867/a749dddb-69f0-44a6-acdc-2bf295cf6dcc.jpg""]","",""
"","3448","similarity","163","1798257","0.0-6.0-157.0","2","[""img/0901/b13fa50f-dbe0-4d0f-8647-6ac0fd8f40bd.jpg"",""img/0881/f037e3b0-09cb-4a83-b2d9-6a71fe474e63.jpg""]","",""
"","3820","similarity","164","1803083","0.0-6.0-158.0","7","[""img/0903/b548d383-2a95-4575-8c13-647873751ff1.jpg"",""img/0902/a323b62d-2fd5-4ac8-acc6-35b768f3c3f2.jpg""]","",""
"","3628","similarity","165","1807716","0.0-6.0-159.0","1","[""img/0860/f44ba3fb-03a2-42f0-8509-2c1ded493086.jpg"",""img/0764/55b3fab1-b809-4d38-a461-3f40ce062f52.jpg""]","",""
"","3585","similarity","166","1812304","0.0-6.0-160.0","1","[""img/0902/ca3160ba-ad5d-459f-a1b6-8b4f3c85ecd5.jpg"",""img/0875/34132396-d896-4c2d-8087-646dd867e769.jpg""]","",""
"","3474","similarity","167","1816782","0.0-6.0-161.0","2","[""img/0898/f3a3f225-1248-4ac7-b93b-f0ff28485bf3.jpg"",""img/0862/7918ca67-5bd3-4606-a5ea-c39fb11a9297.jpg""]","",""
"","4203","similarity","168","1821988","0.0-6.0-162.0","1","[""img/0894/133a1636-d123-4893-873c-1718050f832a.jpg"",""img/0875/90da8d75-108a-44ad-b999-e21fee3860d3.jpg""]","",""
"","4093","similarity","169","1827087","0.0-6.0-163.0","3","[""img/0866/02f5e6b9-52b7-448c-9708-5b460d0c9a23.jpg"",""img/0864/b3c4e378-28f0-4699-9338-2a257b4bca04.jpg""]","",""
"","3986","similarity","170","1832077","0.0-6.0-164.0","2","[""img/0766/d919cedb-f9b7-4f30-83bb-3e9c65001ceb.jpg"",""img/0862/f188d4f0-76a4-4102-818c-a209969d73a5.jpg""]","",""
"","3335","similarity","171","1836415","0.0-6.0-165.0","5","[""img/0866/a04d37f0-99dd-478a-b6c6-58b215138f84.jpg"",""img/0874/a82926a3-0b43-4add-803c-d5f9ea7798ee.jpg""]","",""
"","4123","similarity","172","1841544","0.0-6.0-166.0","4","[""img/0862/e8cc3bdf-cc43-4565-bccf-492626c70953.jpg"",""img/0860/94ef7afc-e0e6-4a15-98c6-0bfac82bc832.jpg""]","",""
"","5060","similarity","173","1849886","0.0-6.0-167.0","2","[""img/0766/0bf3793e-c353-45e5-ac6f-753f5f484e10.jpg"",""img/0901/0f670aef-ac36-496d-8142-ee5fdb21dd82.jpg""]","",""
"","4784","similarity","174","1855676","0.0-6.0-168.0","7","[""img/0862/cdaed51d-9e2f-4807-801a-4663c40077e2.jpg"",""img/0862/d0ca4c78-fc35-46ed-bdcc-8e124283c53e.jpg""]","",""
"","5143","similarity","175","1861827","0.0-6.0-169.0","4","[""img/0894/7dd6ff43-f8fc-408a-8a41-a2b261871820.jpg"",""img/0764/f64dfa83-333d-494c-87b5-73e942f1766e.jpg""]","",""
"","4770","similarity","176","1867600","0.0-6.0-170.0","1","[""img/0874/85eb9b8a-c4c6-4e5a-b8e7-363a87a82054.jpg"",""img/0898/cd3aaa3f-efa9-4ab3-8d6f-a6a9273ddf42.jpg""]","",""
"","4820","similarity","177","1873424","0.0-6.0-171.0","1","[""img/0860/4c530c3c-6aab-492a-94d1-9c01797bde40.jpg"",""img/0766/af3be95e-e52e-4fae-899b-0ff02ec340aa.jpg""]","",""
"","5621","similarity","178","1880053","0.0-6.0-172.0","1","[""img/0898/b2732712-71c2-45d8-834f-2b2ed5504910.jpg"",""img/0864/0116ca98-293d-4fa6-a93b-5a6144ef64cc.jpg""]","",""
"","3062","similarity","179","1884119","0.0-6.0-173.0","6","[""img/0881/f7a8cc63-8842-40a4-9ff8-fe530310d62c.jpg"",""img/0764/b328441c-f81c-486c-9eae-b947c70ba7cd.jpg""]","",""
"","6644","similarity","180","1891771","0.0-6.0-174.0","1","[""img/0898/01bfe666-3510-4fc7-964f-d00d28732dc8.jpg"",""img/0868/d98ca254-b195-477f-b57e-5760a2717db8.jpg""]","",""
"","3518","similarity","181","1896298","0.0-6.0-175.0","7","[""img/0864/49150900-7f25-4ce8-8d10-9b47a71d1997.jpg"",""img/0864/c22faebd-9c53-47bc-ada3-b9a30c688e75.jpg""]","",""
"","5051","similarity","182","1902356","0.0-6.0-176.0","3","[""img/0899/5b56dd3e-3f49-47cc-af84-16da6457753b.jpg"",""img/0862/92f0146c-20c4-482e-aef5-adb693790338.jpg""]","",""
"","2552","similarity","183","1905916","0.0-6.0-177.0","5","[""img/0875/2c361b79-c3d1-4eda-812e-bf03192407bf.jpg"",""img/0758/7fba58df-2a7a-4b76-8a8f-62739f97f271.jpg""]","",""
"","4081","similarity","184","1911002","0.0-6.0-178.0","3","[""img/0866/945c6710-d15b-4a5b-a8f6-69af0850357f.jpg"",""img/0901/a6c90438-fa7c-4418-ac7c-16c2e772dd98.jpg""]","",""
"","7854","similarity","185","1919863","0.0-6.0-179.0","1","[""img/0769/aad494cc-674d-4a08-9bfa-24a88ebe3c79.jpg"",""img/0874/3f471690-9788-4d03-90c7-f615aecef149.jpg""]","",""
"","4309","similarity","186","1925176","0.0-6.0-180.0","5","[""img/0875/dbdd643e-6d0e-4a5c-ab57-b9c29b9c981a.jpg"",""img/0881/b549bc99-a61c-4450-bab5-9efc3a197bf0.jpg""]","",""
"","3161","similarity","187","1929340","0.0-6.0-181.0","7","[""img/0866/0207e9a2-7dbb-40b5-9459-b472aaeceb2a.jpg"",""img/0868/5fa7f9d0-f0e5-454c-8224-74d964818f56.jpg""]","",""
"","7563","similarity","188","1937909","0.0-6.0-182.0","1","[""img/0899/fef567a2-c121-4481-9af0-ff108d199bbf.jpg"",""img/0758/2fa3e613-e676-4e6e-bd12-705327eeb3e1.jpg""]","",""
"","3925","similarity","189","1942837","0.0-6.0-183.0","6","[""img/0874/ca23d307-fc00-4d7d-9106-584c6eb21b4d.jpg"",""img/0875/99698b4d-b4a1-44bc-8c83-8ea755bbbf61.jpg""]","",""
"","2693","similarity","190","1946537","0.0-6.0-184.0","4","[""img/0904/b5855d6a-7ef9-46ca-9215-6e9fa046e543.jpg"",""img/0862/a0a3a7ba-7798-46a3-b4ca-05e1f6e581d0.jpg""]","",""
"","3521","similarity","191","1951061","0.0-6.0-185.0","5","[""img/0902/af45fe42-178c-4c1a-99ef-256e87e3b092.jpg"",""img/0766/3c526a07-9e0a-4ae2-8142-00085f0127da.jpg""]","",""
"","4714","similarity","192","1956778","0.0-6.0-186.0","2","[""img/0758/d57c2592-a317-4f63-91be-91a3a9afd222.jpg"",""img/0769/4a1d0b52-3fe8-40fb-bb1c-c814fe49a68c.jpg""]","",""
"","3828","similarity","193","1961612","0.0-6.0-187.0","7","[""img/0881/adc02f34-ce97-4aef-850f-00519df06fd7.jpg"",""img/0881/6b1189e6-232d-4042-8885-16dc7b10e0d4.jpg""]","",""
"","2825","similarity","194","1965440","0.0-6.0-188.0","6","[""img/0758/67c0be2f-9e91-48b3-8219-70ac0a1802fa.jpg"",""img/0866/11a1d141-be5e-443c-98c1-a9d4d9e3dec0.jpg""]","",""
"","5134","similarity","195","1971582","0.0-6.0-189.0","6","[""img/0764/d7f3ac54-318a-4dac-a06b-62bed34d01a4.jpg"",""img/0898/993d8f2d-bef7-4251-a193-0f93a32b7763.jpg""]","",""
"","3908","similarity","196","1976498","0.0-6.0-190.0","6","[""img/0903/9b60ef5b-234f-4239-892b-3d4c412accc2.jpg"",""img/0901/a9b9c0a0-8aed-4888-a78a-65fb7e764d13.jpg""]","",""
"","5024","similarity","197","1982525","0.0-6.0-191.0","6","[""img/0902/eb3e7e71-8ff1-4b88-a6a7-47e2c1ce1683.jpg"",""img/0898/c3cecf20-f7fd-45fa-97d0-dc0a63e8d6c0.jpg""]","",""
"","3967","similarity","198","1987495","0.0-6.0-192.0","3","[""img/0864/ea327690-500b-4137-bf91-451b309fe6a5.jpg"",""img/0901/b9141736-3041-4385-a586-b1fe911c76a5.jpg""]","",""
"","5141","similarity","199","1993639","0.0-6.0-193.0","3","[""img/0894/43216a7f-27bc-4b5a-8841-d122a30da9d9.jpg"",""img/0881/48ed65a5-471f-41af-86ec-3793805c116d.jpg""]","",""
"","2709","similarity","200","1997351","0.0-6.0-194.0","7","[""img/0868/c8ac40c7-6904-4e13-8d61-c75d3052dc4e.jpg"",""img/0868/6a28c3b0-3d76-498a-9fb7-ddafc665eca8.jpg""]","",""
"","3023","similarity","201","2001377","0.0-6.0-195.0","7","[""img/0899/56a605c3-d0a2-4215-89e1-779279d85a7c.jpg"",""img/0764/c84fbfa8-521c-407a-9bd3-24f7308d896c.jpg""]","",""
"","5004","similarity","202","2007387","0.0-6.0-196.0","1","[""img/0881/db77fe00-aeb0-4d1d-aa66-f3a96fd077e4.jpg"",""img/0904/d23dd7be-7fe8-4435-82f7-bd592c01e6a1.jpg""]","",""
"","5281","similarity","203","2013672","0.0-6.0-197.0","1","[""img/0864/e336a4c5-6648-4fd7-b2f6-93a3fb83f8c6.jpg"",""img/0902/3f0eeac5-c996-4026-a376-563ce8f28521.jpg""]","",""
"","4337","similarity","204","2019016","0.0-6.0-198.0","6","[""img/0894/3adef67d-7676-4995-80b2-bb31b8aca3ef.jpg"",""img/0904/fe746a3f-8458-48d0-8a13-8cba2a9df9f8.jpg""]","",""
"","3081","similarity","205","2023104","0.0-6.0-199.0","7","[""img/0901/168eb52c-c415-43f1-b5c8-e76e1a1ec247.jpg"",""img/0901/7c16dd9c-44ad-4d5b-990c-6a0b9b48b1b1.jpg""]","",""
"","3894","similarity","206","2028003","0.0-6.0-200.0","5","[""img/0894/492d2f29-d7b9-4422-8be8-47fd58bfaa8b.jpg"",""img/0860/4a022222-056d-461c-ab02-39fac9647552.jpg""]","",""
"","3010","similarity","207","2032018","0.0-6.0-201.0","7","[""img/0898/8605a25b-6895-476d-8c13-df7a83f96093.jpg"",""img/0903/b0a3c45f-467e-412f-a183-c9c1827f2e63.jpg""]","",""
"","4284","similarity","208","2037306","0.0-6.0-202.0","2","[""img/0864/e02eddb5-f468-499c-91bf-f7be3ffe979b.jpg"",""img/0894/1a010553-d598-4b06-a772-81f1e7b3addb.jpg""]","",""
"","2705","similarity","209","2041016","0.0-6.0-203.0","6","[""img/0874/ca76a855-4e77-4f2f-872a-0a718153e7ed.jpg"",""img/0860/e14d67c1-6d92-4f1e-9257-c8607159c19c.jpg""]","",""
"","3220","similarity","210","2045239","0.0-6.0-204.0","5","[""img/0862/ad593cc7-cabe-4bb7-8e14-8a447a0717b4.jpg"",""img/0875/ebf7653f-ff45-4e9f-af58-2c042ab3cd2b.jpg""]","",""
"","4036","similarity","211","2050279","0.0-6.0-205.0","5","[""img/0867/6e19c858-b606-45b2-a4c6-910a73f1d82c.jpg"",""img/0881/4da99fdd-1f40-4bbb-8e21-8833eef313f5.jpg""]","",""
"","5332","similarity","212","2056619","0.0-6.0-206.0","6","[""img/0901/d6d15b1c-4a30-4f74-a3fd-d4c8ee4169ca.jpg"",""img/0902/30c420f5-c714-4681-ae5a-c0ba8f636a26.jpg""]","",""
"","6237","similarity","213","2063859","0.0-6.0-207.0","1","[""img/0899/fd9efb43-701f-4cd6-baaa-4c38315f4bdc.jpg"",""img/0864/da39ad34-04e0-40d4-a724-c08d53e0ea09.jpg""]","",""
"","5148","similarity","214","2070014","0.0-6.0-208.0","1","[""img/0901/5b97abf9-f0c8-4fd1-b921-36d574779078.jpg"",""img/0769/4680bcc3-8fbc-4643-8f9a-12aa0e780b64.jpg""]","",""
"","2788","similarity","215","2075602","0.0-6.0-209.0","7","[""img/0902/62f11694-7ed7-4cb7-8a73-9e95c43824e7.jpg"",""img/0902/cdec1bc6-7f90-4f72-9e01-f5a4111bac1d.jpg""]","",""
"[{""page_index"":0,""viewing_time"":1763}]","1763","instructions","216","2078365","0.0-7.0","","","",""
"","14405","image-multi-choice","217","2093786","0.0-8.0-0.0","","","{""Q0"":""Nashville Warbler""}","Nashville Warbler"
"","12964","image-multi-choice","218","2107761","0.0-8.0-1.0","","","{""Q0"":""Black-and-white Warbler""}","Black-and-white Warbler"
"","20283","image-multi-choice","219","2129055","0.0-8.0-2.0","","","{""Q0"":""Townsend's Warbler""}","Townsend's Warbler"
"","14141","image-multi-choice","220","2144209","0.0-8.0-3.0","","","{""Q0"":""Lark Sparrow""}","Lark Sparrow"
"","5043","image-multi-choice","221","2150261","0.0-8.0-4.0","","","{""Q0"":""Yellow Warbler""}","Yellow Warbler"
"","12441","image-multi-choice","222","2163711","0.0-8.0-5.0","","","{""Q0"":""Townsend's Warbler""}","Orange-crowned Warbler"
"","8571","image-multi-choice","223","2173293","0.0-8.0-6.0","","","{""Q0"":""White-throated Sparrow""}","White-throated Sparrow"
"","4165","image-multi-choice","224","2178467","0.0-8.0-7.0","","","{""Q0"":""Fox Sparrow""}","Fox Sparrow"
"","17584","image-multi-choice","225","2197060","0.0-8.0-8.0","","","{""Q0"":""Lincoln's Sparrow""}","Song Sparrow"
"","48970","image-multi-choice","226","2247039","0.0-8.0-9.0","","","{""Q0"":""Magnolia Warbler""}","Blackburnian Warbler"
"","11178","image-multi-choice","227","2259227","0.0-8.0-10.0","","","{""Q0"":""Vesper Sparrow""}","Vesper Sparrow"
"","5515","image-multi-choice","228","2265751","0.0-8.0-11.0","","","{""Q0"":""White-crowned Sparrow""}","White-crowned Sparrow"
"","6816","image-multi-choice","229","2273576","0.0-8.0-12.0","","","{""Q0"":""American Tree Sparrow""}","American Tree Sparrow"
"","9413","image-multi-choice","230","2283998","0.0-8.0-13.0","","","{""Q0"":""Orange-crowned Warbler""}","Tennessee Warbler"
"","34066","image-multi-choice","231","2319072","0.0-8.0-14.0","","","{""Q0"":""Blackburnian Warbler""}","Magnolia Warbler"
"","6741","image-multi-choice","232","2326823","0.0-8.0-15.0","","","{""Q0"":""Northern Waterthrush""}","Northern Waterthrush"
"","52650","image-multi-choice","233","2380483","0.0-8.0-16.0","","","{""Q0"":""Chipping Sparrow""}","Chipping Sparrow"
"","7301","image-multi-choice","234","2388793","0.0-8.0-17.0","","","{""Q0"":""American Tree Sparrow""}","Swamp Sparrow"
"","8574","image-multi-choice","235","2398379","0.0-8.0-18.0","","","{""Q0"":""Swamp Sparrow""}","Lincoln's Sparrow"
"","4479","image-multi-choice","236","2403867","0.0-8.0-19.0","","","{""Q0"":""Ovenbird""}","Ovenbird"
