[{"view_history":"[{\"page_index\":0,\"viewing_time\":29574}]","rt":29575,"trial_type":"instructions","trial_index":0,"time_elapsed":29576,"internal_node_id":"0.0-0.0"},{"sim_score":3,"rt":8923,"stimulus":"[\"img/866.jpg\",\"img/868.jpg\"]","trial_type":"similarity_demo","trial_index":1,"time_elapsed":39509,"internal_node_id":"0.0-1.0"},{"view_history":"[{\"page_index\":0,\"viewing_time\":25692}]","rt":25693,"trial_type":"instructions","trial_index":2,"time_elapsed":66203,"internal_node_id":"0.0-2.0"},{"sim_score":3,"rt":9144,"stimulus":"[\"img/766.jpg\",\"img/867.jpg\"]","trial_type":"similarity_demo","trial_index":3,"time_elapsed":76352,"internal_node_id":"0.0-3.0"},{"view_history":"[{\"page_index\":0,\"viewing_time\":7220}]","rt":7221,"trial_type":"instructions","trial_index":4,"time_elapsed":84575,"internal_node_id":"0.0-4.0"},{"view_history":"[{\"page_index\":0,\"viewing_time\":45945}]","rt":45946,"trial_type":"instructions","trial_index":5,"time_elapsed":131522,"internal_node_id":"0.0-5.0"},{"sim_score":5,"rt":8951,"stimulus":"[\"img/0868/3a62db2d-97e9-44a3-b8e3-a48c6f0e423b.jpg\",\"img/0901/a9b9c0a0-8aed-4888-a78a-65fb7e764d13.jpg\"]","trial_type":"similarity","trial_index":6,"time_elapsed":141480,"internal_node_id":"0.0-6.0-0.0"},{"sim_score":5,"rt":9535,"stimulus":"[\"img/0769/76eaa4a3-dfe9-4dc1-9efb-caebe86264e1.jpg\",\"img/0867/bf560d4f-dee3-4f11-a385-705cc1aa5f3c.jpg\"]","trial_type":"similarity","trial_index":7,"time_elapsed":152019,"internal_node_id":"0.0-6.0-1.0"},{"sim_score":5,"rt":6421,"stimulus":"[\"img/0766/f011ef45-fb48-44b8-8224-867ed2ccf786.jpg\",\"img/0898/a114b375-cb89-44ba-9498-74213f1ecdee.jpg\"]","trial_type":"similarity","trial_index":8,"time_elapsed":159446,"internal_node_id":"0.0-6.0-2.0"},{"sim_score":5,"rt":6125,"stimulus":"[\"img/0902/cdec1bc6-7f90-4f72-9e01-f5a4111bac1d.jpg\",\"img/0881/db77fe00-aeb0-4d1d-aa66-f3a96fd077e4.jpg\"]","trial_type":"similarity","trial_index":9,"time_elapsed":166576,"internal_node_id":"0.0-6.0-3.0"},{"sim_score":6,"rt":4541,"stimulus":"[\"img/0894/a3d4170b-b7d8-40e3-955f-87e76ed745fc.jpg\",\"img/0894/5ff3c4f6-52e2-4075-8679-be0312e59703.jpg\"]","trial_type":"similarity","trial_index":10,"time_elapsed":172125,"internal_node_id":"0.0-6.0-4.0"},{"sim_score":3,"rt":5260,"stimulus":"[\"img/0874/7e4f2150-3b59-4a36-b5da-a4e0ba410531.jpg\",\"img/0899/fef567a2-c121-4481-9af0-ff108d199bbf.jpg\"]","trial_type":"similarity","trial_index":11,"time_elapsed":178389,"internal_node_id":"0.0-6.0-5.0"},{"sim_score":5,"rt":5733,"stimulus":"[\"img/0904/d23dd7be-7fe8-4435-82f7-bd592c01e6a1.jpg\",\"img/0764/c80b3e06-2ee3-4326-9678-340607eb5348.jpg\"]","trial_type":"similarity","trial_index":12,"time_elapsed":185129,"internal_node_id":"0.0-6.0-6.0"},{"sim_score":3,"rt":5283,"stimulus":"[\"img/0899/8de08897-b430-42fe-9d42-840670b80f94.jpg\",\"img/0898/a8f16b02-e19f-423b-86c3-a36562ae1f9b.jpg\"]","trial_type":"similarity","trial_index":13,"time_elapsed":191417,"internal_node_id":"0.0-6.0-7.0"},{"sim_score":2,"rt":5194,"stimulus":"[\"img/0874/995f0332-0439-4eb4-add3-957335dbf6d9.jpg\",\"img/0903/2c7b4aed-6038-4aac-958a-e3e58341c313.jpg\"]","trial_type":"similarity","trial_index":14,"time_elapsed":197616,"internal_node_id":"0.0-6.0-8.0"},{"sim_score":5,"rt":6779,"stimulus":"[\"img/0881/33d65d80-8a8e-4ecf-852d-0ad7725c17a2.jpg\",\"img/0758/a085b443-b5d7-4cb2-9ad4-b9dab0fc23f1.jpg\"]","trial_type":"similarity","trial_index":15,"time_elapsed":205402,"internal_node_id":"0.0-6.0-9.0"},{"sim_score":7,"rt":5239,"stimulus":"[\"img/0898/881e2a85-d5c2-49be-a0c6-8a6ce2c4af08.jpg\",\"img/0901/b9141736-3041-4385-a586-b1fe911c76a5.jpg\"]","trial_type":"similarity","trial_index":16,"time_elapsed":211644,"internal_node_id":"0.0-6.0-10.0"},{"sim_score":7,"rt":4778,"stimulus":"[\"img/0903/b0a3c45f-467e-412f-a183-c9c1827f2e63.jpg\",\"img/0769/057eb0a0-aa5b-40c7-9852-21444f68d767.jpg\"]","trial_type":"similarity","trial_index":17,"time_elapsed":217429,"internal_node_id":"0.0-6.0-11.0"},{"sim_score":2,"rt":6486,"stimulus":"[\"img/0764/21e3292f-01ad-4238-828b-61b817857d16.jpg\",\"img/0868/4bd5105a-d2c3-4f82-8c80-57196106ba53.jpg\"]","trial_type":"similarity","trial_index":18,"time_elapsed":224919,"internal_node_id":"0.0-6.0-12.0"},{"sim_score":1,"rt":6332,"stimulus":"[\"img/0867/50a1b60e-3a29-44bf-b606-d4bd3746fea9.jpg\",\"img/0903/8931c67c-a43d-47d3-a4c9-42aa2f81d344.jpg\"]","trial_type":"similarity","trial_index":19,"time_elapsed":232255,"internal_node_id":"0.0-6.0-13.0"},{"sim_score":1,"rt":6093,"stimulus":"[\"img/0766/00891401-e4c9-4ce1-bc19-f70740d174bc.jpg\",\"img/0758/caa93da2-9edf-49fa-96b9-32dedd8f5078.jpg\"]","trial_type":"similarity","trial_index":20,"time_elapsed":239354,"internal_node_id":"0.0-6.0-14.0"},{"sim_score":2,"rt":6397,"stimulus":"[\"img/0902/417d8b4a-3c72-4adc-ac78-820e833316f2.jpg\",\"img/0860/29a21a9f-54bb-4093-ad3f-04823ceaa89f.jpg\"]","trial_type":"similarity","trial_index":21,"time_elapsed":246757,"internal_node_id":"0.0-6.0-15.0"},{"sim_score":1,"rt":4608,"stimulus":"[\"img/0769/688d0c52-ad73-4065-a5eb-f8c10d076bff.jpg\",\"img/0875/90da8d75-108a-44ad-b999-e21fee3860d3.jpg\"]","trial_type":"similarity","trial_index":22,"time_elapsed":252371,"internal_node_id":"0.0-6.0-16.0"},{"sim_score":1,"rt":4945,"stimulus":"[\"img/0904/e9423a8c-f946-43ad-ab7b-931acef870e2.jpg\",\"img/0866/be24ab58-230e-4db8-9f45-ff04c9aec6bb.jpg\"]","trial_type":"similarity","trial_index":23,"time_elapsed":258321,"internal_node_id":"0.0-6.0-17.0"},{"sim_score":5,"rt":5115,"stimulus":"[\"img/0875/99698b4d-b4a1-44bc-8c83-8ea755bbbf61.jpg\",\"img/0875/fb732ab5-013a-4366-9f65-27811ed157e9.jpg\"]","trial_type":"similarity","trial_index":24,"time_elapsed":264442,"internal_node_id":"0.0-6.0-18.0"},{"sim_score":7,"rt":3932,"stimulus":"[\"img/0758/20497cbe-ddae-489e-86e2-ab06985ed07c.jpg\",\"img/0758/7fba58df-2a7a-4b76-8a8f-62739f97f271.jpg\"]","trial_type":"similarity","trial_index":25,"time_elapsed":269380,"internal_node_id":"0.0-6.0-19.0"},{"sim_score":2,"rt":6150,"stimulus":"[\"img/0902/d49743d6-67ae-4c2e-a939-8fd895a0f18e.jpg\",\"img/0874/31e22c7c-99aa-40b1-bf03-dd73fa2df4d6.jpg\"]","trial_type":"similarity","trial_index":26,"time_elapsed":276535,"internal_node_id":"0.0-6.0-20.0"},{"sim_score":5,"rt":4597,"stimulus":"[\"img/0764/bd2eaa3e-95a9-4a59-a78e-3f81c766eea9.jpg\",\"img/0769/a3cfbdeb-acb3-4eac-87fb-4b117f42d4f8.jpg\"]","trial_type":"similarity","trial_index":27,"time_elapsed":282138,"internal_node_id":"0.0-6.0-21.0"},{"sim_score":2,"rt":6747,"stimulus":"[\"img/0901/1b86f2fc-7a1d-4aa8-9252-114f92edef3b.jpg\",\"img/0874/bf14b896-e930-4fd9-9c05-2e83317a2773.jpg\"]","trial_type":"similarity","trial_index":28,"time_elapsed":289889,"internal_node_id":"0.0-6.0-22.0"},{"sim_score":2,"rt":4124,"stimulus":"[\"img/0875/f87b67d7-c33e-40d1-b281-248c4be1cb6e.jpg\",\"img/0903/005ad0de-4f52-433c-b515-dbe8d46184a3.jpg\"]","trial_type":"similarity","trial_index":29,"time_elapsed":295020,"internal_node_id":"0.0-6.0-23.0"},{"sim_score":6,"rt":5351,"stimulus":"[\"img/0769/48a1144d-fbda-4809-991b-fc8424a32ee4.jpg\",\"img/0881/ed4c971f-0873-4fc8-b6d6-e8bbd82f0bcc.jpg\"]","trial_type":"similarity","trial_index":30,"time_elapsed":301376,"internal_node_id":"0.0-6.0-24.0"},{"sim_score":3,"rt":3776,"stimulus":"[\"img/0867/075e0f95-856b-4cbb-acf5-092393aaf04e.jpg\",\"img/0904/da170c1b-9651-4f08-b231-2bdd1d9a046f.jpg\"]","trial_type":"similarity","trial_index":31,"time_elapsed":306156,"internal_node_id":"0.0-6.0-25.0"},{"sim_score":3,"rt":4856,"stimulus":"[\"img/0860/8fdba999-b946-4c7d-9891-336018b563ef.jpg\",\"img/0881/19e82c47-8e4b-45d2-a6c8-74181eb4155e.jpg\"]","trial_type":"similarity","trial_index":32,"time_elapsed":312018,"internal_node_id":"0.0-6.0-26.0"},{"sim_score":6,"rt":4326,"stimulus":"[\"img/0866/0207e9a2-7dbb-40b5-9459-b472aaeceb2a.jpg\",\"img/0866/a04d37f0-99dd-478a-b6c6-58b215138f84.jpg\"]","trial_type":"similarity","trial_index":33,"time_elapsed":317350,"internal_node_id":"0.0-6.0-27.0"},{"sim_score":3,"rt":4913,"stimulus":"[\"img/0764/f990b2e8-ecee-481e-be7c-0239fce350e2.jpg\",\"img/0862/92f0146c-20c4-482e-aef5-adb693790338.jpg\"]","trial_type":"similarity","trial_index":34,"time_elapsed":323268,"internal_node_id":"0.0-6.0-28.0"},{"sim_score":3,"rt":4101,"stimulus":"[\"img/0904/09dac84f-3d1c-4445-a68e-d0389fdbf1e9.jpg\",\"img/0758/dd559618-7f09-4a07-8018-d311c4a5ea29.jpg\"]","trial_type":"similarity","trial_index":35,"time_elapsed":328375,"internal_node_id":"0.0-6.0-29.0"},{"sim_score":6,"rt":5431,"stimulus":"[\"img/0894/38f5931f-926d-414e-b498-66b188978b7a.jpg\",\"img/0899/00715b3f-851b-420b-a26b-d7f79f7759a9.jpg\"]","trial_type":"similarity","trial_index":36,"time_elapsed":334811,"internal_node_id":"0.0-6.0-30.0"},{"sim_score":5,"rt":6398,"stimulus":"[\"img/0860/9593362c-9fe5-4d12-9735-6000a11f6aa5.jpg\",\"img/0904/a8c3c7d2-9bcf-4347-9e03-8203adfc1fc5.jpg\"]","trial_type":"similarity","trial_index":37,"time_elapsed":342212,"internal_node_id":"0.0-6.0-31.0"},{"sim_score":5,"rt":4869,"stimulus":"[\"img/0874/3f471690-9788-4d03-90c7-f615aecef149.jpg\",\"img/0881/405484ae-0d00-4b05-bc57-6420a36adfac.jpg\"]","trial_type":"similarity","trial_index":38,"time_elapsed":348086,"internal_node_id":"0.0-6.0-32.0"},{"sim_score":3,"rt":4551,"stimulus":"[\"img/0881/1407b85b-a1c6-45b1-9884-3b24203efadb.jpg\",\"img/0899/51a7a498-98c7-42d7-bca8-bc2d8f0b5831.jpg\"]","trial_type":"similarity","trial_index":39,"time_elapsed":353642,"internal_node_id":"0.0-6.0-33.0"},{"sim_score":5,"rt":3823,"stimulus":"[\"img/0866/d266fece-59b3-46fa-b69f-96f6efb81b59.jpg\",\"img/0862/e0f1a4e9-e1b6-45f7-af67-89f334e6630d.jpg\"]","trial_type":"similarity","trial_index":40,"time_elapsed":358469,"internal_node_id":"0.0-6.0-34.0"},{"sim_score":3,"rt":3382,"stimulus":"[\"img/0868/09a9ef4d-d000-4cfa-a6aa-ebec7c2edeb4.jpg\",\"img/0894/38cf335f-f76f-4349-8d65-e20cd6859565.jpg\"]","trial_type":"similarity","trial_index":41,"time_elapsed":362856,"internal_node_id":"0.0-6.0-35.0"},{"sim_score":5,"rt":4912,"stimulus":"[\"img/0860/4f695df5-afac-4da7-9875-fee39b0b24ad.jpg\",\"img/0860/c47fdead-eb02-4989-b078-26f4852f44fe.jpg\"]","trial_type":"similarity","trial_index":42,"time_elapsed":368775,"internal_node_id":"0.0-6.0-36.0"},{"sim_score":7,"rt":3786,"stimulus":"[\"img/0862/de9ad88c-b522-430a-8ee9-eb06a9f85df5.jpg\",\"img/0864/65210d57-1153-4657-886a-32e758f49b4a.jpg\"]","trial_type":"similarity","trial_index":43,"time_elapsed":373566,"internal_node_id":"0.0-6.0-37.0"},{"sim_score":3,"rt":6241,"stimulus":"[\"img/0766/d3bab2fc-ddcc-40a0-bb72-c0d0ebe19978.jpg\",\"img/0866/93a27239-8317-4e08-98ca-d8b1ff298e07.jpg\"]","trial_type":"similarity","trial_index":44,"time_elapsed":380811,"internal_node_id":"0.0-6.0-38.0"},{"sim_score":3,"rt":4295,"stimulus":"[\"img/0875/dbdd643e-6d0e-4a5c-ab57-b9c29b9c981a.jpg\",\"img/0898/b3290bf9-215b-4b45-b21a-65bdf73f142f.jpg\"]","trial_type":"similarity","trial_index":45,"time_elapsed":386111,"internal_node_id":"0.0-6.0-39.0"},{"sim_score":5,"rt":3765,"stimulus":"[\"img/0766/dd3e18d0-0c98-4d05-b850-69976ee8cd75.jpg\",\"img/0769/11518cb3-13ea-4dd0-890c-30cfab728ade.jpg\"]","trial_type":"similarity","trial_index":46,"time_elapsed":390881,"internal_node_id":"0.0-6.0-40.0"},{"sim_score":2,"rt":4686,"stimulus":"[\"img/0874/a82926a3-0b43-4add-803c-d5f9ea7798ee.jpg\",\"img/0764/5d6fa3ce-9083-410c-bbdb-336a49b94cfc.jpg\"]","trial_type":"similarity","trial_index":47,"time_elapsed":418161,"internal_node_id":"0.0-6.0-41.0"},{"sim_score":3,"rt":7275,"stimulus":"[\"img/0868/83b4350a-3b70-4cea-b7f5-b5b56f3050a8.jpg\",\"img/0902/794606a0-d8a8-4e58-8bf8-9d114ed5a548.jpg\"]","trial_type":"similarity","trial_index":48,"time_elapsed":426442,"internal_node_id":"0.0-6.0-42.0"},{"sim_score":3,"rt":5273,"stimulus":"[\"img/0875/2e13d160-eea1-416b-aff1-d37ab99ecc1d.jpg\",\"img/0899/93494f3b-d539-4075-b027-d82e344563da.jpg\"]","trial_type":"similarity","trial_index":49,"time_elapsed":432720,"internal_node_id":"0.0-6.0-43.0"},{"sim_score":3,"rt":4597,"stimulus":"[\"img/0866/6f2a90d7-14f1-4f1b-bd64-fc0af6b9fe44.jpg\",\"img/0860/5bff793e-cbd5-4d7e-b628-0ac2b0e30b64.jpg\"]","trial_type":"similarity","trial_index":50,"time_elapsed":438323,"internal_node_id":"0.0-6.0-44.0"},{"sim_score":3,"rt":5476,"stimulus":"[\"img/0766/71b81ebd-0937-4d7f-b8bf-c4e46a4728fd.jpg\",\"img/0903/31b5a5f4-b695-4af1-bad2-a19650a05498.jpg\"]","trial_type":"similarity","trial_index":51,"time_elapsed":444803,"internal_node_id":"0.0-6.0-45.0"},{"sim_score":5,"rt":3922,"stimulus":"[\"img/0901/58978a6d-a3e2-4c59-8d62-f60693ecc0f6.jpg\",\"img/0904/6291eb43-c10c-4810-a36a-101d09868b04.jpg\"]","trial_type":"similarity","trial_index":52,"time_elapsed":449729,"internal_node_id":"0.0-6.0-46.0"},{"sim_score":5,"rt":6129,"stimulus":"[\"img/0758/67c0be2f-9e91-48b3-8219-70ac0a1802fa.jpg\",\"img/0902/7f1dcd35-237a-4995-9e42-7f63f3f434d4.jpg\"]","trial_type":"similarity","trial_index":53,"time_elapsed":456863,"internal_node_id":"0.0-6.0-47.0"},{"sim_score":7,"rt":3921,"stimulus":"[\"img/0764/6c7fe363-2d37-418f-9e5e-a3273af5d4fb.jpg\",\"img/0764/e42c1dc9-7831-4995-be19-7ca7b4d141fc.jpg\"]","trial_type":"similarity","trial_index":54,"time_elapsed":461789,"internal_node_id":"0.0-6.0-48.0"},{"sim_score":5,"rt":5420,"stimulus":"[\"img/0866/07c9c966-3c8d-40e7-8128-92b2acbaed5d.jpg\",\"img/0902/4e0baa32-988e-46f6-989d-f669225ab645.jpg\"]","trial_type":"similarity","trial_index":55,"time_elapsed":468213,"internal_node_id":"0.0-6.0-49.0"},{"sim_score":3,"rt":3844,"stimulus":"[\"img/0764/1f95ab5f-fb65-4d70-b5db-d6bd6351a8aa.jpg\",\"img/0758/65d426d6-3ff6-415d-8654-a43b83ecc4fe.jpg\"]","trial_type":"similarity","trial_index":56,"time_elapsed":473062,"internal_node_id":"0.0-6.0-50.0"},{"sim_score":7,"rt":3992,"stimulus":"[\"img/0898/40f99fb2-64d2-4e72-8a7f-a1cf60741e69.jpg\",\"img/0894/11674fa4-285d-44e2-939f-2228c6a64080.jpg\"]","trial_type":"similarity","trial_index":57,"time_elapsed":478058,"internal_node_id":"0.0-6.0-51.0"},{"sim_score":6,"rt":5069,"stimulus":"[\"img/0875/a4935837-7d3c-4df6-88c1-36a94d4991ca.jpg\",\"img/0866/11a1d141-be5e-443c-98c1-a9d4d9e3dec0.jpg\"]","trial_type":"similarity","trial_index":58,"time_elapsed":484131,"internal_node_id":"0.0-6.0-52.0"},{"sim_score":5,"rt":5543,"stimulus":"[\"img/0904/65e2b70a-b184-4da3-b5c0-5038bdf9469a.jpg\",\"img/0904/5aec2708-cf14-4a58-aa30-9a8a61c1be0e.jpg\"]","trial_type":"similarity","trial_index":59,"time_elapsed":490679,"internal_node_id":"0.0-6.0-53.0"},{"sim_score":7,"rt":4080,"stimulus":"[\"img/0769/9ea27d61-3d55-418c-8d14-82e90f656f01.jpg\",\"img/0769/965c3c44-d9e5-47c5-b61a-2bbdf4215d9a.jpg\"]","trial_type":"similarity","trial_index":60,"time_elapsed":495764,"internal_node_id":"0.0-6.0-54.0"},{"sim_score":1,"rt":4238,"stimulus":"[\"img/0898/993d8f2d-bef7-4251-a193-0f93a32b7763.jpg\",\"img/0758/2fa3e613-e676-4e6e-bd12-705327eeb3e1.jpg\"]","trial_type":"similarity","trial_index":61,"time_elapsed":501008,"internal_node_id":"0.0-6.0-55.0"},{"sim_score":6,"rt":5262,"stimulus":"[\"img/0769/f229321f-04dd-42d7-b14a-ffad6b509862.jpg\",\"img/0902/8065aa6b-4aef-4368-afa2-02c6465ca582.jpg\"]","trial_type":"similarity","trial_index":62,"time_elapsed":507273,"internal_node_id":"0.0-6.0-56.0"},{"sim_score":5,"rt":5925,"stimulus":"[\"img/0864/0f537697-a314-47c3-a8cc-8df23b7e536c.jpg\",\"img/0881/445edb15-bd7f-4af3-8bd5-c6ad9677bb31.jpg\"]","trial_type":"similarity","trial_index":63,"time_elapsed":514203,"internal_node_id":"0.0-6.0-57.0"},{"sim_score":2,"rt":6411,"stimulus":"[\"img/0758/eabcd7a8-56ad-4fd2-bc24-90f6b7b33265.jpg\",\"img/0868/179a5502-ab5c-478e-8263-5a1fbcc101d2.jpg\"]","trial_type":"similarity","trial_index":64,"time_elapsed":521617,"internal_node_id":"0.0-6.0-58.0"},{"sim_score":2,"rt":5026,"stimulus":"[\"img/0862/a0a3a7ba-7798-46a3-b4ca-05e1f6e581d0.jpg\",\"img/0769/662ab839-88d1-4ebf-af05-9b2980cad943.jpg\"]","trial_type":"similarity","trial_index":65,"time_elapsed":527647,"internal_node_id":"0.0-6.0-59.0"},{"sim_score":5,"rt":3620,"stimulus":"[\"img/0764/3297a811-ea8b-4d74-9547-59cecab7293a.jpg\",\"img/0903/4cbdc464-e562-4ec2-9bb6-15f894fdf528.jpg\"]","trial_type":"similarity","trial_index":66,"time_elapsed":532273,"internal_node_id":"0.0-6.0-60.0"},{"sim_score":5,"rt":4730,"stimulus":"[\"img/0899/7b7380d5-d2be-44e5-a09a-c1756f87ef71.jpg\",\"img/0899/5b56dd3e-3f49-47cc-af84-16da6457753b.jpg\"]","trial_type":"similarity","trial_index":67,"time_elapsed":538009,"internal_node_id":"0.0-6.0-61.0"},{"sim_score":2,"rt":4541,"stimulus":"[\"img/0860/17b44a7d-c5ca-479f-9e87-f65a64f5c80e.jpg\",\"img/0875/5a716432-c6ca-4b1c-955a-2b8ac25198ee.jpg\"]","trial_type":"similarity","trial_index":68,"time_elapsed":543555,"internal_node_id":"0.0-6.0-62.0"},{"sim_score":2,"rt":4654,"stimulus":"[\"img/0868/8b0b8473-e2c0-4331-aa56-c3a5c29369da.jpg\",\"img/0874/767f289c-9814-4496-803f-745cc8913d1f.jpg\"]","trial_type":"similarity","trial_index":69,"time_elapsed":549214,"internal_node_id":"0.0-6.0-63.0"},{"sim_score":2,"rt":4587,"stimulus":"[\"img/0758/e1ba5e53-addc-436a-b428-d34fc1b130dc.jpg\",\"img/0862/f188d4f0-76a4-4102-818c-a209969d73a5.jpg\"]","trial_type":"similarity","trial_index":70,"time_elapsed":554805,"internal_node_id":"0.0-6.0-64.0"},{"sim_score":7,"rt":3529,"stimulus":"[\"img/0904/9b3568cc-3cf7-42be-9df3-fdafde7a58b8.jpg\",\"img/0898/cd3aaa3f-efa9-4ab3-8d6f-a6a9273ddf42.jpg\"]","trial_type":"similarity","trial_index":71,"time_elapsed":559338,"internal_node_id":"0.0-6.0-65.0"},{"sim_score":3,"rt":5353,"stimulus":"[\"img/0881/292e9b4b-fca0-4ba8-87f1-4048f9e37b7d.jpg\",\"img/0866/c446214b-a368-4c65-ae39-ea46894256ab.jpg\"]","trial_type":"similarity","trial_index":72,"time_elapsed":565695,"internal_node_id":"0.0-6.0-66.0"},{"sim_score":5,"rt":5949,"stimulus":"[\"img/0867/12264664-1860-46df-8c21-162b9817cdda.jpg\",\"img/0898/04e39a7a-fcf6-4156-ab0e-f5871f335e1c.jpg\"]","trial_type":"similarity","trial_index":73,"time_elapsed":572648,"internal_node_id":"0.0-6.0-67.0"},{"sim_score":5,"rt":4417,"stimulus":"[\"img/0902/0eb85fbc-27c8-41df-9d0b-a5f9efd417d1.jpg\",\"img/0764/c01e2d65-6586-441b-bef5-3c96fcd85380.jpg\"]","trial_type":"similarity","trial_index":74,"time_elapsed":578070,"internal_node_id":"0.0-6.0-68.0"},{"sim_score":6,"rt":5452,"stimulus":"[\"img/0875/8521fd58-3b1e-4dc5-97ae-804edfa6734a.jpg\",\"img/0867/85a96c62-548f-4994-9553-819e03c3135a.jpg\"]","trial_type":"similarity","trial_index":75,"time_elapsed":584527,"internal_node_id":"0.0-6.0-69.0"},{"sim_score":6,"rt":3969,"stimulus":"[\"img/0766/d14acac4-7db1-4b07-8f8f-302437326fc0.jpg\",\"img/0764/f2f23359-8e82-41d3-8900-5b9f4433991d.jpg\"]","trial_type":"similarity","trial_index":76,"time_elapsed":589501,"internal_node_id":"0.0-6.0-70.0"},{"sim_score":3,"rt":5068,"stimulus":"[\"img/0894/5a49e858-2850-4892-9a06-e9f0efb5f94d.jpg\",\"img/0867/8ba0c5a7-c7e4-42cf-a80a-543763b90779.jpg\"]","trial_type":"similarity","trial_index":77,"time_elapsed":595575,"internal_node_id":"0.0-6.0-71.0"},{"sim_score":2,"rt":5419,"stimulus":"[\"img/0875/527ced51-8e53-4aab-ab05-86df219104c0.jpg\",\"img/0764/f64dfa83-333d-494c-87b5-73e942f1766e.jpg\"]","trial_type":"similarity","trial_index":78,"time_elapsed":601999,"internal_node_id":"0.0-6.0-72.0"},{"sim_score":7,"rt":4912,"stimulus":"[\"img/0867/de92135f-5b65-4ed9-b245-188292c7c2f8.jpg\",\"img/0866/f756f7d1-9ad8-4a34-9ef6-7a443d705bfe.jpg\"]","trial_type":"similarity","trial_index":79,"time_elapsed":607916,"internal_node_id":"0.0-6.0-73.0"},{"sim_score":3,"rt":4385,"stimulus":"[\"img/0903/5248eedd-7e6a-4d39-91b0-06ec227f3ed0.jpg\",\"img/0758/6e95579b-5166-487c-b8cb-e417c6a218e3.jpg\"]","trial_type":"similarity","trial_index":80,"time_elapsed":613306,"internal_node_id":"0.0-6.0-74.0"},{"sim_score":3,"rt":4698,"stimulus":"[\"img/0766/d8221e53-2300-4d99-ae1b-0bfb0eabe579.jpg\",\"img/0868/7b212364-ff5f-4e28-9241-7eb6ea00161b.jpg\"]","trial_type":"similarity","trial_index":81,"time_elapsed":619009,"internal_node_id":"0.0-6.0-75.0"},{"sim_score":5,"rt":5666,"stimulus":"[\"img/0874/93d1f8dc-acf2-4f03-bd8d-8ec35df276ed.jpg\",\"img/0766/1bc0dccc-a5b5-4375-87fa-28360ca42b12.jpg\"]","trial_type":"similarity","trial_index":82,"time_elapsed":625680,"internal_node_id":"0.0-6.0-76.0"},{"sim_score":2,"rt":5352,"stimulus":"[\"img/0881/566f45f8-5fed-4479-a60f-26377e60a62d.jpg\",\"img/0868/1a62b2b2-18f5-466e-b564-5176a57c565e.jpg\"]","trial_type":"similarity","trial_index":83,"time_elapsed":632036,"internal_node_id":"0.0-6.0-77.0"},{"sim_score":1,"rt":4452,"stimulus":"[\"img/0758/d41c06bf-ebaf-454b-91c6-1a17f917b659.jpg\",\"img/0901/7c16dd9c-44ad-4d5b-990c-6a0b9b48b1b1.jpg\"]","trial_type":"similarity","trial_index":84,"time_elapsed":637492,"internal_node_id":"0.0-6.0-78.0"},{"sim_score":1,"rt":4329,"stimulus":"[\"img/0881/20af39f5-373d-4a55-a437-2dc4c0382c46.jpg\",\"img/0898/81b08535-2020-4c15-9ce4-2f1e460755ae.jpg\"]","trial_type":"similarity","trial_index":85,"time_elapsed":642826,"internal_node_id":"0.0-6.0-79.0"},{"sim_score":2,"rt":4552,"stimulus":"[\"img/0867/98d8cd96-1476-4fe0-a3a3-04f875500a1b.jpg\",\"img/0758/6cd8c362-ae2a-41eb-80a3-3a4f7ace1530.jpg\"]","trial_type":"similarity","trial_index":86,"time_elapsed":648382,"internal_node_id":"0.0-6.0-80.0"},{"sim_score":6,"rt":4069,"stimulus":"[\"img/0769/ebef2ddc-ba59-4e0e-97f8-927864eb5081.jpg\",\"img/0899/a05bea16-2bb4-4cb9-b8fb-4ff975db6971.jpg\"]","trial_type":"similarity","trial_index":87,"time_elapsed":653456,"internal_node_id":"0.0-6.0-81.0"},{"sim_score":7,"rt":3744,"stimulus":"[\"img/0903/647ce311-8c71-479a-8361-961db1457139.jpg\",\"img/0903/72197c2b-403e-4a26-b391-f1aa8dea4b76.jpg\"]","trial_type":"similarity","trial_index":88,"time_elapsed":658204,"internal_node_id":"0.0-6.0-82.0"},{"sim_score":2,"rt":4451,"stimulus":"[\"img/0867/c71dc569-f49c-4397-8381-68b8d726736d.jpg\",\"img/0766/09f646c8-a69e-4ed3-879c-8d29b04ad7f9.jpg\"]","trial_type":"similarity","trial_index":89,"time_elapsed":678814,"internal_node_id":"0.0-6.0-83.0"},{"sim_score":2,"rt":5768,"stimulus":"[\"img/0902/cf9dee9c-2bdf-4d64-9302-97f1660fe52c.jpg\",\"img/0867/aa05d113-fc19-4756-a8eb-7878f580bc92.jpg\"]","trial_type":"similarity","trial_index":90,"time_elapsed":685588,"internal_node_id":"0.0-6.0-84.0"},{"sim_score":1,"rt":6981,"stimulus":"[\"img/0901/62315ff5-ed95-46b4-b099-92552079659b.jpg\",\"img/0875/ebf7653f-ff45-4e9f-af58-2c042ab3cd2b.jpg\"]","trial_type":"similarity","trial_index":91,"time_elapsed":693575,"internal_node_id":"0.0-6.0-85.0"},{"sim_score":1,"rt":4946,"stimulus":"[\"img/0764/8740679b-b56f-4292-aece-14063457113a.jpg\",\"img/0866/d493a2c8-66eb-44b4-be02-2f327b700b7c.jpg\"]","trial_type":"similarity","trial_index":92,"time_elapsed":699526,"internal_node_id":"0.0-6.0-86.0"},{"sim_score":5,"rt":4968,"stimulus":"[\"img/0901/31c032fd-3c3d-4882-a226-da9a80198937.jpg\",\"img/0894/43216a7f-27bc-4b5a-8841-d122a30da9d9.jpg\"]","trial_type":"similarity","trial_index":93,"time_elapsed":705500,"internal_node_id":"0.0-6.0-87.0"},{"sim_score":5,"rt":4654,"stimulus":"[\"img/0898/6cd3830b-d44e-4915-be2b-88d31424b91c.jpg\",\"img/0769/c34b7763-8ff2-46d5-9e92-f1d8f3bedbd8.jpg\"]","trial_type":"similarity","trial_index":94,"time_elapsed":711158,"internal_node_id":"0.0-6.0-88.0"},{"sim_score":5,"rt":4070,"stimulus":"[\"img/0769/458d9c77-b844-40b5-bb1b-1e3bbd4da64e.jpg\",\"img/0894/4739e06d-c31e-4bf1-bf91-c97fa9afb456.jpg\"]","trial_type":"similarity","trial_index":95,"time_elapsed":716233,"internal_node_id":"0.0-6.0-89.0"},{"sim_score":4,"rt":5382,"stimulus":"[\"img/0862/eefa5588-9efd-4591-aa5f-a2e17c7d7bcc.jpg\",\"img/0874/c0378dac-9370-439a-8b79-db27c96fb390.jpg\"]","trial_type":"similarity","trial_index":96,"time_elapsed":722621,"internal_node_id":"0.0-6.0-90.0"},{"sim_score":6,"rt":4228,"stimulus":"[\"img/0894/7dd6ff43-f8fc-408a-8a41-a2b261871820.jpg\",\"img/0766/0b48f9e0-7d37-4161-8adb-4e3f5b6b7583.jpg\"]","trial_type":"similarity","trial_index":97,"time_elapsed":727854,"internal_node_id":"0.0-6.0-91.0"},{"sim_score":3,"rt":6542,"stimulus":"[\"img/0874/3ce41e7c-40c8-4d58-a546-171114521796.jpg\",\"img/0867/f26f6b60-f772-4f4c-95a4-addc62cfd692.jpg\"]","trial_type":"similarity","trial_index":98,"time_elapsed":735403,"internal_node_id":"0.0-6.0-92.0"},{"sim_score":2,"rt":4912,"stimulus":"[\"img/0899/0adc0bc3-6fca-4078-be6f-d45ddf1653d5.jpg\",\"img/0868/d98ca254-b195-477f-b57e-5760a2717db8.jpg\"]","trial_type":"similarity","trial_index":99,"time_elapsed":741319,"internal_node_id":"0.0-6.0-93.0"},{"sim_score":2,"rt":5284,"stimulus":"[\"img/0903/2a9c8033-3e70-47fa-816d-97ee1813a3a3.jpg\",\"img/0862/5d887e9f-89e2-4ebc-80a0-6d46fe6480db.jpg\"]","trial_type":"similarity","trial_index":100,"time_elapsed":747608,"internal_node_id":"0.0-6.0-94.0"},{"sim_score":6,"rt":4756,"stimulus":"[\"img/0899/25ae6ec8-9565-49fe-a8bb-8d0666f52716.jpg\",\"img/0766/a754e4b6-5019-4cf4-8f58-34c20547a1f5.jpg\"]","trial_type":"similarity","trial_index":101,"time_elapsed":753369,"internal_node_id":"0.0-6.0-95.0"},{"sim_score":7,"rt":4406,"stimulus":"[\"img/0867/179ab87a-8eac-4c52-a41f-2e48e3120f09.jpg\",\"img/0868/293079b8-7e0c-4afd-a390-1e5d35fe3ded.jpg\"]","trial_type":"similarity","trial_index":102,"time_elapsed":758780,"internal_node_id":"0.0-6.0-96.0"},{"sim_score":3,"rt":5622,"stimulus":"[\"img/0862/57b6f83f-c763-4858-830d-102f97bfefbf.jpg\",\"img/0901/c6df1a21-44ed-47c2-960e-7c52220e329e.jpg\"]","trial_type":"similarity","trial_index":103,"time_elapsed":765405,"internal_node_id":"0.0-6.0-97.0"},{"sim_score":1,"rt":4171,"stimulus":"[\"img/0875/e7e66b13-b573-431e-b85e-288ce04a35a3.jpg\",\"img/0766/d919cedb-f9b7-4f30-83bb-3e9c65001ceb.jpg\"]","trial_type":"similarity","trial_index":104,"time_elapsed":770582,"internal_node_id":"0.0-6.0-98.0"},{"sim_score":7,"rt":5384,"stimulus":"[\"img/0758/a709631e-3705-4725-ac40-f0d916924f08.jpg\",\"img/0874/adf9a8f1-c40b-402b-b95b-1e85a54a7b62.jpg\"]","trial_type":"similarity","trial_index":105,"time_elapsed":776970,"internal_node_id":"0.0-6.0-99.0"},{"sim_score":5,"rt":4327,"stimulus":"[\"img/0904/9dd5708f-3f8b-46a9-b49f-2f2fab87b357.jpg\",\"img/0868/6a28c3b0-3d76-498a-9fb7-ddafc665eca8.jpg\"]","trial_type":"similarity","trial_index":106,"time_elapsed":782303,"internal_node_id":"0.0-6.0-100.0"},{"sim_score":3,"rt":3507,"stimulus":"[\"img/0903/365f176c-25a4-4973-bd3c-279bf1b39476.jpg\",\"img/0866/8efcaa46-83ab-4dee-a35f-850402aa21ae.jpg\"]","trial_type":"similarity","trial_index":107,"time_elapsed":786814,"internal_node_id":"0.0-6.0-101.0"},{"sim_score":2,"rt":4476,"stimulus":"[\"img/0868/15dd6fd7-791e-4b53-b203-195d617521a4.jpg\",\"img/0769/022c7e3b-c3f2-4119-b4bc-f22fa7cae18c.jpg\"]","trial_type":"similarity","trial_index":108,"time_elapsed":792293,"internal_node_id":"0.0-6.0-102.0"},{"sim_score":6,"rt":5126,"stimulus":"[\"img/0902/d5e25767-e8ec-45f3-ac0a-7b4a6f7a9edc.jpg\",\"img/0899/4408c14d-c168-4a7d-96f6-bc87bfb58f83.jpg\"]","trial_type":"similarity","trial_index":109,"time_elapsed":798424,"internal_node_id":"0.0-6.0-103.0"},{"sim_score":3,"rt":5037,"stimulus":"[\"img/0868/4e626425-63c8-484a-8a1d-e66ee4e0bef8.jpg\",\"img/0862/99a99e39-8355-44ec-b993-e7bcec111e1c.jpg\"]","trial_type":"similarity","trial_index":110,"time_elapsed":804466,"internal_node_id":"0.0-6.0-104.0"},{"sim_score":7,"rt":4417,"stimulus":"[\"img/0903/f1fa0f8d-e62b-4b4a-a174-31a0fabfe61b.jpg\",\"img/0894/10f22b96-040c-44f4-950b-a4963f3f506c.jpg\"]","trial_type":"similarity","trial_index":111,"time_elapsed":809889,"internal_node_id":"0.0-6.0-105.0"},{"sim_score":7,"rt":2955,"stimulus":"[\"img/0864/5f74a653-3bdc-4308-8cca-ac667dc22e1f.jpg\",\"img/0874/99f6563c-8a8d-4c1c-a41d-667b618c3fd5.jpg\"]","trial_type":"similarity","trial_index":112,"time_elapsed":813848,"internal_node_id":"0.0-6.0-106.0"},{"sim_score":5,"rt":4733,"stimulus":"[\"img/0862/ba89835a-408c-480b-8594-ed4ffa97eb5c.jpg\",\"img/0902/97022122-01e4-46c3-a34f-c6260ad28428.jpg\"]","trial_type":"similarity","trial_index":113,"time_elapsed":819587,"internal_node_id":"0.0-6.0-107.0"},{"sim_score":7,"rt":3269,"stimulus":"[\"img/0904/b5855d6a-7ef9-46ca-9215-6e9fa046e543.jpg\",\"img/0903/6b5dcc60-3ad3-4962-93e5-e6cf768477af.jpg\"]","trial_type":"similarity","trial_index":114,"time_elapsed":823861,"internal_node_id":"0.0-6.0-108.0"},{"sim_score":1,"rt":4169,"stimulus":"[\"img/0764/4952d0a0-c9be-471a-8ec7-94a37bf4051d.jpg\",\"img/0864/6f631579-acf1-415c-a42c-1207f62a8d99.jpg\"]","trial_type":"similarity","trial_index":115,"time_elapsed":829036,"internal_node_id":"0.0-6.0-109.0"},{"sim_score":1,"rt":4226,"stimulus":"[\"img/0866/4a87911a-d5be-4d4e-ab8e-3d1f581bf507.jpg\",\"img/0894/2d2db7b3-e8a3-499b-b63a-14f51bf73882.jpg\"]","trial_type":"similarity","trial_index":116,"time_elapsed":834268,"internal_node_id":"0.0-6.0-110.0"},{"sim_score":6,"rt":4843,"stimulus":"[\"img/0899/0e1d936a-dbe2-4afc-9f19-7b7a1ae6c9ed.jpg\",\"img/0903/0fb24af7-9a26-4e9d-aadc-959a36f683e2.jpg\"]","trial_type":"similarity","trial_index":117,"time_elapsed":840117,"internal_node_id":"0.0-6.0-111.0"},{"sim_score":7,"rt":3396,"stimulus":"[\"img/0902/b03fee99-d5ca-4bf8-871c-a4a743a39842.jpg\",\"img/0904/09934646-45d2-4147-8fec-64a22a5ac822.jpg\"]","trial_type":"similarity","trial_index":118,"time_elapsed":844516,"internal_node_id":"0.0-6.0-112.0"},{"sim_score":1,"rt":3867,"stimulus":"[\"img/0864/c22faebd-9c53-47bc-ada3-b9a30c688e75.jpg\",\"img/0860/4c530c3c-6aab-492a-94d1-9c01797bde40.jpg\"]","trial_type":"similarity","trial_index":119,"time_elapsed":849387,"internal_node_id":"0.0-6.0-113.0"},{"sim_score":5,"rt":4316,"stimulus":"[\"img/0860/61fb959d-d4d9-4de4-9e4e-4fa62b4cfcd5.jpg\",\"img/0899/d8f2dd94-570e-4e8c-a087-d96090fb9e8c.jpg\"]","trial_type":"similarity","trial_index":120,"time_elapsed":854708,"internal_node_id":"0.0-6.0-114.0"},{"sim_score":2,"rt":3844,"stimulus":"[\"img/0881/5fe04dd0-5c74-47b7-99c8-b068db9ca26a.jpg\",\"img/0903/f67c4ab9-f8c2-4fcd-848a-a54a7b031002.jpg\"]","trial_type":"similarity","trial_index":121,"time_elapsed":859557,"internal_node_id":"0.0-6.0-115.0"},{"sim_score":2,"rt":6161,"stimulus":"[\"img/0894/e6385e52-6c35-43bd-b0af-bc803d107b11.jpg\",\"img/0874/1016b306-087c-4afc-aa08-fa527b28dc76.jpg\"]","trial_type":"similarity","trial_index":122,"time_elapsed":866724,"internal_node_id":"0.0-6.0-116.0"},{"sim_score":3,"rt":5002,"stimulus":"[\"img/0881/f7a8cc63-8842-40a4-9ff8-fe530310d62c.jpg\",\"img/0862/e8cc3bdf-cc43-4565-bccf-492626c70953.jpg\"]","trial_type":"similarity","trial_index":123,"time_elapsed":872732,"internal_node_id":"0.0-6.0-117.0"},{"sim_score":7,"rt":3157,"stimulus":"[\"img/0868/77091fc7-a590-4ebb-b915-fdb2483a2399.jpg\",\"img/0875/5a7c4e35-6514-4e12-8879-d16071da4cd6.jpg\"]","trial_type":"similarity","trial_index":124,"time_elapsed":876893,"internal_node_id":"0.0-6.0-118.0"},{"sim_score":5,"rt":5926,"stimulus":"[\"img/0860/4a022222-056d-461c-ab02-39fac9647552.jpg\",\"img/0758/3ddd05d3-557e-4ee7-8b78-9d2d681d8ae2.jpg\"]","trial_type":"similarity","trial_index":125,"time_elapsed":883824,"internal_node_id":"0.0-6.0-119.0"},{"sim_score":5,"rt":4091,"stimulus":"[\"img/0864/66091c27-e588-4476-8af9-265dc6be4156.jpg\",\"img/0875/42910c99-5463-450a-a0f8-d4d060a11455.jpg\"]","trial_type":"similarity","trial_index":126,"time_elapsed":888920,"internal_node_id":"0.0-6.0-120.0"},{"sim_score":2,"rt":5453,"stimulus":"[\"img/0898/ec565187-2e31-4fdd-9a5c-153d0c789ae0.jpg\",\"img/0866/945c6710-d15b-4a5b-a8f6-69af0850357f.jpg\"]","trial_type":"similarity","trial_index":127,"time_elapsed":895377,"internal_node_id":"0.0-6.0-121.0"},{"sim_score":5,"rt":4992,"stimulus":"[\"img/0874/29830da7-be5f-44e5-b141-652a0ccf7269.jpg\",\"img/0904/5cceabc9-de1d-4c67-989b-c28a4ef77e79.jpg\"]","trial_type":"similarity","trial_index":128,"time_elapsed":901374,"internal_node_id":"0.0-6.0-122.0"},{"sim_score":2,"rt":4035,"stimulus":"[\"img/0904/fe746a3f-8458-48d0-8a13-8cba2a9df9f8.jpg\",\"img/0864/300bb811-8b3c-4c42-8653-6097c3725197.jpg\"]","trial_type":"similarity","trial_index":129,"time_elapsed":906413,"internal_node_id":"0.0-6.0-123.0"},{"sim_score":5,"rt":5071,"stimulus":"[\"img/0894/86201968-6e78-4d68-9b3a-d1692e066210.jpg\",\"img/0902/168ebd47-9e82-4ab7-a18b-c3da85072db8.jpg\"]","trial_type":"similarity","trial_index":130,"time_elapsed":912489,"internal_node_id":"0.0-6.0-124.0"},{"sim_score":1,"rt":3733,"stimulus":"[\"img/0868/fd307a36-9a3a-47d7-ab7c-f810d0b35040.jpg\",\"img/0864/3651d070-2fc5-4848-b6a6-088a2d9ac5c9.jpg\"]","trial_type":"similarity","trial_index":131,"time_elapsed":922613,"internal_node_id":"0.0-6.0-125.0"},{"sim_score":1,"rt":3957,"stimulus":"[\"img/0899/f58b8d2f-b19d-4b59-8b94-8834be92e4ba.jpg\",\"img/0866/a15b02be-11bb-43e3-b0e0-ecc3bd7dfc49.jpg\"]","trial_type":"similarity","trial_index":132,"time_elapsed":927576,"internal_node_id":"0.0-6.0-126.0"},{"sim_score":2,"rt":4518,"stimulus":"[\"img/0875/2c361b79-c3d1-4eda-812e-bf03192407bf.jpg\",\"img/0904/b7c2a2c8-df33-4473-b3d4-ff7147c60db3.jpg\"]","trial_type":"similarity","trial_index":133,"time_elapsed":933098,"internal_node_id":"0.0-6.0-127.0"},{"sim_score":2,"rt":4903,"stimulus":"[\"img/0867/1719a35d-f085-48c0-9099-16c94fe418b4.jpg\",\"img/0899/b45c550b-96c3-4255-ad59-48a2b4db1c1e.jpg\"]","trial_type":"similarity","trial_index":134,"time_elapsed":939006,"internal_node_id":"0.0-6.0-128.0"},{"sim_score":2,"rt":4282,"stimulus":"[\"img/0901/a373612d-67e2-4fec-9764-21d3d6ef6359.jpg\",\"img/0867/f8159067-056c-41f1-a136-c529fe5e970a.jpg\"]","trial_type":"similarity","trial_index":135,"time_elapsed":944296,"internal_node_id":"0.0-6.0-129.0"},{"sim_score":3,"rt":5023,"stimulus":"[\"img/0864/e336a4c5-6648-4fd7-b2f6-93a3fb83f8c6.jpg\",\"img/0769/3c1203c5-2ce7-466e-957a-8d77b5905460.jpg\"]","trial_type":"similarity","trial_index":136,"time_elapsed":950323,"internal_node_id":"0.0-6.0-130.0"},{"sim_score":3,"rt":5003,"stimulus":"[\"img/0903/5c6b1f57-b3a2-40f5-9fb1-82785e24b6a0.jpg\",\"img/0868/c8ac40c7-6904-4e13-8d61-c75d3052dc4e.jpg\"]","trial_type":"similarity","trial_index":137,"time_elapsed":956330,"internal_node_id":"0.0-6.0-131.0"},{"sim_score":5,"rt":4149,"stimulus":"[\"img/0864/9b2490c5-a282-400a-9736-e1a0ecbf1cb7.jpg\",\"img/0867/7d1c497b-c1b3-4ed8-abb5-d7f73306015f.jpg\"]","trial_type":"similarity","trial_index":138,"time_elapsed":961484,"internal_node_id":"0.0-6.0-132.0"},{"sim_score":5,"rt":5508,"stimulus":"[\"img/0901/d6d15b1c-4a30-4f74-a3fd-d4c8ee4169ca.jpg\",\"img/0860/5383b320-1518-4095-a58e-5cc1ae30b64c.jpg\"]","trial_type":"similarity","trial_index":139,"time_elapsed":967997,"internal_node_id":"0.0-6.0-133.0"},{"sim_score":5,"rt":4778,"stimulus":"[\"img/0881/0c7068da-d0d9-4103-bda1-74ef7a2b32c3.jpg\",\"img/0766/5d1b8041-c5a1-4b02-b4fe-3453d98a0d72.jpg\"]","trial_type":"similarity","trial_index":140,"time_elapsed":973781,"internal_node_id":"0.0-6.0-134.0"},{"sim_score":3,"rt":4719,"stimulus":"[\"img/0903/9b60ef5b-234f-4239-892b-3d4c412accc2.jpg\",\"img/0864/da39ad34-04e0-40d4-a724-c08d53e0ea09.jpg\"]","trial_type":"similarity","trial_index":141,"time_elapsed":979505,"internal_node_id":"0.0-6.0-135.0"},{"sim_score":3,"rt":4936,"stimulus":"[\"img/0758/f61ecdf8-a7d4-4db0-b84d-be46f7cfaffc.jpg\",\"img/0894/e2446cf5-cd48-486a-badc-76498e087fbe.jpg\"]","trial_type":"similarity","trial_index":142,"time_elapsed":985445,"internal_node_id":"0.0-6.0-136.0"},{"sim_score":3,"rt":3968,"stimulus":"[\"img/0769/f73c5138-2f4c-4354-981c-129dff9cc734.jpg\",\"img/0860/f44ba3fb-03a2-42f0-8509-2c1ded493086.jpg\"]","trial_type":"similarity","trial_index":143,"time_elapsed":990418,"internal_node_id":"0.0-6.0-137.0"},{"sim_score":6,"rt":3315,"stimulus":"[\"img/0904/2c98dc56-88d1-4fb5-a999-b6a7861f65f0.jpg\",\"img/0766/c23b5a20-e50f-4d85-841f-cf89212a4348.jpg\"]","trial_type":"similarity","trial_index":144,"time_elapsed":994738,"internal_node_id":"0.0-6.0-138.0"},{"sim_score":5,"rt":4384,"stimulus":"[\"img/0868/5fa7f9d0-f0e5-454c-8224-74d964818f56.jpg\",\"img/0860/c5ccd1a4-4bb7-48e1-9b25-72cfaf06909b.jpg\"]","trial_type":"similarity","trial_index":145,"time_elapsed":1000126,"internal_node_id":"0.0-6.0-139.0"},{"sim_score":7,"rt":4373,"stimulus":"[\"img/0758/53f35650-e455-4b53-8be4-c3c8271c6466.jpg\",\"img/0864/c3b63e8f-ea39-4d70-a1f2-b3fe4be8eb75.jpg\"]","trial_type":"similarity","trial_index":146,"time_elapsed":1005505,"internal_node_id":"0.0-6.0-140.0"},{"sim_score":7,"rt":3707,"stimulus":"[\"img/0867/2e1a0b58-cdb1-4107-a14e-452530d7b9b0.jpg\",\"img/0867/db7e032f-162b-46f5-ae67-2b29679adee4.jpg\"]","trial_type":"similarity","trial_index":147,"time_elapsed":1010218,"internal_node_id":"0.0-6.0-141.0"},{"sim_score":6,"rt":4484,"stimulus":"[\"img/0898/68476bbb-34a1-42d9-8bc1-deab783d4489.jpg\",\"img/0898/f3a3f225-1248-4ac7-b93b-f0ff28485bf3.jpg\"]","trial_type":"similarity","trial_index":148,"time_elapsed":1015708,"internal_node_id":"0.0-6.0-142.0"},{"sim_score":5,"rt":4035,"stimulus":"[\"img/0866/386235d2-6857-41e7-88a8-25cfc3430025.jpg\",\"img/0769/db94b61b-a5a7-4861-9d32-7b02ad194fb0.jpg\"]","trial_type":"similarity","trial_index":149,"time_elapsed":1020749,"internal_node_id":"0.0-6.0-143.0"},{"sim_score":3,"rt":4394,"stimulus":"[\"img/0860/e14d67c1-6d92-4f1e-9257-c8607159c19c.jpg\",\"img/0898/b2732712-71c2-45d8-834f-2b2ed5504910.jpg\"]","trial_type":"similarity","trial_index":150,"time_elapsed":1026148,"internal_node_id":"0.0-6.0-144.0"},{"sim_score":5,"rt":4981,"stimulus":"[\"img/0766/a0270213-fa0e-4972-8b56-228c3e01ff90.jpg\",\"img/0864/f92649a2-0590-4d31-9a7a-1bfb81666a2d.jpg\"]","trial_type":"similarity","trial_index":151,"time_elapsed":1032134,"internal_node_id":"0.0-6.0-145.0"},{"sim_score":5,"rt":5340,"stimulus":"[\"img/0860/99c589b9-9140-4d17-90c0-b344323edcda.jpg\",\"img/0903/43ffd882-077a-40dd-a264-e58d519420a1.jpg\"]","trial_type":"similarity","trial_index":152,"time_elapsed":1038478,"internal_node_id":"0.0-6.0-146.0"},{"sim_score":2,"rt":3595,"stimulus":"[\"img/0867/5e07b34d-b40f-4b1c-ac10-49975bace45f.jpg\",\"img/0764/b887d7c6-aa81-4637-af8e-05135757ac59.jpg\"]","trial_type":"similarity","trial_index":153,"time_elapsed":1043079,"internal_node_id":"0.0-6.0-147.0"},{"sim_score":5,"rt":3619,"stimulus":"[\"img/0769/3adfa417-3b90-4aab-b437-5eaa474189cb.jpg\",\"img/0904/4e58005d-a2ec-4aaa-b199-445343561396.jpg\"]","trial_type":"similarity","trial_index":154,"time_elapsed":1047703,"internal_node_id":"0.0-6.0-148.0"},{"sim_score":5,"rt":4013,"stimulus":"[\"img/0764/6ef77040-1fae-4afa-bfe7-eda98e6d0376.jpg\",\"img/0901/04a53755-6da5-44d4-a7a6-48a6bc0a2280.jpg\"]","trial_type":"similarity","trial_index":155,"time_elapsed":1052720,"internal_node_id":"0.0-6.0-149.0"},{"sim_score":5,"rt":4250,"stimulus":"[\"img/0904/9d30eff1-46ef-4453-b11e-124ef8145c00.jpg\",\"img/0899/4f7bc593-8ddd-4da3-a0b9-84da730d3370.jpg\"]","trial_type":"similarity","trial_index":156,"time_elapsed":1057974,"internal_node_id":"0.0-6.0-150.0"},{"sim_score":3,"rt":4723,"stimulus":"[\"img/0862/ee3b7bff-4a70-4e84-9bea-4a565e456acb.jpg\",\"img/0867/6e19c858-b606-45b2-a4c6-910a73f1d82c.jpg\"]","trial_type":"similarity","trial_index":157,"time_elapsed":1063701,"internal_node_id":"0.0-6.0-151.0"},{"sim_score":7,"rt":3460,"stimulus":"[\"img/0766/ef3b15ce-abb7-4292-ad93-aec8e8b50520.jpg\",\"img/0766/214866ee-423d-4629-9bb9-41572bdc7dac.jpg\"]","trial_type":"similarity","trial_index":158,"time_elapsed":1068166,"internal_node_id":"0.0-6.0-152.0"},{"sim_score":3,"rt":6152,"stimulus":"[\"img/0862/d0ca4c78-fc35-46ed-bdcc-8e124283c53e.jpg\",\"img/0894/e5edf723-72a5-4673-8441-6c1734a8929b.jpg\"]","trial_type":"similarity","trial_index":159,"time_elapsed":1075323,"internal_node_id":"0.0-6.0-153.0"},{"sim_score":3,"rt":4968,"stimulus":"[\"img/0899/ad8268c5-8199-48d0-ad70-c5b6d6c599ec.jpg\",\"img/0901/148b747a-7392-437e-8823-33053c5dff3f.jpg\"]","trial_type":"similarity","trial_index":160,"time_elapsed":1081296,"internal_node_id":"0.0-6.0-154.0"},{"sim_score":5,"rt":4843,"stimulus":"[\"img/0874/ca23d307-fc00-4d7d-9106-584c6eb21b4d.jpg\",\"img/0874/eba003b4-cdab-4eee-8bc3-f064c7d94165.jpg\"]","trial_type":"similarity","trial_index":161,"time_elapsed":1087145,"internal_node_id":"0.0-6.0-155.0"},{"sim_score":6,"rt":3992,"stimulus":"[\"img/0860/c7047cd2-7cc1-41b6-8a34-c0986774975f.jpg\",\"img/0867/f8488a47-94ee-4166-952c-44e16cf172f6.jpg\"]","trial_type":"similarity","trial_index":162,"time_elapsed":1092140,"internal_node_id":"0.0-6.0-156.0"},{"sim_score":2,"rt":3743,"stimulus":"[\"img/0901/77087ed2-6e12-4329-b2a5-605bca6d972d.jpg\",\"img/0881/4bd34581-94d8-4e88-8c89-5cef864ca3be.jpg\"]","trial_type":"similarity","trial_index":163,"time_elapsed":1096889,"internal_node_id":"0.0-6.0-157.0"},{"sim_score":7,"rt":3562,"stimulus":"[\"img/0903/b548d383-2a95-4575-8c13-647873751ff1.jpg\",\"img/0902/24d10fe7-314f-4d5a-8c7b-b43121bba0a4.jpg\"]","trial_type":"similarity","trial_index":164,"time_elapsed":1101455,"internal_node_id":"0.0-6.0-158.0"},{"sim_score":3,"rt":3923,"stimulus":"[\"img/0860/702bd09d-df3a-40aa-a267-5f04474305b5.jpg\",\"img/0764/978aede9-4590-4ad0-b234-135c83e5d669.jpg\"]","trial_type":"similarity","trial_index":165,"time_elapsed":1106383,"internal_node_id":"0.0-6.0-159.0"},{"sim_score":2,"rt":4734,"stimulus":"[\"img/0902/962f645e-9b55-4628-9b50-c703422bfe1a.jpg\",\"img/0875/3ecb367d-e9eb-4826-8aaa-7aa72fb98019.jpg\"]","trial_type":"similarity","trial_index":166,"time_elapsed":1112121,"internal_node_id":"0.0-6.0-160.0"},{"sim_score":5,"rt":4474,"stimulus":"[\"img/0898/5f699581-3853-4547-856c-12f419ba5af7.jpg\",\"img/0862/92fcd8a4-8193-4a6a-ae09-dd4a6338b0df.jpg\"]","trial_type":"similarity","trial_index":167,"time_elapsed":1117599,"internal_node_id":"0.0-6.0-161.0"},{"sim_score":3,"rt":3924,"stimulus":"[\"img/0894/6b2e9509-8699-42b7-9582-7741df0ba2d7.jpg\",\"img/0875/03c3c331-738b-4446-af92-3d7386b08c2e.jpg\"]","trial_type":"similarity","trial_index":168,"time_elapsed":1122527,"internal_node_id":"0.0-6.0-162.0"},{"sim_score":4,"rt":5363,"stimulus":"[\"img/0866/23a224f3-2012-4fc8-8e0f-3c36f8de27fd.jpg\",\"img/0864/e02eddb5-f468-499c-91bf-f7be3ffe979b.jpg\"]","trial_type":"similarity","trial_index":169,"time_elapsed":1128895,"internal_node_id":"0.0-6.0-163.0"},{"sim_score":3,"rt":5431,"stimulus":"[\"img/0766/717fd72f-a281-499b-a5ba-5e2ecc4d4866.jpg\",\"img/0862/1c20f772-3a51-4a80-aac0-f57dc9f86c28.jpg\"]","trial_type":"similarity","trial_index":170,"time_elapsed":1135329,"internal_node_id":"0.0-6.0-164.0"},{"sim_score":5,"rt":3450,"stimulus":"[\"img/0866/bf14b5bd-fb55-47db-86b9-4f8aeb9a6dad.jpg\",\"img/0874/8cdb1c07-1c32-46d2-981c-3636560fa6e5.jpg\"]","trial_type":"similarity","trial_index":171,"time_elapsed":1139786,"internal_node_id":"0.0-6.0-165.0"},{"sim_score":5,"rt":5037,"stimulus":"[\"img/0862/cdaed51d-9e2f-4807-801a-4663c40077e2.jpg\",\"img/0860/8277806e-b684-4474-8f7b-3fca946d7d4f.jpg\"]","trial_type":"similarity","trial_index":172,"time_elapsed":1145827,"internal_node_id":"0.0-6.0-166.0"},{"sim_score":6,"rt":3832,"stimulus":"[\"img/0766/a1ed3f0f-e338-4a26-8fe4-4370f0c9fa6e.jpg\",\"img/0901/33b51a81-06d9-46d9-9d4f-5a2d6d6b8058.jpg\"]","trial_type":"similarity","trial_index":173,"time_elapsed":1157030,"internal_node_id":"0.0-6.0-167.0"},{"sim_score":7,"rt":3923,"stimulus":"[\"img/0862/f43ceabf-acc1-4107-b857-5d1849808f93.jpg\",\"img/0862/47ed5efd-4ec9-4b74-bb4e-a5f5cf0c3e7d.jpg\"]","trial_type":"similarity","trial_index":174,"time_elapsed":1161959,"internal_node_id":"0.0-6.0-168.0"},{"sim_score":5,"rt":4135,"stimulus":"[\"img/0894/c505c65a-cde2-4f2c-8cde-f8676f7c894d.jpg\",\"img/0764/06ea144f-f4f3-4a14-ba47-f20f35c561e0.jpg\"]","trial_type":"similarity","trial_index":175,"time_elapsed":1167099,"internal_node_id":"0.0-6.0-169.0"},{"sim_score":3,"rt":5532,"stimulus":"[\"img/0874/85eb9b8a-c4c6-4e5a-b8e7-363a87a82054.jpg\",\"img/0898/0c7dde4f-efce-4b7a-9387-6921635b7890.jpg\"]","trial_type":"similarity","trial_index":176,"time_elapsed":1173636,"internal_node_id":"0.0-6.0-170.0"},{"sim_score":4,"rt":4880,"stimulus":"[\"img/0860/31ff6436-98bf-4652-bed2-40f627229568.jpg\",\"img/0766/75c3d627-4f3b-40d5-9d9c-10c8a62db644.jpg\"]","trial_type":"similarity","trial_index":177,"time_elapsed":1179520,"internal_node_id":"0.0-6.0-171.0"},{"sim_score":2,"rt":4484,"stimulus":"[\"img/0898/79233891-305a-4a6a-8ddf-5c8604858203.jpg\",\"img/0864/1ebbc554-99fa-49f9-8799-317375a79820.jpg\"]","trial_type":"similarity","trial_index":178,"time_elapsed":1185009,"internal_node_id":"0.0-6.0-172.0"},{"sim_score":3,"rt":5263,"stimulus":"[\"img/0881/f8bd891e-aa09-4782-89db-33e7cb2b0cf1.jpg\",\"img/0764/c643e165-df19-459f-8c2b-8357bf432a17.jpg\"]","trial_type":"similarity","trial_index":179,"time_elapsed":1191277,"internal_node_id":"0.0-6.0-173.0"},{"sim_score":2,"rt":4304,"stimulus":"[\"img/0898/8605a25b-6895-476d-8c13-df7a83f96093.jpg\",\"img/0868/0d3abd3a-b6c3-4584-a9f7-e2da63748b3d.jpg\"]","trial_type":"similarity","trial_index":180,"time_elapsed":1196586,"internal_node_id":"0.0-6.0-174.0"},{"sim_score":7,"rt":4261,"stimulus":"[\"img/0864/0116ca98-293d-4fa6-a93b-5a6144ef64cc.jpg\",\"img/0864/87c467d3-abca-482f-ad80-3766c21b1bb3.jpg\"]","trial_type":"similarity","trial_index":181,"time_elapsed":1201851,"internal_node_id":"0.0-6.0-175.0"},{"sim_score":6,"rt":5813,"stimulus":"[\"img/0899/57476fed-5962-4272-8fc9-b317bb777b54.jpg\",\"img/0862/ad593cc7-cabe-4bb7-8e14-8a447a0717b4.jpg\"]","trial_type":"similarity","trial_index":182,"time_elapsed":1208669,"internal_node_id":"0.0-6.0-176.0"},{"sim_score":6,"rt":4000,"stimulus":"[\"img/0875/34132396-d896-4c2d-8087-646dd867e769.jpg\",\"img/0758/7ffbc76b-1fc1-432c-8f7e-9ec8d1b3f643.jpg\"]","trial_type":"similarity","trial_index":183,"time_elapsed":1213675,"internal_node_id":"0.0-6.0-177.0"},{"sim_score":3,"rt":4959,"stimulus":"[\"img/0866/620cd1aa-0800-4414-8f6e-90342e7a99ad.jpg\",\"img/0901/50e1d53e-a49f-4806-8610-be6dec5a2475.jpg\"]","trial_type":"similarity","trial_index":184,"time_elapsed":1219637,"internal_node_id":"0.0-6.0-178.0"},{"sim_score":2,"rt":5555,"stimulus":"[\"img/0769/bb8c4e53-6f32-4814-97ee-392d4decfb2e.jpg\",\"img/0874/2c9464dd-8a23-4baa-ac94-1ba3af5c15cc.jpg\"]","trial_type":"similarity","trial_index":185,"time_elapsed":1226196,"internal_node_id":"0.0-6.0-179.0"},{"sim_score":6,"rt":4756,"stimulus":"[\"img/0875/5a1e5100-0d94-4fec-bbe9-ca9894d2cf8e.jpg\",\"img/0881/c24f3051-eefa-42de-aba6-fccb56d93c70.jpg\"]","trial_type":"similarity","trial_index":186,"time_elapsed":1231956,"internal_node_id":"0.0-6.0-180.0"},{"sim_score":6,"rt":4643,"stimulus":"[\"img/0866/02f5e6b9-52b7-448c-9708-5b460d0c9a23.jpg\",\"img/0868/4a8a45ed-2c4f-421b-9564-409a33ecd26c.jpg\"]","trial_type":"similarity","trial_index":187,"time_elapsed":1237604,"internal_node_id":"0.0-6.0-181.0"},{"sim_score":2,"rt":5553,"stimulus":"[\"img/0899/06b0fc99-0581-461a-9913-d1a5a941ac61.jpg\",\"img/0758/ddc336e9-a8b6-4bb9-937a-c7e25e0e9250.jpg\"]","trial_type":"similarity","trial_index":188,"time_elapsed":1244162,"internal_node_id":"0.0-6.0-182.0"},{"sim_score":6,"rt":4430,"stimulus":"[\"img/0874/ca76a855-4e77-4f2f-872a-0a718153e7ed.jpg\",\"img/0875/cff79b3a-a797-4393-9757-6275f999ec04.jpg\"]","trial_type":"similarity","trial_index":189,"time_elapsed":1249596,"internal_node_id":"0.0-6.0-183.0"},{"sim_score":5,"rt":5781,"stimulus":"[\"img/0904/63dd06dd-dccb-47ba-9740-eb33239e18a7.jpg\",\"img/0862/00c06b00-3b73-44e9-bc1e-c5aafb438321.jpg\"]","trial_type":"similarity","trial_index":190,"time_elapsed":1256382,"internal_node_id":"0.0-6.0-184.0"},{"sim_score":5,"rt":3539,"stimulus":"[\"img/0902/94ee9c53-a9a2-4f95-b9b7-794a5fc62bb6.jpg\",\"img/0766/ba35c0fc-4d5b-490d-959e-c94b279cdd02.jpg\"]","trial_type":"similarity","trial_index":191,"time_elapsed":1260927,"internal_node_id":"0.0-6.0-185.0"},{"sim_score":4,"rt":6160,"stimulus":"[\"img/0758/335851a0-a55b-46d8-ab05-8463eda48349.jpg\",\"img/0769/1d8734c4-77ab-4165-9e71-5cfe672ff01c.jpg\"]","trial_type":"similarity","trial_index":192,"time_elapsed":1268091,"internal_node_id":"0.0-6.0-186.0"},{"sim_score":7,"rt":3923,"stimulus":"[\"img/0881/7e822106-76f7-4b10-a805-14dc68b2cfaf.jpg\",\"img/0881/344de456-b358-4887-bd0e-e4c3278af887.jpg\"]","trial_type":"similarity","trial_index":193,"time_elapsed":1273019,"internal_node_id":"0.0-6.0-187.0"},{"sim_score":5,"rt":4743,"stimulus":"[\"img/0758/d540bee6-b460-4c32-ac57-bc282742d7d4.jpg\",\"img/0866/9b38d691-1802-4959-ab3f-fc902f0e4ea6.jpg\"]","trial_type":"similarity","trial_index":194,"time_elapsed":1278767,"internal_node_id":"0.0-6.0-188.0"},{"sim_score":4,"rt":5454,"stimulus":"[\"img/0764/b8e23f4f-ff19-4472-ad9b-2f85548ebca0.jpg\",\"img/0898/01bfe666-3510-4fc7-964f-d00d28732dc8.jpg\"]","trial_type":"similarity","trial_index":195,"time_elapsed":1285225,"internal_node_id":"0.0-6.0-189.0"},{"sim_score":5,"rt":3485,"stimulus":"[\"img/0903/6378ee1e-3d2b-48d2-87be-bebda32c8268.jpg\",\"img/0901/b123d109-47b4-4f9a-80c9-9bb16da42efa.jpg\"]","trial_type":"similarity","trial_index":196,"time_elapsed":1289715,"internal_node_id":"0.0-6.0-190.0"},{"sim_score":6,"rt":4484,"stimulus":"[\"img/0902/2a7ac123-414a-476a-9a96-4757b924baef.jpg\",\"img/0898/661621d4-a14e-487c-8c74-354134a29710.jpg\"]","trial_type":"similarity","trial_index":197,"time_elapsed":1295204,"internal_node_id":"0.0-6.0-191.0"},{"sim_score":2,"rt":4935,"stimulus":"[\"img/0864/5f33e097-23e3-4002-882d-76e8cb15f451.jpg\",\"img/0901/12da1841-e611-435c-9719-109413d536a8.jpg\"]","trial_type":"similarity","trial_index":198,"time_elapsed":1301143,"internal_node_id":"0.0-6.0-192.0"},{"sim_score":2,"rt":4274,"stimulus":"[\"img/0894/a98416c0-51e2-4960-85da-d81d8688b9d5.jpg\",\"img/0881/e046471a-35b4-4159-bbf7-3cfd201bef66.jpg\"]","trial_type":"similarity","trial_index":199,"time_elapsed":1306421,"internal_node_id":"0.0-6.0-193.0"},{"sim_score":5,"rt":6306,"stimulus":"[\"img/0868/d6d1f30d-4323-435a-b194-7892521bc57e.jpg\",\"img/0868/e0aff734-077f-40dd-9781-74821abd3621.jpg\"]","trial_type":"similarity","trial_index":200,"time_elapsed":1313732,"internal_node_id":"0.0-6.0-194.0"},{"sim_score":7,"rt":3755,"stimulus":"[\"img/0899/f95cbdb4-f804-4f5d-ad76-373ad343e658.jpg\",\"img/0764/23ea9375-f801-4a96-9925-7d453da887c7.jpg\"]","trial_type":"similarity","trial_index":201,"time_elapsed":1318491,"internal_node_id":"0.0-6.0-195.0"},{"sim_score":2,"rt":3652,"stimulus":"[\"img/0881/adc02f34-ce97-4aef-850f-00519df06fd7.jpg\",\"img/0904/ba8e689e-9ca6-4608-a2a1-3b0940666ae6.jpg\"]","trial_type":"similarity","trial_index":202,"time_elapsed":1323149,"internal_node_id":"0.0-6.0-196.0"},{"sim_score":1,"rt":3665,"stimulus":"[\"img/0864/8ddd2e30-a1d0-479f-9cbe-591213023893.jpg\",\"img/0902/71c03003-03ef-4b0f-8229-e0c857150a5d.jpg\"]","trial_type":"similarity","trial_index":203,"time_elapsed":1327818,"internal_node_id":"0.0-6.0-197.0"},{"sim_score":6,"rt":5396,"stimulus":"[\"img/0894/5c7677b0-a4f1-479e-b274-7822c415175a.jpg\",\"img/0904/60d1a521-edf7-4696-9263-f21ac0e62a01.jpg\"]","trial_type":"similarity","trial_index":204,"time_elapsed":1334218,"internal_node_id":"0.0-6.0-198.0"},{"sim_score":7,"rt":4003,"stimulus":"[\"img/0901/3db47171-0139-4235-82cd-0b1787b6775f.jpg\",\"img/0901/0adb3bd6-d758-4ba7-9723-3ad6cac05bd5.jpg\"]","trial_type":"similarity","trial_index":205,"time_elapsed":1339226,"internal_node_id":"0.0-6.0-199.0"},{"sim_score":2,"rt":4496,"stimulus":"[\"img/0894/3adef67d-7676-4995-80b2-bb31b8aca3ef.jpg\",\"img/0860/c3379ff7-0763-48fe-a1ec-7ea3d611bc7a.jpg\"]","trial_type":"similarity","trial_index":206,"time_elapsed":1344726,"internal_node_id":"0.0-6.0-200.0"},{"sim_score":6,"rt":4790,"stimulus":"[\"img/0898/08c72dac-f8ad-407a-9ce6-8c9a5d679c3a.jpg\",\"img/0903/0a92ec52-4e87-410a-857a-4455cde56a70.jpg\"]","trial_type":"similarity","trial_index":207,"time_elapsed":1350520,"internal_node_id":"0.0-6.0-201.0"},{"sim_score":2,"rt":4476,"stimulus":"[\"img/0864/e8bd659f-aa43-4748-877e-3118e8b4e189.jpg\",\"img/0894/1a010553-d598-4b06-a772-81f1e7b3addb.jpg\"]","trial_type":"similarity","trial_index":208,"time_elapsed":1355999,"internal_node_id":"0.0-6.0-202.0"},{"sim_score":2,"rt":5070,"stimulus":"[\"img/0874/a3bc679d-619f-4db6-bb68-116dcb757d9c.jpg\",\"img/0860/15b24a61-25be-4356-9eac-5ce95d0cb4a4.jpg\"]","trial_type":"similarity","trial_index":209,"time_elapsed":1362074,"internal_node_id":"0.0-6.0-203.0"},{"sim_score":1,"rt":4778,"stimulus":"[\"img/0862/fad1d7c1-8187-43c3-942a-0fc12183e48e.jpg\",\"img/0875/d59ff733-eaff-4ee2-9443-06954dd0bcb6.jpg\"]","trial_type":"similarity","trial_index":210,"time_elapsed":1367858,"internal_node_id":"0.0-6.0-204.0"},{"sim_score":4,"rt":5147,"stimulus":"[\"img/0867/26611f4e-d694-4460-b7e2-43c62753ddc3.jpg\",\"img/0881/44e09805-5a25-4f17-a716-4ad4a331b174.jpg\"]","trial_type":"similarity","trial_index":211,"time_elapsed":1374012,"internal_node_id":"0.0-6.0-205.0"},{"sim_score":6,"rt":3685,"stimulus":"[\"img/0901/1ede21d9-384f-4150-86b5-e1c57b5dc1d4.jpg\",\"img/0902/82d20e8c-2162-47a6-925b-52906558c046.jpg\"]","trial_type":"similarity","trial_index":212,"time_elapsed":1378703,"internal_node_id":"0.0-6.0-206.0"},{"sim_score":1,"rt":4574,"stimulus":"[\"img/0899/8abe6c69-822c-436c-9bf2-96c818b49ba5.jpg\",\"img/0864/a248adb3-c70b-4652-b7a3-776d2a1e904b.jpg\"]","trial_type":"similarity","trial_index":213,"time_elapsed":1384282,"internal_node_id":"0.0-6.0-207.0"},{"sim_score":4,"rt":4058,"stimulus":"[\"img/0901/233a6948-48eb-4b67-8259-222b916b2322.jpg\",\"img/0769/d1be2815-fa79-46e8-b5c3-7d81caaca490.jpg\"]","trial_type":"similarity","trial_index":214,"time_elapsed":1389344,"internal_node_id":"0.0-6.0-208.0"},{"sim_score":5,"rt":4013,"stimulus":"[\"img/0902/b76efc44-a50f-4dac-b997-ff0222376067.jpg\",\"img/0902/12452bb1-b8c0-4e4d-ad4d-47e279e5933c.jpg\"]","trial_type":"similarity","trial_index":215,"time_elapsed":1399716,"internal_node_id":"0.0-6.0-209.0"},{"view_history":"[{\"page_index\":0,\"viewing_time\":5939}]","rt":5940,"trial_type":"instructions","trial_index":216,"time_elapsed":1406658,"internal_node_id":"0.0-7.0"},{"rt":159299,"responses":"{\"Q0\":\"Nashville Warbler\"}","answer":["Nashville Warbler"],"trial_type":"image-multi-choice","trial_index":217,"time_elapsed":1566973,"internal_node_id":"0.0-8.0-0.0"},{"rt":142526,"responses":"{\"Q0\":\"Black-and-white Warbler\"}","answer":["Black-and-white Warbler"],"trial_type":"image-multi-choice","trial_index":218,"time_elapsed":1710511,"internal_node_id":"0.0-8.0-1.0"},{"rt":146389,"responses":"{\"Q0\":\"Blackburnian Warbler\"}","answer":["Townsend's Warbler"],"trial_type":"image-multi-choice","trial_index":219,"time_elapsed":1857909,"internal_node_id":"0.0-8.0-2.0"},{"rt":182429,"responses":"{\"Q0\":\"Lark Sparrow\"}","answer":["Lark Sparrow"],"trial_type":"image-multi-choice","trial_index":220,"time_elapsed":2041353,"internal_node_id":"0.0-8.0-3.0"},{"rt":22738,"responses":"{\"Q0\":\"Yellow Warbler\"}","answer":["Yellow Warbler"],"trial_type":"image-multi-choice","trial_index":221,"time_elapsed":2065102,"internal_node_id":"0.0-8.0-4.0"},{"rt":47510,"responses":"{\"Q0\":\"Magnolia Warbler\"}","answer":["Orange-crowned Warbler"],"trial_type":"image-multi-choice","trial_index":222,"time_elapsed":2113622,"internal_node_id":"0.0-8.0-5.0"},{"rt":34355,"responses":"{\"Q0\":\"White-crowned Sparrow\"}","answer":["White-throated Sparrow"],"trial_type":"image-multi-choice","trial_index":223,"time_elapsed":2148989,"internal_node_id":"0.0-8.0-6.0"},{"rt":21562,"responses":"{\"Q0\":\"Fox Sparrow\"}","answer":["Fox Sparrow"],"trial_type":"image-multi-choice","trial_index":224,"time_elapsed":2171561,"internal_node_id":"0.0-8.0-7.0"},{"rt":17957,"responses":"{\"Q0\":\"Chipping Sparrow\"}","answer":["Song Sparrow"],"trial_type":"image-multi-choice","trial_index":225,"time_elapsed":2190528,"internal_node_id":"0.0-8.0-8.0"},{"rt":35542,"responses":"{\"Q0\":\"Blackburnian Warbler\"}","answer":["Blackburnian Warbler"],"trial_type":"image-multi-choice","trial_index":226,"time_elapsed":2227079,"internal_node_id":"0.0-8.0-9.0"},{"rt":33214,"responses":"{\"Q0\":\"Lincoln's Sparrow\"}","answer":["Vesper Sparrow"],"trial_type":"image-multi-choice","trial_index":227,"time_elapsed":2261301,"internal_node_id":"0.0-8.0-10.0"},{"rt":42752,"responses":"{\"Q0\":\"White-crowned Sparrow\"}","answer":["White-crowned Sparrow"],"trial_type":"image-multi-choice","trial_index":228,"time_elapsed":2305065,"internal_node_id":"0.0-8.0-11.0"},{"rt":133753,"responses":"{\"Q0\":\"Chipping Sparrow\"}","answer":["American Tree Sparrow"],"trial_type":"image-multi-choice","trial_index":229,"time_elapsed":2439830,"internal_node_id":"0.0-8.0-12.0"},{"rt":110294,"responses":"{\"Q0\":\"Orange-crowned Warbler\"}","answer":["Tennessee Warbler"],"trial_type":"image-multi-choice","trial_index":230,"time_elapsed":2551137,"internal_node_id":"0.0-8.0-13.0"},{"rt":25045,"responses":"{\"Q0\":\"Black-and-white Warbler\"}","answer":["Magnolia Warbler"],"trial_type":"image-multi-choice","trial_index":231,"time_elapsed":2577193,"internal_node_id":"0.0-8.0-14.0"},{"rt":13578,"responses":"{\"Q0\":\"Northern Waterthrush\"}","answer":["Northern Waterthrush"],"trial_type":"image-multi-choice","trial_index":232,"time_elapsed":2591783,"internal_node_id":"0.0-8.0-15.0"},{"rt":51035,"responses":"{\"Q0\":\"American Tree Sparrow\"}","answer":["Chipping Sparrow"],"trial_type":"image-multi-choice","trial_index":233,"time_elapsed":2643826,"internal_node_id":"0.0-8.0-16.0"},{"rt":33854,"responses":"{\"Q0\":\"Lark Sparrow\"}","answer":["Swamp Sparrow"],"trial_type":"image-multi-choice","trial_index":234,"time_elapsed":2678691,"internal_node_id":"0.0-8.0-17.0"},{"rt":9291,"responses":"{\"Q0\":\"Chipping Sparrow\"}","answer":["Lincoln's Sparrow"],"trial_type":"image-multi-choice","trial_index":235,"time_elapsed":2688995,"internal_node_id":"0.0-8.0-18.0"},{"rt":108192,"responses":"{\"Q0\":\"Ovenbird\"}","answer":["Ovenbird"],"trial_type":"image-multi-choice","trial_index":236,"time_elapsed":2798199,"internal_node_id":"0.0-8.0-19.0"}]