"view_history","rt","trial_type","trial_index","time_elapsed","internal_node_id","sim_score","stimulus","responses","answer"
"[{""page_index"":0,""viewing_time"":29574}]","29575","instructions","0","29576","0.0-0.0","","","",""
"","8923","similarity_demo","1","39509","0.0-1.0","3","[""img/866.jpg"",""img/868.jpg""]","",""
"[{""page_index"":0,""viewing_time"":25692}]","25693","instructions","2","66203","0.0-2.0","","","",""
"","9144","similarity_demo","3","76352","0.0-3.0","3","[""img/766.jpg"",""img/867.jpg""]","",""
"[{""page_index"":0,""viewing_time"":7220}]","7221","instructions","4","84575","0.0-4.0","","","",""
"[{""page_index"":0,""viewing_time"":45945}]","45946","instructions","5","131522","0.0-5.0","","","",""
"","8951","similarity","6","141480","0.0-6.0-0.0","5","[""img/0868/3a62db2d-97e9-44a3-b8e3-a48c6f0e423b.jpg"",""img/0901/a9b9c0a0-8aed-4888-a78a-65fb7e764d13.jpg""]","",""
"","9535","similarity","7","152019","0.0-6.0-1.0","5","[""img/0769/76eaa4a3-dfe9-4dc1-9efb-caebe86264e1.jpg"",""img/0867/bf560d4f-dee3-4f11-a385-705cc1aa5f3c.jpg""]","",""
"","6421","similarity","8","159446","0.0-6.0-2.0","5","[""img/0766/f011ef45-fb48-44b8-8224-867ed2ccf786.jpg"",""img/0898/a114b375-cb89-44ba-9498-74213f1ecdee.jpg""]","",""
"","6125","similarity","9","166576","0.0-6.0-3.0","5","[""img/0902/cdec1bc6-7f90-4f72-9e01-f5a4111bac1d.jpg"",""img/0881/db77fe00-aeb0-4d1d-aa66-f3a96fd077e4.jpg""]","",""
"","4541","similarity","10","172125","0.0-6.0-4.0","6","[""img/0894/a3d4170b-b7d8-40e3-955f-87e76ed745fc.jpg"",""img/0894/5ff3c4f6-52e2-4075-8679-be0312e59703.jpg""]","",""
"","5260","similarity","11","178389","0.0-6.0-5.0","3","[""img/0874/7e4f2150-3b59-4a36-b5da-a4e0ba410531.jpg"",""img/0899/fef567a2-c121-4481-9af0-ff108d199bbf.jpg""]","",""
"","5733","similarity","12","185129","0.0-6.0-6.0","5","[""img/0904/d23dd7be-7fe8-4435-82f7-bd592c01e6a1.jpg"",""img/0764/c80b3e06-2ee3-4326-9678-340607eb5348.jpg""]","",""
"","5283","similarity","13","191417","0.0-6.0-7.0","3","[""img/0899/8de08897-b430-42fe-9d42-840670b80f94.jpg"",""img/0898/a8f16b02-e19f-423b-86c3-a36562ae1f9b.jpg""]","",""
"","5194","similarity","14","197616","0.0-6.0-8.0","2","[""img/0874/995f0332-0439-4eb4-add3-957335dbf6d9.jpg"",""img/0903/2c7b4aed-6038-4aac-958a-e3e58341c313.jpg""]","",""
"","6779","similarity","15","205402","0.0-6.0-9.0","5","[""img/0881/33d65d80-8a8e-4ecf-852d-0ad7725c17a2.jpg"",""img/0758/a085b443-b5d7-4cb2-9ad4-b9dab0fc23f1.jpg""]","",""
"","5239","similarity","16","211644","0.0-6.0-10.0","7","[""img/0898/881e2a85-d5c2-49be-a0c6-8a6ce2c4af08.jpg"",""img/0901/b9141736-3041-4385-a586-b1fe911c76a5.jpg""]","",""
"","4778","similarity","17","217429","0.0-6.0-11.0","7","[""img/0903/b0a3c45f-467e-412f-a183-c9c1827f2e63.jpg"",""img/0769/057eb0a0-aa5b-40c7-9852-21444f68d767.jpg""]","",""
"","6486","similarity","18","224919","0.0-6.0-12.0","2","[""img/0764/21e3292f-01ad-4238-828b-61b817857d16.jpg"",""img/0868/4bd5105a-d2c3-4f82-8c80-57196106ba53.jpg""]","",""
"","6332","similarity","19","232255","0.0-6.0-13.0","1","[""img/0867/50a1b60e-3a29-44bf-b606-d4bd3746fea9.jpg"",""img/0903/8931c67c-a43d-47d3-a4c9-42aa2f81d344.jpg""]","",""
"","6093","similarity","20","239354","0.0-6.0-14.0","1","[""img/0766/00891401-e4c9-4ce1-bc19-f70740d174bc.jpg"",""img/0758/caa93da2-9edf-49fa-96b9-32dedd8f5078.jpg""]","",""
"","6397","similarity","21","246757","0.0-6.0-15.0","2","[""img/0902/417d8b4a-3c72-4adc-ac78-820e833316f2.jpg"",""img/0860/29a21a9f-54bb-4093-ad3f-04823ceaa89f.jpg""]","",""
"","4608","similarity","22","252371","0.0-6.0-16.0","1","[""img/0769/688d0c52-ad73-4065-a5eb-f8c10d076bff.jpg"",""img/0875/90da8d75-108a-44ad-b999-e21fee3860d3.jpg""]","",""
"","4945","similarity","23","258321","0.0-6.0-17.0","1","[""img/0904/e9423a8c-f946-43ad-ab7b-931acef870e2.jpg"",""img/0866/be24ab58-230e-4db8-9f45-ff04c9aec6bb.jpg""]","",""
"","5115","similarity","24","264442","0.0-6.0-18.0","5","[""img/0875/99698b4d-b4a1-44bc-8c83-8ea755bbbf61.jpg"",""img/0875/fb732ab5-013a-4366-9f65-27811ed157e9.jpg""]","",""
"","3932","similarity","25","269380","0.0-6.0-19.0","7","[""img/0758/20497cbe-ddae-489e-86e2-ab06985ed07c.jpg"",""img/0758/7fba58df-2a7a-4b76-8a8f-62739f97f271.jpg""]","",""
"","6150","similarity","26","276535","0.0-6.0-20.0","2","[""img/0902/d49743d6-67ae-4c2e-a939-8fd895a0f18e.jpg"",""img/0874/31e22c7c-99aa-40b1-bf03-dd73fa2df4d6.jpg""]","",""
"","4597","similarity","27","282138","0.0-6.0-21.0","5","[""img/0764/bd2eaa3e-95a9-4a59-a78e-3f81c766eea9.jpg"",""img/0769/a3cfbdeb-acb3-4eac-87fb-4b117f42d4f8.jpg""]","",""
"","6747","similarity","28","289889","0.0-6.0-22.0","2","[""img/0901/1b86f2fc-7a1d-4aa8-9252-114f92edef3b.jpg"",""img/0874/bf14b896-e930-4fd9-9c05-2e83317a2773.jpg""]","",""
"","4124","similarity","29","295020","0.0-6.0-23.0","2","[""img/0875/f87b67d7-c33e-40d1-b281-248c4be1cb6e.jpg"",""img/0903/005ad0de-4f52-433c-b515-dbe8d46184a3.jpg""]","",""
"","5351","similarity","30","301376","0.0-6.0-24.0","6","[""img/0769/48a1144d-fbda-4809-991b-fc8424a32ee4.jpg"",""img/0881/ed4c971f-0873-4fc8-b6d6-e8bbd82f0bcc.jpg""]","",""
"","3776","similarity","31","306156","0.0-6.0-25.0","3","[""img/0867/075e0f95-856b-4cbb-acf5-092393aaf04e.jpg"",""img/0904/da170c1b-9651-4f08-b231-2bdd1d9a046f.jpg""]","",""
"","4856","similarity","32","312018","0.0-6.0-26.0","3","[""img/0860/8fdba999-b946-4c7d-9891-336018b563ef.jpg"",""img/0881/19e82c47-8e4b-45d2-a6c8-74181eb4155e.jpg""]","",""
"","4326","similarity","33","317350","0.0-6.0-27.0","6","[""img/0866/0207e9a2-7dbb-40b5-9459-b472aaeceb2a.jpg"",""img/0866/a04d37f0-99dd-478a-b6c6-58b215138f84.jpg""]","",""
"","4913","similarity","34","323268","0.0-6.0-28.0","3","[""img/0764/f990b2e8-ecee-481e-be7c-0239fce350e2.jpg"",""img/0862/92f0146c-20c4-482e-aef5-adb693790338.jpg""]","",""
"","4101","similarity","35","328375","0.0-6.0-29.0","3","[""img/0904/09dac84f-3d1c-4445-a68e-d0389fdbf1e9.jpg"",""img/0758/dd559618-7f09-4a07-8018-d311c4a5ea29.jpg""]","",""
"","5431","similarity","36","334811","0.0-6.0-30.0","6","[""img/0894/38f5931f-926d-414e-b498-66b188978b7a.jpg"",""img/0899/00715b3f-851b-420b-a26b-d7f79f7759a9.jpg""]","",""
"","6398","similarity","37","342212","0.0-6.0-31.0","5","[""img/0860/9593362c-9fe5-4d12-9735-6000a11f6aa5.jpg"",""img/0904/a8c3c7d2-9bcf-4347-9e03-8203adfc1fc5.jpg""]","",""
"","4869","similarity","38","348086","0.0-6.0-32.0","5","[""img/0874/3f471690-9788-4d03-90c7-f615aecef149.jpg"",""img/0881/405484ae-0d00-4b05-bc57-6420a36adfac.jpg""]","",""
"","4551","similarity","39","353642","0.0-6.0-33.0","3","[""img/0881/1407b85b-a1c6-45b1-9884-3b24203efadb.jpg"",""img/0899/51a7a498-98c7-42d7-bca8-bc2d8f0b5831.jpg""]","",""
"","3823","similarity","40","358469","0.0-6.0-34.0","5","[""img/0866/d266fece-59b3-46fa-b69f-96f6efb81b59.jpg"",""img/0862/e0f1a4e9-e1b6-45f7-af67-89f334e6630d.jpg""]","",""
"","3382","similarity","41","362856","0.0-6.0-35.0","3","[""img/0868/09a9ef4d-d000-4cfa-a6aa-ebec7c2edeb4.jpg"",""img/0894/38cf335f-f76f-4349-8d65-e20cd6859565.jpg""]","",""
"","4912","similarity","42","368775","0.0-6.0-36.0","5","[""img/0860/4f695df5-afac-4da7-9875-fee39b0b24ad.jpg"",""img/0860/c47fdead-eb02-4989-b078-26f4852f44fe.jpg""]","",""
"","3786","similarity","43","373566","0.0-6.0-37.0","7","[""img/0862/de9ad88c-b522-430a-8ee9-eb06a9f85df5.jpg"",""img/0864/65210d57-1153-4657-886a-32e758f49b4a.jpg""]","",""
"","6241","similarity","44","380811","0.0-6.0-38.0","3","[""img/0766/d3bab2fc-ddcc-40a0-bb72-c0d0ebe19978.jpg"",""img/0866/93a27239-8317-4e08-98ca-d8b1ff298e07.jpg""]","",""
"","4295","similarity","45","386111","0.0-6.0-39.0","3","[""img/0875/dbdd643e-6d0e-4a5c-ab57-b9c29b9c981a.jpg"",""img/0898/b3290bf9-215b-4b45-b21a-65bdf73f142f.jpg""]","",""
"","3765","similarity","46","390881","0.0-6.0-40.0","5","[""img/0766/dd3e18d0-0c98-4d05-b850-69976ee8cd75.jpg"",""img/0769/11518cb3-13ea-4dd0-890c-30cfab728ade.jpg""]","",""
"","4686","similarity","47","418161","0.0-6.0-41.0","2","[""img/0874/a82926a3-0b43-4add-803c-d5f9ea7798ee.jpg"",""img/0764/5d6fa3ce-9083-410c-bbdb-336a49b94cfc.jpg""]","",""
"","7275","similarity","48","426442","0.0-6.0-42.0","3","[""img/0868/83b4350a-3b70-4cea-b7f5-b5b56f3050a8.jpg"",""img/0902/794606a0-d8a8-4e58-8bf8-9d114ed5a548.jpg""]","",""
"","5273","similarity","49","432720","0.0-6.0-43.0","3","[""img/0875/2e13d160-eea1-416b-aff1-d37ab99ecc1d.jpg"",""img/0899/93494f3b-d539-4075-b027-d82e344563da.jpg""]","",""
"","4597","similarity","50","438323","0.0-6.0-44.0","3","[""img/0866/6f2a90d7-14f1-4f1b-bd64-fc0af6b9fe44.jpg"",""img/0860/5bff793e-cbd5-4d7e-b628-0ac2b0e30b64.jpg""]","",""
"","5476","similarity","51","444803","0.0-6.0-45.0","3","[""img/0766/71b81ebd-0937-4d7f-b8bf-c4e46a4728fd.jpg"",""img/0903/31b5a5f4-b695-4af1-bad2-a19650a05498.jpg""]","",""
"","3922","similarity","52","449729","0.0-6.0-46.0","5","[""img/0901/58978a6d-a3e2-4c59-8d62-f60693ecc0f6.jpg"",""img/0904/6291eb43-c10c-4810-a36a-101d09868b04.jpg""]","",""
"","6129","similarity","53","456863","0.0-6.0-47.0","5","[""img/0758/67c0be2f-9e91-48b3-8219-70ac0a1802fa.jpg"",""img/0902/7f1dcd35-237a-4995-9e42-7f63f3f434d4.jpg""]","",""
"","3921","similarity","54","461789","0.0-6.0-48.0","7","[""img/0764/6c7fe363-2d37-418f-9e5e-a3273af5d4fb.jpg"",""img/0764/e42c1dc9-7831-4995-be19-7ca7b4d141fc.jpg""]","",""
"","5420","similarity","55","468213","0.0-6.0-49.0","5","[""img/0866/07c9c966-3c8d-40e7-8128-92b2acbaed5d.jpg"",""img/0902/4e0baa32-988e-46f6-989d-f669225ab645.jpg""]","",""
"","3844","similarity","56","473062","0.0-6.0-50.0","3","[""img/0764/1f95ab5f-fb65-4d70-b5db-d6bd6351a8aa.jpg"",""img/0758/65d426d6-3ff6-415d-8654-a43b83ecc4fe.jpg""]","",""
"","3992","similarity","57","478058","0.0-6.0-51.0","7","[""img/0898/40f99fb2-64d2-4e72-8a7f-a1cf60741e69.jpg"",""img/0894/11674fa4-285d-44e2-939f-2228c6a64080.jpg""]","",""
"","5069","similarity","58","484131","0.0-6.0-52.0","6","[""img/0875/a4935837-7d3c-4df6-88c1-36a94d4991ca.jpg"",""img/0866/11a1d141-be5e-443c-98c1-a9d4d9e3dec0.jpg""]","",""
"","5543","similarity","59","490679","0.0-6.0-53.0","5","[""img/0904/65e2b70a-b184-4da3-b5c0-5038bdf9469a.jpg"",""img/0904/5aec2708-cf14-4a58-aa30-9a8a61c1be0e.jpg""]","",""
"","4080","similarity","60","495764","0.0-6.0-54.0","7","[""img/0769/9ea27d61-3d55-418c-8d14-82e90f656f01.jpg"",""img/0769/965c3c44-d9e5-47c5-b61a-2bbdf4215d9a.jpg""]","",""
"","4238","similarity","61","501008","0.0-6.0-55.0","1","[""img/0898/993d8f2d-bef7-4251-a193-0f93a32b7763.jpg"",""img/0758/2fa3e613-e676-4e6e-bd12-705327eeb3e1.jpg""]","",""
"","5262","similarity","62","507273","0.0-6.0-56.0","6","[""img/0769/f229321f-04dd-42d7-b14a-ffad6b509862.jpg"",""img/0902/8065aa6b-4aef-4368-afa2-02c6465ca582.jpg""]","",""
"","5925","similarity","63","514203","0.0-6.0-57.0","5","[""img/0864/0f537697-a314-47c3-a8cc-8df23b7e536c.jpg"",""img/0881/445edb15-bd7f-4af3-8bd5-c6ad9677bb31.jpg""]","",""
"","6411","similarity","64","521617","0.0-6.0-58.0","2","[""img/0758/eabcd7a8-56ad-4fd2-bc24-90f6b7b33265.jpg"",""img/0868/179a5502-ab5c-478e-8263-5a1fbcc101d2.jpg""]","",""
"","5026","similarity","65","527647","0.0-6.0-59.0","2","[""img/0862/a0a3a7ba-7798-46a3-b4ca-05e1f6e581d0.jpg"",""img/0769/662ab839-88d1-4ebf-af05-9b2980cad943.jpg""]","",""
"","3620","similarity","66","532273","0.0-6.0-60.0","5","[""img/0764/3297a811-ea8b-4d74-9547-59cecab7293a.jpg"",""img/0903/4cbdc464-e562-4ec2-9bb6-15f894fdf528.jpg""]","",""
"","4730","similarity","67","538009","0.0-6.0-61.0","5","[""img/0899/7b7380d5-d2be-44e5-a09a-c1756f87ef71.jpg"",""img/0899/5b56dd3e-3f49-47cc-af84-16da6457753b.jpg""]","",""
"","4541","similarity","68","543555","0.0-6.0-62.0","2","[""img/0860/17b44a7d-c5ca-479f-9e87-f65a64f5c80e.jpg"",""img/0875/5a716432-c6ca-4b1c-955a-2b8ac25198ee.jpg""]","",""
"","4654","similarity","69","549214","0.0-6.0-63.0","2","[""img/0868/8b0b8473-e2c0-4331-aa56-c3a5c29369da.jpg"",""img/0874/767f289c-9814-4496-803f-745cc8913d1f.jpg""]","",""
"","4587","similarity","70","554805","0.0-6.0-64.0","2","[""img/0758/e1ba5e53-addc-436a-b428-d34fc1b130dc.jpg"",""img/0862/f188d4f0-76a4-4102-818c-a209969d73a5.jpg""]","",""
"","3529","similarity","71","559338","0.0-6.0-65.0","7","[""img/0904/9b3568cc-3cf7-42be-9df3-fdafde7a58b8.jpg"",""img/0898/cd3aaa3f-efa9-4ab3-8d6f-a6a9273ddf42.jpg""]","",""
"","5353","similarity","72","565695","0.0-6.0-66.0","3","[""img/0881/292e9b4b-fca0-4ba8-87f1-4048f9e37b7d.jpg"",""img/0866/c446214b-a368-4c65-ae39-ea46894256ab.jpg""]","",""
"","5949","similarity","73","572648","0.0-6.0-67.0","5","[""img/0867/12264664-1860-46df-8c21-162b9817cdda.jpg"",""img/0898/04e39a7a-fcf6-4156-ab0e-f5871f335e1c.jpg""]","",""
"","4417","similarity","74","578070","0.0-6.0-68.0","5","[""img/0902/0eb85fbc-27c8-41df-9d0b-a5f9efd417d1.jpg"",""img/0764/c01e2d65-6586-441b-bef5-3c96fcd85380.jpg""]","",""
"","5452","similarity","75","584527","0.0-6.0-69.0","6","[""img/0875/8521fd58-3b1e-4dc5-97ae-804edfa6734a.jpg"",""img/0867/85a96c62-548f-4994-9553-819e03c3135a.jpg""]","",""
"","3969","similarity","76","589501","0.0-6.0-70.0","6","[""img/0766/d14acac4-7db1-4b07-8f8f-302437326fc0.jpg"",""img/0764/f2f23359-8e82-41d3-8900-5b9f4433991d.jpg""]","",""
"","5068","similarity","77","595575","0.0-6.0-71.0","3","[""img/0894/5a49e858-2850-4892-9a06-e9f0efb5f94d.jpg"",""img/0867/8ba0c5a7-c7e4-42cf-a80a-543763b90779.jpg""]","",""
"","5419","similarity","78","601999","0.0-6.0-72.0","2","[""img/0875/527ced51-8e53-4aab-ab05-86df219104c0.jpg"",""img/0764/f64dfa83-333d-494c-87b5-73e942f1766e.jpg""]","",""
"","4912","similarity","79","607916","0.0-6.0-73.0","7","[""img/0867/de92135f-5b65-4ed9-b245-188292c7c2f8.jpg"",""img/0866/f756f7d1-9ad8-4a34-9ef6-7a443d705bfe.jpg""]","",""
"","4385","similarity","80","613306","0.0-6.0-74.0","3","[""img/0903/5248eedd-7e6a-4d39-91b0-06ec227f3ed0.jpg"",""img/0758/6e95579b-5166-487c-b8cb-e417c6a218e3.jpg""]","",""
"","4698","similarity","81","619009","0.0-6.0-75.0","3","[""img/0766/d8221e53-2300-4d99-ae1b-0bfb0eabe579.jpg"",""img/0868/7b212364-ff5f-4e28-9241-7eb6ea00161b.jpg""]","",""
"","5666","similarity","82","625680","0.0-6.0-76.0","5","[""img/0874/93d1f8dc-acf2-4f03-bd8d-8ec35df276ed.jpg"",""img/0766/1bc0dccc-a5b5-4375-87fa-28360ca42b12.jpg""]","",""
"","5352","similarity","83","632036","0.0-6.0-77.0","2","[""img/0881/566f45f8-5fed-4479-a60f-26377e60a62d.jpg"",""img/0868/1a62b2b2-18f5-466e-b564-5176a57c565e.jpg""]","",""
"","4452","similarity","84","637492","0.0-6.0-78.0","1","[""img/0758/d41c06bf-ebaf-454b-91c6-1a17f917b659.jpg"",""img/0901/7c16dd9c-44ad-4d5b-990c-6a0b9b48b1b1.jpg""]","",""
"","4329","similarity","85","642826","0.0-6.0-79.0","1","[""img/0881/20af39f5-373d-4a55-a437-2dc4c0382c46.jpg"",""img/0898/81b08535-2020-4c15-9ce4-2f1e460755ae.jpg""]","",""
"","4552","similarity","86","648382","0.0-6.0-80.0","2","[""img/0867/98d8cd96-1476-4fe0-a3a3-04f875500a1b.jpg"",""img/0758/6cd8c362-ae2a-41eb-80a3-3a4f7ace1530.jpg""]","",""
"","4069","similarity","87","653456","0.0-6.0-81.0","6","[""img/0769/ebef2ddc-ba59-4e0e-97f8-927864eb5081.jpg"",""img/0899/a05bea16-2bb4-4cb9-b8fb-4ff975db6971.jpg""]","",""
"","3744","similarity","88","658204","0.0-6.0-82.0","7","[""img/0903/647ce311-8c71-479a-8361-961db1457139.jpg"",""img/0903/72197c2b-403e-4a26-b391-f1aa8dea4b76.jpg""]","",""
"","4451","similarity","89","678814","0.0-6.0-83.0","2","[""img/0867/c71dc569-f49c-4397-8381-68b8d726736d.jpg"",""img/0766/09f646c8-a69e-4ed3-879c-8d29b04ad7f9.jpg""]","",""
"","5768","similarity","90","685588","0.0-6.0-84.0","2","[""img/0902/cf9dee9c-2bdf-4d64-9302-97f1660fe52c.jpg"",""img/0867/aa05d113-fc19-4756-a8eb-7878f580bc92.jpg""]","",""
"","6981","similarity","91","693575","0.0-6.0-85.0","1","[""img/0901/62315ff5-ed95-46b4-b099-92552079659b.jpg"",""img/0875/ebf7653f-ff45-4e9f-af58-2c042ab3cd2b.jpg""]","",""
"","4946","similarity","92","699526","0.0-6.0-86.0","1","[""img/0764/8740679b-b56f-4292-aece-14063457113a.jpg"",""img/0866/d493a2c8-66eb-44b4-be02-2f327b700b7c.jpg""]","",""
"","4968","similarity","93","705500","0.0-6.0-87.0","5","[""img/0901/31c032fd-3c3d-4882-a226-da9a80198937.jpg"",""img/0894/43216a7f-27bc-4b5a-8841-d122a30da9d9.jpg""]","",""
"","4654","similarity","94","711158","0.0-6.0-88.0","5","[""img/0898/6cd3830b-d44e-4915-be2b-88d31424b91c.jpg"",""img/0769/c34b7763-8ff2-46d5-9e92-f1d8f3bedbd8.jpg""]","",""
"","4070","similarity","95","716233","0.0-6.0-89.0","5","[""img/0769/458d9c77-b844-40b5-bb1b-1e3bbd4da64e.jpg"",""img/0894/4739e06d-c31e-4bf1-bf91-c97fa9afb456.jpg""]","",""
"","5382","similarity","96","722621","0.0-6.0-90.0","4","[""img/0862/eefa5588-9efd-4591-aa5f-a2e17c7d7bcc.jpg"",""img/0874/c0378dac-9370-439a-8b79-db27c96fb390.jpg""]","",""
"","4228","similarity","97","727854","0.0-6.0-91.0","6","[""img/0894/7dd6ff43-f8fc-408a-8a41-a2b261871820.jpg"",""img/0766/0b48f9e0-7d37-4161-8adb-4e3f5b6b7583.jpg""]","",""
"","6542","similarity","98","735403","0.0-6.0-92.0","3","[""img/0874/3ce41e7c-40c8-4d58-a546-171114521796.jpg"",""img/0867/f26f6b60-f772-4f4c-95a4-addc62cfd692.jpg""]","",""
"","4912","similarity","99","741319","0.0-6.0-93.0","2","[""img/0899/0adc0bc3-6fca-4078-be6f-d45ddf1653d5.jpg"",""img/0868/d98ca254-b195-477f-b57e-5760a2717db8.jpg""]","",""
"","5284","similarity","100","747608","0.0-6.0-94.0","2","[""img/0903/2a9c8033-3e70-47fa-816d-97ee1813a3a3.jpg"",""img/0862/5d887e9f-89e2-4ebc-80a0-6d46fe6480db.jpg""]","",""
"","4756","similarity","101","753369","0.0-6.0-95.0","6","[""img/0899/25ae6ec8-9565-49fe-a8bb-8d0666f52716.jpg"",""img/0766/a754e4b6-5019-4cf4-8f58-34c20547a1f5.jpg""]","",""
"","4406","similarity","102","758780","0.0-6.0-96.0","7","[""img/0867/179ab87a-8eac-4c52-a41f-2e48e3120f09.jpg"",""img/0868/293079b8-7e0c-4afd-a390-1e5d35fe3ded.jpg""]","",""
"","5622","similarity","103","765405","0.0-6.0-97.0","3","[""img/0862/57b6f83f-c763-4858-830d-102f97bfefbf.jpg"",""img/0901/c6df1a21-44ed-47c2-960e-7c52220e329e.jpg""]","",""
"","4171","similarity","104","770582","0.0-6.0-98.0","1","[""img/0875/e7e66b13-b573-431e-b85e-288ce04a35a3.jpg"",""img/0766/d919cedb-f9b7-4f30-83bb-3e9c65001ceb.jpg""]","",""
"","5384","similarity","105","776970","0.0-6.0-99.0","7","[""img/0758/a709631e-3705-4725-ac40-f0d916924f08.jpg"",""img/0874/adf9a8f1-c40b-402b-b95b-1e85a54a7b62.jpg""]","",""
"","4327","similarity","106","782303","0.0-6.0-100.0","5","[""img/0904/9dd5708f-3f8b-46a9-b49f-2f2fab87b357.jpg"",""img/0868/6a28c3b0-3d76-498a-9fb7-ddafc665eca8.jpg""]","",""
"","3507","similarity","107","786814","0.0-6.0-101.0","3","[""img/0903/365f176c-25a4-4973-bd3c-279bf1b39476.jpg"",""img/0866/8efcaa46-83ab-4dee-a35f-850402aa21ae.jpg""]","",""
"","4476","similarity","108","792293","0.0-6.0-102.0","2","[""img/0868/15dd6fd7-791e-4b53-b203-195d617521a4.jpg"",""img/0769/022c7e3b-c3f2-4119-b4bc-f22fa7cae18c.jpg""]","",""
"","5126","similarity","109","798424","0.0-6.0-103.0","6","[""img/0902/d5e25767-e8ec-45f3-ac0a-7b4a6f7a9edc.jpg"",""img/0899/4408c14d-c168-4a7d-96f6-bc87bfb58f83.jpg""]","",""
"","5037","similarity","110","804466","0.0-6.0-104.0","3","[""img/0868/4e626425-63c8-484a-8a1d-e66ee4e0bef8.jpg"",""img/0862/99a99e39-8355-44ec-b993-e7bcec111e1c.jpg""]","",""
"","4417","similarity","111","809889","0.0-6.0-105.0","7","[""img/0903/f1fa0f8d-e62b-4b4a-a174-31a0fabfe61b.jpg"",""img/0894/10f22b96-040c-44f4-950b-a4963f3f506c.jpg""]","",""
"","2955","similarity","112","813848","0.0-6.0-106.0","7","[""img/0864/5f74a653-3bdc-4308-8cca-ac667dc22e1f.jpg"",""img/0874/99f6563c-8a8d-4c1c-a41d-667b618c3fd5.jpg""]","",""
"","4733","similarity","113","819587","0.0-6.0-107.0","5","[""img/0862/ba89835a-408c-480b-8594-ed4ffa97eb5c.jpg"",""img/0902/97022122-01e4-46c3-a34f-c6260ad28428.jpg""]","",""
"","3269","similarity","114","823861","0.0-6.0-108.0","7","[""img/0904/b5855d6a-7ef9-46ca-9215-6e9fa046e543.jpg"",""img/0903/6b5dcc60-3ad3-4962-93e5-e6cf768477af.jpg""]","",""
"","4169","similarity","115","829036","0.0-6.0-109.0","1","[""img/0764/4952d0a0-c9be-471a-8ec7-94a37bf4051d.jpg"",""img/0864/6f631579-acf1-415c-a42c-1207f62a8d99.jpg""]","",""
"","4226","similarity","116","834268","0.0-6.0-110.0","1","[""img/0866/4a87911a-d5be-4d4e-ab8e-3d1f581bf507.jpg"",""img/0894/2d2db7b3-e8a3-499b-b63a-14f51bf73882.jpg""]","",""
"","4843","similarity","117","840117","0.0-6.0-111.0","6","[""img/0899/0e1d936a-dbe2-4afc-9f19-7b7a1ae6c9ed.jpg"",""img/0903/0fb24af7-9a26-4e9d-aadc-959a36f683e2.jpg""]","",""
"","3396","similarity","118","844516","0.0-6.0-112.0","7","[""img/0902/b03fee99-d5ca-4bf8-871c-a4a743a39842.jpg"",""img/0904/09934646-45d2-4147-8fec-64a22a5ac822.jpg""]","",""
"","3867","similarity","119","849387","0.0-6.0-113.0","1","[""img/0864/c22faebd-9c53-47bc-ada3-b9a30c688e75.jpg"",""img/0860/4c530c3c-6aab-492a-94d1-9c01797bde40.jpg""]","",""
"","4316","similarity","120","854708","0.0-6.0-114.0","5","[""img/0860/61fb959d-d4d9-4de4-9e4e-4fa62b4cfcd5.jpg"",""img/0899/d8f2dd94-570e-4e8c-a087-d96090fb9e8c.jpg""]","",""
"","3844","similarity","121","859557","0.0-6.0-115.0","2","[""img/0881/5fe04dd0-5c74-47b7-99c8-b068db9ca26a.jpg"",""img/0903/f67c4ab9-f8c2-4fcd-848a-a54a7b031002.jpg""]","",""
"","6161","similarity","122","866724","0.0-6.0-116.0","2","[""img/0894/e6385e52-6c35-43bd-b0af-bc803d107b11.jpg"",""img/0874/1016b306-087c-4afc-aa08-fa527b28dc76.jpg""]","",""
"","5002","similarity","123","872732","0.0-6.0-117.0","3","[""img/0881/f7a8cc63-8842-40a4-9ff8-fe530310d62c.jpg"",""img/0862/e8cc3bdf-cc43-4565-bccf-492626c70953.jpg""]","",""
"","3157","similarity","124","876893","0.0-6.0-118.0","7","[""img/0868/77091fc7-a590-4ebb-b915-fdb2483a2399.jpg"",""img/0875/5a7c4e35-6514-4e12-8879-d16071da4cd6.jpg""]","",""
"","5926","similarity","125","883824","0.0-6.0-119.0","5","[""img/0860/4a022222-056d-461c-ab02-39fac9647552.jpg"",""img/0758/3ddd05d3-557e-4ee7-8b78-9d2d681d8ae2.jpg""]","",""
"","4091","similarity","126","888920","0.0-6.0-120.0","5","[""img/0864/66091c27-e588-4476-8af9-265dc6be4156.jpg"",""img/0875/42910c99-5463-450a-a0f8-d4d060a11455.jpg""]","",""
"","5453","similarity","127","895377","0.0-6.0-121.0","2","[""img/0898/ec565187-2e31-4fdd-9a5c-153d0c789ae0.jpg"",""img/0866/945c6710-d15b-4a5b-a8f6-69af0850357f.jpg""]","",""
"","4992","similarity","128","901374","0.0-6.0-122.0","5","[""img/0874/29830da7-be5f-44e5-b141-652a0ccf7269.jpg"",""img/0904/5cceabc9-de1d-4c67-989b-c28a4ef77e79.jpg""]","",""
"","4035","similarity","129","906413","0.0-6.0-123.0","2","[""img/0904/fe746a3f-8458-48d0-8a13-8cba2a9df9f8.jpg"",""img/0864/300bb811-8b3c-4c42-8653-6097c3725197.jpg""]","",""
"","5071","similarity","130","912489","0.0-6.0-124.0","5","[""img/0894/86201968-6e78-4d68-9b3a-d1692e066210.jpg"",""img/0902/168ebd47-9e82-4ab7-a18b-c3da85072db8.jpg""]","",""
"","3733","similarity","131","922613","0.0-6.0-125.0","1","[""img/0868/fd307a36-9a3a-47d7-ab7c-f810d0b35040.jpg"",""img/0864/3651d070-2fc5-4848-b6a6-088a2d9ac5c9.jpg""]","",""
"","3957","similarity","132","927576","0.0-6.0-126.0","1","[""img/0899/f58b8d2f-b19d-4b59-8b94-8834be92e4ba.jpg"",""img/0866/a15b02be-11bb-43e3-b0e0-ecc3bd7dfc49.jpg""]","",""
"","4518","similarity","133","933098","0.0-6.0-127.0","2","[""img/0875/2c361b79-c3d1-4eda-812e-bf03192407bf.jpg"",""img/0904/b7c2a2c8-df33-4473-b3d4-ff7147c60db3.jpg""]","",""
"","4903","similarity","134","939006","0.0-6.0-128.0","2","[""img/0867/1719a35d-f085-48c0-9099-16c94fe418b4.jpg"",""img/0899/b45c550b-96c3-4255-ad59-48a2b4db1c1e.jpg""]","",""
"","4282","similarity","135","944296","0.0-6.0-129.0","2","[""img/0901/a373612d-67e2-4fec-9764-21d3d6ef6359.jpg"",""img/0867/f8159067-056c-41f1-a136-c529fe5e970a.jpg""]","",""
"","5023","similarity","136","950323","0.0-6.0-130.0","3","[""img/0864/e336a4c5-6648-4fd7-b2f6-93a3fb83f8c6.jpg"",""img/0769/3c1203c5-2ce7-466e-957a-8d77b5905460.jpg""]","",""
"","5003","similarity","137","956330","0.0-6.0-131.0","3","[""img/0903/5c6b1f57-b3a2-40f5-9fb1-82785e24b6a0.jpg"",""img/0868/c8ac40c7-6904-4e13-8d61-c75d3052dc4e.jpg""]","",""
"","4149","similarity","138","961484","0.0-6.0-132.0","5","[""img/0864/9b2490c5-a282-400a-9736-e1a0ecbf1cb7.jpg"",""img/0867/7d1c497b-c1b3-4ed8-abb5-d7f73306015f.jpg""]","",""
"","5508","similarity","139","967997","0.0-6.0-133.0","5","[""img/0901/d6d15b1c-4a30-4f74-a3fd-d4c8ee4169ca.jpg"",""img/0860/5383b320-1518-4095-a58e-5cc1ae30b64c.jpg""]","",""
"","4778","similarity","140","973781","0.0-6.0-134.0","5","[""img/0881/0c7068da-d0d9-4103-bda1-74ef7a2b32c3.jpg"",""img/0766/5d1b8041-c5a1-4b02-b4fe-3453d98a0d72.jpg""]","",""
"","4719","similarity","141","979505","0.0-6.0-135.0","3","[""img/0903/9b60ef5b-234f-4239-892b-3d4c412accc2.jpg"",""img/0864/da39ad34-04e0-40d4-a724-c08d53e0ea09.jpg""]","",""
"","4936","similarity","142","985445","0.0-6.0-136.0","3","[""img/0758/f61ecdf8-a7d4-4db0-b84d-be46f7cfaffc.jpg"",""img/0894/e2446cf5-cd48-486a-badc-76498e087fbe.jpg""]","",""
"","3968","similarity","143","990418","0.0-6.0-137.0","3","[""img/0769/f73c5138-2f4c-4354-981c-129dff9cc734.jpg"",""img/0860/f44ba3fb-03a2-42f0-8509-2c1ded493086.jpg""]","",""
"","3315","similarity","144","994738","0.0-6.0-138.0","6","[""img/0904/2c98dc56-88d1-4fb5-a999-b6a7861f65f0.jpg"",""img/0766/c23b5a20-e50f-4d85-841f-cf89212a4348.jpg""]","",""
"","4384","similarity","145","1000126","0.0-6.0-139.0","5","[""img/0868/5fa7f9d0-f0e5-454c-8224-74d964818f56.jpg"",""img/0860/c5ccd1a4-4bb7-48e1-9b25-72cfaf06909b.jpg""]","",""
"","4373","similarity","146","1005505","0.0-6.0-140.0","7","[""img/0758/53f35650-e455-4b53-8be4-c3c8271c6466.jpg"",""img/0864/c3b63e8f-ea39-4d70-a1f2-b3fe4be8eb75.jpg""]","",""
"","3707","similarity","147","1010218","0.0-6.0-141.0","7","[""img/0867/2e1a0b58-cdb1-4107-a14e-452530d7b9b0.jpg"",""img/0867/db7e032f-162b-46f5-ae67-2b29679adee4.jpg""]","",""
"","4484","similarity","148","1015708","0.0-6.0-142.0","6","[""img/0898/68476bbb-34a1-42d9-8bc1-deab783d4489.jpg"",""img/0898/f3a3f225-1248-4ac7-b93b-f0ff28485bf3.jpg""]","",""
"","4035","similarity","149","1020749","0.0-6.0-143.0","5","[""img/0866/386235d2-6857-41e7-88a8-25cfc3430025.jpg"",""img/0769/db94b61b-a5a7-4861-9d32-7b02ad194fb0.jpg""]","",""
"","4394","similarity","150","1026148","0.0-6.0-144.0","3","[""img/0860/e14d67c1-6d92-4f1e-9257-c8607159c19c.jpg"",""img/0898/b2732712-71c2-45d8-834f-2b2ed5504910.jpg""]","",""
"","4981","similarity","151","1032134","0.0-6.0-145.0","5","[""img/0766/a0270213-fa0e-4972-8b56-228c3e01ff90.jpg"",""img/0864/f92649a2-0590-4d31-9a7a-1bfb81666a2d.jpg""]","",""
"","5340","similarity","152","1038478","0.0-6.0-146.0","5","[""img/0860/99c589b9-9140-4d17-90c0-b344323edcda.jpg"",""img/0903/43ffd882-077a-40dd-a264-e58d519420a1.jpg""]","",""
"","3595","similarity","153","1043079","0.0-6.0-147.0","2","[""img/0867/5e07b34d-b40f-4b1c-ac10-49975bace45f.jpg"",""img/0764/b887d7c6-aa81-4637-af8e-05135757ac59.jpg""]","",""
"","3619","similarity","154","1047703","0.0-6.0-148.0","5","[""img/0769/3adfa417-3b90-4aab-b437-5eaa474189cb.jpg"",""img/0904/4e58005d-a2ec-4aaa-b199-445343561396.jpg""]","",""
"","4013","similarity","155","1052720","0.0-6.0-149.0","5","[""img/0764/6ef77040-1fae-4afa-bfe7-eda98e6d0376.jpg"",""img/0901/04a53755-6da5-44d4-a7a6-48a6bc0a2280.jpg""]","",""
"","4250","similarity","156","1057974","0.0-6.0-150.0","5","[""img/0904/9d30eff1-46ef-4453-b11e-124ef8145c00.jpg"",""img/0899/4f7bc593-8ddd-4da3-a0b9-84da730d3370.jpg""]","",""
"","4723","similarity","157","1063701","0.0-6.0-151.0","3","[""img/0862/ee3b7bff-4a70-4e84-9bea-4a565e456acb.jpg"",""img/0867/6e19c858-b606-45b2-a4c6-910a73f1d82c.jpg""]","",""
"","3460","similarity","158","1068166","0.0-6.0-152.0","7","[""img/0766/ef3b15ce-abb7-4292-ad93-aec8e8b50520.jpg"",""img/0766/214866ee-423d-4629-9bb9-41572bdc7dac.jpg""]","",""
"","6152","similarity","159","1075323","0.0-6.0-153.0","3","[""img/0862/d0ca4c78-fc35-46ed-bdcc-8e124283c53e.jpg"",""img/0894/e5edf723-72a5-4673-8441-6c1734a8929b.jpg""]","",""
"","4968","similarity","160","1081296","0.0-6.0-154.0","3","[""img/0899/ad8268c5-8199-48d0-ad70-c5b6d6c599ec.jpg"",""img/0901/148b747a-7392-437e-8823-33053c5dff3f.jpg""]","",""
"","4843","similarity","161","1087145","0.0-6.0-155.0","5","[""img/0874/ca23d307-fc00-4d7d-9106-584c6eb21b4d.jpg"",""img/0874/eba003b4-cdab-4eee-8bc3-f064c7d94165.jpg""]","",""
"","3992","similarity","162","1092140","0.0-6.0-156.0","6","[""img/0860/c7047cd2-7cc1-41b6-8a34-c0986774975f.jpg"",""img/0867/f8488a47-94ee-4166-952c-44e16cf172f6.jpg""]","",""
"","3743","similarity","163","1096889","0.0-6.0-157.0","2","[""img/0901/77087ed2-6e12-4329-b2a5-605bca6d972d.jpg"",""img/0881/4bd34581-94d8-4e88-8c89-5cef864ca3be.jpg""]","",""
"","3562","similarity","164","1101455","0.0-6.0-158.0","7","[""img/0903/b548d383-2a95-4575-8c13-647873751ff1.jpg"",""img/0902/24d10fe7-314f-4d5a-8c7b-b43121bba0a4.jpg""]","",""
"","3923","similarity","165","1106383","0.0-6.0-159.0","3","[""img/0860/702bd09d-df3a-40aa-a267-5f04474305b5.jpg"",""img/0764/978aede9-4590-4ad0-b234-135c83e5d669.jpg""]","",""
"","4734","similarity","166","1112121","0.0-6.0-160.0","2","[""img/0902/962f645e-9b55-4628-9b50-c703422bfe1a.jpg"",""img/0875/3ecb367d-e9eb-4826-8aaa-7aa72fb98019.jpg""]","",""
"","4474","similarity","167","1117599","0.0-6.0-161.0","5","[""img/0898/5f699581-3853-4547-856c-12f419ba5af7.jpg"",""img/0862/92fcd8a4-8193-4a6a-ae09-dd4a6338b0df.jpg""]","",""
"","3924","similarity","168","1122527","0.0-6.0-162.0","3","[""img/0894/6b2e9509-8699-42b7-9582-7741df0ba2d7.jpg"",""img/0875/03c3c331-738b-4446-af92-3d7386b08c2e.jpg""]","",""
"","5363","similarity","169","1128895","0.0-6.0-163.0","4","[""img/0866/23a224f3-2012-4fc8-8e0f-3c36f8de27fd.jpg"",""img/0864/e02eddb5-f468-499c-91bf-f7be3ffe979b.jpg""]","",""
"","5431","similarity","170","1135329","0.0-6.0-164.0","3","[""img/0766/717fd72f-a281-499b-a5ba-5e2ecc4d4866.jpg"",""img/0862/1c20f772-3a51-4a80-aac0-f57dc9f86c28.jpg""]","",""
"","3450","similarity","171","1139786","0.0-6.0-165.0","5","[""img/0866/bf14b5bd-fb55-47db-86b9-4f8aeb9a6dad.jpg"",""img/0874/8cdb1c07-1c32-46d2-981c-3636560fa6e5.jpg""]","",""
"","5037","similarity","172","1145827","0.0-6.0-166.0","5","[""img/0862/cdaed51d-9e2f-4807-801a-4663c40077e2.jpg"",""img/0860/8277806e-b684-4474-8f7b-3fca946d7d4f.jpg""]","",""
"","3832","similarity","173","1157030","0.0-6.0-167.0","6","[""img/0766/a1ed3f0f-e338-4a26-8fe4-4370f0c9fa6e.jpg"",""img/0901/33b51a81-06d9-46d9-9d4f-5a2d6d6b8058.jpg""]","",""
"","3923","similarity","174","1161959","0.0-6.0-168.0","7","[""img/0862/f43ceabf-acc1-4107-b857-5d1849808f93.jpg"",""img/0862/47ed5efd-4ec9-4b74-bb4e-a5f5cf0c3e7d.jpg""]","",""
"","4135","similarity","175","1167099","0.0-6.0-169.0","5","[""img/0894/c505c65a-cde2-4f2c-8cde-f8676f7c894d.jpg"",""img/0764/06ea144f-f4f3-4a14-ba47-f20f35c561e0.jpg""]","",""
"","5532","similarity","176","1173636","0.0-6.0-170.0","3","[""img/0874/85eb9b8a-c4c6-4e5a-b8e7-363a87a82054.jpg"",""img/0898/0c7dde4f-efce-4b7a-9387-6921635b7890.jpg""]","",""
"","4880","similarity","177","1179520","0.0-6.0-171.0","4","[""img/0860/31ff6436-98bf-4652-bed2-40f627229568.jpg"",""img/0766/75c3d627-4f3b-40d5-9d9c-10c8a62db644.jpg""]","",""
"","4484","similarity","178","1185009","0.0-6.0-172.0","2","[""img/0898/79233891-305a-4a6a-8ddf-5c8604858203.jpg"",""img/0864/1ebbc554-99fa-49f9-8799-317375a79820.jpg""]","",""
"","5263","similarity","179","1191277","0.0-6.0-173.0","3","[""img/0881/f8bd891e-aa09-4782-89db-33e7cb2b0cf1.jpg"",""img/0764/c643e165-df19-459f-8c2b-8357bf432a17.jpg""]","",""
"","4304","similarity","180","1196586","0.0-6.0-174.0","2","[""img/0898/8605a25b-6895-476d-8c13-df7a83f96093.jpg"",""img/0868/0d3abd3a-b6c3-4584-a9f7-e2da63748b3d.jpg""]","",""
"","4261","similarity","181","1201851","0.0-6.0-175.0","7","[""img/0864/0116ca98-293d-4fa6-a93b-5a6144ef64cc.jpg"",""img/0864/87c467d3-abca-482f-ad80-3766c21b1bb3.jpg""]","",""
"","5813","similarity","182","1208669","0.0-6.0-176.0","6","[""img/0899/57476fed-5962-4272-8fc9-b317bb777b54.jpg"",""img/0862/ad593cc7-cabe-4bb7-8e14-8a447a0717b4.jpg""]","",""
"","4000","similarity","183","1213675","0.0-6.0-177.0","6","[""img/0875/34132396-d896-4c2d-8087-646dd867e769.jpg"",""img/0758/7ffbc76b-1fc1-432c-8f7e-9ec8d1b3f643.jpg""]","",""
"","4959","similarity","184","1219637","0.0-6.0-178.0","3","[""img/0866/620cd1aa-0800-4414-8f6e-90342e7a99ad.jpg"",""img/0901/50e1d53e-a49f-4806-8610-be6dec5a2475.jpg""]","",""
"","5555","similarity","185","1226196","0.0-6.0-179.0","2","[""img/0769/bb8c4e53-6f32-4814-97ee-392d4decfb2e.jpg"",""img/0874/2c9464dd-8a23-4baa-ac94-1ba3af5c15cc.jpg""]","",""
"","4756","similarity","186","1231956","0.0-6.0-180.0","6","[""img/0875/5a1e5100-0d94-4fec-bbe9-ca9894d2cf8e.jpg"",""img/0881/c24f3051-eefa-42de-aba6-fccb56d93c70.jpg""]","",""
"","4643","similarity","187","1237604","0.0-6.0-181.0","6","[""img/0866/02f5e6b9-52b7-448c-9708-5b460d0c9a23.jpg"",""img/0868/4a8a45ed-2c4f-421b-9564-409a33ecd26c.jpg""]","",""
"","5553","similarity","188","1244162","0.0-6.0-182.0","2","[""img/0899/06b0fc99-0581-461a-9913-d1a5a941ac61.jpg"",""img/0758/ddc336e9-a8b6-4bb9-937a-c7e25e0e9250.jpg""]","",""
"","4430","similarity","189","1249596","0.0-6.0-183.0","6","[""img/0874/ca76a855-4e77-4f2f-872a-0a718153e7ed.jpg"",""img/0875/cff79b3a-a797-4393-9757-6275f999ec04.jpg""]","",""
"","5781","similarity","190","1256382","0.0-6.0-184.0","5","[""img/0904/63dd06dd-dccb-47ba-9740-eb33239e18a7.jpg"",""img/0862/00c06b00-3b73-44e9-bc1e-c5aafb438321.jpg""]","",""
"","3539","similarity","191","1260927","0.0-6.0-185.0","5","[""img/0902/94ee9c53-a9a2-4f95-b9b7-794a5fc62bb6.jpg"",""img/0766/ba35c0fc-4d5b-490d-959e-c94b279cdd02.jpg""]","",""
"","6160","similarity","192","1268091","0.0-6.0-186.0","4","[""img/0758/335851a0-a55b-46d8-ab05-8463eda48349.jpg"",""img/0769/1d8734c4-77ab-4165-9e71-5cfe672ff01c.jpg""]","",""
"","3923","similarity","193","1273019","0.0-6.0-187.0","7","[""img/0881/7e822106-76f7-4b10-a805-14dc68b2cfaf.jpg"",""img/0881/344de456-b358-4887-bd0e-e4c3278af887.jpg""]","",""
"","4743","similarity","194","1278767","0.0-6.0-188.0","5","[""img/0758/d540bee6-b460-4c32-ac57-bc282742d7d4.jpg"",""img/0866/9b38d691-1802-4959-ab3f-fc902f0e4ea6.jpg""]","",""
"","5454","similarity","195","1285225","0.0-6.0-189.0","4","[""img/0764/b8e23f4f-ff19-4472-ad9b-2f85548ebca0.jpg"",""img/0898/01bfe666-3510-4fc7-964f-d00d28732dc8.jpg""]","",""
"","3485","similarity","196","1289715","0.0-6.0-190.0","5","[""img/0903/6378ee1e-3d2b-48d2-87be-bebda32c8268.jpg"",""img/0901/b123d109-47b4-4f9a-80c9-9bb16da42efa.jpg""]","",""
"","4484","similarity","197","1295204","0.0-6.0-191.0","6","[""img/0902/2a7ac123-414a-476a-9a96-4757b924baef.jpg"",""img/0898/661621d4-a14e-487c-8c74-354134a29710.jpg""]","",""
"","4935","similarity","198","1301143","0.0-6.0-192.0","2","[""img/0864/5f33e097-23e3-4002-882d-76e8cb15f451.jpg"",""img/0901/12da1841-e611-435c-9719-109413d536a8.jpg""]","",""
"","4274","similarity","199","1306421","0.0-6.0-193.0","2","[""img/0894/a98416c0-51e2-4960-85da-d81d8688b9d5.jpg"",""img/0881/e046471a-35b4-4159-bbf7-3cfd201bef66.jpg""]","",""
"","6306","similarity","200","1313732","0.0-6.0-194.0","5","[""img/0868/d6d1f30d-4323-435a-b194-7892521bc57e.jpg"",""img/0868/e0aff734-077f-40dd-9781-74821abd3621.jpg""]","",""
"","3755","similarity","201","1318491","0.0-6.0-195.0","7","[""img/0899/f95cbdb4-f804-4f5d-ad76-373ad343e658.jpg"",""img/0764/23ea9375-f801-4a96-9925-7d453da887c7.jpg""]","",""
"","3652","similarity","202","1323149","0.0-6.0-196.0","2","[""img/0881/adc02f34-ce97-4aef-850f-00519df06fd7.jpg"",""img/0904/ba8e689e-9ca6-4608-a2a1-3b0940666ae6.jpg""]","",""
"","3665","similarity","203","1327818","0.0-6.0-197.0","1","[""img/0864/8ddd2e30-a1d0-479f-9cbe-591213023893.jpg"",""img/0902/71c03003-03ef-4b0f-8229-e0c857150a5d.jpg""]","",""
"","5396","similarity","204","1334218","0.0-6.0-198.0","6","[""img/0894/5c7677b0-a4f1-479e-b274-7822c415175a.jpg"",""img/0904/60d1a521-edf7-4696-9263-f21ac0e62a01.jpg""]","",""
"","4003","similarity","205","1339226","0.0-6.0-199.0","7","[""img/0901/3db47171-0139-4235-82cd-0b1787b6775f.jpg"",""img/0901/0adb3bd6-d758-4ba7-9723-3ad6cac05bd5.jpg""]","",""
"","4496","similarity","206","1344726","0.0-6.0-200.0","2","[""img/0894/3adef67d-7676-4995-80b2-bb31b8aca3ef.jpg"",""img/0860/c3379ff7-0763-48fe-a1ec-7ea3d611bc7a.jpg""]","",""
"","4790","similarity","207","1350520","0.0-6.0-201.0","6","[""img/0898/08c72dac-f8ad-407a-9ce6-8c9a5d679c3a.jpg"",""img/0903/0a92ec52-4e87-410a-857a-4455cde56a70.jpg""]","",""
"","4476","similarity","208","1355999","0.0-6.0-202.0","2","[""img/0864/e8bd659f-aa43-4748-877e-3118e8b4e189.jpg"",""img/0894/1a010553-d598-4b06-a772-81f1e7b3addb.jpg""]","",""
"","5070","similarity","209","1362074","0.0-6.0-203.0","2","[""img/0874/a3bc679d-619f-4db6-bb68-116dcb757d9c.jpg"",""img/0860/15b24a61-25be-4356-9eac-5ce95d0cb4a4.jpg""]","",""
"","4778","similarity","210","1367858","0.0-6.0-204.0","1","[""img/0862/fad1d7c1-8187-43c3-942a-0fc12183e48e.jpg"",""img/0875/d59ff733-eaff-4ee2-9443-06954dd0bcb6.jpg""]","",""
"","5147","similarity","211","1374012","0.0-6.0-205.0","4","[""img/0867/26611f4e-d694-4460-b7e2-43c62753ddc3.jpg"",""img/0881/44e09805-5a25-4f17-a716-4ad4a331b174.jpg""]","",""
"","3685","similarity","212","1378703","0.0-6.0-206.0","6","[""img/0901/1ede21d9-384f-4150-86b5-e1c57b5dc1d4.jpg"",""img/0902/82d20e8c-2162-47a6-925b-52906558c046.jpg""]","",""
"","4574","similarity","213","1384282","0.0-6.0-207.0","1","[""img/0899/8abe6c69-822c-436c-9bf2-96c818b49ba5.jpg"",""img/0864/a248adb3-c70b-4652-b7a3-776d2a1e904b.jpg""]","",""
"","4058","similarity","214","1389344","0.0-6.0-208.0","4","[""img/0901/233a6948-48eb-4b67-8259-222b916b2322.jpg"",""img/0769/d1be2815-fa79-46e8-b5c3-7d81caaca490.jpg""]","",""
"","4013","similarity","215","1399716","0.0-6.0-209.0","5","[""img/0902/b76efc44-a50f-4dac-b997-ff0222376067.jpg"",""img/0902/12452bb1-b8c0-4e4d-ad4d-47e279e5933c.jpg""]","",""
"[{""page_index"":0,""viewing_time"":5939}]","5940","instructions","216","1406658","0.0-7.0","","","",""
"","159299","image-multi-choice","217","1566973","0.0-8.0-0.0","","","{""Q0"":""Nashville Warbler""}","Nashville Warbler"
"","142526","image-multi-choice","218","1710511","0.0-8.0-1.0","","","{""Q0"":""Black-and-white Warbler""}","Black-and-white Warbler"
"","146389","image-multi-choice","219","1857909","0.0-8.0-2.0","","","{""Q0"":""Blackburnian Warbler""}","Townsend's Warbler"
"","182429","image-multi-choice","220","2041353","0.0-8.0-3.0","","","{""Q0"":""Lark Sparrow""}","Lark Sparrow"
"","22738","image-multi-choice","221","2065102","0.0-8.0-4.0","","","{""Q0"":""Yellow Warbler""}","Yellow Warbler"
"","47510","image-multi-choice","222","2113622","0.0-8.0-5.0","","","{""Q0"":""Magnolia Warbler""}","Orange-crowned Warbler"
"","34355","image-multi-choice","223","2148989","0.0-8.0-6.0","","","{""Q0"":""White-crowned Sparrow""}","White-throated Sparrow"
"","21562","image-multi-choice","224","2171561","0.0-8.0-7.0","","","{""Q0"":""Fox Sparrow""}","Fox Sparrow"
"","17957","image-multi-choice","225","2190528","0.0-8.0-8.0","","","{""Q0"":""Chipping Sparrow""}","Song Sparrow"
"","35542","image-multi-choice","226","2227079","0.0-8.0-9.0","","","{""Q0"":""Blackburnian Warbler""}","Blackburnian Warbler"
"","33214","image-multi-choice","227","2261301","0.0-8.0-10.0","","","{""Q0"":""Lincoln's Sparrow""}","Vesper Sparrow"
"","42752","image-multi-choice","228","2305065","0.0-8.0-11.0","","","{""Q0"":""White-crowned Sparrow""}","White-crowned Sparrow"
"","133753","image-multi-choice","229","2439830","0.0-8.0-12.0","","","{""Q0"":""Chipping Sparrow""}","American Tree Sparrow"
"","110294","image-multi-choice","230","2551137","0.0-8.0-13.0","","","{""Q0"":""Orange-crowned Warbler""}","Tennessee Warbler"
"","25045","image-multi-choice","231","2577193","0.0-8.0-14.0","","","{""Q0"":""Black-and-white Warbler""}","Magnolia Warbler"
"","13578","image-multi-choice","232","2591783","0.0-8.0-15.0","","","{""Q0"":""Northern Waterthrush""}","Northern Waterthrush"
"","51035","image-multi-choice","233","2643826","0.0-8.0-16.0","","","{""Q0"":""American Tree Sparrow""}","Chipping Sparrow"
"","33854","image-multi-choice","234","2678691","0.0-8.0-17.0","","","{""Q0"":""Lark Sparrow""}","Swamp Sparrow"
"","9291","image-multi-choice","235","2688995","0.0-8.0-18.0","","","{""Q0"":""Chipping Sparrow""}","Lincoln's Sparrow"
"","108192","image-multi-choice","236","2798199","0.0-8.0-19.0","","","{""Q0"":""Ovenbird""}","Ovenbird"
