[{"view_history":"[{\"page_index\":0,\"viewing_time\":49967}]","rt":49968,"trial_type":"instructions","trial_index":0,"time_elapsed":49970,"internal_node_id":"0.0-0.0"},{"sim_score":5,"rt":15545,"stimulus":"[\"img/866.jpg\",\"img/868.jpg\"]","trial_type":"similarity_demo","trial_index":1,"time_elapsed":66525,"internal_node_id":"0.0-1.0"},{"view_history":"[{\"page_index\":0,\"viewing_time\":20143}]","rt":20143,"trial_type":"instructions","trial_index":2,"time_elapsed":87676,"internal_node_id":"0.0-2.0"},{"sim_score":1,"rt":4798,"stimulus":"[\"img/766.jpg\",\"img/867.jpg\"]","trial_type":"similarity_demo","trial_index":3,"time_elapsed":93483,"internal_node_id":"0.0-3.0"},{"view_history":"[{\"page_index\":0,\"viewing_time\":6537}]","rt":6537,"trial_type":"instructions","trial_index":4,"time_elapsed":101032,"internal_node_id":"0.0-4.0"},{"view_history":"[{\"page_index\":0,\"viewing_time\":22781}]","rt":22781,"trial_type":"instructions","trial_index":5,"time_elapsed":124824,"internal_node_id":"0.0-5.0"},{"sim_score":2,"rt":5765,"stimulus":"[\"img/0868/0d3abd3a-b6c3-4584-a9f7-e2da63748b3d.jpg\",\"img/0901/d61f267a-c492-4db6-9bfb-61efd49cf072.jpg\"]","trial_type":"similarity","trial_index":6,"time_elapsed":131595,"internal_node_id":"0.0-6.0-0.0"},{"sim_score":3,"rt":3908,"stimulus":"[\"img/0769/9ea27d61-3d55-418c-8d14-82e90f656f01.jpg\",\"img/0867/db7e032f-162b-46f5-ae67-2b29679adee4.jpg\"]","trial_type":"similarity","trial_index":7,"time_elapsed":136517,"internal_node_id":"0.0-6.0-1.0"},{"sim_score":3,"rt":5262,"stimulus":"[\"img/0766/ef3b15ce-abb7-4292-ad93-aec8e8b50520.jpg\",\"img/0898/26c41340-15bd-4ead-8fe4-c0d0ddca09c2.jpg\"]","trial_type":"similarity","trial_index":8,"time_elapsed":142788,"internal_node_id":"0.0-6.0-2.0"},{"sim_score":2,"rt":4585,"stimulus":"[\"img/0902/6730b12a-f0a7-4587-8c10-a32fae16565b.jpg\",\"img/0881/f4e3e181-b3c9-4af2-a5a4-fc135ab70d2e.jpg\"]","trial_type":"similarity","trial_index":9,"time_elapsed":148392,"internal_node_id":"0.0-6.0-3.0"},{"sim_score":4,"rt":3455,"stimulus":"[\"img/0894/2217bdcd-23a7-42d3-823b-23f2488d7e87.jpg\",\"img/0894/767a0eec-1064-46b1-b1aa-dfa02b0cd74e.jpg\"]","trial_type":"similarity","trial_index":10,"time_elapsed":152858,"internal_node_id":"0.0-6.0-4.0"},{"sim_score":2,"rt":3992,"stimulus":"[\"img/0874/a82926a3-0b43-4add-803c-d5f9ea7798ee.jpg\",\"img/0899/9de5e857-aa9a-4e0c-8ba2-46d79bd069a4.jpg\"]","trial_type":"similarity","trial_index":11,"time_elapsed":157864,"internal_node_id":"0.0-6.0-5.0"},{"sim_score":3,"rt":3842,"stimulus":"[\"img/0904/2fd488e9-960f-41f7-8a44-33375f7d5051.jpg\",\"img/0764/ba0c0955-acbb-457d-b1c2-f006b88121d5.jpg\"]","trial_type":"similarity","trial_index":12,"time_elapsed":162712,"internal_node_id":"0.0-6.0-6.0"},{"sim_score":3,"rt":3649,"stimulus":"[\"img/0899/00715b3f-851b-420b-a26b-d7f79f7759a9.jpg\",\"img/0898/5f699581-3853-4547-856c-12f419ba5af7.jpg\"]","trial_type":"similarity","trial_index":13,"time_elapsed":167368,"internal_node_id":"0.0-6.0-7.0"},{"sim_score":4,"rt":3743,"stimulus":"[\"img/0874/adf9a8f1-c40b-402b-b95b-1e85a54a7b62.jpg\",\"img/0903/d987e220-f3e6-4b6d-a270-fe6757041f6d.jpg\"]","trial_type":"similarity","trial_index":14,"time_elapsed":172122,"internal_node_id":"0.0-6.0-8.0"},{"sim_score":4,"rt":2622,"stimulus":"[\"img/0881/b1a136f7-8511-4d3a-a0f6-3879acf1e1a1.jpg\",\"img/0758/7ee8bc8f-c40b-4b3a-84ec-3e83580622d4.jpg\"]","trial_type":"similarity","trial_index":15,"time_elapsed":175752,"internal_node_id":"0.0-6.0-9.0"},{"sim_score":5,"rt":5942,"stimulus":"[\"img/0898/8605a25b-6895-476d-8c13-df7a83f96093.jpg\",\"img/0901/4d1bed7e-3c4e-4f6c-ada9-4beb66ba9e39.jpg\"]","trial_type":"similarity","trial_index":16,"time_elapsed":182711,"internal_node_id":"0.0-6.0-10.0"},{"sim_score":5,"rt":4462,"stimulus":"[\"img/0903/6f343da5-00d9-4d50-89d1-2ed24cdb8319.jpg\",\"img/0769/0fe124d3-bcad-45f6-b64d-8f6eb8ee5251.jpg\"]","trial_type":"similarity","trial_index":17,"time_elapsed":188192,"internal_node_id":"0.0-6.0-11.0"},{"sim_score":1,"rt":6168,"stimulus":"[\"img/0764/5c8fbafc-e62e-43ed-9b37-f73e8e45147d.jpg\",\"img/0868/5fa7f9d0-f0e5-454c-8224-74d964818f56.jpg\"]","trial_type":"similarity","trial_index":18,"time_elapsed":195366,"internal_node_id":"0.0-6.0-12.0"},{"sim_score":2,"rt":3144,"stimulus":"[\"img/0867/179ab87a-8eac-4c52-a41f-2e48e3120f09.jpg\",\"img/0903/b0a3c45f-467e-412f-a183-c9c1827f2e63.jpg\"]","trial_type":"similarity","trial_index":19,"time_elapsed":199516,"internal_node_id":"0.0-6.0-13.0"},{"sim_score":2,"rt":4326,"stimulus":"[\"img/0766/717fd72f-a281-499b-a5ba-5e2ecc4d4866.jpg\",\"img/0758/6cd8c362-ae2a-41eb-80a3-3a4f7ace1530.jpg\"]","trial_type":"similarity","trial_index":20,"time_elapsed":204854,"internal_node_id":"0.0-6.0-14.0"},{"sim_score":5,"rt":4653,"stimulus":"[\"img/0902/af45fe42-178c-4c1a-99ef-256e87e3b092.jpg\",\"img/0860/87039971-2210-4aab-93c0-8e9b5f1655b2.jpg\"]","trial_type":"similarity","trial_index":21,"time_elapsed":210512,"internal_node_id":"0.0-6.0-15.0"},{"sim_score":3,"rt":5695,"stimulus":"[\"img/0769/3adfa417-3b90-4aab-b437-5eaa474189cb.jpg\",\"img/0875/03c3c331-738b-4446-af92-3d7386b08c2e.jpg\"]","trial_type":"similarity","trial_index":22,"time_elapsed":217212,"internal_node_id":"0.0-6.0-16.0"},{"sim_score":2,"rt":3916,"stimulus":"[\"img/0904/fe746a3f-8458-48d0-8a13-8cba2a9df9f8.jpg\",\"img/0866/9b38d691-1802-4959-ab3f-fc902f0e4ea6.jpg\"]","trial_type":"similarity","trial_index":23,"time_elapsed":222134,"internal_node_id":"0.0-6.0-17.0"},{"sim_score":5,"rt":4396,"stimulus":"[\"img/0875/90da8d75-108a-44ad-b999-e21fee3860d3.jpg\",\"img/0875/527ced51-8e53-4aab-ab05-86df219104c0.jpg\"]","trial_type":"similarity","trial_index":24,"time_elapsed":227548,"internal_node_id":"0.0-6.0-18.0"},{"sim_score":5,"rt":3353,"stimulus":"[\"img/0758/2fa3e613-e676-4e6e-bd12-705327eeb3e1.jpg\",\"img/0758/f61ecdf8-a7d4-4db0-b84d-be46f7cfaffc.jpg\"]","trial_type":"similarity","trial_index":25,"time_elapsed":231920,"internal_node_id":"0.0-6.0-19.0"},{"sim_score":3,"rt":4271,"stimulus":"[\"img/0902/cdec1bc6-7f90-4f72-9e01-f5a4111bac1d.jpg\",\"img/0874/ca76a855-4e77-4f2f-872a-0a718153e7ed.jpg\"]","trial_type":"similarity","trial_index":26,"time_elapsed":237210,"internal_node_id":"0.0-6.0-20.0"},{"sim_score":4,"rt":3613,"stimulus":"[\"img/0764/6fbd1902-fa2a-48d8-bc11-705b8ab68d8f.jpg\",\"img/0769/8056889f-2b14-4782-bb25-b4e8896ab65b.jpg\"]","trial_type":"similarity","trial_index":27,"time_elapsed":241834,"internal_node_id":"0.0-6.0-21.0"},{"sim_score":3,"rt":3635,"stimulus":"[\"img/0901/0f670aef-ac36-496d-8142-ee5fdb21dd82.jpg\",\"img/0874/3f471690-9788-4d03-90c7-f615aecef149.jpg\"]","trial_type":"similarity","trial_index":28,"time_elapsed":246473,"internal_node_id":"0.0-6.0-22.0"},{"sim_score":2,"rt":3434,"stimulus":"[\"img/0875/5a7c4e35-6514-4e12-8879-d16071da4cd6.jpg\",\"img/0903/a0673b55-6040-47fe-9040-24bca27ca3c9.jpg\"]","trial_type":"similarity","trial_index":29,"time_elapsed":250921,"internal_node_id":"0.0-6.0-23.0"},{"sim_score":4,"rt":5950,"stimulus":"[\"img/0769/f73c5138-2f4c-4354-981c-129dff9cc734.jpg\",\"img/0881/7e822106-76f7-4b10-a805-14dc68b2cfaf.jpg\"]","trial_type":"similarity","trial_index":30,"time_elapsed":257882,"internal_node_id":"0.0-6.0-24.0"},{"sim_score":3,"rt":3785,"stimulus":"[\"img/0867/98d8cd96-1476-4fe0-a3a3-04f875500a1b.jpg\",\"img/0904/2f88ce53-02d0-4f95-a082-182c56a0eeb4.jpg\"]","trial_type":"similarity","trial_index":31,"time_elapsed":262681,"internal_node_id":"0.0-6.0-25.0"},{"sim_score":2,"rt":5110,"stimulus":"[\"img/0860/d9a0d117-6d1d-41c0-8fec-9aff0fd9e9f2.jpg\",\"img/0881/f7a8cc63-8842-40a4-9ff8-fe530310d62c.jpg\"]","trial_type":"similarity","trial_index":32,"time_elapsed":268797,"internal_node_id":"0.0-6.0-26.0"},{"sim_score":6,"rt":3251,"stimulus":"[\"img/0866/c446214b-a368-4c65-ae39-ea46894256ab.jpg\",\"img/0866/4a87911a-d5be-4d4e-ab8e-3d1f581bf507.jpg\"]","trial_type":"similarity","trial_index":33,"time_elapsed":273064,"internal_node_id":"0.0-6.0-27.0"},{"sim_score":3,"rt":3863,"stimulus":"[\"img/0764/6ef77040-1fae-4afa-bfe7-eda98e6d0376.jpg\",\"img/0862/ee3b7bff-4a70-4e84-9bea-4a565e456acb.jpg\"]","trial_type":"similarity","trial_index":34,"time_elapsed":277931,"internal_node_id":"0.0-6.0-28.0"},{"sim_score":4,"rt":3495,"stimulus":"[\"img/0904/96e503ea-6630-4996-85f2-0237688ce441.jpg\",\"img/0758/7fba58df-2a7a-4b76-8a8f-62739f97f271.jpg\"]","trial_type":"similarity","trial_index":35,"time_elapsed":282442,"internal_node_id":"0.0-6.0-29.0"},{"sim_score":3,"rt":6394,"stimulus":"[\"img/0894/8cadb87a-7001-4e47-99fb-1867bebf1668.jpg\",\"img/0899/fef567a2-c121-4481-9af0-ff108d199bbf.jpg\"]","trial_type":"similarity","trial_index":36,"time_elapsed":289853,"internal_node_id":"0.0-6.0-30.0"},{"sim_score":4,"rt":3114,"stimulus":"[\"img/0860/29a21a9f-54bb-4093-ad3f-04823ceaa89f.jpg\",\"img/0904/4b8daf2a-13a9-4ea9-9e0b-b265b6e933e7.jpg\"]","trial_type":"similarity","trial_index":37,"time_elapsed":293969,"internal_node_id":"0.0-6.0-31.0"},{"sim_score":6,"rt":3783,"stimulus":"[\"img/0874/767f289c-9814-4496-803f-745cc8913d1f.jpg\",\"img/0881/633c6f40-56d9-4b48-bf1c-ecd83116eabb.jpg\"]","trial_type":"similarity","trial_index":38,"time_elapsed":298755,"internal_node_id":"0.0-6.0-32.0"},{"sim_score":5,"rt":6420,"stimulus":"[\"img/0881/48ed65a5-471f-41af-86ec-3793805c116d.jpg\",\"img/0899/4f7bc593-8ddd-4da3-a0b9-84da730d3370.jpg\"]","trial_type":"similarity","trial_index":39,"time_elapsed":306195,"internal_node_id":"0.0-6.0-33.0"},{"sim_score":2,"rt":3285,"stimulus":"[\"img/0866/f756f7d1-9ad8-4a34-9ef6-7a443d705bfe.jpg\",\"img/0862/57b6f83f-c763-4858-830d-102f97bfefbf.jpg\"]","trial_type":"similarity","trial_index":40,"time_elapsed":310491,"internal_node_id":"0.0-6.0-34.0"},{"sim_score":2,"rt":3473,"stimulus":"[\"img/0868/179a5502-ab5c-478e-8263-5a1fbcc101d2.jpg\",\"img/0894/792c83e9-a747-4000-bc72-5663d2439edb.jpg\"]","trial_type":"similarity","trial_index":41,"time_elapsed":314969,"internal_node_id":"0.0-6.0-35.0"},{"sim_score":5,"rt":3196,"stimulus":"[\"img/0860/c5ccd1a4-4bb7-48e1-9b25-72cfaf06909b.jpg\",\"img/0860/e14d67c1-6d92-4f1e-9257-c8607159c19c.jpg\"]","trial_type":"similarity","trial_index":42,"time_elapsed":319171,"internal_node_id":"0.0-6.0-36.0"},{"sim_score":5,"rt":3417,"stimulus":"[\"img/0862/cdaed51d-9e2f-4807-801a-4663c40077e2.jpg\",\"img/0864/da39ad34-04e0-40d4-a724-c08d53e0ea09.jpg\"]","trial_type":"similarity","trial_index":43,"time_elapsed":323605,"internal_node_id":"0.0-6.0-37.0"},{"sim_score":2,"rt":4023,"stimulus":"[\"img/0766/33519c22-aaa4-49d7-8d49-ab551db1945e.jpg\",\"img/0866/8efcaa46-83ab-4dee-a35f-850402aa21ae.jpg\"]","trial_type":"similarity","trial_index":44,"time_elapsed":328633,"internal_node_id":"0.0-6.0-38.0"},{"sim_score":1,"rt":3991,"stimulus":"[\"img/0875/e7e66b13-b573-431e-b85e-288ce04a35a3.jpg\",\"img/0898/a8f16b02-e19f-423b-86c3-a36562ae1f9b.jpg\"]","trial_type":"similarity","trial_index":45,"time_elapsed":333633,"internal_node_id":"0.0-6.0-39.0"},{"sim_score":6,"rt":4688,"stimulus":"[\"img/0766/0025de5e-f620-4079-8a0f-00326ff3a6b0.jpg\",\"img/0769/47700831-0ca2-4fdd-a498-a3bc5a528f43.jpg\"]","trial_type":"similarity","trial_index":46,"time_elapsed":339327,"internal_node_id":"0.0-6.0-40.0"},{"sim_score":4,"rt":4913,"stimulus":"[\"img/0874/bf14b896-e930-4fd9-9c05-2e83317a2773.jpg\",\"img/0764/b8e23f4f-ff19-4472-ad9b-2f85548ebca0.jpg\"]","trial_type":"similarity","trial_index":47,"time_elapsed":368607,"internal_node_id":"0.0-6.0-41.0"},{"sim_score":1,"rt":4365,"stimulus":"[\"img/0868/3a62db2d-97e9-44a3-b8e3-a48c6f0e423b.jpg\",\"img/0902/0db94c50-f1fb-4091-953c-29ca0466bee2.jpg\"]","trial_type":"similarity","trial_index":48,"time_elapsed":373991,"internal_node_id":"0.0-6.0-42.0"},{"sim_score":2,"rt":4131,"stimulus":"[\"img/0875/5a1e5100-0d94-4fec-bbe9-ca9894d2cf8e.jpg\",\"img/0899/8abe6c69-822c-436c-9bf2-96c818b49ba5.jpg\"]","trial_type":"similarity","trial_index":49,"time_elapsed":379141,"internal_node_id":"0.0-6.0-43.0"},{"sim_score":2,"rt":5349,"stimulus":"[\"img/0866/93a27239-8317-4e08-98ca-d8b1ff298e07.jpg\",\"img/0860/f44ba3fb-03a2-42f0-8509-2c1ded493086.jpg\"]","trial_type":"similarity","trial_index":50,"time_elapsed":385494,"internal_node_id":"0.0-6.0-44.0"},{"sim_score":6,"rt":4006,"stimulus":"[\"img/0766/5d1b8041-c5a1-4b02-b4fe-3453d98a0d72.jpg\",\"img/0903/4cbdc464-e562-4ec2-9bb6-15f894fdf528.jpg\"]","trial_type":"similarity","trial_index":51,"time_elapsed":390509,"internal_node_id":"0.0-6.0-45.0"},{"sim_score":5,"rt":4237,"stimulus":"[\"img/0901/77087ed2-6e12-4329-b2a5-605bca6d972d.jpg\",\"img/0904/2c98dc56-88d1-4fb5-a999-b6a7861f65f0.jpg\"]","trial_type":"similarity","trial_index":52,"time_elapsed":395753,"internal_node_id":"0.0-6.0-46.0"},{"sim_score":3,"rt":5308,"stimulus":"[\"img/0758/3ddd05d3-557e-4ee7-8b78-9d2d681d8ae2.jpg\",\"img/0902/aa6fca32-82b0-4414-b20a-8f6f8aa5a2d2.jpg\"]","trial_type":"similarity","trial_index":53,"time_elapsed":402066,"internal_node_id":"0.0-6.0-47.0"},{"sim_score":7,"rt":4168,"stimulus":"[\"img/0764/ec2dd087-c471-4370-b570-95a542506a96.jpg\",\"img/0764/f713847b-4832-42d1-8fb3-e17e37fd745c.jpg\"]","trial_type":"similarity","trial_index":54,"time_elapsed":407242,"internal_node_id":"0.0-6.0-48.0"},{"sim_score":5,"rt":6418,"stimulus":"[\"img/0866/23a224f3-2012-4fc8-8e0f-3c36f8de27fd.jpg\",\"img/0902/794606a0-d8a8-4e58-8bf8-9d114ed5a548.jpg\"]","trial_type":"similarity","trial_index":55,"time_elapsed":414674,"internal_node_id":"0.0-6.0-49.0"},{"sim_score":4,"rt":3557,"stimulus":"[\"img/0764/713cc27e-2338-4486-bfe9-5f5725fbd7a0.jpg\",\"img/0758/20497cbe-ddae-489e-86e2-ab06985ed07c.jpg\"]","trial_type":"similarity","trial_index":56,"time_elapsed":419244,"internal_node_id":"0.0-6.0-50.0"},{"sim_score":5,"rt":4293,"stimulus":"[\"img/0898/82231d4c-218b-4d0a-b50d-35a49b524e97.jpg\",\"img/0894/2d2db7b3-e8a3-499b-b63a-14f51bf73882.jpg\"]","trial_type":"similarity","trial_index":57,"time_elapsed":424548,"internal_node_id":"0.0-6.0-51.0"},{"sim_score":4,"rt":3293,"stimulus":"[\"img/0875/8521fd58-3b1e-4dc5-97ae-804edfa6734a.jpg\",\"img/0866/386235d2-6857-41e7-88a8-25cfc3430025.jpg\"]","trial_type":"similarity","trial_index":58,"time_elapsed":428858,"internal_node_id":"0.0-6.0-52.0"},{"sim_score":7,"rt":4316,"stimulus":"[\"img/0904/73920552-103b-4c9c-9ece-e0b8376b4504.jpg\",\"img/0904/b5855d6a-7ef9-46ca-9215-6e9fa046e543.jpg\"]","trial_type":"similarity","trial_index":59,"time_elapsed":434178,"internal_node_id":"0.0-6.0-53.0"},{"sim_score":7,"rt":3882,"stimulus":"[\"img/0769/38a88f69-28fd-4bbd-99f0-f4c02bfd3995.jpg\",\"img/0769/387a9744-d6a7-42b8-bab8-33007ec434aa.jpg\"]","trial_type":"similarity","trial_index":60,"time_elapsed":439077,"internal_node_id":"0.0-6.0-54.0"},{"sim_score":5,"rt":4002,"stimulus":"[\"img/0898/68476bbb-34a1-42d9-8bc1-deab783d4489.jpg\",\"img/0758/ddc336e9-a8b6-4bb9-937a-c7e25e0e9250.jpg\"]","trial_type":"similarity","trial_index":61,"time_elapsed":444082,"internal_node_id":"0.0-6.0-55.0"},{"sim_score":6,"rt":3191,"stimulus":"[\"img/0769/878531fd-e0e8-4ad1-b9ad-f018bb104ca0.jpg\",\"img/0902/b03fee99-d5ca-4bf8-871c-a4a743a39842.jpg\"]","trial_type":"similarity","trial_index":62,"time_elapsed":448284,"internal_node_id":"0.0-6.0-56.0"},{"sim_score":5,"rt":3367,"stimulus":"[\"img/0864/efcfbb1b-8197-44c9-b723-40d6c608dd3c.jpg\",\"img/0881/4bd34581-94d8-4e88-8c89-5cef864ca3be.jpg\"]","trial_type":"similarity","trial_index":63,"time_elapsed":452670,"internal_node_id":"0.0-6.0-57.0"},{"sim_score":2,"rt":3106,"stimulus":"[\"img/0758/e1ba5e53-addc-436a-b428-d34fc1b130dc.jpg\",\"img/0868/09a9ef4d-d000-4cfa-a6aa-ebec7c2edeb4.jpg\"]","trial_type":"similarity","trial_index":64,"time_elapsed":456780,"internal_node_id":"0.0-6.0-58.0"},{"sim_score":7,"rt":3182,"stimulus":"[\"img/0862/847e5208-38ec-4f36-949c-296cdd7424ee.jpg\",\"img/0769/f2740c58-7c02-433f-920b-746b0b75435b.jpg\"]","trial_type":"similarity","trial_index":65,"time_elapsed":460968,"internal_node_id":"0.0-6.0-59.0"},{"sim_score":5,"rt":4279,"stimulus":"[\"img/0764/fb7d4a20-a475-465e-a74f-aa39a0d33d16.jpg\",\"img/0903/8f7f9939-b8e6-433f-93dd-b362496c80a7.jpg\"]","trial_type":"similarity","trial_index":66,"time_elapsed":466264,"internal_node_id":"0.0-6.0-60.0"},{"sim_score":6,"rt":3579,"stimulus":"[\"img/0899/0433d056-aa30-4f8a-9aa1-abbb951e4edd.jpg\",\"img/0899/66bf4113-ee12-426c-84d2-ea410b6c803e.jpg\"]","trial_type":"similarity","trial_index":67,"time_elapsed":470856,"internal_node_id":"0.0-6.0-61.0"},{"sim_score":1,"rt":3375,"stimulus":"[\"img/0860/15b24a61-25be-4356-9eac-5ce95d0cb4a4.jpg\",\"img/0875/99698b4d-b4a1-44bc-8c83-8ea755bbbf61.jpg\"]","trial_type":"similarity","trial_index":68,"time_elapsed":475242,"internal_node_id":"0.0-6.0-62.0"},{"sim_score":1,"rt":2868,"stimulus":"[\"img/0868/83b4350a-3b70-4cea-b7f5-b5b56f3050a8.jpg\",\"img/0874/99f6563c-8a8d-4c1c-a41d-667b618c3fd5.jpg\"]","trial_type":"similarity","trial_index":69,"time_elapsed":479114,"internal_node_id":"0.0-6.0-63.0"},{"sim_score":3,"rt":6018,"stimulus":"[\"img/0758/7ffbc76b-1fc1-432c-8f7e-9ec8d1b3f643.jpg\",\"img/0862/a0a3a7ba-7798-46a3-b4ca-05e1f6e581d0.jpg\"]","trial_type":"similarity","trial_index":70,"time_elapsed":486140,"internal_node_id":"0.0-6.0-64.0"},{"sim_score":5,"rt":3282,"stimulus":"[\"img/0904/6291eb43-c10c-4810-a36a-101d09868b04.jpg\",\"img/0898/b2732712-71c2-45d8-834f-2b2ed5504910.jpg\"]","trial_type":"similarity","trial_index":71,"time_elapsed":490427,"internal_node_id":"0.0-6.0-65.0"},{"sim_score":2,"rt":3013,"stimulus":"[\"img/0881/14236cf2-6b95-48b8-9368-78af09d2d27f.jpg\",\"img/0866/d493a2c8-66eb-44b4-be02-2f327b700b7c.jpg\"]","trial_type":"similarity","trial_index":72,"time_elapsed":494446,"internal_node_id":"0.0-6.0-66.0"},{"sim_score":3,"rt":3055,"stimulus":"[\"img/0867/a749dddb-69f0-44a6-acdc-2bf295cf6dcc.jpg\",\"img/0898/ec565187-2e31-4fdd-9a5c-153d0c789ae0.jpg\"]","trial_type":"similarity","trial_index":73,"time_elapsed":498509,"internal_node_id":"0.0-6.0-67.0"},{"sim_score":6,"rt":3964,"stimulus":"[\"img/0902/31abfa33-7cdb-44ad-968e-9f7b324d577a.jpg\",\"img/0764/e0788029-9d7f-414c-b747-46d2a99f7c86.jpg\"]","trial_type":"similarity","trial_index":74,"time_elapsed":503483,"internal_node_id":"0.0-6.0-68.0"},{"sim_score":7,"rt":3151,"stimulus":"[\"img/0875/5a716432-c6ca-4b1c-955a-2b8ac25198ee.jpg\",\"img/0867/5e07b34d-b40f-4b1c-ac10-49975bace45f.jpg\"]","trial_type":"similarity","trial_index":75,"time_elapsed":507640,"internal_node_id":"0.0-6.0-69.0"},{"sim_score":6,"rt":4635,"stimulus":"[\"img/0766/535849cc-ff5d-4df9-8f31-0ce94a97d571.jpg\",\"img/0764/978aede9-4590-4ad0-b234-135c83e5d669.jpg\"]","trial_type":"similarity","trial_index":76,"time_elapsed":513289,"internal_node_id":"0.0-6.0-70.0"},{"sim_score":5,"rt":4008,"stimulus":"[\"img/0894/3664e04c-c6d3-4c9b-afb6-25d89974b174.jpg\",\"img/0867/6e19c858-b606-45b2-a4c6-910a73f1d82c.jpg\"]","trial_type":"similarity","trial_index":77,"time_elapsed":518302,"internal_node_id":"0.0-6.0-71.0"},{"sim_score":2,"rt":4730,"stimulus":"[\"img/0875/34132396-d896-4c2d-8087-646dd867e769.jpg\",\"img/0764/a86eed5b-d0af-4c3f-8c7a-26e98e98cf1a.jpg\"]","trial_type":"similarity","trial_index":78,"time_elapsed":524043,"internal_node_id":"0.0-6.0-72.0"},{"sim_score":5,"rt":3480,"stimulus":"[\"img/0867/50a1b60e-3a29-44bf-b606-d4bd3746fea9.jpg\",\"img/0866/02f5e6b9-52b7-448c-9708-5b460d0c9a23.jpg\"]","trial_type":"similarity","trial_index":79,"time_elapsed":528526,"internal_node_id":"0.0-6.0-73.0"},{"sim_score":3,"rt":5624,"stimulus":"[\"img/0903/24477210-856c-4550-9de0-9f85a32762eb.jpg\",\"img/0758/65d426d6-3ff6-415d-8654-a43b83ecc4fe.jpg\"]","trial_type":"similarity","trial_index":80,"time_elapsed":535163,"internal_node_id":"0.0-6.0-74.0"},{"sim_score":1,"rt":4119,"stimulus":"[\"img/0766/09f646c8-a69e-4ed3-879c-8d29b04ad7f9.jpg\",\"img/0868/d98ca254-b195-477f-b57e-5760a2717db8.jpg\"]","trial_type":"similarity","trial_index":81,"time_elapsed":540292,"internal_node_id":"0.0-6.0-75.0"},{"sim_score":5,"rt":4728,"stimulus":"[\"img/0874/a3bc679d-619f-4db6-bb68-116dcb757d9c.jpg\",\"img/0766/fd064894-7147-4af5-97e9-2089d5472656.jpg\"]","trial_type":"similarity","trial_index":82,"time_elapsed":546024,"internal_node_id":"0.0-6.0-76.0"},{"sim_score":1,"rt":3591,"stimulus":"[\"img/0881/44e09805-5a25-4f17-a716-4ad4a331b174.jpg\",\"img/0868/8b0b8473-e2c0-4331-aa56-c3a5c29369da.jpg\"]","trial_type":"similarity","trial_index":83,"time_elapsed":550624,"internal_node_id":"0.0-6.0-77.0"},{"sim_score":5,"rt":3755,"stimulus":"[\"img/0758/61d64021-9214-4951-bdf8-f871f9827cf9.jpg\",\"img/0901/ae1e6ce4-2e10-4ca9-b1e7-21628637ab74.jpg\"]","trial_type":"similarity","trial_index":84,"time_elapsed":555384,"internal_node_id":"0.0-6.0-78.0"},{"sim_score":4,"rt":1906,"stimulus":"[\"img/0881/2a8413be-fec2-4de6-88ad-614dd4cccc9d.jpg\",\"img/0898/40f99fb2-64d2-4e72-8a7f-a1cf60741e69.jpg\"]","trial_type":"similarity","trial_index":85,"time_elapsed":558303,"internal_node_id":"0.0-6.0-79.0"},{"sim_score":2,"rt":5248,"stimulus":"[\"img/0867/f8159067-056c-41f1-a136-c529fe5e970a.jpg\",\"img/0758/a085b443-b5d7-4cb2-9ad4-b9dab0fc23f1.jpg\"]","trial_type":"similarity","trial_index":86,"time_elapsed":564570,"internal_node_id":"0.0-6.0-80.0"},{"sim_score":6,"rt":2835,"stimulus":"[\"img/0769/4a1d0b52-3fe8-40fb-bb1c-c814fe49a68c.jpg\",\"img/0899/d60714ae-98d7-4564-8c98-94dba1351135.jpg\"]","trial_type":"similarity","trial_index":87,"time_elapsed":568420,"internal_node_id":"0.0-6.0-81.0"},{"sim_score":7,"rt":3296,"stimulus":"[\"img/0903/39365c8e-a733-4801-ac7d-b87e38c3784b.jpg\",\"img/0903/b548d383-2a95-4575-8c13-647873751ff1.jpg\"]","trial_type":"similarity","trial_index":88,"time_elapsed":572730,"internal_node_id":"0.0-6.0-82.0"},{"sim_score":1,"rt":3848,"stimulus":"[\"img/0867/aa05d113-fc19-4756-a8eb-7878f580bc92.jpg\",\"img/0766/d5d38751-8fa5-476f-93e9-86ed2d9045ef.jpg\"]","trial_type":"similarity","trial_index":89,"time_elapsed":584615,"internal_node_id":"0.0-6.0-83.0"},{"sim_score":3,"rt":7538,"stimulus":"[\"img/0902/12452bb1-b8c0-4e4d-ad4d-47e279e5933c.jpg\",\"img/0867/2e1a0b58-cdb1-4107-a14e-452530d7b9b0.jpg\"]","trial_type":"similarity","trial_index":90,"time_elapsed":593159,"internal_node_id":"0.0-6.0-84.0"},{"sim_score":1,"rt":3853,"stimulus":"[\"img/0901/da4fe30f-d12a-491e-96a2-5ab8ebaadd09.jpg\",\"img/0875/3ecb367d-e9eb-4826-8aaa-7aa72fb98019.jpg\"]","trial_type":"similarity","trial_index":91,"time_elapsed":598018,"internal_node_id":"0.0-6.0-85.0"},{"sim_score":2,"rt":3990,"stimulus":"[\"img/0764/c01e2d65-6586-441b-bef5-3c96fcd85380.jpg\",\"img/0866/945c6710-d15b-4a5b-a8f6-69af0850357f.jpg\"]","trial_type":"similarity","trial_index":92,"time_elapsed":603015,"internal_node_id":"0.0-6.0-86.0"},{"sim_score":3,"rt":4460,"stimulus":"[\"img/0901/3db47171-0139-4235-82cd-0b1787b6775f.jpg\",\"img/0894/492d2f29-d7b9-4422-8be8-47fd58bfaa8b.jpg\"]","trial_type":"similarity","trial_index":93,"time_elapsed":608487,"internal_node_id":"0.0-6.0-87.0"},{"sim_score":5,"rt":6942,"stimulus":"[\"img/0898/881e2a85-d5c2-49be-a0c6-8a6ce2c4af08.jpg\",\"img/0769/8c7cf147-1780-4d5c-8ddf-5ea23ff03ac9.jpg\"]","trial_type":"similarity","trial_index":94,"time_elapsed":616447,"internal_node_id":"0.0-6.0-88.0"},{"sim_score":7,"rt":4674,"stimulus":"[\"img/0769/76eaa4a3-dfe9-4dc1-9efb-caebe86264e1.jpg\",\"img/0894/b422d5c6-3c5a-49ae-a53e-7e88ac993f49.jpg\"]","trial_type":"similarity","trial_index":95,"time_elapsed":622125,"internal_node_id":"0.0-6.0-89.0"},{"sim_score":6,"rt":3164,"stimulus":"[\"img/0862/e697469a-ec19-4414-b972-7b9f3564785b.jpg\",\"img/0874/eba003b4-cdab-4eee-8bc3-f064c7d94165.jpg\"]","trial_type":"similarity","trial_index":96,"time_elapsed":626295,"internal_node_id":"0.0-6.0-90.0"},{"sim_score":5,"rt":2657,"stimulus":"[\"img/0894/c505c65a-cde2-4f2c-8cde-f8676f7c894d.jpg\",\"img/0766/60033a74-9919-47e5-913c-71d0d483e7e5.jpg\"]","trial_type":"similarity","trial_index":97,"time_elapsed":629970,"internal_node_id":"0.0-6.0-91.0"},{"sim_score":2,"rt":2842,"stimulus":"[\"img/0874/2c9464dd-8a23-4baa-ac94-1ba3af5c15cc.jpg\",\"img/0867/f26f6b60-f772-4f4c-95a4-addc62cfd692.jpg\"]","trial_type":"similarity","trial_index":98,"time_elapsed":633827,"internal_node_id":"0.0-6.0-92.0"},{"sim_score":1,"rt":2538,"stimulus":"[\"img/0899/0e1d936a-dbe2-4afc-9f19-7b7a1ae6c9ed.jpg\",\"img/0868/c8ac40c7-6904-4e13-8d61-c75d3052dc4e.jpg\"]","trial_type":"similarity","trial_index":99,"time_elapsed":637371,"internal_node_id":"0.0-6.0-93.0"},{"sim_score":7,"rt":3100,"stimulus":"[\"img/0903/14f179a2-8786-48a2-8377-88d1d404341b.jpg\",\"img/0862/5d887e9f-89e2-4ebc-80a0-6d46fe6480db.jpg\"]","trial_type":"similarity","trial_index":100,"time_elapsed":641481,"internal_node_id":"0.0-6.0-94.0"},{"sim_score":6,"rt":3259,"stimulus":"[\"img/0899/93494f3b-d539-4075-b027-d82e344563da.jpg\",\"img/0766/b84598d0-5b41-4841-88b0-b441b48289f5.jpg\"]","trial_type":"similarity","trial_index":101,"time_elapsed":645751,"internal_node_id":"0.0-6.0-95.0"},{"sim_score":1,"rt":3536,"stimulus":"[\"img/0867/cc72ed48-7704-422c-86d6-467a1145287a.jpg\",\"img/0868/4bd5105a-d2c3-4f82-8c80-57196106ba53.jpg\"]","trial_type":"similarity","trial_index":102,"time_elapsed":650298,"internal_node_id":"0.0-6.0-96.0"},{"sim_score":2,"rt":2565,"stimulus":"[\"img/0862/fad1d7c1-8187-43c3-942a-0fc12183e48e.jpg\",\"img/0901/deff6cfb-0072-4490-bc3e-206bbcd3e8bf.jpg\"]","trial_type":"similarity","trial_index":103,"time_elapsed":653881,"internal_node_id":"0.0-6.0-97.0"},{"sim_score":2,"rt":2821,"stimulus":"[\"img/0875/f87b67d7-c33e-40d1-b281-248c4be1cb6e.jpg\",\"img/0766/75c3d627-4f3b-40d5-9d9c-10c8a62db644.jpg\"]","trial_type":"similarity","trial_index":104,"time_elapsed":657715,"internal_node_id":"0.0-6.0-98.0"},{"sim_score":6,"rt":3314,"stimulus":"[\"img/0758/335851a0-a55b-46d8-ab05-8463eda48349.jpg\",\"img/0874/93d1f8dc-acf2-4f03-bd8d-8ec35df276ed.jpg\"]","trial_type":"similarity","trial_index":105,"time_elapsed":662038,"internal_node_id":"0.0-6.0-99.0"},{"sim_score":4,"rt":2576,"stimulus":"[\"img/0904/da170c1b-9651-4f08-b231-2bdd1d9a046f.jpg\",\"img/0868/293079b8-7e0c-4afd-a390-1e5d35fe3ded.jpg\"]","trial_type":"similarity","trial_index":106,"time_elapsed":665620,"internal_node_id":"0.0-6.0-100.0"},{"sim_score":3,"rt":4300,"stimulus":"[\"img/0903/6b5dcc60-3ad3-4962-93e5-e6cf768477af.jpg\",\"img/0866/6f2a90d7-14f1-4f1b-bd64-fc0af6b9fe44.jpg\"]","trial_type":"similarity","trial_index":107,"time_elapsed":670924,"internal_node_id":"0.0-6.0-101.0"},{"sim_score":2,"rt":3700,"stimulus":"[\"img/0868/15dd6fd7-791e-4b53-b203-195d617521a4.jpg\",\"img/0769/1afb527f-9887-428c-bd26-a12c2f9efb68.jpg\"]","trial_type":"similarity","trial_index":108,"time_elapsed":675639,"internal_node_id":"0.0-6.0-102.0"},{"sim_score":7,"rt":2958,"stimulus":"[\"img/0902/27b84584-948a-485b-8749-cb09929ef631.jpg\",\"img/0899/56a605c3-d0a2-4215-89e1-779279d85a7c.jpg\"]","trial_type":"similarity","trial_index":109,"time_elapsed":679602,"internal_node_id":"0.0-6.0-103.0"},{"sim_score":2,"rt":3544,"stimulus":"[\"img/0868/e0aff734-077f-40dd-9781-74821abd3621.jpg\",\"img/0862/99a99e39-8355-44ec-b993-e7bcec111e1c.jpg\"]","trial_type":"similarity","trial_index":110,"time_elapsed":684156,"internal_node_id":"0.0-6.0-104.0"},{"sim_score":6,"rt":9127,"stimulus":"[\"img/0903/b7e3723f-fd03-4f3d-8820-f19496463a34.jpg\",\"img/0894/5ff3c4f6-52e2-4075-8679-be0312e59703.jpg\"]","trial_type":"similarity","trial_index":111,"time_elapsed":694288,"internal_node_id":"0.0-6.0-105.0"},{"sim_score":5,"rt":4142,"stimulus":"[\"img/0864/3651d070-2fc5-4848-b6a6-088a2d9ac5c9.jpg\",\"img/0874/c0378dac-9370-439a-8b79-db27c96fb390.jpg\"]","trial_type":"similarity","trial_index":112,"time_elapsed":699446,"internal_node_id":"0.0-6.0-106.0"},{"sim_score":7,"rt":3149,"stimulus":"[\"img/0862/92fcd8a4-8193-4a6a-ae09-dd4a6338b0df.jpg\",\"img/0902/b03129ba-b087-4558-af37-e8399d6217d6.jpg\"]","trial_type":"similarity","trial_index":113,"time_elapsed":703602,"internal_node_id":"0.0-6.0-107.0"},{"sim_score":6,"rt":3334,"stimulus":"[\"img/0904/09934646-45d2-4147-8fec-64a22a5ac822.jpg\",\"img/0903/6138142e-c84e-45fc-9487-c974f3d4968a.jpg\"]","trial_type":"similarity","trial_index":114,"time_elapsed":707954,"internal_node_id":"0.0-6.0-108.0"},{"sim_score":5,"rt":3077,"stimulus":"[\"img/0764/f2f23359-8e82-41d3-8900-5b9f4433991d.jpg\",\"img/0864/a248adb3-c70b-4652-b7a3-776d2a1e904b.jpg\"]","trial_type":"similarity","trial_index":115,"time_elapsed":712034,"internal_node_id":"0.0-6.0-109.0"},{"sim_score":4,"rt":2393,"stimulus":"[\"img/0866/620cd1aa-0800-4414-8f6e-90342e7a99ad.jpg\",\"img/0894/11674fa4-285d-44e2-939f-2228c6a64080.jpg\"]","trial_type":"similarity","trial_index":116,"time_elapsed":715441,"internal_node_id":"0.0-6.0-110.0"},{"sim_score":5,"rt":4388,"stimulus":"[\"img/0899/66ab3178-c3fe-4455-ad17-d5952b08e018.jpg\",\"img/0903/0a92ec52-4e87-410a-857a-4455cde56a70.jpg\"]","trial_type":"similarity","trial_index":117,"time_elapsed":720834,"internal_node_id":"0.0-6.0-111.0"},{"sim_score":3,"rt":3237,"stimulus":"[\"img/0902/22ed3536-288b-452e-9777-0fa0ab94deb0.jpg\",\"img/0904/e9423a8c-f946-43ad-ab7b-931acef870e2.jpg\"]","trial_type":"similarity","trial_index":118,"time_elapsed":725075,"internal_node_id":"0.0-6.0-112.0"},{"sim_score":7,"rt":2799,"stimulus":"[\"img/0864/9b2490c5-a282-400a-9736-e1a0ecbf1cb7.jpg\",\"img/0860/9593362c-9fe5-4d12-9735-6000a11f6aa5.jpg\"]","trial_type":"similarity","trial_index":119,"time_elapsed":728878,"internal_node_id":"0.0-6.0-113.0"},{"sim_score":6,"rt":3362,"stimulus":"[\"img/0860/31ff6436-98bf-4652-bed2-40f627229568.jpg\",\"img/0899/ad8268c5-8199-48d0-ad70-c5b6d6c599ec.jpg\"]","trial_type":"similarity","trial_index":120,"time_elapsed":733254,"internal_node_id":"0.0-6.0-114.0"},{"sim_score":4,"rt":3735,"stimulus":"[\"img/0881/84397291-bc14-4fbf-90e8-241e486ab0fe.jpg\",\"img/0903/36e4ab1f-caa9-40b3-8616-faada076df94.jpg\"]","trial_type":"similarity","trial_index":121,"time_elapsed":738007,"internal_node_id":"0.0-6.0-115.0"},{"sim_score":3,"rt":3660,"stimulus":"[\"img/0894/43216a7f-27bc-4b5a-8841-d122a30da9d9.jpg\",\"img/0874/85eb9b8a-c4c6-4e5a-b8e7-363a87a82054.jpg\"]","trial_type":"similarity","trial_index":122,"time_elapsed":742674,"internal_node_id":"0.0-6.0-116.0"},{"sim_score":6,"rt":2929,"stimulus":"[\"img/0881/c843e210-bdfe-4a7c-8bbe-fcea1f90fe1c.jpg\",\"img/0862/00c06b00-3b73-44e9-bc1e-c5aafb438321.jpg\"]","trial_type":"similarity","trial_index":123,"time_elapsed":746623,"internal_node_id":"0.0-6.0-117.0"},{"sim_score":3,"rt":3740,"stimulus":"[\"img/0868/4e626425-63c8-484a-8a1d-e66ee4e0bef8.jpg\",\"img/0875/a4935837-7d3c-4df6-88c1-36a94d4991ca.jpg\"]","trial_type":"similarity","trial_index":124,"time_elapsed":751366,"internal_node_id":"0.0-6.0-118.0"},{"sim_score":5,"rt":3645,"stimulus":"[\"img/0860/99c589b9-9140-4d17-90c0-b344323edcda.jpg\",\"img/0758/6e95579b-5166-487c-b8cb-e417c6a218e3.jpg\"]","trial_type":"similarity","trial_index":125,"time_elapsed":756027,"internal_node_id":"0.0-6.0-119.0"},{"sim_score":4,"rt":3025,"stimulus":"[\"img/0864/c22faebd-9c53-47bc-ada3-b9a30c688e75.jpg\",\"img/0875/dbdd643e-6d0e-4a5c-ab57-b9c29b9c981a.jpg\"]","trial_type":"similarity","trial_index":126,"time_elapsed":760061,"internal_node_id":"0.0-6.0-120.0"},{"sim_score":3,"rt":3799,"stimulus":"[\"img/0898/993d8f2d-bef7-4251-a193-0f93a32b7763.jpg\",\"img/0866/d266fece-59b3-46fa-b69f-96f6efb81b59.jpg\"]","trial_type":"similarity","trial_index":127,"time_elapsed":764875,"internal_node_id":"0.0-6.0-121.0"},{"sim_score":5,"rt":2810,"stimulus":"[\"img/0874/ca23d307-fc00-4d7d-9106-584c6eb21b4d.jpg\",\"img/0904/b7c2a2c8-df33-4473-b3d4-ff7147c60db3.jpg\"]","trial_type":"similarity","trial_index":128,"time_elapsed":768701,"internal_node_id":"0.0-6.0-122.0"},{"sim_score":3,"rt":4683,"stimulus":"[\"img/0904/06dacdc5-2206-4fb8-92b7-88042d22833c.jpg\",\"img/0864/6e846d43-94a6-4b37-a268-65eda979f052.jpg\"]","trial_type":"similarity","trial_index":129,"time_elapsed":774401,"internal_node_id":"0.0-6.0-123.0"},{"sim_score":5,"rt":3386,"stimulus":"[\"img/0894/5a49e858-2850-4892-9a06-e9f0efb5f94d.jpg\",\"img/0902/01b41522-de46-4c3a-b0af-a61b2682b40e.jpg\"]","trial_type":"similarity","trial_index":130,"time_elapsed":778803,"internal_node_id":"0.0-6.0-124.0"},{"sim_score":3,"rt":3872,"stimulus":"[\"img/0868/7b212364-ff5f-4e28-9241-7eb6ea00161b.jpg\",\"img/0864/66091c27-e588-4476-8af9-265dc6be4156.jpg\"]","trial_type":"similarity","trial_index":131,"time_elapsed":789433,"internal_node_id":"0.0-6.0-125.0"},{"sim_score":2,"rt":6444,"stimulus":"[\"img/0899/5b56dd3e-3f49-47cc-af84-16da6457753b.jpg\",\"img/0866/a04d37f0-99dd-478a-b6c6-58b215138f84.jpg\"]","trial_type":"similarity","trial_index":132,"time_elapsed":796893,"internal_node_id":"0.0-6.0-126.0"},{"sim_score":3,"rt":4230,"stimulus":"[\"img/0875/d59ff733-eaff-4ee2-9443-06954dd0bcb6.jpg\",\"img/0904/4d7d70a3-9477-4921-bda0-f9531d0a5c5b.jpg\"]","trial_type":"similarity","trial_index":133,"time_elapsed":802127,"internal_node_id":"0.0-6.0-127.0"},{"sim_score":4,"rt":5104,"stimulus":"[\"img/0867/85a96c62-548f-4994-9553-819e03c3135a.jpg\",\"img/0899/8de08897-b430-42fe-9d42-840670b80f94.jpg\"]","trial_type":"similarity","trial_index":134,"time_elapsed":808241,"internal_node_id":"0.0-6.0-128.0"},{"sim_score":1,"rt":3712,"stimulus":"[\"img/0901/8bb79e82-9c43-4b6f-a655-40655519598b.jpg\",\"img/0867/8ba0c5a7-c7e4-42cf-a80a-543763b90779.jpg\"]","trial_type":"similarity","trial_index":135,"time_elapsed":812973,"internal_node_id":"0.0-6.0-129.0"},{"sim_score":3,"rt":4733,"stimulus":"[\"img/0864/ef9cbca0-4be8-435d-ad49-977259e80409.jpg\",\"img/0769/1d8734c4-77ab-4165-9e71-5cfe672ff01c.jpg\"]","trial_type":"similarity","trial_index":136,"time_elapsed":818725,"internal_node_id":"0.0-6.0-130.0"},{"sim_score":6,"rt":3568,"stimulus":"[\"img/0903/12bd8657-92e6-4c36-a06c-597e7a1d51f3.jpg\",\"img/0868/77091fc7-a590-4ebb-b915-fdb2483a2399.jpg\"]","trial_type":"similarity","trial_index":137,"time_elapsed":823301,"internal_node_id":"0.0-6.0-131.0"},{"sim_score":1,"rt":3174,"stimulus":"[\"img/0864/0f537697-a314-47c3-a8cc-8df23b7e536c.jpg\",\"img/0867/a498eef3-9fa4-4ab2-9778-4ae82ac40dc5.jpg\"]","trial_type":"similarity","trial_index":138,"time_elapsed":827487,"internal_node_id":"0.0-6.0-132.0"},{"sim_score":7,"rt":2830,"stimulus":"[\"img/0901/04a53755-6da5-44d4-a7a6-48a6bc0a2280.jpg\",\"img/0860/c7047cd2-7cc1-41b6-8a34-c0986774975f.jpg\"]","trial_type":"similarity","trial_index":139,"time_elapsed":831321,"internal_node_id":"0.0-6.0-133.0"},{"sim_score":5,"rt":3596,"stimulus":"[\"img/0881/d373cb9f-a719-4549-a2a4-82def79fb2a5.jpg\",\"img/0766/214866ee-423d-4629-9bb9-41572bdc7dac.jpg\"]","trial_type":"similarity","trial_index":140,"time_elapsed":835935,"internal_node_id":"0.0-6.0-134.0"},{"sim_score":3,"rt":3271,"stimulus":"[\"img/0903/5ea5bbe0-f238-4724-abe7-9ed8dee8c0ba.jpg\",\"img/0864/5f33e097-23e3-4002-882d-76e8cb15f451.jpg\"]","trial_type":"similarity","trial_index":141,"time_elapsed":840210,"internal_node_id":"0.0-6.0-135.0"},{"sim_score":4,"rt":2771,"stimulus":"[\"img/0758/e38fd80d-18d0-42f3-b848-f930788e8bd7.jpg\",\"img/0894/1a010553-d598-4b06-a772-81f1e7b3addb.jpg\"]","trial_type":"similarity","trial_index":142,"time_elapsed":843993,"internal_node_id":"0.0-6.0-136.0"},{"sim_score":4,"rt":3099,"stimulus":"[\"img/0769/4680bcc3-8fbc-4643-8f9a-12aa0e780b64.jpg\",\"img/0860/8fdba999-b946-4c7d-9891-336018b563ef.jpg\"]","trial_type":"similarity","trial_index":143,"time_elapsed":848100,"internal_node_id":"0.0-6.0-137.0"},{"sim_score":3,"rt":6012,"stimulus":"[\"img/0904/60d1a521-edf7-4696-9263-f21ac0e62a01.jpg\",\"img/0766/110832e5-2646-4bd0-a94e-5df8cc314269.jpg\"]","trial_type":"similarity","trial_index":144,"time_elapsed":855124,"internal_node_id":"0.0-6.0-138.0"},{"sim_score":4,"rt":4072,"stimulus":"[\"img/0868/1a62b2b2-18f5-466e-b564-5176a57c565e.jpg\",\"img/0860/c47fdead-eb02-4989-b078-26f4852f44fe.jpg\"]","trial_type":"similarity","trial_index":145,"time_elapsed":860207,"internal_node_id":"0.0-6.0-139.0"},{"sim_score":6,"rt":3239,"stimulus":"[\"img/0758/9fb5b2fe-3f00-4fe6-973c-1ce10d5f4cd5.jpg\",\"img/0864/b3c4e378-28f0-4699-9338-2a257b4bca04.jpg\"]","trial_type":"similarity","trial_index":146,"time_elapsed":864460,"internal_node_id":"0.0-6.0-140.0"},{"sim_score":7,"rt":2433,"stimulus":"[\"img/0867/f8488a47-94ee-4166-952c-44e16cf172f6.jpg\",\"img/0867/de92135f-5b65-4ed9-b245-188292c7c2f8.jpg\"]","trial_type":"similarity","trial_index":147,"time_elapsed":867905,"internal_node_id":"0.0-6.0-141.0"},{"sim_score":6,"rt":2440,"stimulus":"[\"img/0898/0af304a2-6a7a-4082-ab7c-4450cd08cc58.jpg\",\"img/0898/b3290bf9-215b-4b45-b21a-65bdf73f142f.jpg\"]","trial_type":"similarity","trial_index":148,"time_elapsed":871362,"internal_node_id":"0.0-6.0-142.0"},{"sim_score":2,"rt":3904,"stimulus":"[\"img/0866/0207e9a2-7dbb-40b5-9459-b472aaeceb2a.jpg\",\"img/0769/96556ef3-7fac-4c9d-8281-1cb0ea5081bc.jpg\"]","trial_type":"similarity","trial_index":149,"time_elapsed":876285,"internal_node_id":"0.0-6.0-143.0"},{"sim_score":5,"rt":3665,"stimulus":"[\"img/0860/61fb959d-d4d9-4de4-9e4e-4fa62b4cfcd5.jpg\",\"img/0898/0c7dde4f-efce-4b7a-9387-6921635b7890.jpg\"]","trial_type":"similarity","trial_index":150,"time_elapsed":880966,"internal_node_id":"0.0-6.0-144.0"},{"sim_score":5,"rt":5685,"stimulus":"[\"img/0766/79767d11-b612-4e8a-9e4b-a8ac95bb6a54.jpg\",\"img/0864/ea327690-500b-4137-bf91-451b309fe6a5.jpg\"]","trial_type":"similarity","trial_index":151,"time_elapsed":887662,"internal_node_id":"0.0-6.0-145.0"},{"sim_score":6,"rt":4307,"stimulus":"[\"img/0860/4f695df5-afac-4da7-9875-fee39b0b24ad.jpg\",\"img/0903/5248eedd-7e6a-4d39-91b0-06ec227f3ed0.jpg\"]","trial_type":"similarity","trial_index":152,"time_elapsed":892980,"internal_node_id":"0.0-6.0-146.0"},{"sim_score":2,"rt":3882,"stimulus":"[\"img/0867/c66898ba-b71b-4d50-84f9-f7f84853a98d.jpg\",\"img/0764/d7c215ab-ea9a-45be-8d5f-417d5b9a8a17.jpg\"]","trial_type":"similarity","trial_index":153,"time_elapsed":897870,"internal_node_id":"0.0-6.0-147.0"},{"sim_score":6,"rt":3605,"stimulus":"[\"img/0769/91acb237-65a3-4d0b-9748-af5c7b83d3c7.jpg\",\"img/0904/56e73f28-7e64-489b-a161-e6b1a063878d.jpg\"]","trial_type":"similarity","trial_index":154,"time_elapsed":902492,"internal_node_id":"0.0-6.0-148.0"},{"sim_score":5,"rt":5073,"stimulus":"[\"img/0764/4bec8d92-75aa-475a-954d-8215dbe538f5.jpg\",\"img/0901/a6c90438-fa7c-4418-ac7c-16c2e772dd98.jpg\"]","trial_type":"similarity","trial_index":155,"time_elapsed":908584,"internal_node_id":"0.0-6.0-149.0"},{"sim_score":6,"rt":4870,"stimulus":"[\"img/0904/4e58005d-a2ec-4aaa-b199-445343561396.jpg\",\"img/0899/51a7a498-98c7-42d7-bca8-bc2d8f0b5831.jpg\"]","trial_type":"similarity","trial_index":156,"time_elapsed":914460,"internal_node_id":"0.0-6.0-150.0"},{"sim_score":3,"rt":3151,"stimulus":"[\"img/0862/e0f1a4e9-e1b6-45f7-af67-89f334e6630d.jpg\",\"img/0867/12264664-1860-46df-8c21-162b9817cdda.jpg\"]","trial_type":"similarity","trial_index":157,"time_elapsed":918624,"internal_node_id":"0.0-6.0-151.0"},{"sim_score":7,"rt":4238,"stimulus":"[\"img/0766/71b81ebd-0937-4d7f-b8bf-c4e46a4728fd.jpg\",\"img/0766/db750ba0-ce04-46e1-b601-e1b80212bad2.jpg\"]","trial_type":"similarity","trial_index":158,"time_elapsed":923872,"internal_node_id":"0.0-6.0-152.0"},{"sim_score":5,"rt":4245,"stimulus":"[\"img/0862/92f0146c-20c4-482e-aef5-adb693790338.jpg\",\"img/0894/e6385e52-6c35-43bd-b0af-bc803d107b11.jpg\"]","trial_type":"similarity","trial_index":159,"time_elapsed":929122,"internal_node_id":"0.0-6.0-153.0"},{"sim_score":3,"rt":3372,"stimulus":"[\"img/0899/ddf96ade-692e-4602-bd22-dedbb46401bc.jpg\",\"img/0901/d4d09bf5-093e-4050-838e-7c738be8e63c.jpg\"]","trial_type":"similarity","trial_index":160,"time_elapsed":933514,"internal_node_id":"0.0-6.0-154.0"},{"sim_score":6,"rt":3505,"stimulus":"[\"img/0874/31e22c7c-99aa-40b1-bf03-dd73fa2df4d6.jpg\",\"img/0874/3ce41e7c-40c8-4d58-a546-171114521796.jpg\"]","trial_type":"similarity","trial_index":161,"time_elapsed":938029,"internal_node_id":"0.0-6.0-155.0"},{"sim_score":2,"rt":2745,"stimulus":"[\"img/0860/524b2e98-5767-4d53-942c-ebae6925659b.jpg\",\"img/0867/1719a35d-f085-48c0-9099-16c94fe418b4.jpg\"]","trial_type":"similarity","trial_index":162,"time_elapsed":941778,"internal_node_id":"0.0-6.0-156.0"},{"sim_score":3,"rt":4435,"stimulus":"[\"img/0901/1b86f2fc-7a1d-4aa8-9252-114f92edef3b.jpg\",\"img/0881/62a64f90-7a72-4aee-a1a1-0c548ac9bdda.jpg\"]","trial_type":"similarity","trial_index":163,"time_elapsed":947226,"internal_node_id":"0.0-6.0-157.0"},{"sim_score":6,"rt":3900,"stimulus":"[\"img/0903/71dbc325-b588-4297-a5cf-7f268a722ad9.jpg\",\"img/0902/d5e25767-e8ec-45f3-ac0a-7b4a6f7a9edc.jpg\"]","trial_type":"similarity","trial_index":164,"time_elapsed":952140,"internal_node_id":"0.0-6.0-158.0"},{"sim_score":1,"rt":4099,"stimulus":"[\"img/0860/94ef7afc-e0e6-4a15-98c6-0bfac82bc832.jpg\",\"img/0764/c0b03adb-bd0a-4b96-a915-a827c2fd5211.jpg\"]","trial_type":"similarity","trial_index":165,"time_elapsed":957250,"internal_node_id":"0.0-6.0-159.0"},{"sim_score":3,"rt":6574,"stimulus":"[\"img/0902/ca3160ba-ad5d-459f-a1b6-8b4f3c85ecd5.jpg\",\"img/0875/fb732ab5-013a-4366-9f65-27811ed157e9.jpg\"]","trial_type":"similarity","trial_index":166,"time_elapsed":964842,"internal_node_id":"0.0-6.0-160.0"},{"sim_score":5,"rt":3510,"stimulus":"[\"img/0898/cd3aaa3f-efa9-4ab3-8d6f-a6a9273ddf42.jpg\",\"img/0862/47ed5efd-4ec9-4b74-bb4e-a5f5cf0c3e7d.jpg\"]","trial_type":"similarity","trial_index":167,"time_elapsed":969355,"internal_node_id":"0.0-6.0-161.0"},{"sim_score":3,"rt":3535,"stimulus":"[\"img/0894/10f22b96-040c-44f4-950b-a4963f3f506c.jpg\",\"img/0875/cff79b3a-a797-4393-9757-6275f999ec04.jpg\"]","trial_type":"similarity","trial_index":168,"time_elapsed":973901,"internal_node_id":"0.0-6.0-162.0"},{"sim_score":2,"rt":3403,"stimulus":"[\"img/0866/be24ab58-230e-4db8-9f45-ff04c9aec6bb.jpg\",\"img/0864/1d15626a-2f7c-410f-819c-0fa2c967e95e.jpg\"]","trial_type":"similarity","trial_index":169,"time_elapsed":978307,"internal_node_id":"0.0-6.0-163.0"},{"sim_score":3,"rt":4765,"stimulus":"[\"img/0766/d919cedb-f9b7-4f30-83bb-3e9c65001ceb.jpg\",\"img/0862/4f0a3b4c-afbf-486e-b248-1d54982f54b4.jpg\"]","trial_type":"similarity","trial_index":170,"time_elapsed":984077,"internal_node_id":"0.0-6.0-164.0"},{"sim_score":1,"rt":4481,"stimulus":"[\"img/0866/11a1d141-be5e-443c-98c1-a9d4d9e3dec0.jpg\",\"img/0874/8cdb1c07-1c32-46d2-981c-3636560fa6e5.jpg\"]","trial_type":"similarity","trial_index":171,"time_elapsed":989571,"internal_node_id":"0.0-6.0-165.0"},{"sim_score":6,"rt":4287,"stimulus":"[\"img/0862/de9ad88c-b522-430a-8ee9-eb06a9f85df5.jpg\",\"img/0860/b03b963d-949b-4d8d-b19c-4950c89eeca2.jpg\"]","trial_type":"similarity","trial_index":172,"time_elapsed":994868,"internal_node_id":"0.0-6.0-166.0"},{"sim_score":2,"rt":3802,"stimulus":"[\"img/0766/00891401-e4c9-4ce1-bc19-f70740d174bc.jpg\",\"img/0901/d6d15b1c-4a30-4f74-a3fd-d4c8ee4169ca.jpg\"]","trial_type":"similarity","trial_index":173,"time_elapsed":1001607,"internal_node_id":"0.0-6.0-167.0"},{"sim_score":7,"rt":3949,"stimulus":"[\"img/0862/fb26cb07-d5a9-4653-813c-f41609f26cd5.jpg\",\"img/0862/064818ee-13d5-4618-bb24-21c7368ea278.jpg\"]","trial_type":"similarity","trial_index":174,"time_elapsed":1006565,"internal_node_id":"0.0-6.0-168.0"},{"sim_score":4,"rt":3909,"stimulus":"[\"img/0894/133a1636-d123-4893-873c-1718050f832a.jpg\",\"img/0764/f9f890e6-3c2f-40cd-84e9-85e0b54cb28e.jpg\"]","trial_type":"similarity","trial_index":175,"time_elapsed":1011479,"internal_node_id":"0.0-6.0-169.0"},{"sim_score":2,"rt":3666,"stimulus":"[\"img/0874/995f0332-0439-4eb4-add3-957335dbf6d9.jpg\",\"img/0898/661621d4-a14e-487c-8c74-354134a29710.jpg\"]","trial_type":"similarity","trial_index":176,"time_elapsed":1016161,"internal_node_id":"0.0-6.0-170.0"},{"sim_score":1,"rt":4530,"stimulus":"[\"img/0860/17b44a7d-c5ca-479f-9e87-f65a64f5c80e.jpg\",\"img/0766/dd3e18d0-0c98-4d05-b850-69976ee8cd75.jpg\"]","trial_type":"similarity","trial_index":177,"time_elapsed":1021709,"internal_node_id":"0.0-6.0-171.0"},{"sim_score":3,"rt":3795,"stimulus":"[\"img/0898/a114b375-cb89-44ba-9498-74213f1ecdee.jpg\",\"img/0864/5f74a653-3bdc-4308-8cca-ac667dc22e1f.jpg\"]","trial_type":"similarity","trial_index":178,"time_elapsed":1026521,"internal_node_id":"0.0-6.0-172.0"},{"sim_score":3,"rt":4188,"stimulus":"[\"img/0881/f62bdcd1-a4b7-4d48-83da-d9c9e01c8727.jpg\",\"img/0764/d0bef2e0-e16b-4c82-9451-c1d16265eb67.jpg\"]","trial_type":"similarity","trial_index":179,"time_elapsed":1031725,"internal_node_id":"0.0-6.0-173.0"},{"sim_score":2,"rt":5612,"stimulus":"[\"img/0898/04e39a7a-fcf6-4156-ab0e-f5871f335e1c.jpg\",\"img/0868/4a8a45ed-2c4f-421b-9564-409a33ecd26c.jpg\"]","trial_type":"similarity","trial_index":180,"time_elapsed":1038343,"internal_node_id":"0.0-6.0-174.0"},{"sim_score":7,"rt":3970,"stimulus":"[\"img/0864/f92649a2-0590-4d31-9a7a-1bfb81666a2d.jpg\",\"img/0864/c3b63e8f-ea39-4d70-a1f2-b3fe4be8eb75.jpg\"]","trial_type":"similarity","trial_index":181,"time_elapsed":1043325,"internal_node_id":"0.0-6.0-175.0"},{"sim_score":6,"rt":3740,"stimulus":"[\"img/0899/f58b8d2f-b19d-4b59-8b94-8834be92e4ba.jpg\",\"img/0862/24cdc752-c2e5-4a17-86a6-6f2045d8553b.jpg\"]","trial_type":"similarity","trial_index":182,"time_elapsed":1048069,"internal_node_id":"0.0-6.0-176.0"},{"sim_score":1,"rt":3818,"stimulus":"[\"img/0875/ebf7653f-ff45-4e9f-af58-2c042ab3cd2b.jpg\",\"img/0758/67c0be2f-9e91-48b3-8219-70ac0a1802fa.jpg\"]","trial_type":"similarity","trial_index":183,"time_elapsed":1052897,"internal_node_id":"0.0-6.0-177.0"},{"sim_score":1,"rt":4128,"stimulus":"[\"img/0866/a15b02be-11bb-43e3-b0e0-ecc3bd7dfc49.jpg\",\"img/0901/c6df1a21-44ed-47c2-960e-7c52220e329e.jpg\"]","trial_type":"similarity","trial_index":184,"time_elapsed":1058031,"internal_node_id":"0.0-6.0-178.0"},{"sim_score":5,"rt":4602,"stimulus":"[\"img/0769/c7cfacc3-7f07-46ff-9f5d-8073f4c4679b.jpg\",\"img/0874/1016b306-087c-4afc-aa08-fa527b28dc76.jpg\"]","trial_type":"similarity","trial_index":185,"time_elapsed":1063638,"internal_node_id":"0.0-6.0-179.0"},{"sim_score":1,"rt":4659,"stimulus":"[\"img/0875/42910c99-5463-450a-a0f8-d4d060a11455.jpg\",\"img/0881/e6746727-7f89-47ec-b939-d98abe78372d.jpg\"]","trial_type":"similarity","trial_index":186,"time_elapsed":1069317,"internal_node_id":"0.0-6.0-180.0"},{"sim_score":7,"rt":3134,"stimulus":"[\"img/0866/bf14b5bd-fb55-47db-86b9-4f8aeb9a6dad.jpg\",\"img/0868/fd307a36-9a3a-47d7-ab7c-f810d0b35040.jpg\"]","trial_type":"similarity","trial_index":187,"time_elapsed":1073465,"internal_node_id":"0.0-6.0-181.0"},{"sim_score":7,"rt":3640,"stimulus":"[\"img/0899/76ad07e2-ca25-45eb-84f2-8d80b8ca3e26.jpg\",\"img/0758/d41c06bf-ebaf-454b-91c6-1a17f917b659.jpg\"]","trial_type":"similarity","trial_index":188,"time_elapsed":1078109,"internal_node_id":"0.0-6.0-182.0"},{"sim_score":2,"rt":3285,"stimulus":"[\"img/0874/7e4f2150-3b59-4a36-b5da-a4e0ba410531.jpg\",\"img/0875/2c361b79-c3d1-4eda-812e-bf03192407bf.jpg\"]","trial_type":"similarity","trial_index":189,"time_elapsed":1082409,"internal_node_id":"0.0-6.0-183.0"},{"sim_score":4,"rt":3274,"stimulus":"[\"img/0904/09dac84f-3d1c-4445-a68e-d0389fdbf1e9.jpg\",\"img/0862/53a9cf7c-93c4-41b9-952f-07d17f7a17b2.jpg\"]","trial_type":"similarity","trial_index":190,"time_elapsed":1086701,"internal_node_id":"0.0-6.0-184.0"},{"sim_score":7,"rt":4247,"stimulus":"[\"img/0902/94ee9c53-a9a2-4f95-b9b7-794a5fc62bb6.jpg\",\"img/0766/d512b99c-a2dc-40d7-8e86-827323a0cbcf.jpg\"]","trial_type":"similarity","trial_index":191,"time_elapsed":1091956,"internal_node_id":"0.0-6.0-185.0"},{"sim_score":3,"rt":5528,"stimulus":"[\"img/0758/d57c2592-a317-4f63-91be-91a3a9afd222.jpg\",\"img/0769/3c1efec9-f8fd-487d-8955-4be88e48c832.jpg\"]","trial_type":"similarity","trial_index":192,"time_elapsed":1098499,"internal_node_id":"0.0-6.0-186.0"},{"sim_score":6,"rt":4085,"stimulus":"[\"img/0881/ee44e27f-d662-4608-b265-e7ffa19b216f.jpg\",\"img/0881/c24f3051-eefa-42de-aba6-fccb56d93c70.jpg\"]","trial_type":"similarity","trial_index":193,"time_elapsed":1103594,"internal_node_id":"0.0-6.0-187.0"},{"sim_score":4,"rt":3211,"stimulus":"[\"img/0758/eabcd7a8-56ad-4fd2-bc24-90f6b7b33265.jpg\",\"img/0866/07c9c966-3c8d-40e7-8128-92b2acbaed5d.jpg\"]","trial_type":"similarity","trial_index":194,"time_elapsed":1107811,"internal_node_id":"0.0-6.0-188.0"},{"sim_score":5,"rt":4015,"stimulus":"[\"img/0764/23ea9375-f801-4a96-9925-7d453da887c7.jpg\",\"img/0898/c3cecf20-f7fd-45fa-97d0-dc0a63e8d6c0.jpg\"]","trial_type":"similarity","trial_index":195,"time_elapsed":1112839,"internal_node_id":"0.0-6.0-189.0"},{"sim_score":5,"rt":3900,"stimulus":"[\"img/0903/5995f4a8-fa82-46f8-8760-fd7800a5ca34.jpg\",\"img/0901/62315ff5-ed95-46b4-b099-92552079659b.jpg\"]","trial_type":"similarity","trial_index":196,"time_elapsed":1117742,"internal_node_id":"0.0-6.0-190.0"},{"sim_score":6,"rt":3744,"stimulus":"[\"img/0902/44cd9b7e-fdfb-4f78-90de-8d4c9d279365.jpg\",\"img/0898/e167334e-cc1d-4986-b3b1-c7bc7da64baa.jpg\"]","trial_type":"similarity","trial_index":197,"time_elapsed":1122503,"internal_node_id":"0.0-6.0-191.0"},{"sim_score":4,"rt":3635,"stimulus":"[\"img/0864/1ebbc554-99fa-49f9-8799-317375a79820.jpg\",\"img/0901/5b97abf9-f0c8-4fd1-b921-36d574779078.jpg\"]","trial_type":"similarity","trial_index":198,"time_elapsed":1127154,"internal_node_id":"0.0-6.0-192.0"},{"sim_score":3,"rt":3485,"stimulus":"[\"img/0894/5f15154e-e72e-4ce5-aafb-bce6f0564006.jpg\",\"img/0881/4da99fdd-1f40-4bbb-8e21-8833eef313f5.jpg\"]","trial_type":"similarity","trial_index":199,"time_elapsed":1131647,"internal_node_id":"0.0-6.0-193.0"},{"sim_score":6,"rt":3940,"stimulus":"[\"img/0868/d6d1f30d-4323-435a-b194-7892521bc57e.jpg\",\"img/0868/6a28c3b0-3d76-498a-9fb7-ddafc665eca8.jpg\"]","trial_type":"similarity","trial_index":200,"time_elapsed":1136605,"internal_node_id":"0.0-6.0-194.0"},{"sim_score":6,"rt":3456,"stimulus":"[\"img/0899/06b0fc99-0581-461a-9913-d1a5a941ac61.jpg\",\"img/0764/da207710-e7e4-4f42-b2e6-99b5f357f433.jpg\"]","trial_type":"similarity","trial_index":201,"time_elapsed":1141072,"internal_node_id":"0.0-6.0-195.0"},{"sim_score":2,"rt":3782,"stimulus":"[\"img/0881/5fe04dd0-5c74-47b7-99c8-b068db9ca26a.jpg\",\"img/0904/5aec2708-cf14-4a58-aa30-9a8a61c1be0e.jpg\"]","trial_type":"similarity","trial_index":202,"time_elapsed":1145870,"internal_node_id":"0.0-6.0-196.0"},{"sim_score":5,"rt":3275,"stimulus":"[\"img/0864/e336a4c5-6648-4fd7-b2f6-93a3fb83f8c6.jpg\",\"img/0902/5b45a7a0-81c8-4a71-aaa2-2ce09adb5a29.jpg\"]","trial_type":"similarity","trial_index":203,"time_elapsed":1150148,"internal_node_id":"0.0-6.0-197.0"},{"sim_score":7,"rt":3404,"stimulus":"[\"img/0894/3adef67d-7676-4995-80b2-bb31b8aca3ef.jpg\",\"img/0904/1d10df11-b5c8-4370-9a6b-097a7f965895.jpg\"]","trial_type":"similarity","trial_index":204,"time_elapsed":1154570,"internal_node_id":"0.0-6.0-198.0"},{"sim_score":7,"rt":3099,"stimulus":"[\"img/0901/bc47e078-bda4-40ed-b89a-bbd819164b95.jpg\",\"img/0901/f469cb1d-6d81-4a45-bab5-cd0b650c2b4f.jpg\"]","trial_type":"similarity","trial_index":205,"time_elapsed":1158678,"internal_node_id":"0.0-6.0-199.0"},{"sim_score":6,"rt":3783,"stimulus":"[\"img/0894/a3d4170b-b7d8-40e3-955f-87e76ed745fc.jpg\",\"img/0860/8a92e21b-6a32-4e4a-a445-2d5a487ed0a4.jpg\"]","trial_type":"similarity","trial_index":206,"time_elapsed":1163476,"internal_node_id":"0.0-6.0-200.0"},{"sim_score":6,"rt":2867,"stimulus":"[\"img/0898/224c1572-56b9-4f16-a9e4-6f3bc9c114bd.jpg\",\"img/0903/f67c4ab9-f8c2-4fcd-848a-a54a7b031002.jpg\"]","trial_type":"similarity","trial_index":207,"time_elapsed":1167348,"internal_node_id":"0.0-6.0-201.0"},{"sim_score":3,"rt":3673,"stimulus":"[\"img/0864/300bb811-8b3c-4c42-8653-6097c3725197.jpg\",\"img/0894/e2446cf5-cd48-486a-badc-76498e087fbe.jpg\"]","trial_type":"similarity","trial_index":208,"time_elapsed":1172038,"internal_node_id":"0.0-6.0-202.0"},{"sim_score":2,"rt":3589,"stimulus":"[\"img/0874/29830da7-be5f-44e5-b141-652a0ccf7269.jpg\",\"img/0860/e8b8c51e-1834-4875-8b61-6c5bc9b178bd.jpg\"]","trial_type":"similarity","trial_index":209,"time_elapsed":1176636,"internal_node_id":"0.0-6.0-203.0"},{"sim_score":1,"rt":3839,"stimulus":"[\"img/0862/f43ceabf-acc1-4107-b857-5d1849808f93.jpg\",\"img/0875/2e13d160-eea1-416b-aff1-d37ab99ecc1d.jpg\"]","trial_type":"similarity","trial_index":210,"time_elapsed":1181480,"internal_node_id":"0.0-6.0-204.0"},{"sim_score":3,"rt":3768,"stimulus":"[\"img/0867/26611f4e-d694-4460-b7e2-43c62753ddc3.jpg\",\"img/0881/db77fe00-aeb0-4d1d-aa66-f3a96fd077e4.jpg\"]","trial_type":"similarity","trial_index":211,"time_elapsed":1186257,"internal_node_id":"0.0-6.0-205.0"},{"sim_score":5,"rt":2926,"stimulus":"[\"img/0901/875dedb9-24c9-4443-9f8c-85e97d70ee5a.jpg\",\"img/0902/40d0b6ec-3907-4573-b227-e7d8e9cad1c3.jpg\"]","trial_type":"similarity","trial_index":212,"time_elapsed":1190195,"internal_node_id":"0.0-6.0-206.0"},{"sim_score":5,"rt":3646,"stimulus":"[\"img/0899/f95cbdb4-f804-4f5d-ad76-373ad343e658.jpg\",\"img/0864/49150900-7f25-4ce8-8d10-9b47a71d1997.jpg\"]","trial_type":"similarity","trial_index":213,"time_elapsed":1194855,"internal_node_id":"0.0-6.0-207.0"},{"sim_score":4,"rt":2422,"stimulus":"[\"img/0901/7d4a3388-488d-4e9b-9d32-9d0def7aae8d.jpg\",\"img/0769/9ea9ceb6-049e-4ad9-be8f-00645cd35803.jpg\"]","trial_type":"similarity","trial_index":214,"time_elapsed":1198291,"internal_node_id":"0.0-6.0-208.0"},{"sim_score":6,"rt":2874,"stimulus":"[\"img/0902/24d10fe7-314f-4d5a-8c7b-b43121bba0a4.jpg\",\"img/0902/7499db23-3a41-41ea-ab5b-6ab4d4c3ed35.jpg\"]","trial_type":"similarity","trial_index":215,"time_elapsed":1213394,"internal_node_id":"0.0-6.0-209.0"},{"view_history":"[{\"page_index\":0,\"viewing_time\":8763}]","rt":8764,"trial_type":"instructions","trial_index":216,"time_elapsed":1223170,"internal_node_id":"0.0-7.0"},{"rt":30919,"responses":"{\"Q0\":\"Orange-crowned Warbler\"}","answer":["Nashville Warbler"],"trial_type":"image-multi-choice","trial_index":217,"time_elapsed":1255112,"internal_node_id":"0.0-8.0-0.0"},{"rt":8370,"responses":"{\"Q0\":\"Black-and-white Warbler\"}","answer":["Black-and-white Warbler"],"trial_type":"image-multi-choice","trial_index":218,"time_elapsed":1264503,"internal_node_id":"0.0-8.0-1.0"},{"rt":25605,"responses":"{\"Q0\":\"Blackburnian Warbler\"}","answer":["Townsend's Warbler"],"trial_type":"image-multi-choice","trial_index":219,"time_elapsed":1291120,"internal_node_id":"0.0-8.0-2.0"},{"rt":12837,"responses":"{\"Q0\":\"White-throated Sparrow\"}","answer":["Lark Sparrow"],"trial_type":"image-multi-choice","trial_index":220,"time_elapsed":1304979,"internal_node_id":"0.0-8.0-3.0"},{"rt":4677,"responses":"{\"Q0\":\"Yellow Warbler\"}","answer":["Yellow Warbler"],"trial_type":"image-multi-choice","trial_index":221,"time_elapsed":1310671,"internal_node_id":"0.0-8.0-4.0"},{"rt":24180,"responses":"{\"Q0\":\"Orange-crowned Warbler\"}","answer":["Orange-crowned Warbler"],"trial_type":"image-multi-choice","trial_index":222,"time_elapsed":1335875,"internal_node_id":"0.0-8.0-5.0"},{"rt":6277,"responses":"{\"Q0\":\"White-throated Sparrow\"}","answer":["White-throated Sparrow"],"trial_type":"image-multi-choice","trial_index":223,"time_elapsed":1343165,"internal_node_id":"0.0-8.0-6.0"},{"rt":6607,"responses":"{\"Q0\":\"Fox Sparrow\"}","answer":["Fox Sparrow"],"trial_type":"image-multi-choice","trial_index":224,"time_elapsed":1350792,"internal_node_id":"0.0-8.0-7.0"},{"rt":23946,"responses":"{\"Q0\":\"Lincoln's Sparrow\"}","answer":["Song Sparrow"],"trial_type":"image-multi-choice","trial_index":225,"time_elapsed":1375750,"internal_node_id":"0.0-8.0-8.0"},{"rt":16526,"responses":"{\"Q0\":\"Blackburnian Warbler\"}","answer":["Blackburnian Warbler"],"trial_type":"image-multi-choice","trial_index":226,"time_elapsed":1393293,"internal_node_id":"0.0-8.0-9.0"},{"rt":10331,"responses":"{\"Q0\":\"Song Sparrow\"}","answer":["Vesper Sparrow"],"trial_type":"image-multi-choice","trial_index":227,"time_elapsed":1404645,"internal_node_id":"0.0-8.0-10.0"},{"rt":5162,"responses":"{\"Q0\":\"White-crowned Sparrow\"}","answer":["White-crowned Sparrow"],"trial_type":"image-multi-choice","trial_index":228,"time_elapsed":1410827,"internal_node_id":"0.0-8.0-11.0"},{"rt":10006,"responses":"{\"Q0\":\"Lincoln's Sparrow\"}","answer":["American Tree Sparrow"],"trial_type":"image-multi-choice","trial_index":229,"time_elapsed":1421846,"internal_node_id":"0.0-8.0-12.0"},{"rt":12378,"responses":"{\"Q0\":\"Magnolia Warbler\"}","answer":["Tennessee Warbler"],"trial_type":"image-multi-choice","trial_index":230,"time_elapsed":1435237,"internal_node_id":"0.0-8.0-13.0"},{"rt":5535,"responses":"{\"Q0\":\"Blackburnian Warbler\"}","answer":["Magnolia Warbler"],"trial_type":"image-multi-choice","trial_index":231,"time_elapsed":1441787,"internal_node_id":"0.0-8.0-14.0"},{"rt":52784,"responses":"{\"Q0\":\"Northern Waterthrush\"}","answer":["Northern Waterthrush"],"trial_type":"image-multi-choice","trial_index":232,"time_elapsed":1495582,"internal_node_id":"0.0-8.0-15.0"},{"rt":21237,"responses":"{\"Q0\":\"Song Sparrow\"}","answer":["Chipping Sparrow"],"trial_type":"image-multi-choice","trial_index":233,"time_elapsed":1517838,"internal_node_id":"0.0-8.0-16.0"},{"rt":19767,"responses":"{\"Q0\":\"Lincoln's Sparrow\"}","answer":["Swamp Sparrow"],"trial_type":"image-multi-choice","trial_index":234,"time_elapsed":1538615,"internal_node_id":"0.0-8.0-17.0"},{"rt":44200,"responses":"{\"Q0\":\"Chipping Sparrow\"}","answer":["Lincoln's Sparrow"],"trial_type":"image-multi-choice","trial_index":235,"time_elapsed":1583829,"internal_node_id":"0.0-8.0-18.0"},{"rt":26840,"responses":"{\"Q0\":\"Ovenbird\"}","answer":["Ovenbird"],"trial_type":"image-multi-choice","trial_index":236,"time_elapsed":1611681,"internal_node_id":"0.0-8.0-19.0"}]