"view_history","rt","trial_type","trial_index","time_elapsed","internal_node_id","sim_score","stimulus","responses","answer"
"[{""page_index"":0,""viewing_time"":49967}]","49968","instructions","0","49970","0.0-0.0","","","",""
"","15545","similarity_demo","1","66525","0.0-1.0","5","[""img/866.jpg"",""img/868.jpg""]","",""
"[{""page_index"":0,""viewing_time"":20143}]","20143","instructions","2","87676","0.0-2.0","","","",""
"","4798","similarity_demo","3","93483","0.0-3.0","1","[""img/766.jpg"",""img/867.jpg""]","",""
"[{""page_index"":0,""viewing_time"":6537}]","6537","instructions","4","101032","0.0-4.0","","","",""
"[{""page_index"":0,""viewing_time"":22781}]","22781","instructions","5","124824","0.0-5.0","","","",""
"","5765","similarity","6","131595","0.0-6.0-0.0","2","[""img/0868/0d3abd3a-b6c3-4584-a9f7-e2da63748b3d.jpg"",""img/0901/d61f267a-c492-4db6-9bfb-61efd49cf072.jpg""]","",""
"","3908","similarity","7","136517","0.0-6.0-1.0","3","[""img/0769/9ea27d61-3d55-418c-8d14-82e90f656f01.jpg"",""img/0867/db7e032f-162b-46f5-ae67-2b29679adee4.jpg""]","",""
"","5262","similarity","8","142788","0.0-6.0-2.0","3","[""img/0766/ef3b15ce-abb7-4292-ad93-aec8e8b50520.jpg"",""img/0898/26c41340-15bd-4ead-8fe4-c0d0ddca09c2.jpg""]","",""
"","4585","similarity","9","148392","0.0-6.0-3.0","2","[""img/0902/6730b12a-f0a7-4587-8c10-a32fae16565b.jpg"",""img/0881/f4e3e181-b3c9-4af2-a5a4-fc135ab70d2e.jpg""]","",""
"","3455","similarity","10","152858","0.0-6.0-4.0","4","[""img/0894/2217bdcd-23a7-42d3-823b-23f2488d7e87.jpg"",""img/0894/767a0eec-1064-46b1-b1aa-dfa02b0cd74e.jpg""]","",""
"","3992","similarity","11","157864","0.0-6.0-5.0","2","[""img/0874/a82926a3-0b43-4add-803c-d5f9ea7798ee.jpg"",""img/0899/9de5e857-aa9a-4e0c-8ba2-46d79bd069a4.jpg""]","",""
"","3842","similarity","12","162712","0.0-6.0-6.0","3","[""img/0904/2fd488e9-960f-41f7-8a44-33375f7d5051.jpg"",""img/0764/ba0c0955-acbb-457d-b1c2-f006b88121d5.jpg""]","",""
"","3649","similarity","13","167368","0.0-6.0-7.0","3","[""img/0899/00715b3f-851b-420b-a26b-d7f79f7759a9.jpg"",""img/0898/5f699581-3853-4547-856c-12f419ba5af7.jpg""]","",""
"","3743","similarity","14","172122","0.0-6.0-8.0","4","[""img/0874/adf9a8f1-c40b-402b-b95b-1e85a54a7b62.jpg"",""img/0903/d987e220-f3e6-4b6d-a270-fe6757041f6d.jpg""]","",""
"","2622","similarity","15","175752","0.0-6.0-9.0","4","[""img/0881/b1a136f7-8511-4d3a-a0f6-3879acf1e1a1.jpg"",""img/0758/7ee8bc8f-c40b-4b3a-84ec-3e83580622d4.jpg""]","",""
"","5942","similarity","16","182711","0.0-6.0-10.0","5","[""img/0898/8605a25b-6895-476d-8c13-df7a83f96093.jpg"",""img/0901/4d1bed7e-3c4e-4f6c-ada9-4beb66ba9e39.jpg""]","",""
"","4462","similarity","17","188192","0.0-6.0-11.0","5","[""img/0903/6f343da5-00d9-4d50-89d1-2ed24cdb8319.jpg"",""img/0769/0fe124d3-bcad-45f6-b64d-8f6eb8ee5251.jpg""]","",""
"","6168","similarity","18","195366","0.0-6.0-12.0","1","[""img/0764/5c8fbafc-e62e-43ed-9b37-f73e8e45147d.jpg"",""img/0868/5fa7f9d0-f0e5-454c-8224-74d964818f56.jpg""]","",""
"","3144","similarity","19","199516","0.0-6.0-13.0","2","[""img/0867/179ab87a-8eac-4c52-a41f-2e48e3120f09.jpg"",""img/0903/b0a3c45f-467e-412f-a183-c9c1827f2e63.jpg""]","",""
"","4326","similarity","20","204854","0.0-6.0-14.0","2","[""img/0766/717fd72f-a281-499b-a5ba-5e2ecc4d4866.jpg"",""img/0758/6cd8c362-ae2a-41eb-80a3-3a4f7ace1530.jpg""]","",""
"","4653","similarity","21","210512","0.0-6.0-15.0","5","[""img/0902/af45fe42-178c-4c1a-99ef-256e87e3b092.jpg"",""img/0860/87039971-2210-4aab-93c0-8e9b5f1655b2.jpg""]","",""
"","5695","similarity","22","217212","0.0-6.0-16.0","3","[""img/0769/3adfa417-3b90-4aab-b437-5eaa474189cb.jpg"",""img/0875/03c3c331-738b-4446-af92-3d7386b08c2e.jpg""]","",""
"","3916","similarity","23","222134","0.0-6.0-17.0","2","[""img/0904/fe746a3f-8458-48d0-8a13-8cba2a9df9f8.jpg"",""img/0866/9b38d691-1802-4959-ab3f-fc902f0e4ea6.jpg""]","",""
"","4396","similarity","24","227548","0.0-6.0-18.0","5","[""img/0875/90da8d75-108a-44ad-b999-e21fee3860d3.jpg"",""img/0875/527ced51-8e53-4aab-ab05-86df219104c0.jpg""]","",""
"","3353","similarity","25","231920","0.0-6.0-19.0","5","[""img/0758/2fa3e613-e676-4e6e-bd12-705327eeb3e1.jpg"",""img/0758/f61ecdf8-a7d4-4db0-b84d-be46f7cfaffc.jpg""]","",""
"","4271","similarity","26","237210","0.0-6.0-20.0","3","[""img/0902/cdec1bc6-7f90-4f72-9e01-f5a4111bac1d.jpg"",""img/0874/ca76a855-4e77-4f2f-872a-0a718153e7ed.jpg""]","",""
"","3613","similarity","27","241834","0.0-6.0-21.0","4","[""img/0764/6fbd1902-fa2a-48d8-bc11-705b8ab68d8f.jpg"",""img/0769/8056889f-2b14-4782-bb25-b4e8896ab65b.jpg""]","",""
"","3635","similarity","28","246473","0.0-6.0-22.0","3","[""img/0901/0f670aef-ac36-496d-8142-ee5fdb21dd82.jpg"",""img/0874/3f471690-9788-4d03-90c7-f615aecef149.jpg""]","",""
"","3434","similarity","29","250921","0.0-6.0-23.0","2","[""img/0875/5a7c4e35-6514-4e12-8879-d16071da4cd6.jpg"",""img/0903/a0673b55-6040-47fe-9040-24bca27ca3c9.jpg""]","",""
"","5950","similarity","30","257882","0.0-6.0-24.0","4","[""img/0769/f73c5138-2f4c-4354-981c-129dff9cc734.jpg"",""img/0881/7e822106-76f7-4b10-a805-14dc68b2cfaf.jpg""]","",""
"","3785","similarity","31","262681","0.0-6.0-25.0","3","[""img/0867/98d8cd96-1476-4fe0-a3a3-04f875500a1b.jpg"",""img/0904/2f88ce53-02d0-4f95-a082-182c56a0eeb4.jpg""]","",""
"","5110","similarity","32","268797","0.0-6.0-26.0","2","[""img/0860/d9a0d117-6d1d-41c0-8fec-9aff0fd9e9f2.jpg"",""img/0881/f7a8cc63-8842-40a4-9ff8-fe530310d62c.jpg""]","",""
"","3251","similarity","33","273064","0.0-6.0-27.0","6","[""img/0866/c446214b-a368-4c65-ae39-ea46894256ab.jpg"",""img/0866/4a87911a-d5be-4d4e-ab8e-3d1f581bf507.jpg""]","",""
"","3863","similarity","34","277931","0.0-6.0-28.0","3","[""img/0764/6ef77040-1fae-4afa-bfe7-eda98e6d0376.jpg"",""img/0862/ee3b7bff-4a70-4e84-9bea-4a565e456acb.jpg""]","",""
"","3495","similarity","35","282442","0.0-6.0-29.0","4","[""img/0904/96e503ea-6630-4996-85f2-0237688ce441.jpg"",""img/0758/7fba58df-2a7a-4b76-8a8f-62739f97f271.jpg""]","",""
"","6394","similarity","36","289853","0.0-6.0-30.0","3","[""img/0894/8cadb87a-7001-4e47-99fb-1867bebf1668.jpg"",""img/0899/fef567a2-c121-4481-9af0-ff108d199bbf.jpg""]","",""
"","3114","similarity","37","293969","0.0-6.0-31.0","4","[""img/0860/29a21a9f-54bb-4093-ad3f-04823ceaa89f.jpg"",""img/0904/4b8daf2a-13a9-4ea9-9e0b-b265b6e933e7.jpg""]","",""
"","3783","similarity","38","298755","0.0-6.0-32.0","6","[""img/0874/767f289c-9814-4496-803f-745cc8913d1f.jpg"",""img/0881/633c6f40-56d9-4b48-bf1c-ecd83116eabb.jpg""]","",""
"","6420","similarity","39","306195","0.0-6.0-33.0","5","[""img/0881/48ed65a5-471f-41af-86ec-3793805c116d.jpg"",""img/0899/4f7bc593-8ddd-4da3-a0b9-84da730d3370.jpg""]","",""
"","3285","similarity","40","310491","0.0-6.0-34.0","2","[""img/0866/f756f7d1-9ad8-4a34-9ef6-7a443d705bfe.jpg"",""img/0862/57b6f83f-c763-4858-830d-102f97bfefbf.jpg""]","",""
"","3473","similarity","41","314969","0.0-6.0-35.0","2","[""img/0868/179a5502-ab5c-478e-8263-5a1fbcc101d2.jpg"",""img/0894/792c83e9-a747-4000-bc72-5663d2439edb.jpg""]","",""
"","3196","similarity","42","319171","0.0-6.0-36.0","5","[""img/0860/c5ccd1a4-4bb7-48e1-9b25-72cfaf06909b.jpg"",""img/0860/e14d67c1-6d92-4f1e-9257-c8607159c19c.jpg""]","",""
"","3417","similarity","43","323605","0.0-6.0-37.0","5","[""img/0862/cdaed51d-9e2f-4807-801a-4663c40077e2.jpg"",""img/0864/da39ad34-04e0-40d4-a724-c08d53e0ea09.jpg""]","",""
"","4023","similarity","44","328633","0.0-6.0-38.0","2","[""img/0766/33519c22-aaa4-49d7-8d49-ab551db1945e.jpg"",""img/0866/8efcaa46-83ab-4dee-a35f-850402aa21ae.jpg""]","",""
"","3991","similarity","45","333633","0.0-6.0-39.0","1","[""img/0875/e7e66b13-b573-431e-b85e-288ce04a35a3.jpg"",""img/0898/a8f16b02-e19f-423b-86c3-a36562ae1f9b.jpg""]","",""
"","4688","similarity","46","339327","0.0-6.0-40.0","6","[""img/0766/0025de5e-f620-4079-8a0f-00326ff3a6b0.jpg"",""img/0769/47700831-0ca2-4fdd-a498-a3bc5a528f43.jpg""]","",""
"","4913","similarity","47","368607","0.0-6.0-41.0","4","[""img/0874/bf14b896-e930-4fd9-9c05-2e83317a2773.jpg"",""img/0764/b8e23f4f-ff19-4472-ad9b-2f85548ebca0.jpg""]","",""
"","4365","similarity","48","373991","0.0-6.0-42.0","1","[""img/0868/3a62db2d-97e9-44a3-b8e3-a48c6f0e423b.jpg"",""img/0902/0db94c50-f1fb-4091-953c-29ca0466bee2.jpg""]","",""
"","4131","similarity","49","379141","0.0-6.0-43.0","2","[""img/0875/5a1e5100-0d94-4fec-bbe9-ca9894d2cf8e.jpg"",""img/0899/8abe6c69-822c-436c-9bf2-96c818b49ba5.jpg""]","",""
"","5349","similarity","50","385494","0.0-6.0-44.0","2","[""img/0866/93a27239-8317-4e08-98ca-d8b1ff298e07.jpg"",""img/0860/f44ba3fb-03a2-42f0-8509-2c1ded493086.jpg""]","",""
"","4006","similarity","51","390509","0.0-6.0-45.0","6","[""img/0766/5d1b8041-c5a1-4b02-b4fe-3453d98a0d72.jpg"",""img/0903/4cbdc464-e562-4ec2-9bb6-15f894fdf528.jpg""]","",""
"","4237","similarity","52","395753","0.0-6.0-46.0","5","[""img/0901/77087ed2-6e12-4329-b2a5-605bca6d972d.jpg"",""img/0904/2c98dc56-88d1-4fb5-a999-b6a7861f65f0.jpg""]","",""
"","5308","similarity","53","402066","0.0-6.0-47.0","3","[""img/0758/3ddd05d3-557e-4ee7-8b78-9d2d681d8ae2.jpg"",""img/0902/aa6fca32-82b0-4414-b20a-8f6f8aa5a2d2.jpg""]","",""
"","4168","similarity","54","407242","0.0-6.0-48.0","7","[""img/0764/ec2dd087-c471-4370-b570-95a542506a96.jpg"",""img/0764/f713847b-4832-42d1-8fb3-e17e37fd745c.jpg""]","",""
"","6418","similarity","55","414674","0.0-6.0-49.0","5","[""img/0866/23a224f3-2012-4fc8-8e0f-3c36f8de27fd.jpg"",""img/0902/794606a0-d8a8-4e58-8bf8-9d114ed5a548.jpg""]","",""
"","3557","similarity","56","419244","0.0-6.0-50.0","4","[""img/0764/713cc27e-2338-4486-bfe9-5f5725fbd7a0.jpg"",""img/0758/20497cbe-ddae-489e-86e2-ab06985ed07c.jpg""]","",""
"","4293","similarity","57","424548","0.0-6.0-51.0","5","[""img/0898/82231d4c-218b-4d0a-b50d-35a49b524e97.jpg"",""img/0894/2d2db7b3-e8a3-499b-b63a-14f51bf73882.jpg""]","",""
"","3293","similarity","58","428858","0.0-6.0-52.0","4","[""img/0875/8521fd58-3b1e-4dc5-97ae-804edfa6734a.jpg"",""img/0866/386235d2-6857-41e7-88a8-25cfc3430025.jpg""]","",""
"","4316","similarity","59","434178","0.0-6.0-53.0","7","[""img/0904/73920552-103b-4c9c-9ece-e0b8376b4504.jpg"",""img/0904/b5855d6a-7ef9-46ca-9215-6e9fa046e543.jpg""]","",""
"","3882","similarity","60","439077","0.0-6.0-54.0","7","[""img/0769/38a88f69-28fd-4bbd-99f0-f4c02bfd3995.jpg"",""img/0769/387a9744-d6a7-42b8-bab8-33007ec434aa.jpg""]","",""
"","4002","similarity","61","444082","0.0-6.0-55.0","5","[""img/0898/68476bbb-34a1-42d9-8bc1-deab783d4489.jpg"",""img/0758/ddc336e9-a8b6-4bb9-937a-c7e25e0e9250.jpg""]","",""
"","3191","similarity","62","448284","0.0-6.0-56.0","6","[""img/0769/878531fd-e0e8-4ad1-b9ad-f018bb104ca0.jpg"",""img/0902/b03fee99-d5ca-4bf8-871c-a4a743a39842.jpg""]","",""
"","3367","similarity","63","452670","0.0-6.0-57.0","5","[""img/0864/efcfbb1b-8197-44c9-b723-40d6c608dd3c.jpg"",""img/0881/4bd34581-94d8-4e88-8c89-5cef864ca3be.jpg""]","",""
"","3106","similarity","64","456780","0.0-6.0-58.0","2","[""img/0758/e1ba5e53-addc-436a-b428-d34fc1b130dc.jpg"",""img/0868/09a9ef4d-d000-4cfa-a6aa-ebec7c2edeb4.jpg""]","",""
"","3182","similarity","65","460968","0.0-6.0-59.0","7","[""img/0862/847e5208-38ec-4f36-949c-296cdd7424ee.jpg"",""img/0769/f2740c58-7c02-433f-920b-746b0b75435b.jpg""]","",""
"","4279","similarity","66","466264","0.0-6.0-60.0","5","[""img/0764/fb7d4a20-a475-465e-a74f-aa39a0d33d16.jpg"",""img/0903/8f7f9939-b8e6-433f-93dd-b362496c80a7.jpg""]","",""
"","3579","similarity","67","470856","0.0-6.0-61.0","6","[""img/0899/0433d056-aa30-4f8a-9aa1-abbb951e4edd.jpg"",""img/0899/66bf4113-ee12-426c-84d2-ea410b6c803e.jpg""]","",""
"","3375","similarity","68","475242","0.0-6.0-62.0","1","[""img/0860/15b24a61-25be-4356-9eac-5ce95d0cb4a4.jpg"",""img/0875/99698b4d-b4a1-44bc-8c83-8ea755bbbf61.jpg""]","",""
"","2868","similarity","69","479114","0.0-6.0-63.0","1","[""img/0868/83b4350a-3b70-4cea-b7f5-b5b56f3050a8.jpg"",""img/0874/99f6563c-8a8d-4c1c-a41d-667b618c3fd5.jpg""]","",""
"","6018","similarity","70","486140","0.0-6.0-64.0","3","[""img/0758/7ffbc76b-1fc1-432c-8f7e-9ec8d1b3f643.jpg"",""img/0862/a0a3a7ba-7798-46a3-b4ca-05e1f6e581d0.jpg""]","",""
"","3282","similarity","71","490427","0.0-6.0-65.0","5","[""img/0904/6291eb43-c10c-4810-a36a-101d09868b04.jpg"",""img/0898/b2732712-71c2-45d8-834f-2b2ed5504910.jpg""]","",""
"","3013","similarity","72","494446","0.0-6.0-66.0","2","[""img/0881/14236cf2-6b95-48b8-9368-78af09d2d27f.jpg"",""img/0866/d493a2c8-66eb-44b4-be02-2f327b700b7c.jpg""]","",""
"","3055","similarity","73","498509","0.0-6.0-67.0","3","[""img/0867/a749dddb-69f0-44a6-acdc-2bf295cf6dcc.jpg"",""img/0898/ec565187-2e31-4fdd-9a5c-153d0c789ae0.jpg""]","",""
"","3964","similarity","74","503483","0.0-6.0-68.0","6","[""img/0902/31abfa33-7cdb-44ad-968e-9f7b324d577a.jpg"",""img/0764/e0788029-9d7f-414c-b747-46d2a99f7c86.jpg""]","",""
"","3151","similarity","75","507640","0.0-6.0-69.0","7","[""img/0875/5a716432-c6ca-4b1c-955a-2b8ac25198ee.jpg"",""img/0867/5e07b34d-b40f-4b1c-ac10-49975bace45f.jpg""]","",""
"","4635","similarity","76","513289","0.0-6.0-70.0","6","[""img/0766/535849cc-ff5d-4df9-8f31-0ce94a97d571.jpg"",""img/0764/978aede9-4590-4ad0-b234-135c83e5d669.jpg""]","",""
"","4008","similarity","77","518302","0.0-6.0-71.0","5","[""img/0894/3664e04c-c6d3-4c9b-afb6-25d89974b174.jpg"",""img/0867/6e19c858-b606-45b2-a4c6-910a73f1d82c.jpg""]","",""
"","4730","similarity","78","524043","0.0-6.0-72.0","2","[""img/0875/34132396-d896-4c2d-8087-646dd867e769.jpg"",""img/0764/a86eed5b-d0af-4c3f-8c7a-26e98e98cf1a.jpg""]","",""
"","3480","similarity","79","528526","0.0-6.0-73.0","5","[""img/0867/50a1b60e-3a29-44bf-b606-d4bd3746fea9.jpg"",""img/0866/02f5e6b9-52b7-448c-9708-5b460d0c9a23.jpg""]","",""
"","5624","similarity","80","535163","0.0-6.0-74.0","3","[""img/0903/24477210-856c-4550-9de0-9f85a32762eb.jpg"",""img/0758/65d426d6-3ff6-415d-8654-a43b83ecc4fe.jpg""]","",""
"","4119","similarity","81","540292","0.0-6.0-75.0","1","[""img/0766/09f646c8-a69e-4ed3-879c-8d29b04ad7f9.jpg"",""img/0868/d98ca254-b195-477f-b57e-5760a2717db8.jpg""]","",""
"","4728","similarity","82","546024","0.0-6.0-76.0","5","[""img/0874/a3bc679d-619f-4db6-bb68-116dcb757d9c.jpg"",""img/0766/fd064894-7147-4af5-97e9-2089d5472656.jpg""]","",""
"","3591","similarity","83","550624","0.0-6.0-77.0","1","[""img/0881/44e09805-5a25-4f17-a716-4ad4a331b174.jpg"",""img/0868/8b0b8473-e2c0-4331-aa56-c3a5c29369da.jpg""]","",""
"","3755","similarity","84","555384","0.0-6.0-78.0","5","[""img/0758/61d64021-9214-4951-bdf8-f871f9827cf9.jpg"",""img/0901/ae1e6ce4-2e10-4ca9-b1e7-21628637ab74.jpg""]","",""
"","1906","similarity","85","558303","0.0-6.0-79.0","4","[""img/0881/2a8413be-fec2-4de6-88ad-614dd4cccc9d.jpg"",""img/0898/40f99fb2-64d2-4e72-8a7f-a1cf60741e69.jpg""]","",""
"","5248","similarity","86","564570","0.0-6.0-80.0","2","[""img/0867/f8159067-056c-41f1-a136-c529fe5e970a.jpg"",""img/0758/a085b443-b5d7-4cb2-9ad4-b9dab0fc23f1.jpg""]","",""
"","2835","similarity","87","568420","0.0-6.0-81.0","6","[""img/0769/4a1d0b52-3fe8-40fb-bb1c-c814fe49a68c.jpg"",""img/0899/d60714ae-98d7-4564-8c98-94dba1351135.jpg""]","",""
"","3296","similarity","88","572730","0.0-6.0-82.0","7","[""img/0903/39365c8e-a733-4801-ac7d-b87e38c3784b.jpg"",""img/0903/b548d383-2a95-4575-8c13-647873751ff1.jpg""]","",""
"","3848","similarity","89","584615","0.0-6.0-83.0","1","[""img/0867/aa05d113-fc19-4756-a8eb-7878f580bc92.jpg"",""img/0766/d5d38751-8fa5-476f-93e9-86ed2d9045ef.jpg""]","",""
"","7538","similarity","90","593159","0.0-6.0-84.0","3","[""img/0902/12452bb1-b8c0-4e4d-ad4d-47e279e5933c.jpg"",""img/0867/2e1a0b58-cdb1-4107-a14e-452530d7b9b0.jpg""]","",""
"","3853","similarity","91","598018","0.0-6.0-85.0","1","[""img/0901/da4fe30f-d12a-491e-96a2-5ab8ebaadd09.jpg"",""img/0875/3ecb367d-e9eb-4826-8aaa-7aa72fb98019.jpg""]","",""
"","3990","similarity","92","603015","0.0-6.0-86.0","2","[""img/0764/c01e2d65-6586-441b-bef5-3c96fcd85380.jpg"",""img/0866/945c6710-d15b-4a5b-a8f6-69af0850357f.jpg""]","",""
"","4460","similarity","93","608487","0.0-6.0-87.0","3","[""img/0901/3db47171-0139-4235-82cd-0b1787b6775f.jpg"",""img/0894/492d2f29-d7b9-4422-8be8-47fd58bfaa8b.jpg""]","",""
"","6942","similarity","94","616447","0.0-6.0-88.0","5","[""img/0898/881e2a85-d5c2-49be-a0c6-8a6ce2c4af08.jpg"",""img/0769/8c7cf147-1780-4d5c-8ddf-5ea23ff03ac9.jpg""]","",""
"","4674","similarity","95","622125","0.0-6.0-89.0","7","[""img/0769/76eaa4a3-dfe9-4dc1-9efb-caebe86264e1.jpg"",""img/0894/b422d5c6-3c5a-49ae-a53e-7e88ac993f49.jpg""]","",""
"","3164","similarity","96","626295","0.0-6.0-90.0","6","[""img/0862/e697469a-ec19-4414-b972-7b9f3564785b.jpg"",""img/0874/eba003b4-cdab-4eee-8bc3-f064c7d94165.jpg""]","",""
"","2657","similarity","97","629970","0.0-6.0-91.0","5","[""img/0894/c505c65a-cde2-4f2c-8cde-f8676f7c894d.jpg"",""img/0766/60033a74-9919-47e5-913c-71d0d483e7e5.jpg""]","",""
"","2842","similarity","98","633827","0.0-6.0-92.0","2","[""img/0874/2c9464dd-8a23-4baa-ac94-1ba3af5c15cc.jpg"",""img/0867/f26f6b60-f772-4f4c-95a4-addc62cfd692.jpg""]","",""
"","2538","similarity","99","637371","0.0-6.0-93.0","1","[""img/0899/0e1d936a-dbe2-4afc-9f19-7b7a1ae6c9ed.jpg"",""img/0868/c8ac40c7-6904-4e13-8d61-c75d3052dc4e.jpg""]","",""
"","3100","similarity","100","641481","0.0-6.0-94.0","7","[""img/0903/14f179a2-8786-48a2-8377-88d1d404341b.jpg"",""img/0862/5d887e9f-89e2-4ebc-80a0-6d46fe6480db.jpg""]","",""
"","3259","similarity","101","645751","0.0-6.0-95.0","6","[""img/0899/93494f3b-d539-4075-b027-d82e344563da.jpg"",""img/0766/b84598d0-5b41-4841-88b0-b441b48289f5.jpg""]","",""
"","3536","similarity","102","650298","0.0-6.0-96.0","1","[""img/0867/cc72ed48-7704-422c-86d6-467a1145287a.jpg"",""img/0868/4bd5105a-d2c3-4f82-8c80-57196106ba53.jpg""]","",""
"","2565","similarity","103","653881","0.0-6.0-97.0","2","[""img/0862/fad1d7c1-8187-43c3-942a-0fc12183e48e.jpg"",""img/0901/deff6cfb-0072-4490-bc3e-206bbcd3e8bf.jpg""]","",""
"","2821","similarity","104","657715","0.0-6.0-98.0","2","[""img/0875/f87b67d7-c33e-40d1-b281-248c4be1cb6e.jpg"",""img/0766/75c3d627-4f3b-40d5-9d9c-10c8a62db644.jpg""]","",""
"","3314","similarity","105","662038","0.0-6.0-99.0","6","[""img/0758/335851a0-a55b-46d8-ab05-8463eda48349.jpg"",""img/0874/93d1f8dc-acf2-4f03-bd8d-8ec35df276ed.jpg""]","",""
"","2576","similarity","106","665620","0.0-6.0-100.0","4","[""img/0904/da170c1b-9651-4f08-b231-2bdd1d9a046f.jpg"",""img/0868/293079b8-7e0c-4afd-a390-1e5d35fe3ded.jpg""]","",""
"","4300","similarity","107","670924","0.0-6.0-101.0","3","[""img/0903/6b5dcc60-3ad3-4962-93e5-e6cf768477af.jpg"",""img/0866/6f2a90d7-14f1-4f1b-bd64-fc0af6b9fe44.jpg""]","",""
"","3700","similarity","108","675639","0.0-6.0-102.0","2","[""img/0868/15dd6fd7-791e-4b53-b203-195d617521a4.jpg"",""img/0769/1afb527f-9887-428c-bd26-a12c2f9efb68.jpg""]","",""
"","2958","similarity","109","679602","0.0-6.0-103.0","7","[""img/0902/27b84584-948a-485b-8749-cb09929ef631.jpg"",""img/0899/56a605c3-d0a2-4215-89e1-779279d85a7c.jpg""]","",""
"","3544","similarity","110","684156","0.0-6.0-104.0","2","[""img/0868/e0aff734-077f-40dd-9781-74821abd3621.jpg"",""img/0862/99a99e39-8355-44ec-b993-e7bcec111e1c.jpg""]","",""
"","9127","similarity","111","694288","0.0-6.0-105.0","6","[""img/0903/b7e3723f-fd03-4f3d-8820-f19496463a34.jpg"",""img/0894/5ff3c4f6-52e2-4075-8679-be0312e59703.jpg""]","",""
"","4142","similarity","112","699446","0.0-6.0-106.0","5","[""img/0864/3651d070-2fc5-4848-b6a6-088a2d9ac5c9.jpg"",""img/0874/c0378dac-9370-439a-8b79-db27c96fb390.jpg""]","",""
"","3149","similarity","113","703602","0.0-6.0-107.0","7","[""img/0862/92fcd8a4-8193-4a6a-ae09-dd4a6338b0df.jpg"",""img/0902/b03129ba-b087-4558-af37-e8399d6217d6.jpg""]","",""
"","3334","similarity","114","707954","0.0-6.0-108.0","6","[""img/0904/09934646-45d2-4147-8fec-64a22a5ac822.jpg"",""img/0903/6138142e-c84e-45fc-9487-c974f3d4968a.jpg""]","",""
"","3077","similarity","115","712034","0.0-6.0-109.0","5","[""img/0764/f2f23359-8e82-41d3-8900-5b9f4433991d.jpg"",""img/0864/a248adb3-c70b-4652-b7a3-776d2a1e904b.jpg""]","",""
"","2393","similarity","116","715441","0.0-6.0-110.0","4","[""img/0866/620cd1aa-0800-4414-8f6e-90342e7a99ad.jpg"",""img/0894/11674fa4-285d-44e2-939f-2228c6a64080.jpg""]","",""
"","4388","similarity","117","720834","0.0-6.0-111.0","5","[""img/0899/66ab3178-c3fe-4455-ad17-d5952b08e018.jpg"",""img/0903/0a92ec52-4e87-410a-857a-4455cde56a70.jpg""]","",""
"","3237","similarity","118","725075","0.0-6.0-112.0","3","[""img/0902/22ed3536-288b-452e-9777-0fa0ab94deb0.jpg"",""img/0904/e9423a8c-f946-43ad-ab7b-931acef870e2.jpg""]","",""
"","2799","similarity","119","728878","0.0-6.0-113.0","7","[""img/0864/9b2490c5-a282-400a-9736-e1a0ecbf1cb7.jpg"",""img/0860/9593362c-9fe5-4d12-9735-6000a11f6aa5.jpg""]","",""
"","3362","similarity","120","733254","0.0-6.0-114.0","6","[""img/0860/31ff6436-98bf-4652-bed2-40f627229568.jpg"",""img/0899/ad8268c5-8199-48d0-ad70-c5b6d6c599ec.jpg""]","",""
"","3735","similarity","121","738007","0.0-6.0-115.0","4","[""img/0881/84397291-bc14-4fbf-90e8-241e486ab0fe.jpg"",""img/0903/36e4ab1f-caa9-40b3-8616-faada076df94.jpg""]","",""
"","3660","similarity","122","742674","0.0-6.0-116.0","3","[""img/0894/43216a7f-27bc-4b5a-8841-d122a30da9d9.jpg"",""img/0874/85eb9b8a-c4c6-4e5a-b8e7-363a87a82054.jpg""]","",""
"","2929","similarity","123","746623","0.0-6.0-117.0","6","[""img/0881/c843e210-bdfe-4a7c-8bbe-fcea1f90fe1c.jpg"",""img/0862/00c06b00-3b73-44e9-bc1e-c5aafb438321.jpg""]","",""
"","3740","similarity","124","751366","0.0-6.0-118.0","3","[""img/0868/4e626425-63c8-484a-8a1d-e66ee4e0bef8.jpg"",""img/0875/a4935837-7d3c-4df6-88c1-36a94d4991ca.jpg""]","",""
"","3645","similarity","125","756027","0.0-6.0-119.0","5","[""img/0860/99c589b9-9140-4d17-90c0-b344323edcda.jpg"",""img/0758/6e95579b-5166-487c-b8cb-e417c6a218e3.jpg""]","",""
"","3025","similarity","126","760061","0.0-6.0-120.0","4","[""img/0864/c22faebd-9c53-47bc-ada3-b9a30c688e75.jpg"",""img/0875/dbdd643e-6d0e-4a5c-ab57-b9c29b9c981a.jpg""]","",""
"","3799","similarity","127","764875","0.0-6.0-121.0","3","[""img/0898/993d8f2d-bef7-4251-a193-0f93a32b7763.jpg"",""img/0866/d266fece-59b3-46fa-b69f-96f6efb81b59.jpg""]","",""
"","2810","similarity","128","768701","0.0-6.0-122.0","5","[""img/0874/ca23d307-fc00-4d7d-9106-584c6eb21b4d.jpg"",""img/0904/b7c2a2c8-df33-4473-b3d4-ff7147c60db3.jpg""]","",""
"","4683","similarity","129","774401","0.0-6.0-123.0","3","[""img/0904/06dacdc5-2206-4fb8-92b7-88042d22833c.jpg"",""img/0864/6e846d43-94a6-4b37-a268-65eda979f052.jpg""]","",""
"","3386","similarity","130","778803","0.0-6.0-124.0","5","[""img/0894/5a49e858-2850-4892-9a06-e9f0efb5f94d.jpg"",""img/0902/01b41522-de46-4c3a-b0af-a61b2682b40e.jpg""]","",""
"","3872","similarity","131","789433","0.0-6.0-125.0","3","[""img/0868/7b212364-ff5f-4e28-9241-7eb6ea00161b.jpg"",""img/0864/66091c27-e588-4476-8af9-265dc6be4156.jpg""]","",""
"","6444","similarity","132","796893","0.0-6.0-126.0","2","[""img/0899/5b56dd3e-3f49-47cc-af84-16da6457753b.jpg"",""img/0866/a04d37f0-99dd-478a-b6c6-58b215138f84.jpg""]","",""
"","4230","similarity","133","802127","0.0-6.0-127.0","3","[""img/0875/d59ff733-eaff-4ee2-9443-06954dd0bcb6.jpg"",""img/0904/4d7d70a3-9477-4921-bda0-f9531d0a5c5b.jpg""]","",""
"","5104","similarity","134","808241","0.0-6.0-128.0","4","[""img/0867/85a96c62-548f-4994-9553-819e03c3135a.jpg"",""img/0899/8de08897-b430-42fe-9d42-840670b80f94.jpg""]","",""
"","3712","similarity","135","812973","0.0-6.0-129.0","1","[""img/0901/8bb79e82-9c43-4b6f-a655-40655519598b.jpg"",""img/0867/8ba0c5a7-c7e4-42cf-a80a-543763b90779.jpg""]","",""
"","4733","similarity","136","818725","0.0-6.0-130.0","3","[""img/0864/ef9cbca0-4be8-435d-ad49-977259e80409.jpg"",""img/0769/1d8734c4-77ab-4165-9e71-5cfe672ff01c.jpg""]","",""
"","3568","similarity","137","823301","0.0-6.0-131.0","6","[""img/0903/12bd8657-92e6-4c36-a06c-597e7a1d51f3.jpg"",""img/0868/77091fc7-a590-4ebb-b915-fdb2483a2399.jpg""]","",""
"","3174","similarity","138","827487","0.0-6.0-132.0","1","[""img/0864/0f537697-a314-47c3-a8cc-8df23b7e536c.jpg"",""img/0867/a498eef3-9fa4-4ab2-9778-4ae82ac40dc5.jpg""]","",""
"","2830","similarity","139","831321","0.0-6.0-133.0","7","[""img/0901/04a53755-6da5-44d4-a7a6-48a6bc0a2280.jpg"",""img/0860/c7047cd2-7cc1-41b6-8a34-c0986774975f.jpg""]","",""
"","3596","similarity","140","835935","0.0-6.0-134.0","5","[""img/0881/d373cb9f-a719-4549-a2a4-82def79fb2a5.jpg"",""img/0766/214866ee-423d-4629-9bb9-41572bdc7dac.jpg""]","",""
"","3271","similarity","141","840210","0.0-6.0-135.0","3","[""img/0903/5ea5bbe0-f238-4724-abe7-9ed8dee8c0ba.jpg"",""img/0864/5f33e097-23e3-4002-882d-76e8cb15f451.jpg""]","",""
"","2771","similarity","142","843993","0.0-6.0-136.0","4","[""img/0758/e38fd80d-18d0-42f3-b848-f930788e8bd7.jpg"",""img/0894/1a010553-d598-4b06-a772-81f1e7b3addb.jpg""]","",""
"","3099","similarity","143","848100","0.0-6.0-137.0","4","[""img/0769/4680bcc3-8fbc-4643-8f9a-12aa0e780b64.jpg"",""img/0860/8fdba999-b946-4c7d-9891-336018b563ef.jpg""]","",""
"","6012","similarity","144","855124","0.0-6.0-138.0","3","[""img/0904/60d1a521-edf7-4696-9263-f21ac0e62a01.jpg"",""img/0766/110832e5-2646-4bd0-a94e-5df8cc314269.jpg""]","",""
"","4072","similarity","145","860207","0.0-6.0-139.0","4","[""img/0868/1a62b2b2-18f5-466e-b564-5176a57c565e.jpg"",""img/0860/c47fdead-eb02-4989-b078-26f4852f44fe.jpg""]","",""
"","3239","similarity","146","864460","0.0-6.0-140.0","6","[""img/0758/9fb5b2fe-3f00-4fe6-973c-1ce10d5f4cd5.jpg"",""img/0864/b3c4e378-28f0-4699-9338-2a257b4bca04.jpg""]","",""
"","2433","similarity","147","867905","0.0-6.0-141.0","7","[""img/0867/f8488a47-94ee-4166-952c-44e16cf172f6.jpg"",""img/0867/de92135f-5b65-4ed9-b245-188292c7c2f8.jpg""]","",""
"","2440","similarity","148","871362","0.0-6.0-142.0","6","[""img/0898/0af304a2-6a7a-4082-ab7c-4450cd08cc58.jpg"",""img/0898/b3290bf9-215b-4b45-b21a-65bdf73f142f.jpg""]","",""
"","3904","similarity","149","876285","0.0-6.0-143.0","2","[""img/0866/0207e9a2-7dbb-40b5-9459-b472aaeceb2a.jpg"",""img/0769/96556ef3-7fac-4c9d-8281-1cb0ea5081bc.jpg""]","",""
"","3665","similarity","150","880966","0.0-6.0-144.0","5","[""img/0860/61fb959d-d4d9-4de4-9e4e-4fa62b4cfcd5.jpg"",""img/0898/0c7dde4f-efce-4b7a-9387-6921635b7890.jpg""]","",""
"","5685","similarity","151","887662","0.0-6.0-145.0","5","[""img/0766/79767d11-b612-4e8a-9e4b-a8ac95bb6a54.jpg"",""img/0864/ea327690-500b-4137-bf91-451b309fe6a5.jpg""]","",""
"","4307","similarity","152","892980","0.0-6.0-146.0","6","[""img/0860/4f695df5-afac-4da7-9875-fee39b0b24ad.jpg"",""img/0903/5248eedd-7e6a-4d39-91b0-06ec227f3ed0.jpg""]","",""
"","3882","similarity","153","897870","0.0-6.0-147.0","2","[""img/0867/c66898ba-b71b-4d50-84f9-f7f84853a98d.jpg"",""img/0764/d7c215ab-ea9a-45be-8d5f-417d5b9a8a17.jpg""]","",""
"","3605","similarity","154","902492","0.0-6.0-148.0","6","[""img/0769/91acb237-65a3-4d0b-9748-af5c7b83d3c7.jpg"",""img/0904/56e73f28-7e64-489b-a161-e6b1a063878d.jpg""]","",""
"","5073","similarity","155","908584","0.0-6.0-149.0","5","[""img/0764/4bec8d92-75aa-475a-954d-8215dbe538f5.jpg"",""img/0901/a6c90438-fa7c-4418-ac7c-16c2e772dd98.jpg""]","",""
"","4870","similarity","156","914460","0.0-6.0-150.0","6","[""img/0904/4e58005d-a2ec-4aaa-b199-445343561396.jpg"",""img/0899/51a7a498-98c7-42d7-bca8-bc2d8f0b5831.jpg""]","",""
"","3151","similarity","157","918624","0.0-6.0-151.0","3","[""img/0862/e0f1a4e9-e1b6-45f7-af67-89f334e6630d.jpg"",""img/0867/12264664-1860-46df-8c21-162b9817cdda.jpg""]","",""
"","4238","similarity","158","923872","0.0-6.0-152.0","7","[""img/0766/71b81ebd-0937-4d7f-b8bf-c4e46a4728fd.jpg"",""img/0766/db750ba0-ce04-46e1-b601-e1b80212bad2.jpg""]","",""
"","4245","similarity","159","929122","0.0-6.0-153.0","5","[""img/0862/92f0146c-20c4-482e-aef5-adb693790338.jpg"",""img/0894/e6385e52-6c35-43bd-b0af-bc803d107b11.jpg""]","",""
"","3372","similarity","160","933514","0.0-6.0-154.0","3","[""img/0899/ddf96ade-692e-4602-bd22-dedbb46401bc.jpg"",""img/0901/d4d09bf5-093e-4050-838e-7c738be8e63c.jpg""]","",""
"","3505","similarity","161","938029","0.0-6.0-155.0","6","[""img/0874/31e22c7c-99aa-40b1-bf03-dd73fa2df4d6.jpg"",""img/0874/3ce41e7c-40c8-4d58-a546-171114521796.jpg""]","",""
"","2745","similarity","162","941778","0.0-6.0-156.0","2","[""img/0860/524b2e98-5767-4d53-942c-ebae6925659b.jpg"",""img/0867/1719a35d-f085-48c0-9099-16c94fe418b4.jpg""]","",""
"","4435","similarity","163","947226","0.0-6.0-157.0","3","[""img/0901/1b86f2fc-7a1d-4aa8-9252-114f92edef3b.jpg"",""img/0881/62a64f90-7a72-4aee-a1a1-0c548ac9bdda.jpg""]","",""
"","3900","similarity","164","952140","0.0-6.0-158.0","6","[""img/0903/71dbc325-b588-4297-a5cf-7f268a722ad9.jpg"",""img/0902/d5e25767-e8ec-45f3-ac0a-7b4a6f7a9edc.jpg""]","",""
"","4099","similarity","165","957250","0.0-6.0-159.0","1","[""img/0860/94ef7afc-e0e6-4a15-98c6-0bfac82bc832.jpg"",""img/0764/c0b03adb-bd0a-4b96-a915-a827c2fd5211.jpg""]","",""
"","6574","similarity","166","964842","0.0-6.0-160.0","3","[""img/0902/ca3160ba-ad5d-459f-a1b6-8b4f3c85ecd5.jpg"",""img/0875/fb732ab5-013a-4366-9f65-27811ed157e9.jpg""]","",""
"","3510","similarity","167","969355","0.0-6.0-161.0","5","[""img/0898/cd3aaa3f-efa9-4ab3-8d6f-a6a9273ddf42.jpg"",""img/0862/47ed5efd-4ec9-4b74-bb4e-a5f5cf0c3e7d.jpg""]","",""
"","3535","similarity","168","973901","0.0-6.0-162.0","3","[""img/0894/10f22b96-040c-44f4-950b-a4963f3f506c.jpg"",""img/0875/cff79b3a-a797-4393-9757-6275f999ec04.jpg""]","",""
"","3403","similarity","169","978307","0.0-6.0-163.0","2","[""img/0866/be24ab58-230e-4db8-9f45-ff04c9aec6bb.jpg"",""img/0864/1d15626a-2f7c-410f-819c-0fa2c967e95e.jpg""]","",""
"","4765","similarity","170","984077","0.0-6.0-164.0","3","[""img/0766/d919cedb-f9b7-4f30-83bb-3e9c65001ceb.jpg"",""img/0862/4f0a3b4c-afbf-486e-b248-1d54982f54b4.jpg""]","",""
"","4481","similarity","171","989571","0.0-6.0-165.0","1","[""img/0866/11a1d141-be5e-443c-98c1-a9d4d9e3dec0.jpg"",""img/0874/8cdb1c07-1c32-46d2-981c-3636560fa6e5.jpg""]","",""
"","4287","similarity","172","994868","0.0-6.0-166.0","6","[""img/0862/de9ad88c-b522-430a-8ee9-eb06a9f85df5.jpg"",""img/0860/b03b963d-949b-4d8d-b19c-4950c89eeca2.jpg""]","",""
"","3802","similarity","173","1001607","0.0-6.0-167.0","2","[""img/0766/00891401-e4c9-4ce1-bc19-f70740d174bc.jpg"",""img/0901/d6d15b1c-4a30-4f74-a3fd-d4c8ee4169ca.jpg""]","",""
"","3949","similarity","174","1006565","0.0-6.0-168.0","7","[""img/0862/fb26cb07-d5a9-4653-813c-f41609f26cd5.jpg"",""img/0862/064818ee-13d5-4618-bb24-21c7368ea278.jpg""]","",""
"","3909","similarity","175","1011479","0.0-6.0-169.0","4","[""img/0894/133a1636-d123-4893-873c-1718050f832a.jpg"",""img/0764/f9f890e6-3c2f-40cd-84e9-85e0b54cb28e.jpg""]","",""
"","3666","similarity","176","1016161","0.0-6.0-170.0","2","[""img/0874/995f0332-0439-4eb4-add3-957335dbf6d9.jpg"",""img/0898/661621d4-a14e-487c-8c74-354134a29710.jpg""]","",""
"","4530","similarity","177","1021709","0.0-6.0-171.0","1","[""img/0860/17b44a7d-c5ca-479f-9e87-f65a64f5c80e.jpg"",""img/0766/dd3e18d0-0c98-4d05-b850-69976ee8cd75.jpg""]","",""
"","3795","similarity","178","1026521","0.0-6.0-172.0","3","[""img/0898/a114b375-cb89-44ba-9498-74213f1ecdee.jpg"",""img/0864/5f74a653-3bdc-4308-8cca-ac667dc22e1f.jpg""]","",""
"","4188","similarity","179","1031725","0.0-6.0-173.0","3","[""img/0881/f62bdcd1-a4b7-4d48-83da-d9c9e01c8727.jpg"",""img/0764/d0bef2e0-e16b-4c82-9451-c1d16265eb67.jpg""]","",""
"","5612","similarity","180","1038343","0.0-6.0-174.0","2","[""img/0898/04e39a7a-fcf6-4156-ab0e-f5871f335e1c.jpg"",""img/0868/4a8a45ed-2c4f-421b-9564-409a33ecd26c.jpg""]","",""
"","3970","similarity","181","1043325","0.0-6.0-175.0","7","[""img/0864/f92649a2-0590-4d31-9a7a-1bfb81666a2d.jpg"",""img/0864/c3b63e8f-ea39-4d70-a1f2-b3fe4be8eb75.jpg""]","",""
"","3740","similarity","182","1048069","0.0-6.0-176.0","6","[""img/0899/f58b8d2f-b19d-4b59-8b94-8834be92e4ba.jpg"",""img/0862/24cdc752-c2e5-4a17-86a6-6f2045d8553b.jpg""]","",""
"","3818","similarity","183","1052897","0.0-6.0-177.0","1","[""img/0875/ebf7653f-ff45-4e9f-af58-2c042ab3cd2b.jpg"",""img/0758/67c0be2f-9e91-48b3-8219-70ac0a1802fa.jpg""]","",""
"","4128","similarity","184","1058031","0.0-6.0-178.0","1","[""img/0866/a15b02be-11bb-43e3-b0e0-ecc3bd7dfc49.jpg"",""img/0901/c6df1a21-44ed-47c2-960e-7c52220e329e.jpg""]","",""
"","4602","similarity","185","1063638","0.0-6.0-179.0","5","[""img/0769/c7cfacc3-7f07-46ff-9f5d-8073f4c4679b.jpg"",""img/0874/1016b306-087c-4afc-aa08-fa527b28dc76.jpg""]","",""
"","4659","similarity","186","1069317","0.0-6.0-180.0","1","[""img/0875/42910c99-5463-450a-a0f8-d4d060a11455.jpg"",""img/0881/e6746727-7f89-47ec-b939-d98abe78372d.jpg""]","",""
"","3134","similarity","187","1073465","0.0-6.0-181.0","7","[""img/0866/bf14b5bd-fb55-47db-86b9-4f8aeb9a6dad.jpg"",""img/0868/fd307a36-9a3a-47d7-ab7c-f810d0b35040.jpg""]","",""
"","3640","similarity","188","1078109","0.0-6.0-182.0","7","[""img/0899/76ad07e2-ca25-45eb-84f2-8d80b8ca3e26.jpg"",""img/0758/d41c06bf-ebaf-454b-91c6-1a17f917b659.jpg""]","",""
"","3285","similarity","189","1082409","0.0-6.0-183.0","2","[""img/0874/7e4f2150-3b59-4a36-b5da-a4e0ba410531.jpg"",""img/0875/2c361b79-c3d1-4eda-812e-bf03192407bf.jpg""]","",""
"","3274","similarity","190","1086701","0.0-6.0-184.0","4","[""img/0904/09dac84f-3d1c-4445-a68e-d0389fdbf1e9.jpg"",""img/0862/53a9cf7c-93c4-41b9-952f-07d17f7a17b2.jpg""]","",""
"","4247","similarity","191","1091956","0.0-6.0-185.0","7","[""img/0902/94ee9c53-a9a2-4f95-b9b7-794a5fc62bb6.jpg"",""img/0766/d512b99c-a2dc-40d7-8e86-827323a0cbcf.jpg""]","",""
"","5528","similarity","192","1098499","0.0-6.0-186.0","3","[""img/0758/d57c2592-a317-4f63-91be-91a3a9afd222.jpg"",""img/0769/3c1efec9-f8fd-487d-8955-4be88e48c832.jpg""]","",""
"","4085","similarity","193","1103594","0.0-6.0-187.0","6","[""img/0881/ee44e27f-d662-4608-b265-e7ffa19b216f.jpg"",""img/0881/c24f3051-eefa-42de-aba6-fccb56d93c70.jpg""]","",""
"","3211","similarity","194","1107811","0.0-6.0-188.0","4","[""img/0758/eabcd7a8-56ad-4fd2-bc24-90f6b7b33265.jpg"",""img/0866/07c9c966-3c8d-40e7-8128-92b2acbaed5d.jpg""]","",""
"","4015","similarity","195","1112839","0.0-6.0-189.0","5","[""img/0764/23ea9375-f801-4a96-9925-7d453da887c7.jpg"",""img/0898/c3cecf20-f7fd-45fa-97d0-dc0a63e8d6c0.jpg""]","",""
"","3900","similarity","196","1117742","0.0-6.0-190.0","5","[""img/0903/5995f4a8-fa82-46f8-8760-fd7800a5ca34.jpg"",""img/0901/62315ff5-ed95-46b4-b099-92552079659b.jpg""]","",""
"","3744","similarity","197","1122503","0.0-6.0-191.0","6","[""img/0902/44cd9b7e-fdfb-4f78-90de-8d4c9d279365.jpg"",""img/0898/e167334e-cc1d-4986-b3b1-c7bc7da64baa.jpg""]","",""
"","3635","similarity","198","1127154","0.0-6.0-192.0","4","[""img/0864/1ebbc554-99fa-49f9-8799-317375a79820.jpg"",""img/0901/5b97abf9-f0c8-4fd1-b921-36d574779078.jpg""]","",""
"","3485","similarity","199","1131647","0.0-6.0-193.0","3","[""img/0894/5f15154e-e72e-4ce5-aafb-bce6f0564006.jpg"",""img/0881/4da99fdd-1f40-4bbb-8e21-8833eef313f5.jpg""]","",""
"","3940","similarity","200","1136605","0.0-6.0-194.0","6","[""img/0868/d6d1f30d-4323-435a-b194-7892521bc57e.jpg"",""img/0868/6a28c3b0-3d76-498a-9fb7-ddafc665eca8.jpg""]","",""
"","3456","similarity","201","1141072","0.0-6.0-195.0","6","[""img/0899/06b0fc99-0581-461a-9913-d1a5a941ac61.jpg"",""img/0764/da207710-e7e4-4f42-b2e6-99b5f357f433.jpg""]","",""
"","3782","similarity","202","1145870","0.0-6.0-196.0","2","[""img/0881/5fe04dd0-5c74-47b7-99c8-b068db9ca26a.jpg"",""img/0904/5aec2708-cf14-4a58-aa30-9a8a61c1be0e.jpg""]","",""
"","3275","similarity","203","1150148","0.0-6.0-197.0","5","[""img/0864/e336a4c5-6648-4fd7-b2f6-93a3fb83f8c6.jpg"",""img/0902/5b45a7a0-81c8-4a71-aaa2-2ce09adb5a29.jpg""]","",""
"","3404","similarity","204","1154570","0.0-6.0-198.0","7","[""img/0894/3adef67d-7676-4995-80b2-bb31b8aca3ef.jpg"",""img/0904/1d10df11-b5c8-4370-9a6b-097a7f965895.jpg""]","",""
"","3099","similarity","205","1158678","0.0-6.0-199.0","7","[""img/0901/bc47e078-bda4-40ed-b89a-bbd819164b95.jpg"",""img/0901/f469cb1d-6d81-4a45-bab5-cd0b650c2b4f.jpg""]","",""
"","3783","similarity","206","1163476","0.0-6.0-200.0","6","[""img/0894/a3d4170b-b7d8-40e3-955f-87e76ed745fc.jpg"",""img/0860/8a92e21b-6a32-4e4a-a445-2d5a487ed0a4.jpg""]","",""
"","2867","similarity","207","1167348","0.0-6.0-201.0","6","[""img/0898/224c1572-56b9-4f16-a9e4-6f3bc9c114bd.jpg"",""img/0903/f67c4ab9-f8c2-4fcd-848a-a54a7b031002.jpg""]","",""
"","3673","similarity","208","1172038","0.0-6.0-202.0","3","[""img/0864/300bb811-8b3c-4c42-8653-6097c3725197.jpg"",""img/0894/e2446cf5-cd48-486a-badc-76498e087fbe.jpg""]","",""
"","3589","similarity","209","1176636","0.0-6.0-203.0","2","[""img/0874/29830da7-be5f-44e5-b141-652a0ccf7269.jpg"",""img/0860/e8b8c51e-1834-4875-8b61-6c5bc9b178bd.jpg""]","",""
"","3839","similarity","210","1181480","0.0-6.0-204.0","1","[""img/0862/f43ceabf-acc1-4107-b857-5d1849808f93.jpg"",""img/0875/2e13d160-eea1-416b-aff1-d37ab99ecc1d.jpg""]","",""
"","3768","similarity","211","1186257","0.0-6.0-205.0","3","[""img/0867/26611f4e-d694-4460-b7e2-43c62753ddc3.jpg"",""img/0881/db77fe00-aeb0-4d1d-aa66-f3a96fd077e4.jpg""]","",""
"","2926","similarity","212","1190195","0.0-6.0-206.0","5","[""img/0901/875dedb9-24c9-4443-9f8c-85e97d70ee5a.jpg"",""img/0902/40d0b6ec-3907-4573-b227-e7d8e9cad1c3.jpg""]","",""
"","3646","similarity","213","1194855","0.0-6.0-207.0","5","[""img/0899/f95cbdb4-f804-4f5d-ad76-373ad343e658.jpg"",""img/0864/49150900-7f25-4ce8-8d10-9b47a71d1997.jpg""]","",""
"","2422","similarity","214","1198291","0.0-6.0-208.0","4","[""img/0901/7d4a3388-488d-4e9b-9d32-9d0def7aae8d.jpg"",""img/0769/9ea9ceb6-049e-4ad9-be8f-00645cd35803.jpg""]","",""
"","2874","similarity","215","1213394","0.0-6.0-209.0","6","[""img/0902/24d10fe7-314f-4d5a-8c7b-b43121bba0a4.jpg"",""img/0902/7499db23-3a41-41ea-ab5b-6ab4d4c3ed35.jpg""]","",""
"[{""page_index"":0,""viewing_time"":8763}]","8764","instructions","216","1223170","0.0-7.0","","","",""
"","30919","image-multi-choice","217","1255112","0.0-8.0-0.0","","","{""Q0"":""Orange-crowned Warbler""}","Nashville Warbler"
"","8370","image-multi-choice","218","1264503","0.0-8.0-1.0","","","{""Q0"":""Black-and-white Warbler""}","Black-and-white Warbler"
"","25605","image-multi-choice","219","1291120","0.0-8.0-2.0","","","{""Q0"":""Blackburnian Warbler""}","Townsend's Warbler"
"","12837","image-multi-choice","220","1304979","0.0-8.0-3.0","","","{""Q0"":""White-throated Sparrow""}","Lark Sparrow"
"","4677","image-multi-choice","221","1310671","0.0-8.0-4.0","","","{""Q0"":""Yellow Warbler""}","Yellow Warbler"
"","24180","image-multi-choice","222","1335875","0.0-8.0-5.0","","","{""Q0"":""Orange-crowned Warbler""}","Orange-crowned Warbler"
"","6277","image-multi-choice","223","1343165","0.0-8.0-6.0","","","{""Q0"":""White-throated Sparrow""}","White-throated Sparrow"
"","6607","image-multi-choice","224","1350792","0.0-8.0-7.0","","","{""Q0"":""Fox Sparrow""}","Fox Sparrow"
"","23946","image-multi-choice","225","1375750","0.0-8.0-8.0","","","{""Q0"":""Lincoln's Sparrow""}","Song Sparrow"
"","16526","image-multi-choice","226","1393293","0.0-8.0-9.0","","","{""Q0"":""Blackburnian Warbler""}","Blackburnian Warbler"
"","10331","image-multi-choice","227","1404645","0.0-8.0-10.0","","","{""Q0"":""Song Sparrow""}","Vesper Sparrow"
"","5162","image-multi-choice","228","1410827","0.0-8.0-11.0","","","{""Q0"":""White-crowned Sparrow""}","White-crowned Sparrow"
"","10006","image-multi-choice","229","1421846","0.0-8.0-12.0","","","{""Q0"":""Lincoln's Sparrow""}","American Tree Sparrow"
"","12378","image-multi-choice","230","1435237","0.0-8.0-13.0","","","{""Q0"":""Magnolia Warbler""}","Tennessee Warbler"
"","5535","image-multi-choice","231","1441787","0.0-8.0-14.0","","","{""Q0"":""Blackburnian Warbler""}","Magnolia Warbler"
"","52784","image-multi-choice","232","1495582","0.0-8.0-15.0","","","{""Q0"":""Northern Waterthrush""}","Northern Waterthrush"
"","21237","image-multi-choice","233","1517838","0.0-8.0-16.0","","","{""Q0"":""Song Sparrow""}","Chipping Sparrow"
"","19767","image-multi-choice","234","1538615","0.0-8.0-17.0","","","{""Q0"":""Lincoln's Sparrow""}","Swamp Sparrow"
"","44200","image-multi-choice","235","1583829","0.0-8.0-18.0","","","{""Q0"":""Chipping Sparrow""}","Lincoln's Sparrow"
"","26840","image-multi-choice","236","1611681","0.0-8.0-19.0","","","{""Q0"":""Ovenbird""}","Ovenbird"
