"view_history","rt","trial_type","trial_index","time_elapsed","internal_node_id","sim_score","stimulus","responses","answer"
"[{""page_index"":0,""viewing_time"":31475}]","31478","instructions","0","31480","0.0-0.0","","","",""
"","7608","similarity_demo","1","40120","0.0-1.0","6","[""img/866.jpg"",""img/868.jpg""]","",""
"[{""page_index"":0,""viewing_time"":16613}]","16613","instructions","2","57739","0.0-2.0","","","",""
"","6061","similarity_demo","3","64815","0.0-3.0","2","[""img/766.jpg"",""img/867.jpg""]","",""
"[{""page_index"":0,""viewing_time"":7306}]","7311","instructions","4","73132","0.0-4.0","","","",""
"[{""page_index"":0,""viewing_time"":73265}]","73265","instructions","5","147400","0.0-5.0","","","",""
"","6107","similarity","6","154527","0.0-6.0-0.0","1","[""img/0868/83b4350a-3b70-4cea-b7f5-b5b56f3050a8.jpg"",""img/0901/a9b9c0a0-8aed-4888-a78a-65fb7e764d13.jpg""]","",""
"","4731","similarity","7","160270","0.0-6.0-1.0","1","[""img/0769/0fe124d3-bcad-45f6-b64d-8f6eb8ee5251.jpg"",""img/0867/26611f4e-d694-4460-b7e2-43c62753ddc3.jpg""]","",""
"","4606","similarity","8","165882","0.0-6.0-2.0","5","[""img/0766/f5f78e4e-d88f-4866-951a-118ba9fec4d0.jpg"",""img/0898/4184e5a2-84ea-4f36-9b42-ae58646f6f87.jpg""]","",""
"","5816","similarity","9","172705","0.0-6.0-3.0","1","[""img/0902/94198618-7047-4dc9-ad04-85f4ba913067.jpg"",""img/0881/44e09805-5a25-4f17-a716-4ad4a331b174.jpg""]","",""
"","5623","similarity","10","179349","0.0-6.0-4.0","7","[""img/0894/86201968-6e78-4d68-9b3a-d1692e066210.jpg"",""img/0894/6aa5545f-fa7d-4286-bbaa-aaf34dc7ec96.jpg""]","",""
"","5534","similarity","11","185891","0.0-6.0-5.0","1","[""img/0874/3f471690-9788-4d03-90c7-f615aecef149.jpg"",""img/0899/fd9efb43-701f-4cd6-baaa-4c38315f4bdc.jpg""]","",""
"","5196","similarity","12","192105","0.0-6.0-6.0","5","[""img/0904/ba8e689e-9ca6-4608-a2a1-3b0940666ae6.jpg"",""img/0764/4952d0a0-c9be-471a-8ec7-94a37bf4051d.jpg""]","",""
"","5828","similarity","13","198946","0.0-6.0-7.0","6","[""img/0899/8de08897-b430-42fe-9d42-840670b80f94.jpg"",""img/0898/40f99fb2-64d2-4e72-8a7f-a1cf60741e69.jpg""]","",""
"","5373","similarity","14","205337","0.0-6.0-8.0","4","[""img/0874/c0378dac-9370-439a-8b79-db27c96fb390.jpg"",""img/0903/f10e9eb5-0c21-4a6a-944c-5f10a6d0fa4d.jpg""]","",""
"","5936","similarity","15","212291","0.0-6.0-9.0","6","[""img/0881/f8bd891e-aa09-4782-89db-33e7cb2b0cf1.jpg"",""img/0758/a085b443-b5d7-4cb2-9ad4-b9dab0fc23f1.jpg""]","",""
"","6713","similarity","16","220011","0.0-6.0-10.0","4","[""img/0898/f3a3f225-1248-4ac7-b93b-f0ff28485bf3.jpg"",""img/0901/fb0a8e69-7f19-4e6e-a6bb-a48f97f9b4f3.jpg""]","",""
"","4838","similarity","17","225860","0.0-6.0-11.0","4","[""img/0903/647ce311-8c71-479a-8361-961db1457139.jpg"",""img/0769/3adfa417-3b90-4aab-b437-5eaa474189cb.jpg""]","",""
"","3629","similarity","18","230503","0.0-6.0-12.0","1","[""img/0764/23ea9375-f801-4a96-9925-7d453da887c7.jpg"",""img/0868/179a5502-ab5c-478e-8263-5a1fbcc101d2.jpg""]","",""
"","4949","similarity","19","236463","0.0-6.0-13.0","1","[""img/0867/179ab87a-8eac-4c52-a41f-2e48e3120f09.jpg"",""img/0903/e2e55a9e-0397-4dc0-8adf-4a54cfefe1fe.jpg""]","",""
"","4079","similarity","20","241551","0.0-6.0-14.0","2","[""img/0766/27f54113-8561-4568-9ffe-0a1650ae65ec.jpg"",""img/0758/ddc336e9-a8b6-4bb9-937a-c7e25e0e9250.jpg""]","",""
"","5347","similarity","21","247912","0.0-6.0-15.0","2","[""img/0902/fbef27fa-ac83-4936-ab78-9d1c20a383e1.jpg"",""img/0860/b03b963d-949b-4d8d-b19c-4950c89eeca2.jpg""]","",""
"","4925","similarity","22","253845","0.0-6.0-16.0","1","[""img/0769/8c7cf147-1780-4d5c-8ddf-5ea23ff03ac9.jpg"",""img/0875/527ced51-8e53-4aab-ab05-86df219104c0.jpg""]","",""
"","4005","similarity","23","258861","0.0-6.0-17.0","1","[""img/0904/4e58005d-a2ec-4aaa-b199-445343561396.jpg"",""img/0866/0207e9a2-7dbb-40b5-9459-b472aaeceb2a.jpg""]","",""
"","3442","similarity","24","263307","0.0-6.0-18.0","7","[""img/0875/90da8d75-108a-44ad-b999-e21fee3860d3.jpg"",""img/0875/03c3c331-738b-4446-af92-3d7386b08c2e.jpg""]","",""
"","4642","similarity","25","268964","0.0-6.0-19.0","7","[""img/0758/eabcd7a8-56ad-4fd2-bc24-90f6b7b33265.jpg"",""img/0758/3ddd05d3-557e-4ee7-8b78-9d2d681d8ae2.jpg""]","",""
"","3689","similarity","26","273672","0.0-6.0-20.0","1","[""img/0902/07437a16-3d0f-4a5c-89ec-36d0efa4b3b8.jpg"",""img/0874/a3bc679d-619f-4db6-bb68-116dcb757d9c.jpg""]","",""
"","6284","similarity","27","280967","0.0-6.0-21.0","2","[""img/0764/c0b03adb-bd0a-4b96-a915-a827c2fd5211.jpg"",""img/0769/91acb237-65a3-4d0b-9748-af5c7b83d3c7.jpg""]","",""
"","3359","similarity","28","285346","0.0-6.0-22.0","1","[""img/0901/33b51a81-06d9-46d9-9d4f-5a2d6d6b8058.jpg"",""img/0874/29830da7-be5f-44e5-b141-652a0ccf7269.jpg""]","",""
"","3981","similarity","29","290335","0.0-6.0-23.0","1","[""img/0875/a4935837-7d3c-4df6-88c1-36a94d4991ca.jpg"",""img/0903/6a87dbad-9b8d-4ff5-9c41-03c9aa24f0c3.jpg""]","",""
"","4886","similarity","30","296238","0.0-6.0-24.0","1","[""img/0769/50985283-d353-4abc-9abe-14a91d56ebe6.jpg"",""img/0881/dea58fad-b4f1-41d9-bd3f-916eff19a3fd.jpg""]","",""
"","4697","similarity","31","301953","0.0-6.0-25.0","2","[""img/0867/f8488a47-94ee-4166-952c-44e16cf172f6.jpg"",""img/0904/0d25eb24-bb20-4e8d-9787-8b489558b4cb.jpg""]","",""
"","5251","similarity","32","308211","0.0-6.0-26.0","4","[""img/0860/c3379ff7-0763-48fe-a1ec-7ea3d611bc7a.jpg"",""img/0881/445edb15-bd7f-4af3-8bd5-c6ad9677bb31.jpg""]","",""
"","6310","similarity","33","315532","0.0-6.0-27.0","7","[""img/0866/a15b02be-11bb-43e3-b0e0-ecc3bd7dfc49.jpg"",""img/0866/620cd1aa-0800-4414-8f6e-90342e7a99ad.jpg""]","",""
"","5246","similarity","34","321789","0.0-6.0-28.0","4","[""img/0764/958b8576-3a3b-4acc-96dc-06b74de69f37.jpg"",""img/0862/7918ca67-5bd3-4606-a5ea-c39fb11a9297.jpg""]","",""
"","3547","similarity","35","326349","0.0-6.0-29.0","1","[""img/0904/5cceabc9-de1d-4c67-989b-c28a4ef77e79.jpg"",""img/0758/caa93da2-9edf-49fa-96b9-32dedd8f5078.jpg""]","",""
"","5562","similarity","36","332928","0.0-6.0-30.0","6","[""img/0894/38cf335f-f76f-4349-8d65-e20cd6859565.jpg"",""img/0899/7b7380d5-d2be-44e5-a09a-c1756f87ef71.jpg""]","",""
"","4786","similarity","37","338720","0.0-6.0-31.0","4","[""img/0860/31ff6436-98bf-4652-bed2-40f627229568.jpg"",""img/0904/96e503ea-6630-4996-85f2-0237688ce441.jpg""]","",""
"","6783","similarity","38","346519","0.0-6.0-32.0","6","[""img/0874/995f0332-0439-4eb4-add3-957335dbf6d9.jpg"",""img/0881/2a8413be-fec2-4de6-88ad-614dd4cccc9d.jpg""]","",""
"","4679","similarity","39","352214","0.0-6.0-33.0","1","[""img/0881/33d65d80-8a8e-4ecf-852d-0ad7725c17a2.jpg"",""img/0899/fef567a2-c121-4481-9af0-ff108d199bbf.jpg""]","",""
"","5008","similarity","40","358230","0.0-6.0-34.0","4","[""img/0866/02f5e6b9-52b7-448c-9708-5b460d0c9a23.jpg"",""img/0862/a0a3a7ba-7798-46a3-b4ca-05e1f6e581d0.jpg""]","",""
"","3797","similarity","41","363037","0.0-6.0-35.0","1","[""img/0868/77091fc7-a590-4ebb-b915-fdb2483a2399.jpg"",""img/0894/133a1636-d123-4893-873c-1718050f832a.jpg""]","",""
"","6059","similarity","42","370111","0.0-6.0-36.0","7","[""img/0860/99c589b9-9140-4d17-90c0-b344323edcda.jpg"",""img/0860/29a21a9f-54bb-4093-ad3f-04823ceaa89f.jpg""]","",""
"","4154","similarity","43","375277","0.0-6.0-37.0","7","[""img/0862/e0f1a4e9-e1b6-45f7-af67-89f334e6630d.jpg"",""img/0864/4bd81bc6-c13d-46df-95a9-485886dc7c1b.jpg""]","",""
"","3379","similarity","44","379669","0.0-6.0-38.0","1","[""img/0766/60033a74-9919-47e5-913c-71d0d483e7e5.jpg"",""img/0866/4a87911a-d5be-4d4e-ab8e-3d1f581bf507.jpg""]","",""
"","3178","similarity","45","383861","0.0-6.0-39.0","1","[""img/0875/2c361b79-c3d1-4eda-812e-bf03192407bf.jpg"",""img/0898/b2732712-71c2-45d8-834f-2b2ed5504910.jpg""]","",""
"","3606","similarity","46","388486","0.0-6.0-40.0","7","[""img/0766/a754e4b6-5019-4cf4-8f58-34c20547a1f5.jpg"",""img/0769/da36e3f7-2337-434f-ab57-11822dd7eed7.jpg""]","",""
"","3759","similarity","47","405091","0.0-6.0-41.0","1","[""img/0874/bf14b896-e930-4fd9-9c05-2e83317a2773.jpg"",""img/0764/17b088f8-3053-4140-b544-d15654cc79ef.jpg""]","",""
"","3507","similarity","48","409614","0.0-6.0-42.0","1","[""img/0868/1a62b2b2-18f5-466e-b564-5176a57c565e.jpg"",""img/0902/418b716e-63e5-4c77-93e9-95b1f5a3ddf0.jpg""]","",""
"","3663","similarity","49","414287","0.0-6.0-43.0","1","[""img/0875/2e13d160-eea1-416b-aff1-d37ab99ecc1d.jpg"",""img/0899/f58b8d2f-b19d-4b59-8b94-8834be92e4ba.jpg""]","",""
"","5643","similarity","50","420944","0.0-6.0-44.0","2","[""img/0866/9b38d691-1802-4959-ab3f-fc902f0e4ea6.jpg"",""img/0860/e8b8c51e-1834-4875-8b61-6c5bc9b178bd.jpg""]","",""
"","5907","similarity","51","427864","0.0-6.0-45.0","5","[""img/0766/00891401-e4c9-4ce1-bc19-f70740d174bc.jpg"",""img/0903/0a92ec52-4e87-410a-857a-4455cde56a70.jpg""]","",""
"","4729","similarity","52","433605","0.0-6.0-46.0","3","[""img/0901/c6df1a21-44ed-47c2-960e-7c52220e329e.jpg"",""img/0904/696ebb60-8891-417a-91fd-c53218907a95.jpg""]","",""
"","3723","similarity","53","438343","0.0-6.0-47.0","2","[""img/0758/e1ba5e53-addc-436a-b428-d34fc1b130dc.jpg"",""img/0902/0eb85fbc-27c8-41df-9d0b-a5f9efd417d1.jpg""]","",""
"","4222","similarity","54","443576","0.0-6.0-48.0","7","[""img/0764/5d83b9db-3b2b-4dc8-9bd1-2b515b19c858.jpg"",""img/0764/21e3292f-01ad-4238-828b-61b817857d16.jpg""]","",""
"","4485","similarity","55","449075","0.0-6.0-49.0","2","[""img/0866/93a27239-8317-4e08-98ca-d8b1ff298e07.jpg"",""img/0902/cdec1bc6-7f90-4f72-9e01-f5a4111bac1d.jpg""]","",""
"","4514","similarity","56","454596","0.0-6.0-50.0","1","[""img/0764/e42c1dc9-7831-4995-be19-7ca7b4d141fc.jpg"",""img/0758/a709631e-3705-4725-ac40-f0d916924f08.jpg""]","",""
"","6196","similarity","57","461802","0.0-6.0-51.0","7","[""img/0898/a8f16b02-e19f-423b-86c3-a36562ae1f9b.jpg"",""img/0894/bd34223a-2f66-4e16-9d18-193a746b69ff.jpg""]","",""
"","3379","similarity","58","466192","0.0-6.0-52.0","7","[""img/0875/d59ff733-eaff-4ee2-9443-06954dd0bcb6.jpg"",""img/0866/bf14b5bd-fb55-47db-86b9-4f8aeb9a6dad.jpg""]","",""
"","4108","similarity","59","471313","0.0-6.0-53.0","6","[""img/0904/65e2b70a-b184-4da3-b5c0-5038bdf9469a.jpg"",""img/0904/25365108-e038-4021-aac9-797f2063b337.jpg""]","",""
"","2923","similarity","60","475244","0.0-6.0-54.0","6","[""img/0769/11518cb3-13ea-4dd0-890c-30cfab728ade.jpg"",""img/0769/ebef2ddc-ba59-4e0e-97f8-927864eb5081.jpg""]","",""
"","2625","similarity","61","478886","0.0-6.0-55.0","1","[""img/0898/e167334e-cc1d-4986-b3b1-c7bc7da64baa.jpg"",""img/0758/20497cbe-ddae-489e-86e2-ab06985ed07c.jpg""]","",""
"","4779","similarity","62","484679","0.0-6.0-56.0","7","[""img/0769/3c1203c5-2ce7-466e-957a-8d77b5905460.jpg"",""img/0902/71c03003-03ef-4b0f-8229-e0c857150a5d.jpg""]","",""
"","5413","similarity","63","491094","0.0-6.0-57.0","5","[""img/0864/0116ca98-293d-4fa6-a93b-5a6144ef64cc.jpg"",""img/0881/7e31e5dc-2240-4b1b-b5a0-3acd980099ef.jpg""]","",""
"","3595","similarity","64","495700","0.0-6.0-58.0","4","[""img/0758/b76ceca7-95ac-46e4-ac13-da02c8e93be9.jpg"",""img/0868/4bd5105a-d2c3-4f82-8c80-57196106ba53.jpg""]","",""
"","4814","similarity","65","501525","0.0-6.0-59.0","3","[""img/0862/ee3b7bff-4a70-4e84-9bea-4a565e456acb.jpg"",""img/0769/76eaa4a3-dfe9-4dc1-9efb-caebe86264e1.jpg""]","",""
"","4368","similarity","66","506907","0.0-6.0-60.0","6","[""img/0764/d7c215ab-ea9a-45be-8d5f-417d5b9a8a17.jpg"",""img/0903/150cf64c-0bd2-4674-abbb-a1387cf1f3e9.jpg""]","",""
"","3006","similarity","67","510922","0.0-6.0-61.0","7","[""img/0899/06b0fc99-0581-461a-9913-d1a5a941ac61.jpg"",""img/0899/8abe6c69-822c-436c-9bf2-96c818b49ba5.jpg""]","",""
"","5194","similarity","68","517127","0.0-6.0-62.0","2","[""img/0860/524b2e98-5767-4d53-942c-ebae6925659b.jpg"",""img/0875/99698b4d-b4a1-44bc-8c83-8ea755bbbf61.jpg""]","",""
"","3610","similarity","69","521743","0.0-6.0-63.0","5","[""img/0868/09a9ef4d-d000-4cfa-a6aa-ebec7c2edeb4.jpg"",""img/0874/7e4f2150-3b59-4a36-b5da-a4e0ba410531.jpg""]","",""
"","3016","similarity","70","525779","0.0-6.0-64.0","5","[""img/0758/f61ecdf8-a7d4-4db0-b84d-be46f7cfaffc.jpg"",""img/0862/f23038d4-c366-4f70-979f-66b62362efa4.jpg""]","",""
"","2756","similarity","71","529550","0.0-6.0-65.0","7","[""img/0904/5aec2708-cf14-4a58-aa30-9a8a61c1be0e.jpg"",""img/0898/cd3aaa3f-efa9-4ab3-8d6f-a6a9273ddf42.jpg""]","",""
"","3846","similarity","72","534408","0.0-6.0-66.0","6","[""img/0881/b1a136f7-8511-4d3a-a0f6-3879acf1e1a1.jpg"",""img/0866/8efcaa46-83ab-4dee-a35f-850402aa21ae.jpg""]","",""
"","4530","similarity","73","539950","0.0-6.0-67.0","1","[""img/0867/c66898ba-b71b-4d50-84f9-f7f84853a98d.jpg"",""img/0898/04e39a7a-fcf6-4156-ab0e-f5871f335e1c.jpg""]","",""
"","5147","similarity","74","546104","0.0-6.0-68.0","6","[""img/0902/417d8b4a-3c72-4adc-ac78-820e833316f2.jpg"",""img/0764/c84fbfa8-521c-407a-9bd3-24f7308d896c.jpg""]","",""
"","3418","similarity","75","550533","0.0-6.0-69.0","5","[""img/0875/fb732ab5-013a-4366-9f65-27811ed157e9.jpg"",""img/0867/1719a35d-f085-48c0-9099-16c94fe418b4.jpg""]","",""
"","3265","similarity","76","554816","0.0-6.0-70.0","7","[""img/0766/aaec5f42-7f0a-4a16-aeca-488d757acbcc.jpg"",""img/0764/b8e23f4f-ff19-4472-ad9b-2f85548ebca0.jpg""]","",""
"","3959","similarity","77","559789","0.0-6.0-71.0","2","[""img/0894/43216a7f-27bc-4b5a-8841-d122a30da9d9.jpg"",""img/0867/6e19c858-b606-45b2-a4c6-910a73f1d82c.jpg""]","",""
"","2797","similarity","78","563599","0.0-6.0-72.0","1","[""img/0875/dbdd643e-6d0e-4a5c-ab57-b9c29b9c981a.jpg"",""img/0764/62fafeea-6274-48ce-976f-35d3d3484c65.jpg""]","",""
"","3149","similarity","79","567759","0.0-6.0-73.0","7","[""img/0867/aa05d113-fc19-4756-a8eb-7878f580bc92.jpg"",""img/0866/f756f7d1-9ad8-4a34-9ef6-7a443d705bfe.jpg""]","",""
"","5835","similarity","80","574600","0.0-6.0-74.0","1","[""img/0903/c3cb4a01-2797-43ca-b216-88c67b323fbb.jpg"",""img/0758/53f35650-e455-4b53-8be4-c3c8271c6466.jpg""]","",""
"","7226","similarity","81","582827","0.0-6.0-75.0","1","[""img/0766/26d3ae14-8275-4e08-99b2-a6598c193ddf.jpg"",""img/0868/4e626425-63c8-484a-8a1d-e66ee4e0bef8.jpg""]","",""
"","4456","similarity","82","588300","0.0-6.0-76.0","3","[""img/0874/93d1f8dc-acf2-4f03-bd8d-8ec35df276ed.jpg"",""img/0766/af3be95e-e52e-4fae-899b-0ff02ec340aa.jpg""]","",""
"","4278","similarity","83","593589","0.0-6.0-77.0","5","[""img/0881/ed4c971f-0873-4fc8-b6d6-e8bbd82f0bcc.jpg"",""img/0868/0d3abd3a-b6c3-4584-a9f7-e2da63748b3d.jpg""]","",""
"","3550","similarity","84","598148","0.0-6.0-78.0","2","[""img/0758/7ee8bc8f-c40b-4b3a-84ec-3e83580622d4.jpg"",""img/0901/4f9cffe0-c0be-4d7f-bacd-9d51efd19b4a.jpg""]","",""
"","4344","similarity","85","603501","0.0-6.0-79.0","1","[""img/0881/e046471a-35b4-4159-bbf7-3cfd201bef66.jpg"",""img/0898/c3cecf20-f7fd-45fa-97d0-dc0a63e8d6c0.jpg""]","",""
"","5558","similarity","86","610065","0.0-6.0-80.0","5","[""img/0867/2e1a0b58-cdb1-4107-a14e-452530d7b9b0.jpg"",""img/0758/dd559618-7f09-4a07-8018-d311c4a5ea29.jpg""]","",""
"","3728","similarity","87","614806","0.0-6.0-81.0","3","[""img/0769/ecda2fb3-556b-43ba-8a67-e87dd75ff2b4.jpg"",""img/0899/66ab3178-c3fe-4455-ad17-d5952b08e018.jpg""]","",""
"","3897","similarity","88","619718","0.0-6.0-82.0","7","[""img/0903/f1fa0f8d-e62b-4b4a-a174-31a0fabfe61b.jpg"",""img/0903/39365c8e-a733-4801-ac7d-b87e38c3784b.jpg""]","",""
"","3690","similarity","89","632436","0.0-6.0-83.0","3","[""img/0867/a498eef3-9fa4-4ab2-9778-4ae82ac40dc5.jpg"",""img/0766/d919cedb-f9b7-4f30-83bb-3e9c65001ceb.jpg""]","",""
"","4354","similarity","90","637801","0.0-6.0-84.0","2","[""img/0902/82d20e8c-2162-47a6-925b-52906558c046.jpg"",""img/0867/98d8cd96-1476-4fe0-a3a3-04f875500a1b.jpg""]","",""
"","2154","similarity","91","640967","0.0-6.0-85.0","1","[""img/0901/58ec7fa9-b466-4651-90aa-c082df0972de.jpg"",""img/0875/e7e66b13-b573-431e-b85e-288ce04a35a3.jpg""]","",""
"","3347","similarity","92","645332","0.0-6.0-86.0","2","[""img/0764/d0bef2e0-e16b-4c82-9451-c1d16265eb67.jpg"",""img/0866/d266fece-59b3-46fa-b69f-96f6efb81b59.jpg""]","",""
"","3105","similarity","93","649458","0.0-6.0-87.0","5","[""img/0901/00acf6c1-b66e-4060-bb04-4caf29b5a8b0.jpg"",""img/0894/11674fa4-285d-44e2-939f-2228c6a64080.jpg""]","",""
"","5056","similarity","94","655529","0.0-6.0-88.0","5","[""img/0898/01bfe666-3510-4fc7-964f-d00d28732dc8.jpg"",""img/0769/96556ef3-7fac-4c9d-8281-1cb0ea5081bc.jpg""]","",""
"","5068","similarity","95","661605","0.0-6.0-89.0","7","[""img/0769/db94b61b-a5a7-4861-9d32-7b02ad194fb0.jpg"",""img/0894/b422d5c6-3c5a-49ae-a53e-7e88ac993f49.jpg""]","",""
"","4233","similarity","96","666854","0.0-6.0-90.0","5","[""img/0862/ba89835a-408c-480b-8594-ed4ffa97eb5c.jpg"",""img/0874/1016b306-087c-4afc-aa08-fa527b28dc76.jpg""]","",""
"","4038","similarity","97","671900","0.0-6.0-91.0","5","[""img/0894/e6385e52-6c35-43bd-b0af-bc803d107b11.jpg"",""img/0766/33519c22-aaa4-49d7-8d49-ab551db1945e.jpg""]","",""
"","3398","similarity","98","676303","0.0-6.0-92.0","4","[""img/0874/eba003b4-cdab-4eee-8bc3-f064c7d94165.jpg"",""img/0867/7d1c497b-c1b3-4ed8-abb5-d7f73306015f.jpg""]","",""
"","3108","similarity","99","680416","0.0-6.0-93.0","1","[""img/0899/b45c550b-96c3-4255-ad59-48a2b4db1c1e.jpg"",""img/0868/3a62db2d-97e9-44a3-b8e3-a48c6f0e423b.jpg""]","",""
"","3682","similarity","100","685109","0.0-6.0-94.0","3","[""img/0903/97a42b34-5462-4665-88c7-83c014b33d24.jpg"",""img/0862/e697469a-ec19-4414-b972-7b9f3564785b.jpg""]","",""
"","6162","similarity","101","692272","0.0-6.0-95.0","5","[""img/0899/66bf4113-ee12-426c-84d2-ea410b6c803e.jpg"",""img/0766/ea09dd5a-d24d-4e97-a099-7da3db1baef1.jpg""]","",""
"","3938","similarity","102","697218","0.0-6.0-96.0","7","[""img/0867/f8159067-056c-41f1-a136-c529fe5e970a.jpg"",""img/0868/c8ac40c7-6904-4e13-8d61-c75d3052dc4e.jpg""]","",""
"","4445","similarity","103","702672","0.0-6.0-97.0","3","[""img/0862/eefa5588-9efd-4591-aa5f-a2e17c7d7bcc.jpg"",""img/0901/1b86f2fc-7a1d-4aa8-9252-114f92edef3b.jpg""]","",""
"","3434","similarity","104","707114","0.0-6.0-98.0","1","[""img/0875/f87b67d7-c33e-40d1-b281-248c4be1cb6e.jpg"",""img/0766/09f646c8-a69e-4ed3-879c-8d29b04ad7f9.jpg""]","",""
"","4153","similarity","105","712274","0.0-6.0-99.0","7","[""img/0758/9fb5b2fe-3f00-4fe6-973c-1ce10d5f4cd5.jpg"",""img/0874/85eb9b8a-c4c6-4e5a-b8e7-363a87a82054.jpg""]","",""
"","3718","similarity","106","717000","0.0-6.0-100.0","1","[""img/0904/da170c1b-9651-4f08-b231-2bdd1d9a046f.jpg"",""img/0868/15dd6fd7-791e-4b53-b203-195d617521a4.jpg""]","",""
"","3282","similarity","107","721287","0.0-6.0-101.0","3","[""img/0903/59defeb8-98bd-4570-a2f8-9bd189e68ef4.jpg"",""img/0866/c446214b-a368-4c65-ae39-ea46894256ab.jpg""]","",""
"","3461","similarity","108","725762","0.0-6.0-102.0","4","[""img/0868/6a28c3b0-3d76-498a-9fb7-ddafc665eca8.jpg"",""img/0769/4680bcc3-8fbc-4643-8f9a-12aa0e780b64.jpg""]","",""
"","4179","similarity","109","730945","0.0-6.0-103.0","5","[""img/0902/31abfa33-7cdb-44ad-968e-9f7b324d577a.jpg"",""img/0899/51a7a498-98c7-42d7-bca8-bc2d8f0b5831.jpg""]","",""
"","5888","similarity","110","737842","0.0-6.0-104.0","6","[""img/0868/e0aff734-077f-40dd-9781-74821abd3621.jpg"",""img/0862/1c20f772-3a51-4a80-aac0-f57dc9f86c28.jpg""]","",""
"","4947","similarity","111","743790","0.0-6.0-105.0","6","[""img/0903/07b445ee-0cdb-4d2c-a23b-d727613f4059.jpg"",""img/0894/661b9f9f-4bde-487a-b1ed-87085fde6948.jpg""]","",""
"","3070","similarity","112","747865","0.0-6.0-106.0","7","[""img/0864/1ebbc554-99fa-49f9-8799-317375a79820.jpg"",""img/0874/ca76a855-4e77-4f2f-872a-0a718153e7ed.jpg""]","",""
"","2834","similarity","113","751704","0.0-6.0-107.0","1","[""img/0862/f188d4f0-76a4-4102-818c-a209969d73a5.jpg"",""img/0902/6c2c243a-f663-45db-baf5-038d3d58c589.jpg""]","",""
"","3559","similarity","114","756270","0.0-6.0-108.0","7","[""img/0904/4d7d70a3-9477-4921-bda0-f9531d0a5c5b.jpg"",""img/0903/45e2d600-57ff-4d69-b22c-0c7896cd38f0.jpg""]","",""
"","4100","similarity","115","761377","0.0-6.0-109.0","3","[""img/0764/952d7adc-dc40-4aee-acce-18c2a1d02ea1.jpg"",""img/0864/8ddd2e30-a1d0-479f-9cbe-591213023893.jpg""]","",""
"","6462","similarity","116","768850","0.0-6.0-110.0","4","[""img/0866/be24ab58-230e-4db8-9f45-ff04c9aec6bb.jpg"",""img/0894/10f22b96-040c-44f4-950b-a4963f3f506c.jpg""]","",""
"","4788","similarity","117","774641","0.0-6.0-111.0","3","[""img/0899/9de5e857-aa9a-4e0c-8ba2-46d79bd069a4.jpg"",""img/0903/f67c4ab9-f8c2-4fcd-848a-a54a7b031002.jpg""]","",""
"","3363","similarity","118","779006","0.0-6.0-112.0","4","[""img/0902/1a120fb9-dbd6-443e-ba91-b4aceab963da.jpg"",""img/0904/b7c2a2c8-df33-4473-b3d4-ff7147c60db3.jpg""]","",""
"","4365","similarity","119","784376","0.0-6.0-113.0","3","[""img/0864/e336a4c5-6648-4fd7-b2f6-93a3fb83f8c6.jpg"",""img/0860/94ef7afc-e0e6-4a15-98c6-0bfac82bc832.jpg""]","",""
"","4699","similarity","120","790079","0.0-6.0-114.0","2","[""img/0860/5bff793e-cbd5-4d7e-b628-0ac2b0e30b64.jpg"",""img/0899/25ae6ec8-9565-49fe-a8bb-8d0666f52716.jpg""]","",""
"","4314","similarity","121","795399","0.0-6.0-115.0","4","[""img/0881/48ed65a5-471f-41af-86ec-3793805c116d.jpg"",""img/0903/aa842abe-6fa3-448a-bf71-88d3ad28663b.jpg""]","",""
"","4191","similarity","122","800602","0.0-6.0-116.0","2","[""img/0894/8cadb87a-7001-4e47-99fb-1867bebf1668.jpg"",""img/0874/767f289c-9814-4496-803f-745cc8913d1f.jpg""]","",""
"","3043","similarity","123","804650","0.0-6.0-117.0","4","[""img/0881/5fe04dd0-5c74-47b7-99c8-b068db9ca26a.jpg"",""img/0862/47ed5efd-4ec9-4b74-bb4e-a5f5cf0c3e7d.jpg""]","",""
"","3307","similarity","124","808960","0.0-6.0-118.0","5","[""img/0868/4a8a45ed-2c4f-421b-9564-409a33ecd26c.jpg"",""img/0875/5a1e5100-0d94-4fec-bbe9-ca9894d2cf8e.jpg""]","",""
"","3809","similarity","125","813774","0.0-6.0-119.0","4","[""img/0860/8a92e21b-6a32-4e4a-a445-2d5a487ed0a4.jpg"",""img/0758/d57c2592-a317-4f63-91be-91a3a9afd222.jpg""]","",""
"","3876","similarity","126","818657","0.0-6.0-120.0","4","[""img/0864/ef9cbca0-4be8-435d-ad49-977259e80409.jpg"",""img/0875/5a716432-c6ca-4b1c-955a-2b8ac25198ee.jpg""]","",""
"","3875","similarity","127","823540","0.0-6.0-121.0","2","[""img/0898/a114b375-cb89-44ba-9498-74213f1ecdee.jpg"",""img/0866/945c6710-d15b-4a5b-a8f6-69af0850357f.jpg""]","",""
"","3287","similarity","128","827838","0.0-6.0-122.0","1","[""img/0874/31e22c7c-99aa-40b1-bf03-dd73fa2df4d6.jpg"",""img/0904/0d17b811-063e-416e-a23c-3b3cfa4fcce5.jpg""]","",""
"","5268","similarity","129","834125","0.0-6.0-123.0","4","[""img/0904/2fd488e9-960f-41f7-8a44-33375f7d5051.jpg"",""img/0864/5f74a653-3bdc-4308-8cca-ac667dc22e1f.jpg""]","",""
"","3041","similarity","130","838180","0.0-6.0-124.0","6","[""img/0894/0130a973-d993-41f8-874a-fee23d9ac11f.jpg"",""img/0902/a323b62d-2fd5-4ac8-acc6-35b768f3c3f2.jpg""]","",""
"","4392","similarity","131","846558","0.0-6.0-125.0","5","[""img/0868/d6d1f30d-4323-435a-b194-7892521bc57e.jpg"",""img/0864/5f33e097-23e3-4002-882d-76e8cb15f451.jpg""]","",""
"","5018","similarity","132","852585","0.0-6.0-126.0","3","[""img/0899/565ccdd9-0933-4536-a625-3c0e25a713dd.jpg"",""img/0866/07c9c966-3c8d-40e7-8128-92b2acbaed5d.jpg""]","",""
"","2624","similarity","133","856214","0.0-6.0-127.0","2","[""img/0875/34132396-d896-4c2d-8087-646dd867e769.jpg"",""img/0904/4b8daf2a-13a9-4ea9-9e0b-b265b6e933e7.jpg""]","",""
"","3254","similarity","134","860480","0.0-6.0-128.0","3","[""img/0867/f26f6b60-f772-4f4c-95a4-addc62cfd692.jpg"",""img/0899/ddf96ade-692e-4602-bd22-dedbb46401bc.jpg""]","",""
"","3115","similarity","135","864603","0.0-6.0-129.0","1","[""img/0901/148b747a-7392-437e-8823-33053c5dff3f.jpg"",""img/0867/50a1b60e-3a29-44bf-b606-d4bd3746fea9.jpg""]","",""
"","2883","similarity","136","868490","0.0-6.0-130.0","3","[""img/0864/c22faebd-9c53-47bc-ada3-b9a30c688e75.jpg"",""img/0769/47700831-0ca2-4fdd-a498-a3bc5a528f43.jpg""]","",""
"","6020","similarity","137","875512","0.0-6.0-131.0","2","[""img/0903/0e5c2854-42aa-48c0-9c3d-6e1ad2a400bd.jpg"",""img/0868/293079b8-7e0c-4afd-a390-1e5d35fe3ded.jpg""]","",""
"","5033","similarity","138","881554","0.0-6.0-132.0","6","[""img/0864/da39ad34-04e0-40d4-a724-c08d53e0ea09.jpg"",""img/0867/bf560d4f-dee3-4f11-a385-705cc1aa5f3c.jpg""]","",""
"","5482","similarity","139","888047","0.0-6.0-133.0","4","[""img/0901/bc47e078-bda4-40ed-b89a-bbd819164b95.jpg"",""img/0860/61fb959d-d4d9-4de4-9e4e-4fa62b4cfcd5.jpg""]","",""
"","3384","similarity","140","892438","0.0-6.0-134.0","3","[""img/0881/7e822106-76f7-4b10-a805-14dc68b2cfaf.jpg"",""img/0766/989c5c7f-1aff-4442-ac63-9d46acf4a891.jpg""]","",""
"","3961","similarity","141","897413","0.0-6.0-135.0","3","[""img/0903/2c7b4aed-6038-4aac-958a-e3e58341c313.jpg"",""img/0864/ea327690-500b-4137-bf91-451b309fe6a5.jpg""]","",""
"","3254","similarity","142","901674","0.0-6.0-136.0","3","[""img/0758/6cd8c362-ae2a-41eb-80a3-3a4f7ace1530.jpg"",""img/0894/5ff3c4f6-52e2-4075-8679-be0312e59703.jpg""]","",""
"","4205","similarity","143","906891","0.0-6.0-137.0","3","[""img/0769/04347740-f8f6-48bb-887a-f68babd0a0d4.jpg"",""img/0860/e14d67c1-6d92-4f1e-9257-c8607159c19c.jpg""]","",""
"","3513","similarity","144","911407","0.0-6.0-138.0","3","[""img/0904/63dd06dd-dccb-47ba-9740-eb33239e18a7.jpg"",""img/0766/a0270213-fa0e-4972-8b56-228c3e01ff90.jpg""]","",""
"","5497","similarity","145","917918","0.0-6.0-139.0","5","[""img/0868/8b0b8473-e2c0-4331-aa56-c3a5c29369da.jpg"",""img/0860/9593362c-9fe5-4d12-9735-6000a11f6aa5.jpg""]","",""
"","5245","similarity","146","924174","0.0-6.0-140.0","6","[""img/0758/7fba58df-2a7a-4b76-8a8f-62739f97f271.jpg"",""img/0864/66091c27-e588-4476-8af9-265dc6be4156.jpg""]","",""
"","4386","similarity","147","929569","0.0-6.0-141.0","7","[""img/0867/075e0f95-856b-4cbb-acf5-092393aaf04e.jpg"",""img/0867/8ba0c5a7-c7e4-42cf-a80a-543763b90779.jpg""]","",""
"","4515","similarity","148","935084","0.0-6.0-142.0","7","[""img/0898/82231d4c-218b-4d0a-b50d-35a49b524e97.jpg"",""img/0898/68476bbb-34a1-42d9-8bc1-deab783d4489.jpg""]","",""
"","5639","similarity","149","941733","0.0-6.0-143.0","4","[""img/0866/a04d37f0-99dd-478a-b6c6-58b215138f84.jpg"",""img/0769/f73c5138-2f4c-4354-981c-129dff9cc734.jpg""]","",""
"","2929","similarity","150","945673","0.0-6.0-144.0","5","[""img/0860/8277806e-b684-4474-8f7b-3fca946d7d4f.jpg"",""img/0898/b3290bf9-215b-4b45-b21a-65bdf73f142f.jpg""]","",""
"","5685","similarity","151","952370","0.0-6.0-145.0","3","[""img/0766/79767d11-b612-4e8a-9e4b-a8ac95bb6a54.jpg"",""img/0864/6f631579-acf1-415c-a42c-1207f62a8d99.jpg""]","",""
"","8366","similarity","152","961747","0.0-6.0-146.0","5","[""img/0860/c47fdead-eb02-4989-b078-26f4852f44fe.jpg"",""img/0903/6378ee1e-3d2b-48d2-87be-bebda32c8268.jpg""]","",""
"","4047","similarity","153","966799","0.0-6.0-147.0","3","[""img/0867/a749dddb-69f0-44a6-acdc-2bf295cf6dcc.jpg"",""img/0764/da207710-e7e4-4f42-b2e6-99b5f357f433.jpg""]","",""
"","5210","similarity","154","973023","0.0-6.0-148.0","6","[""img/0769/662ab839-88d1-4ebf-af05-9b2980cad943.jpg"",""img/0904/fe746a3f-8458-48d0-8a13-8cba2a9df9f8.jpg""]","",""
"","4102","similarity","155","978135","0.0-6.0-149.0","5","[""img/0764/ef0e64c6-d0dd-4dc6-87b6-ce5c0665f421.jpg"",""img/0901/443f2e59-199b-4f7b-9de9-c44ad97326a5.jpg""]","",""
"","3587","similarity","156","982739","0.0-6.0-150.0","5","[""img/0904/09934646-45d2-4147-8fec-64a22a5ac822.jpg"",""img/0899/57476fed-5962-4272-8fc9-b317bb777b54.jpg""]","",""
"","3136","similarity","157","986892","0.0-6.0-151.0","4","[""img/0862/cdaed51d-9e2f-4807-801a-4663c40077e2.jpg"",""img/0867/12264664-1860-46df-8c21-162b9817cdda.jpg""]","",""
"","3040","similarity","158","990937","0.0-6.0-152.0","7","[""img/0766/0b48f9e0-7d37-4161-8adb-4e3f5b6b7583.jpg"",""img/0766/1bc0dccc-a5b5-4375-87fa-28360ca42b12.jpg""]","",""
"","3238","similarity","159","995188","0.0-6.0-153.0","2","[""img/0862/064818ee-13d5-4618-bb24-21c7368ea278.jpg"",""img/0894/3664e04c-c6d3-4c9b-afb6-25d89974b174.jpg""]","",""
"","3655","similarity","160","999858","0.0-6.0-154.0","3","[""img/0899/ad8268c5-8199-48d0-ad70-c5b6d6c599ec.jpg"",""img/0901/8bb79e82-9c43-4b6f-a655-40655519598b.jpg""]","",""
"","4732","similarity","161","1005605","0.0-6.0-155.0","7","[""img/0874/adf9a8f1-c40b-402b-b95b-1e85a54a7b62.jpg"",""img/0874/2c9464dd-8a23-4baa-ac94-1ba3af5c15cc.jpg""]","",""
"","8550","similarity","162","1015165","0.0-6.0-156.0","5","[""img/0860/17b44a7d-c5ca-479f-9e87-f65a64f5c80e.jpg"",""img/0867/c71dc569-f49c-4397-8381-68b8d726736d.jpg""]","",""
"","3615","similarity","163","1019790","0.0-6.0-157.0","4","[""img/0901/6e2957f8-f5ab-46f4-87cc-bb50155a098b.jpg"",""img/0881/f4e3e181-b3c9-4af2-a5a4-fc135ab70d2e.jpg""]","",""
"","3382","similarity","164","1024183","0.0-6.0-158.0","7","[""img/0903/36e4ab1f-caa9-40b3-8616-faada076df94.jpg"",""img/0902/e5a46bda-30d1-41ca-b36d-b8529b5a63d1.jpg""]","",""
"","4260","similarity","165","1029461","0.0-6.0-159.0","4","[""img/0860/87039971-2210-4aab-93c0-8e9b5f1655b2.jpg"",""img/0764/c80b3e06-2ee3-4326-9678-340607eb5348.jpg""]","",""
"","2929","similarity","166","1033396","0.0-6.0-160.0","1","[""img/0902/aa6fca32-82b0-4414-b20a-8f6f8aa5a2d2.jpg"",""img/0875/ebf7653f-ff45-4e9f-af58-2c042ab3cd2b.jpg""]","",""
"","5546","similarity","167","1039949","0.0-6.0-161.0","2","[""img/0898/0c7dde4f-efce-4b7a-9387-6921635b7890.jpg"",""img/0862/fad1d7c1-8187-43c3-942a-0fc12183e48e.jpg""]","",""
"","3150","similarity","168","1044109","0.0-6.0-162.0","2","[""img/0894/5c7677b0-a4f1-479e-b274-7822c415175a.jpg"",""img/0875/8521fd58-3b1e-4dc5-97ae-804edfa6734a.jpg""]","",""
"","4461","similarity","169","1049581","0.0-6.0-163.0","5","[""img/0866/d493a2c8-66eb-44b4-be02-2f327b700b7c.jpg"",""img/0864/300bb811-8b3c-4c42-8653-6097c3725197.jpg""]","",""
"","4672","similarity","170","1055262","0.0-6.0-164.0","3","[""img/0766/f3276cc4-65de-4c2d-88d5-6cfebce14b8f.jpg"",""img/0862/de9ad88c-b522-430a-8ee9-eb06a9f85df5.jpg""]","",""
"","3509","similarity","171","1059782","0.0-6.0-165.0","6","[""img/0866/11a1d141-be5e-443c-98c1-a9d4d9e3dec0.jpg"",""img/0874/99f6563c-8a8d-4c1c-a41d-667b618c3fd5.jpg""]","",""
"","5426","similarity","172","1066216","0.0-6.0-166.0","2","[""img/0862/847e5208-38ec-4f36-949c-296cdd7424ee.jpg"",""img/0860/8fdba999-b946-4c7d-9891-336018b563ef.jpg""]","",""
"","5465","similarity","173","1084649","0.0-6.0-167.0","6","[""img/0766/214866ee-423d-4629-9bb9-41572bdc7dac.jpg"",""img/0901/c6c877e0-dd63-4e00-9657-33af29d55aab.jpg""]","",""
"","4768","similarity","174","1090430","0.0-6.0-168.0","7","[""img/0862/d0ca4c78-fc35-46ed-bdcc-8e124283c53e.jpg"",""img/0862/fb26cb07-d5a9-4653-813c-f41609f26cd5.jpg""]","",""
"","3663","similarity","175","1095104","0.0-6.0-169.0","7","[""img/0894/3adef67d-7676-4995-80b2-bb31b8aca3ef.jpg"",""img/0764/974d52cc-6318-4e7a-b294-2f3e92ff800f.jpg""]","",""
"","3149","similarity","176","1099262","0.0-6.0-170.0","3","[""img/0874/8cdb1c07-1c32-46d2-981c-3636560fa6e5.jpg"",""img/0898/881e2a85-d5c2-49be-a0c6-8a6ce2c4af08.jpg""]","",""
"","4494","similarity","177","1104766","0.0-6.0-171.0","4","[""img/0860/c5ccd1a4-4bb7-48e1-9b25-72cfaf06909b.jpg"",""img/0766/717fd72f-a281-499b-a5ba-5e2ecc4d4866.jpg""]","",""
"","3493","similarity","178","1109272","0.0-6.0-172.0","3","[""img/0898/08c72dac-f8ad-407a-9ce6-8c9a5d679c3a.jpg"",""img/0864/e8bd659f-aa43-4748-877e-3118e8b4e189.jpg""]","",""
"","4438","similarity","179","1114720","0.0-6.0-173.0","3","[""img/0881/4bd34581-94d8-4e88-8c89-5cef864ca3be.jpg"",""img/0764/39a9fc7e-b863-432c-9374-de43983f31a5.jpg""]","",""
"","4622","similarity","180","1120352","0.0-6.0-174.0","1","[""img/0898/79233891-305a-4a6a-8ddf-5c8604858203.jpg"",""img/0868/7b212364-ff5f-4e28-9241-7eb6ea00161b.jpg""]","",""
"","4431","similarity","181","1125789","0.0-6.0-175.0","7","[""img/0864/0f537697-a314-47c3-a8cc-8df23b7e536c.jpg"",""img/0864/3651d070-2fc5-4848-b6a6-088a2d9ac5c9.jpg""]","",""
"","4637","similarity","182","1131436","0.0-6.0-176.0","2","[""img/0899/0e1d936a-dbe2-4afc-9f19-7b7a1ae6c9ed.jpg"",""img/0862/24cdc752-c2e5-4a17-86a6-6f2045d8553b.jpg""]","",""
"","4125","similarity","183","1136566","0.0-6.0-177.0","4","[""img/0875/3ecb367d-e9eb-4826-8aaa-7aa72fb98019.jpg"",""img/0758/67c0be2f-9e91-48b3-8219-70ac0a1802fa.jpg""]","",""
"","4918","similarity","184","1142493","0.0-6.0-178.0","3","[""img/0866/386235d2-6857-41e7-88a8-25cfc3430025.jpg"",""img/0901/50e1d53e-a49f-4806-8610-be6dec5a2475.jpg""]","",""
"","4255","similarity","185","1147759","0.0-6.0-179.0","3","[""img/0769/878531fd-e0e8-4ad1-b9ad-f018bb104ca0.jpg"",""img/0874/3ce41e7c-40c8-4d58-a546-171114521796.jpg""]","",""
"","3961","similarity","186","1152728","0.0-6.0-180.0","4","[""img/0875/5a7c4e35-6514-4e12-8879-d16071da4cd6.jpg"",""img/0881/c24f3051-eefa-42de-aba6-fccb56d93c70.jpg""]","",""
"","4169","similarity","187","1157905","0.0-6.0-181.0","7","[""img/0866/23a224f3-2012-4fc8-8e0f-3c36f8de27fd.jpg"",""img/0868/d98ca254-b195-477f-b57e-5760a2717db8.jpg""]","",""
"","4266","similarity","188","1163178","0.0-6.0-182.0","2","[""img/0899/4408c14d-c168-4a7d-96f6-bc87bfb58f83.jpg"",""img/0758/6e95579b-5166-487c-b8cb-e417c6a218e3.jpg""]","",""
"","5064","similarity","189","1169257","0.0-6.0-183.0","5","[""img/0874/a82926a3-0b43-4add-803c-d5f9ea7798ee.jpg"",""img/0875/cff79b3a-a797-4393-9757-6275f999ec04.jpg""]","",""
"","2879","similarity","190","1173144","0.0-6.0-184.0","3","[""img/0904/d23dd7be-7fe8-4435-82f7-bd592c01e6a1.jpg"",""img/0862/ad593cc7-cabe-4bb7-8e14-8a447a0717b4.jpg""]","",""
"","3325","similarity","191","1177478","0.0-6.0-185.0","7","[""img/0902/7f1dcd35-237a-4995-9e42-7f63f3f434d4.jpg"",""img/0766/f011ef45-fb48-44b8-8224-867ed2ccf786.jpg""]","",""
"","3268","similarity","192","1181752","0.0-6.0-186.0","2","[""img/0758/2fa3e613-e676-4e6e-bd12-705327eeb3e1.jpg"",""img/0769/48a1144d-fbda-4809-991b-fc8424a32ee4.jpg""]","",""
"","3983","similarity","193","1186746","0.0-6.0-187.0","7","[""img/0881/f7a8cc63-8842-40a4-9ff8-fe530310d62c.jpg"",""img/0881/0c7068da-d0d9-4103-bda1-74ef7a2b32c3.jpg""]","",""
"","2954","similarity","194","1190716","0.0-6.0-188.0","4","[""img/0758/61d64021-9214-4951-bdf8-f871f9827cf9.jpg"",""img/0866/6f2a90d7-14f1-4f1b-bd64-fc0af6b9fe44.jpg""]","",""
"","3676","similarity","195","1195403","0.0-6.0-189.0","2","[""img/0764/03c07b98-3f18-4b71-bb70-ecff564a78d1.jpg"",""img/0898/224c1572-56b9-4f16-a9e4-6f3bc9c114bd.jpg""]","",""
"","5013","similarity","196","1201425","0.0-6.0-190.0","6","[""img/0903/b548d383-2a95-4575-8c13-647873751ff1.jpg"",""img/0901/a0d65c84-3f20-476a-92d1-0c01e8019cf4.jpg""]","",""
"","2822","similarity","197","1205260","0.0-6.0-191.0","7","[""img/0902/d2c34af0-8c50-437d-8cc3-619195a3e8ba.jpg"",""img/0898/ec565187-2e31-4fdd-9a5c-153d0c789ae0.jpg""]","",""
"","4847","similarity","198","1211113","0.0-6.0-192.0","4","[""img/0864/6e846d43-94a6-4b37-a268-65eda979f052.jpg"",""img/0901/875dedb9-24c9-4443-9f8c-85e97d70ee5a.jpg""]","",""
"","3562","similarity","199","1215687","0.0-6.0-193.0","2","[""img/0894/2d2db7b3-e8a3-499b-b63a-14f51bf73882.jpg"",""img/0881/344de456-b358-4887-bd0e-e4c3278af887.jpg""]","",""
"","2503","similarity","200","1219197","0.0-6.0-194.0","7","[""img/0868/5fa7f9d0-f0e5-454c-8224-74d964818f56.jpg"",""img/0868/fd307a36-9a3a-47d7-ab7c-f810d0b35040.jpg""]","",""
"","3827","similarity","201","1224035","0.0-6.0-195.0","7","[""img/0899/d8f2dd94-570e-4e8c-a087-d96090fb9e8c.jpg"",""img/0764/1f95ab5f-fb65-4d70-b5db-d6bd6351a8aa.jpg""]","",""
"","5042","similarity","202","1230090","0.0-6.0-196.0","2","[""img/0881/f6bd3b96-dc40-4e99-8681-bc3a35cf896d.jpg"",""img/0904/9dd5708f-3f8b-46a9-b49f-2f2fab87b357.jpg""]","",""
"","5375","similarity","203","1236484","0.0-6.0-197.0","2","[""img/0864/1d15626a-2f7c-410f-819c-0fa2c967e95e.jpg"",""img/0902/b56db912-c3c0-4fc2-b325-d640acd7cb58.jpg""]","",""
"","5612","similarity","204","1243102","0.0-6.0-198.0","6","[""img/0894/6b2e9509-8699-42b7-9582-7741df0ba2d7.jpg"",""img/0904/73920552-103b-4c9c-9ece-e0b8376b4504.jpg""]","",""
"","4197","similarity","205","1248300","0.0-6.0-199.0","7","[""img/0901/deff6cfb-0072-4490-bc3e-206bbcd3e8bf.jpg"",""img/0901/f469cb1d-6d81-4a45-bab5-cd0b650c2b4f.jpg""]","",""
"","4144","similarity","206","1253462","0.0-6.0-200.0","3","[""img/0894/9b1333fd-3561-43bf-aee5-99b7b7ca3dc3.jpg"",""img/0860/f44ba3fb-03a2-42f0-8509-2c1ded493086.jpg""]","",""
"","2425","similarity","207","1256901","0.0-6.0-201.0","7","[""img/0898/6cd3830b-d44e-4915-be2b-88d31424b91c.jpg"",""img/0903/c708d08f-a108-4e04-8288-c3fcf6375db4.jpg""]","",""
"","4706","similarity","208","1262616","0.0-6.0-202.0","1","[""img/0864/e02eddb5-f468-499c-91bf-f7be3ffe979b.jpg"",""img/0894/7fb082e0-ce79-485c-9109-04367fb32275.jpg""]","",""
"","4777","similarity","209","1268409","0.0-6.0-203.0","6","[""img/0874/ca23d307-fc00-4d7d-9106-584c6eb21b4d.jpg"",""img/0860/71e1aad0-2cdf-43bb-94a4-a8c016997c30.jpg""]","",""
"","3483","similarity","210","1272899","0.0-6.0-204.0","4","[""img/0862/92fcd8a4-8193-4a6a-ae09-dd4a6338b0df.jpg"",""img/0875/42910c99-5463-450a-a0f8-d4d060a11455.jpg""]","",""
"","2101","similarity","211","1276005","0.0-6.0-205.0","4","[""img/0867/5e07b34d-b40f-4b1c-ac10-49975bace45f.jpg"",""img/0881/d373cb9f-a719-4549-a2a4-82def79fb2a5.jpg""]","",""
"","4219","similarity","212","1281233","0.0-6.0-206.0","6","[""img/0901/b123d109-47b4-4f9a-80c9-9bb16da42efa.jpg"",""img/0902/5b45a7a0-81c8-4a71-aaa2-2ce09adb5a29.jpg""]","",""
"","4786","similarity","213","1287031","0.0-6.0-207.0","4","[""img/0899/a048912c-b12c-40e3-90af-46b69b0cc4fe.jpg"",""img/0864/49150900-7f25-4ce8-8d10-9b47a71d1997.jpg""]","",""
"","4046","similarity","214","1292085","0.0-6.0-208.0","6","[""img/0901/d4d09bf5-093e-4050-838e-7c738be8e63c.jpg"",""img/0769/688d0c52-ad73-4065-a5eb-f8c10d076bff.jpg""]","",""
"","3623","similarity","215","1302588","0.0-6.0-209.0","7","[""img/0902/4e0baa32-988e-46f6-989d-f669225ab645.jpg"",""img/0902/c018bd7a-d91a-4192-aea4-7259cfcdb6c4.jpg""]","",""
"[{""page_index"":0,""viewing_time"":5614}]","5614","instructions","216","1309207","0.0-7.0","","","",""
"","58913","image-multi-choice","217","1369164","0.0-8.0-0.0","","","{""Q0"":""Tennessee Warbler""}","Nashville Warbler"
"","5009","image-multi-choice","218","1375202","0.0-8.0-1.0","","","{""Q0"":""Black-and-white Warbler""}","Black-and-white Warbler"
"","10467","image-multi-choice","219","1386697","0.0-8.0-2.0","","","{""Q0"":""Tennessee Warbler""}","Townsend's Warbler"
"","8009","image-multi-choice","220","1395739","0.0-8.0-3.0","","","{""Q0"":""Lark Sparrow""}","Lark Sparrow"
"","3020","image-multi-choice","221","1399789","0.0-8.0-4.0","","","{""Q0"":""Yellow Warbler""}","Yellow Warbler"
"","5589","image-multi-choice","222","1406406","0.0-8.0-5.0","","","{""Q0"":""Orange-crowned Warbler""}","Orange-crowned Warbler"
"","6418","image-multi-choice","223","1413864","0.0-8.0-6.0","","","{""Q0"":""White-throated Sparrow""}","White-throated Sparrow"
"","4595","image-multi-choice","224","1419486","0.0-8.0-7.0","","","{""Q0"":""Fox Sparrow""}","Fox Sparrow"
"","36393","image-multi-choice","225","1456924","0.0-8.0-8.0","","","{""Q0"":""Swamp Sparrow""}","Song Sparrow"
"","10209","image-multi-choice","226","1468152","0.0-8.0-9.0","","","{""Q0"":""Blackburnian Warbler""}","Blackburnian Warbler"
"","6273","image-multi-choice","227","1475432","0.0-8.0-10.0","","","{""Q0"":""Song Sparrow""}","Vesper Sparrow"
"","4148","image-multi-choice","228","1480589","0.0-8.0-11.0","","","{""Q0"":""White-crowned Sparrow""}","White-crowned Sparrow"
"","12694","image-multi-choice","229","1494307","0.0-8.0-12.0","","","{""Q0"":""American Tree Sparrow""}","American Tree Sparrow"
"","13663","image-multi-choice","230","1509007","0.0-8.0-13.0","","","{""Q0"":""Magnolia Warbler""}","Tennessee Warbler"
"","7358","image-multi-choice","231","1517398","0.0-8.0-14.0","","","{""Q0"":""Tennessee Warbler""}","Magnolia Warbler"
"","6395","image-multi-choice","232","1524821","0.0-8.0-15.0","","","{""Q0"":""Northern Waterthrush""}","Northern Waterthrush"
"","11140","image-multi-choice","233","1536978","0.0-8.0-16.0","","","{""Q0"":""Chipping Sparrow""}","Chipping Sparrow"
"","8514","image-multi-choice","234","1546516","0.0-8.0-17.0","","","{""Q0"":""American Tree Sparrow""}","Swamp Sparrow"
"","11167","image-multi-choice","235","1558713","0.0-8.0-18.0","","","{""Q0"":""Song Sparrow""}","Lincoln's Sparrow"
"","5489","image-multi-choice","236","1565235","0.0-8.0-19.0","","","{""Q0"":""Ovenbird""}","Ovenbird"
