"view_history","rt","trial_type","trial_index","time_elapsed","internal_node_id","sim_score","stimulus","responses","answer"
"[{""page_index"":0,""viewing_time"":13118}]","13120","instructions","0","13123","0.0-0.0","","","",""
"","7569","similarity_demo","1","21711","0.0-1.0","5","[""img/866.jpg"",""img/868.jpg""]","",""
"[{""page_index"":0,""viewing_time"":34915}]","34917","instructions","2","57631","0.0-2.0","","","",""
"","8041","similarity_demo","3","66681","0.0-3.0","2","[""img/766.jpg"",""img/867.jpg""]","",""
"[{""page_index"":0,""viewing_time"":6077}]","6078","instructions","4","73760","0.0-4.0","","","",""
"[{""page_index"":0,""viewing_time"":14140}]","14141","instructions","5","88902","0.0-5.0","","","",""
"","6013","similarity","6","95927","0.0-6.0-0.0","3","[""img/0868/77091fc7-a590-4ebb-b915-fdb2483a2399.jpg"",""img/0901/71e551a2-9ce2-409c-9c7c-dd556a0791e9.jpg""]","",""
"","4819","similarity","7","101753","0.0-6.0-1.0","3","[""img/0769/c7cfacc3-7f07-46ff-9f5d-8073f4c4679b.jpg"",""img/0867/5e07b34d-b40f-4b1c-ac10-49975bace45f.jpg""]","",""
"","6106","similarity","8","108876","0.0-6.0-2.0","5","[""img/0766/535849cc-ff5d-4df9-8f31-0ce94a97d571.jpg"",""img/0898/993d8f2d-bef7-4251-a193-0f93a32b7763.jpg""]","",""
"","5756","similarity","9","115640","0.0-6.0-3.0","3","[""img/0902/3f0eeac5-c996-4026-a376-563ce8f28521.jpg"",""img/0881/e6746727-7f89-47ec-b939-d98abe78372d.jpg""]","",""
"","4720","similarity","10","121370","0.0-6.0-4.0","6","[""img/0894/38cf335f-f76f-4349-8d65-e20cd6859565.jpg"",""img/0894/1b3888e6-cf36-4c4a-a039-187aa5cb71ac.jpg""]","",""
"","4989","similarity","11","127366","0.0-6.0-5.0","2","[""img/0874/a3bc679d-619f-4db6-bb68-116dcb757d9c.jpg"",""img/0899/d60714ae-98d7-4564-8c98-94dba1351135.jpg""]","",""
"","5637","similarity","12","134010","0.0-6.0-6.0","5","[""img/0904/ba8e689e-9ca6-4608-a2a1-3b0940666ae6.jpg"",""img/0764/29072395-f595-4e3c-83d3-ff87010039fa.jpg""]","",""
"","5419","similarity","13","140436","0.0-6.0-7.0","5","[""img/0899/4408c14d-c168-4a7d-96f6-bc87bfb58f83.jpg"",""img/0898/8605a25b-6895-476d-8c13-df7a83f96093.jpg""]","",""
"","4197","similarity","14","145641","0.0-6.0-8.0","2","[""img/0874/99f6563c-8a8d-4c1c-a41d-667b618c3fd5.jpg"",""img/0903/5995f4a8-fa82-46f8-8760-fd7800a5ca34.jpg""]","",""
"","5487","similarity","15","152143","0.0-6.0-9.0","6","[""img/0881/566f45f8-5fed-4479-a60f-26377e60a62d.jpg"",""img/0758/61d64021-9214-4951-bdf8-f871f9827cf9.jpg""]","",""
"","5775","similarity","16","158925","0.0-6.0-10.0","5","[""img/0898/881e2a85-d5c2-49be-a0c6-8a6ce2c4af08.jpg"",""img/0901/77087ed2-6e12-4329-b2a5-605bca6d972d.jpg""]","",""
"","4543","similarity","17","164476","0.0-6.0-11.0","5","[""img/0903/6f343da5-00d9-4d50-89d1-2ed24cdb8319.jpg"",""img/0769/9ea27d61-3d55-418c-8d14-82e90f656f01.jpg""]","",""
"","4509","similarity","18","169992","0.0-6.0-12.0","2","[""img/0764/fb7d4a20-a475-465e-a74f-aa39a0d33d16.jpg"",""img/0868/d98ca254-b195-477f-b57e-5760a2717db8.jpg""]","",""
"","4723","similarity","19","175722","0.0-6.0-13.0","2","[""img/0867/2e1a0b58-cdb1-4107-a14e-452530d7b9b0.jpg"",""img/0903/b548d383-2a95-4575-8c13-647873751ff1.jpg""]","",""
"","3880","similarity","20","180610","0.0-6.0-14.0","2","[""img/0766/00891401-e4c9-4ce1-bc19-f70740d174bc.jpg"",""img/0758/eabcd7a8-56ad-4fd2-bc24-90f6b7b33265.jpg""]","",""
"","4998","similarity","21","186616","0.0-6.0-15.0","5","[""img/0902/b56db912-c3c0-4fc2-b325-d640acd7cb58.jpg"",""img/0860/87039971-2210-4aab-93c0-8e9b5f1655b2.jpg""]","",""
"","4301","similarity","22","191924","0.0-6.0-16.0","2","[""img/0769/b664b502-a86c-46c1-ad6f-5ebffc2e1bd3.jpg"",""img/0875/8521fd58-3b1e-4dc5-97ae-804edfa6734a.jpg""]","",""
"","3301","similarity","23","196232","0.0-6.0-17.0","2","[""img/0904/5cceabc9-de1d-4c67-989b-c28a4ef77e79.jpg"",""img/0866/a04d37f0-99dd-478a-b6c6-58b215138f84.jpg""]","",""
"","4812","similarity","24","202053","0.0-6.0-18.0","6","[""img/0875/34132396-d896-4c2d-8087-646dd867e769.jpg"",""img/0875/3ecb367d-e9eb-4826-8aaa-7aa72fb98019.jpg""]","",""
"","4530","similarity","25","207591","0.0-6.0-19.0","6","[""img/0758/67c0be2f-9e91-48b3-8219-70ac0a1802fa.jpg"",""img/0758/f61ecdf8-a7d4-4db0-b84d-be46f7cfaffc.jpg""]","",""
"","3473","similarity","26","212072","0.0-6.0-20.0","3","[""img/0902/2a7ac123-414a-476a-9a96-4757b924baef.jpg"",""img/0874/767f289c-9814-4496-803f-745cc8913d1f.jpg""]","",""
"","4432","similarity","27","217518","0.0-6.0-21.0","6","[""img/0764/50f1b062-d608-4bc0-ab25-b872dcf2ed93.jpg"",""img/0769/11518cb3-13ea-4dd0-890c-30cfab728ade.jpg""]","",""
"","6168","similarity","28","224696","0.0-6.0-22.0","3","[""img/0901/c6df1a21-44ed-47c2-960e-7c52220e329e.jpg"",""img/0874/31e22c7c-99aa-40b1-bf03-dd73fa2df4d6.jpg""]","",""
"","3659","similarity","29","229363","0.0-6.0-23.0","3","[""img/0875/a4935837-7d3c-4df6-88c1-36a94d4991ca.jpg"",""img/0903/2a9c8033-3e70-47fa-816d-97ee1813a3a3.jpg""]","",""
"","3422","similarity","30","233790","0.0-6.0-24.0","3","[""img/0769/14d393ce-e5be-4ca1-86ce-cc27d4b6074c.jpg"",""img/0881/f8bd891e-aa09-4782-89db-33e7cb2b0cf1.jpg""]","",""
"","3348","similarity","31","238148","0.0-6.0-25.0","3","[""img/0867/f8159067-056c-41f1-a136-c529fe5e970a.jpg"",""img/0904/06dacdc5-2206-4fb8-92b7-88042d22833c.jpg""]","",""
"","4853","similarity","32","244007","0.0-6.0-26.0","4","[""img/0860/c7047cd2-7cc1-41b6-8a34-c0986774975f.jpg"",""img/0881/54ea8e77-c7e5-4197-b7fa-00b7020849a7.jpg""]","",""
"","4940","similarity","33","249957","0.0-6.0-27.0","6","[""img/0866/0207e9a2-7dbb-40b5-9459-b472aaeceb2a.jpg"",""img/0866/23a224f3-2012-4fc8-8e0f-3c36f8de27fd.jpg""]","",""
"","4515","similarity","34","255481","0.0-6.0-28.0","3","[""img/0764/d0bef2e0-e16b-4c82-9451-c1d16265eb67.jpg"",""img/0862/f23038d4-c366-4f70-979f-66b62362efa4.jpg""]","",""
"","3453","similarity","35","259947","0.0-6.0-29.0","2","[""img/0904/1d10df11-b5c8-4370-9a6b-097a7f965895.jpg"",""img/0758/6cd8c362-ae2a-41eb-80a3-3a4f7ace1530.jpg""]","",""
"","4011","similarity","36","264968","0.0-6.0-30.0","3","[""img/0894/151063aa-6472-4745-837b-36603aba5966.jpg"",""img/0899/a048912c-b12c-40e3-90af-46b69b0cc4fe.jpg""]","",""
"","3683","similarity","37","269657","0.0-6.0-31.0","3","[""img/0860/524b2e98-5767-4d53-942c-ebae6925659b.jpg"",""img/0904/6291eb43-c10c-4810-a36a-101d09868b04.jpg""]","",""
"","4002","similarity","38","274669","0.0-6.0-32.0","6","[""img/0874/adf9a8f1-c40b-402b-b95b-1e85a54a7b62.jpg"",""img/0881/292e9b4b-fca0-4ba8-87f1-4048f9e37b7d.jpg""]","",""
"","5226","similarity","39","280902","0.0-6.0-33.0","2","[""img/0881/33d65d80-8a8e-4ecf-852d-0ad7725c17a2.jpg"",""img/0899/7b7380d5-d2be-44e5-a09a-c1756f87ef71.jpg""]","",""
"","4190","similarity","40","286099","0.0-6.0-34.0","5","[""img/0866/d493a2c8-66eb-44b4-be02-2f327b700b7c.jpg"",""img/0862/a0a3a7ba-7798-46a3-b4ca-05e1f6e581d0.jpg""]","",""
"","2687","similarity","41","289793","0.0-6.0-35.0","3","[""img/0868/8b0b8473-e2c0-4331-aa56-c3a5c29369da.jpg"",""img/0894/7fb082e0-ce79-485c-9109-04367fb32275.jpg""]","",""
"","4626","similarity","42","295430","0.0-6.0-36.0","6","[""img/0860/99c589b9-9140-4d17-90c0-b344323edcda.jpg"",""img/0860/61fb959d-d4d9-4de4-9e4e-4fa62b4cfcd5.jpg""]","",""
"","3428","similarity","43","299864","0.0-6.0-37.0","5","[""img/0862/4f0a3b4c-afbf-486e-b248-1d54982f54b4.jpg"",""img/0864/e02eddb5-f468-499c-91bf-f7be3ffe979b.jpg""]","",""
"","4700","similarity","44","305572","0.0-6.0-38.0","2","[""img/0766/b84598d0-5b41-4841-88b0-b441b48289f5.jpg"",""img/0866/93a27239-8317-4e08-98ca-d8b1ff298e07.jpg""]","",""
"","2931","similarity","45","309510","0.0-6.0-39.0","2","[""img/0875/90da8d75-108a-44ad-b999-e21fee3860d3.jpg"",""img/0898/a114b375-cb89-44ba-9498-74213f1ecdee.jpg""]","",""
"","4094","similarity","46","314613","0.0-6.0-40.0","5","[""img/0766/989c5c7f-1aff-4442-ac63-9d46acf4a891.jpg"",""img/0769/91acb237-65a3-4d0b-9748-af5c7b83d3c7.jpg""]","",""
"","4455","similarity","47","336870","0.0-6.0-41.0","2","[""img/0874/a82926a3-0b43-4add-803c-d5f9ea7798ee.jpg"",""img/0764/7f4ee8e3-9315-4a57-be7d-db8454b33766.jpg""]","",""
"","4404","similarity","48","342281","0.0-6.0-42.0","4","[""img/0868/1a62b2b2-18f5-466e-b564-5176a57c565e.jpg"",""img/0902/6730b12a-f0a7-4587-8c10-a32fae16565b.jpg""]","",""
"","3671","similarity","49","346960","0.0-6.0-43.0","2","[""img/0875/cff79b3a-a797-4393-9757-6275f999ec04.jpg"",""img/0899/ddf96ade-692e-4602-bd22-dedbb46401bc.jpg""]","",""
"","3272","similarity","50","351240","0.0-6.0-44.0","5","[""img/0866/4a87911a-d5be-4d4e-ab8e-3d1f581bf507.jpg"",""img/0860/8a92e21b-6a32-4e4a-a445-2d5a487ed0a4.jpg""]","",""
"","3124","similarity","51","355371","0.0-6.0-45.0","5","[""img/0766/110832e5-2646-4bd0-a94e-5df8cc314269.jpg"",""img/0903/b7e3723f-fd03-4f3d-8820-f19496463a34.jpg""]","",""
"","4137","similarity","52","360516","0.0-6.0-46.0","5","[""img/0901/c6c877e0-dd63-4e00-9657-33af29d55aab.jpg"",""img/0904/d23dd7be-7fe8-4435-82f7-bd592c01e6a1.jpg""]","",""
"","2975","similarity","53","364497","0.0-6.0-47.0","2","[""img/0758/dd559618-7f09-4a07-8018-d311c4a5ea29.jpg"",""img/0902/b76efc44-a50f-4dac-b997-ff0222376067.jpg""]","",""
"","3534","similarity","54","369039","0.0-6.0-48.0","6","[""img/0764/978aede9-4590-4ad0-b234-135c83e5d669.jpg"",""img/0764/5c8fbafc-e62e-43ed-9b37-f73e8e45147d.jpg""]","",""
"","4420","similarity","55","374469","0.0-6.0-49.0","2","[""img/0866/a15b02be-11bb-43e3-b0e0-ecc3bd7dfc49.jpg"",""img/0902/d1083f2c-5520-44ec-81a8-3f856fbf0e80.jpg""]","",""
"","3311","similarity","56","378787","0.0-6.0-50.0","3","[""img/0764/4eff630a-6426-4f8d-b2ba-b4d9842a0962.jpg"",""img/0758/6e95579b-5166-487c-b8cb-e417c6a218e3.jpg""]","",""
"","4422","similarity","57","384217","0.0-6.0-51.0","5","[""img/0898/f3a3f225-1248-4ac7-b93b-f0ff28485bf3.jpg"",""img/0894/a3d4170b-b7d8-40e3-955f-87e76ed745fc.jpg""]","",""
"","3066","similarity","58","388291","0.0-6.0-52.0","5","[""img/0875/5a1e5100-0d94-4fec-bbe9-ca9894d2cf8e.jpg"",""img/0866/8efcaa46-83ab-4dee-a35f-850402aa21ae.jpg""]","",""
"","3545","similarity","59","392842","0.0-6.0-53.0","5","[""img/0904/73920552-103b-4c9c-9ece-e0b8376b4504.jpg"",""img/0904/0d17b811-063e-416e-a23c-3b3cfa4fcce5.jpg""]","",""
"","3926","similarity","60","397775","0.0-6.0-54.0","6","[""img/0769/82ab9db6-4578-4e79-874f-f09100439f09.jpg"",""img/0769/e31b3bd8-efcb-413e-aa8c-75fac2b8f2ac.jpg""]","",""
"","3116","similarity","61","401898","0.0-6.0-55.0","2","[""img/0898/0af304a2-6a7a-4082-ab7c-4450cd08cc58.jpg"",""img/0758/821c68d3-5cb0-4eae-8659-30e6263fca39.jpg""]","",""
"","3609","similarity","62","406519","0.0-6.0-56.0","5","[""img/0769/76eaa4a3-dfe9-4dc1-9efb-caebe86264e1.jpg"",""img/0902/6c2c243a-f663-45db-baf5-038d3d58c589.jpg""]","",""
"","6372","similarity","63","413901","0.0-6.0-57.0","6","[""img/0864/c22faebd-9c53-47bc-ada3-b9a30c688e75.jpg"",""img/0881/405484ae-0d00-4b05-bc57-6420a36adfac.jpg""]","",""
"","3522","similarity","64","418431","0.0-6.0-58.0","5","[""img/0758/ddc336e9-a8b6-4bb9-937a-c7e25e0e9250.jpg"",""img/0868/7b212364-ff5f-4e28-9241-7eb6ea00161b.jpg""]","",""
"","3168","similarity","65","422607","0.0-6.0-59.0","3","[""img/0862/92fcd8a4-8193-4a6a-ae09-dd4a6338b0df.jpg"",""img/0769/d1be2815-fa79-46e8-b5c3-7d81caaca490.jpg""]","",""
"","3743","similarity","66","427360","0.0-6.0-60.0","4","[""img/0764/bd2eaa3e-95a9-4a59-a78e-3f81c766eea9.jpg"",""img/0903/e2e55a9e-0397-4dc0-8adf-4a54cfefe1fe.jpg""]","",""
"","4912","similarity","67","433281","0.0-6.0-61.0","6","[""img/0899/a05bea16-2bb4-4cb9-b8fb-4ff975db6971.jpg"",""img/0899/0e1d936a-dbe2-4afc-9f19-7b7a1ae6c9ed.jpg""]","",""
"","3129","similarity","68","437416","0.0-6.0-62.0","5","[""img/0860/c5ccd1a4-4bb7-48e1-9b25-72cfaf06909b.jpg"",""img/0875/2c361b79-c3d1-4eda-812e-bf03192407bf.jpg""]","",""
"","3538","similarity","69","441965","0.0-6.0-63.0","4","[""img/0868/15dd6fd7-791e-4b53-b203-195d617521a4.jpg"",""img/0874/ca23d307-fc00-4d7d-9106-584c6eb21b4d.jpg""]","",""
"","2253","similarity","70","445224","0.0-6.0-64.0","4","[""img/0758/53f35650-e455-4b53-8be4-c3c8271c6466.jpg"",""img/0862/ee3b7bff-4a70-4e84-9bea-4a565e456acb.jpg""]","",""
"","3798","similarity","71","450028","0.0-6.0-65.0","5","[""img/0904/2fd488e9-960f-41f7-8a44-33375f7d5051.jpg"",""img/0898/26c41340-15bd-4ead-8fe4-c0d0ddca09c2.jpg""]","",""
"","2076","similarity","72","453111","0.0-6.0-66.0","4","[""img/0881/4bd34581-94d8-4e88-8c89-5cef864ca3be.jpg"",""img/0866/bf14b5bd-fb55-47db-86b9-4f8aeb9a6dad.jpg""]","",""
"","5226","similarity","73","459344","0.0-6.0-67.0","2","[""img/0867/c71dc569-f49c-4397-8381-68b8d726736d.jpg"",""img/0898/81b08535-2020-4c15-9ce4-2f1e460755ae.jpg""]","",""
"","4540","similarity","74","464890","0.0-6.0-68.0","5","[""img/0902/b03fee99-d5ca-4bf8-871c-a4a743a39842.jpg"",""img/0764/6fbd1902-fa2a-48d8-bc11-705b8ab68d8f.jpg""]","",""
"","4930","similarity","75","470825","0.0-6.0-69.0","5","[""img/0875/d59ff733-eaff-4ee2-9443-06954dd0bcb6.jpg"",""img/0867/aa05d113-fc19-4756-a8eb-7878f580bc92.jpg""]","",""
"","4565","similarity","76","476396","0.0-6.0-70.0","5","[""img/0766/79767d11-b612-4e8a-9e4b-a8ac95bb6a54.jpg"",""img/0764/1def7b22-b054-4ec2-860b-73d25691823b.jpg""]","",""
"","3198","similarity","77","480600","0.0-6.0-71.0","3","[""img/0894/6b2e9509-8699-42b7-9582-7741df0ba2d7.jpg"",""img/0867/c66898ba-b71b-4d50-84f9-f7f84853a98d.jpg""]","",""
"","3316","similarity","78","484927","0.0-6.0-72.0","1","[""img/0875/03c3c331-738b-4446-af92-3d7386b08c2e.jpg"",""img/0764/e48e6c6f-9e28-420f-836a-8043b2319bb4.jpg""]","",""
"","5255","similarity","79","491190","0.0-6.0-73.0","4","[""img/0867/179ab87a-8eac-4c52-a41f-2e48e3120f09.jpg"",""img/0866/d266fece-59b3-46fa-b69f-96f6efb81b59.jpg""]","",""
"","3691","similarity","80","495890","0.0-6.0-74.0","2","[""img/0903/d987e220-f3e6-4b6d-a270-fe6757041f6d.jpg"",""img/0758/65d426d6-3ff6-415d-8654-a43b83ecc4fe.jpg""]","",""
"","3387","similarity","81","500282","0.0-6.0-75.0","1","[""img/0766/6d32752d-aa05-40dc-9541-640b6e9d6fa1.jpg"",""img/0868/c8ac40c7-6904-4e13-8d61-c75d3052dc4e.jpg""]","",""
"","3754","similarity","82","505041","0.0-6.0-76.0","2","[""img/0874/eba003b4-cdab-4eee-8bc3-f064c7d94165.jpg"",""img/0766/a0270213-fa0e-4972-8b56-228c3e01ff90.jpg""]","",""
"","5868","similarity","83","511915","0.0-6.0-77.0","6","[""img/0881/d1982897-8d8d-4704-a940-1ee5d07a1f15.jpg"",""img/0868/d6d1f30d-4323-435a-b194-7892521bc57e.jpg""]","",""
"","3919","similarity","84","516841","0.0-6.0-78.0","2","[""img/0758/9fb5b2fe-3f00-4fe6-973c-1ce10d5f4cd5.jpg"",""img/0901/1e23ffbd-19de-4c4f-aa23-c54aaa3319a3.jpg""]","",""
"","4552","similarity","85","522402","0.0-6.0-79.0","2","[""img/0881/7e31e5dc-2240-4b1b-b5a0-3acd980099ef.jpg"",""img/0898/661621d4-a14e-487c-8c74-354134a29710.jpg""]","",""
"","4649","similarity","86","528058","0.0-6.0-80.0","4","[""img/0867/8ba0c5a7-c7e4-42cf-a80a-543763b90779.jpg"",""img/0758/7ffbc76b-1fc1-432c-8f7e-9ec8d1b3f643.jpg""]","",""
"","4230","similarity","87","533296","0.0-6.0-81.0","5","[""img/0769/ecda2fb3-556b-43ba-8a67-e87dd75ff2b4.jpg"",""img/0899/7f9d45d0-b2c6-40d3-aa41-c207db2c411b.jpg""]","",""
"","4336","similarity","88","538638","0.0-6.0-82.0","7","[""img/0903/6138142e-c84e-45fc-9487-c974f3d4968a.jpg"",""img/0903/81368973-de81-46f4-844f-b901f3bfd66d.jpg""]","",""
"","3572","similarity","89","546310","0.0-6.0-83.0","2","[""img/0867/50a1b60e-3a29-44bf-b606-d4bd3746fea9.jpg"",""img/0766/d50d734f-285c-4840-bc7a-c8dd4aff391e.jpg""]","",""
"","3744","similarity","90","551062","0.0-6.0-84.0","2","[""img/0902/0c760cc9-10ac-429e-8957-a7d51fc99683.jpg"",""img/0867/f8488a47-94ee-4166-952c-44e16cf172f6.jpg""]","",""
"","3555","similarity","91","555624","0.0-6.0-85.0","1","[""img/0901/2a953e50-d237-405c-a38d-5ed21494c968.jpg"",""img/0875/527ced51-8e53-4aab-ab05-86df219104c0.jpg""]","",""
"","3428","similarity","92","560057","0.0-6.0-86.0","1","[""img/0764/6ef77040-1fae-4afa-bfe7-eda98e6d0376.jpg"",""img/0866/6f2a90d7-14f1-4f1b-bd64-fc0af6b9fe44.jpg""]","",""
"","4515","similarity","93","565580","0.0-6.0-87.0","2","[""img/0901/148b747a-7392-437e-8823-33053c5dff3f.jpg"",""img/0894/c505c65a-cde2-4f2c-8cde-f8676f7c894d.jpg""]","",""
"","4220","similarity","94","570806","0.0-6.0-88.0","5","[""img/0898/b3290bf9-215b-4b45-b21a-65bdf73f142f.jpg"",""img/0769/688d0c52-ad73-4065-a5eb-f8c10d076bff.jpg""]","",""
"","3628","similarity","95","575444","0.0-6.0-89.0","6","[""img/0769/7c50e5f5-cc38-4d48-b009-fbe17bcea61c.jpg"",""img/0894/10f22b96-040c-44f4-950b-a4963f3f506c.jpg""]","",""
"","4499","similarity","96","580951","0.0-6.0-90.0","5","[""img/0862/de9ad88c-b522-430a-8ee9-eb06a9f85df5.jpg"",""img/0874/7e4f2150-3b59-4a36-b5da-a4e0ba410531.jpg""]","",""
"","4822","similarity","97","586779","0.0-6.0-91.0","5","[""img/0894/1a010553-d598-4b06-a772-81f1e7b3addb.jpg"",""img/0766/908bc45b-7c9e-4f95-806e-86b196ebcb2c.jpg""]","",""
"","5703","similarity","98","593488","0.0-6.0-92.0","4","[""img/0874/93d1f8dc-acf2-4f03-bd8d-8ec35df276ed.jpg"",""img/0867/ac1797e4-8afc-48fe-b252-86d1defb1cca.jpg""]","",""
"","3800","similarity","99","598298","0.0-6.0-93.0","1","[""img/0899/b45c550b-96c3-4255-ad59-48a2b4db1c1e.jpg"",""img/0868/4a8a45ed-2c4f-421b-9564-409a33ecd26c.jpg""]","",""
"","3433","similarity","100","602737","0.0-6.0-94.0","3","[""img/0903/5ea5bbe0-f238-4724-abe7-9ed8dee8c0ba.jpg"",""img/0862/1c20f772-3a51-4a80-aac0-f57dc9f86c28.jpg""]","",""
"","3573","similarity","101","607316","0.0-6.0-95.0","4","[""img/0899/93494f3b-d539-4075-b027-d82e344563da.jpg"",""img/0766/60033a74-9919-47e5-913c-71d0d483e7e5.jpg""]","",""
"","4852","similarity","102","613183","0.0-6.0-96.0","7","[""img/0867/12264664-1860-46df-8c21-162b9817cdda.jpg"",""img/0868/e0aff734-077f-40dd-9781-74821abd3621.jpg""]","",""
"","3288","similarity","103","617480","0.0-6.0-97.0","3","[""img/0862/d0ca4c78-fc35-46ed-bdcc-8e124283c53e.jpg"",""img/0901/d6d15b1c-4a30-4f74-a3fd-d4c8ee4169ca.jpg""]","",""
"","3032","similarity","104","621524","0.0-6.0-98.0","1","[""img/0875/5a7c4e35-6514-4e12-8879-d16071da4cd6.jpg"",""img/0766/d3bab2fc-ddcc-40a0-bb72-c0d0ebe19978.jpg""]","",""
"","5121","similarity","105","627655","0.0-6.0-99.0","7","[""img/0758/a709631e-3705-4725-ac40-f0d916924f08.jpg"",""img/0874/29830da7-be5f-44e5-b141-652a0ccf7269.jpg""]","",""
"","4513","similarity","106","633174","0.0-6.0-100.0","3","[""img/0904/9b3568cc-3cf7-42be-9df3-fdafde7a58b8.jpg"",""img/0868/293079b8-7e0c-4afd-a390-1e5d35fe3ded.jpg""]","",""
"","2707","similarity","107","636888","0.0-6.0-101.0","3","[""img/0903/07b445ee-0cdb-4d2c-a23b-d727613f4059.jpg"",""img/0866/f756f7d1-9ad8-4a34-9ef6-7a443d705bfe.jpg""]","",""
"","4754","similarity","108","642649","0.0-6.0-102.0","2","[""img/0868/6a28c3b0-3d76-498a-9fb7-ddafc665eca8.jpg"",""img/0769/057eb0a0-aa5b-40c7-9852-21444f68d767.jpg""]","",""
"","3710","similarity","109","647366","0.0-6.0-103.0","6","[""img/0902/82d20e8c-2162-47a6-925b-52906558c046.jpg"",""img/0899/9de5e857-aa9a-4e0c-8ba2-46d79bd069a4.jpg""]","",""
"","2486","similarity","110","650857","0.0-6.0-104.0","4","[""img/0868/fd307a36-9a3a-47d7-ab7c-f810d0b35040.jpg"",""img/0862/92f0146c-20c4-482e-aef5-adb693790338.jpg""]","",""
"","2520","similarity","111","654383","0.0-6.0-105.0","5","[""img/0903/8635cf25-2648-4fe9-8c42-79d2598e999c.jpg"",""img/0894/5a49e858-2850-4892-9a06-e9f0efb5f94d.jpg""]","",""
"","5384","similarity","112","660773","0.0-6.0-106.0","6","[""img/0864/1ebbc554-99fa-49f9-8799-317375a79820.jpg"",""img/0874/bf14b896-e930-4fd9-9c05-2e83317a2773.jpg""]","",""
"","3476","similarity","113","665256","0.0-6.0-107.0","2","[""img/0862/7918ca67-5bd3-4606-a5ea-c39fb11a9297.jpg"",""img/0902/f3cfec34-482c-4bdb-9c92-19ea6cfce183.jpg""]","",""
"","4175","similarity","114","670437","0.0-6.0-108.0","6","[""img/0904/56e73f28-7e64-489b-a161-e6b1a063878d.jpg"",""img/0903/59defeb8-98bd-4570-a2f8-9bd189e68ef4.jpg""]","",""
"","3144","similarity","115","674587","0.0-6.0-109.0","2","[""img/0764/952d7adc-dc40-4aee-acce-18c2a1d02ea1.jpg"",""img/0864/4bd81bc6-c13d-46df-95a9-485886dc7c1b.jpg""]","",""
"","3751","similarity","116","679350","0.0-6.0-110.0","3","[""img/0866/07c9c966-3c8d-40e7-8128-92b2acbaed5d.jpg"",""img/0894/767a0eec-1064-46b1-b1aa-dfa02b0cd74e.jpg""]","",""
"","3956","similarity","117","684315","0.0-6.0-111.0","5","[""img/0899/66bf4113-ee12-426c-84d2-ea410b6c803e.jpg"",""img/0903/ea75f240-fb62-4edb-a709-83e858b202c0.jpg""]","",""
"","3561","similarity","118","688883","0.0-6.0-112.0","5","[""img/0902/10d99c89-71f7-4c81-a31e-dfc7c59f5232.jpg"",""img/0904/e9423a8c-f946-43ad-ab7b-931acef870e2.jpg""]","",""
"","3133","similarity","119","693021","0.0-6.0-113.0","6","[""img/0864/49150900-7f25-4ce8-8d10-9b47a71d1997.jpg"",""img/0860/94ef7afc-e0e6-4a15-98c6-0bfac82bc832.jpg""]","",""
"","3121","similarity","120","697150","0.0-6.0-114.0","3","[""img/0860/8277806e-b684-4474-8f7b-3fca946d7d4f.jpg"",""img/0899/66ab3178-c3fe-4455-ad17-d5952b08e018.jpg""]","",""
"","3042","similarity","121","701202","0.0-6.0-115.0","2","[""img/0881/5fe04dd0-5c74-47b7-99c8-b068db9ca26a.jpg"",""img/0903/a0673b55-6040-47fe-9040-24bca27ca3c9.jpg""]","",""
"","3671","similarity","122","705888","0.0-6.0-116.0","1","[""img/0894/661b9f9f-4bde-487a-b1ed-87085fde6948.jpg"",""img/0874/3ce41e7c-40c8-4d58-a546-171114521796.jpg""]","",""
"","4253","similarity","123","711147","0.0-6.0-117.0","5","[""img/0881/db77fe00-aeb0-4d1d-aa66-f3a96fd077e4.jpg"",""img/0862/47ed5efd-4ec9-4b74-bb4e-a5f5cf0c3e7d.jpg""]","",""
"","3745","similarity","124","715898","0.0-6.0-118.0","5","[""img/0868/83b4350a-3b70-4cea-b7f5-b5b56f3050a8.jpg"",""img/0875/5a716432-c6ca-4b1c-955a-2b8ac25198ee.jpg""]","",""
"","2551","similarity","125","719455","0.0-6.0-119.0","4","[""img/0860/b03b963d-949b-4d8d-b19c-4950c89eeca2.jpg"",""img/0758/a085b443-b5d7-4cb2-9ad4-b9dab0fc23f1.jpg""]","",""
"","2573","similarity","126","723035","0.0-6.0-120.0","4","[""img/0864/300bb811-8b3c-4c42-8653-6097c3725197.jpg"",""img/0875/e7e66b13-b573-431e-b85e-288ce04a35a3.jpg""]","",""
"","3327","similarity","127","727367","0.0-6.0-121.0","3","[""img/0898/5f699581-3853-4547-856c-12f419ba5af7.jpg"",""img/0866/11a1d141-be5e-443c-98c1-a9d4d9e3dec0.jpg""]","",""
"","3186","similarity","128","731562","0.0-6.0-122.0","3","[""img/0874/3f471690-9788-4d03-90c7-f615aecef149.jpg"",""img/0904/5aec2708-cf14-4a58-aa30-9a8a61c1be0e.jpg""]","",""
"","2553","similarity","129","735122","0.0-6.0-123.0","1","[""img/0904/b7c2a2c8-df33-4473-b3d4-ff7147c60db3.jpg"",""img/0864/65210d57-1153-4657-886a-32e758f49b4a.jpg""]","",""
"","4380","similarity","130","740508","0.0-6.0-124.0","5","[""img/0894/6aa5545f-fa7d-4286-bbaa-aaf34dc7ec96.jpg"",""img/0902/95a36b6b-9601-4fa5-8fd9-606ea62f9425.jpg""]","",""
"","2457","similarity","131","749653","0.0-6.0-125.0","4","[""img/0868/5fa7f9d0-f0e5-454c-8224-74d964818f56.jpg"",""img/0864/87c467d3-abca-482f-ad80-3766c21b1bb3.jpg""]","",""
"","3839","similarity","132","754499","0.0-6.0-126.0","1","[""img/0899/4f7bc593-8ddd-4da3-a0b9-84da730d3370.jpg"",""img/0866/945c6710-d15b-4a5b-a8f6-69af0850357f.jpg""]","",""
"","3195","similarity","133","758701","0.0-6.0-127.0","3","[""img/0875/f87b67d7-c33e-40d1-b281-248c4be1cb6e.jpg"",""img/0904/96e503ea-6630-4996-85f2-0237688ce441.jpg""]","",""
"","2659","similarity","134","762366","0.0-6.0-128.0","1","[""img/0867/7d1c497b-c1b3-4ed8-abb5-d7f73306015f.jpg"",""img/0899/0433d056-aa30-4f8a-9aa1-abbb951e4edd.jpg""]","",""
"","2842","similarity","135","766224","0.0-6.0-129.0","2","[""img/0901/f1116359-1ff1-4638-b3b3-700918d36d18.jpg"",""img/0867/f26f6b60-f772-4f4c-95a4-addc62cfd692.jpg""]","",""
"","2677","similarity","136","769907","0.0-6.0-130.0","4","[""img/0864/6e846d43-94a6-4b37-a268-65eda979f052.jpg"",""img/0769/c34b7763-8ff2-46d5-9e92-f1d8f3bedbd8.jpg""]","",""
"","3680","similarity","137","774594","0.0-6.0-131.0","2","[""img/0903/72197c2b-403e-4a26-b391-f1aa8dea4b76.jpg"",""img/0868/179a5502-ab5c-478e-8263-5a1fbcc101d2.jpg""]","",""
"","2390","similarity","138","777991","0.0-6.0-132.0","5","[""img/0864/66091c27-e588-4476-8af9-265dc6be4156.jpg"",""img/0867/1719a35d-f085-48c0-9099-16c94fe418b4.jpg""]","",""
"","2431","similarity","139","781428","0.0-6.0-133.0","4","[""img/0901/f469cb1d-6d81-4a45-bab5-cd0b650c2b4f.jpg"",""img/0860/17b44a7d-c5ca-479f-9e87-f65a64f5c80e.jpg""]","",""
"","3327","similarity","140","785762","0.0-6.0-134.0","3","[""img/0881/f037e3b0-09cb-4a83-b2d9-6a71fe474e63.jpg"",""img/0766/d512b99c-a2dc-40d7-8e86-827323a0cbcf.jpg""]","",""
"","2657","similarity","141","789427","0.0-6.0-135.0","2","[""img/0903/776b74ee-a8ab-4ab8-a78d-097c0747538d.jpg"",""img/0864/ef9cbca0-4be8-435d-ad49-977259e80409.jpg""]","",""
"","3565","similarity","142","793998","0.0-6.0-136.0","2","[""img/0758/b76ceca7-95ac-46e4-ac13-da02c8e93be9.jpg"",""img/0894/0130a973-d993-41f8-874a-fee23d9ac11f.jpg""]","",""
"","2167","similarity","143","797171","0.0-6.0-137.0","4","[""img/0769/387a9744-d6a7-42b8-bab8-33007ec434aa.jpg"",""img/0860/f44ba3fb-03a2-42f0-8509-2c1ded493086.jpg""]","",""
"","3392","similarity","144","801570","0.0-6.0-138.0","6","[""img/0904/9d30eff1-46ef-4453-b11e-124ef8145c00.jpg"",""img/0766/2da002a4-05c9-4f5c-9ed7-433b4183e273.jpg""]","",""
"","2688","similarity","145","805264","0.0-6.0-139.0","5","[""img/0868/4bd5105a-d2c3-4f82-8c80-57196106ba53.jpg"",""img/0860/18dfed73-e36b-4487-a8bd-0b8cff8e3668.jpg""]","",""
"","3693","similarity","146","809962","0.0-6.0-140.0","5","[""img/0758/d57c2592-a317-4f63-91be-91a3a9afd222.jpg"",""img/0864/a248adb3-c70b-4652-b7a3-776d2a1e904b.jpg""]","",""
"","3640","similarity","147","814610","0.0-6.0-141.0","7","[""img/0867/85a96c62-548f-4994-9553-819e03c3135a.jpg"",""img/0867/a498eef3-9fa4-4ab2-9778-4ae82ac40dc5.jpg""]","",""
"","3138","similarity","148","818756","0.0-6.0-142.0","7","[""img/0898/b2732712-71c2-45d8-834f-2b2ed5504910.jpg"",""img/0898/4184e5a2-84ea-4f36-9b42-ae58646f6f87.jpg""]","",""
"","4108","similarity","149","823869","0.0-6.0-143.0","4","[""img/0866/02f5e6b9-52b7-448c-9708-5b460d0c9a23.jpg"",""img/0769/8c7cf147-1780-4d5c-8ddf-5ea23ff03ac9.jpg""]","",""
"","2750","similarity","150","827626","0.0-6.0-144.0","3","[""img/0860/9593362c-9fe5-4d12-9735-6000a11f6aa5.jpg"",""img/0898/ec565187-2e31-4fdd-9a5c-153d0c789ae0.jpg""]","",""
"","4074","similarity","151","832707","0.0-6.0-145.0","2","[""img/0766/d919cedb-f9b7-4f30-83bb-3e9c65001ceb.jpg"",""img/0864/e336a4c5-6648-4fd7-b2f6-93a3fb83f8c6.jpg""]","",""
"","3440","similarity","152","837154","0.0-6.0-146.0","5","[""img/0860/71e1aad0-2cdf-43bb-94a4-a8c016997c30.jpg"",""img/0903/8c358e9e-a4f4-466e-8b93-7aec0d2358e8.jpg""]","",""
"","3702","similarity","153","841865","0.0-6.0-147.0","2","[""img/0867/6e19c858-b606-45b2-a4c6-910a73f1d82c.jpg"",""img/0764/c84fbfa8-521c-407a-9bd3-24f7308d896c.jpg""]","",""
"","3758","similarity","154","846630","0.0-6.0-148.0","5","[""img/0769/f73c5138-2f4c-4354-981c-129dff9cc734.jpg"",""img/0904/4d7d70a3-9477-4921-bda0-f9531d0a5c5b.jpg""]","",""
"","2670","similarity","155","850307","0.0-6.0-149.0","4","[""img/0764/3297a811-ea8b-4d74-9547-59cecab7293a.jpg"",""img/0901/6e2957f8-f5ab-46f4-87cc-bb50155a098b.jpg""]","",""
"","4386","similarity","156","855699","0.0-6.0-150.0","6","[""img/0904/09934646-45d2-4147-8fec-64a22a5ac822.jpg"",""img/0899/1b3457ea-87d4-4946-a01c-aac1863ed46c.jpg""]","",""
"","4130","similarity","157","860835","0.0-6.0-151.0","5","[""img/0862/ba89835a-408c-480b-8594-ed4ffa97eb5c.jpg"",""img/0867/cc72ed48-7704-422c-86d6-467a1145287a.jpg""]","",""
"","6715","similarity","158","868556","0.0-6.0-152.0","7","[""img/0766/69e486f7-dbef-456b-9d48-53d814248a28.jpg"",""img/0766/af3be95e-e52e-4fae-899b-0ff02ec340aa.jpg""]","",""
"","4383","similarity","159","873946","0.0-6.0-153.0","3","[""img/0862/e0f1a4e9-e1b6-45f7-af67-89f334e6630d.jpg"",""img/0894/133a1636-d123-4893-873c-1718050f832a.jpg""]","",""
"","2433","similarity","160","877385","0.0-6.0-154.0","4","[""img/0899/25ae6ec8-9565-49fe-a8bb-8d0666f52716.jpg"",""img/0901/d61f267a-c492-4db6-9bfb-61efd49cf072.jpg""]","",""
"","5129","similarity","161","883521","0.0-6.0-155.0","7","[""img/0874/8cdb1c07-1c32-46d2-981c-3636560fa6e5.jpg"",""img/0874/ca76a855-4e77-4f2f-872a-0a718153e7ed.jpg""]","",""
"","4730","similarity","162","889259","0.0-6.0-156.0","5","[""img/0860/e8b8c51e-1834-4875-8b61-6c5bc9b178bd.jpg"",""img/0867/075e0f95-856b-4cbb-acf5-092393aaf04e.jpg""]","",""
"","3326","similarity","163","893591","0.0-6.0-157.0","1","[""img/0901/62315ff5-ed95-46b4-b099-92552079659b.jpg"",""img/0881/adc02f34-ce97-4aef-850f-00519df06fd7.jpg""]","",""
"","6939","similarity","164","901537","0.0-6.0-158.0","7","[""img/0903/680ed18e-b311-4ecf-9b00-7dea32128334.jpg"",""img/0902/d5e25767-e8ec-45f3-ac0a-7b4a6f7a9edc.jpg""]","",""
"","3916","similarity","165","906459","0.0-6.0-159.0","3","[""img/0860/4c530c3c-6aab-492a-94d1-9c01797bde40.jpg"",""img/0764/17b088f8-3053-4140-b544-d15654cc79ef.jpg""]","",""
"","3866","similarity","166","911334","0.0-6.0-160.0","2","[""img/0902/1a120fb9-dbd6-443e-ba91-b4aceab963da.jpg"",""img/0875/fb732ab5-013a-4366-9f65-27811ed157e9.jpg""]","",""
"","2791","similarity","167","915131","0.0-6.0-161.0","4","[""img/0898/c3cecf20-f7fd-45fa-97d0-dc0a63e8d6c0.jpg"",""img/0862/847e5208-38ec-4f36-949c-296cdd7424ee.jpg""]","",""
"","5155","similarity","168","921292","0.0-6.0-162.0","2","[""img/0894/43216a7f-27bc-4b5a-8841-d122a30da9d9.jpg"",""img/0875/42910c99-5463-450a-a0f8-d4d060a11455.jpg""]","",""
"","5597","similarity","169","927896","0.0-6.0-163.0","5","[""img/0866/be24ab58-230e-4db8-9f45-ff04c9aec6bb.jpg"",""img/0864/5f33e097-23e3-4002-882d-76e8cb15f451.jpg""]","",""
"","3622","similarity","170","932523","0.0-6.0-164.0","3","[""img/0766/91fc8c4d-862f-4d2b-b1a1-2db8d729b6b7.jpg"",""img/0862/fad1d7c1-8187-43c3-942a-0fc12183e48e.jpg""]","",""
"","4746","similarity","171","938276","0.0-6.0-165.0","5","[""img/0866/386235d2-6857-41e7-88a8-25cfc3430025.jpg"",""img/0874/c0378dac-9370-439a-8b79-db27c96fb390.jpg""]","",""
"","5401","similarity","172","944695","0.0-6.0-166.0","6","[""img/0862/24cdc752-c2e5-4a17-86a6-6f2045d8553b.jpg"",""img/0860/702bd09d-df3a-40aa-a267-5f04474305b5.jpg""]","",""
"","4476","similarity","173","953122","0.0-6.0-167.0","5","[""img/0766/a1ed3f0f-e338-4a26-8fe4-4370f0c9fa6e.jpg"",""img/0901/33b51a81-06d9-46d9-9d4f-5a2d6d6b8058.jpg""]","",""
"","5896","similarity","174","960027","0.0-6.0-168.0","7","[""img/0862/99a99e39-8355-44ec-b993-e7bcec111e1c.jpg"",""img/0862/fb26cb07-d5a9-4653-813c-f41609f26cd5.jpg""]","",""
"","4273","similarity","175","965306","0.0-6.0-169.0","6","[""img/0894/2217bdcd-23a7-42d3-823b-23f2488d7e87.jpg"",""img/0764/56441045-b648-4ede-9632-3e9c0227080b.jpg""]","",""
"","4021","similarity","176","970334","0.0-6.0-170.0","2","[""img/0874/85eb9b8a-c4c6-4e5a-b8e7-363a87a82054.jpg"",""img/0898/82231d4c-218b-4d0a-b50d-35a49b524e97.jpg""]","",""
"","3964","similarity","177","975302","0.0-6.0-171.0","1","[""img/0860/29a21a9f-54bb-4093-ad3f-04823ceaa89f.jpg"",""img/0766/717fd72f-a281-499b-a5ba-5e2ecc4d4866.jpg""]","",""
"","4262","similarity","178","980570","0.0-6.0-172.0","3","[""img/0898/a8f16b02-e19f-423b-86c3-a36562ae1f9b.jpg"",""img/0864/8ddd2e30-a1d0-479f-9cbe-591213023893.jpg""]","",""
"","6588","similarity","179","988164","0.0-6.0-173.0","3","[""img/0881/ed4c971f-0873-4fc8-b6d6-e8bbd82f0bcc.jpg"",""img/0764/39a9fc7e-b863-432c-9374-de43983f31a5.jpg""]","",""
"","3766","similarity","180","992938","0.0-6.0-174.0","1","[""img/0898/6cd3830b-d44e-4915-be2b-88d31424b91c.jpg"",""img/0868/4e626425-63c8-484a-8a1d-e66ee4e0bef8.jpg""]","",""
"","4535","similarity","181","998479","0.0-6.0-175.0","7","[""img/0864/3651d070-2fc5-4848-b6a6-088a2d9ac5c9.jpg"",""img/0864/5f74a653-3bdc-4308-8cca-ac667dc22e1f.jpg""]","",""
"","2697","similarity","182","1002181","0.0-6.0-176.0","4","[""img/0899/56a605c3-d0a2-4215-89e1-779279d85a7c.jpg"",""img/0862/eefa5588-9efd-4591-aa5f-a2e17c7d7bcc.jpg""]","",""
"","6198","similarity","183","1009384","0.0-6.0-177.0","5","[""img/0875/2e13d160-eea1-416b-aff1-d37ab99ecc1d.jpg"",""img/0758/7fba58df-2a7a-4b76-8a8f-62739f97f271.jpg""]","",""
"","3397","similarity","184","1013786","0.0-6.0-178.0","3","[""img/0866/620cd1aa-0800-4414-8f6e-90342e7a99ad.jpg"",""img/0901/548d1110-7cb8-42a2-9927-9798875c8b5c.jpg""]","",""
"","3886","similarity","185","1018678","0.0-6.0-179.0","3","[""img/0769/662ab839-88d1-4ebf-af05-9b2980cad943.jpg"",""img/0874/2c9464dd-8a23-4baa-ac94-1ba3af5c15cc.jpg""]","",""
"","3303","similarity","186","1022992","0.0-6.0-180.0","5","[""img/0875/99698b4d-b4a1-44bc-8c83-8ea755bbbf61.jpg"",""img/0881/f4e3e181-b3c9-4af2-a5a4-fc135ab70d2e.jpg""]","",""
"","4014","similarity","187","1028013","0.0-6.0-181.0","6","[""img/0866/9b38d691-1802-4959-ab3f-fc902f0e4ea6.jpg"",""img/0868/09a9ef4d-d000-4cfa-a6aa-ebec7c2edeb4.jpg""]","",""
"","4178","similarity","188","1033197","0.0-6.0-182.0","4","[""img/0899/8abe6c69-822c-436c-9bf2-96c818b49ba5.jpg"",""img/0758/e38fd80d-18d0-42f3-b848-f930788e8bd7.jpg""]","",""
"","3619","similarity","189","1037822","0.0-6.0-183.0","4","[""img/0874/1016b306-087c-4afc-aa08-fa527b28dc76.jpg"",""img/0875/ebf7653f-ff45-4e9f-af58-2c042ab3cd2b.jpg""]","",""
"","4535","similarity","190","1043364","0.0-6.0-184.0","3","[""img/0904/b5855d6a-7ef9-46ca-9215-6e9fa046e543.jpg"",""img/0862/5d887e9f-89e2-4ebc-80a0-6d46fe6480db.jpg""]","",""
"","7821","similarity","191","1052191","0.0-6.0-185.0","5","[""img/0902/cf9dee9c-2bdf-4d64-9302-97f1660fe52c.jpg"",""img/0766/0b48f9e0-7d37-4161-8adb-4e3f5b6b7583.jpg""]","",""
"","4159","similarity","192","1057355","0.0-6.0-186.0","3","[""img/0758/caa93da2-9edf-49fa-96b9-32dedd8f5078.jpg"",""img/0769/47700831-0ca2-4fdd-a498-a3bc5a528f43.jpg""]","",""
"","5769","similarity","193","1064131","0.0-6.0-187.0","6","[""img/0881/44e09805-5a25-4f17-a716-4ad4a331b174.jpg"",""img/0881/e046471a-35b4-4159-bbf7-3cfd201bef66.jpg""]","",""
"","4437","similarity","194","1069574","0.0-6.0-188.0","5","[""img/0758/e1ba5e53-addc-436a-b428-d34fc1b130dc.jpg"",""img/0866/c446214b-a368-4c65-ae39-ea46894256ab.jpg""]","",""
"","5038","similarity","195","1075619","0.0-6.0-189.0","6","[""img/0764/ca9829fe-aaf8-45b8-b98a-6bae751c63dd.jpg"",""img/0898/79233891-305a-4a6a-8ddf-5c8604858203.jpg""]","",""
"","5731","similarity","196","1082357","0.0-6.0-190.0","5","[""img/0903/0e5c2854-42aa-48c0-9c3d-6e1ad2a400bd.jpg"",""img/0901/b123d109-47b4-4f9a-80c9-9bb16da42efa.jpg""]","",""
"","4163","similarity","197","1087526","0.0-6.0-191.0","6","[""img/0902/ca3160ba-ad5d-459f-a1b6-8b4f3c85ecd5.jpg"",""img/0898/68476bbb-34a1-42d9-8bc1-deab783d4489.jpg""]","",""
"","4006","similarity","198","1092542","0.0-6.0-192.0","2","[""img/0864/afcba0a3-7e27-4757-b254-e9f05fad27e2.jpg"",""img/0901/0f670aef-ac36-496d-8142-ee5fdb21dd82.jpg""]","",""
"","3802","similarity","199","1097351","0.0-6.0-193.0","4","[""img/0894/86201968-6e78-4d68-9b3a-d1692e066210.jpg"",""img/0881/62a64f90-7a72-4aee-a1a1-0c548ac9bdda.jpg""]","",""
"","5054","similarity","200","1103412","0.0-6.0-194.0","7","[""img/0868/0d3abd3a-b6c3-4584-a9f7-e2da63748b3d.jpg"",""img/0868/3a62db2d-97e9-44a3-b8e3-a48c6f0e423b.jpg""]","",""
"","4968","similarity","201","1109385","0.0-6.0-195.0","5","[""img/0899/fd9efb43-701f-4cd6-baaa-4c38315f4bdc.jpg"",""img/0764/e30dba15-e68a-4659-89db-e1654b52fe02.jpg""]","",""
"","4309","similarity","202","1114701","0.0-6.0-196.0","1","[""img/0881/48ed65a5-471f-41af-86ec-3793805c116d.jpg"",""img/0904/63dd06dd-dccb-47ba-9740-eb33239e18a7.jpg""]","",""
"","5959","similarity","203","1121665","0.0-6.0-197.0","2","[""img/0864/3d4de670-b290-4285-9c3d-12a0e3af44e9.jpg"",""img/0902/97022122-01e4-46c3-a34f-c6260ad28428.jpg""]","",""
"","5412","similarity","204","1128084","0.0-6.0-198.0","7","[""img/0894/7dd6ff43-f8fc-408a-8a41-a2b261871820.jpg"",""img/0904/da170c1b-9651-4f08-b231-2bdd1d9a046f.jpg""]","",""
"","4573","similarity","205","1133665","0.0-6.0-199.0","7","[""img/0901/d4d09bf5-093e-4050-838e-7c738be8e63c.jpg"",""img/0901/693e0535-ef7e-4d60-af9d-fac2f38e8307.jpg""]","",""
"","3335","similarity","206","1138007","0.0-6.0-200.0","3","[""img/0894/2d2db7b3-e8a3-499b-b63a-14f51bf73882.jpg"",""img/0860/d9a0d117-6d1d-41c0-8fec-9aff0fd9e9f2.jpg""]","",""
"","5819","similarity","207","1144834","0.0-6.0-201.0","7","[""img/0898/01bfe666-3510-4fc7-964f-d00d28732dc8.jpg"",""img/0903/31b5a5f4-b695-4af1-bad2-a19650a05498.jpg""]","",""
"","3976","similarity","208","1149817","0.0-6.0-202.0","3","[""img/0864/0116ca98-293d-4fa6-a93b-5a6144ef64cc.jpg"",""img/0894/b2d2f66e-e480-46da-a02a-6d0c6b285d78.jpg""]","",""
"","3528","similarity","209","1154350","0.0-6.0-203.0","5","[""img/0874/995f0332-0439-4eb4-add3-957335dbf6d9.jpg"",""img/0860/4a022222-056d-461c-ab02-39fac9647552.jpg""]","",""
"","3485","similarity","210","1158840","0.0-6.0-204.0","5","[""img/0862/00c06b00-3b73-44e9-bc1e-c5aafb438321.jpg"",""img/0875/dbdd643e-6d0e-4a5c-ab57-b9c29b9c981a.jpg""]","",""
"","2757","similarity","211","1162605","0.0-6.0-205.0","4","[""img/0867/a749dddb-69f0-44a6-acdc-2bf295cf6dcc.jpg"",""img/0881/f7a8cc63-8842-40a4-9ff8-fe530310d62c.jpg""]","",""
"","4196","similarity","212","1167808","0.0-6.0-206.0","6","[""img/0901/0adb3bd6-d758-4ba7-9723-3ad6cac05bd5.jpg"",""img/0902/12452bb1-b8c0-4e4d-ad4d-47e279e5933c.jpg""]","",""
"","4863","similarity","213","1173698","0.0-6.0-207.0","3","[""img/0899/f95cbdb4-f804-4f5d-ad76-373ad343e658.jpg"",""img/0864/6f631579-acf1-415c-a42c-1207f62a8d99.jpg""]","",""
"","5533","similarity","214","1180245","0.0-6.0-208.0","3","[""img/0901/da4fe30f-d12a-491e-96a2-5ab8ebaadd09.jpg"",""img/0769/022c7e3b-c3f2-4119-b4bc-f22fa7cae18c.jpg""]","",""
"","5899","similarity","215","1192130","0.0-6.0-209.0","7","[""img/0902/1f4a4c62-68c1-4993-b213-05652a173ed1.jpg"",""img/0902/511abb54-0094-4f4d-b6dc-3f2c97050521.jpg""]","",""
"[{""page_index"":0,""viewing_time"":5184}]","5186","instructions","216","1198320","0.0-7.0","","","",""
"","28481","image-multi-choice","217","1227837","0.0-8.0-0.0","","","{""Q0"":""Tennessee Warbler""}","Nashville Warbler"
"","4229","image-multi-choice","218","1233091","0.0-8.0-1.0","","","{""Q0"":""Black-and-white Warbler""}","Black-and-white Warbler"
"","26938","image-multi-choice","219","1261052","0.0-8.0-2.0","","","{""Q0"":""Townsend's Warbler""}","Townsend's Warbler"
"","3420","image-multi-choice","220","1265495","0.0-8.0-3.0","","","{""Q0"":""Lark Sparrow""}","Lark Sparrow"
"","4246","image-multi-choice","221","1270761","0.0-8.0-4.0","","","{""Q0"":""Yellow Warbler""}","Yellow Warbler"
"","6763","image-multi-choice","222","1278546","0.0-8.0-5.0","","","{""Q0"":""Orange-crowned Warbler""}","Orange-crowned Warbler"
"","3894","image-multi-choice","223","1283465","0.0-8.0-6.0","","","{""Q0"":""White-throated Sparrow""}","White-throated Sparrow"
"","4455","image-multi-choice","224","1288946","0.0-8.0-7.0","","","{""Q0"":""Fox Sparrow""}","Fox Sparrow"
"","32386","image-multi-choice","225","1322356","0.0-8.0-8.0","","","{""Q0"":""Song Sparrow""}","Song Sparrow"
"","7863","image-multi-choice","226","1331243","0.0-8.0-9.0","","","{""Q0"":""Blackburnian Warbler""}","Blackburnian Warbler"
"","55529","image-multi-choice","227","1387792","0.0-8.0-10.0","","","{""Q0"":""Lincoln's Sparrow""}","Vesper Sparrow"
"","2924","image-multi-choice","228","1391739","0.0-8.0-11.0","","","{""Q0"":""White-crowned Sparrow""}","White-crowned Sparrow"
"","58786","image-multi-choice","229","1451551","0.0-8.0-12.0","","","{""Q0"":""American Tree Sparrow""}","American Tree Sparrow"
"","49594","image-multi-choice","230","1502165","0.0-8.0-13.0","","","{""Q0"":""Orange-crowned Warbler""}","Tennessee Warbler"
"","5847","image-multi-choice","231","1509035","0.0-8.0-14.0","","","{""Q0"":""Magnolia Warbler""}","Magnolia Warbler"
"","42121","image-multi-choice","232","1552177","0.0-8.0-15.0","","","{""Q0"":""Northern Waterthrush""}","Northern Waterthrush"
"","8170","image-multi-choice","233","1561369","0.0-8.0-16.0","","","{""Q0"":""Chipping Sparrow""}","Chipping Sparrow"
"","16342","image-multi-choice","234","1578739","0.0-8.0-17.0","","","{""Q0"":""Swamp Sparrow""}","Swamp Sparrow"
"","9229","image-multi-choice","235","1588995","0.0-8.0-18.0","","","{""Q0"":""Vesper Sparrow""}","Lincoln's Sparrow"
"","3962","image-multi-choice","236","1593982","0.0-8.0-19.0","","","{""Q0"":""Ovenbird""}","Ovenbird"
