"view_history","rt","trial_type","trial_index","time_elapsed","internal_node_id","sim_score","stimulus","responses","answer"
"[{""page_index"":0,""viewing_time"":33979}]","33981","instructions","0","33982","0.0-0.0","","","",""
"","6239","similarity_demo","1","41242","0.0-1.0","6","[""img/866.jpg"",""img/868.jpg""]","",""
"[{""page_index"":0,""viewing_time"":6083}]","6084","instructions","2","48327","0.0-2.0","","","",""
"","3949","similarity_demo","3","53284","0.0-3.0","2","[""img/766.jpg"",""img/867.jpg""]","",""
"[{""page_index"":0,""viewing_time"":5111}]","5111","instructions","4","59395","0.0-4.0","","","",""
"[{""page_index"":0,""viewing_time"":6936}]","6937","instructions","5","67332","0.0-5.0","","","",""
"","3750","similarity","6","72096","0.0-6.0-0.0","5","[""img/0868/4a8a45ed-2c4f-421b-9564-409a33ecd26c.jpg"",""img/0901/875dedb9-24c9-4443-9f8c-85e97d70ee5a.jpg""]","",""
"","3507","similarity","7","76610","0.0-6.0-1.0","4","[""img/0769/1afb527f-9887-428c-bd26-a12c2f9efb68.jpg"",""img/0867/c71dc569-f49c-4397-8381-68b8d726736d.jpg""]","",""
"","3133","similarity","8","80757","0.0-6.0-2.0","5","[""img/0766/535849cc-ff5d-4df9-8f31-0ce94a97d571.jpg"",""img/0898/8605a25b-6895-476d-8c13-df7a83f96093.jpg""]","",""
"","2535","similarity","9","84300","0.0-6.0-3.0","3","[""img/0902/10d99c89-71f7-4c81-a31e-dfc7c59f5232.jpg"",""img/0881/84397291-bc14-4fbf-90e8-241e486ab0fe.jpg""]","",""
"","2928","similarity","10","88239","0.0-6.0-4.0","7","[""img/0894/86201968-6e78-4d68-9b3a-d1692e066210.jpg"",""img/0894/11674fa4-285d-44e2-939f-2228c6a64080.jpg""]","",""
"","3317","similarity","11","92568","0.0-6.0-5.0","5","[""img/0874/99f6563c-8a8d-4c1c-a41d-667b618c3fd5.jpg"",""img/0899/00715b3f-851b-420b-a26b-d7f79f7759a9.jpg""]","",""
"","3637","similarity","12","97238","0.0-6.0-6.0","5","[""img/0904/ba8e689e-9ca6-4608-a2a1-3b0940666ae6.jpg"",""img/0764/e0788029-9d7f-414c-b747-46d2a99f7c86.jpg""]","",""
"","2898","similarity","13","101146","0.0-6.0-7.0","5","[""img/0899/565ccdd9-0933-4536-a625-3c0e25a713dd.jpg"",""img/0898/c3cecf20-f7fd-45fa-97d0-dc0a63e8d6c0.jpg""]","",""
"","3527","similarity","14","105683","0.0-6.0-8.0","3","[""img/0874/adf9a8f1-c40b-402b-b95b-1e85a54a7b62.jpg"",""img/0903/8f7f9939-b8e6-433f-93dd-b362496c80a7.jpg""]","",""
"","3845","similarity","15","110540","0.0-6.0-9.0","6","[""img/0881/292e9b4b-fca0-4ba8-87f1-4048f9e37b7d.jpg"",""img/0758/caa93da2-9edf-49fa-96b9-32dedd8f5078.jpg""]","",""
"","1860","similarity","16","113407","0.0-6.0-10.0","4","[""img/0898/e167334e-cc1d-4986-b3b1-c7bc7da64baa.jpg"",""img/0901/7c16dd9c-44ad-4d5b-990c-6a0b9b48b1b1.jpg""]","",""
"","4937","similarity","17","119358","0.0-6.0-11.0","3","[""img/0903/36e4ab1f-caa9-40b3-8616-faada076df94.jpg"",""img/0769/e8ed913b-8a88-44f6-9327-d34afec3116b.jpg""]","",""
"","3184","similarity","18","123553","0.0-6.0-12.0","2","[""img/0764/f64dfa83-333d-494c-87b5-73e942f1766e.jpg"",""img/0868/6a28c3b0-3d76-498a-9fb7-ddafc665eca8.jpg""]","",""
"","5970","similarity","19","130533","0.0-6.0-13.0","3","[""img/0867/a498eef3-9fa4-4ab2-9778-4ae82ac40dc5.jpg"",""img/0903/d987e220-f3e6-4b6d-a270-fe6757041f6d.jpg""]","",""
"","4619","similarity","20","136158","0.0-6.0-14.0","5","[""img/0766/aaec5f42-7f0a-4a16-aeca-488d757acbcc.jpg"",""img/0758/e38fd80d-18d0-42f3-b848-f930788e8bd7.jpg""]","",""
"","3524","similarity","21","140689","0.0-6.0-15.0","7","[""img/0902/94ee9c53-a9a2-4f95-b9b7-794a5fc62bb6.jpg"",""img/0860/fd4662f9-4c03-4d79-8593-06735e55a64b.jpg""]","",""
"","3761","similarity","22","145480","0.0-6.0-16.0","3","[""img/0769/91acb237-65a3-4d0b-9748-af5c7b83d3c7.jpg"",""img/0875/99698b4d-b4a1-44bc-8c83-8ea755bbbf61.jpg""]","",""
"","3502","similarity","23","149991","0.0-6.0-17.0","3","[""img/0904/696ebb60-8891-417a-91fd-c53218907a95.jpg"",""img/0866/07c9c966-3c8d-40e7-8128-92b2acbaed5d.jpg""]","",""
"","2355","similarity","24","153380","0.0-6.0-18.0","7","[""img/0875/5a1e5100-0d94-4fec-bbe9-ca9894d2cf8e.jpg"",""img/0875/5a7c4e35-6514-4e12-8879-d16071da4cd6.jpg""]","",""
"","3675","similarity","25","158068","0.0-6.0-19.0","7","[""img/0758/821c68d3-5cb0-4eae-8659-30e6263fca39.jpg"",""img/0758/a709631e-3705-4725-ac40-f0d916924f08.jpg""]","",""
"","2915","similarity","26","162000","0.0-6.0-20.0","6","[""img/0902/01b41522-de46-4c3a-b0af-a61b2682b40e.jpg"",""img/0874/c0378dac-9370-439a-8b79-db27c96fb390.jpg""]","",""
"","2763","similarity","27","165773","0.0-6.0-21.0","6","[""img/0764/cffc80b0-4a90-4acb-a530-6f480f3ca303.jpg"",""img/0769/35f2dd39-40aa-498e-b401-9f1ef2622d00.jpg""]","",""
"","2234","similarity","28","169016","0.0-6.0-22.0","3","[""img/0901/58ec7fa9-b466-4651-90aa-c082df0972de.jpg"",""img/0874/1016b306-087c-4afc-aa08-fa527b28dc76.jpg""]","",""
"","2801","similarity","29","172827","0.0-6.0-23.0","3","[""img/0875/2c361b79-c3d1-4eda-812e-bf03192407bf.jpg"",""img/0903/07b445ee-0cdb-4d2c-a23b-d727613f4059.jpg""]","",""
"","3862","similarity","30","177697","0.0-6.0-24.0","2","[""img/0769/5bd04f55-d091-4f57-85db-38426f26bd1a.jpg"",""img/0881/f6bd3b96-dc40-4e99-8681-bc3a35cf896d.jpg""]","",""
"","3921","similarity","31","182626","0.0-6.0-25.0","3","[""img/0867/f26f6b60-f772-4f4c-95a4-addc62cfd692.jpg"",""img/0904/2fd488e9-960f-41f7-8a44-33375f7d5051.jpg""]","",""
"","1650","similarity","32","185283","0.0-6.0-26.0","5","[""img/0860/e8b8c51e-1834-4875-8b61-6c5bc9b178bd.jpg"",""img/0881/ed4c971f-0873-4fc8-b6d6-e8bbd82f0bcc.jpg""]","",""
"","3106","similarity","33","189401","0.0-6.0-27.0","7","[""img/0866/11a1d141-be5e-443c-98c1-a9d4d9e3dec0.jpg"",""img/0866/8efcaa46-83ab-4dee-a35f-850402aa21ae.jpg""]","",""
"","2281","similarity","34","192713","0.0-6.0-28.0","5","[""img/0764/b887d7c6-aa81-4637-af8e-05135757ac59.jpg"",""img/0862/92f0146c-20c4-482e-aef5-adb693790338.jpg""]","",""
"","3021","similarity","35","196741","0.0-6.0-29.0","2","[""img/0904/b5855d6a-7ef9-46ca-9215-6e9fa046e543.jpg"",""img/0758/e1ba5e53-addc-436a-b428-d34fc1b130dc.jpg""]","",""
"","3291","similarity","36","201041","0.0-6.0-30.0","5","[""img/0894/0130a973-d993-41f8-874a-fee23d9ac11f.jpg"",""img/0899/4f7bc593-8ddd-4da3-a0b9-84da730d3370.jpg""]","",""
"","3930","similarity","37","205982","0.0-6.0-31.0","6","[""img/0860/17b44a7d-c5ca-479f-9e87-f65a64f5c80e.jpg"",""img/0904/4b8daf2a-13a9-4ea9-9e0b-b265b6e933e7.jpg""]","",""
"","2477","similarity","38","209466","0.0-6.0-32.0","6","[""img/0874/85eb9b8a-c4c6-4e5a-b8e7-363a87a82054.jpg"",""img/0881/54ea8e77-c7e5-4197-b7fa-00b7020849a7.jpg""]","",""
"","2615","similarity","39","213092","0.0-6.0-33.0","5","[""img/0881/db77fe00-aeb0-4d1d-aa66-f3a96fd077e4.jpg"",""img/0899/7b7380d5-d2be-44e5-a09a-c1756f87ef71.jpg""]","",""
"","2344","similarity","40","216442","0.0-6.0-34.0","5","[""img/0866/f756f7d1-9ad8-4a34-9ef6-7a443d705bfe.jpg"",""img/0862/f188d4f0-76a4-4102-818c-a209969d73a5.jpg""]","",""
"","2801","similarity","41","220256","0.0-6.0-35.0","1","[""img/0868/e0aff734-077f-40dd-9781-74821abd3621.jpg"",""img/0894/38f5931f-926d-414e-b498-66b188978b7a.jpg""]","",""
"","2808","similarity","42","224077","0.0-6.0-36.0","7","[""img/0860/18dfed73-e36b-4487-a8bd-0b8cff8e3668.jpg"",""img/0860/4f695df5-afac-4da7-9875-fee39b0b24ad.jpg""]","",""
"","4053","similarity","43","229142","0.0-6.0-37.0","6","[""img/0862/ee3b7bff-4a70-4e84-9bea-4a565e456acb.jpg"",""img/0864/e8bd659f-aa43-4748-877e-3118e8b4e189.jpg""]","",""
"","2266","similarity","44","232419","0.0-6.0-38.0","2","[""img/0766/2e1cf445-9aef-40e7-92f4-5facf48b64c5.jpg"",""img/0866/d266fece-59b3-46fa-b69f-96f6efb81b59.jpg""]","",""
"","2982","similarity","45","236408","0.0-6.0-39.0","3","[""img/0875/03c3c331-738b-4446-af92-3d7386b08c2e.jpg"",""img/0898/a114b375-cb89-44ba-9498-74213f1ecdee.jpg""]","",""
"","2838","similarity","46","240254","0.0-6.0-40.0","3","[""img/0766/91fc8c4d-862f-4d2b-b1a1-2db8d729b6b7.jpg"",""img/0769/c34b7763-8ff2-46d5-9e92-f1d8f3bedbd8.jpg""]","",""
"","2207","similarity","47","259281","0.0-6.0-41.0","2","[""img/0874/767f289c-9814-4496-803f-745cc8913d1f.jpg"",""img/0764/c01e2d65-6586-441b-bef5-3c96fcd85380.jpg""]","",""
"","2695","similarity","48","262985","0.0-6.0-42.0","2","[""img/0868/c8ac40c7-6904-4e13-8d61-c75d3052dc4e.jpg"",""img/0902/24d10fe7-314f-4d5a-8c7b-b43121bba0a4.jpg""]","",""
"","3729","similarity","49","267724","0.0-6.0-43.0","1","[""img/0875/34132396-d896-4c2d-8087-646dd867e769.jpg"",""img/0899/8abe6c69-822c-436c-9bf2-96c818b49ba5.jpg""]","",""
"","4472","similarity","50","273206","0.0-6.0-44.0","2","[""img/0866/23a224f3-2012-4fc8-8e0f-3c36f8de27fd.jpg"",""img/0860/15b24a61-25be-4356-9eac-5ce95d0cb4a4.jpg""]","",""
"","2951","similarity","51","277168","0.0-6.0-45.0","6","[""img/0766/989c5c7f-1aff-4442-ac63-9d46acf4a891.jpg"",""img/0903/c3cb4a01-2797-43ca-b216-88c67b323fbb.jpg""]","",""
"","2002","similarity","52","280178","0.0-6.0-46.0","7","[""img/0901/5657dd86-0ff9-4753-ba2b-9dfb223e5c89.jpg"",""img/0904/06dacdc5-2206-4fb8-92b7-88042d22833c.jpg""]","",""
"","3381","similarity","53","284571","0.0-6.0-47.0","5","[""img/0758/7fba58df-2a7a-4b76-8a8f-62739f97f271.jpg"",""img/0902/a323b62d-2fd5-4ac8-acc6-35b768f3c3f2.jpg""]","",""
"","2408","similarity","54","287991","0.0-6.0-48.0","7","[""img/0764/fb7d4a20-a475-465e-a74f-aa39a0d33d16.jpg"",""img/0764/bd2eaa3e-95a9-4a59-a78e-3f81c766eea9.jpg""]","",""
"","3127","similarity","55","292133","0.0-6.0-49.0","2","[""img/0866/4a87911a-d5be-4d4e-ab8e-3d1f581bf507.jpg"",""img/0902/6c2c243a-f663-45db-baf5-038d3d58c589.jpg""]","",""
"","3195","similarity","56","296340","0.0-6.0-50.0","2","[""img/0764/1def7b22-b054-4ec2-860b-73d25691823b.jpg"",""img/0758/a085b443-b5d7-4cb2-9ad4-b9dab0fc23f1.jpg""]","",""
"","2964","similarity","57","300317","0.0-6.0-51.0","2","[""img/0898/01bfe666-3510-4fc7-964f-d00d28732dc8.jpg"",""img/0894/e2446cf5-cd48-486a-badc-76498e087fbe.jpg""]","",""
"","2834","similarity","58","304160","0.0-6.0-52.0","7","[""img/0875/5a716432-c6ca-4b1c-955a-2b8ac25198ee.jpg"",""img/0866/93a27239-8317-4e08-98ca-d8b1ff298e07.jpg""]","",""
"","2494","similarity","59","307663","0.0-6.0-53.0","7","[""img/0904/09934646-45d2-4147-8fec-64a22a5ac822.jpg"",""img/0904/09dac84f-3d1c-4445-a68e-d0389fdbf1e9.jpg""]","",""
"","2140","similarity","60","310811","0.0-6.0-54.0","7","[""img/0769/aad494cc-674d-4a08-9bfa-24a88ebe3c79.jpg"",""img/0769/9ea9ceb6-049e-4ad9-be8f-00645cd35803.jpg""]","",""
"","2545","similarity","61","314368","0.0-6.0-55.0","3","[""img/0898/81b08535-2020-4c15-9ce4-2f1e460755ae.jpg"",""img/0758/eabcd7a8-56ad-4fd2-bc24-90f6b7b33265.jpg""]","",""
"","2871","similarity","62","318249","0.0-6.0-56.0","6","[""img/0769/14d393ce-e5be-4ca1-86ce-cc27d4b6074c.jpg"",""img/0902/d1083f2c-5520-44ec-81a8-3f856fbf0e80.jpg""]","",""
"","2701","similarity","63","321960","0.0-6.0-57.0","5","[""img/0864/9b2490c5-a282-400a-9736-e1a0ecbf1cb7.jpg"",""img/0881/405484ae-0d00-4b05-bc57-6420a36adfac.jpg""]","",""
"","5031","similarity","64","328003","0.0-6.0-58.0","1","[""img/0758/b76ceca7-95ac-46e4-ac13-da02c8e93be9.jpg"",""img/0868/5fa7f9d0-f0e5-454c-8224-74d964818f56.jpg""]","",""
"","3923","similarity","65","332935","0.0-6.0-59.0","7","[""img/0862/1c20f772-3a51-4a80-aac0-f57dc9f86c28.jpg"",""img/0769/96556ef3-7fac-4c9d-8281-1cb0ea5081bc.jpg""]","",""
"","2740","similarity","66","336686","0.0-6.0-60.0","5","[""img/0764/6fbd1902-fa2a-48d8-bc11-705b8ab68d8f.jpg"",""img/0903/70d764d9-1f35-4da7-a35d-4cc39834d270.jpg""]","",""
"","3881","similarity","67","341575","0.0-6.0-61.0","7","[""img/0899/8de08897-b430-42fe-9d42-840670b80f94.jpg"",""img/0899/7f9d45d0-b2c6-40d3-aa41-c207db2c411b.jpg""]","",""
"","3076","similarity","68","345657","0.0-6.0-62.0","3","[""img/0860/61fb959d-d4d9-4de4-9e4e-4fa62b4cfcd5.jpg"",""img/0875/ebf7653f-ff45-4e9f-af58-2c042ab3cd2b.jpg""]","",""
"","4002","similarity","69","350668","0.0-6.0-63.0","2","[""img/0868/4e626425-63c8-484a-8a1d-e66ee4e0bef8.jpg"",""img/0874/ca23d307-fc00-4d7d-9106-584c6eb21b4d.jpg""]","",""
"","2719","similarity","70","354392","0.0-6.0-64.0","3","[""img/0758/d57c2592-a317-4f63-91be-91a3a9afd222.jpg"",""img/0862/53a9cf7c-93c4-41b9-952f-07d17f7a17b2.jpg""]","",""
"","2087","similarity","71","357525","0.0-6.0-65.0","7","[""img/0904/2c98dc56-88d1-4fb5-a999-b6a7861f65f0.jpg"",""img/0898/04e39a7a-fcf6-4156-ab0e-f5871f335e1c.jpg""]","",""
"","2488","similarity","72","361020","0.0-6.0-66.0","1","[""img/0881/e6746727-7f89-47ec-b939-d98abe78372d.jpg"",""img/0866/be24ab58-230e-4db8-9f45-ff04c9aec6bb.jpg""]","",""
"","1855","similarity","73","363885","0.0-6.0-67.0","1","[""img/0867/7d1c497b-c1b3-4ed8-abb5-d7f73306015f.jpg"",""img/0898/f3a3f225-1248-4ac7-b93b-f0ff28485bf3.jpg""]","",""
"","2376","similarity","74","367269","0.0-6.0-68.0","3","[""img/0902/418b716e-63e5-4c77-93e9-95b1f5a3ddf0.jpg"",""img/0764/fb92924f-5cfe-4b89-b130-0cce8cc5636b.jpg""]","",""
"","3781","similarity","75","372059","0.0-6.0-69.0","2","[""img/0875/527ced51-8e53-4aab-ab05-86df219104c0.jpg"",""img/0867/de92135f-5b65-4ed9-b245-188292c7c2f8.jpg""]","",""
"","2441","similarity","76","375509","0.0-6.0-70.0","7","[""img/0766/b84598d0-5b41-4841-88b0-b441b48289f5.jpg"",""img/0764/03c07b98-3f18-4b71-bb70-ecff564a78d1.jpg""]","",""
"","3900","similarity","77","380416","0.0-6.0-71.0","2","[""img/0894/792c83e9-a747-4000-bc72-5663d2439edb.jpg"",""img/0867/12264664-1860-46df-8c21-162b9817cdda.jpg""]","",""
"","2017","similarity","78","383439","0.0-6.0-72.0","1","[""img/0875/2e13d160-eea1-416b-aff1-d37ab99ecc1d.jpg"",""img/0764/ec2dd087-c471-4370-b570-95a542506a96.jpg""]","",""
"","2597","similarity","79","387041","0.0-6.0-73.0","7","[""img/0867/a749dddb-69f0-44a6-acdc-2bf295cf6dcc.jpg"",""img/0866/386235d2-6857-41e7-88a8-25cfc3430025.jpg""]","",""
"","2003","similarity","80","390052","0.0-6.0-74.0","4","[""img/0903/6378ee1e-3d2b-48d2-87be-bebda32c8268.jpg"",""img/0758/9fb5b2fe-3f00-4fe6-973c-1ce10d5f4cd5.jpg""]","",""
"","3467","similarity","81","394525","0.0-6.0-75.0","3","[""img/0766/d5d38751-8fa5-476f-93e9-86ed2d9045ef.jpg"",""img/0868/7b212364-ff5f-4e28-9241-7eb6ea00161b.jpg""]","",""
"","2079","similarity","82","397611","0.0-6.0-76.0","4","[""img/0874/7e4f2150-3b59-4a36-b5da-a4e0ba410531.jpg"",""img/0766/1bc0dccc-a5b5-4375-87fa-28360ca42b12.jpg""]","",""
"","3214","similarity","83","401830","0.0-6.0-77.0","2","[""img/0881/f4e3e181-b3c9-4af2-a5a4-fc135ab70d2e.jpg"",""img/0868/179a5502-ab5c-478e-8263-5a1fbcc101d2.jpg""]","",""
"","3817","similarity","84","406659","0.0-6.0-78.0","2","[""img/0758/3ddd05d3-557e-4ee7-8b78-9d2d681d8ae2.jpg"",""img/0901/a0d65c84-3f20-476a-92d1-0c01e8019cf4.jpg""]","",""
"","4101","similarity","85","411766","0.0-6.0-79.0","4","[""img/0881/0c7068da-d0d9-4103-bda1-74ef7a2b32c3.jpg"",""img/0898/0af304a2-6a7a-4082-ab7c-4450cd08cc58.jpg""]","",""
"","2745","similarity","86","415516","0.0-6.0-80.0","1","[""img/0867/6e19c858-b606-45b2-a4c6-910a73f1d82c.jpg"",""img/0758/f61ecdf8-a7d4-4db0-b84d-be46f7cfaffc.jpg""]","",""
"","4248","similarity","87","420769","0.0-6.0-81.0","4","[""img/0769/04347740-f8f6-48bb-887a-f68babd0a0d4.jpg"",""img/0899/0e1d936a-dbe2-4afc-9f19-7b7a1ae6c9ed.jpg""]","",""
"","5084","similarity","88","426862","0.0-6.0-82.0","2","[""img/0903/31b5a5f4-b695-4af1-bad2-a19650a05498.jpg"",""img/0903/c708d08f-a108-4e04-8288-c3fcf6375db4.jpg""]","",""
"","3757","similarity","89","437475","0.0-6.0-83.0","3","[""img/0867/179ab87a-8eac-4c52-a41f-2e48e3120f09.jpg"",""img/0766/3c526a07-9e0a-4ae2-8142-00085f0127da.jpg""]","",""
"","2883","similarity","90","441367","0.0-6.0-84.0","1","[""img/0902/d2c34af0-8c50-437d-8cc3-619195a3e8ba.jpg"",""img/0867/5e07b34d-b40f-4b1c-ac10-49975bace45f.jpg""]","",""
"","3004","similarity","91","445381","0.0-6.0-85.0","1","[""img/0901/71e551a2-9ce2-409c-9c7c-dd556a0791e9.jpg"",""img/0875/cff79b3a-a797-4393-9757-6275f999ec04.jpg""]","",""
"","2989","similarity","92","449382","0.0-6.0-86.0","1","[""img/0764/4952d0a0-c9be-471a-8ec7-94a37bf4051d.jpg"",""img/0866/bf14b5bd-fb55-47db-86b9-4f8aeb9a6dad.jpg""]","",""
"","1916","similarity","93","452307","0.0-6.0-87.0","4","[""img/0901/58978a6d-a3e2-4c59-8d62-f60693ecc0f6.jpg"",""img/0894/492d2f29-d7b9-4422-8be8-47fd58bfaa8b.jpg""]","",""
"","3840","similarity","94","457160","0.0-6.0-88.0","6","[""img/0898/b3290bf9-215b-4b45-b21a-65bdf73f142f.jpg"",""img/0769/48a1144d-fbda-4809-991b-fc8424a32ee4.jpg""]","",""
"","3865","similarity","95","462038","0.0-6.0-89.0","4","[""img/0769/da36e3f7-2337-434f-ab57-11822dd7eed7.jpg"",""img/0894/5ff3c4f6-52e2-4075-8679-be0312e59703.jpg""]","",""
"","4224","similarity","96","467276","0.0-6.0-90.0","4","[""img/0862/ba89835a-408c-480b-8594-ed4ffa97eb5c.jpg"",""img/0874/ca76a855-4e77-4f2f-872a-0a718153e7ed.jpg""]","",""
"","3783","similarity","97","472069","0.0-6.0-91.0","5","[""img/0894/8cadb87a-7001-4e47-99fb-1867bebf1668.jpg"",""img/0766/a1ed3f0f-e338-4a26-8fe4-4370f0c9fa6e.jpg""]","",""
"","2232","similarity","98","475315","0.0-6.0-92.0","1","[""img/0874/995f0332-0439-4eb4-add3-957335dbf6d9.jpg"",""img/0867/bf560d4f-dee3-4f11-a385-705cc1aa5f3c.jpg""]","",""
"","1985","similarity","99","478311","0.0-6.0-93.0","2","[""img/0899/93494f3b-d539-4075-b027-d82e344563da.jpg"",""img/0868/8b0b8473-e2c0-4331-aa56-c3a5c29369da.jpg""]","",""
"","2192","similarity","100","481512","0.0-6.0-94.0","6","[""img/0903/005ad0de-4f52-433c-b515-dbe8d46184a3.jpg"",""img/0862/fb26cb07-d5a9-4653-813c-f41609f26cd5.jpg""]","",""
"","2619","similarity","101","485139","0.0-6.0-95.0","6","[""img/0899/56a605c3-d0a2-4215-89e1-779279d85a7c.jpg"",""img/0766/1865bfc9-2410-4765-a804-3ae4ba2393d0.jpg""]","",""
"","2383","similarity","102","488527","0.0-6.0-96.0","7","[""img/0867/1719a35d-f085-48c0-9099-16c94fe418b4.jpg"",""img/0868/77091fc7-a590-4ebb-b915-fdb2483a2399.jpg""]","",""
"","2742","similarity","103","492277","0.0-6.0-97.0","6","[""img/0862/de9ad88c-b522-430a-8ee9-eb06a9f85df5.jpg"",""img/0901/148b747a-7392-437e-8823-33053c5dff3f.jpg""]","",""
"","2808","similarity","104","496093","0.0-6.0-98.0","3","[""img/0875/42910c99-5463-450a-a0f8-d4d060a11455.jpg"",""img/0766/d3bab2fc-ddcc-40a0-bb72-c0d0ebe19978.jpg""]","",""
"","2233","similarity","105","499333","0.0-6.0-99.0","6","[""img/0758/7ee8bc8f-c40b-4b3a-84ec-3e83580622d4.jpg"",""img/0874/8cdb1c07-1c32-46d2-981c-3636560fa6e5.jpg""]","",""
"","2574","similarity","106","502914","0.0-6.0-100.0","2","[""img/0904/0d25eb24-bb20-4e8d-9787-8b489558b4cb.jpg"",""img/0868/09a9ef4d-d000-4cfa-a6aa-ebec7c2edeb4.jpg""]","",""
"","3491","similarity","107","507412","0.0-6.0-101.0","5","[""img/0903/3e9ee8a5-eb66-47f5-8973-8a5af1ddc87e.jpg"",""img/0866/620cd1aa-0800-4414-8f6e-90342e7a99ad.jpg""]","",""
"","2604","similarity","108","511022","0.0-6.0-102.0","2","[""img/0868/0d3abd3a-b6c3-4584-a9f7-e2da63748b3d.jpg"",""img/0769/e31b3bd8-efcb-413e-aa8c-75fac2b8f2ac.jpg""]","",""
"","2579","similarity","109","514610","0.0-6.0-103.0","6","[""img/0902/5b45a7a0-81c8-4a71-aaa2-2ce09adb5a29.jpg"",""img/0899/76ad07e2-ca25-45eb-84f2-8d80b8ca3e26.jpg""]","",""
"","1918","similarity","110","517571","0.0-6.0-104.0","4","[""img/0868/15dd6fd7-791e-4b53-b203-195d617521a4.jpg"",""img/0862/f43ceabf-acc1-4107-b857-5d1849808f93.jpg""]","",""
"","2612","similarity","111","521198","0.0-6.0-105.0","7","[""img/0903/776b74ee-a8ab-4ab8-a78d-097c0747538d.jpg"",""img/0894/10f22b96-040c-44f4-950b-a4963f3f506c.jpg""]","",""
"","3017","similarity","112","525223","0.0-6.0-106.0","7","[""img/0864/c3b63e8f-ea39-4d70-a1f2-b3fe4be8eb75.jpg"",""img/0874/eba003b4-cdab-4eee-8bc3-f064c7d94165.jpg""]","",""
"","4254","similarity","113","530486","0.0-6.0-107.0","7","[""img/0862/92fcd8a4-8193-4a6a-ae09-dd4a6338b0df.jpg"",""img/0902/ca3160ba-ad5d-459f-a1b6-8b4f3c85ecd5.jpg""]","",""
"","2581","similarity","114","534079","0.0-6.0-108.0","7","[""img/0904/56e73f28-7e64-489b-a161-e6b1a063878d.jpg"",""img/0903/b4a0f61e-a964-4b79-a9a7-f767a8f92f34.jpg""]","",""
"","3409","similarity","115","538495","0.0-6.0-109.0","6","[""img/0764/83c93cce-18d1-4aa7-9e23-2c268afe0a46.jpg"",""img/0864/ef9cbca0-4be8-435d-ad49-977259e80409.jpg""]","",""
"","3847","similarity","116","543349","0.0-6.0-110.0","4","[""img/0866/d493a2c8-66eb-44b4-be02-2f327b700b7c.jpg"",""img/0894/5c7677b0-a4f1-479e-b274-7822c415175a.jpg""]","",""
"","2350","similarity","117","546705","0.0-6.0-111.0","2","[""img/0899/9de5e857-aa9a-4e0c-8ba2-46d79bd069a4.jpg"",""img/0903/6f343da5-00d9-4d50-89d1-2ed24cdb8319.jpg""]","",""
"","2488","similarity","118","550199","0.0-6.0-112.0","7","[""img/0902/7f1dcd35-237a-4995-9e42-7f63f3f434d4.jpg"",""img/0904/e9423a8c-f946-43ad-ab7b-931acef870e2.jpg""]","",""
"","2272","similarity","119","553486","0.0-6.0-113.0","5","[""img/0864/3d4de670-b290-4285-9c3d-12a0e3af44e9.jpg"",""img/0860/94ef7afc-e0e6-4a15-98c6-0bfac82bc832.jpg""]","",""
"","2445","similarity","120","556938","0.0-6.0-114.0","5","[""img/0860/8277806e-b684-4474-8f7b-3fca946d7d4f.jpg"",""img/0899/d60714ae-98d7-4564-8c98-94dba1351135.jpg""]","",""
"","4964","similarity","121","562907","0.0-6.0-115.0","4","[""img/0881/14236cf2-6b95-48b8-9368-78af09d2d27f.jpg"",""img/0903/aa842abe-6fa3-448a-bf71-88d3ad28663b.jpg""]","",""
"","2432","similarity","122","566347","0.0-6.0-116.0","5","[""img/0894/a98416c0-51e2-4960-85da-d81d8688b9d5.jpg"",""img/0874/bf14b896-e930-4fd9-9c05-2e83317a2773.jpg""]","",""
"","1881","similarity","123","569234","0.0-6.0-117.0","3","[""img/0881/667e2147-d457-4f32-aa5f-6ab86e5848f1.jpg"",""img/0862/e0f1a4e9-e1b6-45f7-af67-89f334e6630d.jpg""]","",""
"","3516","similarity","124","573755","0.0-6.0-118.0","2","[""img/0868/d6d1f30d-4323-435a-b194-7892521bc57e.jpg"",""img/0875/a4935837-7d3c-4df6-88c1-36a94d4991ca.jpg""]","",""
"","2086","similarity","125","576849","0.0-6.0-119.0","5","[""img/0860/b03b963d-949b-4d8d-b19c-4950c89eeca2.jpg"",""img/0758/dd559618-7f09-4a07-8018-d311c4a5ea29.jpg""]","",""
"","2202","similarity","126","580057","0.0-6.0-120.0","2","[""img/0864/e336a4c5-6648-4fd7-b2f6-93a3fb83f8c6.jpg"",""img/0875/f87b67d7-c33e-40d1-b281-248c4be1cb6e.jpg""]","",""
"","4762","similarity","127","585825","0.0-6.0-121.0","1","[""img/0898/26c41340-15bd-4ead-8fe4-c0d0ddca09c2.jpg"",""img/0866/02f5e6b9-52b7-448c-9708-5b460d0c9a23.jpg""]","",""
"","3023","similarity","128","589857","0.0-6.0-122.0","2","[""img/0874/a82926a3-0b43-4add-803c-d5f9ea7798ee.jpg"",""img/0904/24fc38fe-842c-4831-ad8a-b1de5c25c0a8.jpg""]","",""
"","2122","similarity","129","592991","0.0-6.0-123.0","2","[""img/0904/4d7d70a3-9477-4921-bda0-f9531d0a5c5b.jpg"",""img/0864/ea327690-500b-4137-bf91-451b309fe6a5.jpg""]","",""
"","3234","similarity","130","597234","0.0-6.0-124.0","2","[""img/0894/a3d4170b-b7d8-40e3-955f-87e76ed745fc.jpg"",""img/0902/8af4182a-9af9-4212-a436-9195555112d6.jpg""]","",""
"","2541","similarity","131","604129","0.0-6.0-125.0","1","[""img/0868/fd307a36-9a3a-47d7-ab7c-f810d0b35040.jpg"",""img/0864/5f33e097-23e3-4002-882d-76e8cb15f451.jpg""]","",""
"","5739","similarity","132","610875","0.0-6.0-126.0","2","[""img/0899/1b3457ea-87d4-4946-a01c-aac1863ed46c.jpg"",""img/0866/6f2a90d7-14f1-4f1b-bd64-fc0af6b9fe44.jpg""]","",""
"","2660","similarity","133","614540","0.0-6.0-127.0","4","[""img/0875/d59ff733-eaff-4ee2-9443-06954dd0bcb6.jpg"",""img/0904/d23dd7be-7fe8-4435-82f7-bd592c01e6a1.jpg""]","",""
"","2437","similarity","134","617982","0.0-6.0-128.0","5","[""img/0867/98d8cd96-1476-4fe0-a3a3-04f875500a1b.jpg"",""img/0899/ddf96ade-692e-4602-bd22-dedbb46401bc.jpg""]","",""
"","3569","similarity","135","622558","0.0-6.0-129.0","1","[""img/0901/6e2957f8-f5ab-46f4-87cc-bb50155a098b.jpg"",""img/0867/aa05d113-fc19-4756-a8eb-7878f580bc92.jpg""]","",""
"","14904","similarity","136","638467","0.0-6.0-130.0","4","[""img/0864/b3c4e378-28f0-4699-9338-2a257b4bca04.jpg"",""img/0769/4a1d0b52-3fe8-40fb-bb1c-c814fe49a68c.jpg""]","",""
"","2776","similarity","137","642254","0.0-6.0-131.0","2","[""img/0903/81368973-de81-46f4-844f-b901f3bfd66d.jpg"",""img/0868/83b4350a-3b70-4cea-b7f5-b5b56f3050a8.jpg""]","",""
"","3828","similarity","138","647102","0.0-6.0-132.0","1","[""img/0864/49150900-7f25-4ce8-8d10-9b47a71d1997.jpg"",""img/0867/ac1797e4-8afc-48fe-b252-86d1defb1cca.jpg""]","",""
"","3720","similarity","139","651832","0.0-6.0-133.0","5","[""img/0901/233a6948-48eb-4b67-8259-222b916b2322.jpg"",""img/0860/e14d67c1-6d92-4f1e-9257-c8607159c19c.jpg""]","",""
"","43561","similarity","140","696409","0.0-6.0-134.0","6","[""img/0881/f7a8cc63-8842-40a4-9ff8-fe530310d62c.jpg"",""img/0766/f5f78e4e-d88f-4866-951a-118ba9fec4d0.jpg""]","",""
"","3213","similarity","141","700636","0.0-6.0-135.0","2","[""img/0903/bf0a7d60-eca5-44b0-bafd-baf21db9904b.jpg"",""img/0864/65210d57-1153-4657-886a-32e758f49b4a.jpg""]","",""
"","3744","similarity","142","705392","0.0-6.0-136.0","2","[""img/0758/d41c06bf-ebaf-454b-91c6-1a17f917b659.jpg"",""img/0894/3664e04c-c6d3-4c9b-afb6-25d89974b174.jpg""]","",""
"","2233","similarity","143","708638","0.0-6.0-137.0","4","[""img/0769/3c1203c5-2ce7-466e-957a-8d77b5905460.jpg"",""img/0860/9593362c-9fe5-4d12-9735-6000a11f6aa5.jpg""]","",""
"","2309","similarity","144","711961","0.0-6.0-138.0","5","[""img/0904/a8c3c7d2-9bcf-4347-9e03-8203adfc1fc5.jpg"",""img/0766/5d6e0d1d-4369-41f0-a64c-91f3503055c7.jpg""]","",""
"","6814","similarity","145","719786","0.0-6.0-139.0","3","[""img/0868/3a62db2d-97e9-44a3-b8e3-a48c6f0e423b.jpg"",""img/0860/31ff6436-98bf-4652-bed2-40f627229568.jpg""]","",""
"","2330","similarity","146","723127","0.0-6.0-140.0","6","[""img/0758/6cd8c362-ae2a-41eb-80a3-3a4f7ace1530.jpg"",""img/0864/c22faebd-9c53-47bc-ada3-b9a30c688e75.jpg""]","",""
"","1887","similarity","147","726021","0.0-6.0-141.0","7","[""img/0867/cc72ed48-7704-422c-86d6-467a1145287a.jpg"",""img/0867/8ba0c5a7-c7e4-42cf-a80a-543763b90779.jpg""]","",""
"","14106","similarity","148","741136","0.0-6.0-142.0","7","[""img/0898/6cd3830b-d44e-4915-be2b-88d31424b91c.jpg"",""img/0898/5f699581-3853-4547-856c-12f419ba5af7.jpg""]","",""
"","4191","similarity","149","746338","0.0-6.0-143.0","4","[""img/0866/c446214b-a368-4c65-ae39-ea46894256ab.jpg"",""img/0769/d1be2815-fa79-46e8-b5c3-7d81caaca490.jpg""]","",""
"","2688","similarity","150","750033","0.0-6.0-144.0","5","[""img/0860/4c530c3c-6aab-492a-94d1-9c01797bde40.jpg"",""img/0898/08c72dac-f8ad-407a-9ce6-8c9a5d679c3a.jpg""]","",""
"","2404","similarity","151","753444","0.0-6.0-145.0","3","[""img/0766/f3276cc4-65de-4c2d-88d5-6cfebce14b8f.jpg"",""img/0864/a248adb3-c70b-4652-b7a3-776d2a1e904b.jpg""]","",""
"","2047","similarity","152","756498","0.0-6.0-146.0","6","[""img/0860/702bd09d-df3a-40aa-a267-5f04474305b5.jpg"",""img/0903/a0673b55-6040-47fe-9040-24bca27ca3c9.jpg""]","",""
"","3228","similarity","153","760760","0.0-6.0-147.0","5","[""img/0867/f8488a47-94ee-4166-952c-44e16cf172f6.jpg"",""img/0764/c643e165-df19-459f-8c2b-8357bf432a17.jpg""]","",""
"","2821","similarity","154","764591","0.0-6.0-148.0","4","[""img/0769/ecda2fb3-556b-43ba-8a67-e87dd75ff2b4.jpg"",""img/0904/9dd5708f-3f8b-46a9-b49f-2f2fab87b357.jpg""]","",""
"","2767","similarity","155","768366","0.0-6.0-149.0","2","[""img/0764/d7c215ab-ea9a-45be-8d5f-417d5b9a8a17.jpg"",""img/0901/a6776381-91fe-43f8-ab73-261d318f95fd.jpg""]","",""
"","2212","similarity","156","771584","0.0-6.0-150.0","5","[""img/0904/96e503ea-6630-4996-85f2-0237688ce441.jpg"",""img/0899/fd9efb43-701f-4cd6-baaa-4c38315f4bdc.jpg""]","",""
"","2239","similarity","157","774834","0.0-6.0-151.0","1","[""img/0862/e697469a-ec19-4414-b972-7b9f3564785b.jpg"",""img/0867/2e1a0b58-cdb1-4107-a14e-452530d7b9b0.jpg""]","",""
"","2231","similarity","158","778080","0.0-6.0-152.0","7","[""img/0766/fd064894-7147-4af5-97e9-2089d5472656.jpg"",""img/0766/a0270213-fa0e-4972-8b56-228c3e01ff90.jpg""]","",""
"","1948","similarity","159","781041","0.0-6.0-153.0","4","[""img/0862/7918ca67-5bd3-4606-a5ea-c39fb11a9297.jpg"",""img/0894/9b1333fd-3561-43bf-aee5-99b7b7ca3dc3.jpg""]","",""
"","5000","similarity","160","787052","0.0-6.0-154.0","2","[""img/0899/51a7a498-98c7-42d7-bca8-bc2d8f0b5831.jpg"",""img/0901/bc47e078-bda4-40ed-b89a-bbd819164b95.jpg""]","",""
"","2704","similarity","161","790762","0.0-6.0-155.0","7","[""img/0874/31e22c7c-99aa-40b1-bf03-dd73fa2df4d6.jpg"",""img/0874/a3bc679d-619f-4db6-bb68-116dcb757d9c.jpg""]","",""
"","3091","similarity","162","794860","0.0-6.0-156.0","2","[""img/0860/8a92e21b-6a32-4e4a-a445-2d5a487ed0a4.jpg"",""img/0867/075e0f95-856b-4cbb-acf5-092393aaf04e.jpg""]","",""
"","2379","similarity","163","798246","0.0-6.0-157.0","2","[""img/0901/62315ff5-ed95-46b4-b099-92552079659b.jpg"",""img/0881/2a8413be-fec2-4de6-88ad-614dd4cccc9d.jpg""]","",""
"","2308","similarity","164","801563","0.0-6.0-158.0","6","[""img/0903/43ffd882-077a-40dd-a264-e58d519420a1.jpg"",""img/0902/962f645e-9b55-4628-9b50-c703422bfe1a.jpg""]","",""
"","3013","similarity","165","805584","0.0-6.0-159.0","3","[""img/0860/5383b320-1518-4095-a58e-5cc1ae30b64c.jpg"",""img/0764/438c0217-036f-43c9-9b87-f43144e46011.jpg""]","",""
"","2371","similarity","166","808960","0.0-6.0-160.0","5","[""img/0902/d3e55000-c839-4bf9-9b9b-4af0a9925af1.jpg"",""img/0875/3ecb367d-e9eb-4826-8aaa-7aa72fb98019.jpg""]","",""
"","2266","similarity","167","812231","0.0-6.0-161.0","6","[""img/0898/68476bbb-34a1-42d9-8bc1-deab783d4489.jpg"",""img/0862/847e5208-38ec-4f36-949c-296cdd7424ee.jpg""]","",""
"","2490","similarity","168","815728","0.0-6.0-162.0","5","[""img/0894/4739e06d-c31e-4bf1-bf91-c97fa9afb456.jpg"",""img/0875/8521fd58-3b1e-4dc5-97ae-804edfa6734a.jpg""]","",""
"","3475","similarity","169","820207","0.0-6.0-163.0","2","[""img/0866/a04d37f0-99dd-478a-b6c6-58b215138f84.jpg"",""img/0864/6f631579-acf1-415c-a42c-1207f62a8d99.jpg""]","",""
"","2258","similarity","170","823473","0.0-6.0-164.0","2","[""img/0766/0025de5e-f620-4079-8a0f-00326ff3a6b0.jpg"",""img/0862/d0ca4c78-fc35-46ed-bdcc-8e124283c53e.jpg""]","",""
"","3953","similarity","171","828433","0.0-6.0-165.0","2","[""img/0866/945c6710-d15b-4a5b-a8f6-69af0850357f.jpg"",""img/0874/93d1f8dc-acf2-4f03-bd8d-8ec35df276ed.jpg""]","",""
"","2155","similarity","172","831593","0.0-6.0-166.0","7","[""img/0862/f23038d4-c366-4f70-979f-66b62362efa4.jpg"",""img/0860/f44ba3fb-03a2-42f0-8509-2c1ded493086.jpg""]","",""
"","2868","similarity","173","838491","0.0-6.0-167.0","1","[""img/0766/51d3aab4-3d09-4dda-b99d-3dc7aaabc6f2.jpg"",""img/0901/0f670aef-ac36-496d-8142-ee5fdb21dd82.jpg""]","",""
"","2096","similarity","174","841596","0.0-6.0-168.0","7","[""img/0862/4f0a3b4c-afbf-486e-b248-1d54982f54b4.jpg"",""img/0862/a0a3a7ba-7798-46a3-b4ca-05e1f6e581d0.jpg""]","",""
"","2638","similarity","175","845241","0.0-6.0-169.0","5","[""img/0894/38cf335f-f76f-4349-8d65-e20cd6859565.jpg"",""img/0764/a3226bc4-dcc3-4608-bde8-1414d685ce5c.jpg""]","",""
"","2219","similarity","176","848471","0.0-6.0-170.0","3","[""img/0874/29830da7-be5f-44e5-b141-652a0ccf7269.jpg"",""img/0898/b2732712-71c2-45d8-834f-2b2ed5504910.jpg""]","",""
"","2828","similarity","177","852306","0.0-6.0-171.0","1","[""img/0860/524b2e98-5767-4d53-942c-ebae6925659b.jpg"",""img/0766/006035d8-c736-4daf-bbe4-a9e373af9da6.jpg""]","",""
"","4008","similarity","178","857321","0.0-6.0-172.0","2","[""img/0898/4184e5a2-84ea-4f36-9b42-ae58646f6f87.jpg"",""img/0864/1ebbc554-99fa-49f9-8799-317375a79820.jpg""]","",""
"","3429","similarity","179","861756","0.0-6.0-173.0","1","[""img/0881/7e822106-76f7-4b10-a805-14dc68b2cfaf.jpg"",""img/0764/978aede9-4590-4ad0-b234-135c83e5d669.jpg""]","",""
"","2768","similarity","180","865529","0.0-6.0-174.0","1","[""img/0898/a8f16b02-e19f-423b-86c3-a36562ae1f9b.jpg"",""img/0868/4bd5105a-d2c3-4f82-8c80-57196106ba53.jpg""]","",""
"","2411","similarity","181","868947","0.0-6.0-175.0","7","[""img/0864/4bd81bc6-c13d-46df-95a9-485886dc7c1b.jpg"",""img/0864/f92649a2-0590-4d31-9a7a-1bfb81666a2d.jpg""]","",""
"","2819","similarity","182","872772","0.0-6.0-176.0","5","[""img/0899/25ae6ec8-9565-49fe-a8bb-8d0666f52716.jpg"",""img/0862/e8cc3bdf-cc43-4565-bccf-492626c70953.jpg""]","",""
"","2559","similarity","183","876336","0.0-6.0-177.0","5","[""img/0875/fb732ab5-013a-4366-9f65-27811ed157e9.jpg"",""img/0758/7ffbc76b-1fc1-432c-8f7e-9ec8d1b3f643.jpg""]","",""
"","1943","similarity","184","879284","0.0-6.0-178.0","2","[""img/0866/9b38d691-1802-4959-ab3f-fc902f0e4ea6.jpg"",""img/0901/04a53755-6da5-44d4-a7a6-48a6bc0a2280.jpg""]","",""
"","3439","similarity","185","883727","0.0-6.0-179.0","6","[""img/0769/4680bcc3-8fbc-4643-8f9a-12aa0e780b64.jpg"",""img/0874/3f471690-9788-4d03-90c7-f615aecef149.jpg""]","",""
"","2149","similarity","186","886889","0.0-6.0-180.0","4","[""img/0875/dbdd643e-6d0e-4a5c-ab57-b9c29b9c981a.jpg"",""img/0881/44e09805-5a25-4f17-a716-4ad4a331b174.jpg""]","",""
"","2020","similarity","187","889915","0.0-6.0-181.0","7","[""img/0866/a15b02be-11bb-43e3-b0e0-ecc3bd7dfc49.jpg"",""img/0868/293079b8-7e0c-4afd-a390-1e5d35fe3ded.jpg""]","",""
"","3000","similarity","188","893920","0.0-6.0-182.0","6","[""img/0899/06b0fc99-0581-461a-9913-d1a5a941ac61.jpg"",""img/0758/20497cbe-ddae-489e-86e2-ab06985ed07c.jpg""]","",""
"","3107","similarity","189","898033","0.0-6.0-183.0","3","[""img/0874/2c9464dd-8a23-4baa-ac94-1ba3af5c15cc.jpg"",""img/0875/e7e66b13-b573-431e-b85e-288ce04a35a3.jpg""]","",""
"","2296","similarity","190","901336","0.0-6.0-184.0","6","[""img/0904/5cceabc9-de1d-4c67-989b-c28a4ef77e79.jpg"",""img/0862/cdaed51d-9e2f-4807-801a-4663c40077e2.jpg""]","",""
"","5004","similarity","191","907346","0.0-6.0-185.0","3","[""img/0902/b76efc44-a50f-4dac-b997-ff0222376067.jpg"",""img/0766/db750ba0-ce04-46e1-b601-e1b80212bad2.jpg""]","",""
"","2448","similarity","192","910805","0.0-6.0-186.0","3","[""img/0758/6e95579b-5166-487c-b8cb-e417c6a218e3.jpg"",""img/0769/3c1efec9-f8fd-487d-8955-4be88e48c832.jpg""]","",""
"","2130","similarity","193","913944","0.0-6.0-187.0","6","[""img/0881/d1982897-8d8d-4704-a940-1ee5d07a1f15.jpg"",""img/0881/4da99fdd-1f40-4bbb-8e21-8833eef313f5.jpg""]","",""
"","1947","similarity","194","916901","0.0-6.0-188.0","1","[""img/0758/67c0be2f-9e91-48b3-8219-70ac0a1802fa.jpg"",""img/0866/0207e9a2-7dbb-40b5-9459-b472aaeceb2a.jpg""]","",""
"","2338","similarity","195","920247","0.0-6.0-189.0","7","[""img/0764/50f1b062-d608-4bc0-ab25-b872dcf2ed93.jpg"",""img/0898/881e2a85-d5c2-49be-a0c6-8a6ce2c4af08.jpg""]","",""
"","4494","similarity","196","925746","0.0-6.0-190.0","2","[""img/0903/0fb24af7-9a26-4e9d-aadc-959a36f683e2.jpg"",""img/0901/77087ed2-6e12-4329-b2a5-605bca6d972d.jpg""]","",""
"","2066","similarity","197","928818","0.0-6.0-191.0","7","[""img/0902/97022122-01e4-46c3-a34f-c6260ad28428.jpg"",""img/0898/79233891-305a-4a6a-8ddf-5c8604858203.jpg""]","",""
"","2295","similarity","198","932121","0.0-6.0-192.0","4","[""img/0864/1d15626a-2f7c-410f-819c-0fa2c967e95e.jpg"",""img/0901/693e0535-ef7e-4d60-af9d-fac2f38e8307.jpg""]","",""
"","3792","similarity","199","936918","0.0-6.0-193.0","1","[""img/0894/5a49e858-2850-4892-9a06-e9f0efb5f94d.jpg"",""img/0881/6b1189e6-232d-4042-8885-16dc7b10e0d4.jpg""]","",""
"","2607","similarity","200","940530","0.0-6.0-194.0","7","[""img/0868/d98ca254-b195-477f-b57e-5760a2717db8.jpg"",""img/0868/1a62b2b2-18f5-466e-b564-5176a57c565e.jpg""]","",""
"","2934","similarity","201","944472","0.0-6.0-195.0","2","[""img/0899/f58b8d2f-b19d-4b59-8b94-8834be92e4ba.jpg"",""img/0764/6c7fe363-2d37-418f-9e5e-a3273af5d4fb.jpg""]","",""
"","3624","similarity","202","949101","0.0-6.0-196.0","4","[""img/0881/5fe04dd0-5c74-47b7-99c8-b068db9ca26a.jpg"",""img/0904/1d10df11-b5c8-4370-9a6b-097a7f965895.jpg""]","",""
"","2167","similarity","203","952274","0.0-6.0-197.0","7","[""img/0864/0f537697-a314-47c3-a8cc-8df23b7e536c.jpg"",""img/0902/9f543501-3cf1-45a7-a2f1-eeca87cc15b9.jpg""]","",""
"","2467","similarity","204","955747","0.0-6.0-198.0","7","[""img/0894/1a010553-d598-4b06-a772-81f1e7b3addb.jpg"",""img/0904/da170c1b-9651-4f08-b231-2bdd1d9a046f.jpg""]","",""
"","2142","similarity","205","958893","0.0-6.0-199.0","7","[""img/0901/1b86f2fc-7a1d-4aa8-9252-114f92edef3b.jpg"",""img/0901/a2d7b2f6-396b-4d91-8403-de5361c74af7.jpg""]","",""
"","2938","similarity","206","962837","0.0-6.0-200.0","6","[""img/0894/6aa5545f-fa7d-4286-bbaa-aaf34dc7ec96.jpg"",""img/0860/c47fdead-eb02-4989-b078-26f4852f44fe.jpg""]","",""
"","1966","similarity","207","965807","0.0-6.0-201.0","7","[""img/0898/993d8f2d-bef7-4251-a193-0f93a32b7763.jpg"",""img/0903/59defeb8-98bd-4570-a2f8-9bd189e68ef4.jpg""]","",""
"","1773","similarity","208","968585","0.0-6.0-202.0","1","[""img/0864/5f74a653-3bdc-4308-8cca-ac667dc22e1f.jpg"",""img/0894/b422d5c6-3c5a-49ae-a53e-7e88ac993f49.jpg""]","",""
"","4154","similarity","209","973750","0.0-6.0-203.0","3","[""img/0874/3ce41e7c-40c8-4d58-a546-171114521796.jpg"",""img/0860/87039971-2210-4aab-93c0-8e9b5f1655b2.jpg""]","",""
"","2154","similarity","210","976909","0.0-6.0-204.0","4","[""img/0862/fad1d7c1-8187-43c3-942a-0fc12183e48e.jpg"",""img/0875/90da8d75-108a-44ad-b999-e21fee3860d3.jpg""]","",""
"","2948","similarity","211","980861","0.0-6.0-205.0","2","[""img/0867/26611f4e-d694-4460-b7e2-43c62753ddc3.jpg"",""img/0881/adc02f34-ce97-4aef-850f-00519df06fd7.jpg""]","",""
"","2243","similarity","212","984109","0.0-6.0-206.0","3","[""img/0901/b13fa50f-dbe0-4d0f-8647-6ac0fd8f40bd.jpg"",""img/0902/07437a16-3d0f-4a5c-89ec-36d0efa4b3b8.jpg""]","",""
"","3464","similarity","213","988578","0.0-6.0-207.0","2","[""img/0899/4408c14d-c168-4a7d-96f6-bc87bfb58f83.jpg"",""img/0864/6e846d43-94a6-4b37-a268-65eda979f052.jpg""]","",""
"","2851","similarity","214","992435","0.0-6.0-208.0","2","[""img/0901/443f2e59-199b-4f7b-9de9-c44ad97326a5.jpg"",""img/0769/9ea27d61-3d55-418c-8d14-82e90f656f01.jpg""]","",""
"","2882","similarity","215","1001083","0.0-6.0-209.0","7","[""img/0902/b03fee99-d5ca-4bf8-871c-a4a743a39842.jpg"",""img/0902/a6fb6dd5-696c-47ec-be7d-d7b88f1544f1.jpg""]","",""
"[{""page_index"":0,""viewing_time"":4601}]","4601","instructions","216","1006685","0.0-7.0","","","",""
"","10123","image-multi-choice","217","1017837","0.0-8.0-0.0","","","{""Q0"":""Tennessee Warbler""}","Nashville Warbler"
"","3373","image-multi-choice","218","1022231","0.0-8.0-1.0","","","{""Q0"":""Black-and-white Warbler""}","Black-and-white Warbler"
"","24165","image-multi-choice","219","1047423","0.0-8.0-2.0","","","{""Q0"":""Townsend's Warbler""}","Townsend's Warbler"
"","2759","image-multi-choice","220","1051198","0.0-8.0-3.0","","","{""Q0"":""Lark Sparrow""}","Lark Sparrow"
"","3182","image-multi-choice","221","1055402","0.0-8.0-4.0","","","{""Q0"":""Yellow Warbler""}","Yellow Warbler"
"","15603","image-multi-choice","222","1072022","0.0-8.0-5.0","","","{""Q0"":""Nashville Warbler""}","Orange-crowned Warbler"
"","3803","image-multi-choice","223","1076842","0.0-8.0-6.0","","","{""Q0"":""White-throated Sparrow""}","White-throated Sparrow"
"","3684","image-multi-choice","224","1081544","0.0-8.0-7.0","","","{""Q0"":""Fox Sparrow""}","Fox Sparrow"
"","17141","image-multi-choice","225","1099698","0.0-8.0-8.0","","","{""Q0"":""Vesper Sparrow""}","Song Sparrow"
"","15015","image-multi-choice","226","1115731","0.0-8.0-9.0","","","{""Q0"":""Blackburnian Warbler""}","Blackburnian Warbler"
"","10734","image-multi-choice","227","1127485","0.0-8.0-10.0","","","{""Q0"":""Lincoln's Sparrow""}","Vesper Sparrow"
"","3058","image-multi-choice","228","1131555","0.0-8.0-11.0","","","{""Q0"":""White-crowned Sparrow""}","White-crowned Sparrow"
"","6305","image-multi-choice","229","1138880","0.0-8.0-12.0","","","{""Q0"":""American Tree Sparrow""}","American Tree Sparrow"
"","10388","image-multi-choice","230","1150283","0.0-8.0-13.0","","","{""Q0"":""Orange-crowned Warbler""}","Tennessee Warbler"
"","16909","image-multi-choice","231","1168207","0.0-8.0-14.0","","","{""Q0"":""Magnolia Warbler""}","Magnolia Warbler"
"","10597","image-multi-choice","232","1179820","0.0-8.0-15.0","","","{""Q0"":""Northern Waterthrush""}","Northern Waterthrush"
"","6494","image-multi-choice","233","1187334","0.0-8.0-16.0","","","{""Q0"":""Chipping Sparrow""}","Chipping Sparrow"
"","4354","image-multi-choice","234","1192701","0.0-8.0-17.0","","","{""Q0"":""Swamp Sparrow""}","Swamp Sparrow"
"","7363","image-multi-choice","235","1201083","0.0-8.0-18.0","","","{""Q0"":""Lincoln's Sparrow""}","Lincoln's Sparrow"
"","15725","image-multi-choice","236","1217825","0.0-8.0-19.0","","","{""Q0"":""Ovenbird""}","Ovenbird"
