[{"view_history":"[{\"page_index\":0,\"viewing_time\":46650}]","rt":46652,"trial_type":"instructions","trial_index":0,"time_elapsed":46657,"internal_node_id":"0.0-0.0"},{"sim_score":3,"rt":8848,"stimulus":"[\"img/866.jpg\",\"img/868.jpg\"]","trial_type":"similarity_demo","trial_index":1,"time_elapsed":56536,"internal_node_id":"0.0-1.0"},{"view_history":"[{\"page_index\":0,\"viewing_time\":38624}]","rt":38625,"trial_type":"instructions","trial_index":2,"time_elapsed":96170,"internal_node_id":"0.0-2.0"},{"sim_score":2,"rt":8565,"stimulus":"[\"img/766.jpg\",\"img/867.jpg\"]","trial_type":"similarity_demo","trial_index":3,"time_elapsed":105763,"internal_node_id":"0.0-3.0"},{"view_history":"[{\"page_index\":0,\"viewing_time\":8609}]","rt":8610,"trial_type":"instructions","trial_index":4,"time_elapsed":115384,"internal_node_id":"0.0-4.0"},{"view_history":"[{\"page_index\":0,\"viewing_time\":20316}]","rt":20317,"trial_type":"instructions","trial_index":5,"time_elapsed":136714,"internal_node_id":"0.0-5.0"},{"sim_score":6,"rt":9863,"stimulus":"[\"img/0868/293079b8-7e0c-4afd-a390-1e5d35fe3ded.jpg\",\"img/0901/0f670aef-ac36-496d-8142-ee5fdb21dd82.jpg\"]","trial_type":"similarity","trial_index":6,"time_elapsed":147608,"internal_node_id":"0.0-6.0-0.0"},{"sim_score":3,"rt":7752,"stimulus":"[\"img/0769/458d9c77-b844-40b5-bb1b-1e3bbd4da64e.jpg\",\"img/0867/db7e032f-162b-46f5-ae67-2b29679adee4.jpg\"]","trial_type":"similarity","trial_index":7,"time_elapsed":156385,"internal_node_id":"0.0-6.0-1.0"},{"sim_score":6,"rt":8692,"stimulus":"[\"img/0766/51d3aab4-3d09-4dda-b99d-3dc7aaabc6f2.jpg\",\"img/0898/cd3aaa3f-efa9-4ab3-8d6f-a6a9273ddf42.jpg\"]","trial_type":"similarity","trial_index":8,"time_elapsed":166097,"internal_node_id":"0.0-6.0-2.0"},{"sim_score":3,"rt":5232,"stimulus":"[\"img/0902/cdec1bc6-7f90-4f72-9e01-f5a4111bac1d.jpg\",\"img/0881/54ea8e77-c7e5-4197-b7fa-00b7020849a7.jpg\"]","trial_type":"similarity","trial_index":9,"time_elapsed":172361,"internal_node_id":"0.0-6.0-3.0"},{"sim_score":7,"rt":4530,"stimulus":"[\"img/0894/661b9f9f-4bde-487a-b1ed-87085fde6948.jpg\",\"img/0894/792c83e9-a747-4000-bc72-5663d2439edb.jpg\"]","trial_type":"similarity","trial_index":10,"time_elapsed":177918,"internal_node_id":"0.0-6.0-4.0"},{"sim_score":3,"rt":8099,"stimulus":"[\"img/0874/7e4f2150-3b59-4a36-b5da-a4e0ba410531.jpg\",\"img/0899/0e1d936a-dbe2-4afc-9f19-7b7a1ae6c9ed.jpg\"]","trial_type":"similarity","trial_index":11,"time_elapsed":187047,"internal_node_id":"0.0-6.0-5.0"},{"sim_score":7,"rt":4651,"stimulus":"[\"img/0904/0d17b811-063e-416e-a23c-3b3cfa4fcce5.jpg\",\"img/0764/7f4ee8e3-9315-4a57-be7d-db8454b33766.jpg\"]","trial_type":"similarity","trial_index":12,"time_elapsed":192724,"internal_node_id":"0.0-6.0-6.0"},{"sim_score":5,"rt":5780,"stimulus":"[\"img/0899/5b56dd3e-3f49-47cc-af84-16da6457753b.jpg\",\"img/0898/40f99fb2-64d2-4e72-8a7f-a1cf60741e69.jpg\"]","trial_type":"similarity","trial_index":13,"time_elapsed":199531,"internal_node_id":"0.0-6.0-7.0"},{"sim_score":2,"rt":4870,"stimulus":"[\"img/0874/2c9464dd-8a23-4baa-ac94-1ba3af5c15cc.jpg\",\"img/0903/59defeb8-98bd-4570-a2f8-9bd189e68ef4.jpg\"]","trial_type":"similarity","trial_index":14,"time_elapsed":205430,"internal_node_id":"0.0-6.0-8.0"},{"sim_score":7,"rt":4417,"stimulus":"[\"img/0881/344de456-b358-4887-bd0e-e4c3278af887.jpg\",\"img/0758/65d426d6-3ff6-415d-8654-a43b83ecc4fe.jpg\"]","trial_type":"similarity","trial_index":15,"time_elapsed":210870,"internal_node_id":"0.0-6.0-9.0"},{"sim_score":6,"rt":4918,"stimulus":"[\"img/0898/661621d4-a14e-487c-8c74-354134a29710.jpg\",\"img/0901/233a6948-48eb-4b67-8259-222b916b2322.jpg\"]","trial_type":"similarity","trial_index":16,"time_elapsed":216816,"internal_node_id":"0.0-6.0-10.0"},{"sim_score":7,"rt":5451,"stimulus":"[\"img/0903/4cbdc464-e562-4ec2-9bb6-15f894fdf528.jpg\",\"img/0769/688d0c52-ad73-4065-a5eb-f8c10d076bff.jpg\"]","trial_type":"similarity","trial_index":17,"time_elapsed":223291,"internal_node_id":"0.0-6.0-11.0"},{"sim_score":1,"rt":4095,"stimulus":"[\"img/0764/39a9fc7e-b863-432c-9374-de43983f31a5.jpg\",\"img/0868/e0aff734-077f-40dd-9781-74821abd3621.jpg\"]","trial_type":"similarity","trial_index":18,"time_elapsed":228414,"internal_node_id":"0.0-6.0-12.0"},{"sim_score":1,"rt":4805,"stimulus":"[\"img/0867/cc72ed48-7704-422c-86d6-467a1145287a.jpg\",\"img/0903/72197c2b-403e-4a26-b391-f1aa8dea4b76.jpg\"]","trial_type":"similarity","trial_index":19,"time_elapsed":234247,"internal_node_id":"0.0-6.0-13.0"},{"sim_score":2,"rt":5130,"stimulus":"[\"img/0766/79767d11-b612-4e8a-9e4b-a8ac95bb6a54.jpg\",\"img/0758/821c68d3-5cb0-4eae-8659-30e6263fca39.jpg\"]","trial_type":"similarity","trial_index":20,"time_elapsed":240403,"internal_node_id":"0.0-6.0-14.0"},{"sim_score":3,"rt":5728,"stimulus":"[\"img/0902/82d20e8c-2162-47a6-925b-52906558c046.jpg\",\"img/0860/15b24a61-25be-4356-9eac-5ce95d0cb4a4.jpg\"]","trial_type":"similarity","trial_index":21,"time_elapsed":247161,"internal_node_id":"0.0-6.0-15.0"},{"sim_score":3,"rt":7711,"stimulus":"[\"img/0769/14d393ce-e5be-4ca1-86ce-cc27d4b6074c.jpg\",\"img/0875/5a7c4e35-6514-4e12-8879-d16071da4cd6.jpg\"]","trial_type":"similarity","trial_index":22,"time_elapsed":255907,"internal_node_id":"0.0-6.0-16.0"},{"sim_score":2,"rt":4677,"stimulus":"[\"img/0904/2fd488e9-960f-41f7-8a44-33375f7d5051.jpg\",\"img/0866/be24ab58-230e-4db8-9f45-ff04c9aec6bb.jpg\"]","trial_type":"similarity","trial_index":23,"time_elapsed":261611,"internal_node_id":"0.0-6.0-17.0"},{"sim_score":7,"rt":4757,"stimulus":"[\"img/0875/a4935837-7d3c-4df6-88c1-36a94d4991ca.jpg\",\"img/0875/d59ff733-eaff-4ee2-9443-06954dd0bcb6.jpg\"]","trial_type":"similarity","trial_index":24,"time_elapsed":267388,"internal_node_id":"0.0-6.0-18.0"},{"sim_score":7,"rt":4068,"stimulus":"[\"img/0758/e38fd80d-18d0-42f3-b848-f930788e8bd7.jpg\",\"img/0758/6cd8c362-ae2a-41eb-80a3-3a4f7ace1530.jpg\"]","trial_type":"similarity","trial_index":25,"time_elapsed":272484,"internal_node_id":"0.0-6.0-19.0"},{"sim_score":2,"rt":4226,"stimulus":"[\"img/0902/97022122-01e4-46c3-a34f-c6260ad28428.jpg\",\"img/0874/a3bc679d-619f-4db6-bb68-116dcb757d9c.jpg\"]","trial_type":"similarity","trial_index":26,"time_elapsed":277729,"internal_node_id":"0.0-6.0-20.0"},{"sim_score":6,"rt":5351,"stimulus":"[\"img/0764/ca9829fe-aaf8-45b8-b98a-6bae751c63dd.jpg\",\"img/0769/662ab839-88d1-4ebf-af05-9b2980cad943.jpg\"]","trial_type":"similarity","trial_index":27,"time_elapsed":284095,"internal_node_id":"0.0-6.0-21.0"},{"sim_score":2,"rt":4867,"stimulus":"[\"img/0901/d4d09bf5-093e-4050-838e-7c738be8e63c.jpg\",\"img/0874/767f289c-9814-4496-803f-745cc8913d1f.jpg\"]","trial_type":"similarity","trial_index":28,"time_elapsed":289989,"internal_node_id":"0.0-6.0-22.0"},{"sim_score":2,"rt":3941,"stimulus":"[\"img/0875/3ecb367d-e9eb-4826-8aaa-7aa72fb98019.jpg\",\"img/0903/ea75f240-fb62-4edb-a709-83e858b202c0.jpg\"]","trial_type":"similarity","trial_index":29,"time_elapsed":294957,"internal_node_id":"0.0-6.0-23.0"},{"sim_score":6,"rt":4751,"stimulus":"[\"img/0769/9ea9ceb6-049e-4ad9-be8f-00645cd35803.jpg\",\"img/0881/c843e210-bdfe-4a7c-8bbe-fcea1f90fe1c.jpg\"]","trial_type":"similarity","trial_index":30,"time_elapsed":300728,"internal_node_id":"0.0-6.0-24.0"},{"sim_score":1,"rt":4082,"stimulus":"[\"img/0867/1719a35d-f085-48c0-9099-16c94fe418b4.jpg\",\"img/0904/0d25eb24-bb20-4e8d-9787-8b489558b4cb.jpg\"]","trial_type":"similarity","trial_index":31,"time_elapsed":305837,"internal_node_id":"0.0-6.0-25.0"},{"sim_score":2,"rt":4298,"stimulus":"[\"img/0860/71e1aad0-2cdf-43bb-94a4-a8c016997c30.jpg\",\"img/0881/d1982897-8d8d-4704-a940-1ee5d07a1f15.jpg\"]","trial_type":"similarity","trial_index":32,"time_elapsed":311163,"internal_node_id":"0.0-6.0-26.0"},{"sim_score":6,"rt":4099,"stimulus":"[\"img/0866/945c6710-d15b-4a5b-a8f6-69af0850357f.jpg\",\"img/0866/d493a2c8-66eb-44b4-be02-2f327b700b7c.jpg\"]","trial_type":"similarity","trial_index":33,"time_elapsed":316298,"internal_node_id":"0.0-6.0-27.0"},{"sim_score":3,"rt":6636,"stimulus":"[\"img/0764/5d6fa3ce-9083-410c-bbdb-336a49b94cfc.jpg\",\"img/0862/f188d4f0-76a4-4102-818c-a209969d73a5.jpg\"]","trial_type":"similarity","trial_index":34,"time_elapsed":323969,"internal_node_id":"0.0-6.0-28.0"},{"sim_score":2,"rt":4965,"stimulus":"[\"img/0904/4d7d70a3-9477-4921-bda0-f9531d0a5c5b.jpg\",\"img/0758/2fa3e613-e676-4e6e-bd12-705327eeb3e1.jpg\"]","trial_type":"similarity","trial_index":35,"time_elapsed":329964,"internal_node_id":"0.0-6.0-29.0"},{"sim_score":3,"rt":6129,"stimulus":"[\"img/0894/1a010553-d598-4b06-a772-81f1e7b3addb.jpg\",\"img/0899/57476fed-5962-4272-8fc9-b317bb777b54.jpg\"]","trial_type":"similarity","trial_index":36,"time_elapsed":337122,"internal_node_id":"0.0-6.0-30.0"},{"sim_score":1,"rt":4801,"stimulus":"[\"img/0860/29a21a9f-54bb-4093-ad3f-04823ceaa89f.jpg\",\"img/0904/9b3568cc-3cf7-42be-9df3-fdafde7a58b8.jpg\"]","trial_type":"similarity","trial_index":37,"time_elapsed":342953,"internal_node_id":"0.0-6.0-31.0"},{"sim_score":6,"rt":4862,"stimulus":"[\"img/0874/bf14b896-e930-4fd9-9c05-2e83317a2773.jpg\",\"img/0881/7e31e5dc-2240-4b1b-b5a0-3acd980099ef.jpg\"]","trial_type":"similarity","trial_index":38,"time_elapsed":348839,"internal_node_id":"0.0-6.0-32.0"},{"sim_score":5,"rt":7072,"stimulus":"[\"img/0881/c24f3051-eefa-42de-aba6-fccb56d93c70.jpg\",\"img/0899/f95cbdb4-f804-4f5d-ad76-373ad343e658.jpg\"]","trial_type":"similarity","trial_index":39,"time_elapsed":356929,"internal_node_id":"0.0-6.0-33.0"},{"sim_score":2,"rt":4652,"stimulus":"[\"img/0866/11a1d141-be5e-443c-98c1-a9d4d9e3dec0.jpg\",\"img/0862/24cdc752-c2e5-4a17-86a6-6f2045d8553b.jpg\"]","trial_type":"similarity","trial_index":40,"time_elapsed":362599,"internal_node_id":"0.0-6.0-34.0"},{"sim_score":1,"rt":3714,"stimulus":"[\"img/0868/1a62b2b2-18f5-466e-b564-5176a57c565e.jpg\",\"img/0894/4739e06d-c31e-4bf1-bf91-c97fa9afb456.jpg\"]","trial_type":"similarity","trial_index":41,"time_elapsed":367337,"internal_node_id":"0.0-6.0-35.0"},{"sim_score":6,"rt":5405,"stimulus":"[\"img/0860/c3379ff7-0763-48fe-a1ec-7ea3d611bc7a.jpg\",\"img/0860/87039971-2210-4aab-93c0-8e9b5f1655b2.jpg\"]","trial_type":"similarity","trial_index":42,"time_elapsed":373757,"internal_node_id":"0.0-6.0-36.0"},{"sim_score":2,"rt":4958,"stimulus":"[\"img/0862/7918ca67-5bd3-4606-a5ea-c39fb11a9297.jpg\",\"img/0864/e02eddb5-f468-499c-91bf-f7be3ffe979b.jpg\"]","trial_type":"similarity","trial_index":43,"time_elapsed":379738,"internal_node_id":"0.0-6.0-37.0"},{"sim_score":1,"rt":4997,"stimulus":"[\"img/0766/aaec5f42-7f0a-4a16-aeca-488d757acbcc.jpg\",\"img/0866/f756f7d1-9ad8-4a34-9ef6-7a443d705bfe.jpg\"]","trial_type":"similarity","trial_index":44,"time_elapsed":385753,"internal_node_id":"0.0-6.0-38.0"},{"sim_score":4,"rt":10094,"stimulus":"[\"img/0875/2e13d160-eea1-416b-aff1-d37ab99ecc1d.jpg\",\"img/0898/b2732712-71c2-45d8-834f-2b2ed5504910.jpg\"]","trial_type":"similarity","trial_index":45,"time_elapsed":396877,"internal_node_id":"0.0-6.0-39.0"},{"sim_score":2,"rt":6294,"stimulus":"[\"img/0766/6d32752d-aa05-40dc-9541-640b6e9d6fa1.jpg\",\"img/0769/75f7e514-0548-4329-b1e4-93c05e74f038.jpg\"]","trial_type":"similarity","trial_index":46,"time_elapsed":404203,"internal_node_id":"0.0-6.0-40.0"},{"sim_score":3,"rt":5588,"stimulus":"[\"img/0874/29830da7-be5f-44e5-b141-652a0ccf7269.jpg\",\"img/0764/da207710-e7e4-4f42-b2e6-99b5f357f433.jpg\"]","trial_type":"similarity","trial_index":47,"time_elapsed":437025,"internal_node_id":"0.0-6.0-41.0"},{"sim_score":1,"rt":5376,"stimulus":"[\"img/0868/d98ca254-b195-477f-b57e-5760a2717db8.jpg\",\"img/0902/bd89a85f-3853-4786-acd6-98818ee29f1c.jpg\"]","trial_type":"similarity","trial_index":48,"time_elapsed":443427,"internal_node_id":"0.0-6.0-42.0"},{"sim_score":1,"rt":4600,"stimulus":"[\"img/0875/99698b4d-b4a1-44bc-8c83-8ea755bbbf61.jpg\",\"img/0899/1b3457ea-87d4-4946-a01c-aac1863ed46c.jpg\"]","trial_type":"similarity","trial_index":49,"time_elapsed":449056,"internal_node_id":"0.0-6.0-43.0"},{"sim_score":1,"rt":3553,"stimulus":"[\"img/0866/bf14b5bd-fb55-47db-86b9-4f8aeb9a6dad.jpg\",\"img/0860/17b44a7d-c5ca-479f-9e87-f65a64f5c80e.jpg\"]","trial_type":"similarity","trial_index":50,"time_elapsed":453638,"internal_node_id":"0.0-6.0-44.0"},{"sim_score":1,"rt":6075,"stimulus":"[\"img/0766/f5f78e4e-d88f-4866-951a-118ba9fec4d0.jpg\",\"img/0903/776b74ee-a8ab-4ab8-a78d-097c0747538d.jpg\"]","trial_type":"similarity","trial_index":51,"time_elapsed":460740,"internal_node_id":"0.0-6.0-45.0"},{"sim_score":5,"rt":5005,"stimulus":"[\"img/0901/875dedb9-24c9-4443-9f8c-85e97d70ee5a.jpg\",\"img/0904/da170c1b-9651-4f08-b231-2bdd1d9a046f.jpg\"]","trial_type":"similarity","trial_index":52,"time_elapsed":466761,"internal_node_id":"0.0-6.0-46.0"},{"sim_score":3,"rt":7183,"stimulus":"[\"img/0758/dd559618-7f09-4a07-8018-d311c4a5ea29.jpg\",\"img/0902/fbef27fa-ac83-4936-ab78-9d1c20a383e1.jpg\"]","trial_type":"similarity","trial_index":53,"time_elapsed":474966,"internal_node_id":"0.0-6.0-47.0"},{"sim_score":7,"rt":4164,"stimulus":"[\"img/0764/56441045-b648-4ede-9632-3e9c0227080b.jpg\",\"img/0764/83c93cce-18d1-4aa7-9e23-2c268afe0a46.jpg\"]","trial_type":"similarity","trial_index":54,"time_elapsed":480156,"internal_node_id":"0.0-6.0-48.0"},{"sim_score":5,"rt":5037,"stimulus":"[\"img/0866/0207e9a2-7dbb-40b5-9459-b472aaeceb2a.jpg\",\"img/0902/7f1dcd35-237a-4995-9e42-7f63f3f434d4.jpg\"]","trial_type":"similarity","trial_index":55,"time_elapsed":486224,"internal_node_id":"0.0-6.0-49.0"},{"sim_score":5,"rt":5861,"stimulus":"[\"img/0764/bc3865c9-9004-4582-88a7-048478673f97.jpg\",\"img/0758/a709631e-3705-4725-ac40-f0d916924f08.jpg\"]","trial_type":"similarity","trial_index":56,"time_elapsed":493111,"internal_node_id":"0.0-6.0-50.0"},{"sim_score":4,"rt":5066,"stimulus":"[\"img/0898/81b08535-2020-4c15-9ce4-2f1e460755ae.jpg\",\"img/0894/b422d5c6-3c5a-49ae-a53e-7e88ac993f49.jpg\"]","trial_type":"similarity","trial_index":57,"time_elapsed":499206,"internal_node_id":"0.0-6.0-51.0"},{"sim_score":3,"rt":5195,"stimulus":"[\"img/0875/5a1e5100-0d94-4fec-bbe9-ca9894d2cf8e.jpg\",\"img/0866/6f2a90d7-14f1-4f1b-bd64-fc0af6b9fe44.jpg\"]","trial_type":"similarity","trial_index":58,"time_elapsed":505429,"internal_node_id":"0.0-6.0-52.0"},{"sim_score":6,"rt":4660,"stimulus":"[\"img/0904/b7c2a2c8-df33-4473-b3d4-ff7147c60db3.jpg\",\"img/0904/9dd5708f-3f8b-46a9-b49f-2f2fab87b357.jpg\"]","trial_type":"similarity","trial_index":59,"time_elapsed":511119,"internal_node_id":"0.0-6.0-53.0"},{"sim_score":7,"rt":4104,"stimulus":"[\"img/0769/b664b502-a86c-46c1-ad6f-5ebffc2e1bd3.jpg\",\"img/0769/50985283-d353-4abc-9abe-14a91d56ebe6.jpg\"]","trial_type":"similarity","trial_index":60,"time_elapsed":516241,"internal_node_id":"0.0-6.0-54.0"},{"sim_score":3,"rt":6922,"stimulus":"[\"img/0898/79233891-305a-4a6a-8ddf-5c8604858203.jpg\",\"img/0758/d540bee6-b460-4c32-ac57-bc282742d7d4.jpg\"]","trial_type":"similarity","trial_index":61,"time_elapsed":524190,"internal_node_id":"0.0-6.0-55.0"},{"sim_score":6,"rt":4637,"stimulus":"[\"img/0769/ecda2fb3-556b-43ba-8a67-e87dd75ff2b4.jpg\",\"img/0902/3f0eeac5-c996-4026-a376-563ce8f28521.jpg\"]","trial_type":"similarity","trial_index":62,"time_elapsed":529844,"internal_node_id":"0.0-6.0-56.0"},{"sim_score":7,"rt":5646,"stimulus":"[\"img/0864/87c467d3-abca-482f-ad80-3766c21b1bb3.jpg\",\"img/0881/1407b85b-a1c6-45b1-9884-3b24203efadb.jpg\"]","trial_type":"similarity","trial_index":63,"time_elapsed":536514,"internal_node_id":"0.0-6.0-57.0"},{"sim_score":1,"rt":4518,"stimulus":"[\"img/0758/e1ba5e53-addc-436a-b428-d34fc1b130dc.jpg\",\"img/0868/d6d1f30d-4323-435a-b194-7892521bc57e.jpg\"]","trial_type":"similarity","trial_index":64,"time_elapsed":542063,"internal_node_id":"0.0-6.0-58.0"},{"sim_score":5,"rt":4132,"stimulus":"[\"img/0862/4f0a3b4c-afbf-486e-b248-1d54982f54b4.jpg\",\"img/0769/c7cfacc3-7f07-46ff-9f5d-8073f4c4679b.jpg\"]","trial_type":"similarity","trial_index":65,"time_elapsed":547231,"internal_node_id":"0.0-6.0-59.0"},{"sim_score":3,"rt":4880,"stimulus":"[\"img/0764/3297a811-ea8b-4d74-9547-59cecab7293a.jpg\",\"img/0903/14f179a2-8786-48a2-8377-88d1d404341b.jpg\"]","trial_type":"similarity","trial_index":66,"time_elapsed":553132,"internal_node_id":"0.0-6.0-60.0"},{"sim_score":4,"rt":10989,"stimulus":"[\"img/0899/06b0fc99-0581-461a-9913-d1a5a941ac61.jpg\",\"img/0899/7b7380d5-d2be-44e5-a09a-c1756f87ef71.jpg\"]","trial_type":"similarity","trial_index":67,"time_elapsed":565153,"internal_node_id":"0.0-6.0-61.0"},{"sim_score":5,"rt":6248,"stimulus":"[\"img/0860/8277806e-b684-4474-8f7b-3fca946d7d4f.jpg\",\"img/0875/2c361b79-c3d1-4eda-812e-bf03192407bf.jpg\"]","trial_type":"similarity","trial_index":68,"time_elapsed":572430,"internal_node_id":"0.0-6.0-62.0"},{"sim_score":1,"rt":3305,"stimulus":"[\"img/0868/179a5502-ab5c-478e-8263-5a1fbcc101d2.jpg\",\"img/0874/3ce41e7c-40c8-4d58-a546-171114521796.jpg\"]","trial_type":"similarity","trial_index":69,"time_elapsed":576764,"internal_node_id":"0.0-6.0-63.0"},{"sim_score":5,"rt":5930,"stimulus":"[\"img/0758/7ee8bc8f-c40b-4b3a-84ec-3e83580622d4.jpg\",\"img/0862/eefa5588-9efd-4591-aa5f-a2e17c7d7bcc.jpg\"]","trial_type":"similarity","trial_index":70,"time_elapsed":583721,"internal_node_id":"0.0-6.0-64.0"},{"sim_score":5,"rt":5550,"stimulus":"[\"img/0904/09dac84f-3d1c-4445-a68e-d0389fdbf1e9.jpg\",\"img/0898/82231d4c-218b-4d0a-b50d-35a49b524e97.jpg\"]","trial_type":"similarity","trial_index":71,"time_elapsed":590296,"internal_node_id":"0.0-6.0-65.0"},{"sim_score":1,"rt":3174,"stimulus":"[\"img/0881/ed4c971f-0873-4fc8-b6d6-e8bbd82f0bcc.jpg\",\"img/0866/4a87911a-d5be-4d4e-ab8e-3d1f581bf507.jpg\"]","trial_type":"similarity","trial_index":72,"time_elapsed":594498,"internal_node_id":"0.0-6.0-66.0"},{"sim_score":1,"rt":4007,"stimulus":"[\"img/0867/f26f6b60-f772-4f4c-95a4-addc62cfd692.jpg\",\"img/0898/224c1572-56b9-4f16-a9e4-6f3bc9c114bd.jpg\"]","trial_type":"similarity","trial_index":73,"time_elapsed":599526,"internal_node_id":"0.0-6.0-67.0"},{"sim_score":5,"rt":4210,"stimulus":"[\"img/0902/0eb85fbc-27c8-41df-9d0b-a5f9efd417d1.jpg\",\"img/0764/6ef77040-1fae-4afa-bfe7-eda98e6d0376.jpg\"]","trial_type":"similarity","trial_index":74,"time_elapsed":604757,"internal_node_id":"0.0-6.0-68.0"},{"sim_score":2,"rt":3211,"stimulus":"[\"img/0875/ebf7653f-ff45-4e9f-af58-2c042ab3cd2b.jpg\",\"img/0867/c66898ba-b71b-4d50-84f9-f7f84853a98d.jpg\"]","trial_type":"similarity","trial_index":75,"time_elapsed":608986,"internal_node_id":"0.0-6.0-69.0"},{"sim_score":6,"rt":4611,"stimulus":"[\"img/0766/2746b119-4bba-463e-acf0-88136dc6600c.jpg\",\"img/0764/958b8576-3a3b-4acc-96dc-06b74de69f37.jpg\"]","trial_type":"similarity","trial_index":76,"time_elapsed":614615,"internal_node_id":"0.0-6.0-70.0"},{"sim_score":2,"rt":4492,"stimulus":"[\"img/0894/1b3888e6-cf36-4c4a-a039-187aa5cb71ac.jpg\",\"img/0867/ac1797e4-8afc-48fe-b252-86d1defb1cca.jpg\"]","trial_type":"similarity","trial_index":77,"time_elapsed":620123,"internal_node_id":"0.0-6.0-71.0"},{"sim_score":1,"rt":4359,"stimulus":"[\"img/0875/fb732ab5-013a-4366-9f65-27811ed157e9.jpg\",\"img/0764/8389e74f-e0e0-435d-945f-da1f4c92ccb6.jpg\"]","trial_type":"similarity","trial_index":78,"time_elapsed":625501,"internal_node_id":"0.0-6.0-72.0"},{"sim_score":7,"rt":3839,"stimulus":"[\"img/0867/aa05d113-fc19-4756-a8eb-7878f580bc92.jpg\",\"img/0866/d266fece-59b3-46fa-b69f-96f6efb81b59.jpg\"]","trial_type":"similarity","trial_index":79,"time_elapsed":630360,"internal_node_id":"0.0-6.0-73.0"},{"sim_score":1,"rt":5250,"stimulus":"[\"img/0903/b0a3c45f-467e-412f-a183-c9c1827f2e63.jpg\",\"img/0758/b76ceca7-95ac-46e4-ac13-da02c8e93be9.jpg\"]","trial_type":"similarity","trial_index":80,"time_elapsed":636632,"internal_node_id":"0.0-6.0-74.0"},{"sim_score":1,"rt":4160,"stimulus":"[\"img/0766/a754e4b6-5019-4cf4-8f58-34c20547a1f5.jpg\",\"img/0868/5fa7f9d0-f0e5-454c-8224-74d964818f56.jpg\"]","trial_type":"similarity","trial_index":81,"time_elapsed":641834,"internal_node_id":"0.0-6.0-75.0"},{"sim_score":1,"rt":3447,"stimulus":"[\"img/0874/3f471690-9788-4d03-90c7-f615aecef149.jpg\",\"img/0766/a0270213-fa0e-4972-8b56-228c3e01ff90.jpg\"]","trial_type":"similarity","trial_index":82,"time_elapsed":646300,"internal_node_id":"0.0-6.0-76.0"},{"sim_score":1,"rt":5659,"stimulus":"[\"img/0881/4da99fdd-1f40-4bbb-8e21-8833eef313f5.jpg\",\"img/0868/6a28c3b0-3d76-498a-9fb7-ddafc665eca8.jpg\"]","trial_type":"similarity","trial_index":83,"time_elapsed":652976,"internal_node_id":"0.0-6.0-77.0"},{"sim_score":1,"rt":4878,"stimulus":"[\"img/0758/d57c2592-a317-4f63-91be-91a3a9afd222.jpg\",\"img/0901/58978a6d-a3e2-4c59-8d62-f60693ecc0f6.jpg\"]","trial_type":"similarity","trial_index":84,"time_elapsed":658882,"internal_node_id":"0.0-6.0-78.0"},{"sim_score":2,"rt":4892,"stimulus":"[\"img/0881/db77fe00-aeb0-4d1d-aa66-f3a96fd077e4.jpg\",\"img/0898/e167334e-cc1d-4986-b3b1-c7bc7da64baa.jpg\"]","trial_type":"similarity","trial_index":85,"time_elapsed":664794,"internal_node_id":"0.0-6.0-79.0"},{"sim_score":1,"rt":3062,"stimulus":"[\"img/0867/12264664-1860-46df-8c21-162b9817cdda.jpg\",\"img/0758/ddc336e9-a8b6-4bb9-937a-c7e25e0e9250.jpg\"]","trial_type":"similarity","trial_index":86,"time_elapsed":668875,"internal_node_id":"0.0-6.0-80.0"},{"sim_score":3,"rt":5720,"stimulus":"[\"img/0769/1afb527f-9887-428c-bd26-a12c2f9efb68.jpg\",\"img/0899/a048912c-b12c-40e3-90af-46b69b0cc4fe.jpg\"]","trial_type":"similarity","trial_index":87,"time_elapsed":675613,"internal_node_id":"0.0-6.0-81.0"},{"sim_score":6,"rt":4353,"stimulus":"[\"img/0903/470acfd5-5571-4a7b-b3a4-28d87e098138.jpg\",\"img/0903/f67c4ab9-f8c2-4fcd-848a-a54a7b031002.jpg\"]","trial_type":"similarity","trial_index":88,"time_elapsed":680991,"internal_node_id":"0.0-6.0-82.0"},{"sim_score":1,"rt":3992,"stimulus":"[\"img/0867/6e19c858-b606-45b2-a4c6-910a73f1d82c.jpg\",\"img/0766/ba35c0fc-4d5b-490d-959e-c94b279cdd02.jpg\"]","trial_type":"similarity","trial_index":89,"time_elapsed":693456,"internal_node_id":"0.0-6.0-83.0"},{"sim_score":1,"rt":5875,"stimulus":"[\"img/0902/af40b98b-3d23-4d95-b401-49ba5783ce39.jpg\",\"img/0867/26611f4e-d694-4460-b7e2-43c62753ddc3.jpg\"]","trial_type":"similarity","trial_index":90,"time_elapsed":700358,"internal_node_id":"0.0-6.0-84.0"},{"sim_score":2,"rt":33789,"stimulus":"[\"img/0901/a373612d-67e2-4fec-9764-21d3d6ef6359.jpg\",\"img/0875/03c3c331-738b-4446-af92-3d7386b08c2e.jpg\"]","trial_type":"similarity","trial_index":91,"time_elapsed":735166,"internal_node_id":"0.0-6.0-85.0"},{"sim_score":3,"rt":4978,"stimulus":"[\"img/0764/62fafeea-6274-48ce-976f-35d3d3484c65.jpg\",\"img/0866/93a27239-8317-4e08-98ca-d8b1ff298e07.jpg\"]","trial_type":"similarity","trial_index":92,"time_elapsed":741175,"internal_node_id":"0.0-6.0-86.0"},{"sim_score":5,"rt":6020,"stimulus":"[\"img/0901/c6df1a21-44ed-47c2-960e-7c52220e329e.jpg\",\"img/0894/492d2f29-d7b9-4422-8be8-47fd58bfaa8b.jpg\"]","trial_type":"similarity","trial_index":93,"time_elapsed":748222,"internal_node_id":"0.0-6.0-87.0"},{"sim_score":2,"rt":5261,"stimulus":"[\"img/0898/04e39a7a-fcf6-4156-ab0e-f5871f335e1c.jpg\",\"img/0769/3c1203c5-2ce7-466e-957a-8d77b5905460.jpg\"]","trial_type":"similarity","trial_index":94,"time_elapsed":754506,"internal_node_id":"0.0-6.0-88.0"},{"sim_score":6,"rt":4857,"stimulus":"[\"img/0769/c34b7763-8ff2-46d5-9e92-f1d8f3bedbd8.jpg\",\"img/0894/05161000-f476-499b-a878-c13c7f347fd9.jpg\"]","trial_type":"similarity","trial_index":95,"time_elapsed":760377,"internal_node_id":"0.0-6.0-89.0"},{"sim_score":4,"rt":4375,"stimulus":"[\"img/0862/ad593cc7-cabe-4bb7-8e14-8a447a0717b4.jpg\",\"img/0874/a82926a3-0b43-4add-803c-d5f9ea7798ee.jpg\"]","trial_type":"similarity","trial_index":96,"time_elapsed":765784,"internal_node_id":"0.0-6.0-90.0"},{"sim_score":5,"rt":5920,"stimulus":"[\"img/0894/151063aa-6472-4745-837b-36603aba5966.jpg\",\"img/0766/fd74fdbb-ea40-4f3a-a091-38d08dfd636e.jpg\"]","trial_type":"similarity","trial_index":97,"time_elapsed":772729,"internal_node_id":"0.0-6.0-91.0"},{"sim_score":1,"rt":5173,"stimulus":"[\"img/0874/8cdb1c07-1c32-46d2-981c-3636560fa6e5.jpg\",\"img/0867/f8159067-056c-41f1-a136-c529fe5e970a.jpg\"]","trial_type":"similarity","trial_index":98,"time_elapsed":778929,"internal_node_id":"0.0-6.0-92.0"},{"sim_score":1,"rt":4576,"stimulus":"[\"img/0899/fef567a2-c121-4481-9af0-ff108d199bbf.jpg\",\"img/0868/09a9ef4d-d000-4cfa-a6aa-ebec7c2edeb4.jpg\"]","trial_type":"similarity","trial_index":99,"time_elapsed":784528,"internal_node_id":"0.0-6.0-93.0"},{"sim_score":2,"rt":7506,"stimulus":"[\"img/0903/8931c67c-a43d-47d3-a4c9-42aa2f81d344.jpg\",\"img/0862/a0a3a7ba-7798-46a3-b4ca-05e1f6e581d0.jpg\"]","trial_type":"similarity","trial_index":100,"time_elapsed":793063,"internal_node_id":"0.0-6.0-94.0"},{"sim_score":6,"rt":5886,"stimulus":"[\"img/0899/8abe6c69-822c-436c-9bf2-96c818b49ba5.jpg\",\"img/0766/09f646c8-a69e-4ed3-879c-8d29b04ad7f9.jpg\"]","trial_type":"similarity","trial_index":101,"time_elapsed":799968,"internal_node_id":"0.0-6.0-95.0"},{"sim_score":7,"rt":3863,"stimulus":"[\"img/0867/a749dddb-69f0-44a6-acdc-2bf295cf6dcc.jpg\",\"img/0868/0d3abd3a-b6c3-4584-a9f7-e2da63748b3d.jpg\"]","trial_type":"similarity","trial_index":102,"time_elapsed":804853,"internal_node_id":"0.0-6.0-96.0"},{"sim_score":6,"rt":8984,"stimulus":"[\"img/0862/e0f1a4e9-e1b6-45f7-af67-89f334e6630d.jpg\",\"img/0901/7c16dd9c-44ad-4d5b-990c-6a0b9b48b1b1.jpg\"]","trial_type":"similarity","trial_index":103,"time_elapsed":814854,"internal_node_id":"0.0-6.0-97.0"},{"sim_score":2,"rt":5581,"stimulus":"[\"img/0875/5a716432-c6ca-4b1c-955a-2b8ac25198ee.jpg\",\"img/0766/1865bfc9-2410-4765-a804-3ae4ba2393d0.jpg\"]","trial_type":"similarity","trial_index":104,"time_elapsed":821456,"internal_node_id":"0.0-6.0-98.0"},{"sim_score":4,"rt":6688,"stimulus":"[\"img/0758/3ddd05d3-557e-4ee7-8b78-9d2d681d8ae2.jpg\",\"img/0874/99f6563c-8a8d-4c1c-a41d-667b618c3fd5.jpg\"]","trial_type":"similarity","trial_index":105,"time_elapsed":829173,"internal_node_id":"0.0-6.0-99.0"},{"sim_score":2,"rt":3148,"stimulus":"[\"img/0904/5cceabc9-de1d-4c67-989b-c28a4ef77e79.jpg\",\"img/0868/3a62db2d-97e9-44a3-b8e3-a48c6f0e423b.jpg\"]","trial_type":"similarity","trial_index":106,"time_elapsed":833342,"internal_node_id":"0.0-6.0-100.0"},{"sim_score":1,"rt":7389,"stimulus":"[\"img/0903/b548d383-2a95-4575-8c13-647873751ff1.jpg\",\"img/0866/23a224f3-2012-4fc8-8e0f-3c36f8de27fd.jpg\"]","trial_type":"similarity","trial_index":107,"time_elapsed":841761,"internal_node_id":"0.0-6.0-101.0"},{"sim_score":2,"rt":4351,"stimulus":"[\"img/0868/4bd5105a-d2c3-4f82-8c80-57196106ba53.jpg\",\"img/0769/91acb237-65a3-4d0b-9748-af5c7b83d3c7.jpg\"]","trial_type":"similarity","trial_index":108,"time_elapsed":847133,"internal_node_id":"0.0-6.0-102.0"},{"sim_score":5,"rt":7197,"stimulus":"[\"img/0902/8af4182a-9af9-4212-a436-9195555112d6.jpg\",\"img/0899/56a605c3-d0a2-4215-89e1-779279d85a7c.jpg\"]","trial_type":"similarity","trial_index":109,"time_elapsed":855356,"internal_node_id":"0.0-6.0-103.0"},{"sim_score":5,"rt":4690,"stimulus":"[\"img/0868/77091fc7-a590-4ebb-b915-fdb2483a2399.jpg\",\"img/0862/53a9cf7c-93c4-41b9-952f-07d17f7a17b2.jpg\"]","trial_type":"similarity","trial_index":110,"time_elapsed":861080,"internal_node_id":"0.0-6.0-104.0"},{"sim_score":6,"rt":5459,"stimulus":"[\"img/0903/b7e3723f-fd03-4f3d-8820-f19496463a34.jpg\",\"img/0894/5c7677b0-a4f1-479e-b274-7822c415175a.jpg\"]","trial_type":"similarity","trial_index":111,"time_elapsed":867553,"internal_node_id":"0.0-6.0-105.0"},{"sim_score":7,"rt":7098,"stimulus":"[\"img/0864/c3b63e8f-ea39-4d70-a1f2-b3fe4be8eb75.jpg\",\"img/0874/85eb9b8a-c4c6-4e5a-b8e7-363a87a82054.jpg\"]","trial_type":"similarity","trial_index":112,"time_elapsed":875670,"internal_node_id":"0.0-6.0-106.0"},{"sim_score":5,"rt":6426,"stimulus":"[\"img/0862/e697469a-ec19-4414-b972-7b9f3564785b.jpg\",\"img/0902/d49743d6-67ae-4c2e-a939-8fd895a0f18e.jpg\"]","trial_type":"similarity","trial_index":113,"time_elapsed":883122,"internal_node_id":"0.0-6.0-107.0"},{"sim_score":5,"rt":4944,"stimulus":"[\"img/0904/fe746a3f-8458-48d0-8a13-8cba2a9df9f8.jpg\",\"img/0903/a0673b55-6040-47fe-9040-24bca27ca3c9.jpg\"]","trial_type":"similarity","trial_index":114,"time_elapsed":889082,"internal_node_id":"0.0-6.0-108.0"},{"sim_score":5,"rt":3841,"stimulus":"[\"img/0764/974d52cc-6318-4e7a-b294-2f3e92ff800f.jpg\",\"img/0864/49150900-7f25-4ce8-8d10-9b47a71d1997.jpg\"]","trial_type":"similarity","trial_index":115,"time_elapsed":893940,"internal_node_id":"0.0-6.0-109.0"},{"sim_score":2,"rt":3337,"stimulus":"[\"img/0866/8efcaa46-83ab-4dee-a35f-850402aa21ae.jpg\",\"img/0894/0130a973-d993-41f8-874a-fee23d9ac11f.jpg\"]","trial_type":"similarity","trial_index":116,"time_elapsed":898298,"internal_node_id":"0.0-6.0-110.0"},{"sim_score":3,"rt":6064,"stimulus":"[\"img/0899/ddf96ade-692e-4602-bd22-dedbb46401bc.jpg\",\"img/0903/81368973-de81-46f4-844f-b901f3bfd66d.jpg\"]","trial_type":"similarity","trial_index":117,"time_elapsed":905387,"internal_node_id":"0.0-6.0-111.0"},{"sim_score":7,"rt":4071,"stimulus":"[\"img/0902/94ee9c53-a9a2-4f95-b9b7-794a5fc62bb6.jpg\",\"img/0904/696ebb60-8891-417a-91fd-c53218907a95.jpg\"]","trial_type":"similarity","trial_index":118,"time_elapsed":910488,"internal_node_id":"0.0-6.0-112.0"},{"sim_score":5,"rt":4390,"stimulus":"[\"img/0864/da39ad34-04e0-40d4-a724-c08d53e0ea09.jpg\",\"img/0860/c5ccd1a4-4bb7-48e1-9b25-72cfaf06909b.jpg\"]","trial_type":"similarity","trial_index":119,"time_elapsed":915900,"internal_node_id":"0.0-6.0-113.0"},{"sim_score":4,"rt":5350,"stimulus":"[\"img/0860/b03b963d-949b-4d8d-b19c-4950c89eeca2.jpg\",\"img/0899/00715b3f-851b-420b-a26b-d7f79f7759a9.jpg\"]","trial_type":"similarity","trial_index":120,"time_elapsed":922272,"internal_node_id":"0.0-6.0-114.0"},{"sim_score":3,"rt":7015,"stimulus":"[\"img/0881/4bd34581-94d8-4e88-8c89-5cef864ca3be.jpg\",\"img/0903/e2e55a9e-0397-4dc0-8adf-4a54cfefe1fe.jpg\"]","trial_type":"similarity","trial_index":121,"time_elapsed":930316,"internal_node_id":"0.0-6.0-115.0"},{"sim_score":4,"rt":2992,"stimulus":"[\"img/0894/76c1201f-8524-4865-85e6-dda8cb4ac986.jpg\",\"img/0874/adf9a8f1-c40b-402b-b95b-1e85a54a7b62.jpg\"]","trial_type":"similarity","trial_index":122,"time_elapsed":934334,"internal_node_id":"0.0-6.0-116.0"},{"sim_score":5,"rt":3521,"stimulus":"[\"img/0881/62a64f90-7a72-4aee-a1a1-0c548ac9bdda.jpg\",\"img/0862/fb26cb07-d5a9-4653-813c-f41609f26cd5.jpg\"]","trial_type":"similarity","trial_index":123,"time_elapsed":938874,"internal_node_id":"0.0-6.0-117.0"},{"sim_score":5,"rt":6042,"stimulus":"[\"img/0868/fd307a36-9a3a-47d7-ab7c-f810d0b35040.jpg\",\"img/0875/42910c99-5463-450a-a0f8-d4d060a11455.jpg\"]","trial_type":"similarity","trial_index":124,"time_elapsed":945942,"internal_node_id":"0.0-6.0-118.0"},{"sim_score":1,"rt":4573,"stimulus":"[\"img/0860/4c530c3c-6aab-492a-94d1-9c01797bde40.jpg\",\"img/0758/7fba58df-2a7a-4b76-8a8f-62739f97f271.jpg\"]","trial_type":"similarity","trial_index":125,"time_elapsed":951530,"internal_node_id":"0.0-6.0-119.0"},{"sim_score":4,"rt":4837,"stimulus":"[\"img/0864/b3c4e378-28f0-4699-9338-2a257b4bca04.jpg\",\"img/0875/8521fd58-3b1e-4dc5-97ae-804edfa6734a.jpg\"]","trial_type":"similarity","trial_index":126,"time_elapsed":957389,"internal_node_id":"0.0-6.0-120.0"},{"sim_score":2,"rt":5996,"stimulus":"[\"img/0898/ec565187-2e31-4fdd-9a5c-153d0c789ae0.jpg\",\"img/0866/a04d37f0-99dd-478a-b6c6-58b215138f84.jpg\"]","trial_type":"similarity","trial_index":127,"time_elapsed":964410,"internal_node_id":"0.0-6.0-121.0"},{"sim_score":2,"rt":5298,"stimulus":"[\"img/0874/995f0332-0439-4eb4-add3-957335dbf6d9.jpg\",\"img/0904/5aec2708-cf14-4a58-aa30-9a8a61c1be0e.jpg\"]","trial_type":"similarity","trial_index":128,"time_elapsed":970739,"internal_node_id":"0.0-6.0-122.0"},{"sim_score":5,"rt":3725,"stimulus":"[\"img/0904/9d30eff1-46ef-4453-b11e-124ef8145c00.jpg\",\"img/0864/4bd81bc6-c13d-46df-95a9-485886dc7c1b.jpg\"]","trial_type":"similarity","trial_index":129,"time_elapsed":975489,"internal_node_id":"0.0-6.0-123.0"},{"sim_score":2,"rt":5829,"stimulus":"[\"img/0894/9b1333fd-3561-43bf-aee5-99b7b7ca3dc3.jpg\",\"img/0902/0db94c50-f1fb-4091-953c-29ca0466bee2.jpg\"]","trial_type":"similarity","trial_index":130,"time_elapsed":982342,"internal_node_id":"0.0-6.0-124.0"},{"sim_score":1,"rt":5566,"stimulus":"[\"img/0868/4e626425-63c8-484a-8a1d-e66ee4e0bef8.jpg\",\"img/0864/e336a4c5-6648-4fd7-b2f6-93a3fb83f8c6.jpg\"]","trial_type":"similarity","trial_index":131,"time_elapsed":1009411,"internal_node_id":"0.0-6.0-125.0"},{"sim_score":1,"rt":3695,"stimulus":"[\"img/0899/a05bea16-2bb4-4cb9-b8fb-4ff975db6971.jpg\",\"img/0866/a15b02be-11bb-43e3-b0e0-ecc3bd7dfc49.jpg\"]","trial_type":"similarity","trial_index":132,"time_elapsed":1014121,"internal_node_id":"0.0-6.0-126.0"},{"sim_score":6,"rt":5004,"stimulus":"[\"img/0875/cff79b3a-a797-4393-9757-6275f999ec04.jpg\",\"img/0904/56e73f28-7e64-489b-a161-e6b1a063878d.jpg\"]","trial_type":"similarity","trial_index":133,"time_elapsed":1020142,"internal_node_id":"0.0-6.0-127.0"},{"sim_score":3,"rt":4610,"stimulus":"[\"img/0867/2e1a0b58-cdb1-4107-a14e-452530d7b9b0.jpg\",\"img/0899/fd9efb43-701f-4cd6-baaa-4c38315f4bdc.jpg\"]","trial_type":"similarity","trial_index":134,"time_elapsed":1025778,"internal_node_id":"0.0-6.0-128.0"},{"sim_score":6,"rt":3982,"stimulus":"[\"img/0901/6e2957f8-f5ab-46f4-87cc-bb50155a098b.jpg\",\"img/0867/7d1c497b-c1b3-4ed8-abb5-d7f73306015f.jpg\"]","trial_type":"similarity","trial_index":135,"time_elapsed":1030791,"internal_node_id":"0.0-6.0-129.0"},{"sim_score":5,"rt":5185,"stimulus":"[\"img/0864/e8bd659f-aa43-4748-877e-3118e8b4e189.jpg\",\"img/0769/db94b61b-a5a7-4861-9d32-7b02ad194fb0.jpg\"]","trial_type":"similarity","trial_index":136,"time_elapsed":1037007,"internal_node_id":"0.0-6.0-130.0"},{"sim_score":4,"rt":2416,"stimulus":"[\"img/0903/07b445ee-0cdb-4d2c-a23b-d727613f4059.jpg\",\"img/0868/c8ac40c7-6904-4e13-8d61-c75d3052dc4e.jpg\"]","trial_type":"similarity","trial_index":137,"time_elapsed":1040447,"internal_node_id":"0.0-6.0-131.0"},{"sim_score":1,"rt":3139,"stimulus":"[\"img/0864/65210d57-1153-4657-886a-32e758f49b4a.jpg\",\"img/0867/f8488a47-94ee-4166-952c-44e16cf172f6.jpg\"]","trial_type":"similarity","trial_index":138,"time_elapsed":1044616,"internal_node_id":"0.0-6.0-132.0"},{"sim_score":7,"rt":5843,"stimulus":"[\"img/0901/08d6d1d1-c043-43c4-bb08-d45e062822b9.jpg\",\"img/0860/94ef7afc-e0e6-4a15-98c6-0bfac82bc832.jpg\"]","trial_type":"similarity","trial_index":139,"time_elapsed":1051481,"internal_node_id":"0.0-6.0-133.0"},{"sim_score":5,"rt":4064,"stimulus":"[\"img/0881/f4e3e181-b3c9-4af2-a5a4-fc135ab70d2e.jpg\",\"img/0766/af3be95e-e52e-4fae-899b-0ff02ec340aa.jpg\"]","trial_type":"similarity","trial_index":140,"time_elapsed":1056563,"internal_node_id":"0.0-6.0-134.0"},{"sim_score":4,"rt":7509,"stimulus":"[\"img/0903/150cf64c-0bd2-4674-abbb-a1387cf1f3e9.jpg\",\"img/0864/1ebbc554-99fa-49f9-8799-317375a79820.jpg\"]","trial_type":"similarity","trial_index":141,"time_elapsed":1065103,"internal_node_id":"0.0-6.0-135.0"},{"sim_score":2,"rt":4687,"stimulus":"[\"img/0758/9fb5b2fe-3f00-4fe6-973c-1ce10d5f4cd5.jpg\",\"img/0894/e5edf723-72a5-4673-8441-6c1734a8929b.jpg\"]","trial_type":"similarity","trial_index":142,"time_elapsed":1070806,"internal_node_id":"0.0-6.0-136.0"},{"sim_score":5,"rt":4375,"stimulus":"[\"img/0769/47700831-0ca2-4fdd-a498-a3bc5a528f43.jpg\",\"img/0860/e8b8c51e-1834-4875-8b61-6c5bc9b178bd.jpg\"]","trial_type":"similarity","trial_index":143,"time_elapsed":1076205,"internal_node_id":"0.0-6.0-137.0"},{"sim_score":4,"rt":3171,"stimulus":"[\"img/0904/63dd06dd-dccb-47ba-9740-eb33239e18a7.jpg\",\"img/0766/d14acac4-7db1-4b07-8f8f-302437326fc0.jpg\"]","trial_type":"similarity","trial_index":144,"time_elapsed":1080394,"internal_node_id":"0.0-6.0-138.0"},{"sim_score":6,"rt":3796,"stimulus":"[\"img/0868/83b4350a-3b70-4cea-b7f5-b5b56f3050a8.jpg\",\"img/0860/8fdba999-b946-4c7d-9891-336018b563ef.jpg\"]","trial_type":"similarity","trial_index":145,"time_elapsed":1085219,"internal_node_id":"0.0-6.0-139.0"},{"sim_score":6,"rt":4237,"stimulus":"[\"img/0758/53f35650-e455-4b53-8be4-c3c8271c6466.jpg\",\"img/0864/ea327690-500b-4137-bf91-451b309fe6a5.jpg\"]","trial_type":"similarity","trial_index":146,"time_elapsed":1090483,"internal_node_id":"0.0-6.0-140.0"},{"sim_score":7,"rt":3899,"stimulus":"[\"img/0867/075e0f95-856b-4cbb-acf5-092393aaf04e.jpg\",\"img/0867/50a1b60e-3a29-44bf-b606-d4bd3746fea9.jpg\"]","trial_type":"similarity","trial_index":147,"time_elapsed":1095408,"internal_node_id":"0.0-6.0-141.0"},{"sim_score":7,"rt":4721,"stimulus":"[\"img/0898/26c41340-15bd-4ead-8fe4-c0d0ddca09c2.jpg\",\"img/0898/a8f16b02-e19f-423b-86c3-a36562ae1f9b.jpg\"]","trial_type":"similarity","trial_index":148,"time_elapsed":1101157,"internal_node_id":"0.0-6.0-142.0"},{"sim_score":1,"rt":5152,"stimulus":"[\"img/0866/c446214b-a368-4c65-ae39-ea46894256ab.jpg\",\"img/0769/7c50e5f5-cc38-4d48-b009-fbe17bcea61c.jpg\"]","trial_type":"similarity","trial_index":149,"time_elapsed":1107333,"internal_node_id":"0.0-6.0-143.0"},{"sim_score":6,"rt":4130,"stimulus":"[\"img/0860/4a022222-056d-461c-ab02-39fac9647552.jpg\",\"img/0898/08c72dac-f8ad-407a-9ce6-8c9a5d679c3a.jpg\"]","trial_type":"similarity","trial_index":150,"time_elapsed":1112488,"internal_node_id":"0.0-6.0-144.0"},{"sim_score":5,"rt":3856,"stimulus":"[\"img/0766/91fc8c4d-862f-4d2b-b1a1-2db8d729b6b7.jpg\",\"img/0864/0116ca98-293d-4fa6-a93b-5a6144ef64cc.jpg\"]","trial_type":"similarity","trial_index":151,"time_elapsed":1117359,"internal_node_id":"0.0-6.0-145.0"},{"sim_score":3,"rt":6288,"stimulus":"[\"img/0860/d9a0d117-6d1d-41c0-8fec-9aff0fd9e9f2.jpg\",\"img/0903/5248eedd-7e6a-4d39-91b0-06ec227f3ed0.jpg\"]","trial_type":"similarity","trial_index":152,"time_elapsed":1124669,"internal_node_id":"0.0-6.0-146.0"},{"sim_score":4,"rt":5311,"stimulus":"[\"img/0867/bf560d4f-dee3-4f11-a385-705cc1aa5f3c.jpg\",\"img/0764/29072395-f595-4e3c-83d3-ff87010039fa.jpg\"]","trial_type":"similarity","trial_index":153,"time_elapsed":1131001,"internal_node_id":"0.0-6.0-147.0"},{"sim_score":7,"rt":4902,"stimulus":"[\"img/0769/4680bcc3-8fbc-4643-8f9a-12aa0e780b64.jpg\",\"img/0904/2f88ce53-02d0-4f95-a082-182c56a0eeb4.jpg\"]","trial_type":"similarity","trial_index":154,"time_elapsed":1136920,"internal_node_id":"0.0-6.0-148.0"},{"sim_score":4,"rt":9922,"stimulus":"[\"img/0764/b887d7c6-aa81-4637-af8e-05135757ac59.jpg\",\"img/0901/d61f267a-c492-4db6-9bfb-61efd49cf072.jpg\"]","trial_type":"similarity","trial_index":155,"time_elapsed":1147866,"internal_node_id":"0.0-6.0-149.0"},{"sim_score":5,"rt":10620,"stimulus":"[\"img/0904/e9423a8c-f946-43ad-ab7b-931acef870e2.jpg\",\"img/0899/9de5e857-aa9a-4e0c-8ba2-46d79bd069a4.jpg\"]","trial_type":"similarity","trial_index":156,"time_elapsed":1159502,"internal_node_id":"0.0-6.0-150.0"},{"sim_score":4,"rt":7899,"stimulus":"[\"img/0862/1c20f772-3a51-4a80-aac0-f57dc9f86c28.jpg\",\"img/0867/a498eef3-9fa4-4ab2-9778-4ae82ac40dc5.jpg\"]","trial_type":"similarity","trial_index":157,"time_elapsed":1168420,"internal_node_id":"0.0-6.0-151.0"},{"sim_score":7,"rt":4442,"stimulus":"[\"img/0766/d3bab2fc-ddcc-40a0-bb72-c0d0ebe19978.jpg\",\"img/0766/ae0fce93-fe8d-4aa1-87ca-4c3e4b889f2f.jpg\"]","trial_type":"similarity","trial_index":158,"time_elapsed":1173887,"internal_node_id":"0.0-6.0-152.0"},{"sim_score":5,"rt":12919,"stimulus":"[\"img/0862/f23038d4-c366-4f70-979f-66b62362efa4.jpg\",\"img/0894/b2d2f66e-e480-46da-a02a-6d0c6b285d78.jpg\"]","trial_type":"similarity","trial_index":159,"time_elapsed":1187833,"internal_node_id":"0.0-6.0-153.0"},{"sim_score":5,"rt":4582,"stimulus":"[\"img/0899/0adc0bc3-6fca-4078-be6f-d45ddf1653d5.jpg\",\"img/0901/7d4a3388-488d-4e9b-9d32-9d0def7aae8d.jpg\"]","trial_type":"similarity","trial_index":160,"time_elapsed":1193441,"internal_node_id":"0.0-6.0-154.0"},{"sim_score":4,"rt":8891,"stimulus":"[\"img/0874/93d1f8dc-acf2-4f03-bd8d-8ec35df276ed.jpg\",\"img/0874/ca23d307-fc00-4d7d-9106-584c6eb21b4d.jpg\"]","trial_type":"similarity","trial_index":161,"time_elapsed":1203360,"internal_node_id":"0.0-6.0-155.0"},{"sim_score":1,"rt":17001,"stimulus":"[\"img/0860/99c589b9-9140-4d17-90c0-b344323edcda.jpg\",\"img/0867/98d8cd96-1476-4fe0-a3a3-04f875500a1b.jpg\"]","trial_type":"similarity","trial_index":162,"time_elapsed":1221381,"internal_node_id":"0.0-6.0-156.0"},{"sim_score":4,"rt":11927,"stimulus":"[\"img/0901/1b86f2fc-7a1d-4aa8-9252-114f92edef3b.jpg\",\"img/0881/20af39f5-373d-4a55-a437-2dc4c0382c46.jpg\"]","trial_type":"similarity","trial_index":163,"time_elapsed":1234334,"internal_node_id":"0.0-6.0-157.0"},{"sim_score":7,"rt":4561,"stimulus":"[\"img/0903/2a9c8033-3e70-47fa-816d-97ee1813a3a3.jpg\",\"img/0902/40d0b6ec-3907-4573-b227-e7d8e9cad1c3.jpg\"]","trial_type":"similarity","trial_index":164,"time_elapsed":1239921,"internal_node_id":"0.0-6.0-158.0"},{"sim_score":4,"rt":16247,"stimulus":"[\"img/0860/9593362c-9fe5-4d12-9735-6000a11f6aa5.jpg\",\"img/0764/e42c1dc9-7831-4995-be19-7ca7b4d141fc.jpg\"]","trial_type":"similarity","trial_index":165,"time_elapsed":1257185,"internal_node_id":"0.0-6.0-159.0"},{"sim_score":3,"rt":7257,"stimulus":"[\"img/0902/31abfa33-7cdb-44ad-968e-9f7b324d577a.jpg\",\"img/0875/dbdd643e-6d0e-4a5c-ab57-b9c29b9c981a.jpg\"]","trial_type":"similarity","trial_index":166,"time_elapsed":1265462,"internal_node_id":"0.0-6.0-160.0"},{"sim_score":2,"rt":5368,"stimulus":"[\"img/0898/6cd3830b-d44e-4915-be2b-88d31424b91c.jpg\",\"img/0862/fad1d7c1-8187-43c3-942a-0fc12183e48e.jpg\"]","trial_type":"similarity","trial_index":167,"time_elapsed":1271847,"internal_node_id":"0.0-6.0-161.0"},{"sim_score":4,"rt":7475,"stimulus":"[\"img/0894/86201968-6e78-4d68-9b3a-d1692e066210.jpg\",\"img/0875/90da8d75-108a-44ad-b999-e21fee3860d3.jpg\"]","trial_type":"similarity","trial_index":168,"time_elapsed":1280347,"internal_node_id":"0.0-6.0-162.0"},{"sim_score":1,"rt":3025,"stimulus":"[\"img/0866/02f5e6b9-52b7-448c-9708-5b460d0c9a23.jpg\",\"img/0864/0f537697-a314-47c3-a8cc-8df23b7e536c.jpg\"]","trial_type":"similarity","trial_index":169,"time_elapsed":1284388,"internal_node_id":"0.0-6.0-163.0"},{"sim_score":3,"rt":4613,"stimulus":"[\"img/0766/5d1b8041-c5a1-4b02-b4fe-3453d98a0d72.jpg\",\"img/0862/92fcd8a4-8193-4a6a-ae09-dd4a6338b0df.jpg\"]","trial_type":"similarity","trial_index":170,"time_elapsed":1290022,"internal_node_id":"0.0-6.0-164.0"},{"sim_score":2,"rt":5734,"stimulus":"[\"img/0866/07c9c966-3c8d-40e7-8128-92b2acbaed5d.jpg\",\"img/0874/ca76a855-4e77-4f2f-872a-0a718153e7ed.jpg\"]","trial_type":"similarity","trial_index":171,"time_elapsed":1296771,"internal_node_id":"0.0-6.0-165.0"},{"sim_score":4,"rt":5791,"stimulus":"[\"img/0862/064818ee-13d5-4618-bb24-21c7368ea278.jpg\",\"img/0860/31ff6436-98bf-4652-bed2-40f627229568.jpg\"]","trial_type":"similarity","trial_index":172,"time_elapsed":1303588,"internal_node_id":"0.0-6.0-166.0"},{"sim_score":2,"rt":5887,"stimulus":"[\"img/0766/214866ee-423d-4629-9bb9-41572bdc7dac.jpg\",\"img/0901/548d1110-7cb8-42a2-9927-9798875c8b5c.jpg\"]","trial_type":"similarity","trial_index":173,"time_elapsed":1318092,"internal_node_id":"0.0-6.0-167.0"},{"sim_score":7,"rt":4797,"stimulus":"[\"img/0862/ee3b7bff-4a70-4e84-9bea-4a565e456acb.jpg\",\"img/0862/5d887e9f-89e2-4ebc-80a0-6d46fe6480db.jpg\"]","trial_type":"similarity","trial_index":174,"time_elapsed":1323905,"internal_node_id":"0.0-6.0-168.0"},{"sim_score":3,"rt":5876,"stimulus":"[\"img/0894/7dd6ff43-f8fc-408a-8a41-a2b261871820.jpg\",\"img/0764/f9f890e6-3c2f-40cd-84e9-85e0b54cb28e.jpg\"]","trial_type":"similarity","trial_index":175,"time_elapsed":1330810,"internal_node_id":"0.0-6.0-169.0"},{"sim_score":4,"rt":13893,"stimulus":"[\"img/0874/c0378dac-9370-439a-8b79-db27c96fb390.jpg\",\"img/0898/4184e5a2-84ea-4f36-9b42-ae58646f6f87.jpg\"]","trial_type":"similarity","trial_index":176,"time_elapsed":1345721,"internal_node_id":"0.0-6.0-170.0"},{"sim_score":5,"rt":3955,"stimulus":"[\"img/0860/524b2e98-5767-4d53-942c-ebae6925659b.jpg\",\"img/0766/33aa9ebb-c9f5-418f-8c8b-c77861889568.jpg\"]","trial_type":"similarity","trial_index":177,"time_elapsed":1350701,"internal_node_id":"0.0-6.0-171.0"},{"sim_score":3,"rt":4712,"stimulus":"[\"img/0898/993d8f2d-bef7-4251-a193-0f93a32b7763.jpg\",\"img/0864/efcfbb1b-8197-44c9-b723-40d6c608dd3c.jpg\"]","trial_type":"similarity","trial_index":178,"time_elapsed":1356437,"internal_node_id":"0.0-6.0-172.0"},{"sim_score":6,"rt":4609,"stimulus":"[\"img/0881/33d65d80-8a8e-4ecf-852d-0ad7725c17a2.jpg\",\"img/0764/b328441c-f81c-486c-9eae-b947c70ba7cd.jpg\"]","trial_type":"similarity","trial_index":179,"time_elapsed":1362062,"internal_node_id":"0.0-6.0-173.0"},{"sim_score":1,"rt":4365,"stimulus":"[\"img/0898/b3290bf9-215b-4b45-b21a-65bdf73f142f.jpg\",\"img/0868/15dd6fd7-791e-4b53-b203-195d617521a4.jpg\"]","trial_type":"similarity","trial_index":180,"time_elapsed":1367450,"internal_node_id":"0.0-6.0-174.0"},{"sim_score":7,"rt":6719,"stimulus":"[\"img/0864/300bb811-8b3c-4c42-8653-6097c3725197.jpg\",\"img/0864/66091c27-e588-4476-8af9-265dc6be4156.jpg\"]","trial_type":"similarity","trial_index":181,"time_elapsed":1375192,"internal_node_id":"0.0-6.0-175.0"},{"sim_score":6,"rt":10204,"stimulus":"[\"img/0899/51a7a498-98c7-42d7-bca8-bc2d8f0b5831.jpg\",\"img/0862/92f0146c-20c4-482e-aef5-adb693790338.jpg\"]","trial_type":"similarity","trial_index":182,"time_elapsed":1386421,"internal_node_id":"0.0-6.0-176.0"},{"sim_score":1,"rt":4815,"stimulus":"[\"img/0875/527ced51-8e53-4aab-ab05-86df219104c0.jpg\",\"img/0758/20497cbe-ddae-489e-86e2-ab06985ed07c.jpg\"]","trial_type":"similarity","trial_index":183,"time_elapsed":1392252,"internal_node_id":"0.0-6.0-177.0"},{"sim_score":2,"rt":5788,"stimulus":"[\"img/0866/386235d2-6857-41e7-88a8-25cfc3430025.jpg\",\"img/0901/71e551a2-9ce2-409c-9c7c-dd556a0791e9.jpg\"]","trial_type":"similarity","trial_index":184,"time_elapsed":1399069,"internal_node_id":"0.0-6.0-178.0"},{"sim_score":3,"rt":4829,"stimulus":"[\"img/0769/9ea27d61-3d55-418c-8d14-82e90f656f01.jpg\",\"img/0874/1016b306-087c-4afc-aa08-fa527b28dc76.jpg\"]","trial_type":"similarity","trial_index":185,"time_elapsed":1404922,"internal_node_id":"0.0-6.0-179.0"},{"sim_score":1,"rt":4494,"stimulus":"[\"img/0875/34132396-d896-4c2d-8087-646dd867e769.jpg\",\"img/0881/84397291-bc14-4fbf-90e8-241e486ab0fe.jpg\"]","trial_type":"similarity","trial_index":186,"time_elapsed":1410446,"internal_node_id":"0.0-6.0-180.0"},{"sim_score":6,"rt":4881,"stimulus":"[\"img/0866/620cd1aa-0800-4414-8f6e-90342e7a99ad.jpg\",\"img/0868/4a8a45ed-2c4f-421b-9564-409a33ecd26c.jpg\"]","trial_type":"similarity","trial_index":187,"time_elapsed":1416345,"internal_node_id":"0.0-6.0-181.0"},{"sim_score":5,"rt":3807,"stimulus":"[\"img/0899/ad8268c5-8199-48d0-ad70-c5b6d6c599ec.jpg\",\"img/0758/d41c06bf-ebaf-454b-91c6-1a17f917b659.jpg\"]","trial_type":"similarity","trial_index":188,"time_elapsed":1421181,"internal_node_id":"0.0-6.0-182.0"},{"sim_score":1,"rt":3695,"stimulus":"[\"img/0874/eba003b4-cdab-4eee-8bc3-f064c7d94165.jpg\",\"img/0875/e7e66b13-b573-431e-b85e-288ce04a35a3.jpg\"]","trial_type":"similarity","trial_index":189,"time_elapsed":1425897,"internal_node_id":"0.0-6.0-183.0"},{"sim_score":6,"rt":4889,"stimulus":"[\"img/0904/06dacdc5-2206-4fb8-92b7-88042d22833c.jpg\",\"img/0862/47ed5efd-4ec9-4b74-bb4e-a5f5cf0c3e7d.jpg\"]","trial_type":"similarity","trial_index":190,"time_elapsed":1431802,"internal_node_id":"0.0-6.0-184.0"},{"sim_score":4,"rt":7864,"stimulus":"[\"img/0902/94198618-7047-4dc9-ad04-85f4ba913067.jpg\",\"img/0766/ef3b15ce-abb7-4292-ad93-aec8e8b50520.jpg\"]","trial_type":"similarity","trial_index":191,"time_elapsed":1440693,"internal_node_id":"0.0-6.0-185.0"},{"sim_score":2,"rt":10908,"stimulus":"[\"img/0758/61d64021-9214-4951-bdf8-f871f9827cf9.jpg\",\"img/0769/e31b3bd8-efcb-413e-aa8c-75fac2b8f2ac.jpg\"]","trial_type":"similarity","trial_index":192,"time_elapsed":1452624,"internal_node_id":"0.0-6.0-186.0"},{"sim_score":7,"rt":2978,"stimulus":"[\"img/0881/ee44e27f-d662-4608-b265-e7ffa19b216f.jpg\",\"img/0881/566f45f8-5fed-4479-a60f-26377e60a62d.jpg\"]","trial_type":"similarity","trial_index":193,"time_elapsed":1456631,"internal_node_id":"0.0-6.0-187.0"},{"sim_score":2,"rt":5935,"stimulus":"[\"img/0758/7ffbc76b-1fc1-432c-8f7e-9ec8d1b3f643.jpg\",\"img/0866/9b38d691-1802-4959-ab3f-fc902f0e4ea6.jpg\"]","trial_type":"similarity","trial_index":194,"time_elapsed":1463583,"internal_node_id":"0.0-6.0-188.0"},{"sim_score":2,"rt":3292,"stimulus":"[\"img/0764/5d83b9db-3b2b-4dc8-9bd1-2b515b19c858.jpg\",\"img/0898/c3cecf20-f7fd-45fa-97d0-dc0a63e8d6c0.jpg\"]","trial_type":"similarity","trial_index":195,"time_elapsed":1467900,"internal_node_id":"0.0-6.0-189.0"},{"sim_score":4,"rt":11782,"stimulus":"[\"img/0903/b4a0f61e-a964-4b79-a9a7-f767a8f92f34.jpg\",\"img/0901/50e1d53e-a49f-4806-8610-be6dec5a2475.jpg\"]","trial_type":"similarity","trial_index":196,"time_elapsed":1480703,"internal_node_id":"0.0-6.0-190.0"},{"sim_score":3,"rt":4937,"stimulus":"[\"img/0902/c9c74d2d-9b82-42d7-a9d0-3b8ff67ff81e.jpg\",\"img/0898/881e2a85-d5c2-49be-a0c6-8a6ce2c4af08.jpg\"]","trial_type":"similarity","trial_index":197,"time_elapsed":1486662,"internal_node_id":"0.0-6.0-191.0"},{"sim_score":1,"rt":5379,"stimulus":"[\"img/0864/1d15626a-2f7c-410f-819c-0fa2c967e95e.jpg\",\"img/0901/b453df0b-4c39-49bb-8ced-6127efffa898.jpg\"]","trial_type":"similarity","trial_index":198,"time_elapsed":1493066,"internal_node_id":"0.0-6.0-192.0"},{"sim_score":2,"rt":5663,"stimulus":"[\"img/0894/8cadb87a-7001-4e47-99fb-1867bebf1668.jpg\",\"img/0881/48ed65a5-471f-41af-86ec-3793805c116d.jpg\"]","trial_type":"similarity","trial_index":199,"time_elapsed":1499762,"internal_node_id":"0.0-6.0-193.0"},{"sim_score":6,"rt":4150,"stimulus":"[\"img/0868/8b0b8473-e2c0-4331-aa56-c3a5c29369da.jpg\",\"img/0868/7b212364-ff5f-4e28-9241-7eb6ea00161b.jpg\"]","trial_type":"similarity","trial_index":200,"time_elapsed":1504936,"internal_node_id":"0.0-6.0-194.0"},{"sim_score":5,"rt":4896,"stimulus":"[\"img/0899/8de08897-b430-42fe-9d42-840670b80f94.jpg\",\"img/0764/1f95ab5f-fb65-4d70-b5db-d6bd6351a8aa.jpg\"]","trial_type":"similarity","trial_index":201,"time_elapsed":1510860,"internal_node_id":"0.0-6.0-195.0"},{"sim_score":6,"rt":6779,"stimulus":"[\"img/0881/6b1189e6-232d-4042-8885-16dc7b10e0d4.jpg\",\"img/0904/65e2b70a-b184-4da3-b5c0-5038bdf9469a.jpg\"]","trial_type":"similarity","trial_index":202,"time_elapsed":1518657,"internal_node_id":"0.0-6.0-196.0"},{"sim_score":4,"rt":4951,"stimulus":"[\"img/0864/6f631579-acf1-415c-a42c-1207f62a8d99.jpg\",\"img/0902/6730b12a-f0a7-4587-8c10-a32fae16565b.jpg\"]","trial_type":"similarity","trial_index":203,"time_elapsed":1524635,"internal_node_id":"0.0-6.0-197.0"},{"sim_score":5,"rt":5342,"stimulus":"[\"img/0894/e6385e52-6c35-43bd-b0af-bc803d107b11.jpg\",\"img/0904/1d10df11-b5c8-4370-9a6b-097a7f965895.jpg\"]","trial_type":"similarity","trial_index":204,"time_elapsed":1531006,"internal_node_id":"0.0-6.0-198.0"},{"sim_score":6,"rt":6439,"stimulus":"[\"img/0901/4ca4f962-40c0-4c59-b14a-3cd7b8c9029b.jpg\",\"img/0901/b9141736-3041-4385-a586-b1fe911c76a5.jpg\"]","trial_type":"similarity","trial_index":205,"time_elapsed":1538463,"internal_node_id":"0.0-6.0-199.0"},{"sim_score":3,"rt":5035,"stimulus":"[\"img/0894/5f15154e-e72e-4ce5-aafb-bce6f0564006.jpg\",\"img/0860/4f695df5-afac-4da7-9875-fee39b0b24ad.jpg\"]","trial_type":"similarity","trial_index":206,"time_elapsed":1544518,"internal_node_id":"0.0-6.0-200.0"},{"sim_score":6,"rt":4249,"stimulus":"[\"img/0898/0af304a2-6a7a-4082-ab7c-4450cd08cc58.jpg\",\"img/0903/24477210-856c-4550-9de0-9f85a32762eb.jpg\"]","trial_type":"similarity","trial_index":207,"time_elapsed":1549793,"internal_node_id":"0.0-6.0-201.0"},{"sim_score":2,"rt":4856,"stimulus":"[\"img/0864/3d4de670-b290-4285-9c3d-12a0e3af44e9.jpg\",\"img/0894/7fb082e0-ce79-485c-9109-04367fb32275.jpg\"]","trial_type":"similarity","trial_index":208,"time_elapsed":1555676,"internal_node_id":"0.0-6.0-202.0"},{"sim_score":5,"rt":7180,"stimulus":"[\"img/0874/31e22c7c-99aa-40b1-bf03-dd73fa2df4d6.jpg\",\"img/0860/61fb959d-d4d9-4de4-9e4e-4fa62b4cfcd5.jpg\"]","trial_type":"similarity","trial_index":209,"time_elapsed":1563878,"internal_node_id":"0.0-6.0-203.0"},{"sim_score":3,"rt":8194,"stimulus":"[\"img/0862/ba89835a-408c-480b-8594-ed4ffa97eb5c.jpg\",\"img/0875/f87b67d7-c33e-40d1-b281-248c4be1cb6e.jpg\"]","trial_type":"similarity","trial_index":210,"time_elapsed":1573099,"internal_node_id":"0.0-6.0-204.0"},{"sim_score":2,"rt":4765,"stimulus":"[\"img/0867/8ba0c5a7-c7e4-42cf-a80a-543763b90779.jpg\",\"img/0881/f8bd891e-aa09-4782-89db-33e7cb2b0cf1.jpg\"]","trial_type":"similarity","trial_index":211,"time_elapsed":1578896,"internal_node_id":"0.0-6.0-205.0"},{"sim_score":5,"rt":5484,"stimulus":"[\"img/0901/bc47e078-bda4-40ed-b89a-bbd819164b95.jpg\",\"img/0902/d5e25767-e8ec-45f3-ac0a-7b4a6f7a9edc.jpg\"]","trial_type":"similarity","trial_index":212,"time_elapsed":1585408,"internal_node_id":"0.0-6.0-206.0"},{"sim_score":3,"rt":5211,"stimulus":"[\"img/0899/66bf4113-ee12-426c-84d2-ea410b6c803e.jpg\",\"img/0864/5f33e097-23e3-4002-882d-76e8cb15f451.jpg\"]","trial_type":"similarity","trial_index":213,"time_elapsed":1591644,"internal_node_id":"0.0-6.0-207.0"},{"sim_score":5,"rt":6355,"stimulus":"[\"img/0901/f1116359-1ff1-4638-b3b3-700918d36d18.jpg\",\"img/0769/ebef2ddc-ba59-4e0e-97f8-927864eb5081.jpg\"]","trial_type":"similarity","trial_index":214,"time_elapsed":1599015,"internal_node_id":"0.0-6.0-208.0"},{"sim_score":7,"rt":3754,"stimulus":"[\"img/0902/44cd9b7e-fdfb-4f78-90de-8d4c9d279365.jpg\",\"img/0902/cf9dee9c-2bdf-4d64-9302-97f1660fe52c.jpg\"]","trial_type":"similarity","trial_index":215,"time_elapsed":1607965,"internal_node_id":"0.0-6.0-209.0"},{"view_history":"[{\"page_index\":0,\"viewing_time\":11086}]","rt":11087,"trial_type":"instructions","trial_index":216,"time_elapsed":1620066,"internal_node_id":"0.0-7.0"},{"rt":100959,"responses":"{\"Q0\":\"Orange-crowned Warbler\"}","answer":["Nashville Warbler"],"trial_type":"image-multi-choice","trial_index":217,"time_elapsed":1722106,"internal_node_id":"0.0-8.0-0.0"},{"rt":7431,"responses":"{\"Q0\":\"Black-and-white Warbler\"}","answer":["Black-and-white Warbler"],"trial_type":"image-multi-choice","trial_index":218,"time_elapsed":1730616,"internal_node_id":"0.0-8.0-1.0"},{"rt":7425,"responses":"{\"Q0\":\"Townsend's Warbler\"}","answer":["Townsend's Warbler"],"trial_type":"image-multi-choice","trial_index":219,"time_elapsed":1739129,"internal_node_id":"0.0-8.0-2.0"},{"rt":31323,"responses":"{\"Q0\":\"Lark Sparrow\"}","answer":["Lark Sparrow"],"trial_type":"image-multi-choice","trial_index":220,"time_elapsed":1771557,"internal_node_id":"0.0-8.0-3.0"},{"rt":3915,"responses":"{\"Q0\":\"Yellow Warbler\"}","answer":["Yellow Warbler"],"trial_type":"image-multi-choice","trial_index":221,"time_elapsed":1776560,"internal_node_id":"0.0-8.0-4.0"},{"rt":39953,"responses":"{\"Q0\":\"Orange-crowned Warbler\"}","answer":["Orange-crowned Warbler"],"trial_type":"image-multi-choice","trial_index":222,"time_elapsed":1817592,"internal_node_id":"0.0-8.0-5.0"},{"rt":6753,"responses":"{\"Q0\":\"White-crowned Sparrow\"}","answer":["White-throated Sparrow"],"trial_type":"image-multi-choice","trial_index":223,"time_elapsed":1825449,"internal_node_id":"0.0-8.0-6.0"},{"rt":37356,"responses":"{\"Q0\":\"Swamp Sparrow\"}","answer":["Fox Sparrow"],"trial_type":"image-multi-choice","trial_index":224,"time_elapsed":1863878,"internal_node_id":"0.0-8.0-7.0"},{"rt":29581,"responses":"{\"Q0\":\"Vesper Sparrow\"}","answer":["Song Sparrow"],"trial_type":"image-multi-choice","trial_index":225,"time_elapsed":1894544,"internal_node_id":"0.0-8.0-8.0"},{"rt":9972,"responses":"{\"Q0\":\"Blackburnian Warbler\"}","answer":["Blackburnian Warbler"],"trial_type":"image-multi-choice","trial_index":226,"time_elapsed":1905590,"internal_node_id":"0.0-8.0-9.0"},{"rt":6694,"responses":"{\"Q0\":\"Fox Sparrow\"}","answer":["Vesper Sparrow"],"trial_type":"image-multi-choice","trial_index":227,"time_elapsed":1913367,"internal_node_id":"0.0-8.0-10.0"},{"rt":9102,"responses":"{\"Q0\":\"White-crowned Sparrow\"}","answer":["White-crowned Sparrow"],"trial_type":"image-multi-choice","trial_index":228,"time_elapsed":1923554,"internal_node_id":"0.0-8.0-11.0"},{"rt":9239,"responses":"{\"Q0\":\"American Tree Sparrow\"}","answer":["American Tree Sparrow"],"trial_type":"image-multi-choice","trial_index":229,"time_elapsed":1933878,"internal_node_id":"0.0-8.0-12.0"},{"rt":25850,"responses":"{\"Q0\":\"Tennessee Warbler\"}","answer":["Tennessee Warbler"],"trial_type":"image-multi-choice","trial_index":230,"time_elapsed":1960834,"internal_node_id":"0.0-8.0-13.0"},{"rt":126840,"responses":"{\"Q0\":\"Townsend's Warbler\"}","answer":["Magnolia Warbler"],"trial_type":"image-multi-choice","trial_index":231,"time_elapsed":2088794,"internal_node_id":"0.0-8.0-14.0"},{"rt":9710,"responses":"{\"Q0\":\"Northern Waterthrush\"}","answer":["Northern Waterthrush"],"trial_type":"image-multi-choice","trial_index":232,"time_elapsed":2099583,"internal_node_id":"0.0-8.0-15.0"},{"rt":14341,"responses":"{\"Q0\":\"Chipping Sparrow\"}","answer":["Chipping Sparrow"],"trial_type":"image-multi-choice","trial_index":233,"time_elapsed":2115013,"internal_node_id":"0.0-8.0-16.0"},{"rt":16217,"responses":"{\"Q0\":\"Lincoln's Sparrow\"}","answer":["Swamp Sparrow"],"trial_type":"image-multi-choice","trial_index":234,"time_elapsed":2132307,"internal_node_id":"0.0-8.0-17.0"},{"rt":8889,"responses":"{\"Q0\":\"Swamp Sparrow\"}","answer":["Lincoln's Sparrow"],"trial_type":"image-multi-choice","trial_index":235,"time_elapsed":2142291,"internal_node_id":"0.0-8.0-18.0"},{"rt":4128,"responses":"{\"Q0\":\"Ovenbird\"}","answer":["Ovenbird"],"trial_type":"image-multi-choice","trial_index":236,"time_elapsed":2147492,"internal_node_id":"0.0-8.0-19.0"}]