[{"view_history":"[{\"page_index\":0,\"viewing_time\":17769}]","rt":17770,"trial_type":"instructions","trial_index":0,"time_elapsed":17771,"internal_node_id":"0.0-0.0"},{"sim_score":5,"rt":10428,"stimulus":"[\"img/866.jpg\",\"img/868.jpg\"]","trial_type":"similarity_demo","trial_index":1,"time_elapsed":29211,"internal_node_id":"0.0-1.0"},{"view_history":"[{\"page_index\":0,\"viewing_time\":8214}]","rt":8215,"trial_type":"instructions","trial_index":2,"time_elapsed":38427,"internal_node_id":"0.0-2.0"},{"sim_score":1,"rt":5032,"stimulus":"[\"img/766.jpg\",\"img/867.jpg\"]","trial_type":"similarity_demo","trial_index":3,"time_elapsed":44468,"internal_node_id":"0.0-3.0"},{"view_history":"[{\"page_index\":0,\"viewing_time\":6317}]","rt":6318,"trial_type":"instructions","trial_index":4,"time_elapsed":51787,"internal_node_id":"0.0-4.0"},{"view_history":"[{\"page_index\":0,\"viewing_time\":45361}]","rt":45361,"trial_type":"instructions","trial_index":5,"time_elapsed":98149,"internal_node_id":"0.0-5.0"},{"sim_score":1,"rt":6015,"stimulus":"[\"img/0868/4a8a45ed-2c4f-421b-9564-409a33ecd26c.jpg\",\"img/0901/d4d09bf5-093e-4050-838e-7c738be8e63c.jpg\"]","trial_type":"similarity","trial_index":6,"time_elapsed":105172,"internal_node_id":"0.0-6.0-0.0"},{"sim_score":2,"rt":6229,"stimulus":"[\"img/0769/f6396414-6788-4d59-9683-de153298d89c.jpg\",\"img/0867/1719a35d-f085-48c0-9099-16c94fe418b4.jpg\"]","trial_type":"similarity","trial_index":7,"time_elapsed":112407,"internal_node_id":"0.0-6.0-1.0"},{"sim_score":1,"rt":6478,"stimulus":"[\"img/0766/1865bfc9-2410-4765-a804-3ae4ba2393d0.jpg\",\"img/0898/b2732712-71c2-45d8-834f-2b2ed5504910.jpg\"]","trial_type":"similarity","trial_index":8,"time_elapsed":119895,"internal_node_id":"0.0-6.0-2.0"},{"sim_score":1,"rt":5202,"stimulus":"[\"img/0902/b03fee99-d5ca-4bf8-871c-a4a743a39842.jpg\",\"img/0881/20af39f5-373d-4a55-a437-2dc4c0382c46.jpg\"]","trial_type":"similarity","trial_index":9,"time_elapsed":126103,"internal_node_id":"0.0-6.0-3.0"},{"sim_score":7,"rt":5386,"stimulus":"[\"img/0894/86201968-6e78-4d68-9b3a-d1692e066210.jpg\",\"img/0894/5ff3c4f6-52e2-4075-8679-be0312e59703.jpg\"]","trial_type":"similarity","trial_index":10,"time_elapsed":132497,"internal_node_id":"0.0-6.0-4.0"},{"sim_score":1,"rt":5492,"stimulus":"[\"img/0874/3f471690-9788-4d03-90c7-f615aecef149.jpg\",\"img/0899/a05bea16-2bb4-4cb9-b8fb-4ff975db6971.jpg\"]","trial_type":"similarity","trial_index":11,"time_elapsed":138997,"internal_node_id":"0.0-6.0-5.0"},{"sim_score":3,"rt":5386,"stimulus":"[\"img/0904/e9423a8c-f946-43ad-ab7b-931acef870e2.jpg\",\"img/0764/d0bef2e0-e16b-4c82-9451-c1d16265eb67.jpg\"]","trial_type":"similarity","trial_index":12,"time_elapsed":145389,"internal_node_id":"0.0-6.0-6.0"},{"sim_score":7,"rt":6900,"stimulus":"[\"img/0899/b45c550b-96c3-4255-ad59-48a2b4db1c1e.jpg\",\"img/0898/08c72dac-f8ad-407a-9ce6-8c9a5d679c3a.jpg\"]","trial_type":"similarity","trial_index":13,"time_elapsed":153294,"internal_node_id":"0.0-6.0-7.0"},{"sim_score":1,"rt":7486,"stimulus":"[\"img/0874/1016b306-087c-4afc-aa08-fa527b28dc76.jpg\",\"img/0903/14f179a2-8786-48a2-8377-88d1d404341b.jpg\"]","trial_type":"similarity","trial_index":14,"time_elapsed":161787,"internal_node_id":"0.0-6.0-8.0"},{"sim_score":7,"rt":6669,"stimulus":"[\"img/0881/f8bd891e-aa09-4782-89db-33e7cb2b0cf1.jpg\",\"img/0758/7ffbc76b-1fc1-432c-8f7e-9ec8d1b3f643.jpg\"]","trial_type":"similarity","trial_index":15,"time_elapsed":169462,"internal_node_id":"0.0-6.0-9.0"},{"sim_score":4,"rt":6424,"stimulus":"[\"img/0898/40f99fb2-64d2-4e72-8a7f-a1cf60741e69.jpg\",\"img/0901/50e1d53e-a49f-4806-8610-be6dec5a2475.jpg\"]","trial_type":"similarity","trial_index":16,"time_elapsed":176892,"internal_node_id":"0.0-6.0-10.0"},{"sim_score":3,"rt":5081,"stimulus":"[\"img/0903/680ed18e-b311-4ecf-9b00-7dea32128334.jpg\",\"img/0769/662ab839-88d1-4ebf-af05-9b2980cad943.jpg\"]","trial_type":"similarity","trial_index":17,"time_elapsed":182978,"internal_node_id":"0.0-6.0-11.0"},{"sim_score":1,"rt":5347,"stimulus":"[\"img/0764/bc3865c9-9004-4582-88a7-048478673f97.jpg\",\"img/0868/3a62db2d-97e9-44a3-b8e3-a48c6f0e423b.jpg\"]","trial_type":"similarity","trial_index":18,"time_elapsed":189339,"internal_node_id":"0.0-6.0-12.0"},{"sim_score":1,"rt":5770,"stimulus":"[\"img/0867/cc72ed48-7704-422c-86d6-467a1145287a.jpg\",\"img/0903/6138142e-c84e-45fc-9487-c974f3d4968a.jpg\"]","trial_type":"similarity","trial_index":19,"time_elapsed":196115,"internal_node_id":"0.0-6.0-13.0"},{"sim_score":1,"rt":5975,"stimulus":"[\"img/0766/79767d11-b612-4e8a-9e4b-a8ac95bb6a54.jpg\",\"img/0758/caa93da2-9edf-49fa-96b9-32dedd8f5078.jpg\"]","trial_type":"similarity","trial_index":20,"time_elapsed":203095,"internal_node_id":"0.0-6.0-14.0"},{"sim_score":6,"rt":5705,"stimulus":"[\"img/0902/af45fe42-178c-4c1a-99ef-256e87e3b092.jpg\",\"img/0860/18dfed73-e36b-4487-a8bd-0b8cff8e3668.jpg\"]","trial_type":"similarity","trial_index":21,"time_elapsed":209805,"internal_node_id":"0.0-6.0-15.0"},{"sim_score":2,"rt":5530,"stimulus":"[\"img/0769/3adfa417-3b90-4aab-b437-5eaa474189cb.jpg\",\"img/0875/ebf7653f-ff45-4e9f-af58-2c042ab3cd2b.jpg\"]","trial_type":"similarity","trial_index":22,"time_elapsed":216341,"internal_node_id":"0.0-6.0-16.0"},{"sim_score":1,"rt":7203,"stimulus":"[\"img/0904/9d30eff1-46ef-4453-b11e-124ef8145c00.jpg\",\"img/0866/4a87911a-d5be-4d4e-ab8e-3d1f581bf507.jpg\"]","trial_type":"similarity","trial_index":23,"time_elapsed":224550,"internal_node_id":"0.0-6.0-17.0"},{"sim_score":7,"rt":6248,"stimulus":"[\"img/0875/90da8d75-108a-44ad-b999-e21fee3860d3.jpg\",\"img/0875/e7e66b13-b573-431e-b85e-288ce04a35a3.jpg\"]","trial_type":"similarity","trial_index":24,"time_elapsed":231803,"internal_node_id":"0.0-6.0-18.0"},{"sim_score":7,"rt":5253,"stimulus":"[\"img/0758/eabcd7a8-56ad-4fd2-bc24-90f6b7b33265.jpg\",\"img/0758/e1ba5e53-addc-436a-b428-d34fc1b130dc.jpg\"]","trial_type":"similarity","trial_index":25,"time_elapsed":238061,"internal_node_id":"0.0-6.0-19.0"},{"sim_score":1,"rt":8369,"stimulus":"[\"img/0902/95a36b6b-9601-4fa5-8fd9-606ea62f9425.jpg\",\"img/0874/eba003b4-cdab-4eee-8bc3-f064c7d94165.jpg\"]","trial_type":"similarity","trial_index":26,"time_elapsed":247437,"internal_node_id":"0.0-6.0-20.0"},{"sim_score":5,"rt":5171,"stimulus":"[\"img/0764/ba0c0955-acbb-457d-b1c2-f006b88121d5.jpg\",\"img/0769/ebef2ddc-ba59-4e0e-97f8-927864eb5081.jpg\"]","trial_type":"similarity","trial_index":27,"time_elapsed":253615,"internal_node_id":"0.0-6.0-21.0"},{"sim_score":1,"rt":4773,"stimulus":"[\"img/0901/4f9cffe0-c0be-4d7f-bacd-9d51efd19b4a.jpg\",\"img/0874/99f6563c-8a8d-4c1c-a41d-667b618c3fd5.jpg\"]","trial_type":"similarity","trial_index":28,"time_elapsed":259394,"internal_node_id":"0.0-6.0-22.0"},{"sim_score":5,"rt":5176,"stimulus":"[\"img/0875/03c3c331-738b-4446-af92-3d7386b08c2e.jpg\",\"img/0903/81368973-de81-46f4-844f-b901f3bfd66d.jpg\"]","trial_type":"similarity","trial_index":29,"time_elapsed":265574,"internal_node_id":"0.0-6.0-23.0"},{"sim_score":3,"rt":5828,"stimulus":"[\"img/0769/5bd04f55-d091-4f57-85db-38426f26bd1a.jpg\",\"img/0881/0c7068da-d0d9-4103-bda1-74ef7a2b32c3.jpg\"]","trial_type":"similarity","trial_index":30,"time_elapsed":272408,"internal_node_id":"0.0-6.0-24.0"},{"sim_score":1,"rt":6144,"stimulus":"[\"img/0867/12264664-1860-46df-8c21-162b9817cdda.jpg\",\"img/0904/1d10df11-b5c8-4370-9a6b-097a7f965895.jpg\"]","trial_type":"similarity","trial_index":31,"time_elapsed":279558,"internal_node_id":"0.0-6.0-25.0"},{"sim_score":1,"rt":4961,"stimulus":"[\"img/0860/c47fdead-eb02-4989-b078-26f4852f44fe.jpg\",\"img/0881/292e9b4b-fca0-4ba8-87f1-4048f9e37b7d.jpg\"]","trial_type":"similarity","trial_index":32,"time_elapsed":285523,"internal_node_id":"0.0-6.0-26.0"},{"sim_score":6,"rt":5331,"stimulus":"[\"img/0866/c446214b-a368-4c65-ae39-ea46894256ab.jpg\",\"img/0866/a04d37f0-99dd-478a-b6c6-58b215138f84.jpg\"]","trial_type":"similarity","trial_index":33,"time_elapsed":291861,"internal_node_id":"0.0-6.0-27.0"},{"sim_score":5,"rt":5095,"stimulus":"[\"img/0764/d7f3ac54-318a-4dac-a06b-62bed34d01a4.jpg\",\"img/0862/92fcd8a4-8193-4a6a-ae09-dd4a6338b0df.jpg\"]","trial_type":"similarity","trial_index":34,"time_elapsed":297963,"internal_node_id":"0.0-6.0-28.0"},{"sim_score":1,"rt":4923,"stimulus":"[\"img/0904/0d17b811-063e-416e-a23c-3b3cfa4fcce5.jpg\",\"img/0758/53f35650-e455-4b53-8be4-c3c8271c6466.jpg\"]","trial_type":"similarity","trial_index":35,"time_elapsed":303893,"internal_node_id":"0.0-6.0-29.0"},{"sim_score":5,"rt":5196,"stimulus":"[\"img/0894/11674fa4-285d-44e2-939f-2228c6a64080.jpg\",\"img/0899/0adc0bc3-6fca-4078-be6f-d45ddf1653d5.jpg\"]","trial_type":"similarity","trial_index":36,"time_elapsed":310096,"internal_node_id":"0.0-6.0-30.0"},{"sim_score":5,"rt":5463,"stimulus":"[\"img/0860/4f695df5-afac-4da7-9875-fee39b0b24ad.jpg\",\"img/0904/b7c2a2c8-df33-4473-b3d4-ff7147c60db3.jpg\"]","trial_type":"similarity","trial_index":37,"time_elapsed":316564,"internal_node_id":"0.0-6.0-31.0"},{"sim_score":7,"rt":4745,"stimulus":"[\"img/0874/7e4f2150-3b59-4a36-b5da-a4e0ba410531.jpg\",\"img/0881/db77fe00-aeb0-4d1d-aa66-f3a96fd077e4.jpg\"]","trial_type":"similarity","trial_index":38,"time_elapsed":322315,"internal_node_id":"0.0-6.0-32.0"},{"sim_score":6,"rt":5860,"stimulus":"[\"img/0881/405484ae-0d00-4b05-bc57-6420a36adfac.jpg\",\"img/0899/06b0fc99-0581-461a-9913-d1a5a941ac61.jpg\"]","trial_type":"similarity","trial_index":39,"time_elapsed":329182,"internal_node_id":"0.0-6.0-33.0"},{"sim_score":1,"rt":4202,"stimulus":"[\"img/0866/d266fece-59b3-46fa-b69f-96f6efb81b59.jpg\",\"img/0862/00c06b00-3b73-44e9-bc1e-c5aafb438321.jpg\"]","trial_type":"similarity","trial_index":40,"time_elapsed":334392,"internal_node_id":"0.0-6.0-34.0"},{"sim_score":2,"rt":5421,"stimulus":"[\"img/0868/5fa7f9d0-f0e5-454c-8224-74d964818f56.jpg\",\"img/0894/133a1636-d123-4893-873c-1718050f832a.jpg\"]","trial_type":"similarity","trial_index":41,"time_elapsed":340818,"internal_node_id":"0.0-6.0-35.0"},{"sim_score":7,"rt":5214,"stimulus":"[\"img/0860/b03b963d-949b-4d8d-b19c-4950c89eeca2.jpg\",\"img/0860/87039971-2210-4aab-93c0-8e9b5f1655b2.jpg\"]","trial_type":"similarity","trial_index":42,"time_elapsed":347041,"internal_node_id":"0.0-6.0-36.0"},{"sim_score":5,"rt":5237,"stimulus":"[\"img/0862/5d887e9f-89e2-4ebc-80a0-6d46fe6480db.jpg\",\"img/0864/66091c27-e588-4476-8af9-265dc6be4156.jpg\"]","trial_type":"similarity","trial_index":43,"time_elapsed":353284,"internal_node_id":"0.0-6.0-37.0"},{"sim_score":1,"rt":4664,"stimulus":"[\"img/0766/2da002a4-05c9-4f5c-9ed7-433b4183e273.jpg\",\"img/0866/6f2a90d7-14f1-4f1b-bd64-fc0af6b9fe44.jpg\"]","trial_type":"similarity","trial_index":44,"time_elapsed":358954,"internal_node_id":"0.0-6.0-38.0"},{"sim_score":2,"rt":5645,"stimulus":"[\"img/0875/34132396-d896-4c2d-8087-646dd867e769.jpg\",\"img/0898/a114b375-cb89-44ba-9498-74213f1ecdee.jpg\"]","trial_type":"similarity","trial_index":45,"time_elapsed":365607,"internal_node_id":"0.0-6.0-39.0"},{"sim_score":5,"rt":5846,"stimulus":"[\"img/0766/db750ba0-ce04-46e1-b601-e1b80212bad2.jpg\",\"img/0769/a3cfbdeb-acb3-4eac-87fb-4b117f42d4f8.jpg\"]","trial_type":"similarity","trial_index":46,"time_elapsed":372460,"internal_node_id":"0.0-6.0-40.0"},{"sim_score":6,"rt":4944,"stimulus":"[\"img/0874/bf14b896-e930-4fd9-9c05-2e83317a2773.jpg\",\"img/0764/fb92924f-5cfe-4b89-b130-0cce8cc5636b.jpg\"]","trial_type":"similarity","trial_index":47,"time_elapsed":391570,"internal_node_id":"0.0-6.0-41.0"},{"sim_score":1,"rt":4943,"stimulus":"[\"img/0868/d98ca254-b195-477f-b57e-5760a2717db8.jpg\",\"img/0902/27b84584-948a-485b-8749-cb09929ef631.jpg\"]","trial_type":"similarity","trial_index":48,"time_elapsed":397519,"internal_node_id":"0.0-6.0-42.0"},{"sim_score":1,"rt":4138,"stimulus":"[\"img/0875/d59ff733-eaff-4ee2-9443-06954dd0bcb6.jpg\",\"img/0899/0433d056-aa30-4f8a-9aa1-abbb951e4edd.jpg\"]","trial_type":"similarity","trial_index":49,"time_elapsed":402663,"internal_node_id":"0.0-6.0-43.0"},{"sim_score":2,"rt":5944,"stimulus":"[\"img/0866/11a1d141-be5e-443c-98c1-a9d4d9e3dec0.jpg\",\"img/0860/94ef7afc-e0e6-4a15-98c6-0bfac82bc832.jpg\"]","trial_type":"similarity","trial_index":50,"time_elapsed":409613,"internal_node_id":"0.0-6.0-44.0"},{"sim_score":1,"rt":6086,"stimulus":"[\"img/0766/a0270213-fa0e-4972-8b56-228c3e01ff90.jpg\",\"img/0903/8f7f9939-b8e6-433f-93dd-b362496c80a7.jpg\"]","trial_type":"similarity","trial_index":51,"time_elapsed":416704,"internal_node_id":"0.0-6.0-45.0"},{"sim_score":6,"rt":5522,"stimulus":"[\"img/0901/a373612d-67e2-4fec-9764-21d3d6ef6359.jpg\",\"img/0904/4b8daf2a-13a9-4ea9-9e0b-b265b6e933e7.jpg\"]","trial_type":"similarity","trial_index":52,"time_elapsed":423232,"internal_node_id":"0.0-6.0-46.0"},{"sim_score":2,"rt":4841,"stimulus":"[\"img/0758/821c68d3-5cb0-4eae-8659-30e6263fca39.jpg\",\"img/0902/d1083f2c-5520-44ec-81a8-3f856fbf0e80.jpg\"]","trial_type":"similarity","trial_index":53,"time_elapsed":429080,"internal_node_id":"0.0-6.0-47.0"},{"sim_score":7,"rt":7400,"stimulus":"[\"img/0764/bd2eaa3e-95a9-4a59-a78e-3f81c766eea9.jpg\",\"img/0764/1f95ab5f-fb65-4d70-b5db-d6bd6351a8aa.jpg\"]","trial_type":"similarity","trial_index":54,"time_elapsed":437486,"internal_node_id":"0.0-6.0-48.0"},{"sim_score":2,"rt":5284,"stimulus":"[\"img/0866/386235d2-6857-41e7-88a8-25cfc3430025.jpg\",\"img/0902/1f4a4c62-68c1-4993-b213-05652a173ed1.jpg\"]","trial_type":"similarity","trial_index":55,"time_elapsed":443776,"internal_node_id":"0.0-6.0-49.0"},{"sim_score":1,"rt":5368,"stimulus":"[\"img/0764/f2f23359-8e82-41d3-8900-5b9f4433991d.jpg\",\"img/0758/6cd8c362-ae2a-41eb-80a3-3a4f7ace1530.jpg\"]","trial_type":"similarity","trial_index":56,"time_elapsed":450150,"internal_node_id":"0.0-6.0-50.0"},{"sim_score":3,"rt":4979,"stimulus":"[\"img/0898/4184e5a2-84ea-4f36-9b42-ae58646f6f87.jpg\",\"img/0894/b422d5c6-3c5a-49ae-a53e-7e88ac993f49.jpg\"]","trial_type":"similarity","trial_index":57,"time_elapsed":456135,"internal_node_id":"0.0-6.0-51.0"},{"sim_score":7,"rt":4202,"stimulus":"[\"img/0875/5a716432-c6ca-4b1c-955a-2b8ac25198ee.jpg\",\"img/0866/8efcaa46-83ab-4dee-a35f-850402aa21ae.jpg\"]","trial_type":"similarity","trial_index":58,"time_elapsed":461342,"internal_node_id":"0.0-6.0-52.0"},{"sim_score":7,"rt":6663,"stimulus":"[\"img/0904/6291eb43-c10c-4810-a36a-101d09868b04.jpg\",\"img/0904/4e58005d-a2ec-4aaa-b199-445343561396.jpg\"]","trial_type":"similarity","trial_index":59,"time_elapsed":469010,"internal_node_id":"0.0-6.0-53.0"},{"sim_score":7,"rt":5009,"stimulus":"[\"img/0769/c7cfacc3-7f07-46ff-9f5d-8073f4c4679b.jpg\",\"img/0769/8598a429-c671-4d2f-842c-32f681f5e412.jpg\"]","trial_type":"similarity","trial_index":60,"time_elapsed":475024,"internal_node_id":"0.0-6.0-54.0"},{"sim_score":2,"rt":4660,"stimulus":"[\"img/0898/0c7dde4f-efce-4b7a-9387-6921635b7890.jpg\",\"img/0758/d41c06bf-ebaf-454b-91c6-1a17f917b659.jpg\"]","trial_type":"similarity","trial_index":61,"time_elapsed":480690,"internal_node_id":"0.0-6.0-55.0"},{"sim_score":2,"rt":7282,"stimulus":"[\"img/0769/057eb0a0-aa5b-40c7-9852-21444f68d767.jpg\",\"img/0902/71c03003-03ef-4b0f-8229-e0c857150a5d.jpg\"]","trial_type":"similarity","trial_index":62,"time_elapsed":488980,"internal_node_id":"0.0-6.0-56.0"},{"sim_score":6,"rt":5140,"stimulus":"[\"img/0864/87c467d3-abca-482f-ad80-3766c21b1bb3.jpg\",\"img/0881/b1a136f7-8511-4d3a-a0f6-3879acf1e1a1.jpg\"]","trial_type":"similarity","trial_index":63,"time_elapsed":495127,"internal_node_id":"0.0-6.0-57.0"},{"sim_score":1,"rt":6844,"stimulus":"[\"img/0758/a709631e-3705-4725-ac40-f0d916924f08.jpg\",\"img/0868/179a5502-ab5c-478e-8263-5a1fbcc101d2.jpg\"]","trial_type":"similarity","trial_index":64,"time_elapsed":502977,"internal_node_id":"0.0-6.0-58.0"},{"sim_score":3,"rt":42168,"stimulus":"[\"img/0862/f23038d4-c366-4f70-979f-66b62362efa4.jpg\",\"img/0769/75f7e514-0548-4329-b1e4-93c05e74f038.jpg\"]","trial_type":"similarity","trial_index":65,"time_elapsed":546153,"internal_node_id":"0.0-6.0-59.0"},{"sim_score":5,"rt":210556,"stimulus":"[\"img/0764/0e7ed062-f798-4366-8a24-6f430926f919.jpg\",\"img/0903/776b74ee-a8ab-4ab8-a78d-097c0747538d.jpg\"]","trial_type":"similarity","trial_index":66,"time_elapsed":757715,"internal_node_id":"0.0-6.0-60.0"},{"sim_score":7,"rt":4643,"stimulus":"[\"img/0899/565ccdd9-0933-4536-a625-3c0e25a713dd.jpg\",\"img/0899/56a605c3-d0a2-4215-89e1-779279d85a7c.jpg\"]","trial_type":"similarity","trial_index":67,"time_elapsed":763363,"internal_node_id":"0.0-6.0-61.0"},{"sim_score":3,"rt":4954,"stimulus":"[\"img/0860/fd4662f9-4c03-4d79-8593-06735e55a64b.jpg\",\"img/0875/5a7c4e35-6514-4e12-8879-d16071da4cd6.jpg\"]","trial_type":"similarity","trial_index":68,"time_elapsed":769323,"internal_node_id":"0.0-6.0-62.0"},{"sim_score":1,"rt":4288,"stimulus":"[\"img/0868/15dd6fd7-791e-4b53-b203-195d617521a4.jpg\",\"img/0874/a82926a3-0b43-4add-803c-d5f9ea7798ee.jpg\"]","trial_type":"similarity","trial_index":69,"time_elapsed":774618,"internal_node_id":"0.0-6.0-63.0"},{"sim_score":2,"rt":7065,"stimulus":"[\"img/0758/9fb5b2fe-3f00-4fe6-973c-1ce10d5f4cd5.jpg\",\"img/0862/ad593cc7-cabe-4bb7-8e14-8a447a0717b4.jpg\"]","trial_type":"similarity","trial_index":70,"time_elapsed":782688,"internal_node_id":"0.0-6.0-64.0"},{"sim_score":6,"rt":4270,"stimulus":"[\"img/0904/a8c3c7d2-9bcf-4347-9e03-8203adfc1fc5.jpg\",\"img/0898/cd3aaa3f-efa9-4ab3-8d6f-a6a9273ddf42.jpg\"]","trial_type":"similarity","trial_index":71,"time_elapsed":787963,"internal_node_id":"0.0-6.0-65.0"},{"sim_score":3,"rt":4167,"stimulus":"[\"img/0881/d1982897-8d8d-4704-a940-1ee5d07a1f15.jpg\",\"img/0866/23a224f3-2012-4fc8-8e0f-3c36f8de27fd.jpg\"]","trial_type":"similarity","trial_index":72,"time_elapsed":793136,"internal_node_id":"0.0-6.0-66.0"},{"sim_score":5,"rt":3354,"stimulus":"[\"img/0867/db7e032f-162b-46f5-ae67-2b29679adee4.jpg\",\"img/0898/ec565187-2e31-4fdd-9a5c-153d0c789ae0.jpg\"]","trial_type":"similarity","trial_index":73,"time_elapsed":797495,"internal_node_id":"0.0-6.0-67.0"},{"sim_score":5,"rt":5529,"stimulus":"[\"img/0902/2db723b6-130f-454c-8c8d-88829edbcd65.jpg\",\"img/0764/e42c1dc9-7831-4995-be19-7ca7b4d141fc.jpg\"]","trial_type":"similarity","trial_index":74,"time_elapsed":804029,"internal_node_id":"0.0-6.0-68.0"},{"sim_score":5,"rt":4831,"stimulus":"[\"img/0875/fb732ab5-013a-4366-9f65-27811ed157e9.jpg\",\"img/0867/26611f4e-d694-4460-b7e2-43c62753ddc3.jpg\"]","trial_type":"similarity","trial_index":75,"time_elapsed":809865,"internal_node_id":"0.0-6.0-69.0"},{"sim_score":5,"rt":4060,"stimulus":"[\"img/0766/aaec5f42-7f0a-4a16-aeca-488d757acbcc.jpg\",\"img/0764/6c7fe363-2d37-418f-9e5e-a3273af5d4fb.jpg\"]","trial_type":"similarity","trial_index":76,"time_elapsed":814931,"internal_node_id":"0.0-6.0-70.0"},{"sim_score":3,"rt":5193,"stimulus":"[\"img/0894/e6385e52-6c35-43bd-b0af-bc803d107b11.jpg\",\"img/0867/c66898ba-b71b-4d50-84f9-f7f84853a98d.jpg\"]","trial_type":"similarity","trial_index":77,"time_elapsed":821130,"internal_node_id":"0.0-6.0-71.0"},{"sim_score":2,"rt":4200,"stimulus":"[\"img/0875/f87b67d7-c33e-40d1-b281-248c4be1cb6e.jpg\",\"img/0764/cbdc4f20-3a9a-4211-9b40-090699e0abcc.jpg\"]","trial_type":"similarity","trial_index":78,"time_elapsed":826335,"internal_node_id":"0.0-6.0-72.0"},{"sim_score":7,"rt":2920,"stimulus":"[\"img/0867/50a1b60e-3a29-44bf-b606-d4bd3746fea9.jpg\",\"img/0866/9b38d691-1802-4959-ab3f-fc902f0e4ea6.jpg\"]","trial_type":"similarity","trial_index":79,"time_elapsed":830260,"internal_node_id":"0.0-6.0-73.0"},{"sim_score":1,"rt":5800,"stimulus":"[\"img/0903/5995f4a8-fa82-46f8-8760-fd7800a5ca34.jpg\",\"img/0758/b76ceca7-95ac-46e4-ac13-da02c8e93be9.jpg\"]","trial_type":"similarity","trial_index":80,"time_elapsed":837066,"internal_node_id":"0.0-6.0-74.0"},{"sim_score":1,"rt":3418,"stimulus":"[\"img/0766/fd064894-7147-4af5-97e9-2089d5472656.jpg\",\"img/0868/e0aff734-077f-40dd-9781-74821abd3621.jpg\"]","trial_type":"similarity","trial_index":81,"time_elapsed":841490,"internal_node_id":"0.0-6.0-75.0"},{"sim_score":6,"rt":4869,"stimulus":"[\"img/0874/a3bc679d-619f-4db6-bb68-116dcb757d9c.jpg\",\"img/0766/33aa9ebb-c9f5-418f-8c8b-c77861889568.jpg\"]","trial_type":"similarity","trial_index":82,"time_elapsed":847366,"internal_node_id":"0.0-6.0-76.0"},{"sim_score":1,"rt":3299,"stimulus":"[\"img/0881/6b1189e6-232d-4042-8885-16dc7b10e0d4.jpg\",\"img/0868/7b212364-ff5f-4e28-9241-7eb6ea00161b.jpg\"]","trial_type":"similarity","trial_index":83,"time_elapsed":851671,"internal_node_id":"0.0-6.0-77.0"},{"sim_score":1,"rt":3383,"stimulus":"[\"img/0758/2fa3e613-e676-4e6e-bd12-705327eeb3e1.jpg\",\"img/0901/b13fa50f-dbe0-4d0f-8647-6ac0fd8f40bd.jpg\"]","trial_type":"similarity","trial_index":84,"time_elapsed":856061,"internal_node_id":"0.0-6.0-78.0"},{"sim_score":2,"rt":5609,"stimulus":"[\"img/0881/445edb15-bd7f-4af3-8bd5-c6ad9677bb31.jpg\",\"img/0898/a8f16b02-e19f-423b-86c3-a36562ae1f9b.jpg\"]","trial_type":"similarity","trial_index":85,"time_elapsed":862677,"internal_node_id":"0.0-6.0-79.0"},{"sim_score":1,"rt":2833,"stimulus":"[\"img/0867/075e0f95-856b-4cbb-acf5-092393aaf04e.jpg\",\"img/0758/a085b443-b5d7-4cb2-9ad4-b9dab0fc23f1.jpg\"]","trial_type":"similarity","trial_index":86,"time_elapsed":866516,"internal_node_id":"0.0-6.0-80.0"},{"sim_score":5,"rt":4189,"stimulus":"[\"img/0769/458d9c77-b844-40b5-bb1b-1e3bbd4da64e.jpg\",\"img/0899/ad8268c5-8199-48d0-ad70-c5b6d6c599ec.jpg\"]","trial_type":"similarity","trial_index":87,"time_elapsed":871711,"internal_node_id":"0.0-6.0-81.0"},{"sim_score":7,"rt":2691,"stimulus":"[\"img/0903/150cf64c-0bd2-4674-abbb-a1387cf1f3e9.jpg\",\"img/0903/0fb24af7-9a26-4e9d-aadc-959a36f683e2.jpg\"]","trial_type":"similarity","trial_index":88,"time_elapsed":875408,"internal_node_id":"0.0-6.0-82.0"},{"sim_score":2,"rt":4877,"stimulus":"[\"img/0867/2e1a0b58-cdb1-4107-a14e-452530d7b9b0.jpg\",\"img/0766/e8052e17-9dae-4139-802b-6e590cb2d526.jpg\"]","trial_type":"similarity","trial_index":89,"time_elapsed":889300,"internal_node_id":"0.0-6.0-83.0"},{"sim_score":1,"rt":3897,"stimulus":"[\"img/0902/d3e55000-c839-4bf9-9b9b-4af0a9925af1.jpg\",\"img/0867/f8488a47-94ee-4166-952c-44e16cf172f6.jpg\"]","trial_type":"similarity","trial_index":90,"time_elapsed":894203,"internal_node_id":"0.0-6.0-84.0"},{"sim_score":1,"rt":3440,"stimulus":"[\"img/0901/b123d109-47b4-4f9a-80c9-9bb16da42efa.jpg\",\"img/0875/8521fd58-3b1e-4dc5-97ae-804edfa6734a.jpg\"]","trial_type":"similarity","trial_index":91,"time_elapsed":898649,"internal_node_id":"0.0-6.0-85.0"},{"sim_score":1,"rt":4931,"stimulus":"[\"img/0764/4952d0a0-c9be-471a-8ec7-94a37bf4051d.jpg\",\"img/0866/620cd1aa-0800-4414-8f6e-90342e7a99ad.jpg\"]","trial_type":"similarity","trial_index":92,"time_elapsed":904586,"internal_node_id":"0.0-6.0-86.0"},{"sim_score":1,"rt":2869,"stimulus":"[\"img/0901/5657dd86-0ff9-4753-ba2b-9dfb223e5c89.jpg\",\"img/0894/7fb082e0-ce79-485c-9109-04367fb32275.jpg\"]","trial_type":"similarity","trial_index":93,"time_elapsed":908460,"internal_node_id":"0.0-6.0-87.0"},{"sim_score":5,"rt":3142,"stimulus":"[\"img/0898/04e39a7a-fcf6-4156-ab0e-f5871f335e1c.jpg\",\"img/0769/180213e5-1e50-4b4e-87b6-add77ba04d39.jpg\"]","trial_type":"similarity","trial_index":94,"time_elapsed":912608,"internal_node_id":"0.0-6.0-88.0"},{"sim_score":7,"rt":4244,"stimulus":"[\"img/0769/47700831-0ca2-4fdd-a498-a3bc5a528f43.jpg\",\"img/0894/1a010553-d598-4b06-a772-81f1e7b3addb.jpg\"]","trial_type":"similarity","trial_index":95,"time_elapsed":917858,"internal_node_id":"0.0-6.0-89.0"},{"sim_score":5,"rt":3908,"stimulus":"[\"img/0862/064818ee-13d5-4618-bb24-21c7368ea278.jpg\",\"img/0874/ca23d307-fc00-4d7d-9106-584c6eb21b4d.jpg\"]","trial_type":"similarity","trial_index":96,"time_elapsed":922772,"internal_node_id":"0.0-6.0-90.0"},{"sim_score":2,"rt":4999,"stimulus":"[\"img/0894/767a0eec-1064-46b1-b1aa-dfa02b0cd74e.jpg\",\"img/0766/1bc0dccc-a5b5-4375-87fa-28360ca42b12.jpg\"]","trial_type":"similarity","trial_index":97,"time_elapsed":928776,"internal_node_id":"0.0-6.0-91.0"},{"sim_score":1,"rt":2846,"stimulus":"[\"img/0874/8cdb1c07-1c32-46d2-981c-3636560fa6e5.jpg\",\"img/0867/85a96c62-548f-4994-9553-819e03c3135a.jpg\"]","trial_type":"similarity","trial_index":98,"time_elapsed":932627,"internal_node_id":"0.0-6.0-92.0"},{"sim_score":2,"rt":11546,"stimulus":"[\"img/0899/57476fed-5962-4272-8fc9-b317bb777b54.jpg\",\"img/0868/c8ac40c7-6904-4e13-8d61-c75d3052dc4e.jpg\"]","trial_type":"similarity","trial_index":99,"time_elapsed":945178,"internal_node_id":"0.0-6.0-93.0"},{"sim_score":6,"rt":4096,"stimulus":"[\"img/0903/5ea5bbe0-f238-4724-abe7-9ed8dee8c0ba.jpg\",\"img/0862/7918ca67-5bd3-4606-a5ea-c39fb11a9297.jpg\"]","trial_type":"similarity","trial_index":100,"time_elapsed":950281,"internal_node_id":"0.0-6.0-94.0"},{"sim_score":5,"rt":4247,"stimulus":"[\"img/0899/8abe6c69-822c-436c-9bf2-96c818b49ba5.jpg\",\"img/0766/d5d38751-8fa5-476f-93e9-86ed2d9045ef.jpg\"]","trial_type":"similarity","trial_index":101,"time_elapsed":955532,"internal_node_id":"0.0-6.0-95.0"},{"sim_score":7,"rt":4290,"stimulus":"[\"img/0867/a498eef3-9fa4-4ab2-9778-4ae82ac40dc5.jpg\",\"img/0868/0d3abd3a-b6c3-4584-a9f7-e2da63748b3d.jpg\"]","trial_type":"similarity","trial_index":102,"time_elapsed":960828,"internal_node_id":"0.0-6.0-96.0"},{"sim_score":3,"rt":3262,"stimulus":"[\"img/0862/ee3b7bff-4a70-4e84-9bea-4a565e456acb.jpg\",\"img/0901/c6df1a21-44ed-47c2-960e-7c52220e329e.jpg\"]","trial_type":"similarity","trial_index":103,"time_elapsed":965095,"internal_node_id":"0.0-6.0-97.0"},{"sim_score":1,"rt":5057,"stimulus":"[\"img/0875/dbdd643e-6d0e-4a5c-ab57-b9c29b9c981a.jpg\",\"img/0766/f3276cc4-65de-4c2d-88d5-6cfebce14b8f.jpg\"]","trial_type":"similarity","trial_index":104,"time_elapsed":971157,"internal_node_id":"0.0-6.0-98.0"},{"sim_score":3,"rt":4326,"stimulus":"[\"img/0758/d57c2592-a317-4f63-91be-91a3a9afd222.jpg\",\"img/0874/93d1f8dc-acf2-4f03-bd8d-8ec35df276ed.jpg\"]","trial_type":"similarity","trial_index":105,"time_elapsed":976489,"internal_node_id":"0.0-6.0-99.0"},{"sim_score":3,"rt":4030,"stimulus":"[\"img/0904/2c98dc56-88d1-4fb5-a999-b6a7861f65f0.jpg\",\"img/0868/fd307a36-9a3a-47d7-ab7c-f810d0b35040.jpg\"]","trial_type":"similarity","trial_index":106,"time_elapsed":981525,"internal_node_id":"0.0-6.0-100.0"},{"sim_score":1,"rt":4318,"stimulus":"[\"img/0903/72197c2b-403e-4a26-b391-f1aa8dea4b76.jpg\",\"img/0866/945c6710-d15b-4a5b-a8f6-69af0850357f.jpg\"]","trial_type":"similarity","trial_index":107,"time_elapsed":986849,"internal_node_id":"0.0-6.0-101.0"},{"sim_score":1,"rt":5062,"stimulus":"[\"img/0868/09a9ef4d-d000-4cfa-a6aa-ebec7c2edeb4.jpg\",\"img/0769/aad494cc-674d-4a08-9bfa-24a88ebe3c79.jpg\"]","trial_type":"similarity","trial_index":108,"time_elapsed":992917,"internal_node_id":"0.0-6.0-102.0"},{"sim_score":5,"rt":4271,"stimulus":"[\"img/0902/40d0b6ec-3907-4573-b227-e7d8e9cad1c3.jpg\",\"img/0899/93494f3b-d539-4075-b027-d82e344563da.jpg\"]","trial_type":"similarity","trial_index":109,"time_elapsed":998194,"internal_node_id":"0.0-6.0-103.0"},{"sim_score":1,"rt":4252,"stimulus":"[\"img/0868/4e626425-63c8-484a-8a1d-e66ee4e0bef8.jpg\",\"img/0862/d0ca4c78-fc35-46ed-bdcc-8e124283c53e.jpg\"]","trial_type":"similarity","trial_index":110,"time_elapsed":1003451,"internal_node_id":"0.0-6.0-104.0"},{"sim_score":3,"rt":4549,"stimulus":"[\"img/0903/f67c4ab9-f8c2-4fcd-848a-a54a7b031002.jpg\",\"img/0894/3adef67d-7676-4995-80b2-bb31b8aca3ef.jpg\"]","trial_type":"similarity","trial_index":111,"time_elapsed":1009006,"internal_node_id":"0.0-6.0-105.0"},{"sim_score":5,"rt":4810,"stimulus":"[\"img/0864/ea327690-500b-4137-bf91-451b309fe6a5.jpg\",\"img/0874/31e22c7c-99aa-40b1-bf03-dd73fa2df4d6.jpg\"]","trial_type":"similarity","trial_index":112,"time_elapsed":1014822,"internal_node_id":"0.0-6.0-106.0"},{"sim_score":6,"rt":4714,"stimulus":"[\"img/0862/4f0a3b4c-afbf-486e-b248-1d54982f54b4.jpg\",\"img/0902/04a6ad4a-afc6-4871-8225-56b299af7b6b.jpg\"]","trial_type":"similarity","trial_index":113,"time_elapsed":1020542,"internal_node_id":"0.0-6.0-107.0"},{"sim_score":6,"rt":5110,"stimulus":"[\"img/0904/2f88ce53-02d0-4f95-a082-182c56a0eeb4.jpg\",\"img/0903/f1fa0f8d-e62b-4b4a-a174-31a0fabfe61b.jpg\"]","trial_type":"similarity","trial_index":114,"time_elapsed":1026657,"internal_node_id":"0.0-6.0-108.0"},{"sim_score":4,"rt":4829,"stimulus":"[\"img/0764/3297a811-ea8b-4d74-9547-59cecab7293a.jpg\",\"img/0864/c3b63e8f-ea39-4d70-a1f2-b3fe4be8eb75.jpg\"]","trial_type":"similarity","trial_index":115,"time_elapsed":1032492,"internal_node_id":"0.0-6.0-109.0"},{"sim_score":5,"rt":4353,"stimulus":"[\"img/0866/d493a2c8-66eb-44b4-be02-2f327b700b7c.jpg\",\"img/0894/6b2e9509-8699-42b7-9582-7741df0ba2d7.jpg\"]","trial_type":"similarity","trial_index":116,"time_elapsed":1037851,"internal_node_id":"0.0-6.0-110.0"},{"sim_score":6,"rt":3330,"stimulus":"[\"img/0899/fd9efb43-701f-4cd6-baaa-4c38315f4bdc.jpg\",\"img/0903/39365c8e-a733-4801-ac7d-b87e38c3784b.jpg\"]","trial_type":"similarity","trial_index":117,"time_elapsed":1042187,"internal_node_id":"0.0-6.0-111.0"},{"sim_score":5,"rt":4162,"stimulus":"[\"img/0902/168ebd47-9e82-4ab7-a18b-c3da85072db8.jpg\",\"img/0904/09dac84f-3d1c-4445-a68e-d0389fdbf1e9.jpg\"]","trial_type":"similarity","trial_index":118,"time_elapsed":1047355,"internal_node_id":"0.0-6.0-112.0"},{"sim_score":2,"rt":4238,"stimulus":"[\"img/0864/da39ad34-04e0-40d4-a724-c08d53e0ea09.jpg\",\"img/0860/c3379ff7-0763-48fe-a1ec-7ea3d611bc7a.jpg\"]","trial_type":"similarity","trial_index":119,"time_elapsed":1052598,"internal_node_id":"0.0-6.0-113.0"},{"sim_score":1,"rt":5096,"stimulus":"[\"img/0860/4a022222-056d-461c-ab02-39fac9647552.jpg\",\"img/0899/00715b3f-851b-420b-a26b-d7f79f7759a9.jpg\"]","trial_type":"similarity","trial_index":120,"time_elapsed":1058700,"internal_node_id":"0.0-6.0-114.0"},{"sim_score":3,"rt":4655,"stimulus":"[\"img/0881/ee44e27f-d662-4608-b265-e7ffa19b216f.jpg\",\"img/0903/3e9ee8a5-eb66-47f5-8973-8a5af1ddc87e.jpg\"]","trial_type":"similarity","trial_index":121,"time_elapsed":1064360,"internal_node_id":"0.0-6.0-115.0"},{"sim_score":6,"rt":4974,"stimulus":"[\"img/0894/5a49e858-2850-4892-9a06-e9f0efb5f94d.jpg\",\"img/0874/29830da7-be5f-44e5-b141-652a0ccf7269.jpg\"]","trial_type":"similarity","trial_index":122,"time_elapsed":1070340,"internal_node_id":"0.0-6.0-116.0"},{"sim_score":3,"rt":5161,"stimulus":"[\"img/0881/4bd34581-94d8-4e88-8c89-5cef864ca3be.jpg\",\"img/0862/99a99e39-8355-44ec-b993-e7bcec111e1c.jpg\"]","trial_type":"similarity","trial_index":123,"time_elapsed":1076508,"internal_node_id":"0.0-6.0-117.0"},{"sim_score":5,"rt":4671,"stimulus":"[\"img/0868/4bd5105a-d2c3-4f82-8c80-57196106ba53.jpg\",\"img/0875/cff79b3a-a797-4393-9757-6275f999ec04.jpg\"]","trial_type":"similarity","trial_index":124,"time_elapsed":1082188,"internal_node_id":"0.0-6.0-118.0"},{"sim_score":1,"rt":3165,"stimulus":"[\"img/0860/d9a0d117-6d1d-41c0-8fec-9aff0fd9e9f2.jpg\",\"img/0758/61d64021-9214-4951-bdf8-f871f9827cf9.jpg\"]","trial_type":"similarity","trial_index":125,"time_elapsed":1086359,"internal_node_id":"0.0-6.0-119.0"},{"sim_score":2,"rt":3495,"stimulus":"[\"img/0864/6f631579-acf1-415c-a42c-1207f62a8d99.jpg\",\"img/0875/42910c99-5463-450a-a0f8-d4d060a11455.jpg\"]","trial_type":"similarity","trial_index":126,"time_elapsed":1090862,"internal_node_id":"0.0-6.0-120.0"},{"sim_score":2,"rt":3420,"stimulus":"[\"img/0898/6cd3830b-d44e-4915-be2b-88d31424b91c.jpg\",\"img/0866/f756f7d1-9ad8-4a34-9ef6-7a443d705bfe.jpg\"]","trial_type":"similarity","trial_index":127,"time_elapsed":1095287,"internal_node_id":"0.0-6.0-121.0"},{"sim_score":2,"rt":3936,"stimulus":"[\"img/0874/ca76a855-4e77-4f2f-872a-0a718153e7ed.jpg\",\"img/0904/25365108-e038-4021-aac9-797f2063b337.jpg\"]","trial_type":"similarity","trial_index":128,"time_elapsed":1100228,"internal_node_id":"0.0-6.0-122.0"},{"sim_score":6,"rt":3508,"stimulus":"[\"img/0904/b5855d6a-7ef9-46ca-9215-6e9fa046e543.jpg\",\"img/0864/8ddd2e30-a1d0-479f-9cbe-591213023893.jpg\"]","trial_type":"similarity","trial_index":129,"time_elapsed":1104741,"internal_node_id":"0.0-6.0-123.0"},{"sim_score":5,"rt":3813,"stimulus":"[\"img/0894/43216a7f-27bc-4b5a-8841-d122a30da9d9.jpg\",\"img/0902/6730b12a-f0a7-4587-8c10-a32fae16565b.jpg\"]","trial_type":"similarity","trial_index":130,"time_elapsed":1109561,"internal_node_id":"0.0-6.0-124.0"},{"sim_score":3,"rt":5287,"stimulus":"[\"img/0868/1a62b2b2-18f5-466e-b564-5176a57c565e.jpg\",\"img/0864/f92649a2-0590-4d31-9a7a-1bfb81666a2d.jpg\"]","trial_type":"similarity","trial_index":131,"time_elapsed":2857734,"internal_node_id":"0.0-6.0-125.0"},{"sim_score":1,"rt":5199,"stimulus":"[\"img/0899/66ab3178-c3fe-4455-ad17-d5952b08e018.jpg\",\"img/0866/bf14b5bd-fb55-47db-86b9-4f8aeb9a6dad.jpg\"]","trial_type":"similarity","trial_index":132,"time_elapsed":2863941,"internal_node_id":"0.0-6.0-126.0"},{"sim_score":1,"rt":5364,"stimulus":"[\"img/0875/2c361b79-c3d1-4eda-812e-bf03192407bf.jpg\",\"img/0904/5aec2708-cf14-4a58-aa30-9a8a61c1be0e.jpg\"]","trial_type":"similarity","trial_index":133,"time_elapsed":2870311,"internal_node_id":"0.0-6.0-127.0"},{"sim_score":1,"rt":5650,"stimulus":"[\"img/0867/a749dddb-69f0-44a6-acdc-2bf295cf6dcc.jpg\",\"img/0899/66bf4113-ee12-426c-84d2-ea410b6c803e.jpg\"]","trial_type":"similarity","trial_index":134,"time_elapsed":2876968,"internal_node_id":"0.0-6.0-128.0"},{"sim_score":2,"rt":4948,"stimulus":"[\"img/0901/1b86f2fc-7a1d-4aa8-9252-114f92edef3b.jpg\",\"img/0867/de92135f-5b65-4ed9-b245-188292c7c2f8.jpg\"]","trial_type":"similarity","trial_index":135,"time_elapsed":2882925,"internal_node_id":"0.0-6.0-129.0"},{"sim_score":3,"rt":4324,"stimulus":"[\"img/0864/9b2490c5-a282-400a-9736-e1a0ecbf1cb7.jpg\",\"img/0769/96556ef3-7fac-4c9d-8281-1cb0ea5081bc.jpg\"]","trial_type":"similarity","trial_index":136,"time_elapsed":2888255,"internal_node_id":"0.0-6.0-130.0"},{"sim_score":2,"rt":4333,"stimulus":"[\"img/0903/59defeb8-98bd-4570-a2f8-9bd189e68ef4.jpg\",\"img/0868/77091fc7-a590-4ebb-b915-fdb2483a2399.jpg\"]","trial_type":"similarity","trial_index":137,"time_elapsed":2893593,"internal_node_id":"0.0-6.0-131.0"},{"sim_score":1,"rt":3560,"stimulus":"[\"img/0864/efcfbb1b-8197-44c9-b723-40d6c608dd3c.jpg\",\"img/0867/f26f6b60-f772-4f4c-95a4-addc62cfd692.jpg\"]","trial_type":"similarity","trial_index":138,"time_elapsed":2898159,"internal_node_id":"0.0-6.0-132.0"},{"sim_score":6,"rt":4191,"stimulus":"[\"img/0901/7d4a3388-488d-4e9b-9d32-9d0def7aae8d.jpg\",\"img/0860/4c530c3c-6aab-492a-94d1-9c01797bde40.jpg\"]","trial_type":"similarity","trial_index":139,"time_elapsed":2903356,"internal_node_id":"0.0-6.0-133.0"},{"sim_score":5,"rt":3130,"stimulus":"[\"img/0881/f62bdcd1-a4b7-4d48-83da-d9c9e01c8727.jpg\",\"img/0766/ea09dd5a-d24d-4e97-a099-7da3db1baef1.jpg\"]","trial_type":"similarity","trial_index":140,"time_elapsed":2907492,"internal_node_id":"0.0-6.0-134.0"},{"sim_score":3,"rt":4510,"stimulus":"[\"img/0903/97a42b34-5462-4665-88c7-83c014b33d24.jpg\",\"img/0864/65210d57-1153-4657-886a-32e758f49b4a.jpg\"]","trial_type":"similarity","trial_index":141,"time_elapsed":2913008,"internal_node_id":"0.0-6.0-135.0"},{"sim_score":1,"rt":4872,"stimulus":"[\"img/0758/e38fd80d-18d0-42f3-b848-f930788e8bd7.jpg\",\"img/0894/1b3888e6-cf36-4c4a-a039-187aa5cb71ac.jpg\"]","trial_type":"similarity","trial_index":142,"time_elapsed":2918886,"internal_node_id":"0.0-6.0-136.0"},{"sim_score":3,"rt":5668,"stimulus":"[\"img/0769/9ea27d61-3d55-418c-8d14-82e90f656f01.jpg\",\"img/0860/99c589b9-9140-4d17-90c0-b344323edcda.jpg\"]","trial_type":"similarity","trial_index":143,"time_elapsed":2925559,"internal_node_id":"0.0-6.0-137.0"},{"sim_score":5,"rt":4671,"stimulus":"[\"img/0904/fe746a3f-8458-48d0-8a13-8cba2a9df9f8.jpg\",\"img/0766/33519c22-aaa4-49d7-8d49-ab551db1945e.jpg\"]","trial_type":"similarity","trial_index":144,"time_elapsed":2931236,"internal_node_id":"0.0-6.0-138.0"},{"sim_score":2,"rt":4496,"stimulus":"[\"img/0868/83b4350a-3b70-4cea-b7f5-b5b56f3050a8.jpg\",\"img/0860/8277806e-b684-4474-8f7b-3fca946d7d4f.jpg\"]","trial_type":"similarity","trial_index":145,"time_elapsed":2936739,"internal_node_id":"0.0-6.0-139.0"},{"sim_score":6,"rt":4090,"stimulus":"[\"img/0758/65d426d6-3ff6-415d-8654-a43b83ecc4fe.jpg\",\"img/0864/0f537697-a314-47c3-a8cc-8df23b7e536c.jpg\"]","trial_type":"similarity","trial_index":146,"time_elapsed":2941836,"internal_node_id":"0.0-6.0-140.0"},{"sim_score":7,"rt":3189,"stimulus":"[\"img/0867/5e07b34d-b40f-4b1c-ac10-49975bace45f.jpg\",\"img/0867/aa05d113-fc19-4756-a8eb-7878f580bc92.jpg\"]","trial_type":"similarity","trial_index":147,"time_elapsed":2946031,"internal_node_id":"0.0-6.0-141.0"},{"sim_score":7,"rt":3761,"stimulus":"[\"img/0898/26c41340-15bd-4ead-8fe4-c0d0ddca09c2.jpg\",\"img/0898/993d8f2d-bef7-4251-a193-0f93a32b7763.jpg\"]","trial_type":"similarity","trial_index":148,"time_elapsed":2950797,"internal_node_id":"0.0-6.0-142.0"},{"sim_score":5,"rt":4159,"stimulus":"[\"img/0866/a15b02be-11bb-43e3-b0e0-ecc3bd7dfc49.jpg\",\"img/0769/d1be2815-fa79-46e8-b5c3-7d81caaca490.jpg\"]","trial_type":"similarity","trial_index":149,"time_elapsed":2955962,"internal_node_id":"0.0-6.0-143.0"},{"sim_score":3,"rt":3970,"stimulus":"[\"img/0860/8a92e21b-6a32-4e4a-a445-2d5a487ed0a4.jpg\",\"img/0898/68476bbb-34a1-42d9-8bc1-deab783d4489.jpg\"]","trial_type":"similarity","trial_index":150,"time_elapsed":2960937,"internal_node_id":"0.0-6.0-144.0"},{"sim_score":5,"rt":4723,"stimulus":"[\"img/0766/d8221e53-2300-4d99-ae1b-0bfb0eabe579.jpg\",\"img/0864/1d15626a-2f7c-410f-819c-0fa2c967e95e.jpg\"]","trial_type":"similarity","trial_index":151,"time_elapsed":2966665,"internal_node_id":"0.0-6.0-145.0"},{"sim_score":6,"rt":3415,"stimulus":"[\"img/0860/31ff6436-98bf-4652-bed2-40f627229568.jpg\",\"img/0903/5248eedd-7e6a-4d39-91b0-06ec227f3ed0.jpg\"]","trial_type":"similarity","trial_index":152,"time_elapsed":2971086,"internal_node_id":"0.0-6.0-146.0"},{"sim_score":3,"rt":4717,"stimulus":"[\"img/0867/c71dc569-f49c-4397-8381-68b8d726736d.jpg\",\"img/0764/e30dba15-e68a-4659-89db-e1654b52fe02.jpg\"]","trial_type":"similarity","trial_index":153,"time_elapsed":2976809,"internal_node_id":"0.0-6.0-147.0"},{"sim_score":7,"rt":5086,"stimulus":"[\"img/0769/1afb527f-9887-428c-bd26-a12c2f9efb68.jpg\",\"img/0904/9b3568cc-3cf7-42be-9df3-fdafde7a58b8.jpg\"]","trial_type":"similarity","trial_index":154,"time_elapsed":2982901,"internal_node_id":"0.0-6.0-148.0"},{"sim_score":3,"rt":4622,"stimulus":"[\"img/0764/5d83b9db-3b2b-4dc8-9bd1-2b515b19c858.jpg\",\"img/0901/b9141736-3041-4385-a586-b1fe911c76a5.jpg\"]","trial_type":"similarity","trial_index":155,"time_elapsed":2988529,"internal_node_id":"0.0-6.0-149.0"},{"sim_score":7,"rt":5502,"stimulus":"[\"img/0904/96e503ea-6630-4996-85f2-0237688ce441.jpg\",\"img/0899/a048912c-b12c-40e3-90af-46b69b0cc4fe.jpg\"]","trial_type":"similarity","trial_index":156,"time_elapsed":2995036,"internal_node_id":"0.0-6.0-150.0"},{"sim_score":2,"rt":5039,"stimulus":"[\"img/0862/53a9cf7c-93c4-41b9-952f-07d17f7a17b2.jpg\",\"img/0867/7d1c497b-c1b3-4ed8-abb5-d7f73306015f.jpg\"]","trial_type":"similarity","trial_index":157,"time_elapsed":3001079,"internal_node_id":"0.0-6.0-151.0"},{"sim_score":7,"rt":5197,"stimulus":"[\"img/0766/51d3aab4-3d09-4dda-b99d-3dc7aaabc6f2.jpg\",\"img/0766/00891401-e4c9-4ce1-bc19-f70740d174bc.jpg\"]","trial_type":"similarity","trial_index":158,"time_elapsed":3007283,"internal_node_id":"0.0-6.0-152.0"},{"sim_score":2,"rt":6363,"stimulus":"[\"img/0862/92f0146c-20c4-482e-aef5-adb693790338.jpg\",\"img/0894/7dd6ff43-f8fc-408a-8a41-a2b261871820.jpg\"]","trial_type":"similarity","trial_index":159,"time_elapsed":3014653,"internal_node_id":"0.0-6.0-153.0"},{"sim_score":2,"rt":5967,"stimulus":"[\"img/0899/9de5e857-aa9a-4e0c-8ba2-46d79bd069a4.jpg\",\"img/0901/1ede21d9-384f-4150-86b5-e1c57b5dc1d4.jpg\"]","trial_type":"similarity","trial_index":160,"time_elapsed":3021627,"internal_node_id":"0.0-6.0-154.0"},{"sim_score":6,"rt":3731,"stimulus":"[\"img/0874/c0378dac-9370-439a-8b79-db27c96fb390.jpg\",\"img/0874/767f289c-9814-4496-803f-745cc8913d1f.jpg\"]","trial_type":"similarity","trial_index":161,"time_elapsed":3026363,"internal_node_id":"0.0-6.0-155.0"},{"sim_score":5,"rt":4345,"stimulus":"[\"img/0860/71e1aad0-2cdf-43bb-94a4-a8c016997c30.jpg\",\"img/0867/f8159067-056c-41f1-a136-c529fe5e970a.jpg\"]","trial_type":"similarity","trial_index":162,"time_elapsed":3031713,"internal_node_id":"0.0-6.0-156.0"},{"sim_score":2,"rt":4520,"stimulus":"[\"img/0901/a0d65c84-3f20-476a-92d1-0c01e8019cf4.jpg\",\"img/0881/344de456-b358-4887-bd0e-e4c3278af887.jpg\"]","trial_type":"similarity","trial_index":163,"time_elapsed":3037240,"internal_node_id":"0.0-6.0-157.0"},{"sim_score":6,"rt":4388,"stimulus":"[\"img/0903/43ffd882-077a-40dd-a264-e58d519420a1.jpg\",\"img/0902/62f11694-7ed7-4cb7-8a73-9e95c43824e7.jpg\"]","trial_type":"similarity","trial_index":164,"time_elapsed":3042634,"internal_node_id":"0.0-6.0-158.0"},{"sim_score":3,"rt":5076,"stimulus":"[\"img/0860/e14d67c1-6d92-4f1e-9257-c8607159c19c.jpg\",\"img/0764/da207710-e7e4-4f42-b2e6-99b5f357f433.jpg\"]","trial_type":"similarity","trial_index":165,"time_elapsed":3048715,"internal_node_id":"0.0-6.0-159.0"},{"sim_score":2,"rt":5489,"stimulus":"[\"img/0902/b76efc44-a50f-4dac-b997-ff0222376067.jpg\",\"img/0875/2e13d160-eea1-416b-aff1-d37ab99ecc1d.jpg\"]","trial_type":"similarity","trial_index":166,"time_elapsed":3055210,"internal_node_id":"0.0-6.0-160.0"},{"sim_score":2,"rt":4677,"stimulus":"[\"img/0898/881e2a85-d5c2-49be-a0c6-8a6ce2c4af08.jpg\",\"img/0862/e697469a-ec19-4414-b972-7b9f3564785b.jpg\"]","trial_type":"similarity","trial_index":167,"time_elapsed":3060896,"internal_node_id":"0.0-6.0-161.0"},{"sim_score":1,"rt":4091,"stimulus":"[\"img/0894/e2446cf5-cd48-486a-badc-76498e087fbe.jpg\",\"img/0875/99698b4d-b4a1-44bc-8c83-8ea755bbbf61.jpg\"]","trial_type":"similarity","trial_index":168,"time_elapsed":3065993,"internal_node_id":"0.0-6.0-162.0"},{"sim_score":1,"rt":3628,"stimulus":"[\"img/0866/0207e9a2-7dbb-40b5-9459-b472aaeceb2a.jpg\",\"img/0864/3651d070-2fc5-4848-b6a6-088a2d9ac5c9.jpg\"]","trial_type":"similarity","trial_index":169,"time_elapsed":3070627,"internal_node_id":"0.0-6.0-163.0"},{"sim_score":2,"rt":4712,"stimulus":"[\"img/0766/27f54113-8561-4568-9ffe-0a1650ae65ec.jpg\",\"img/0862/e8cc3bdf-cc43-4565-bccf-492626c70953.jpg\"]","trial_type":"similarity","trial_index":170,"time_elapsed":3076344,"internal_node_id":"0.0-6.0-164.0"},{"sim_score":1,"rt":4921,"stimulus":"[\"img/0866/be24ab58-230e-4db8-9f45-ff04c9aec6bb.jpg\",\"img/0874/2c9464dd-8a23-4baa-ac94-1ba3af5c15cc.jpg\"]","trial_type":"similarity","trial_index":171,"time_elapsed":3082270,"internal_node_id":"0.0-6.0-165.0"},{"sim_score":5,"rt":3920,"stimulus":"[\"img/0862/de9ad88c-b522-430a-8ee9-eb06a9f85df5.jpg\",\"img/0860/c5ccd1a4-4bb7-48e1-9b25-72cfaf06909b.jpg\"]","trial_type":"similarity","trial_index":172,"time_elapsed":3087196,"internal_node_id":"0.0-6.0-166.0"},{"sim_score":3,"rt":4132,"stimulus":"[\"img/0766/0b48f9e0-7d37-4161-8adb-4e3f5b6b7583.jpg\",\"img/0901/443f2e59-199b-4f7b-9de9-c44ad97326a5.jpg\"]","trial_type":"similarity","trial_index":173,"time_elapsed":3094118,"internal_node_id":"0.0-6.0-167.0"},{"sim_score":7,"rt":4044,"stimulus":"[\"img/0862/fad1d7c1-8187-43c3-942a-0fc12183e48e.jpg\",\"img/0862/cdaed51d-9e2f-4807-801a-4663c40077e2.jpg\"]","trial_type":"similarity","trial_index":174,"time_elapsed":3099166,"internal_node_id":"0.0-6.0-168.0"},{"sim_score":6,"rt":4947,"stimulus":"[\"img/0894/7f2f31fd-6618-41c6-b65a-0fd8b2851bc9.jpg\",\"img/0764/56441045-b648-4ede-9632-3e9c0227080b.jpg\"]","trial_type":"similarity","trial_index":175,"time_elapsed":3105119,"internal_node_id":"0.0-6.0-169.0"},{"sim_score":3,"rt":4100,"stimulus":"[\"img/0874/adf9a8f1-c40b-402b-b95b-1e85a54a7b62.jpg\",\"img/0898/01bfe666-3510-4fc7-964f-d00d28732dc8.jpg\"]","trial_type":"similarity","trial_index":176,"time_elapsed":3110224,"internal_node_id":"0.0-6.0-170.0"},{"sim_score":5,"rt":5660,"stimulus":"[\"img/0860/8fdba999-b946-4c7d-9891-336018b563ef.jpg\",\"img/0766/09f646c8-a69e-4ed3-879c-8d29b04ad7f9.jpg\"]","trial_type":"similarity","trial_index":177,"time_elapsed":3116890,"internal_node_id":"0.0-6.0-171.0"},{"sim_score":2,"rt":3856,"stimulus":"[\"img/0898/5f699581-3853-4547-856c-12f419ba5af7.jpg\",\"img/0864/1ebbc554-99fa-49f9-8799-317375a79820.jpg\"]","trial_type":"similarity","trial_index":178,"time_elapsed":3121752,"internal_node_id":"0.0-6.0-172.0"},{"sim_score":2,"rt":4644,"stimulus":"[\"img/0881/7e822106-76f7-4b10-a805-14dc68b2cfaf.jpg\",\"img/0764/a86eed5b-d0af-4c3f-8c7a-26e98e98cf1a.jpg\"]","trial_type":"similarity","trial_index":179,"time_elapsed":3127402,"internal_node_id":"0.0-6.0-173.0"},{"sim_score":1,"rt":4908,"stimulus":"[\"img/0898/c3cecf20-f7fd-45fa-97d0-dc0a63e8d6c0.jpg\",\"img/0868/6a28c3b0-3d76-498a-9fb7-ddafc665eca8.jpg\"]","trial_type":"similarity","trial_index":180,"time_elapsed":3133316,"internal_node_id":"0.0-6.0-174.0"},{"sim_score":6,"rt":5244,"stimulus":"[\"img/0864/b3c4e378-28f0-4699-9338-2a257b4bca04.jpg\",\"img/0864/ef9cbca0-4be8-435d-ad49-977259e80409.jpg\"]","trial_type":"similarity","trial_index":181,"time_elapsed":3139566,"internal_node_id":"0.0-6.0-175.0"},{"sim_score":5,"rt":4456,"stimulus":"[\"img/0899/51a7a498-98c7-42d7-bca8-bc2d8f0b5831.jpg\",\"img/0862/47ed5efd-4ec9-4b74-bb4e-a5f5cf0c3e7d.jpg\"]","trial_type":"similarity","trial_index":182,"time_elapsed":3145027,"internal_node_id":"0.0-6.0-176.0"},{"sim_score":1,"rt":4975,"stimulus":"[\"img/0875/5a1e5100-0d94-4fec-bbe9-ca9894d2cf8e.jpg\",\"img/0758/f61ecdf8-a7d4-4db0-b84d-be46f7cfaffc.jpg\"]","trial_type":"similarity","trial_index":183,"time_elapsed":3151007,"internal_node_id":"0.0-6.0-177.0"},{"sim_score":2,"rt":4947,"stimulus":"[\"img/0866/02f5e6b9-52b7-448c-9708-5b460d0c9a23.jpg\",\"img/0901/3db47171-0139-4235-82cd-0b1787b6775f.jpg\"]","trial_type":"similarity","trial_index":184,"time_elapsed":3156959,"internal_node_id":"0.0-6.0-178.0"},{"sim_score":2,"rt":4519,"stimulus":"[\"img/0769/878531fd-e0e8-4ad1-b9ad-f018bb104ca0.jpg\",\"img/0874/3ce41e7c-40c8-4d58-a546-171114521796.jpg\"]","trial_type":"similarity","trial_index":185,"time_elapsed":3162482,"internal_node_id":"0.0-6.0-179.0"},{"sim_score":2,"rt":4625,"stimulus":"[\"img/0875/3ecb367d-e9eb-4826-8aaa-7aa72fb98019.jpg\",\"img/0881/5fe04dd0-5c74-47b7-99c8-b068db9ca26a.jpg\"]","trial_type":"similarity","trial_index":186,"time_elapsed":3168112,"internal_node_id":"0.0-6.0-180.0"},{"sim_score":7,"rt":4085,"stimulus":"[\"img/0866/07c9c966-3c8d-40e7-8128-92b2acbaed5d.jpg\",\"img/0868/293079b8-7e0c-4afd-a390-1e5d35fe3ded.jpg\"]","trial_type":"similarity","trial_index":187,"time_elapsed":3173203,"internal_node_id":"0.0-6.0-181.0"},{"sim_score":2,"rt":15584,"stimulus":"[\"img/0899/7f9d45d0-b2c6-40d3-aa41-c207db2c411b.jpg\",\"img/0758/dd559618-7f09-4a07-8018-d311c4a5ea29.jpg\"]","trial_type":"similarity","trial_index":188,"time_elapsed":3189793,"internal_node_id":"0.0-6.0-182.0"},{"sim_score":2,"rt":7506,"stimulus":"[\"img/0874/85eb9b8a-c4c6-4e5a-b8e7-363a87a82054.jpg\",\"img/0875/527ced51-8e53-4aab-ab05-86df219104c0.jpg\"]","trial_type":"similarity","trial_index":189,"time_elapsed":3198305,"internal_node_id":"0.0-6.0-183.0"},{"sim_score":2,"rt":5573,"stimulus":"[\"img/0904/56e73f28-7e64-489b-a161-e6b1a063878d.jpg\",\"img/0862/eefa5588-9efd-4591-aa5f-a2e17c7d7bcc.jpg\"]","trial_type":"similarity","trial_index":190,"time_elapsed":3204884,"internal_node_id":"0.0-6.0-184.0"},{"sim_score":5,"rt":3509,"stimulus":"[\"img/0902/82d20e8c-2162-47a6-925b-52906558c046.jpg\",\"img/0766/535849cc-ff5d-4df9-8f31-0ce94a97d571.jpg\"]","trial_type":"similarity","trial_index":191,"time_elapsed":3209398,"internal_node_id":"0.0-6.0-185.0"},{"sim_score":3,"rt":4588,"stimulus":"[\"img/0758/20497cbe-ddae-489e-86e2-ab06985ed07c.jpg\",\"img/0769/bb8c4e53-6f32-4814-97ee-392d4decfb2e.jpg\"]","trial_type":"similarity","trial_index":192,"time_elapsed":3214992,"internal_node_id":"0.0-6.0-186.0"},{"sim_score":7,"rt":3700,"stimulus":"[\"img/0881/d373cb9f-a719-4549-a2a4-82def79fb2a5.jpg\",\"img/0881/e6746727-7f89-47ec-b939-d98abe78372d.jpg\"]","trial_type":"similarity","trial_index":193,"time_elapsed":3219698,"internal_node_id":"0.0-6.0-187.0"},{"sim_score":5,"rt":4437,"stimulus":"[\"img/0758/3ddd05d3-557e-4ee7-8b78-9d2d681d8ae2.jpg\",\"img/0866/93a27239-8317-4e08-98ca-d8b1ff298e07.jpg\"]","trial_type":"similarity","trial_index":194,"time_elapsed":3225141,"internal_node_id":"0.0-6.0-188.0"},{"sim_score":5,"rt":3144,"stimulus":"[\"img/0764/62fafeea-6274-48ce-976f-35d3d3484c65.jpg\",\"img/0898/f3a3f225-1248-4ac7-b93b-f0ff28485bf3.jpg\"]","trial_type":"similarity","trial_index":195,"time_elapsed":3229291,"internal_node_id":"0.0-6.0-189.0"},{"sim_score":3,"rt":5722,"stimulus":"[\"img/0903/2c7b4aed-6038-4aac-958a-e3e58341c313.jpg\",\"img/0901/71e551a2-9ce2-409c-9c7c-dd556a0791e9.jpg\"]","trial_type":"similarity","trial_index":196,"time_elapsed":3236019,"internal_node_id":"0.0-6.0-190.0"},{"sim_score":6,"rt":3261,"stimulus":"[\"img/0902/511abb54-0094-4f4d-b6dc-3f2c97050521.jpg\",\"img/0898/8605a25b-6895-476d-8c13-df7a83f96093.jpg\"]","trial_type":"similarity","trial_index":197,"time_elapsed":3240285,"internal_node_id":"0.0-6.0-191.0"},{"sim_score":3,"rt":4731,"stimulus":"[\"img/0864/e8bd659f-aa43-4748-877e-3118e8b4e189.jpg\",\"img/0901/a9b9c0a0-8aed-4888-a78a-65fb7e764d13.jpg\"]","trial_type":"similarity","trial_index":198,"time_elapsed":3246021,"internal_node_id":"0.0-6.0-192.0"},{"sim_score":5,"rt":4087,"stimulus":"[\"img/0894/10f22b96-040c-44f4-950b-a4963f3f506c.jpg\",\"img/0881/b549bc99-a61c-4450-bab5-9efc3a197bf0.jpg\"]","trial_type":"similarity","trial_index":199,"time_elapsed":3251113,"internal_node_id":"0.0-6.0-193.0"},{"sim_score":7,"rt":4321,"stimulus":"[\"img/0868/8b0b8473-e2c0-4331-aa56-c3a5c29369da.jpg\",\"img/0868/d6d1f30d-4323-435a-b194-7892521bc57e.jpg\"]","trial_type":"similarity","trial_index":200,"time_elapsed":3256438,"internal_node_id":"0.0-6.0-194.0"},{"sim_score":6,"rt":4615,"stimulus":"[\"img/0899/7b7380d5-d2be-44e5-a09a-c1756f87ef71.jpg\",\"img/0764/29072395-f595-4e3c-83d3-ff87010039fa.jpg\"]","trial_type":"similarity","trial_index":201,"time_elapsed":3262059,"internal_node_id":"0.0-6.0-195.0"},{"sim_score":2,"rt":4893,"stimulus":"[\"img/0881/633c6f40-56d9-4b48-bf1c-ecd83116eabb.jpg\",\"img/0904/0d25eb24-bb20-4e8d-9787-8b489558b4cb.jpg\"]","trial_type":"similarity","trial_index":202,"time_elapsed":3267957,"internal_node_id":"0.0-6.0-196.0"},{"sim_score":3,"rt":7729,"stimulus":"[\"img/0864/3d4de670-b290-4285-9c3d-12a0e3af44e9.jpg\",\"img/0902/94ee9c53-a9a2-4f95-b9b7-794a5fc62bb6.jpg\"]","trial_type":"similarity","trial_index":203,"time_elapsed":3276691,"internal_node_id":"0.0-6.0-197.0"},{"sim_score":7,"rt":5618,"stimulus":"[\"img/0894/661b9f9f-4bde-487a-b1ed-87085fde6948.jpg\",\"img/0904/60d1a521-edf7-4696-9263-f21ac0e62a01.jpg\"]","trial_type":"similarity","trial_index":204,"time_elapsed":3283315,"internal_node_id":"0.0-6.0-198.0"},{"sim_score":7,"rt":6275,"stimulus":"[\"img/0901/875dedb9-24c9-4443-9f8c-85e97d70ee5a.jpg\",\"img/0901/a6c90438-fa7c-4418-ac7c-16c2e772dd98.jpg\"]","trial_type":"similarity","trial_index":205,"time_elapsed":3290596,"internal_node_id":"0.0-6.0-199.0"},{"sim_score":3,"rt":4056,"stimulus":"[\"img/0894/a98416c0-51e2-4960-85da-d81d8688b9d5.jpg\",\"img/0860/c7047cd2-7cc1-41b6-8a34-c0986774975f.jpg\"]","trial_type":"similarity","trial_index":206,"time_elapsed":3295657,"internal_node_id":"0.0-6.0-200.0"},{"sim_score":6,"rt":5841,"stimulus":"[\"img/0898/79233891-305a-4a6a-8ddf-5c8604858203.jpg\",\"img/0903/f45a103c-9bfe-49fd-ad96-bdd8d2589195.jpg\"]","trial_type":"similarity","trial_index":207,"time_elapsed":3302502,"internal_node_id":"0.0-6.0-201.0"},{"sim_score":3,"rt":4945,"stimulus":"[\"img/0864/a248adb3-c70b-4652-b7a3-776d2a1e904b.jpg\",\"img/0894/8cadb87a-7001-4e47-99fb-1867bebf1668.jpg\"]","trial_type":"similarity","trial_index":208,"time_elapsed":3308453,"internal_node_id":"0.0-6.0-202.0"},{"sim_score":2,"rt":3416,"stimulus":"[\"img/0874/995f0332-0439-4eb4-add3-957335dbf6d9.jpg\",\"img/0860/29a21a9f-54bb-4093-ad3f-04823ceaa89f.jpg\"]","trial_type":"similarity","trial_index":209,"time_elapsed":3312874,"internal_node_id":"0.0-6.0-203.0"},{"sim_score":2,"rt":6164,"stimulus":"[\"img/0862/f188d4f0-76a4-4102-818c-a209969d73a5.jpg\",\"img/0875/a4935837-7d3c-4df6-88c1-36a94d4991ca.jpg\"]","trial_type":"similarity","trial_index":210,"time_elapsed":3320045,"internal_node_id":"0.0-6.0-204.0"},{"sim_score":3,"rt":4698,"stimulus":"[\"img/0867/8ba0c5a7-c7e4-42cf-a80a-543763b90779.jpg\",\"img/0881/667e2147-d457-4f32-aa5f-6ab86e5848f1.jpg\"]","trial_type":"similarity","trial_index":211,"time_elapsed":3325750,"internal_node_id":"0.0-6.0-205.0"},{"sim_score":6,"rt":5022,"stimulus":"[\"img/0901/a2d7b2f6-396b-4d91-8403-de5361c74af7.jpg\",\"img/0902/30c420f5-c714-4681-ae5a-c0ba8f636a26.jpg\"]","trial_type":"similarity","trial_index":212,"time_elapsed":3331779,"internal_node_id":"0.0-6.0-206.0"},{"sim_score":1,"rt":3837,"stimulus":"[\"img/0899/f58b8d2f-b19d-4b59-8b94-8834be92e4ba.jpg\",\"img/0864/300bb811-8b3c-4c42-8653-6097c3725197.jpg\"]","trial_type":"similarity","trial_index":213,"time_elapsed":3336624,"internal_node_id":"0.0-6.0-207.0"},{"sim_score":5,"rt":5109,"stimulus":"[\"img/0901/8bb79e82-9c43-4b6f-a655-40655519598b.jpg\",\"img/0769/f229321f-04dd-42d7-b14a-ffad6b509862.jpg\"]","trial_type":"similarity","trial_index":214,"time_elapsed":3342738,"internal_node_id":"0.0-6.0-208.0"},{"sim_score":7,"rt":3722,"stimulus":"[\"img/0902/e5a46bda-30d1-41ca-b36d-b8529b5a63d1.jpg\",\"img/0902/01b41522-de46-4c3a-b0af-a61b2682b40e.jpg\"]","trial_type":"similarity","trial_index":215,"time_elapsed":3349712,"internal_node_id":"0.0-6.0-209.0"},{"view_history":"[{\"page_index\":0,\"viewing_time\":6428}]","rt":6429,"trial_type":"instructions","trial_index":216,"time_elapsed":3357143,"internal_node_id":"0.0-7.0"},{"rt":57811,"responses":"{\"Q0\":\"Orange-crowned Warbler\"}","answer":["Nashville Warbler"],"trial_type":"image-multi-choice","trial_index":217,"time_elapsed":3415972,"internal_node_id":"0.0-8.0-0.0"},{"rt":7963,"responses":"{\"Q0\":\"Black-and-white Warbler\"}","answer":["Black-and-white Warbler"],"trial_type":"image-multi-choice","trial_index":218,"time_elapsed":3424952,"internal_node_id":"0.0-8.0-1.0"},{"rt":10091,"responses":"{\"Q0\":\"Magnolia Warbler\"}","answer":["Townsend's Warbler"],"trial_type":"image-multi-choice","trial_index":219,"time_elapsed":3436058,"internal_node_id":"0.0-8.0-2.0"},{"rt":11056,"responses":"{\"Q0\":\"Vesper Sparrow\"}","answer":["Lark Sparrow"],"trial_type":"image-multi-choice","trial_index":220,"time_elapsed":3448128,"internal_node_id":"0.0-8.0-3.0"},{"rt":3734,"responses":"{\"Q0\":\"Yellow Warbler\"}","answer":["Yellow Warbler"],"trial_type":"image-multi-choice","trial_index":221,"time_elapsed":3452876,"internal_node_id":"0.0-8.0-4.0"},{"rt":8772,"responses":"{\"Q0\":\"Nashville Warbler\"}","answer":["Orange-crowned Warbler"],"trial_type":"image-multi-choice","trial_index":222,"time_elapsed":3462663,"internal_node_id":"0.0-8.0-5.0"},{"rt":14533,"responses":"{\"Q0\":\"White-crowned Sparrow\"}","answer":["White-throated Sparrow"],"trial_type":"image-multi-choice","trial_index":223,"time_elapsed":3478210,"internal_node_id":"0.0-8.0-6.0"},{"rt":9213,"responses":"{\"Q0\":\"Fox Sparrow\"}","answer":["Fox Sparrow"],"trial_type":"image-multi-choice","trial_index":224,"time_elapsed":3488437,"internal_node_id":"0.0-8.0-7.0"},{"rt":18584,"responses":"{\"Q0\":\"Lark Sparrow\"}","answer":["Song Sparrow"],"trial_type":"image-multi-choice","trial_index":225,"time_elapsed":3508036,"internal_node_id":"0.0-8.0-8.0"},{"rt":6690,"responses":"{\"Q0\":\"Blackburnian Warbler\"}","answer":["Blackburnian Warbler"],"trial_type":"image-multi-choice","trial_index":226,"time_elapsed":3515742,"internal_node_id":"0.0-8.0-9.0"},{"rt":12525,"responses":"{\"Q0\":\"American Tree Sparrow\"}","answer":["Vesper Sparrow"],"trial_type":"image-multi-choice","trial_index":227,"time_elapsed":3529281,"internal_node_id":"0.0-8.0-10.0"},{"rt":12680,"responses":"{\"Q0\":\"White-crowned Sparrow\"}","answer":["White-crowned Sparrow"],"trial_type":"image-multi-choice","trial_index":228,"time_elapsed":3542976,"internal_node_id":"0.0-8.0-11.0"},{"rt":21530,"responses":"{\"Q0\":\"Chipping Sparrow\"}","answer":["American Tree Sparrow"],"trial_type":"image-multi-choice","trial_index":229,"time_elapsed":3565521,"internal_node_id":"0.0-8.0-12.0"},{"rt":14677,"responses":"{\"Q0\":\"Tennessee Warbler\"}","answer":["Tennessee Warbler"],"trial_type":"image-multi-choice","trial_index":230,"time_elapsed":3581211,"internal_node_id":"0.0-8.0-13.0"},{"rt":9650,"responses":"{\"Q0\":\"Magnolia Warbler\"}","answer":["Magnolia Warbler"],"trial_type":"image-multi-choice","trial_index":231,"time_elapsed":3591874,"internal_node_id":"0.0-8.0-14.0"},{"rt":7089,"responses":"{\"Q0\":\"Northern Waterthrush\"}","answer":["Northern Waterthrush"],"trial_type":"image-multi-choice","trial_index":232,"time_elapsed":3599982,"internal_node_id":"0.0-8.0-15.0"},{"rt":9277,"responses":"{\"Q0\":\"Lincoln's Sparrow\"}","answer":["Chipping Sparrow"],"trial_type":"image-multi-choice","trial_index":233,"time_elapsed":3610274,"internal_node_id":"0.0-8.0-16.0"},{"rt":4763,"responses":"{\"Q0\":\"Lincoln's Sparrow\"}","answer":["Swamp Sparrow"],"trial_type":"image-multi-choice","trial_index":234,"time_elapsed":3616051,"internal_node_id":"0.0-8.0-17.0"},{"rt":6500,"responses":"{\"Q0\":\"Swamp Sparrow\"}","answer":["Lincoln's Sparrow"],"trial_type":"image-multi-choice","trial_index":235,"time_elapsed":3623567,"internal_node_id":"0.0-8.0-18.0"},{"rt":3703,"responses":"{\"Q0\":\"Ovenbird\"}","answer":["Ovenbird"],"trial_type":"image-multi-choice","trial_index":236,"time_elapsed":3628284,"internal_node_id":"0.0-8.0-19.0"}]