[{"view_history":"[{\"page_index\":0,\"viewing_time\":177702}]","rt":177704,"trial_type":"instructions","trial_index":0,"time_elapsed":177706,"internal_node_id":"0.0-0.0"},{"sim_score":5,"rt":10934,"stimulus":"[\"img/866.jpg\",\"img/868.jpg\"]","trial_type":"similarity_demo","trial_index":1,"time_elapsed":189668,"internal_node_id":"0.0-1.0"},{"view_history":"[{\"page_index\":0,\"viewing_time\":9004}]","rt":9004,"trial_type":"instructions","trial_index":2,"time_elapsed":199674,"internal_node_id":"0.0-2.0"},{"sim_score":2,"rt":12693,"stimulus":"[\"img/766.jpg\",\"img/867.jpg\"]","trial_type":"similarity_demo","trial_index":3,"time_elapsed":213383,"internal_node_id":"0.0-3.0"},{"view_history":"[{\"page_index\":0,\"viewing_time\":5859}]","rt":5860,"trial_type":"instructions","trial_index":4,"time_elapsed":220245,"internal_node_id":"0.0-4.0"},{"view_history":"[{\"page_index\":0,\"viewing_time\":33487}]","rt":33489,"trial_type":"instructions","trial_index":5,"time_elapsed":254736,"internal_node_id":"0.0-5.0"},{"sim_score":2,"rt":4844,"stimulus":"[\"img/0868/77091fc7-a590-4ebb-b915-fdb2483a2399.jpg\",\"img/0901/c6c877e0-dd63-4e00-9657-33af29d55aab.jpg\"]","trial_type":"similarity","trial_index":6,"time_elapsed":260608,"internal_node_id":"0.0-6.0-0.0"},{"sim_score":2,"rt":6289,"stimulus":"[\"img/0769/b664b502-a86c-46c1-ad6f-5ebffc2e1bd3.jpg\",\"img/0867/8ba0c5a7-c7e4-42cf-a80a-543763b90779.jpg\"]","trial_type":"similarity","trial_index":7,"time_elapsed":267917,"internal_node_id":"0.0-6.0-1.0"},{"sim_score":5,"rt":5302,"stimulus":"[\"img/0766/a0270213-fa0e-4972-8b56-228c3e01ff90.jpg\",\"img/0898/0af304a2-6a7a-4082-ab7c-4450cd08cc58.jpg\"]","trial_type":"similarity","trial_index":8,"time_elapsed":274237,"internal_node_id":"0.0-6.0-2.0"},{"sim_score":2,"rt":6165,"stimulus":"[\"img/0902/d5e25767-e8ec-45f3-ac0a-7b4a6f7a9edc.jpg\",\"img/0881/14236cf2-6b95-48b8-9368-78af09d2d27f.jpg\"]","trial_type":"similarity","trial_index":9,"time_elapsed":281417,"internal_node_id":"0.0-6.0-3.0"},{"sim_score":6,"rt":5788,"stimulus":"[\"img/0894/9b1333fd-3561-43bf-aee5-99b7b7ca3dc3.jpg\",\"img/0894/8cadb87a-7001-4e47-99fb-1867bebf1668.jpg\"]","trial_type":"similarity","trial_index":10,"time_elapsed":288224,"internal_node_id":"0.0-6.0-4.0"},{"sim_score":4,"rt":7238,"stimulus":"[\"img/0874/1016b306-087c-4afc-aa08-fa527b28dc76.jpg\",\"img/0899/06b0fc99-0581-461a-9913-d1a5a941ac61.jpg\"]","trial_type":"similarity","trial_index":11,"time_elapsed":296474,"internal_node_id":"0.0-6.0-5.0"},{"sim_score":6,"rt":5872,"stimulus":"[\"img/0904/9d30eff1-46ef-4453-b11e-124ef8145c00.jpg\",\"img/0764/03c07b98-3f18-4b71-bb70-ecff564a78d1.jpg\"]","trial_type":"similarity","trial_index":12,"time_elapsed":303366,"internal_node_id":"0.0-6.0-6.0"},{"sim_score":5,"rt":6886,"stimulus":"[\"img/0899/f95cbdb4-f804-4f5d-ad76-373ad343e658.jpg\",\"img/0898/b3290bf9-215b-4b45-b21a-65bdf73f142f.jpg\"]","trial_type":"similarity","trial_index":13,"time_elapsed":311281,"internal_node_id":"0.0-6.0-7.0"},{"sim_score":2,"rt":4812,"stimulus":"[\"img/0874/a3bc679d-619f-4db6-bb68-116dcb757d9c.jpg\",\"img/0903/47e39de8-6959-469f-8be9-6999a6db207c.jpg\"]","trial_type":"similarity","trial_index":14,"time_elapsed":317117,"internal_node_id":"0.0-6.0-8.0"},{"sim_score":6,"rt":4375,"stimulus":"[\"img/0881/b1a136f7-8511-4d3a-a0f6-3879acf1e1a1.jpg\",\"img/0758/7ee8bc8f-c40b-4b3a-84ec-3e83580622d4.jpg\"]","trial_type":"similarity","trial_index":15,"time_elapsed":322513,"internal_node_id":"0.0-6.0-9.0"},{"sim_score":6,"rt":5386,"stimulus":"[\"img/0898/79233891-305a-4a6a-8ddf-5c8604858203.jpg\",\"img/0901/875dedb9-24c9-4443-9f8c-85e97d70ee5a.jpg\"]","trial_type":"similarity","trial_index":16,"time_elapsed":328918,"internal_node_id":"0.0-6.0-10.0"},{"sim_score":5,"rt":7256,"stimulus":"[\"img/0903/ea75f240-fb62-4edb-a709-83e858b202c0.jpg\",\"img/0769/4680bcc3-8fbc-4643-8f9a-12aa0e780b64.jpg\"]","trial_type":"similarity","trial_index":17,"time_elapsed":337192,"internal_node_id":"0.0-6.0-11.0"},{"sim_score":1,"rt":6283,"stimulus":"[\"img/0764/83c93cce-18d1-4aa7-9e23-2c268afe0a46.jpg\",\"img/0868/3a62db2d-97e9-44a3-b8e3-a48c6f0e423b.jpg\"]","trial_type":"similarity","trial_index":18,"time_elapsed":344496,"internal_node_id":"0.0-6.0-12.0"},{"sim_score":1,"rt":5274,"stimulus":"[\"img/0867/85a96c62-548f-4994-9553-819e03c3135a.jpg\",\"img/0903/97a42b34-5462-4665-88c7-83c014b33d24.jpg\"]","trial_type":"similarity","trial_index":19,"time_elapsed":350785,"internal_node_id":"0.0-6.0-13.0"},{"sim_score":1,"rt":6855,"stimulus":"[\"img/0766/1865bfc9-2410-4765-a804-3ae4ba2393d0.jpg\",\"img/0758/ddc336e9-a8b6-4bb9-937a-c7e25e0e9250.jpg\"]","trial_type":"similarity","trial_index":20,"time_elapsed":358659,"internal_node_id":"0.0-6.0-14.0"},{"sim_score":3,"rt":6577,"stimulus":"[\"img/0902/418b716e-63e5-4c77-93e9-95b1f5a3ddf0.jpg\",\"img/0860/524b2e98-5767-4d53-942c-ebae6925659b.jpg\"]","trial_type":"similarity","trial_index":21,"time_elapsed":366252,"internal_node_id":"0.0-6.0-15.0"},{"sim_score":1,"rt":16321,"stimulus":"[\"img/0769/ecda2fb3-556b-43ba-8a67-e87dd75ff2b4.jpg\",\"img/0875/5a716432-c6ca-4b1c-955a-2b8ac25198ee.jpg\"]","trial_type":"similarity","trial_index":22,"time_elapsed":383590,"internal_node_id":"0.0-6.0-16.0"},{"sim_score":2,"rt":4661,"stimulus":"[\"img/0904/e9423a8c-f946-43ad-ab7b-931acef870e2.jpg\",\"img/0866/bf14b5bd-fb55-47db-86b9-4f8aeb9a6dad.jpg\"]","trial_type":"similarity","trial_index":23,"time_elapsed":389275,"internal_node_id":"0.0-6.0-17.0"},{"sim_score":7,"rt":5608,"stimulus":"[\"img/0875/d59ff733-eaff-4ee2-9443-06954dd0bcb6.jpg\",\"img/0875/34132396-d896-4c2d-8087-646dd867e769.jpg\"]","trial_type":"similarity","trial_index":24,"time_elapsed":395901,"internal_node_id":"0.0-6.0-18.0"},{"sim_score":6,"rt":4550,"stimulus":"[\"img/0758/53f35650-e455-4b53-8be4-c3c8271c6466.jpg\",\"img/0758/eabcd7a8-56ad-4fd2-bc24-90f6b7b33265.jpg\"]","trial_type":"similarity","trial_index":25,"time_elapsed":401467,"internal_node_id":"0.0-6.0-19.0"},{"sim_score":2,"rt":8803,"stimulus":"[\"img/0902/6730b12a-f0a7-4587-8c10-a32fae16565b.jpg\",\"img/0874/adf9a8f1-c40b-402b-b95b-1e85a54a7b62.jpg\"]","trial_type":"similarity","trial_index":26,"time_elapsed":411286,"internal_node_id":"0.0-6.0-20.0"},{"sim_score":6,"rt":4479,"stimulus":"[\"img/0764/4eff630a-6426-4f8d-b2ba-b4d9842a0962.jpg\",\"img/0769/180213e5-1e50-4b4e-87b6-add77ba04d39.jpg\"]","trial_type":"similarity","trial_index":27,"time_elapsed":416781,"internal_node_id":"0.0-6.0-21.0"},{"sim_score":1,"rt":6726,"stimulus":"[\"img/0901/d4d09bf5-093e-4050-838e-7c738be8e63c.jpg\",\"img/0874/29830da7-be5f-44e5-b141-652a0ccf7269.jpg\"]","trial_type":"similarity","trial_index":28,"time_elapsed":424521,"internal_node_id":"0.0-6.0-22.0"},{"sim_score":2,"rt":4948,"stimulus":"[\"img/0875/5a1e5100-0d94-4fec-bbe9-ca9894d2cf8e.jpg\",\"img/0903/8635cf25-2648-4fe9-8c42-79d2598e999c.jpg\"]","trial_type":"similarity","trial_index":29,"time_elapsed":430485,"internal_node_id":"0.0-6.0-23.0"},{"sim_score":2,"rt":5835,"stimulus":"[\"img/0769/82ab9db6-4578-4e79-874f-f09100439f09.jpg\",\"img/0881/6b1189e6-232d-4042-8885-16dc7b10e0d4.jpg\"]","trial_type":"similarity","trial_index":30,"time_elapsed":437339,"internal_node_id":"0.0-6.0-24.0"},{"sim_score":1,"rt":4069,"stimulus":"[\"img/0867/50a1b60e-3a29-44bf-b606-d4bd3746fea9.jpg\",\"img/0904/2f88ce53-02d0-4f95-a082-182c56a0eeb4.jpg\"]","trial_type":"similarity","trial_index":31,"time_elapsed":442435,"internal_node_id":"0.0-6.0-25.0"},{"sim_score":1,"rt":4580,"stimulus":"[\"img/0860/8a92e21b-6a32-4e4a-a445-2d5a487ed0a4.jpg\",\"img/0881/20af39f5-373d-4a55-a437-2dc4c0382c46.jpg\"]","trial_type":"similarity","trial_index":32,"time_elapsed":448043,"internal_node_id":"0.0-6.0-26.0"},{"sim_score":7,"rt":6133,"stimulus":"[\"img/0866/620cd1aa-0800-4414-8f6e-90342e7a99ad.jpg\",\"img/0866/a15b02be-11bb-43e3-b0e0-ecc3bd7dfc49.jpg\"]","trial_type":"similarity","trial_index":33,"time_elapsed":455198,"internal_node_id":"0.0-6.0-27.0"},{"sim_score":1,"rt":6734,"stimulus":"[\"img/0764/e48e6c6f-9e28-420f-836a-8043b2319bb4.jpg\",\"img/0862/a0a3a7ba-7798-46a3-b4ca-05e1f6e581d0.jpg\"]","trial_type":"similarity","trial_index":34,"time_elapsed":462949,"internal_node_id":"0.0-6.0-28.0"},{"sim_score":2,"rt":7331,"stimulus":"[\"img/0904/24fc38fe-842c-4831-ad8a-b1de5c25c0a8.jpg\",\"img/0758/2fa3e613-e676-4e6e-bd12-705327eeb3e1.jpg\"]","trial_type":"similarity","trial_index":35,"time_elapsed":471307,"internal_node_id":"0.0-6.0-29.0"},{"sim_score":5,"rt":5832,"stimulus":"[\"img/0894/e5edf723-72a5-4673-8441-6c1734a8929b.jpg\",\"img/0899/ad8268c5-8199-48d0-ad70-c5b6d6c599ec.jpg\"]","trial_type":"similarity","trial_index":36,"time_elapsed":478158,"internal_node_id":"0.0-6.0-30.0"},{"sim_score":4,"rt":5642,"stimulus":"[\"img/0860/c5ccd1a4-4bb7-48e1-9b25-72cfaf06909b.jpg\",\"img/0904/4d7d70a3-9477-4921-bda0-f9531d0a5c5b.jpg\"]","trial_type":"similarity","trial_index":37,"time_elapsed":484816,"internal_node_id":"0.0-6.0-31.0"},{"sim_score":6,"rt":4941,"stimulus":"[\"img/0874/7e4f2150-3b59-4a36-b5da-a4e0ba410531.jpg\",\"img/0881/5fe04dd0-5c74-47b7-99c8-b068db9ca26a.jpg\"]","trial_type":"similarity","trial_index":38,"time_elapsed":490773,"internal_node_id":"0.0-6.0-32.0"},{"sim_score":6,"rt":4842,"stimulus":"[\"img/0881/db77fe00-aeb0-4d1d-aa66-f3a96fd077e4.jpg\",\"img/0899/56a605c3-d0a2-4215-89e1-779279d85a7c.jpg\"]","trial_type":"similarity","trial_index":39,"time_elapsed":496634,"internal_node_id":"0.0-6.0-33.0"},{"sim_score":1,"rt":5516,"stimulus":"[\"img/0866/be24ab58-230e-4db8-9f45-ff04c9aec6bb.jpg\",\"img/0862/ba89835a-408c-480b-8594-ed4ffa97eb5c.jpg\"]","trial_type":"similarity","trial_index":40,"time_elapsed":503167,"internal_node_id":"0.0-6.0-34.0"},{"sim_score":1,"rt":5097,"stimulus":"[\"img/0868/7b212364-ff5f-4e28-9241-7eb6ea00161b.jpg\",\"img/0894/661b9f9f-4bde-487a-b1ed-87085fde6948.jpg\"]","trial_type":"similarity","trial_index":41,"time_elapsed":509292,"internal_node_id":"0.0-6.0-35.0"},{"sim_score":7,"rt":5317,"stimulus":"[\"img/0860/b03b963d-949b-4d8d-b19c-4950c89eeca2.jpg\",\"img/0860/18dfed73-e36b-4487-a8bd-0b8cff8e3668.jpg\"]","trial_type":"similarity","trial_index":42,"time_elapsed":515633,"internal_node_id":"0.0-6.0-36.0"},{"sim_score":5,"rt":4933,"stimulus":"[\"img/0862/e0f1a4e9-e1b6-45f7-af67-89f334e6630d.jpg\",\"img/0864/4bd81bc6-c13d-46df-95a9-485886dc7c1b.jpg\"]","trial_type":"similarity","trial_index":43,"time_elapsed":521586,"internal_node_id":"0.0-6.0-37.0"},{"sim_score":1,"rt":5262,"stimulus":"[\"img/0766/26d3ae14-8275-4e08-99b2-a6598c193ddf.jpg\",\"img/0866/c446214b-a368-4c65-ae39-ea46894256ab.jpg\"]","trial_type":"similarity","trial_index":44,"time_elapsed":527868,"internal_node_id":"0.0-6.0-38.0"},{"sim_score":2,"rt":5346,"stimulus":"[\"img/0875/cff79b3a-a797-4393-9757-6275f999ec04.jpg\",\"img/0898/661621d4-a14e-487c-8c74-354134a29710.jpg\"]","trial_type":"similarity","trial_index":45,"time_elapsed":534231,"internal_node_id":"0.0-6.0-39.0"},{"sim_score":4,"rt":6930,"stimulus":"[\"img/0766/ba35c0fc-4d5b-490d-959e-c94b279cdd02.jpg\",\"img/0769/da36e3f7-2337-434f-ab57-11822dd7eed7.jpg\"]","trial_type":"similarity","trial_index":46,"time_elapsed":542179,"internal_node_id":"0.0-6.0-40.0"},{"sim_score":1,"rt":7019,"stimulus":"[\"img/0874/2c9464dd-8a23-4baa-ac94-1ba3af5c15cc.jpg\",\"img/0764/713cc27e-2338-4486-bfe9-5f5725fbd7a0.jpg\"]","trial_type":"similarity","trial_index":47,"time_elapsed":580680,"internal_node_id":"0.0-6.0-41.0"},{"sim_score":1,"rt":4975,"stimulus":"[\"img/0868/179a5502-ab5c-478e-8263-5a1fbcc101d2.jpg\",\"img/0902/af40b98b-3d23-4d95-b401-49ba5783ce39.jpg\"]","trial_type":"similarity","trial_index":48,"time_elapsed":586683,"internal_node_id":"0.0-6.0-42.0"},{"sim_score":1,"rt":4823,"stimulus":"[\"img/0875/f87b67d7-c33e-40d1-b281-248c4be1cb6e.jpg\",\"img/0899/8de08897-b430-42fe-9d42-840670b80f94.jpg\"]","trial_type":"similarity","trial_index":49,"time_elapsed":592524,"internal_node_id":"0.0-6.0-43.0"},{"sim_score":4,"rt":6575,"stimulus":"[\"img/0866/386235d2-6857-41e7-88a8-25cfc3430025.jpg\",\"img/0860/4a022222-056d-461c-ab02-39fac9647552.jpg\"]","trial_type":"similarity","trial_index":50,"time_elapsed":600114,"internal_node_id":"0.0-6.0-44.0"},{"sim_score":6,"rt":4621,"stimulus":"[\"img/0766/fd74fdbb-ea40-4f3a-a091-38d08dfd636e.jpg\",\"img/0903/8f7f9939-b8e6-433f-93dd-b362496c80a7.jpg\"]","trial_type":"similarity","trial_index":51,"time_elapsed":605755,"internal_node_id":"0.0-6.0-45.0"},{"sim_score":6,"rt":4409,"stimulus":"[\"img/0901/deff6cfb-0072-4490-bc3e-206bbcd3e8bf.jpg\",\"img/0904/06dacdc5-2206-4fb8-92b7-88042d22833c.jpg\"]","trial_type":"similarity","trial_index":52,"time_elapsed":611184,"internal_node_id":"0.0-6.0-46.0"},{"sim_score":3,"rt":6166,"stimulus":"[\"img/0758/a709631e-3705-4725-ac40-f0d916924f08.jpg\",\"img/0902/94ee9c53-a9a2-4f95-b9b7-794a5fc62bb6.jpg\"]","trial_type":"similarity","trial_index":53,"time_elapsed":618366,"internal_node_id":"0.0-6.0-47.0"},{"sim_score":7,"rt":4573,"stimulus":"[\"img/0764/d0bef2e0-e16b-4c82-9451-c1d16265eb67.jpg\",\"img/0764/3297a811-ea8b-4d74-9547-59cecab7293a.jpg\"]","trial_type":"similarity","trial_index":54,"time_elapsed":623959,"internal_node_id":"0.0-6.0-48.0"},{"sim_score":1,"rt":3492,"stimulus":"[\"img/0866/0207e9a2-7dbb-40b5-9459-b472aaeceb2a.jpg\",\"img/0902/cf9dee9c-2bdf-4d64-9302-97f1660fe52c.jpg\"]","trial_type":"similarity","trial_index":55,"time_elapsed":628467,"internal_node_id":"0.0-6.0-49.0"},{"sim_score":2,"rt":9979,"stimulus":"[\"img/0764/e42c1dc9-7831-4995-be19-7ca7b4d141fc.jpg\",\"img/0758/61d64021-9214-4951-bdf8-f871f9827cf9.jpg\"]","trial_type":"similarity","trial_index":56,"time_elapsed":639467,"internal_node_id":"0.0-6.0-50.0"},{"sim_score":2,"rt":4327,"stimulus":"[\"img/0898/e167334e-cc1d-4986-b3b1-c7bc7da64baa.jpg\",\"img/0894/2217bdcd-23a7-42d3-823b-23f2488d7e87.jpg\"]","trial_type":"similarity","trial_index":57,"time_elapsed":644820,"internal_node_id":"0.0-6.0-51.0"},{"sim_score":4,"rt":4790,"stimulus":"[\"img/0875/03c3c331-738b-4446-af92-3d7386b08c2e.jpg\",\"img/0866/f756f7d1-9ad8-4a34-9ef6-7a443d705bfe.jpg\"]","trial_type":"similarity","trial_index":58,"time_elapsed":650644,"internal_node_id":"0.0-6.0-52.0"},{"sim_score":6,"rt":4781,"stimulus":"[\"img/0904/65e2b70a-b184-4da3-b5c0-5038bdf9469a.jpg\",\"img/0904/a8c3c7d2-9bcf-4347-9e03-8203adfc1fc5.jpg\"]","trial_type":"similarity","trial_index":59,"time_elapsed":656446,"internal_node_id":"0.0-6.0-53.0"},{"sim_score":7,"rt":4109,"stimulus":"[\"img/0769/14d393ce-e5be-4ca1-86ce-cc27d4b6074c.jpg\",\"img/0769/0fe124d3-bcad-45f6-b64d-8f6eb8ee5251.jpg\"]","trial_type":"similarity","trial_index":60,"time_elapsed":661574,"internal_node_id":"0.0-6.0-54.0"},{"sim_score":3,"rt":5612,"stimulus":"[\"img/0898/b2732712-71c2-45d8-834f-2b2ed5504910.jpg\",\"img/0758/d57c2592-a317-4f63-91be-91a3a9afd222.jpg\"]","trial_type":"similarity","trial_index":61,"time_elapsed":668205,"internal_node_id":"0.0-6.0-55.0"},{"sim_score":5,"rt":4933,"stimulus":"[\"img/0769/50985283-d353-4abc-9abe-14a91d56ebe6.jpg\",\"img/0902/e5a46bda-30d1-41ca-b36d-b8529b5a63d1.jpg\"]","trial_type":"similarity","trial_index":62,"time_elapsed":674157,"internal_node_id":"0.0-6.0-56.0"},{"sim_score":5,"rt":5537,"stimulus":"[\"img/0864/c3b63e8f-ea39-4d70-a1f2-b3fe4be8eb75.jpg\",\"img/0881/c843e210-bdfe-4a7c-8bbe-fcea1f90fe1c.jpg\"]","trial_type":"similarity","trial_index":63,"time_elapsed":680710,"internal_node_id":"0.0-6.0-57.0"},{"sim_score":1,"rt":5311,"stimulus":"[\"img/0758/67c0be2f-9e91-48b3-8219-70ac0a1802fa.jpg\",\"img/0868/293079b8-7e0c-4afd-a390-1e5d35fe3ded.jpg\"]","trial_type":"similarity","trial_index":64,"time_elapsed":687039,"internal_node_id":"0.0-6.0-58.0"},{"sim_score":3,"rt":6130,"stimulus":"[\"img/0862/f188d4f0-76a4-4102-818c-a209969d73a5.jpg\",\"img/0769/7c50e5f5-cc38-4d48-b009-fbe17bcea61c.jpg\"]","trial_type":"similarity","trial_index":65,"time_elapsed":694186,"internal_node_id":"0.0-6.0-59.0"},{"sim_score":6,"rt":6959,"stimulus":"[\"img/0764/d7c215ab-ea9a-45be-8d5f-417d5b9a8a17.jpg\",\"img/0903/150cf64c-0bd2-4674-abbb-a1387cf1f3e9.jpg\"]","trial_type":"similarity","trial_index":66,"time_elapsed":702161,"internal_node_id":"0.0-6.0-60.0"},{"sim_score":7,"rt":4659,"stimulus":"[\"img/0899/57476fed-5962-4272-8fc9-b317bb777b54.jpg\",\"img/0899/fd9efb43-701f-4cd6-baaa-4c38315f4bdc.jpg\"]","trial_type":"similarity","trial_index":67,"time_elapsed":707837,"internal_node_id":"0.0-6.0-61.0"},{"sim_score":2,"rt":6566,"stimulus":"[\"img/0860/c3379ff7-0763-48fe-a1ec-7ea3d611bc7a.jpg\",\"img/0875/42910c99-5463-450a-a0f8-d4d060a11455.jpg\"]","trial_type":"similarity","trial_index":68,"time_elapsed":715428,"internal_node_id":"0.0-6.0-62.0"},{"sim_score":4,"rt":5353,"stimulus":"[\"img/0868/1a62b2b2-18f5-466e-b564-5176a57c565e.jpg\",\"img/0874/eba003b4-cdab-4eee-8bc3-f064c7d94165.jpg\"]","trial_type":"similarity","trial_index":69,"time_elapsed":721801,"internal_node_id":"0.0-6.0-63.0"},{"sim_score":5,"rt":6024,"stimulus":"[\"img/0758/65d426d6-3ff6-415d-8654-a43b83ecc4fe.jpg\",\"img/0862/92fcd8a4-8193-4a6a-ae09-dd4a6338b0df.jpg\"]","trial_type":"similarity","trial_index":70,"time_elapsed":728842,"internal_node_id":"0.0-6.0-64.0"},{"sim_score":6,"rt":4332,"stimulus":"[\"img/0904/5aec2708-cf14-4a58-aa30-9a8a61c1be0e.jpg\",\"img/0898/40f99fb2-64d2-4e72-8a7f-a1cf60741e69.jpg\"]","trial_type":"similarity","trial_index":71,"time_elapsed":734192,"internal_node_id":"0.0-6.0-65.0"},{"sim_score":2,"rt":4904,"stimulus":"[\"img/0881/33d65d80-8a8e-4ecf-852d-0ad7725c17a2.jpg\",\"img/0866/23a224f3-2012-4fc8-8e0f-3c36f8de27fd.jpg\"]","trial_type":"similarity","trial_index":72,"time_elapsed":740116,"internal_node_id":"0.0-6.0-66.0"},{"sim_score":1,"rt":4382,"stimulus":"[\"img/0867/179ab87a-8eac-4c52-a41f-2e48e3120f09.jpg\",\"img/0898/0c7dde4f-efce-4b7a-9387-6921635b7890.jpg\"]","trial_type":"similarity","trial_index":73,"time_elapsed":745518,"internal_node_id":"0.0-6.0-67.0"},{"sim_score":6,"rt":4344,"stimulus":"[\"img/0902/b76efc44-a50f-4dac-b997-ff0222376067.jpg\",\"img/0764/5c8fbafc-e62e-43ed-9b37-f73e8e45147d.jpg\"]","trial_type":"similarity","trial_index":74,"time_elapsed":750887,"internal_node_id":"0.0-6.0-68.0"},{"sim_score":6,"rt":4388,"stimulus":"[\"img/0875/3ecb367d-e9eb-4826-8aaa-7aa72fb98019.jpg\",\"img/0867/c66898ba-b71b-4d50-84f9-f7f84853a98d.jpg\"]","trial_type":"similarity","trial_index":75,"time_elapsed":756294,"internal_node_id":"0.0-6.0-69.0"},{"sim_score":6,"rt":8458,"stimulus":"[\"img/0766/ea09dd5a-d24d-4e97-a099-7da3db1baef1.jpg\",\"img/0764/ca957454-126a-4bd3-b29c-7174a24c25dc.jpg\"]","trial_type":"similarity","trial_index":76,"time_elapsed":765771,"internal_node_id":"0.0-6.0-70.0"},{"sim_score":1,"rt":4459,"stimulus":"[\"img/0894/5c7677b0-a4f1-479e-b274-7822c415175a.jpg\",\"img/0867/de92135f-5b65-4ed9-b245-188292c7c2f8.jpg\"]","trial_type":"similarity","trial_index":77,"time_elapsed":771248,"internal_node_id":"0.0-6.0-71.0"},{"sim_score":1,"rt":4382,"stimulus":"[\"img/0875/dbdd643e-6d0e-4a5c-ab57-b9c29b9c981a.jpg\",\"img/0764/f2f23359-8e82-41d3-8900-5b9f4433991d.jpg\"]","trial_type":"similarity","trial_index":78,"time_elapsed":776650,"internal_node_id":"0.0-6.0-72.0"},{"sim_score":6,"rt":4594,"stimulus":"[\"img/0867/a498eef3-9fa4-4ab2-9778-4ae82ac40dc5.jpg\",\"img/0866/d493a2c8-66eb-44b4-be02-2f327b700b7c.jpg\"]","trial_type":"similarity","trial_index":79,"time_elapsed":782263,"internal_node_id":"0.0-6.0-73.0"},{"sim_score":3,"rt":5593,"stimulus":"[\"img/0903/365f176c-25a4-4973-bd3c-279bf1b39476.jpg\",\"img/0758/dd559618-7f09-4a07-8018-d311c4a5ea29.jpg\"]","trial_type":"similarity","trial_index":80,"time_elapsed":788883,"internal_node_id":"0.0-6.0-74.0"},{"sim_score":1,"rt":7813,"stimulus":"[\"img/0766/a1ed3f0f-e338-4a26-8fe4-4370f0c9fa6e.jpg\",\"img/0868/c8ac40c7-6904-4e13-8d61-c75d3052dc4e.jpg\"]","trial_type":"similarity","trial_index":81,"time_elapsed":797721,"internal_node_id":"0.0-6.0-75.0"},{"sim_score":1,"rt":4530,"stimulus":"[\"img/0874/ca76a855-4e77-4f2f-872a-0a718153e7ed.jpg\",\"img/0766/d50d734f-285c-4840-bc7a-c8dd4aff391e.jpg\"]","trial_type":"similarity","trial_index":82,"time_elapsed":803271,"internal_node_id":"0.0-6.0-76.0"},{"sim_score":1,"rt":5022,"stimulus":"[\"img/0881/405484ae-0d00-4b05-bc57-6420a36adfac.jpg\",\"img/0868/e0aff734-077f-40dd-9781-74821abd3621.jpg\"]","trial_type":"similarity","trial_index":83,"time_elapsed":809318,"internal_node_id":"0.0-6.0-77.0"},{"sim_score":2,"rt":5544,"stimulus":"[\"img/0758/821c68d3-5cb0-4eae-8659-30e6263fca39.jpg\",\"img/0901/4f9cffe0-c0be-4d7f-bacd-9d51efd19b4a.jpg\"]","trial_type":"similarity","trial_index":84,"time_elapsed":815883,"internal_node_id":"0.0-6.0-78.0"},{"sim_score":2,"rt":7604,"stimulus":"[\"img/0881/667e2147-d457-4f32-aa5f-6ab86e5848f1.jpg\",\"img/0898/01bfe666-3510-4fc7-964f-d00d28732dc8.jpg\"]","trial_type":"similarity","trial_index":85,"time_elapsed":824510,"internal_node_id":"0.0-6.0-79.0"},{"sim_score":3,"rt":6563,"stimulus":"[\"img/0867/bf560d4f-dee3-4f11-a385-705cc1aa5f3c.jpg\",\"img/0758/e1ba5e53-addc-436a-b428-d34fc1b130dc.jpg\"]","trial_type":"similarity","trial_index":86,"time_elapsed":832091,"internal_node_id":"0.0-6.0-80.0"},{"sim_score":5,"rt":4538,"stimulus":"[\"img/0769/458d9c77-b844-40b5-bb1b-1e3bbd4da64e.jpg\",\"img/0899/d8f2dd94-570e-4e8c-a087-d96090fb9e8c.jpg\"]","trial_type":"similarity","trial_index":87,"time_elapsed":837645,"internal_node_id":"0.0-6.0-81.0"},{"sim_score":6,"rt":4846,"stimulus":"[\"img/0903/59defeb8-98bd-4570-a2f8-9bd189e68ef4.jpg\",\"img/0903/776b74ee-a8ab-4ab8-a78d-097c0747538d.jpg\"]","trial_type":"similarity","trial_index":88,"time_elapsed":843510,"internal_node_id":"0.0-6.0-82.0"},{"sim_score":1,"rt":6313,"stimulus":"[\"img/0867/f8159067-056c-41f1-a136-c529fe5e970a.jpg\",\"img/0766/d919cedb-f9b7-4f30-83bb-3e9c65001ceb.jpg\"]","trial_type":"similarity","trial_index":89,"time_elapsed":866297,"internal_node_id":"0.0-6.0-83.0"},{"sim_score":2,"rt":6503,"stimulus":"[\"img/0902/10d99c89-71f7-4c81-a31e-dfc7c59f5232.jpg\",\"img/0867/2e1a0b58-cdb1-4107-a14e-452530d7b9b0.jpg\"]","trial_type":"similarity","trial_index":90,"time_elapsed":873818,"internal_node_id":"0.0-6.0-84.0"},{"sim_score":1,"rt":6347,"stimulus":"[\"img/0901/b453df0b-4c39-49bb-8ced-6127efffa898.jpg\",\"img/0875/a4935837-7d3c-4df6-88c1-36a94d4991ca.jpg\"]","trial_type":"similarity","trial_index":91,"time_elapsed":881182,"internal_node_id":"0.0-6.0-85.0"},{"sim_score":2,"rt":4652,"stimulus":"[\"img/0764/c643e165-df19-459f-8c2b-8357bf432a17.jpg\",\"img/0866/d266fece-59b3-46fa-b69f-96f6efb81b59.jpg\"]","trial_type":"similarity","trial_index":92,"time_elapsed":886848,"internal_node_id":"0.0-6.0-86.0"},{"sim_score":3,"rt":7183,"stimulus":"[\"img/0901/58ec7fa9-b466-4651-90aa-c082df0972de.jpg\",\"img/0894/e2446cf5-cd48-486a-badc-76498e087fbe.jpg\"]","trial_type":"similarity","trial_index":93,"time_elapsed":895052,"internal_node_id":"0.0-6.0-87.0"},{"sim_score":5,"rt":5334,"stimulus":"[\"img/0898/993d8f2d-bef7-4251-a193-0f93a32b7763.jpg\",\"img/0769/3c1efec9-f8fd-487d-8955-4be88e48c832.jpg\"]","trial_type":"similarity","trial_index":94,"time_elapsed":901413,"internal_node_id":"0.0-6.0-88.0"},{"sim_score":7,"rt":4782,"stimulus":"[\"img/0769/75f7e514-0548-4329-b1e4-93c05e74f038.jpg\",\"img/0894/05161000-f476-499b-a878-c13c7f347fd9.jpg\"]","trial_type":"similarity","trial_index":95,"time_elapsed":907214,"internal_node_id":"0.0-6.0-89.0"},{"sim_score":2,"rt":7808,"stimulus":"[\"img/0862/fb26cb07-d5a9-4653-813c-f41609f26cd5.jpg\",\"img/0874/85eb9b8a-c4c6-4e5a-b8e7-363a87a82054.jpg\"]","trial_type":"similarity","trial_index":96,"time_elapsed":916048,"internal_node_id":"0.0-6.0-90.0"},{"sim_score":5,"rt":5926,"stimulus":"[\"img/0894/492d2f29-d7b9-4422-8be8-47fd58bfaa8b.jpg\",\"img/0766/79767d11-b612-4e8a-9e4b-a8ac95bb6a54.jpg\"]","trial_type":"similarity","trial_index":97,"time_elapsed":922995,"internal_node_id":"0.0-6.0-91.0"},{"sim_score":2,"rt":5445,"stimulus":"[\"img/0874/31e22c7c-99aa-40b1-bf03-dd73fa2df4d6.jpg\",\"img/0867/1719a35d-f085-48c0-9099-16c94fe418b4.jpg\"]","trial_type":"similarity","trial_index":98,"time_elapsed":929460,"internal_node_id":"0.0-6.0-92.0"},{"sim_score":1,"rt":5162,"stimulus":"[\"img/0899/fef567a2-c121-4481-9af0-ff108d199bbf.jpg\",\"img/0868/0d3abd3a-b6c3-4584-a9f7-e2da63748b3d.jpg\"]","trial_type":"similarity","trial_index":99,"time_elapsed":935640,"internal_node_id":"0.0-6.0-93.0"},{"sim_score":4,"rt":6103,"stimulus":"[\"img/0903/2a9c8033-3e70-47fa-816d-97ee1813a3a3.jpg\",\"img/0862/92f0146c-20c4-482e-aef5-adb693790338.jpg\"]","trial_type":"similarity","trial_index":100,"time_elapsed":942760,"internal_node_id":"0.0-6.0-94.0"},{"sim_score":6,"rt":7814,"stimulus":"[\"img/0899/66bf4113-ee12-426c-84d2-ea410b6c803e.jpg\",\"img/0766/0bf3793e-c353-45e5-ac6f-753f5f484e10.jpg\"]","trial_type":"similarity","trial_index":101,"time_elapsed":951596,"internal_node_id":"0.0-6.0-95.0"},{"sim_score":7,"rt":4077,"stimulus":"[\"img/0867/5e07b34d-b40f-4b1c-ac10-49975bace45f.jpg\",\"img/0868/4bd5105a-d2c3-4f82-8c80-57196106ba53.jpg\"]","trial_type":"similarity","trial_index":102,"time_elapsed":956700,"internal_node_id":"0.0-6.0-96.0"},{"sim_score":5,"rt":4160,"stimulus":"[\"img/0862/4f0a3b4c-afbf-486e-b248-1d54982f54b4.jpg\",\"img/0901/33b51a81-06d9-46d9-9d4f-5a2d6d6b8058.jpg\"]","trial_type":"similarity","trial_index":103,"time_elapsed":961888,"internal_node_id":"0.0-6.0-97.0"},{"sim_score":1,"rt":5820,"stimulus":"[\"img/0875/8521fd58-3b1e-4dc5-97ae-804edfa6734a.jpg\",\"img/0766/27f54113-8561-4568-9ffe-0a1650ae65ec.jpg\"]","trial_type":"similarity","trial_index":104,"time_elapsed":968729,"internal_node_id":"0.0-6.0-98.0"},{"sim_score":7,"rt":4283,"stimulus":"[\"img/0758/d540bee6-b460-4c32-ac57-bc282742d7d4.jpg\",\"img/0874/99f6563c-8a8d-4c1c-a41d-667b618c3fd5.jpg\"]","trial_type":"similarity","trial_index":105,"time_elapsed":974031,"internal_node_id":"0.0-6.0-99.0"},{"sim_score":2,"rt":11807,"stimulus":"[\"img/0904/96e503ea-6630-4996-85f2-0237688ce441.jpg\",\"img/0868/8b0b8473-e2c0-4331-aa56-c3a5c29369da.jpg\"]","trial_type":"similarity","trial_index":106,"time_elapsed":986855,"internal_node_id":"0.0-6.0-100.0"},{"sim_score":2,"rt":4282,"stimulus":"[\"img/0903/14f179a2-8786-48a2-8377-88d1d404341b.jpg\",\"img/0866/4a87911a-d5be-4d4e-ab8e-3d1f581bf507.jpg\"]","trial_type":"similarity","trial_index":107,"time_elapsed":992154,"internal_node_id":"0.0-6.0-101.0"},{"sim_score":5,"rt":9487,"stimulus":"[\"img/0868/6a28c3b0-3d76-498a-9fb7-ddafc665eca8.jpg\",\"img/0769/48a1144d-fbda-4809-991b-fc8424a32ee4.jpg\"]","trial_type":"similarity","trial_index":108,"time_elapsed":1002656,"internal_node_id":"0.0-6.0-102.0"},{"sim_score":5,"rt":5869,"stimulus":"[\"img/0902/b03129ba-b087-4558-af37-e8399d6217d6.jpg\",\"img/0899/76ad07e2-ca25-45eb-84f2-8d80b8ca3e26.jpg\"]","trial_type":"similarity","trial_index":109,"time_elapsed":1009541,"internal_node_id":"0.0-6.0-103.0"},{"sim_score":2,"rt":4331,"stimulus":"[\"img/0868/09a9ef4d-d000-4cfa-a6aa-ebec7c2edeb4.jpg\",\"img/0862/cdaed51d-9e2f-4807-801a-4663c40077e2.jpg\"]","trial_type":"similarity","trial_index":110,"time_elapsed":1014889,"internal_node_id":"0.0-6.0-104.0"},{"sim_score":3,"rt":5199,"stimulus":"[\"img/0903/c708d08f-a108-4e04-8288-c3fcf6375db4.jpg\",\"img/0894/0130a973-d993-41f8-874a-fee23d9ac11f.jpg\"]","trial_type":"similarity","trial_index":111,"time_elapsed":1021109,"internal_node_id":"0.0-6.0-105.0"},{"sim_score":6,"rt":5162,"stimulus":"[\"img/0864/f92649a2-0590-4d31-9a7a-1bfb81666a2d.jpg\",\"img/0874/ca23d307-fc00-4d7d-9106-584c6eb21b4d.jpg\"]","trial_type":"similarity","trial_index":112,"time_elapsed":1027300,"internal_node_id":"0.0-6.0-106.0"},{"sim_score":4,"rt":3830,"stimulus":"[\"img/0862/1c20f772-3a51-4a80-aac0-f57dc9f86c28.jpg\",\"img/0902/01b41522-de46-4c3a-b0af-a61b2682b40e.jpg\"]","trial_type":"similarity","trial_index":113,"time_elapsed":1032157,"internal_node_id":"0.0-6.0-107.0"},{"sim_score":5,"rt":4967,"stimulus":"[\"img/0904/1d10df11-b5c8-4370-9a6b-097a7f965895.jpg\",\"img/0903/6f343da5-00d9-4d50-89d1-2ed24cdb8319.jpg\"]","trial_type":"similarity","trial_index":114,"time_elapsed":1038144,"internal_node_id":"0.0-6.0-108.0"},{"sim_score":2,"rt":4925,"stimulus":"[\"img/0764/c84fbfa8-521c-407a-9bd3-24f7308d896c.jpg\",\"img/0864/e02eddb5-f468-499c-91bf-f7be3ffe979b.jpg\"]","trial_type":"similarity","trial_index":115,"time_elapsed":1044088,"internal_node_id":"0.0-6.0-109.0"},{"sim_score":1,"rt":4268,"stimulus":"[\"img/0866/11a1d141-be5e-443c-98c1-a9d4d9e3dec0.jpg\",\"img/0894/b2d2f66e-e480-46da-a02a-6d0c6b285d78.jpg\"]","trial_type":"similarity","trial_index":116,"time_elapsed":1049375,"internal_node_id":"0.0-6.0-110.0"},{"sim_score":6,"rt":6224,"stimulus":"[\"img/0899/a048912c-b12c-40e3-90af-46b69b0cc4fe.jpg\",\"img/0903/5c6b1f57-b3a2-40f5-9fb1-82785e24b6a0.jpg\"]","trial_type":"similarity","trial_index":117,"time_elapsed":1056618,"internal_node_id":"0.0-6.0-111.0"},{"sim_score":7,"rt":4449,"stimulus":"[\"img/0902/7499db23-3a41-41ea-ab5b-6ab4d4c3ed35.jpg\",\"img/0904/63dd06dd-dccb-47ba-9740-eb33239e18a7.jpg\"]","trial_type":"similarity","trial_index":118,"time_elapsed":1062080,"internal_node_id":"0.0-6.0-112.0"},{"sim_score":2,"rt":4804,"stimulus":"[\"img/0864/efcfbb1b-8197-44c9-b723-40d6c608dd3c.jpg\",\"img/0860/d9a0d117-6d1d-41c0-8fec-9aff0fd9e9f2.jpg\"]","trial_type":"similarity","trial_index":119,"time_elapsed":1067900,"internal_node_id":"0.0-6.0-113.0"},{"sim_score":4,"rt":4443,"stimulus":"[\"img/0860/e8b8c51e-1834-4875-8b61-6c5bc9b178bd.jpg\",\"img/0899/d60714ae-98d7-4564-8c98-94dba1351135.jpg\"]","trial_type":"similarity","trial_index":120,"time_elapsed":1073357,"internal_node_id":"0.0-6.0-114.0"},{"sim_score":2,"rt":6541,"stimulus":"[\"img/0881/c24f3051-eefa-42de-aba6-fccb56d93c70.jpg\",\"img/0903/9b60ef5b-234f-4239-892b-3d4c412accc2.jpg\"]","trial_type":"similarity","trial_index":121,"time_elapsed":1080916,"internal_node_id":"0.0-6.0-115.0"},{"sim_score":2,"rt":6261,"stimulus":"[\"img/0894/6aa5545f-fa7d-4286-bbaa-aaf34dc7ec96.jpg\",\"img/0874/767f289c-9814-4496-803f-745cc8913d1f.jpg\"]","trial_type":"similarity","trial_index":122,"time_elapsed":1088194,"internal_node_id":"0.0-6.0-116.0"},{"sim_score":2,"rt":5177,"stimulus":"[\"img/0881/609a5e93-38b5-4940-8627-2bf8fad7f802.jpg\",\"img/0862/7918ca67-5bd3-4606-a5ea-c39fb11a9297.jpg\"]","trial_type":"similarity","trial_index":123,"time_elapsed":1094398,"internal_node_id":"0.0-6.0-117.0"},{"sim_score":6,"rt":6237,"stimulus":"[\"img/0868/4a8a45ed-2c4f-421b-9564-409a33ecd26c.jpg\",\"img/0875/2c361b79-c3d1-4eda-812e-bf03192407bf.jpg\"]","trial_type":"similarity","trial_index":124,"time_elapsed":1101659,"internal_node_id":"0.0-6.0-118.0"},{"sim_score":5,"rt":9357,"stimulus":"[\"img/0860/702bd09d-df3a-40aa-a267-5f04474305b5.jpg\",\"img/0758/b76ceca7-95ac-46e4-ac13-da02c8e93be9.jpg\"]","trial_type":"similarity","trial_index":125,"time_elapsed":1112037,"internal_node_id":"0.0-6.0-119.0"},{"sim_score":5,"rt":6499,"stimulus":"[\"img/0864/49150900-7f25-4ce8-8d10-9b47a71d1997.jpg\",\"img/0875/ebf7653f-ff45-4e9f-af58-2c042ab3cd2b.jpg\"]","trial_type":"similarity","trial_index":126,"time_elapsed":1119551,"internal_node_id":"0.0-6.0-120.0"},{"sim_score":2,"rt":4718,"stimulus":"[\"img/0898/04e39a7a-fcf6-4156-ab0e-f5871f335e1c.jpg\",\"img/0866/945c6710-d15b-4a5b-a8f6-69af0850357f.jpg\"]","trial_type":"similarity","trial_index":127,"time_elapsed":1125287,"internal_node_id":"0.0-6.0-121.0"},{"sim_score":5,"rt":5977,"stimulus":"[\"img/0874/93d1f8dc-acf2-4f03-bd8d-8ec35df276ed.jpg\",\"img/0904/09934646-45d2-4147-8fec-64a22a5ac822.jpg\"]","trial_type":"similarity","trial_index":128,"time_elapsed":1132282,"internal_node_id":"0.0-6.0-122.0"},{"sim_score":5,"rt":6072,"stimulus":"[\"img/0904/09dac84f-3d1c-4445-a68e-d0389fdbf1e9.jpg\",\"img/0864/3651d070-2fc5-4848-b6a6-088a2d9ac5c9.jpg\"]","trial_type":"similarity","trial_index":129,"time_elapsed":1139366,"internal_node_id":"0.0-6.0-123.0"},{"sim_score":3,"rt":4997,"stimulus":"[\"img/0894/151063aa-6472-4745-837b-36603aba5966.jpg\",\"img/0902/a6fb6dd5-696c-47ec-be7d-d7b88f1544f1.jpg\"]","trial_type":"similarity","trial_index":130,"time_elapsed":1145378,"internal_node_id":"0.0-6.0-124.0"},{"sim_score":1,"rt":4316,"stimulus":"[\"img/0868/4e626425-63c8-484a-8a1d-e66ee4e0bef8.jpg\",\"img/0864/afcba0a3-7e27-4757-b254-e9f05fad27e2.jpg\"]","trial_type":"similarity","trial_index":131,"time_elapsed":1174270,"internal_node_id":"0.0-6.0-125.0"},{"sim_score":5,"rt":6852,"stimulus":"[\"img/0899/4408c14d-c168-4a7d-96f6-bc87bfb58f83.jpg\",\"img/0866/a04d37f0-99dd-478a-b6c6-58b215138f84.jpg\"]","trial_type":"similarity","trial_index":132,"time_elapsed":1182153,"internal_node_id":"0.0-6.0-126.0"},{"sim_score":4,"rt":9720,"stimulus":"[\"img/0875/90da8d75-108a-44ad-b999-e21fee3860d3.jpg\",\"img/0904/56e73f28-7e64-489b-a161-e6b1a063878d.jpg\"]","trial_type":"similarity","trial_index":133,"time_elapsed":1192892,"internal_node_id":"0.0-6.0-127.0"},{"sim_score":2,"rt":3957,"stimulus":"[\"img/0867/6e19c858-b606-45b2-a4c6-910a73f1d82c.jpg\",\"img/0899/25ae6ec8-9565-49fe-a8bb-8d0666f52716.jpg\"]","trial_type":"similarity","trial_index":134,"time_elapsed":1197864,"internal_node_id":"0.0-6.0-128.0"},{"sim_score":1,"rt":6055,"stimulus":"[\"img/0901/31c032fd-3c3d-4882-a226-da9a80198937.jpg\",\"img/0867/7d1c497b-c1b3-4ed8-abb5-d7f73306015f.jpg\"]","trial_type":"similarity","trial_index":135,"time_elapsed":1204938,"internal_node_id":"0.0-6.0-129.0"},{"sim_score":5,"rt":5933,"stimulus":"[\"img/0864/6e846d43-94a6-4b37-a268-65eda979f052.jpg\",\"img/0769/688d0c52-ad73-4065-a5eb-f8c10d076bff.jpg\"]","trial_type":"similarity","trial_index":136,"time_elapsed":1211886,"internal_node_id":"0.0-6.0-130.0"},{"sim_score":2,"rt":5303,"stimulus":"[\"img/0903/6378ee1e-3d2b-48d2-87be-bebda32c8268.jpg\",\"img/0868/83b4350a-3b70-4cea-b7f5-b5b56f3050a8.jpg\"]","trial_type":"similarity","trial_index":137,"time_elapsed":1218205,"internal_node_id":"0.0-6.0-131.0"},{"sim_score":1,"rt":3264,"stimulus":"[\"img/0864/c22faebd-9c53-47bc-ada3-b9a30c688e75.jpg\",\"img/0867/075e0f95-856b-4cbb-acf5-092393aaf04e.jpg\"]","trial_type":"similarity","trial_index":138,"time_elapsed":1222486,"internal_node_id":"0.0-6.0-132.0"},{"sim_score":7,"rt":5673,"stimulus":"[\"img/0901/233a6948-48eb-4b67-8259-222b916b2322.jpg\",\"img/0860/5bff793e-cbd5-4d7e-b628-0ac2b0e30b64.jpg\"]","trial_type":"similarity","trial_index":139,"time_elapsed":1229188,"internal_node_id":"0.0-6.0-133.0"},{"sim_score":6,"rt":3673,"stimulus":"[\"img/0881/44e09805-5a25-4f17-a716-4ad4a331b174.jpg\",\"img/0766/d5d38751-8fa5-476f-93e9-86ed2d9045ef.jpg\"]","trial_type":"similarity","trial_index":140,"time_elapsed":1233885,"internal_node_id":"0.0-6.0-134.0"},{"sim_score":5,"rt":7879,"stimulus":"[\"img/0903/f45a103c-9bfe-49fd-ad96-bdd8d2589195.jpg\",\"img/0864/ef9cbca0-4be8-435d-ad49-977259e80409.jpg\"]","trial_type":"similarity","trial_index":141,"time_elapsed":1242784,"internal_node_id":"0.0-6.0-135.0"},{"sim_score":3,"rt":3884,"stimulus":"[\"img/0758/20497cbe-ddae-489e-86e2-ab06985ed07c.jpg\",\"img/0894/7fb082e0-ce79-485c-9109-04367fb32275.jpg\"]","trial_type":"similarity","trial_index":142,"time_elapsed":1247687,"internal_node_id":"0.0-6.0-136.0"},{"sim_score":1,"rt":5377,"stimulus":"[\"img/0769/9ea27d61-3d55-418c-8d14-82e90f656f01.jpg\",\"img/0860/c47fdead-eb02-4989-b078-26f4852f44fe.jpg\"]","trial_type":"similarity","trial_index":143,"time_elapsed":1254082,"internal_node_id":"0.0-6.0-137.0"},{"sim_score":5,"rt":4922,"stimulus":"[\"img/0904/25365108-e038-4021-aac9-797f2063b337.jpg\",\"img/0766/33aa9ebb-c9f5-418f-8c8b-c77861889568.jpg\"]","trial_type":"similarity","trial_index":144,"time_elapsed":1260020,"internal_node_id":"0.0-6.0-138.0"},{"sim_score":2,"rt":7542,"stimulus":"[\"img/0868/fd307a36-9a3a-47d7-ab7c-f810d0b35040.jpg\",\"img/0860/15b24a61-25be-4356-9eac-5ce95d0cb4a4.jpg\"]","trial_type":"similarity","trial_index":145,"time_elapsed":1268576,"internal_node_id":"0.0-6.0-139.0"},{"sim_score":6,"rt":4242,"stimulus":"[\"img/0758/a085b443-b5d7-4cb2-9ad4-b9dab0fc23f1.jpg\",\"img/0864/e8bd659f-aa43-4748-877e-3118e8b4e189.jpg\"]","trial_type":"similarity","trial_index":146,"time_elapsed":1273835,"internal_node_id":"0.0-6.0-140.0"},{"sim_score":7,"rt":3510,"stimulus":"[\"img/0867/98d8cd96-1476-4fe0-a3a3-04f875500a1b.jpg\",\"img/0867/db7e032f-162b-46f5-ae67-2b29679adee4.jpg\"]","trial_type":"similarity","trial_index":147,"time_elapsed":1278361,"internal_node_id":"0.0-6.0-141.0"},{"sim_score":7,"rt":4622,"stimulus":"[\"img/0898/6cd3830b-d44e-4915-be2b-88d31424b91c.jpg\",\"img/0898/82231d4c-218b-4d0a-b50d-35a49b524e97.jpg\"]","trial_type":"similarity","trial_index":148,"time_elapsed":1284000,"internal_node_id":"0.0-6.0-142.0"},{"sim_score":2,"rt":8646,"stimulus":"[\"img/0866/8efcaa46-83ab-4dee-a35f-850402aa21ae.jpg\",\"img/0769/d1be2815-fa79-46e8-b5c3-7d81caaca490.jpg\"]","trial_type":"similarity","trial_index":149,"time_elapsed":1293663,"internal_node_id":"0.0-6.0-143.0"},{"sim_score":6,"rt":4109,"stimulus":"[\"img/0860/9593362c-9fe5-4d12-9735-6000a11f6aa5.jpg\",\"img/0898/224c1572-56b9-4f16-a9e4-6f3bc9c114bd.jpg\"]","trial_type":"similarity","trial_index":150,"time_elapsed":1298796,"internal_node_id":"0.0-6.0-144.0"},{"sim_score":6,"rt":5754,"stimulus":"[\"img/0766/110832e5-2646-4bd0-a94e-5df8cc314269.jpg\",\"img/0864/e336a4c5-6648-4fd7-b2f6-93a3fb83f8c6.jpg\"]","trial_type":"similarity","trial_index":151,"time_elapsed":1305567,"internal_node_id":"0.0-6.0-145.0"},{"sim_score":6,"rt":8291,"stimulus":"[\"img/0860/5383b320-1518-4095-a58e-5cc1ae30b64c.jpg\",\"img/0903/f1fa0f8d-e62b-4b4a-a174-31a0fabfe61b.jpg\"]","trial_type":"similarity","trial_index":152,"time_elapsed":1314880,"internal_node_id":"0.0-6.0-146.0"},{"sim_score":3,"rt":6093,"stimulus":"[\"img/0867/f26f6b60-f772-4f4c-95a4-addc62cfd692.jpg\",\"img/0764/50f1b062-d608-4bc0-ab25-b872dcf2ed93.jpg\"]","trial_type":"similarity","trial_index":153,"time_elapsed":1321998,"internal_node_id":"0.0-6.0-147.0"},{"sim_score":7,"rt":4758,"stimulus":"[\"img/0769/ebef2ddc-ba59-4e0e-97f8-927864eb5081.jpg\",\"img/0904/fe746a3f-8458-48d0-8a13-8cba2a9df9f8.jpg\"]","trial_type":"similarity","trial_index":154,"time_elapsed":1327772,"internal_node_id":"0.0-6.0-148.0"},{"sim_score":5,"rt":7469,"stimulus":"[\"img/0764/39a9fc7e-b863-432c-9374-de43983f31a5.jpg\",\"img/0901/168eb52c-c415-43f1-b5c8-e76e1a1ec247.jpg\"]","trial_type":"similarity","trial_index":155,"time_elapsed":1336259,"internal_node_id":"0.0-6.0-149.0"},{"sim_score":6,"rt":5510,"stimulus":"[\"img/0904/4b8daf2a-13a9-4ea9-9e0b-b265b6e933e7.jpg\",\"img/0899/b45c550b-96c3-4255-ad59-48a2b4db1c1e.jpg\"]","trial_type":"similarity","trial_index":156,"time_elapsed":1342788,"internal_node_id":"0.0-6.0-150.0"},{"sim_score":1,"rt":6988,"stimulus":"[\"img/0862/064818ee-13d5-4618-bb24-21c7368ea278.jpg\",\"img/0867/cc72ed48-7704-422c-86d6-467a1145287a.jpg\"]","trial_type":"similarity","trial_index":157,"time_elapsed":1350802,"internal_node_id":"0.0-6.0-151.0"},{"sim_score":7,"rt":4082,"stimulus":"[\"img/0766/75c3d627-4f3b-40d5-9d9c-10c8a62db644.jpg\",\"img/0766/535849cc-ff5d-4df9-8f31-0ce94a97d571.jpg\"]","trial_type":"similarity","trial_index":158,"time_elapsed":1355903,"internal_node_id":"0.0-6.0-152.0"},{"sim_score":2,"rt":3929,"stimulus":"[\"img/0862/47ed5efd-4ec9-4b74-bb4e-a5f5cf0c3e7d.jpg\",\"img/0894/86201968-6e78-4d68-9b3a-d1692e066210.jpg\"]","trial_type":"similarity","trial_index":159,"time_elapsed":1360852,"internal_node_id":"0.0-6.0-153.0"},{"sim_score":5,"rt":3929,"stimulus":"[\"img/0899/00715b3f-851b-420b-a26b-d7f79f7759a9.jpg\",\"img/0901/c6df1a21-44ed-47c2-960e-7c52220e329e.jpg\"]","trial_type":"similarity","trial_index":160,"time_elapsed":1365805,"internal_node_id":"0.0-6.0-154.0"},{"sim_score":7,"rt":5150,"stimulus":"[\"img/0874/bf14b896-e930-4fd9-9c05-2e83317a2773.jpg\",\"img/0874/c0378dac-9370-439a-8b79-db27c96fb390.jpg\"]","trial_type":"similarity","trial_index":161,"time_elapsed":1371972,"internal_node_id":"0.0-6.0-155.0"},{"sim_score":1,"rt":5946,"stimulus":"[\"img/0860/fd4662f9-4c03-4d79-8593-06735e55a64b.jpg\",\"img/0867/26611f4e-d694-4460-b7e2-43c62753ddc3.jpg\"]","trial_type":"similarity","trial_index":162,"time_elapsed":1378938,"internal_node_id":"0.0-6.0-156.0"},{"sim_score":3,"rt":7853,"stimulus":"[\"img/0901/4ca4f962-40c0-4c59-b14a-3cd7b8c9029b.jpg\",\"img/0881/e6746727-7f89-47ec-b939-d98abe78372d.jpg\"]","trial_type":"similarity","trial_index":163,"time_elapsed":1387817,"internal_node_id":"0.0-6.0-157.0"},{"sim_score":6,"rt":3708,"stimulus":"[\"img/0903/6a87dbad-9b8d-4ff5-9c41-03c9aa24f0c3.jpg\",\"img/0902/71c03003-03ef-4b0f-8229-e0c857150a5d.jpg\"]","trial_type":"similarity","trial_index":164,"time_elapsed":1392540,"internal_node_id":"0.0-6.0-158.0"},{"sim_score":7,"rt":5826,"stimulus":"[\"img/0860/8fdba999-b946-4c7d-9891-336018b563ef.jpg\",\"img/0764/4bec8d92-75aa-475a-954d-8215dbe538f5.jpg\"]","trial_type":"similarity","trial_index":165,"time_elapsed":1399384,"internal_node_id":"0.0-6.0-159.0"},{"sim_score":2,"rt":6927,"stimulus":"[\"img/0902/8065aa6b-4aef-4368-afa2-02c6465ca582.jpg\",\"img/0875/e7e66b13-b573-431e-b85e-288ce04a35a3.jpg\"]","trial_type":"similarity","trial_index":166,"time_elapsed":1407328,"internal_node_id":"0.0-6.0-160.0"},{"sim_score":6,"rt":4811,"stimulus":"[\"img/0898/a8f16b02-e19f-423b-86c3-a36562ae1f9b.jpg\",\"img/0862/f23038d4-c366-4f70-979f-66b62362efa4.jpg\"]","trial_type":"similarity","trial_index":167,"time_elapsed":1413154,"internal_node_id":"0.0-6.0-161.0"},{"sim_score":5,"rt":5060,"stimulus":"[\"img/0894/767a0eec-1064-46b1-b1aa-dfa02b0cd74e.jpg\",\"img/0875/2e13d160-eea1-416b-aff1-d37ab99ecc1d.jpg\"]","trial_type":"similarity","trial_index":168,"time_elapsed":1419228,"internal_node_id":"0.0-6.0-162.0"},{"sim_score":1,"rt":6281,"stimulus":"[\"img/0866/07c9c966-3c8d-40e7-8128-92b2acbaed5d.jpg\",\"img/0864/65210d57-1153-4657-886a-32e758f49b4a.jpg\"]","trial_type":"similarity","trial_index":169,"time_elapsed":1426523,"internal_node_id":"0.0-6.0-163.0"},{"sim_score":1,"rt":4109,"stimulus":"[\"img/0766/60033a74-9919-47e5-913c-71d0d483e7e5.jpg\",\"img/0862/5d887e9f-89e2-4ebc-80a0-6d46fe6480db.jpg\"]","trial_type":"similarity","trial_index":170,"time_elapsed":1431647,"internal_node_id":"0.0-6.0-164.0"},{"sim_score":2,"rt":5096,"stimulus":"[\"img/0866/9b38d691-1802-4959-ab3f-fc902f0e4ea6.jpg\",\"img/0874/3ce41e7c-40c8-4d58-a546-171114521796.jpg\"]","trial_type":"similarity","trial_index":171,"time_elapsed":1437757,"internal_node_id":"0.0-6.0-165.0"},{"sim_score":7,"rt":4564,"stimulus":"[\"img/0862/e697469a-ec19-4414-b972-7b9f3564785b.jpg\",\"img/0860/71e1aad0-2cdf-43bb-94a4-a8c016997c30.jpg\"]","trial_type":"similarity","trial_index":172,"time_elapsed":1443337,"internal_node_id":"0.0-6.0-166.0"},{"sim_score":6,"rt":4011,"stimulus":"[\"img/0766/51d3aab4-3d09-4dda-b99d-3dc7aaabc6f2.jpg\",\"img/0901/1e23ffbd-19de-4c4f-aa23-c54aaa3319a3.jpg\"]","trial_type":"similarity","trial_index":173,"time_elapsed":1458741,"internal_node_id":"0.0-6.0-167.0"},{"sim_score":7,"rt":3781,"stimulus":"[\"img/0862/f43ceabf-acc1-4107-b857-5d1849808f93.jpg\",\"img/0862/de9ad88c-b522-430a-8ee9-eb06a9f85df5.jpg\"]","trial_type":"similarity","trial_index":174,"time_elapsed":1463537,"internal_node_id":"0.0-6.0-168.0"},{"sim_score":6,"rt":5035,"stimulus":"[\"img/0894/38cf335f-f76f-4349-8d65-e20cd6859565.jpg\",\"img/0764/952d7adc-dc40-4aee-acce-18c2a1d02ea1.jpg\"]","trial_type":"similarity","trial_index":175,"time_elapsed":1469591,"internal_node_id":"0.0-6.0-169.0"},{"sim_score":5,"rt":5423,"stimulus":"[\"img/0874/995f0332-0439-4eb4-add3-957335dbf6d9.jpg\",\"img/0898/81b08535-2020-4c15-9ce4-2f1e460755ae.jpg\"]","trial_type":"similarity","trial_index":176,"time_elapsed":1476028,"internal_node_id":"0.0-6.0-170.0"},{"sim_score":2,"rt":5095,"stimulus":"[\"img/0860/4c530c3c-6aab-492a-94d1-9c01797bde40.jpg\",\"img/0766/3c526a07-9e0a-4ae2-8142-00085f0127da.jpg\"]","trial_type":"similarity","trial_index":177,"time_elapsed":1482136,"internal_node_id":"0.0-6.0-171.0"},{"sim_score":2,"rt":5667,"stimulus":"[\"img/0898/cd3aaa3f-efa9-4ab3-8d6f-a6a9273ddf42.jpg\",\"img/0864/da39ad34-04e0-40d4-a724-c08d53e0ea09.jpg\"]","trial_type":"similarity","trial_index":178,"time_elapsed":1488828,"internal_node_id":"0.0-6.0-172.0"},{"sim_score":5,"rt":4044,"stimulus":"[\"img/0881/62a64f90-7a72-4aee-a1a1-0c548ac9bdda.jpg\",\"img/0764/cffc80b0-4a90-4acb-a530-6f480f3ca303.jpg\"]","trial_type":"similarity","trial_index":179,"time_elapsed":1493897,"internal_node_id":"0.0-6.0-173.0"},{"sim_score":2,"rt":4406,"stimulus":"[\"img/0898/4184e5a2-84ea-4f36-9b42-ae58646f6f87.jpg\",\"img/0868/5fa7f9d0-f0e5-454c-8224-74d964818f56.jpg\"]","trial_type":"similarity","trial_index":180,"time_elapsed":1499324,"internal_node_id":"0.0-6.0-174.0"},{"sim_score":7,"rt":6474,"stimulus":"[\"img/0864/9b2490c5-a282-400a-9736-e1a0ecbf1cb7.jpg\",\"img/0864/5f33e097-23e3-4002-882d-76e8cb15f451.jpg\"]","trial_type":"similarity","trial_index":181,"time_elapsed":1506818,"internal_node_id":"0.0-6.0-175.0"},{"sim_score":2,"rt":5774,"stimulus":"[\"img/0899/a05bea16-2bb4-4cb9-b8fb-4ff975db6971.jpg\",\"img/0862/57b6f83f-c763-4858-830d-102f97bfefbf.jpg\"]","trial_type":"similarity","trial_index":182,"time_elapsed":1513611,"internal_node_id":"0.0-6.0-176.0"},{"sim_score":3,"rt":9854,"stimulus":"[\"img/0875/5a7c4e35-6514-4e12-8879-d16071da4cd6.jpg\",\"img/0758/3ddd05d3-557e-4ee7-8b78-9d2d681d8ae2.jpg\"]","trial_type":"similarity","trial_index":183,"time_elapsed":1524479,"internal_node_id":"0.0-6.0-177.0"},{"sim_score":3,"rt":7485,"stimulus":"[\"img/0866/6f2a90d7-14f1-4f1b-bd64-fc0af6b9fe44.jpg\",\"img/0901/58978a6d-a3e2-4c59-8d62-f60693ecc0f6.jpg\"]","trial_type":"similarity","trial_index":184,"time_elapsed":1532983,"internal_node_id":"0.0-6.0-178.0"},{"sim_score":3,"rt":5520,"stimulus":"[\"img/0769/04347740-f8f6-48bb-887a-f68babd0a0d4.jpg\",\"img/0874/8cdb1c07-1c32-46d2-981c-3636560fa6e5.jpg\"]","trial_type":"similarity","trial_index":185,"time_elapsed":1539521,"internal_node_id":"0.0-6.0-179.0"},{"sim_score":4,"rt":4698,"stimulus":"[\"img/0875/99698b4d-b4a1-44bc-8c83-8ea755bbbf61.jpg\",\"img/0881/f037e3b0-09cb-4a83-b2d9-6a71fe474e63.jpg\"]","trial_type":"similarity","trial_index":186,"time_elapsed":1545237,"internal_node_id":"0.0-6.0-180.0"},{"sim_score":5,"rt":5513,"stimulus":"[\"img/0866/02f5e6b9-52b7-448c-9708-5b460d0c9a23.jpg\",\"img/0868/15dd6fd7-791e-4b53-b203-195d617521a4.jpg\"]","trial_type":"similarity","trial_index":187,"time_elapsed":1551779,"internal_node_id":"0.0-6.0-181.0"},{"sim_score":5,"rt":4229,"stimulus":"[\"img/0899/0433d056-aa30-4f8a-9aa1-abbb951e4edd.jpg\",\"img/0758/335851a0-a55b-46d8-ab05-8463eda48349.jpg\"]","trial_type":"similarity","trial_index":188,"time_elapsed":1557034,"internal_node_id":"0.0-6.0-182.0"},{"sim_score":7,"rt":4836,"stimulus":"[\"img/0874/3f471690-9788-4d03-90c7-f615aecef149.jpg\",\"img/0875/fb732ab5-013a-4366-9f65-27811ed157e9.jpg\"]","trial_type":"similarity","trial_index":189,"time_elapsed":1562889,"internal_node_id":"0.0-6.0-183.0"},{"sim_score":2,"rt":5173,"stimulus":"[\"img/0904/d23dd7be-7fe8-4435-82f7-bd592c01e6a1.jpg\",\"img/0862/53a9cf7c-93c4-41b9-952f-07d17f7a17b2.jpg\"]","trial_type":"similarity","trial_index":190,"time_elapsed":1569079,"internal_node_id":"0.0-6.0-184.0"},{"sim_score":5,"rt":9251,"stimulus":"[\"img/0902/b56db912-c3c0-4fc2-b325-d640acd7cb58.jpg\",\"img/0766/ae0fce93-fe8d-4aa1-87ca-4c3e4b889f2f.jpg\"]","trial_type":"similarity","trial_index":191,"time_elapsed":1579348,"internal_node_id":"0.0-6.0-185.0"},{"sim_score":5,"rt":4883,"stimulus":"[\"img/0758/e38fd80d-18d0-42f3-b848-f930788e8bd7.jpg\",\"img/0769/e31b3bd8-efcb-413e-aa8c-75fac2b8f2ac.jpg\"]","trial_type":"similarity","trial_index":192,"time_elapsed":1585251,"internal_node_id":"0.0-6.0-186.0"},{"sim_score":7,"rt":5094,"stimulus":"[\"img/0881/f8bd891e-aa09-4782-89db-33e7cb2b0cf1.jpg\",\"img/0881/f4e3e181-b3c9-4af2-a5a4-fc135ab70d2e.jpg\"]","trial_type":"similarity","trial_index":193,"time_elapsed":1591359,"internal_node_id":"0.0-6.0-187.0"},{"sim_score":5,"rt":5676,"stimulus":"[\"img/0758/d41c06bf-ebaf-454b-91c6-1a17f917b659.jpg\",\"img/0866/93a27239-8317-4e08-98ca-d8b1ff298e07.jpg\"]","trial_type":"similarity","trial_index":194,"time_elapsed":1598052,"internal_node_id":"0.0-6.0-188.0"},{"sim_score":5,"rt":5442,"stimulus":"[\"img/0764/b8e23f4f-ff19-4472-ad9b-2f85548ebca0.jpg\",\"img/0898/68476bbb-34a1-42d9-8bc1-deab783d4489.jpg\"]","trial_type":"similarity","trial_index":195,"time_elapsed":1604509,"internal_node_id":"0.0-6.0-189.0"},{"sim_score":5,"rt":7323,"stimulus":"[\"img/0903/0fb24af7-9a26-4e9d-aadc-959a36f683e2.jpg\",\"img/0901/71e551a2-9ce2-409c-9c7c-dd556a0791e9.jpg\"]","trial_type":"similarity","trial_index":196,"time_elapsed":1612850,"internal_node_id":"0.0-6.0-190.0"},{"sim_score":7,"rt":4716,"stimulus":"[\"img/0902/12452bb1-b8c0-4e4d-ad4d-47e279e5933c.jpg\",\"img/0898/5f699581-3853-4547-856c-12f419ba5af7.jpg\"]","trial_type":"similarity","trial_index":197,"time_elapsed":1618591,"internal_node_id":"0.0-6.0-191.0"},{"sim_score":4,"rt":9588,"stimulus":"[\"img/0864/ea327690-500b-4137-bf91-451b309fe6a5.jpg\",\"img/0901/2a953e50-d237-405c-a38d-5ed21494c968.jpg\"]","trial_type":"similarity","trial_index":198,"time_elapsed":1629198,"internal_node_id":"0.0-6.0-192.0"},{"sim_score":2,"rt":4618,"stimulus":"[\"img/0894/c505c65a-cde2-4f2c-8cde-f8676f7c894d.jpg\",\"img/0881/344de456-b358-4887-bd0e-e4c3278af887.jpg\"]","trial_type":"similarity","trial_index":199,"time_elapsed":1634836,"internal_node_id":"0.0-6.0-193.0"},{"sim_score":7,"rt":4023,"stimulus":"[\"img/0868/d6d1f30d-4323-435a-b194-7892521bc57e.jpg\",\"img/0868/d98ca254-b195-477f-b57e-5760a2717db8.jpg\"]","trial_type":"similarity","trial_index":200,"time_elapsed":1639878,"internal_node_id":"0.0-6.0-194.0"},{"sim_score":6,"rt":4332,"stimulus":"[\"img/0899/9de5e857-aa9a-4e0c-8ba2-46d79bd069a4.jpg\",\"img/0764/0e7ed062-f798-4366-8a24-6f430926f919.jpg\"]","trial_type":"similarity","trial_index":201,"time_elapsed":1645236,"internal_node_id":"0.0-6.0-195.0"},{"sim_score":5,"rt":6184,"stimulus":"[\"img/0881/7e31e5dc-2240-4b1b-b5a0-3acd980099ef.jpg\",\"img/0904/2fd488e9-960f-41f7-8a44-33375f7d5051.jpg\"]","trial_type":"similarity","trial_index":202,"time_elapsed":1652439,"internal_node_id":"0.0-6.0-196.0"},{"sim_score":4,"rt":7046,"stimulus":"[\"img/0864/1ebbc554-99fa-49f9-8799-317375a79820.jpg\",\"img/0902/794606a0-d8a8-4e58-8bf8-9d114ed5a548.jpg\"]","trial_type":"similarity","trial_index":203,"time_elapsed":1660503,"internal_node_id":"0.0-6.0-197.0"},{"sim_score":7,"rt":4710,"stimulus":"[\"img/0894/5ff3c4f6-52e2-4075-8679-be0312e59703.jpg\",\"img/0904/73920552-103b-4c9c-9ece-e0b8376b4504.jpg\"]","trial_type":"similarity","trial_index":204,"time_elapsed":1666230,"internal_node_id":"0.0-6.0-198.0"},{"sim_score":7,"rt":4029,"stimulus":"[\"img/0901/d61f267a-c492-4db6-9bfb-61efd49cf072.jpg\",\"img/0901/148b747a-7392-437e-8823-33053c5dff3f.jpg\"]","trial_type":"similarity","trial_index":205,"time_elapsed":1671277,"internal_node_id":"0.0-6.0-199.0"},{"sim_score":2,"rt":5323,"stimulus":"[\"img/0894/2d2db7b3-e8a3-499b-b63a-14f51bf73882.jpg\",\"img/0860/61fb959d-d4d9-4de4-9e4e-4fa62b4cfcd5.jpg\"]","trial_type":"similarity","trial_index":206,"time_elapsed":1677616,"internal_node_id":"0.0-6.0-200.0"},{"sim_score":5,"rt":6272,"stimulus":"[\"img/0898/08c72dac-f8ad-407a-9ce6-8c9a5d679c3a.jpg\",\"img/0903/72197c2b-403e-4a26-b391-f1aa8dea4b76.jpg\"]","trial_type":"similarity","trial_index":207,"time_elapsed":1684905,"internal_node_id":"0.0-6.0-201.0"},{"sim_score":1,"rt":4499,"stimulus":"[\"img/0864/5f74a653-3bdc-4308-8cca-ac667dc22e1f.jpg\",\"img/0894/11674fa4-285d-44e2-939f-2228c6a64080.jpg\"]","trial_type":"similarity","trial_index":208,"time_elapsed":1690422,"internal_node_id":"0.0-6.0-202.0"},{"sim_score":5,"rt":6914,"stimulus":"[\"img/0874/a82926a3-0b43-4add-803c-d5f9ea7798ee.jpg\",\"img/0860/4f695df5-afac-4da7-9875-fee39b0b24ad.jpg\"]","trial_type":"similarity","trial_index":209,"time_elapsed":1698355,"internal_node_id":"0.0-6.0-203.0"},{"sim_score":5,"rt":10966,"stimulus":"[\"img/0862/fad1d7c1-8187-43c3-942a-0fc12183e48e.jpg\",\"img/0875/527ced51-8e53-4aab-ab05-86df219104c0.jpg\"]","trial_type":"similarity","trial_index":210,"time_elapsed":1710347,"internal_node_id":"0.0-6.0-204.0"},{"sim_score":1,"rt":5264,"stimulus":"[\"img/0867/ac1797e4-8afc-48fe-b252-86d1defb1cca.jpg\",\"img/0881/292e9b4b-fca0-4ba8-87f1-4048f9e37b7d.jpg\"]","trial_type":"similarity","trial_index":211,"time_elapsed":1716630,"internal_node_id":"0.0-6.0-205.0"},{"sim_score":7,"rt":3820,"stimulus":"[\"img/0901/693e0535-ef7e-4d60-af9d-fac2f38e8307.jpg\",\"img/0902/95a36b6b-9601-4fa5-8fd9-606ea62f9425.jpg\"]","trial_type":"similarity","trial_index":212,"time_elapsed":1721468,"internal_node_id":"0.0-6.0-206.0"},{"sim_score":2,"rt":4981,"stimulus":"[\"img/0899/1b3457ea-87d4-4946-a01c-aac1863ed46c.jpg\",\"img/0864/0f537697-a314-47c3-a8cc-8df23b7e536c.jpg\"]","trial_type":"similarity","trial_index":213,"time_elapsed":1727479,"internal_node_id":"0.0-6.0-207.0"},{"sim_score":4,"rt":5055,"stimulus":"[\"img/0901/548d1110-7cb8-42a2-9927-9798875c8b5c.jpg\",\"img/0769/38a88f69-28fd-4bbd-99f0-f4c02bfd3995.jpg\"]","trial_type":"similarity","trial_index":214,"time_elapsed":1733555,"internal_node_id":"0.0-6.0-208.0"},{"sim_score":7,"rt":5475,"stimulus":"[\"img/0902/cdec1bc6-7f90-4f72-9e01-f5a4111bac1d.jpg\",\"img/0902/97022122-01e4-46c3-a34f-c6260ad28428.jpg\"]","trial_type":"similarity","trial_index":215,"time_elapsed":1747590,"internal_node_id":"0.0-6.0-209.0"},{"view_history":"[{\"page_index\":0,\"viewing_time\":7081}]","rt":7082,"trial_type":"instructions","trial_index":216,"time_elapsed":1755674,"internal_node_id":"0.0-7.0"},{"rt":74267,"responses":"{\"Q0\":\"Nashville Warbler\"}","answer":["Nashville Warbler"],"trial_type":"image-multi-choice","trial_index":217,"time_elapsed":1830985,"internal_node_id":"0.0-8.0-0.0"},{"rt":5938,"responses":"{\"Q0\":\"Black-and-white Warbler\"}","answer":["Black-and-white Warbler"],"trial_type":"image-multi-choice","trial_index":218,"time_elapsed":1837972,"internal_node_id":"0.0-8.0-1.0"},{"rt":40954,"responses":"{\"Q0\":\"Townsend's Warbler\"}","answer":["Townsend's Warbler"],"trial_type":"image-multi-choice","trial_index":219,"time_elapsed":1879963,"internal_node_id":"0.0-8.0-2.0"},{"rt":63149,"responses":"{\"Q0\":\"Lark Sparrow\"}","answer":["Lark Sparrow"],"trial_type":"image-multi-choice","trial_index":220,"time_elapsed":1944162,"internal_node_id":"0.0-8.0-3.0"},{"rt":4305,"responses":"{\"Q0\":\"Yellow Warbler\"}","answer":["Yellow Warbler"],"trial_type":"image-multi-choice","trial_index":221,"time_elapsed":1949509,"internal_node_id":"0.0-8.0-4.0"},{"rt":98837,"responses":"{\"Q0\":\"Orange-crowned Warbler\"}","answer":["Orange-crowned Warbler"],"trial_type":"image-multi-choice","trial_index":222,"time_elapsed":2049385,"internal_node_id":"0.0-8.0-5.0"},{"rt":5877,"responses":"{\"Q0\":\"White-crowned Sparrow\"}","answer":["White-throated Sparrow"],"trial_type":"image-multi-choice","trial_index":223,"time_elapsed":2056311,"internal_node_id":"0.0-8.0-6.0"},{"rt":4338,"responses":"{\"Q0\":\"Fox Sparrow\"}","answer":["Fox Sparrow"],"trial_type":"image-multi-choice","trial_index":224,"time_elapsed":2061699,"internal_node_id":"0.0-8.0-7.0"},{"rt":36085,"responses":"{\"Q0\":\"Song Sparrow\"}","answer":["Song Sparrow"],"trial_type":"image-multi-choice","trial_index":225,"time_elapsed":2098832,"internal_node_id":"0.0-8.0-8.0"},{"rt":8225,"responses":"{\"Q0\":\"Blackburnian Warbler\"}","answer":["Blackburnian Warbler"],"trial_type":"image-multi-choice","trial_index":226,"time_elapsed":2108088,"internal_node_id":"0.0-8.0-9.0"},{"rt":12667,"responses":"{\"Q0\":\"Lincoln's Sparrow\"}","answer":["Vesper Sparrow"],"trial_type":"image-multi-choice","trial_index":227,"time_elapsed":2121793,"internal_node_id":"0.0-8.0-10.0"},{"rt":8890,"responses":"{\"Q0\":\"White-crowned Sparrow\"}","answer":["White-crowned Sparrow"],"trial_type":"image-multi-choice","trial_index":228,"time_elapsed":2131738,"internal_node_id":"0.0-8.0-11.0"},{"rt":15091,"responses":"{\"Q0\":\"American Tree Sparrow\"}","answer":["American Tree Sparrow"],"trial_type":"image-multi-choice","trial_index":229,"time_elapsed":2147876,"internal_node_id":"0.0-8.0-12.0"},{"rt":27692,"responses":"{\"Q0\":\"Tennessee Warbler\"}","answer":["Tennessee Warbler"],"trial_type":"image-multi-choice","trial_index":230,"time_elapsed":2176604,"internal_node_id":"0.0-8.0-13.0"},{"rt":6204,"responses":"{\"Q0\":\"Magnolia Warbler\"}","answer":["Magnolia Warbler"],"trial_type":"image-multi-choice","trial_index":231,"time_elapsed":2183841,"internal_node_id":"0.0-8.0-14.0"},{"rt":20359,"responses":"{\"Q0\":\"Northern Waterthrush\"}","answer":["Northern Waterthrush"],"trial_type":"image-multi-choice","trial_index":232,"time_elapsed":2205242,"internal_node_id":"0.0-8.0-15.0"},{"rt":9142,"responses":"{\"Q0\":\"Chipping Sparrow\"}","answer":["Chipping Sparrow"],"trial_type":"image-multi-choice","trial_index":233,"time_elapsed":2215437,"internal_node_id":"0.0-8.0-16.0"},{"rt":47340,"responses":"{\"Q0\":\"Swamp Sparrow\"}","answer":["Swamp Sparrow"],"trial_type":"image-multi-choice","trial_index":234,"time_elapsed":2263815,"internal_node_id":"0.0-8.0-17.0"},{"rt":38115,"responses":"{\"Q0\":\"Lincoln's Sparrow\"}","answer":["Lincoln's Sparrow"],"trial_type":"image-multi-choice","trial_index":235,"time_elapsed":2302984,"internal_node_id":"0.0-8.0-18.0"},{"rt":4953,"responses":"{\"Q0\":\"Ovenbird\"}","answer":["Ovenbird"],"trial_type":"image-multi-choice","trial_index":236,"time_elapsed":2308967,"internal_node_id":"0.0-8.0-19.0"}]