[{"view_history":"[{\"page_index\":0,\"viewing_time\":11370}]","rt":11372,"trial_type":"instructions","trial_index":0,"time_elapsed":11377,"internal_node_id":"0.0-0.0"},{"sim_score":5,"rt":17319,"stimulus":"[\"img/866.jpg\",\"img/868.jpg\"]","trial_type":"similarity_demo","trial_index":1,"time_elapsed":29726,"internal_node_id":"0.0-1.0"},{"view_history":"[{\"page_index\":0,\"viewing_time\":8235}]","rt":8236,"trial_type":"instructions","trial_index":2,"time_elapsed":38963,"internal_node_id":"0.0-2.0"},{"sim_score":1,"rt":6475,"stimulus":"[\"img/766.jpg\",\"img/867.jpg\"]","trial_type":"similarity_demo","trial_index":3,"time_elapsed":46457,"internal_node_id":"0.0-3.0"},{"view_history":"[{\"page_index\":0,\"viewing_time\":3634}]","rt":3640,"trial_type":"instructions","trial_index":4,"time_elapsed":51099,"internal_node_id":"0.0-4.0"},{"view_history":"[{\"page_index\":0,\"viewing_time\":12979}]","rt":12981,"trial_type":"instructions","trial_index":5,"time_elapsed":65081,"internal_node_id":"0.0-5.0"},{"sim_score":1,"rt":4138,"stimulus":"[\"img/0868/e0aff734-077f-40dd-9781-74821abd3621.jpg\",\"img/0901/4d1bed7e-3c4e-4f6c-ada9-4beb66ba9e39.jpg\"]","trial_type":"similarity","trial_index":6,"time_elapsed":70243,"internal_node_id":"0.0-6.0-0.0"},{"sim_score":1,"rt":8651,"stimulus":"[\"img/0769/a3cfbdeb-acb3-4eac-87fb-4b117f42d4f8.jpg\",\"img/0867/179ab87a-8eac-4c52-a41f-2e48e3120f09.jpg\"]","trial_type":"similarity","trial_index":7,"time_elapsed":79908,"internal_node_id":"0.0-6.0-1.0"},{"sim_score":5,"rt":4689,"stimulus":"[\"img/0766/f5f78e4e-d88f-4866-951a-118ba9fec4d0.jpg\",\"img/0898/ec565187-2e31-4fdd-9a5c-153d0c789ae0.jpg\"]","trial_type":"similarity","trial_index":8,"time_elapsed":85615,"internal_node_id":"0.0-6.0-2.0"},{"sim_score":5,"rt":3403,"stimulus":"[\"img/0902/511abb54-0094-4f4d-b6dc-3f2c97050521.jpg\",\"img/0881/adc02f34-ce97-4aef-850f-00519df06fd7.jpg\"]","trial_type":"similarity","trial_index":9,"time_elapsed":90037,"internal_node_id":"0.0-6.0-3.0"},{"sim_score":5,"rt":5028,"stimulus":"[\"img/0894/43216a7f-27bc-4b5a-8841-d122a30da9d9.jpg\",\"img/0894/a3d4170b-b7d8-40e3-955f-87e76ed745fc.jpg\"]","trial_type":"similarity","trial_index":10,"time_elapsed":96077,"internal_node_id":"0.0-6.0-4.0"},{"sim_score":3,"rt":3415,"stimulus":"[\"img/0874/c0378dac-9370-439a-8b79-db27c96fb390.jpg\",\"img/0899/9de5e857-aa9a-4e0c-8ba2-46d79bd069a4.jpg\"]","trial_type":"similarity","trial_index":11,"time_elapsed":100511,"internal_node_id":"0.0-6.0-5.0"},{"sim_score":3,"rt":4113,"stimulus":"[\"img/0904/b5855d6a-7ef9-46ca-9215-6e9fa046e543.jpg\",\"img/0764/fb92924f-5cfe-4b89-b130-0cce8cc5636b.jpg\"]","trial_type":"similarity","trial_index":12,"time_elapsed":105641,"internal_node_id":"0.0-6.0-6.0"},{"sim_score":5,"rt":3548,"stimulus":"[\"img/0899/25ae6ec8-9565-49fe-a8bb-8d0666f52716.jpg\",\"img/0898/f3a3f225-1248-4ac7-b93b-f0ff28485bf3.jpg\"]","trial_type":"similarity","trial_index":13,"time_elapsed":110206,"internal_node_id":"0.0-6.0-7.0"},{"sim_score":1,"rt":4254,"stimulus":"[\"img/0874/a82926a3-0b43-4add-803c-d5f9ea7798ee.jpg\",\"img/0903/8c358e9e-a4f4-466e-8b93-7aec0d2358e8.jpg\"]","trial_type":"similarity","trial_index":14,"time_elapsed":115475,"internal_node_id":"0.0-6.0-8.0"},{"sim_score":7,"rt":3454,"stimulus":"[\"img/0881/f62bdcd1-a4b7-4d48-83da-d9c9e01c8727.jpg\",\"img/0758/7ffbc76b-1fc1-432c-8f7e-9ec8d1b3f643.jpg\"]","trial_type":"similarity","trial_index":15,"time_elapsed":119948,"internal_node_id":"0.0-6.0-9.0"},{"sim_score":5,"rt":3627,"stimulus":"[\"img/0898/224c1572-56b9-4f16-a9e4-6f3bc9c114bd.jpg\",\"img/0901/1ede21d9-384f-4150-86b5-e1c57b5dc1d4.jpg\"]","trial_type":"similarity","trial_index":16,"time_elapsed":124594,"internal_node_id":"0.0-6.0-10.0"},{"sim_score":5,"rt":2982,"stimulus":"[\"img/0903/c708d08f-a108-4e04-8288-c3fcf6375db4.jpg\",\"img/0769/662ab839-88d1-4ebf-af05-9b2980cad943.jpg\"]","trial_type":"similarity","trial_index":17,"time_elapsed":128596,"internal_node_id":"0.0-6.0-11.0"},{"sim_score":2,"rt":3330,"stimulus":"[\"img/0764/23ea9375-f801-4a96-9925-7d453da887c7.jpg\",\"img/0868/83b4350a-3b70-4cea-b7f5-b5b56f3050a8.jpg\"]","trial_type":"similarity","trial_index":18,"time_elapsed":132937,"internal_node_id":"0.0-6.0-12.0"},{"sim_score":5,"rt":3450,"stimulus":"[\"img/0867/98d8cd96-1476-4fe0-a3a3-04f875500a1b.jpg\",\"img/0903/680ed18e-b311-4ecf-9b00-7dea32128334.jpg\"]","trial_type":"similarity","trial_index":19,"time_elapsed":137400,"internal_node_id":"0.0-6.0-13.0"},{"sim_score":2,"rt":4118,"stimulus":"[\"img/0766/535849cc-ff5d-4df9-8f31-0ce94a97d571.jpg\",\"img/0758/67c0be2f-9e91-48b3-8219-70ac0a1802fa.jpg\"]","trial_type":"similarity","trial_index":20,"time_elapsed":142535,"internal_node_id":"0.0-6.0-14.0"},{"sim_score":6,"rt":4362,"stimulus":"[\"img/0902/27b84584-948a-485b-8749-cb09929ef631.jpg\",\"img/0860/fd4662f9-4c03-4d79-8593-06735e55a64b.jpg\"]","trial_type":"similarity","trial_index":21,"time_elapsed":147915,"internal_node_id":"0.0-6.0-15.0"},{"sim_score":3,"rt":4250,"stimulus":"[\"img/0769/1d8734c4-77ab-4165-9e71-5cfe672ff01c.jpg\",\"img/0875/cff79b3a-a797-4393-9757-6275f999ec04.jpg\"]","trial_type":"similarity","trial_index":22,"time_elapsed":153180,"internal_node_id":"0.0-6.0-16.0"},{"sim_score":5,"rt":3833,"stimulus":"[\"img/0904/56e73f28-7e64-489b-a161-e6b1a063878d.jpg\",\"img/0866/be24ab58-230e-4db8-9f45-ff04c9aec6bb.jpg\"]","trial_type":"similarity","trial_index":23,"time_elapsed":158036,"internal_node_id":"0.0-6.0-17.0"},{"sim_score":7,"rt":4082,"stimulus":"[\"img/0875/3ecb367d-e9eb-4826-8aaa-7aa72fb98019.jpg\",\"img/0875/42910c99-5463-450a-a0f8-d4d060a11455.jpg\"]","trial_type":"similarity","trial_index":24,"time_elapsed":163133,"internal_node_id":"0.0-6.0-18.0"},{"sim_score":7,"rt":3507,"stimulus":"[\"img/0758/61d64021-9214-4951-bdf8-f871f9827cf9.jpg\",\"img/0758/20497cbe-ddae-489e-86e2-ab06985ed07c.jpg\"]","trial_type":"similarity","trial_index":25,"time_elapsed":167651,"internal_node_id":"0.0-6.0-19.0"},{"sim_score":6,"rt":3398,"stimulus":"[\"img/0902/eb3e7e71-8ff1-4b88-a6a7-47e2c1ce1683.jpg\",\"img/0874/31e22c7c-99aa-40b1-bf03-dd73fa2df4d6.jpg\"]","trial_type":"similarity","trial_index":26,"time_elapsed":172065,"internal_node_id":"0.0-6.0-20.0"},{"sim_score":6,"rt":4520,"stimulus":"[\"img/0764/e30dba15-e68a-4659-89db-e1654b52fe02.jpg\",\"img/0769/e31b3bd8-efcb-413e-aa8c-75fac2b8f2ac.jpg\"]","trial_type":"similarity","trial_index":27,"time_elapsed":177598,"internal_node_id":"0.0-6.0-21.0"},{"sim_score":2,"rt":2956,"stimulus":"[\"img/0901/d61f267a-c492-4db6-9bfb-61efd49cf072.jpg\",\"img/0874/adf9a8f1-c40b-402b-b95b-1e85a54a7b62.jpg\"]","trial_type":"similarity","trial_index":28,"time_elapsed":181570,"internal_node_id":"0.0-6.0-22.0"},{"sim_score":6,"rt":4501,"stimulus":"[\"img/0875/34132396-d896-4c2d-8087-646dd867e769.jpg\",\"img/0903/5995f4a8-fa82-46f8-8760-fd7800a5ca34.jpg\"]","trial_type":"similarity","trial_index":29,"time_elapsed":187088,"internal_node_id":"0.0-6.0-23.0"},{"sim_score":5,"rt":4351,"stimulus":"[\"img/0769/8056889f-2b14-4782-bb25-b4e8896ab65b.jpg\",\"img/0881/c843e210-bdfe-4a7c-8bbe-fcea1f90fe1c.jpg\"]","trial_type":"similarity","trial_index":30,"time_elapsed":192457,"internal_node_id":"0.0-6.0-24.0"},{"sim_score":2,"rt":2647,"stimulus":"[\"img/0867/bf560d4f-dee3-4f11-a385-705cc1aa5f3c.jpg\",\"img/0904/d23dd7be-7fe8-4435-82f7-bd592c01e6a1.jpg\"]","trial_type":"similarity","trial_index":31,"time_elapsed":196118,"internal_node_id":"0.0-6.0-25.0"},{"sim_score":2,"rt":4472,"stimulus":"[\"img/0860/702bd09d-df3a-40aa-a267-5f04474305b5.jpg\",\"img/0881/6b1189e6-232d-4042-8885-16dc7b10e0d4.jpg\"]","trial_type":"similarity","trial_index":32,"time_elapsed":201602,"internal_node_id":"0.0-6.0-26.0"},{"sim_score":7,"rt":3087,"stimulus":"[\"img/0866/a15b02be-11bb-43e3-b0e0-ecc3bd7dfc49.jpg\",\"img/0866/02f5e6b9-52b7-448c-9708-5b460d0c9a23.jpg\"]","trial_type":"similarity","trial_index":33,"time_elapsed":205702,"internal_node_id":"0.0-6.0-27.0"},{"sim_score":5,"rt":4355,"stimulus":"[\"img/0764/7f4ee8e3-9315-4a57-be7d-db8454b33766.jpg\",\"img/0862/00c06b00-3b73-44e9-bc1e-c5aafb438321.jpg\"]","trial_type":"similarity","trial_index":34,"time_elapsed":211073,"internal_node_id":"0.0-6.0-28.0"},{"sim_score":2,"rt":4685,"stimulus":"[\"img/0904/9dd5708f-3f8b-46a9-b49f-2f2fab87b357.jpg\",\"img/0758/ddc336e9-a8b6-4bb9-937a-c7e25e0e9250.jpg\"]","trial_type":"similarity","trial_index":35,"time_elapsed":216772,"internal_node_id":"0.0-6.0-29.0"},{"sim_score":3,"rt":4193,"stimulus":"[\"img/0894/1a010553-d598-4b06-a772-81f1e7b3addb.jpg\",\"img/0899/51a7a498-98c7-42d7-bca8-bc2d8f0b5831.jpg\"]","trial_type":"similarity","trial_index":36,"time_elapsed":221982,"internal_node_id":"0.0-6.0-30.0"},{"sim_score":5,"rt":3181,"stimulus":"[\"img/0860/5383b320-1518-4095-a58e-5cc1ae30b64c.jpg\",\"img/0904/2fd488e9-960f-41f7-8a44-33375f7d5051.jpg\"]","trial_type":"similarity","trial_index":37,"time_elapsed":226174,"internal_node_id":"0.0-6.0-31.0"},{"sim_score":3,"rt":4240,"stimulus":"[\"img/0874/93d1f8dc-acf2-4f03-bd8d-8ec35df276ed.jpg\",\"img/0881/19e82c47-8e4b-45d2-a6c8-74181eb4155e.jpg\"]","trial_type":"similarity","trial_index":38,"time_elapsed":231434,"internal_node_id":"0.0-6.0-32.0"},{"sim_score":5,"rt":4404,"stimulus":"[\"img/0881/48ed65a5-471f-41af-86ec-3793805c116d.jpg\",\"img/0899/93494f3b-d539-4075-b027-d82e344563da.jpg\"]","trial_type":"similarity","trial_index":39,"time_elapsed":236861,"internal_node_id":"0.0-6.0-33.0"},{"sim_score":1,"rt":3164,"stimulus":"[\"img/0866/11a1d141-be5e-443c-98c1-a9d4d9e3dec0.jpg\",\"img/0862/92fcd8a4-8193-4a6a-ae09-dd4a6338b0df.jpg\"]","trial_type":"similarity","trial_index":40,"time_elapsed":241046,"internal_node_id":"0.0-6.0-34.0"},{"sim_score":3,"rt":3788,"stimulus":"[\"img/0868/0d3abd3a-b6c3-4584-a9f7-e2da63748b3d.jpg\",\"img/0894/8cadb87a-7001-4e47-99fb-1867bebf1668.jpg\"]","trial_type":"similarity","trial_index":41,"time_elapsed":245853,"internal_node_id":"0.0-6.0-35.0"},{"sim_score":7,"rt":4382,"stimulus":"[\"img/0860/c47fdead-eb02-4989-b078-26f4852f44fe.jpg\",\"img/0860/17b44a7d-c5ca-479f-9e87-f65a64f5c80e.jpg\"]","trial_type":"similarity","trial_index":42,"time_elapsed":251245,"internal_node_id":"0.0-6.0-36.0"},{"sim_score":2,"rt":6173,"stimulus":"[\"img/0862/eefa5588-9efd-4591-aa5f-a2e17c7d7bcc.jpg\",\"img/0864/efcfbb1b-8197-44c9-b723-40d6c608dd3c.jpg\"]","trial_type":"similarity","trial_index":43,"time_elapsed":258438,"internal_node_id":"0.0-6.0-37.0"},{"sim_score":1,"rt":3872,"stimulus":"[\"img/0766/d14acac4-7db1-4b07-8f8f-302437326fc0.jpg\",\"img/0866/6f2a90d7-14f1-4f1b-bd64-fc0af6b9fe44.jpg\"]","trial_type":"similarity","trial_index":44,"time_elapsed":263337,"internal_node_id":"0.0-6.0-38.0"},{"sim_score":2,"rt":4047,"stimulus":"[\"img/0875/99698b4d-b4a1-44bc-8c83-8ea755bbbf61.jpg\",\"img/0898/81b08535-2020-4c15-9ce4-2f1e460755ae.jpg\"]","trial_type":"similarity","trial_index":45,"time_elapsed":268414,"internal_node_id":"0.0-6.0-39.0"},{"sim_score":6,"rt":4037,"stimulus":"[\"img/0766/f3276cc4-65de-4c2d-88d5-6cfebce14b8f.jpg\",\"img/0769/38a88f69-28fd-4bbd-99f0-f4c02bfd3995.jpg\"]","trial_type":"similarity","trial_index":46,"time_elapsed":273471,"internal_node_id":"0.0-6.0-40.0"},{"sim_score":5,"rt":4171,"stimulus":"[\"img/0874/1016b306-087c-4afc-aa08-fa527b28dc76.jpg\",\"img/0764/50f1b062-d608-4bc0-ab25-b872dcf2ed93.jpg\"]","trial_type":"similarity","trial_index":47,"time_elapsed":298079,"internal_node_id":"0.0-6.0-41.0"},{"sim_score":3,"rt":4709,"stimulus":"[\"img/0868/15dd6fd7-791e-4b53-b203-195d617521a4.jpg\",\"img/0902/af45fe42-178c-4c1a-99ef-256e87e3b092.jpg\"]","trial_type":"similarity","trial_index":48,"time_elapsed":303808,"internal_node_id":"0.0-6.0-42.0"},{"sim_score":4,"rt":4422,"stimulus":"[\"img/0875/5a1e5100-0d94-4fec-bbe9-ca9894d2cf8e.jpg\",\"img/0899/d60714ae-98d7-4564-8c98-94dba1351135.jpg\"]","trial_type":"similarity","trial_index":49,"time_elapsed":309249,"internal_node_id":"0.0-6.0-43.0"},{"sim_score":4,"rt":6058,"stimulus":"[\"img/0866/23a224f3-2012-4fc8-8e0f-3c36f8de27fd.jpg\",\"img/0860/c5ccd1a4-4bb7-48e1-9b25-72cfaf06909b.jpg\"]","trial_type":"similarity","trial_index":50,"time_elapsed":316324,"internal_node_id":"0.0-6.0-44.0"},{"sim_score":3,"rt":3494,"stimulus":"[\"img/0766/d3bab2fc-ddcc-40a0-bb72-c0d0ebe19978.jpg\",\"img/0903/aa842abe-6fa3-448a-bf71-88d3ad28663b.jpg\"]","trial_type":"similarity","trial_index":51,"time_elapsed":320825,"internal_node_id":"0.0-6.0-45.0"},{"sim_score":2,"rt":3786,"stimulus":"[\"img/0901/08d6d1d1-c043-43c4-bb08-d45e062822b9.jpg\",\"img/0904/5aec2708-cf14-4a58-aa30-9a8a61c1be0e.jpg\"]","trial_type":"similarity","trial_index":52,"time_elapsed":325630,"internal_node_id":"0.0-6.0-46.0"},{"sim_score":6,"rt":4578,"stimulus":"[\"img/0758/335851a0-a55b-46d8-ab05-8463eda48349.jpg\",\"img/0902/10d99c89-71f7-4c81-a31e-dfc7c59f5232.jpg\"]","trial_type":"similarity","trial_index":53,"time_elapsed":331222,"internal_node_id":"0.0-6.0-47.0"},{"sim_score":6,"rt":3595,"stimulus":"[\"img/0764/c01e2d65-6586-441b-bef5-3c96fcd85380.jpg\",\"img/0764/d7f3ac54-318a-4dac-a06b-62bed34d01a4.jpg\"]","trial_type":"similarity","trial_index":54,"time_elapsed":335833,"internal_node_id":"0.0-6.0-48.0"},{"sim_score":1,"rt":2995,"stimulus":"[\"img/0866/945c6710-d15b-4a5b-a8f6-69af0850357f.jpg\",\"img/0902/418b716e-63e5-4c77-93e9-95b1f5a3ddf0.jpg\"]","trial_type":"similarity","trial_index":55,"time_elapsed":339848,"internal_node_id":"0.0-6.0-49.0"},{"sim_score":3,"rt":6196,"stimulus":"[\"img/0764/ef0e64c6-d0dd-4dc6-87b6-ce5c0665f421.jpg\",\"img/0758/6e95579b-5166-487c-b8cb-e417c6a218e3.jpg\"]","trial_type":"similarity","trial_index":56,"time_elapsed":347061,"internal_node_id":"0.0-6.0-50.0"},{"sim_score":4,"rt":4052,"stimulus":"[\"img/0898/5f699581-3853-4547-856c-12f419ba5af7.jpg\",\"img/0894/492d2f29-d7b9-4422-8be8-47fd58bfaa8b.jpg\"]","trial_type":"similarity","trial_index":57,"time_elapsed":352133,"internal_node_id":"0.0-6.0-51.0"},{"sim_score":6,"rt":4518,"stimulus":"[\"img/0875/03c3c331-738b-4446-af92-3d7386b08c2e.jpg\",\"img/0866/8efcaa46-83ab-4dee-a35f-850402aa21ae.jpg\"]","trial_type":"similarity","trial_index":58,"time_elapsed":357672,"internal_node_id":"0.0-6.0-52.0"},{"sim_score":7,"rt":3300,"stimulus":"[\"img/0904/da170c1b-9651-4f08-b231-2bdd1d9a046f.jpg\",\"img/0904/6291eb43-c10c-4810-a36a-101d09868b04.jpg\"]","trial_type":"similarity","trial_index":59,"time_elapsed":361981,"internal_node_id":"0.0-6.0-53.0"},{"sim_score":7,"rt":4316,"stimulus":"[\"img/0769/91acb237-65a3-4d0b-9748-af5c7b83d3c7.jpg\",\"img/0769/688d0c52-ad73-4065-a5eb-f8c10d076bff.jpg\"]","trial_type":"similarity","trial_index":60,"time_elapsed":367318,"internal_node_id":"0.0-6.0-54.0"},{"sim_score":2,"rt":4333,"stimulus":"[\"img/0898/e167334e-cc1d-4986-b3b1-c7bc7da64baa.jpg\",\"img/0758/9fb5b2fe-3f00-4fe6-973c-1ce10d5f4cd5.jpg\"]","trial_type":"similarity","trial_index":61,"time_elapsed":372666,"internal_node_id":"0.0-6.0-55.0"},{"sim_score":6,"rt":5063,"stimulus":"[\"img/0769/7c50e5f5-cc38-4d48-b009-fbe17bcea61c.jpg\",\"img/0902/82d20e8c-2162-47a6-925b-52906558c046.jpg\"]","trial_type":"similarity","trial_index":62,"time_elapsed":378741,"internal_node_id":"0.0-6.0-56.0"},{"sim_score":6,"rt":4831,"stimulus":"[\"img/0864/afcba0a3-7e27-4757-b254-e9f05fad27e2.jpg\",\"img/0881/7e822106-76f7-4b10-a805-14dc68b2cfaf.jpg\"]","trial_type":"similarity","trial_index":63,"time_elapsed":384586,"internal_node_id":"0.0-6.0-57.0"},{"sim_score":1,"rt":2900,"stimulus":"[\"img/0758/821c68d3-5cb0-4eae-8659-30e6263fca39.jpg\",\"img/0868/4bd5105a-d2c3-4f82-8c80-57196106ba53.jpg\"]","trial_type":"similarity","trial_index":64,"time_elapsed":388497,"internal_node_id":"0.0-6.0-58.0"},{"sim_score":3,"rt":3391,"stimulus":"[\"img/0862/f43ceabf-acc1-4107-b857-5d1849808f93.jpg\",\"img/0769/022c7e3b-c3f2-4119-b4bc-f22fa7cae18c.jpg\"]","trial_type":"similarity","trial_index":65,"time_elapsed":392901,"internal_node_id":"0.0-6.0-59.0"},{"sim_score":2,"rt":3980,"stimulus":"[\"img/0764/6fbd1902-fa2a-48d8-bc11-705b8ab68d8f.jpg\",\"img/0903/365f176c-25a4-4973-bd3c-279bf1b39476.jpg\"]","trial_type":"similarity","trial_index":66,"time_elapsed":397890,"internal_node_id":"0.0-6.0-60.0"},{"sim_score":7,"rt":3797,"stimulus":"[\"img/0899/8de08897-b430-42fe-9d42-840670b80f94.jpg\",\"img/0899/8abe6c69-822c-436c-9bf2-96c818b49ba5.jpg\"]","trial_type":"similarity","trial_index":67,"time_elapsed":402698,"internal_node_id":"0.0-6.0-61.0"},{"sim_score":5,"rt":3977,"stimulus":"[\"img/0860/31ff6436-98bf-4652-bed2-40f627229568.jpg\",\"img/0875/8521fd58-3b1e-4dc5-97ae-804edfa6734a.jpg\"]","trial_type":"similarity","trial_index":68,"time_elapsed":407685,"internal_node_id":"0.0-6.0-62.0"},{"sim_score":3,"rt":3490,"stimulus":"[\"img/0868/7b212364-ff5f-4e28-9241-7eb6ea00161b.jpg\",\"img/0874/2c9464dd-8a23-4baa-ac94-1ba3af5c15cc.jpg\"]","trial_type":"similarity","trial_index":69,"time_elapsed":412191,"internal_node_id":"0.0-6.0-63.0"},{"sim_score":4,"rt":4080,"stimulus":"[\"img/0758/d57c2592-a317-4f63-91be-91a3a9afd222.jpg\",\"img/0862/53a9cf7c-93c4-41b9-952f-07d17f7a17b2.jpg\"]","trial_type":"similarity","trial_index":70,"time_elapsed":417291,"internal_node_id":"0.0-6.0-64.0"},{"sim_score":4,"rt":2702,"stimulus":"[\"img/0904/4b8daf2a-13a9-4ea9-9e0b-b265b6e933e7.jpg\",\"img/0898/b3290bf9-215b-4b45-b21a-65bdf73f142f.jpg\"]","trial_type":"similarity","trial_index":71,"time_elapsed":421009,"internal_node_id":"0.0-6.0-65.0"},{"sim_score":2,"rt":3597,"stimulus":"[\"img/0881/ee44e27f-d662-4608-b265-e7ffa19b216f.jpg\",\"img/0866/d266fece-59b3-46fa-b69f-96f6efb81b59.jpg\"]","trial_type":"similarity","trial_index":72,"time_elapsed":425624,"internal_node_id":"0.0-6.0-66.0"},{"sim_score":2,"rt":4183,"stimulus":"[\"img/0867/cc72ed48-7704-422c-86d6-467a1145287a.jpg\",\"img/0898/993d8f2d-bef7-4251-a193-0f93a32b7763.jpg\"]","trial_type":"similarity","trial_index":73,"time_elapsed":430825,"internal_node_id":"0.0-6.0-67.0"},{"sim_score":6,"rt":3784,"stimulus":"[\"img/0902/51493fab-2a10-4385-aa88-bee3db441626.jpg\",\"img/0764/5d6fa3ce-9083-410c-bbdb-336a49b94cfc.jpg\"]","trial_type":"similarity","trial_index":74,"time_elapsed":435628,"internal_node_id":"0.0-6.0-68.0"},{"sim_score":7,"rt":3533,"stimulus":"[\"img/0875/f87b67d7-c33e-40d1-b281-248c4be1cb6e.jpg\",\"img/0867/1719a35d-f085-48c0-9099-16c94fe418b4.jpg\"]","trial_type":"similarity","trial_index":75,"time_elapsed":440175,"internal_node_id":"0.0-6.0-69.0"},{"sim_score":6,"rt":6033,"stimulus":"[\"img/0766/3c526a07-9e0a-4ae2-8142-00085f0127da.jpg\",\"img/0764/f9f890e6-3c2f-40cd-84e9-85e0b54cb28e.jpg\"]","trial_type":"similarity","trial_index":76,"time_elapsed":447224,"internal_node_id":"0.0-6.0-70.0"},{"sim_score":4,"rt":6888,"stimulus":"[\"img/0894/7dd6ff43-f8fc-408a-8a41-a2b261871820.jpg\",\"img/0867/c66898ba-b71b-4d50-84f9-f7f84853a98d.jpg\"]","trial_type":"similarity","trial_index":77,"time_elapsed":455122,"internal_node_id":"0.0-6.0-71.0"},{"sim_score":3,"rt":3595,"stimulus":"[\"img/0875/ebf7653f-ff45-4e9f-af58-2c042ab3cd2b.jpg\",\"img/0764/ec2dd087-c471-4370-b570-95a542506a96.jpg\"]","trial_type":"similarity","trial_index":78,"time_elapsed":459726,"internal_node_id":"0.0-6.0-72.0"},{"sim_score":7,"rt":5289,"stimulus":"[\"img/0867/de92135f-5b65-4ed9-b245-188292c7c2f8.jpg\",\"img/0866/9b38d691-1802-4959-ab3f-fc902f0e4ea6.jpg\"]","trial_type":"similarity","trial_index":79,"time_elapsed":466032,"internal_node_id":"0.0-6.0-73.0"},{"sim_score":2,"rt":3176,"stimulus":"[\"img/0903/776b74ee-a8ab-4ab8-a78d-097c0747538d.jpg\",\"img/0758/eabcd7a8-56ad-4fd2-bc24-90f6b7b33265.jpg\"]","trial_type":"similarity","trial_index":80,"time_elapsed":470220,"internal_node_id":"0.0-6.0-74.0"},{"sim_score":1,"rt":3286,"stimulus":"[\"img/0766/ae0fce93-fe8d-4aa1-87ca-4c3e4b889f2f.jpg\",\"img/0868/fd307a36-9a3a-47d7-ab7c-f810d0b35040.jpg\"]","trial_type":"similarity","trial_index":81,"time_elapsed":474516,"internal_node_id":"0.0-6.0-75.0"},{"sim_score":7,"rt":3922,"stimulus":"[\"img/0874/995f0332-0439-4eb4-add3-957335dbf6d9.jpg\",\"img/0766/60033a74-9919-47e5-913c-71d0d483e7e5.jpg\"]","trial_type":"similarity","trial_index":82,"time_elapsed":479459,"internal_node_id":"0.0-6.0-76.0"},{"sim_score":2,"rt":2556,"stimulus":"[\"img/0881/292e9b4b-fca0-4ba8-87f1-4048f9e37b7d.jpg\",\"img/0868/293079b8-7e0c-4afd-a390-1e5d35fe3ded.jpg\"]","trial_type":"similarity","trial_index":83,"time_elapsed":483028,"internal_node_id":"0.0-6.0-77.0"},{"sim_score":1,"rt":3648,"stimulus":"[\"img/0758/65d426d6-3ff6-415d-8654-a43b83ecc4fe.jpg\",\"img/0901/bc47e078-bda4-40ed-b89a-bbd819164b95.jpg\"]","trial_type":"similarity","trial_index":84,"time_elapsed":487699,"internal_node_id":"0.0-6.0-78.0"},{"sim_score":1,"rt":4614,"stimulus":"[\"img/0881/609a5e93-38b5-4940-8627-2bf8fad7f802.jpg\",\"img/0898/cd3aaa3f-efa9-4ab3-8d6f-a6a9273ddf42.jpg\"]","trial_type":"similarity","trial_index":85,"time_elapsed":493324,"internal_node_id":"0.0-6.0-79.0"},{"sim_score":3,"rt":3556,"stimulus":"[\"img/0867/a498eef3-9fa4-4ab2-9778-4ae82ac40dc5.jpg\",\"img/0758/7ee8bc8f-c40b-4b3a-84ec-3e83580622d4.jpg\"]","trial_type":"similarity","trial_index":86,"time_elapsed":497893,"internal_node_id":"0.0-6.0-80.0"},{"sim_score":3,"rt":3706,"stimulus":"[\"img/0769/387a9744-d6a7-42b8-bab8-33007ec434aa.jpg\",\"img/0899/ad8268c5-8199-48d0-ad70-c5b6d6c599ec.jpg\"]","trial_type":"similarity","trial_index":87,"time_elapsed":502617,"internal_node_id":"0.0-6.0-81.0"},{"sim_score":5,"rt":3732,"stimulus":"[\"img/0903/0fb24af7-9a26-4e9d-aadc-959a36f683e2.jpg\",\"img/0903/b0a3c45f-467e-412f-a183-c9c1827f2e63.jpg\"]","trial_type":"similarity","trial_index":88,"time_elapsed":507362,"internal_node_id":"0.0-6.0-82.0"},{"sim_score":1,"rt":2872,"stimulus":"[\"img/0867/2e1a0b58-cdb1-4107-a14e-452530d7b9b0.jpg\",\"img/0766/0025de5e-f620-4079-8a0f-00326ff3a6b0.jpg\"]","trial_type":"similarity","trial_index":89,"time_elapsed":528228,"internal_node_id":"0.0-6.0-83.0"},{"sim_score":1,"rt":3205,"stimulus":"[\"img/0902/94ee9c53-a9a2-4f95-b9b7-794a5fc62bb6.jpg\",\"img/0867/f26f6b60-f772-4f4c-95a4-addc62cfd692.jpg\"]","trial_type":"similarity","trial_index":90,"time_elapsed":532446,"internal_node_id":"0.0-6.0-84.0"},{"sim_score":1,"rt":5380,"stimulus":"[\"img/0901/50e1d53e-a49f-4806-8610-be6dec5a2475.jpg\",\"img/0875/2e13d160-eea1-416b-aff1-d37ab99ecc1d.jpg\"]","trial_type":"similarity","trial_index":91,"time_elapsed":538843,"internal_node_id":"0.0-6.0-85.0"},{"sim_score":2,"rt":4834,"stimulus":"[\"img/0764/5d83b9db-3b2b-4dc8-9bd1-2b515b19c858.jpg\",\"img/0866/0207e9a2-7dbb-40b5-9459-b472aaeceb2a.jpg\"]","trial_type":"similarity","trial_index":92,"time_elapsed":544693,"internal_node_id":"0.0-6.0-86.0"},{"sim_score":1,"rt":4046,"stimulus":"[\"img/0901/f1116359-1ff1-4638-b3b3-700918d36d18.jpg\",\"img/0894/792c83e9-a747-4000-bc72-5663d2439edb.jpg\"]","trial_type":"similarity","trial_index":93,"time_elapsed":549752,"internal_node_id":"0.0-6.0-87.0"},{"sim_score":7,"rt":5288,"stimulus":"[\"img/0898/4184e5a2-84ea-4f36-9b42-ae58646f6f87.jpg\",\"img/0769/5bd04f55-d091-4f57-85db-38426f26bd1a.jpg\"]","trial_type":"similarity","trial_index":94,"time_elapsed":556059,"internal_node_id":"0.0-6.0-88.0"},{"sim_score":4,"rt":2276,"stimulus":"[\"img/0769/3adfa417-3b90-4aab-b437-5eaa474189cb.jpg\",\"img/0894/5f15154e-e72e-4ce5-aafb-bce6f0564006.jpg\"]","trial_type":"similarity","trial_index":95,"time_elapsed":559343,"internal_node_id":"0.0-6.0-89.0"},{"sim_score":4,"rt":1896,"stimulus":"[\"img/0862/e697469a-ec19-4414-b972-7b9f3564785b.jpg\",\"img/0874/767f289c-9814-4496-803f-745cc8913d1f.jpg\"]","trial_type":"similarity","trial_index":96,"time_elapsed":562255,"internal_node_id":"0.0-6.0-90.0"},{"sim_score":3,"rt":4241,"stimulus":"[\"img/0894/7fb082e0-ce79-485c-9109-04367fb32275.jpg\",\"img/0766/51d3aab4-3d09-4dda-b99d-3dc7aaabc6f2.jpg\"]","trial_type":"similarity","trial_index":97,"time_elapsed":567511,"internal_node_id":"0.0-6.0-91.0"},{"sim_score":1,"rt":2860,"stimulus":"[\"img/0874/bf14b896-e930-4fd9-9c05-2e83317a2773.jpg\",\"img/0867/db7e032f-162b-46f5-ae67-2b29679adee4.jpg\"]","trial_type":"similarity","trial_index":98,"time_elapsed":571385,"internal_node_id":"0.0-6.0-92.0"},{"sim_score":1,"rt":4638,"stimulus":"[\"img/0899/57476fed-5962-4272-8fc9-b317bb777b54.jpg\",\"img/0868/3a62db2d-97e9-44a3-b8e3-a48c6f0e423b.jpg\"]","trial_type":"similarity","trial_index":99,"time_elapsed":577036,"internal_node_id":"0.0-6.0-93.0"},{"sim_score":7,"rt":4640,"stimulus":"[\"img/0903/36e4ab1f-caa9-40b3-8616-faada076df94.jpg\",\"img/0862/847e5208-38ec-4f36-949c-296cdd7424ee.jpg\"]","trial_type":"similarity","trial_index":100,"time_elapsed":582687,"internal_node_id":"0.0-6.0-94.0"},{"sim_score":6,"rt":3090,"stimulus":"[\"img/0899/0e1d936a-dbe2-4afc-9f19-7b7a1ae6c9ed.jpg\",\"img/0766/1bc0dccc-a5b5-4375-87fa-28360ca42b12.jpg\"]","trial_type":"similarity","trial_index":101,"time_elapsed":586788,"internal_node_id":"0.0-6.0-95.0"},{"sim_score":7,"rt":3624,"stimulus":"[\"img/0867/7d1c497b-c1b3-4ed8-abb5-d7f73306015f.jpg\",\"img/0868/5fa7f9d0-f0e5-454c-8224-74d964818f56.jpg\"]","trial_type":"similarity","trial_index":102,"time_elapsed":591430,"internal_node_id":"0.0-6.0-96.0"},{"sim_score":4,"rt":2904,"stimulus":"[\"img/0862/ee3b7bff-4a70-4e84-9bea-4a565e456acb.jpg\",\"img/0901/b9141736-3041-4385-a586-b1fe911c76a5.jpg\"]","trial_type":"similarity","trial_index":103,"time_elapsed":595352,"internal_node_id":"0.0-6.0-97.0"},{"sim_score":3,"rt":4011,"stimulus":"[\"img/0875/d59ff733-eaff-4ee2-9443-06954dd0bcb6.jpg\",\"img/0766/fd74fdbb-ea40-4f3a-a091-38d08dfd636e.jpg\"]","trial_type":"similarity","trial_index":104,"time_elapsed":600382,"internal_node_id":"0.0-6.0-98.0"},{"sim_score":7,"rt":4065,"stimulus":"[\"img/0758/e38fd80d-18d0-42f3-b848-f930788e8bd7.jpg\",\"img/0874/7e4f2150-3b59-4a36-b5da-a4e0ba410531.jpg\"]","trial_type":"similarity","trial_index":105,"time_elapsed":605463,"internal_node_id":"0.0-6.0-99.0"},{"sim_score":4,"rt":3082,"stimulus":"[\"img/0904/96e503ea-6630-4996-85f2-0237688ce441.jpg\",\"img/0868/179a5502-ab5c-478e-8263-5a1fbcc101d2.jpg\"]","trial_type":"similarity","trial_index":106,"time_elapsed":609559,"internal_node_id":"0.0-6.0-100.0"},{"sim_score":3,"rt":3452,"stimulus":"[\"img/0903/14f179a2-8786-48a2-8377-88d1d404341b.jpg\",\"img/0866/07c9c966-3c8d-40e7-8128-92b2acbaed5d.jpg\"]","trial_type":"similarity","trial_index":107,"time_elapsed":614026,"internal_node_id":"0.0-6.0-101.0"},{"sim_score":4,"rt":2365,"stimulus":"[\"img/0868/d6d1f30d-4323-435a-b194-7892521bc57e.jpg\",\"img/0769/76eaa4a3-dfe9-4dc1-9efb-caebe86264e1.jpg\"]","trial_type":"similarity","trial_index":108,"time_elapsed":617409,"internal_node_id":"0.0-6.0-102.0"},{"sim_score":4,"rt":1834,"stimulus":"[\"img/0902/40d0b6ec-3907-4573-b227-e7d8e9cad1c3.jpg\",\"img/0899/d8f2dd94-570e-4e8c-a087-d96090fb9e8c.jpg\"]","trial_type":"similarity","trial_index":109,"time_elapsed":620255,"internal_node_id":"0.0-6.0-103.0"},{"sim_score":4,"rt":1577,"stimulus":"[\"img/0868/4e626425-63c8-484a-8a1d-e66ee4e0bef8.jpg\",\"img/0862/f188d4f0-76a4-4102-818c-a209969d73a5.jpg\"]","trial_type":"similarity","trial_index":110,"time_elapsed":622855,"internal_node_id":"0.0-6.0-104.0"},{"sim_score":4,"rt":1429,"stimulus":"[\"img/0903/5ea5bbe0-f238-4724-abe7-9ed8dee8c0ba.jpg\",\"img/0894/05161000-f476-499b-a878-c13c7f347fd9.jpg\"]","trial_type":"similarity","trial_index":111,"time_elapsed":625298,"internal_node_id":"0.0-6.0-105.0"},{"sim_score":6,"rt":3839,"stimulus":"[\"img/0864/a248adb3-c70b-4652-b7a3-776d2a1e904b.jpg\",\"img/0874/29830da7-be5f-44e5-b141-652a0ccf7269.jpg\"]","trial_type":"similarity","trial_index":112,"time_elapsed":630155,"internal_node_id":"0.0-6.0-106.0"},{"sim_score":6,"rt":2592,"stimulus":"[\"img/0862/ba89835a-408c-480b-8594-ed4ffa97eb5c.jpg\",\"img/0902/aa6fca32-82b0-4414-b20a-8f6f8aa5a2d2.jpg\"]","trial_type":"similarity","trial_index":113,"time_elapsed":633768,"internal_node_id":"0.0-6.0-107.0"},{"sim_score":5,"rt":3399,"stimulus":"[\"img/0904/696ebb60-8891-417a-91fd-c53218907a95.jpg\",\"img/0903/8fcafe03-43df-4c45-9da5-0df3a1eeccc5.jpg\"]","trial_type":"similarity","trial_index":114,"time_elapsed":638179,"internal_node_id":"0.0-6.0-108.0"},{"sim_score":2,"rt":4573,"stimulus":"[\"img/0764/bc3865c9-9004-4582-88a7-048478673f97.jpg\",\"img/0864/300bb811-8b3c-4c42-8653-6097c3725197.jpg\"]","trial_type":"similarity","trial_index":115,"time_elapsed":643763,"internal_node_id":"0.0-6.0-109.0"},{"sim_score":4,"rt":2777,"stimulus":"[\"img/0866/f756f7d1-9ad8-4a34-9ef6-7a443d705bfe.jpg\",\"img/0894/0130a973-d993-41f8-874a-fee23d9ac11f.jpg\"]","trial_type":"similarity","trial_index":116,"time_elapsed":647559,"internal_node_id":"0.0-6.0-110.0"},{"sim_score":7,"rt":3609,"stimulus":"[\"img/0899/7f9d45d0-b2c6-40d3-aa41-c207db2c411b.jpg\",\"img/0903/47e39de8-6959-469f-8be9-6999a6db207c.jpg\"]","trial_type":"similarity","trial_index":117,"time_elapsed":652180,"internal_node_id":"0.0-6.0-111.0"},{"sim_score":6,"rt":2671,"stimulus":"[\"img/0902/8065aa6b-4aef-4368-afa2-02c6465ca582.jpg\",\"img/0904/4e58005d-a2ec-4aaa-b199-445343561396.jpg\"]","trial_type":"similarity","trial_index":118,"time_elapsed":655872,"internal_node_id":"0.0-6.0-112.0"},{"sim_score":2,"rt":3898,"stimulus":"[\"img/0864/66091c27-e588-4476-8af9-265dc6be4156.jpg\",\"img/0860/87039971-2210-4aab-93c0-8e9b5f1655b2.jpg\"]","trial_type":"similarity","trial_index":119,"time_elapsed":660782,"internal_node_id":"0.0-6.0-113.0"},{"sim_score":3,"rt":3788,"stimulus":"[\"img/0860/4c530c3c-6aab-492a-94d1-9c01797bde40.jpg\",\"img/0899/f95cbdb4-f804-4f5d-ad76-373ad343e658.jpg\"]","trial_type":"similarity","trial_index":120,"time_elapsed":665582,"internal_node_id":"0.0-6.0-114.0"},{"sim_score":1,"rt":3221,"stimulus":"[\"img/0881/4bd34581-94d8-4e88-8c89-5cef864ca3be.jpg\",\"img/0903/f10e9eb5-0c21-4a6a-944c-5f10a6d0fa4d.jpg\"]","trial_type":"similarity","trial_index":121,"time_elapsed":669815,"internal_node_id":"0.0-6.0-115.0"},{"sim_score":1,"rt":3623,"stimulus":"[\"img/0894/b422d5c6-3c5a-49ae-a53e-7e88ac993f49.jpg\",\"img/0874/ca76a855-4e77-4f2f-872a-0a718153e7ed.jpg\"]","trial_type":"similarity","trial_index":122,"time_elapsed":674448,"internal_node_id":"0.0-6.0-116.0"},{"sim_score":3,"rt":3540,"stimulus":"[\"img/0881/b1a136f7-8511-4d3a-a0f6-3879acf1e1a1.jpg\",\"img/0862/99a99e39-8355-44ec-b993-e7bcec111e1c.jpg\"]","trial_type":"similarity","trial_index":123,"time_elapsed":679002,"internal_node_id":"0.0-6.0-117.0"},{"sim_score":6,"rt":3041,"stimulus":"[\"img/0868/6a28c3b0-3d76-498a-9fb7-ddafc665eca8.jpg\",\"img/0875/5a7c4e35-6514-4e12-8879-d16071da4cd6.jpg\"]","trial_type":"similarity","trial_index":124,"time_elapsed":683070,"internal_node_id":"0.0-6.0-118.0"},{"sim_score":4,"rt":3485,"stimulus":"[\"img/0860/99c589b9-9140-4d17-90c0-b344323edcda.jpg\",\"img/0758/53f35650-e455-4b53-8be4-c3c8271c6466.jpg\"]","trial_type":"similarity","trial_index":125,"time_elapsed":687568,"internal_node_id":"0.0-6.0-119.0"},{"sim_score":1,"rt":2972,"stimulus":"[\"img/0864/e02eddb5-f468-499c-91bf-f7be3ffe979b.jpg\",\"img/0875/527ced51-8e53-4aab-ab05-86df219104c0.jpg\"]","trial_type":"similarity","trial_index":126,"time_elapsed":691553,"internal_node_id":"0.0-6.0-120.0"},{"sim_score":4,"rt":2906,"stimulus":"[\"img/0898/b2732712-71c2-45d8-834f-2b2ed5504910.jpg\",\"img/0866/d493a2c8-66eb-44b4-be02-2f327b700b7c.jpg\"]","trial_type":"similarity","trial_index":127,"time_elapsed":695472,"internal_node_id":"0.0-6.0-121.0"},{"sim_score":2,"rt":3268,"stimulus":"[\"img/0874/99f6563c-8a8d-4c1c-a41d-667b618c3fd5.jpg\",\"img/0904/2c98dc56-88d1-4fb5-a999-b6a7861f65f0.jpg\"]","trial_type":"similarity","trial_index":128,"time_elapsed":699752,"internal_node_id":"0.0-6.0-122.0"},{"sim_score":4,"rt":3291,"stimulus":"[\"img/0904/b7c2a2c8-df33-4473-b3d4-ff7147c60db3.jpg\",\"img/0864/87c467d3-abca-482f-ad80-3766c21b1bb3.jpg\"]","trial_type":"similarity","trial_index":129,"time_elapsed":704048,"internal_node_id":"0.0-6.0-123.0"},{"sim_score":4,"rt":1334,"stimulus":"[\"img/0894/e6385e52-6c35-43bd-b0af-bc803d107b11.jpg\",\"img/0902/30c420f5-c714-4681-ae5a-c0ba8f636a26.jpg\"]","trial_type":"similarity","trial_index":130,"time_elapsed":706398,"internal_node_id":"0.0-6.0-124.0"},{"sim_score":2,"rt":2144,"stimulus":"[\"img/0868/09a9ef4d-d000-4cfa-a6aa-ebec7c2edeb4.jpg\",\"img/0864/ea327690-500b-4137-bf91-451b309fe6a5.jpg\"]","trial_type":"similarity","trial_index":131,"time_elapsed":722142,"internal_node_id":"0.0-6.0-125.0"},{"sim_score":2,"rt":2708,"stimulus":"[\"img/0899/7b7380d5-d2be-44e5-a09a-c1756f87ef71.jpg\",\"img/0866/386235d2-6857-41e7-88a8-25cfc3430025.jpg\"]","trial_type":"similarity","trial_index":132,"time_elapsed":725870,"internal_node_id":"0.0-6.0-126.0"},{"sim_score":6,"rt":3059,"stimulus":"[\"img/0875/90da8d75-108a-44ad-b999-e21fee3860d3.jpg\",\"img/0904/e9423a8c-f946-43ad-ab7b-931acef870e2.jpg\"]","trial_type":"similarity","trial_index":133,"time_elapsed":729941,"internal_node_id":"0.0-6.0-127.0"},{"sim_score":5,"rt":3171,"stimulus":"[\"img/0867/12264664-1860-46df-8c21-162b9817cdda.jpg\",\"img/0899/4408c14d-c168-4a7d-96f6-bc87bfb58f83.jpg\"]","trial_type":"similarity","trial_index":134,"time_elapsed":734127,"internal_node_id":"0.0-6.0-128.0"},{"sim_score":2,"rt":2437,"stimulus":"[\"img/0901/548d1110-7cb8-42a2-9927-9798875c8b5c.jpg\",\"img/0867/6e19c858-b606-45b2-a4c6-910a73f1d82c.jpg\"]","trial_type":"similarity","trial_index":135,"time_elapsed":737576,"internal_node_id":"0.0-6.0-129.0"},{"sim_score":6,"rt":2586,"stimulus":"[\"img/0864/3d4de670-b290-4285-9c3d-12a0e3af44e9.jpg\",\"img/0769/da36e3f7-2337-434f-ab57-11822dd7eed7.jpg\"]","trial_type":"similarity","trial_index":136,"time_elapsed":741182,"internal_node_id":"0.0-6.0-130.0"},{"sim_score":3,"rt":4096,"stimulus":"[\"img/0903/5c6b1f57-b3a2-40f5-9fb1-82785e24b6a0.jpg\",\"img/0868/4a8a45ed-2c4f-421b-9564-409a33ecd26c.jpg\"]","trial_type":"similarity","trial_index":137,"time_elapsed":746288,"internal_node_id":"0.0-6.0-131.0"},{"sim_score":1,"rt":2442,"stimulus":"[\"img/0864/c22faebd-9c53-47bc-ada3-b9a30c688e75.jpg\",\"img/0867/85a96c62-548f-4994-9553-819e03c3135a.jpg\"]","trial_type":"similarity","trial_index":138,"time_elapsed":749748,"internal_node_id":"0.0-6.0-132.0"},{"sim_score":7,"rt":3090,"stimulus":"[\"img/0901/c6c877e0-dd63-4e00-9657-33af29d55aab.jpg\",\"img/0860/15b24a61-25be-4356-9eac-5ce95d0cb4a4.jpg\"]","trial_type":"similarity","trial_index":139,"time_elapsed":753852,"internal_node_id":"0.0-6.0-133.0"},{"sim_score":6,"rt":4264,"stimulus":"[\"img/0881/ed4c971f-0873-4fc8-b6d6-e8bbd82f0bcc.jpg\",\"img/0766/27f54113-8561-4568-9ffe-0a1650ae65ec.jpg\"]","trial_type":"similarity","trial_index":140,"time_elapsed":759127,"internal_node_id":"0.0-6.0-134.0"},{"sim_score":5,"rt":3480,"stimulus":"[\"img/0903/8635cf25-2648-4fe9-8c42-79d2598e999c.jpg\",\"img/0864/8ddd2e30-a1d0-479f-9cbe-591213023893.jpg\"]","trial_type":"similarity","trial_index":141,"time_elapsed":763626,"internal_node_id":"0.0-6.0-135.0"},{"sim_score":3,"rt":2905,"stimulus":"[\"img/0758/d540bee6-b460-4c32-ac57-bc282742d7d4.jpg\",\"img/0894/86201968-6e78-4d68-9b3a-d1692e066210.jpg\"]","trial_type":"similarity","trial_index":142,"time_elapsed":767545,"internal_node_id":"0.0-6.0-136.0"},{"sim_score":6,"rt":4280,"stimulus":"[\"img/0769/458d9c77-b844-40b5-bb1b-1e3bbd4da64e.jpg\",\"img/0860/8a92e21b-6a32-4e4a-a445-2d5a487ed0a4.jpg\"]","trial_type":"similarity","trial_index":143,"time_elapsed":772843,"internal_node_id":"0.0-6.0-137.0"},{"sim_score":6,"rt":3516,"stimulus":"[\"img/0904/9b3568cc-3cf7-42be-9df3-fdafde7a58b8.jpg\",\"img/0766/f011ef45-fb48-44b8-8224-867ed2ccf786.jpg\"]","trial_type":"similarity","trial_index":144,"time_elapsed":777374,"internal_node_id":"0.0-6.0-138.0"},{"sim_score":6,"rt":5336,"stimulus":"[\"img/0868/8b0b8473-e2c0-4331-aa56-c3a5c29369da.jpg\",\"img/0860/d9a0d117-6d1d-41c0-8fec-9aff0fd9e9f2.jpg\"]","trial_type":"similarity","trial_index":145,"time_elapsed":783725,"internal_node_id":"0.0-6.0-139.0"},{"sim_score":5,"rt":4235,"stimulus":"[\"img/0758/e1ba5e53-addc-436a-b428-d34fc1b130dc.jpg\",\"img/0864/65210d57-1153-4657-886a-32e758f49b4a.jpg\"]","trial_type":"similarity","trial_index":146,"time_elapsed":788977,"internal_node_id":"0.0-6.0-140.0"},{"sim_score":7,"rt":2499,"stimulus":"[\"img/0867/50a1b60e-3a29-44bf-b606-d4bd3746fea9.jpg\",\"img/0867/aa05d113-fc19-4756-a8eb-7878f580bc92.jpg\"]","trial_type":"similarity","trial_index":147,"time_elapsed":792499,"internal_node_id":"0.0-6.0-141.0"},{"sim_score":7,"rt":5333,"stimulus":"[\"img/0898/881e2a85-d5c2-49be-a0c6-8a6ce2c4af08.jpg\",\"img/0898/8605a25b-6895-476d-8c13-df7a83f96093.jpg\"]","trial_type":"similarity","trial_index":148,"time_elapsed":798844,"internal_node_id":"0.0-6.0-142.0"},{"sim_score":3,"rt":3846,"stimulus":"[\"img/0866/a04d37f0-99dd-478a-b6c6-58b215138f84.jpg\",\"img/0769/1ca58b80-2365-446d-9616-6c1719e6c46f.jpg\"]","trial_type":"similarity","trial_index":149,"time_elapsed":803702,"internal_node_id":"0.0-6.0-143.0"},{"sim_score":4,"rt":9623,"stimulus":"[\"img/0860/4a022222-056d-461c-ab02-39fac9647552.jpg\",\"img/0898/a114b375-cb89-44ba-9498-74213f1ecdee.jpg\"]","trial_type":"similarity","trial_index":150,"time_elapsed":814345,"internal_node_id":"0.0-6.0-144.0"},{"sim_score":3,"rt":3529,"stimulus":"[\"img/0766/fd064894-7147-4af5-97e9-2089d5472656.jpg\",\"img/0864/e336a4c5-6648-4fd7-b2f6-93a3fb83f8c6.jpg\"]","trial_type":"similarity","trial_index":151,"time_elapsed":818886,"internal_node_id":"0.0-6.0-145.0"},{"sim_score":6,"rt":4515,"stimulus":"[\"img/0860/71e1aad0-2cdf-43bb-94a4-a8c016997c30.jpg\",\"img/0903/c3cb4a01-2797-43ca-b216-88c67b323fbb.jpg\"]","trial_type":"similarity","trial_index":152,"time_elapsed":824421,"internal_node_id":"0.0-6.0-146.0"},{"sim_score":2,"rt":4054,"stimulus":"[\"img/0867/f8159067-056c-41f1-a136-c529fe5e970a.jpg\",\"img/0764/cffc80b0-4a90-4acb-a530-6f480f3ca303.jpg\"]","trial_type":"similarity","trial_index":153,"time_elapsed":829489,"internal_node_id":"0.0-6.0-147.0"},{"sim_score":6,"rt":2721,"stimulus":"[\"img/0769/e8ed913b-8a88-44f6-9327-d34afec3116b.jpg\",\"img/0904/ba8e689e-9ca6-4608-a2a1-3b0940666ae6.jpg\"]","trial_type":"similarity","trial_index":154,"time_elapsed":833224,"internal_node_id":"0.0-6.0-148.0"},{"sim_score":3,"rt":4548,"stimulus":"[\"img/0764/f2f23359-8e82-41d3-8900-5b9f4433991d.jpg\",\"img/0901/3db47171-0139-4235-82cd-0b1787b6775f.jpg\"]","trial_type":"similarity","trial_index":155,"time_elapsed":838783,"internal_node_id":"0.0-6.0-149.0"},{"sim_score":6,"rt":3429,"stimulus":"[\"img/0904/09934646-45d2-4147-8fec-64a22a5ac822.jpg\",\"img/0899/ddf96ade-692e-4602-bd22-dedbb46401bc.jpg\"]","trial_type":"similarity","trial_index":156,"time_elapsed":843226,"internal_node_id":"0.0-6.0-150.0"},{"sim_score":2,"rt":3533,"stimulus":"[\"img/0862/4f0a3b4c-afbf-486e-b248-1d54982f54b4.jpg\",\"img/0867/26611f4e-d694-4460-b7e2-43c62753ddc3.jpg\"]","trial_type":"similarity","trial_index":157,"time_elapsed":847772,"internal_node_id":"0.0-6.0-151.0"},{"sim_score":7,"rt":3092,"stimulus":"[\"img/0766/214866ee-423d-4629-9bb9-41572bdc7dac.jpg\",\"img/0766/ba35c0fc-4d5b-490d-959e-c94b279cdd02.jpg\"]","trial_type":"similarity","trial_index":158,"time_elapsed":851875,"internal_node_id":"0.0-6.0-152.0"},{"sim_score":6,"rt":2523,"stimulus":"[\"img/0862/24cdc752-c2e5-4a17-86a6-6f2045d8553b.jpg\",\"img/0894/3adef67d-7676-4995-80b2-bb31b8aca3ef.jpg\"]","trial_type":"similarity","trial_index":159,"time_elapsed":855415,"internal_node_id":"0.0-6.0-153.0"},{"sim_score":3,"rt":2697,"stimulus":"[\"img/0899/0433d056-aa30-4f8a-9aa1-abbb951e4edd.jpg\",\"img/0901/7c16dd9c-44ad-4d5b-990c-6a0b9b48b1b1.jpg\"]","trial_type":"similarity","trial_index":160,"time_elapsed":859130,"internal_node_id":"0.0-6.0-154.0"},{"sim_score":1,"rt":2574,"stimulus":"[\"img/0874/8cdb1c07-1c32-46d2-981c-3636560fa6e5.jpg\",\"img/0874/3f471690-9788-4d03-90c7-f615aecef149.jpg\"]","trial_type":"similarity","trial_index":161,"time_elapsed":862717,"internal_node_id":"0.0-6.0-155.0"},{"sim_score":1,"rt":2582,"stimulus":"[\"img/0860/524b2e98-5767-4d53-942c-ebae6925659b.jpg\",\"img/0867/075e0f95-856b-4cbb-acf5-092393aaf04e.jpg\"]","trial_type":"similarity","trial_index":162,"time_elapsed":866321,"internal_node_id":"0.0-6.0-156.0"},{"sim_score":1,"rt":3076,"stimulus":"[\"img/0901/effc03f6-8f9d-46db-a66c-16fc83891c5c.jpg\",\"img/0881/5fe04dd0-5c74-47b7-99c8-b068db9ca26a.jpg\"]","trial_type":"similarity","trial_index":163,"time_elapsed":870411,"internal_node_id":"0.0-6.0-157.0"},{"sim_score":7,"rt":3102,"stimulus":"[\"img/0903/ea75f240-fb62-4edb-a709-83e858b202c0.jpg\",\"img/0902/168ebd47-9e82-4ab7-a18b-c3da85072db8.jpg\"]","trial_type":"similarity","trial_index":164,"time_elapsed":874522,"internal_node_id":"0.0-6.0-158.0"},{"sim_score":3,"rt":3162,"stimulus":"[\"img/0860/9593362c-9fe5-4d12-9735-6000a11f6aa5.jpg\",\"img/0764/a3226bc4-dcc3-4608-bde8-1414d685ce5c.jpg\"]","trial_type":"similarity","trial_index":165,"time_elapsed":878694,"internal_node_id":"0.0-6.0-159.0"},{"sim_score":4,"rt":2723,"stimulus":"[\"img/0902/c9c74d2d-9b82-42d7-a9d0-3b8ff67ff81e.jpg\",\"img/0875/5a716432-c6ca-4b1c-955a-2b8ac25198ee.jpg\"]","trial_type":"similarity","trial_index":166,"time_elapsed":882430,"internal_node_id":"0.0-6.0-160.0"},{"sim_score":4,"rt":1570,"stimulus":"[\"img/0898/79233891-305a-4a6a-8ddf-5c8604858203.jpg\",\"img/0862/7918ca67-5bd3-4606-a5ea-c39fb11a9297.jpg\"]","trial_type":"similarity","trial_index":167,"time_elapsed":885013,"internal_node_id":"0.0-6.0-161.0"},{"sim_score":6,"rt":3372,"stimulus":"[\"img/0894/1b3888e6-cf36-4c4a-a039-187aa5cb71ac.jpg\",\"img/0875/fb732ab5-013a-4366-9f65-27811ed157e9.jpg\"]","trial_type":"similarity","trial_index":168,"time_elapsed":889398,"internal_node_id":"0.0-6.0-162.0"},{"sim_score":1,"rt":2833,"stimulus":"[\"img/0866/bf14b5bd-fb55-47db-86b9-4f8aeb9a6dad.jpg\",\"img/0864/9b2490c5-a282-400a-9736-e1a0ecbf1cb7.jpg\"]","trial_type":"similarity","trial_index":169,"time_elapsed":893248,"internal_node_id":"0.0-6.0-163.0"},{"sim_score":5,"rt":4719,"stimulus":"[\"img/0766/00891401-e4c9-4ce1-bc19-f70740d174bc.jpg\",\"img/0862/a0a3a7ba-7798-46a3-b4ca-05e1f6e581d0.jpg\"]","trial_type":"similarity","trial_index":170,"time_elapsed":898980,"internal_node_id":"0.0-6.0-164.0"},{"sim_score":1,"rt":2889,"stimulus":"[\"img/0866/c446214b-a368-4c65-ae39-ea46894256ab.jpg\",\"img/0874/85eb9b8a-c4c6-4e5a-b8e7-363a87a82054.jpg\"]","trial_type":"similarity","trial_index":171,"time_elapsed":902883,"internal_node_id":"0.0-6.0-165.0"},{"sim_score":7,"rt":2739,"stimulus":"[\"img/0862/e8cc3bdf-cc43-4565-bccf-492626c70953.jpg\",\"img/0860/c3379ff7-0763-48fe-a1ec-7ea3d611bc7a.jpg\"]","trial_type":"similarity","trial_index":172,"time_elapsed":906640,"internal_node_id":"0.0-6.0-166.0"},{"sim_score":1,"rt":3501,"stimulus":"[\"img/0766/006035d8-c736-4daf-bbe4-a9e373af9da6.jpg\",\"img/0901/6e2957f8-f5ab-46f4-87cc-bb50155a098b.jpg\"]","trial_type":"similarity","trial_index":173,"time_elapsed":921865,"internal_node_id":"0.0-6.0-167.0"},{"sim_score":7,"rt":4909,"stimulus":"[\"img/0862/d0ca4c78-fc35-46ed-bdcc-8e124283c53e.jpg\",\"img/0862/ad593cc7-cabe-4bb7-8e14-8a447a0717b4.jpg\"]","trial_type":"similarity","trial_index":174,"time_elapsed":927789,"internal_node_id":"0.0-6.0-168.0"},{"sim_score":3,"rt":3848,"stimulus":"[\"img/0894/3664e04c-c6d3-4c9b-afb6-25d89974b174.jpg\",\"img/0764/d0bef2e0-e16b-4c82-9451-c1d16265eb67.jpg\"]","trial_type":"similarity","trial_index":175,"time_elapsed":932654,"internal_node_id":"0.0-6.0-169.0"},{"sim_score":6,"rt":2575,"stimulus":"[\"img/0874/a3bc679d-619f-4db6-bb68-116dcb757d9c.jpg\",\"img/0898/82231d4c-218b-4d0a-b50d-35a49b524e97.jpg\"]","trial_type":"similarity","trial_index":176,"time_elapsed":936248,"internal_node_id":"0.0-6.0-170.0"},{"sim_score":5,"rt":3721,"stimulus":"[\"img/0860/8277806e-b684-4474-8f7b-3fca946d7d4f.jpg\",\"img/0766/0b48f9e0-7d37-4161-8adb-4e3f5b6b7583.jpg\"]","trial_type":"similarity","trial_index":177,"time_elapsed":940981,"internal_node_id":"0.0-6.0-171.0"},{"sim_score":6,"rt":3198,"stimulus":"[\"img/0898/c3cecf20-f7fd-45fa-97d0-dc0a63e8d6c0.jpg\",\"img/0864/6f631579-acf1-415c-a42c-1207f62a8d99.jpg\"]","trial_type":"similarity","trial_index":178,"time_elapsed":945188,"internal_node_id":"0.0-6.0-172.0"},{"sim_score":6,"rt":3663,"stimulus":"[\"img/0881/d373cb9f-a719-4549-a2a4-82def79fb2a5.jpg\",\"img/0764/4952d0a0-c9be-471a-8ec7-94a37bf4051d.jpg\"]","trial_type":"similarity","trial_index":179,"time_elapsed":949862,"internal_node_id":"0.0-6.0-173.0"},{"sim_score":1,"rt":3119,"stimulus":"[\"img/0898/0c7dde4f-efce-4b7a-9387-6921635b7890.jpg\",\"img/0868/77091fc7-a590-4ebb-b915-fdb2483a2399.jpg\"]","trial_type":"similarity","trial_index":180,"time_elapsed":953991,"internal_node_id":"0.0-6.0-174.0"},{"sim_score":7,"rt":4435,"stimulus":"[\"img/0864/ef9cbca0-4be8-435d-ad49-977259e80409.jpg\",\"img/0864/6e846d43-94a6-4b37-a268-65eda979f052.jpg\"]","trial_type":"similarity","trial_index":181,"time_elapsed":959442,"internal_node_id":"0.0-6.0-175.0"},{"sim_score":6,"rt":2782,"stimulus":"[\"img/0899/66ab3178-c3fe-4455-ad17-d5952b08e018.jpg\",\"img/0862/e0f1a4e9-e1b6-45f7-af67-89f334e6630d.jpg\"]","trial_type":"similarity","trial_index":182,"time_elapsed":963233,"internal_node_id":"0.0-6.0-176.0"},{"sim_score":1,"rt":3764,"stimulus":"[\"img/0875/e7e66b13-b573-431e-b85e-288ce04a35a3.jpg\",\"img/0758/dd559618-7f09-4a07-8018-d311c4a5ea29.jpg\"]","trial_type":"similarity","trial_index":183,"time_elapsed":968010,"internal_node_id":"0.0-6.0-177.0"},{"sim_score":3,"rt":4142,"stimulus":"[\"img/0866/620cd1aa-0800-4414-8f6e-90342e7a99ad.jpg\",\"img/0901/12da1841-e611-435c-9719-109413d536a8.jpg\"]","trial_type":"similarity","trial_index":184,"time_elapsed":973170,"internal_node_id":"0.0-6.0-178.0"},{"sim_score":3,"rt":2617,"stimulus":"[\"img/0769/96556ef3-7fac-4c9d-8281-1cb0ea5081bc.jpg\",\"img/0874/3ce41e7c-40c8-4d58-a546-171114521796.jpg\"]","trial_type":"similarity","trial_index":185,"time_elapsed":976802,"internal_node_id":"0.0-6.0-179.0"},{"sim_score":5,"rt":2838,"stimulus":"[\"img/0875/2c361b79-c3d1-4eda-812e-bf03192407bf.jpg\",\"img/0881/f4e3e181-b3c9-4af2-a5a4-fc135ab70d2e.jpg\"]","trial_type":"similarity","trial_index":186,"time_elapsed":980655,"internal_node_id":"0.0-6.0-180.0"},{"sim_score":6,"rt":3171,"stimulus":"[\"img/0866/4a87911a-d5be-4d4e-ab8e-3d1f581bf507.jpg\",\"img/0868/1a62b2b2-18f5-466e-b564-5176a57c565e.jpg\"]","trial_type":"similarity","trial_index":187,"time_elapsed":984835,"internal_node_id":"0.0-6.0-181.0"},{"sim_score":2,"rt":3277,"stimulus":"[\"img/0899/565ccdd9-0933-4536-a625-3c0e25a713dd.jpg\",\"img/0758/caa93da2-9edf-49fa-96b9-32dedd8f5078.jpg\"]","trial_type":"similarity","trial_index":188,"time_elapsed":989122,"internal_node_id":"0.0-6.0-182.0"},{"sim_score":4,"rt":1649,"stimulus":"[\"img/0874/eba003b4-cdab-4eee-8bc3-f064c7d94165.jpg\",\"img/0875/dbdd643e-6d0e-4a5c-ab57-b9c29b9c981a.jpg\"]","trial_type":"similarity","trial_index":189,"time_elapsed":991786,"internal_node_id":"0.0-6.0-183.0"},{"sim_score":4,"rt":1373,"stimulus":"[\"img/0904/63dd06dd-dccb-47ba-9740-eb33239e18a7.jpg\",\"img/0862/de9ad88c-b522-430a-8ee9-eb06a9f85df5.jpg\"]","trial_type":"similarity","trial_index":190,"time_elapsed":994170,"internal_node_id":"0.0-6.0-184.0"},{"sim_score":5,"rt":3043,"stimulus":"[\"img/0902/9f543501-3cf1-45a7-a2f1-eeca87cc15b9.jpg\",\"img/0766/6d32752d-aa05-40dc-9541-640b6e9d6fa1.jpg\"]","trial_type":"similarity","trial_index":191,"time_elapsed":998225,"internal_node_id":"0.0-6.0-185.0"},{"sim_score":3,"rt":3267,"stimulus":"[\"img/0758/a709631e-3705-4725-ac40-f0d916924f08.jpg\",\"img/0769/bb8c4e53-6f32-4814-97ee-392d4decfb2e.jpg\"]","trial_type":"similarity","trial_index":192,"time_elapsed":1002503,"internal_node_id":"0.0-6.0-186.0"},{"sim_score":4,"rt":3590,"stimulus":"[\"img/0881/566f45f8-5fed-4479-a60f-26377e60a62d.jpg\",\"img/0881/667e2147-d457-4f32-aa5f-6ab86e5848f1.jpg\"]","trial_type":"similarity","trial_index":193,"time_elapsed":1007104,"internal_node_id":"0.0-6.0-187.0"},{"sim_score":4,"rt":1503,"stimulus":"[\"img/0758/a085b443-b5d7-4cb2-9ad4-b9dab0fc23f1.jpg\",\"img/0866/93a27239-8317-4e08-98ca-d8b1ff298e07.jpg\"]","trial_type":"similarity","trial_index":194,"time_elapsed":1009620,"internal_node_id":"0.0-6.0-188.0"},{"sim_score":4,"rt":1303,"stimulus":"[\"img/0764/c80b3e06-2ee3-4326-9678-340607eb5348.jpg\",\"img/0898/40f99fb2-64d2-4e72-8a7f-a1cf60741e69.jpg\"]","trial_type":"similarity","trial_index":195,"time_elapsed":1011934,"internal_node_id":"0.0-6.0-189.0"},{"sim_score":4,"rt":1723,"stimulus":"[\"img/0903/f1fa0f8d-e62b-4b4a-a174-31a0fabfe61b.jpg\",\"img/0901/31c032fd-3c3d-4882-a226-da9a80198937.jpg\"]","trial_type":"similarity","trial_index":196,"time_elapsed":1014672,"internal_node_id":"0.0-6.0-190.0"},{"sim_score":4,"rt":1644,"stimulus":"[\"img/0902/0db94c50-f1fb-4091-953c-29ca0466bee2.jpg\",\"img/0898/a8f16b02-e19f-423b-86c3-a36562ae1f9b.jpg\"]","trial_type":"similarity","trial_index":197,"time_elapsed":1017331,"internal_node_id":"0.0-6.0-191.0"},{"sim_score":5,"rt":3696,"stimulus":"[\"img/0864/c3b63e8f-ea39-4d70-a1f2-b3fe4be8eb75.jpg\",\"img/0901/77087ed2-6e12-4329-b2a5-605bca6d972d.jpg\"]","trial_type":"similarity","trial_index":198,"time_elapsed":1022042,"internal_node_id":"0.0-6.0-192.0"},{"sim_score":6,"rt":2841,"stimulus":"[\"img/0894/7f2f31fd-6618-41c6-b65a-0fd8b2851bc9.jpg\",\"img/0881/b549bc99-a61c-4450-bab5-9efc3a197bf0.jpg\"]","trial_type":"similarity","trial_index":199,"time_elapsed":1025896,"internal_node_id":"0.0-6.0-193.0"},{"sim_score":7,"rt":2388,"stimulus":"[\"img/0868/c8ac40c7-6904-4e13-8d61-c75d3052dc4e.jpg\",\"img/0868/d98ca254-b195-477f-b57e-5760a2717db8.jpg\"]","trial_type":"similarity","trial_index":200,"time_elapsed":1029293,"internal_node_id":"0.0-6.0-194.0"},{"sim_score":6,"rt":4052,"stimulus":"[\"img/0899/76ad07e2-ca25-45eb-84f2-8d80b8ca3e26.jpg\",\"img/0764/f64dfa83-333d-494c-87b5-73e942f1766e.jpg\"]","trial_type":"similarity","trial_index":201,"time_elapsed":1034360,"internal_node_id":"0.0-6.0-195.0"},{"sim_score":1,"rt":2585,"stimulus":"[\"img/0881/f6bd3b96-dc40-4e99-8681-bc3a35cf896d.jpg\",\"img/0904/5cceabc9-de1d-4c67-989b-c28a4ef77e79.jpg\"]","trial_type":"similarity","trial_index":202,"time_elapsed":1037956,"internal_node_id":"0.0-6.0-196.0"},{"sim_score":4,"rt":2438,"stimulus":"[\"img/0864/0116ca98-293d-4fa6-a93b-5a6144ef64cc.jpg\",\"img/0902/94198618-7047-4dc9-ad04-85f4ba913067.jpg\"]","trial_type":"similarity","trial_index":203,"time_elapsed":1041408,"internal_node_id":"0.0-6.0-197.0"},{"sim_score":4,"rt":1587,"stimulus":"[\"img/0894/b2d2f66e-e480-46da-a02a-6d0c6b285d78.jpg\",\"img/0904/1d10df11-b5c8-4370-9a6b-097a7f965895.jpg\"]","trial_type":"similarity","trial_index":204,"time_elapsed":1044009,"internal_node_id":"0.0-6.0-198.0"},{"sim_score":7,"rt":3026,"stimulus":"[\"img/0901/1b86f2fc-7a1d-4aa8-9252-114f92edef3b.jpg\",\"img/0901/da4fe30f-d12a-491e-96a2-5ab8ebaadd09.jpg\"]","trial_type":"similarity","trial_index":205,"time_elapsed":1048057,"internal_node_id":"0.0-6.0-199.0"},{"sim_score":4,"rt":2557,"stimulus":"[\"img/0894/4739e06d-c31e-4bf1-bf91-c97fa9afb456.jpg\",\"img/0860/18dfed73-e36b-4487-a8bd-0b8cff8e3668.jpg\"]","trial_type":"similarity","trial_index":206,"time_elapsed":1051627,"internal_node_id":"0.0-6.0-200.0"},{"sim_score":6,"rt":2559,"stimulus":"[\"img/0898/6cd3830b-d44e-4915-be2b-88d31424b91c.jpg\",\"img/0903/45e2d600-57ff-4d69-b22c-0c7896cd38f0.jpg\"]","trial_type":"similarity","trial_index":207,"time_elapsed":1055201,"internal_node_id":"0.0-6.0-201.0"},{"sim_score":4,"rt":2664,"stimulus":"[\"img/0864/5f33e097-23e3-4002-882d-76e8cb15f451.jpg\",\"img/0894/2217bdcd-23a7-42d3-823b-23f2488d7e87.jpg\"]","trial_type":"similarity","trial_index":208,"time_elapsed":1058881,"internal_node_id":"0.0-6.0-202.0"},{"sim_score":6,"rt":2622,"stimulus":"[\"img/0874/ca23d307-fc00-4d7d-9106-584c6eb21b4d.jpg\",\"img/0860/8fdba999-b946-4c7d-9891-336018b563ef.jpg\"]","trial_type":"similarity","trial_index":209,"time_elapsed":1062515,"internal_node_id":"0.0-6.0-203.0"},{"sim_score":3,"rt":2820,"stimulus":"[\"img/0862/fb26cb07-d5a9-4653-813c-f41609f26cd5.jpg\",\"img/0875/a4935837-7d3c-4df6-88c1-36a94d4991ca.jpg\"]","trial_type":"similarity","trial_index":210,"time_elapsed":1066345,"internal_node_id":"0.0-6.0-204.0"},{"sim_score":1,"rt":2736,"stimulus":"[\"img/0867/ac1797e4-8afc-48fe-b252-86d1defb1cca.jpg\",\"img/0881/44e09805-5a25-4f17-a716-4ad4a331b174.jpg\"]","trial_type":"similarity","trial_index":211,"time_elapsed":1070092,"internal_node_id":"0.0-6.0-205.0"},{"sim_score":4,"rt":1858,"stimulus":"[\"img/0901/fb0a8e69-7f19-4e6e-a6bb-a48f97f9b4f3.jpg\",\"img/0902/d49743d6-67ae-4c2e-a939-8fd895a0f18e.jpg\"]","trial_type":"similarity","trial_index":212,"time_elapsed":1072963,"internal_node_id":"0.0-6.0-206.0"},{"sim_score":3,"rt":2368,"stimulus":"[\"img/0899/00715b3f-851b-420b-a26b-d7f79f7759a9.jpg\",\"img/0864/3651d070-2fc5-4848-b6a6-088a2d9ac5c9.jpg\"]","trial_type":"similarity","trial_index":213,"time_elapsed":1076341,"internal_node_id":"0.0-6.0-207.0"},{"sim_score":5,"rt":2992,"stimulus":"[\"img/0901/5b97abf9-f0c8-4fd1-b921-36d574779078.jpg\",\"img/0769/b664b502-a86c-46c1-ad6f-5ebffc2e1bd3.jpg\"]","trial_type":"similarity","trial_index":214,"time_elapsed":1080346,"internal_node_id":"0.0-6.0-208.0"},{"sim_score":6,"rt":2190,"stimulus":"[\"img/0902/cf9dee9c-2bdf-4d64-9302-97f1660fe52c.jpg\",\"img/0902/5b45a7a0-81c8-4a71-aaa2-2ce09adb5a29.jpg\"]","trial_type":"similarity","trial_index":215,"time_elapsed":1104233,"internal_node_id":"0.0-6.0-209.0"},{"view_history":"[{\"page_index\":0,\"viewing_time\":10266}]","rt":10268,"trial_type":"instructions","trial_index":216,"time_elapsed":1115504,"internal_node_id":"0.0-7.0"},{"rt":8954,"responses":"{\"Q0\":\"Orange-crowned Warbler\"}","answer":["Nashville Warbler"],"trial_type":"image-multi-choice","trial_index":217,"time_elapsed":1125509,"internal_node_id":"0.0-8.0-0.0"},{"rt":16659,"responses":"{\"Q0\":\"Black-and-white Warbler\"}","answer":["Black-and-white Warbler"],"trial_type":"image-multi-choice","trial_index":218,"time_elapsed":1143209,"internal_node_id":"0.0-8.0-1.0"},{"rt":5842,"responses":"{\"Q0\":\"Magnolia Warbler\"}","answer":["Townsend's Warbler"],"trial_type":"image-multi-choice","trial_index":219,"time_elapsed":1150089,"internal_node_id":"0.0-8.0-2.0"},{"rt":8026,"responses":"{\"Q0\":\"Lark Sparrow\"}","answer":["Lark Sparrow"],"trial_type":"image-multi-choice","trial_index":220,"time_elapsed":1159151,"internal_node_id":"0.0-8.0-3.0"},{"rt":3374,"responses":"{\"Q0\":\"Yellow Warbler\"}","answer":["Yellow Warbler"],"trial_type":"image-multi-choice","trial_index":221,"time_elapsed":1163546,"internal_node_id":"0.0-8.0-4.0"},{"rt":25159,"responses":"{\"Q0\":\"Tennessee Warbler\"}","answer":["Orange-crowned Warbler"],"trial_type":"image-multi-choice","trial_index":222,"time_elapsed":1189739,"internal_node_id":"0.0-8.0-5.0"},{"rt":6658,"responses":"{\"Q0\":\"White-throated Sparrow\"}","answer":["White-throated Sparrow"],"trial_type":"image-multi-choice","trial_index":223,"time_elapsed":1197429,"internal_node_id":"0.0-8.0-6.0"},{"rt":8268,"responses":"{\"Q0\":\"Fox Sparrow\"}","answer":["Fox Sparrow"],"trial_type":"image-multi-choice","trial_index":224,"time_elapsed":1206731,"internal_node_id":"0.0-8.0-7.0"},{"rt":8117,"responses":"{\"Q0\":\"Lincoln's Sparrow\"}","answer":["Song Sparrow"],"trial_type":"image-multi-choice","trial_index":225,"time_elapsed":1215886,"internal_node_id":"0.0-8.0-8.0"},{"rt":8197,"responses":"{\"Q0\":\"Blackburnian Warbler\"}","answer":["Blackburnian Warbler"],"trial_type":"image-multi-choice","trial_index":226,"time_elapsed":1225116,"internal_node_id":"0.0-8.0-9.0"},{"rt":13647,"responses":"{\"Q0\":\"Swamp Sparrow\"}","answer":["Vesper Sparrow"],"trial_type":"image-multi-choice","trial_index":227,"time_elapsed":1239801,"internal_node_id":"0.0-8.0-10.0"},{"rt":4898,"responses":"{\"Q0\":\"White-crowned Sparrow\"}","answer":["White-crowned Sparrow"],"trial_type":"image-multi-choice","trial_index":228,"time_elapsed":1245732,"internal_node_id":"0.0-8.0-11.0"},{"rt":8255,"responses":"{\"Q0\":\"American Tree Sparrow\"}","answer":["American Tree Sparrow"],"trial_type":"image-multi-choice","trial_index":229,"time_elapsed":1255021,"internal_node_id":"0.0-8.0-12.0"},{"rt":5497,"responses":"{\"Q0\":\"Nashville Warbler\"}","answer":["Tennessee Warbler"],"trial_type":"image-multi-choice","trial_index":230,"time_elapsed":1261554,"internal_node_id":"0.0-8.0-13.0"},{"rt":14292,"responses":"{\"Q0\":\"Blackburnian Warbler\"}","answer":["Magnolia Warbler"],"trial_type":"image-multi-choice","trial_index":231,"time_elapsed":1276878,"internal_node_id":"0.0-8.0-14.0"},{"rt":4526,"responses":"{\"Q0\":\"Ovenbird\"}","answer":["Northern Waterthrush"],"trial_type":"image-multi-choice","trial_index":232,"time_elapsed":1282440,"internal_node_id":"0.0-8.0-15.0"},{"rt":7739,"responses":"{\"Q0\":\"Vesper Sparrow\"}","answer":["Chipping Sparrow"],"trial_type":"image-multi-choice","trial_index":233,"time_elapsed":1291217,"internal_node_id":"0.0-8.0-16.0"},{"rt":6179,"responses":"{\"Q0\":\"Chipping Sparrow\"}","answer":["Swamp Sparrow"],"trial_type":"image-multi-choice","trial_index":234,"time_elapsed":1298430,"internal_node_id":"0.0-8.0-17.0"},{"rt":23328,"responses":"{\"Q0\":\"Song Sparrow\"}","answer":["Lincoln's Sparrow"],"trial_type":"image-multi-choice","trial_index":235,"time_elapsed":1322794,"internal_node_id":"0.0-8.0-18.0"},{"rt":13670,"responses":"{\"Q0\":\"Song Sparrow\"}","answer":["Ovenbird"],"trial_type":"image-multi-choice","trial_index":236,"time_elapsed":1337498,"internal_node_id":"0.0-8.0-19.0"}]