[{"view_history":"[{\"page_index\":0,\"viewing_time\":8913}]","rt":8914,"trial_type":"instructions","trial_index":0,"time_elapsed":8916,"internal_node_id":"0.0-0.0"},{"sim_score":5,"rt":7669,"stimulus":"[\"img/866.jpg\",\"img/868.jpg\"]","trial_type":"similarity_demo","trial_index":1,"time_elapsed":17602,"internal_node_id":"0.0-1.0"},{"view_history":"[{\"page_index\":0,\"viewing_time\":16287}]","rt":16288,"trial_type":"instructions","trial_index":2,"time_elapsed":34891,"internal_node_id":"0.0-2.0"},{"sim_score":2,"rt":8012,"stimulus":"[\"img/766.jpg\",\"img/867.jpg\"]","trial_type":"similarity_demo","trial_index":3,"time_elapsed":43910,"internal_node_id":"0.0-3.0"},{"view_history":"[{\"page_index\":0,\"viewing_time\":10632}]","rt":10633,"trial_type":"instructions","trial_index":4,"time_elapsed":55546,"internal_node_id":"0.0-4.0"},{"view_history":"[{\"page_index\":0,\"viewing_time\":11647}]","rt":11648,"trial_type":"instructions","trial_index":5,"time_elapsed":68197,"internal_node_id":"0.0-5.0"},{"sim_score":3,"rt":7450,"stimulus":"[\"img/0868/77091fc7-a590-4ebb-b915-fdb2483a2399.jpg\",\"img/0901/c6df1a21-44ed-47c2-960e-7c52220e329e.jpg\"]","trial_type":"similarity","trial_index":6,"time_elapsed":76656,"internal_node_id":"0.0-6.0-0.0"},{"sim_score":2,"rt":5819,"stimulus":"[\"img/0769/022c7e3b-c3f2-4119-b4bc-f22fa7cae18c.jpg\",\"img/0867/ac1797e4-8afc-48fe-b252-86d1defb1cca.jpg\"]","trial_type":"similarity","trial_index":7,"time_elapsed":83485,"internal_node_id":"0.0-6.0-1.0"},{"sim_score":5,"rt":6099,"stimulus":"[\"img/0766/75c3d627-4f3b-40d5-9d9c-10c8a62db644.jpg\",\"img/0898/c3cecf20-f7fd-45fa-97d0-dc0a63e8d6c0.jpg\"]","trial_type":"similarity","trial_index":8,"time_elapsed":90596,"internal_node_id":"0.0-6.0-2.0"},{"sim_score":7,"rt":3580,"stimulus":"[\"img/0902/3b243e54-0803-4c29-af42-4037c2118495.jpg\",\"img/0881/ee44e27f-d662-4608-b265-e7ffa19b216f.jpg\"]","trial_type":"similarity","trial_index":9,"time_elapsed":95185,"internal_node_id":"0.0-6.0-3.0"},{"sim_score":6,"rt":4827,"stimulus":"[\"img/0894/5c7677b0-a4f1-479e-b274-7822c415175a.jpg\",\"img/0894/0130a973-d993-41f8-874a-fee23d9ac11f.jpg\"]","trial_type":"similarity","trial_index":10,"time_elapsed":101019,"internal_node_id":"0.0-6.0-4.0"},{"sim_score":6,"rt":4903,"stimulus":"[\"img/0874/85eb9b8a-c4c6-4e5a-b8e7-363a87a82054.jpg\",\"img/0899/0adc0bc3-6fca-4078-be6f-d45ddf1653d5.jpg\"]","trial_type":"similarity","trial_index":11,"time_elapsed":106932,"internal_node_id":"0.0-6.0-5.0"},{"sim_score":5,"rt":3738,"stimulus":"[\"img/0904/06dacdc5-2206-4fb8-92b7-88042d22833c.jpg\",\"img/0764/6c7fe363-2d37-418f-9e5e-a3273af5d4fb.jpg\"]","trial_type":"similarity","trial_index":12,"time_elapsed":111677,"internal_node_id":"0.0-6.0-6.0"},{"sim_score":4,"rt":4506,"stimulus":"[\"img/0899/ddf96ade-692e-4602-bd22-dedbb46401bc.jpg\",\"img/0898/224c1572-56b9-4f16-a9e4-6f3bc9c114bd.jpg\"]","trial_type":"similarity","trial_index":13,"time_elapsed":117190,"internal_node_id":"0.0-6.0-7.0"},{"sim_score":3,"rt":4685,"stimulus":"[\"img/0874/adf9a8f1-c40b-402b-b95b-1e85a54a7b62.jpg\",\"img/0903/e2e55a9e-0397-4dc0-8adf-4a54cfefe1fe.jpg\"]","trial_type":"similarity","trial_index":14,"time_elapsed":122882,"internal_node_id":"0.0-6.0-8.0"},{"sim_score":7,"rt":4105,"stimulus":"[\"img/0881/c24f3051-eefa-42de-aba6-fccb56d93c70.jpg\",\"img/0758/d540bee6-b460-4c32-ac57-bc282742d7d4.jpg\"]","trial_type":"similarity","trial_index":15,"time_elapsed":127997,"internal_node_id":"0.0-6.0-9.0"},{"sim_score":7,"rt":3396,"stimulus":"[\"img/0898/661621d4-a14e-487c-8c74-354134a29710.jpg\",\"img/0901/875dedb9-24c9-4443-9f8c-85e97d70ee5a.jpg\"]","trial_type":"similarity","trial_index":16,"time_elapsed":132401,"internal_node_id":"0.0-6.0-10.0"},{"sim_score":6,"rt":4385,"stimulus":"[\"img/0903/470acfd5-5571-4a7b-b3a4-28d87e098138.jpg\",\"img/0769/d1be2815-fa79-46e8-b5c3-7d81caaca490.jpg\"]","trial_type":"similarity","trial_index":17,"time_elapsed":137796,"internal_node_id":"0.0-6.0-11.0"},{"sim_score":1,"rt":3398,"stimulus":"[\"img/0764/5d6fa3ce-9083-410c-bbdb-336a49b94cfc.jpg\",\"img/0868/83b4350a-3b70-4cea-b7f5-b5b56f3050a8.jpg\"]","trial_type":"similarity","trial_index":18,"time_elapsed":142202,"internal_node_id":"0.0-6.0-12.0"},{"sim_score":6,"rt":5744,"stimulus":"[\"img/0867/85a96c62-548f-4994-9553-819e03c3135a.jpg\",\"img/0903/f10e9eb5-0c21-4a6a-944c-5f10a6d0fa4d.jpg\"]","trial_type":"similarity","trial_index":19,"time_elapsed":148953,"internal_node_id":"0.0-6.0-13.0"},{"sim_score":3,"rt":5093,"stimulus":"[\"img/0766/af3be95e-e52e-4fae-899b-0ff02ec340aa.jpg\",\"img/0758/7ee8bc8f-c40b-4b3a-84ec-3e83580622d4.jpg\"]","trial_type":"similarity","trial_index":20,"time_elapsed":155054,"internal_node_id":"0.0-6.0-14.0"},{"sim_score":6,"rt":3870,"stimulus":"[\"img/0902/2db723b6-130f-454c-8c8d-88829edbcd65.jpg\",\"img/0860/71e1aad0-2cdf-43bb-94a4-a8c016997c30.jpg\"]","trial_type":"similarity","trial_index":21,"time_elapsed":159931,"internal_node_id":"0.0-6.0-15.0"},{"sim_score":3,"rt":7783,"stimulus":"[\"img/0769/8056889f-2b14-4782-bb25-b4e8896ab65b.jpg\",\"img/0875/f87b67d7-c33e-40d1-b281-248c4be1cb6e.jpg\"]","trial_type":"similarity","trial_index":22,"time_elapsed":168721,"internal_node_id":"0.0-6.0-16.0"},{"sim_score":3,"rt":6992,"stimulus":"[\"img/0904/0d17b811-063e-416e-a23c-3b3cfa4fcce5.jpg\",\"img/0866/620cd1aa-0800-4414-8f6e-90342e7a99ad.jpg\"]","trial_type":"similarity","trial_index":23,"time_elapsed":176721,"internal_node_id":"0.0-6.0-17.0"},{"sim_score":7,"rt":3573,"stimulus":"[\"img/0875/d59ff733-eaff-4ee2-9443-06954dd0bcb6.jpg\",\"img/0875/5a1e5100-0d94-4fec-bbe9-ca9894d2cf8e.jpg\"]","trial_type":"similarity","trial_index":24,"time_elapsed":181305,"internal_node_id":"0.0-6.0-18.0"},{"sim_score":6,"rt":3512,"stimulus":"[\"img/0758/d57c2592-a317-4f63-91be-91a3a9afd222.jpg\",\"img/0758/2fa3e613-e676-4e6e-bd12-705327eeb3e1.jpg\"]","trial_type":"similarity","trial_index":25,"time_elapsed":185838,"internal_node_id":"0.0-6.0-19.0"},{"sim_score":3,"rt":4155,"stimulus":"[\"img/0902/5b45a7a0-81c8-4a71-aaa2-2ce09adb5a29.jpg\",\"img/0874/c0378dac-9370-439a-8b79-db27c96fb390.jpg\"]","trial_type":"similarity","trial_index":26,"time_elapsed":191002,"internal_node_id":"0.0-6.0-20.0"},{"sim_score":6,"rt":5132,"stimulus":"[\"img/0764/c80b3e06-2ee3-4326-9678-340607eb5348.jpg\",\"img/0769/3c1efec9-f8fd-487d-8955-4be88e48c832.jpg\"]","trial_type":"similarity","trial_index":27,"time_elapsed":197143,"internal_node_id":"0.0-6.0-21.0"},{"sim_score":2,"rt":3436,"stimulus":"[\"img/0901/1b86f2fc-7a1d-4aa8-9252-114f92edef3b.jpg\",\"img/0874/99f6563c-8a8d-4c1c-a41d-667b618c3fd5.jpg\"]","trial_type":"similarity","trial_index":28,"time_elapsed":201588,"internal_node_id":"0.0-6.0-22.0"},{"sim_score":3,"rt":4220,"stimulus":"[\"img/0875/527ced51-8e53-4aab-ab05-86df219104c0.jpg\",\"img/0903/5995f4a8-fa82-46f8-8760-fd7800a5ca34.jpg\"]","trial_type":"similarity","trial_index":29,"time_elapsed":206818,"internal_node_id":"0.0-6.0-23.0"},{"sim_score":5,"rt":4051,"stimulus":"[\"img/0769/662ab839-88d1-4ebf-af05-9b2980cad943.jpg\",\"img/0881/14236cf2-6b95-48b8-9368-78af09d2d27f.jpg\"]","trial_type":"similarity","trial_index":30,"time_elapsed":211880,"internal_node_id":"0.0-6.0-24.0"},{"sim_score":2,"rt":4633,"stimulus":"[\"img/0867/c66898ba-b71b-4d50-84f9-f7f84853a98d.jpg\",\"img/0904/5cceabc9-de1d-4c67-989b-c28a4ef77e79.jpg\"]","trial_type":"similarity","trial_index":31,"time_elapsed":217520,"internal_node_id":"0.0-6.0-25.0"},{"sim_score":3,"rt":4834,"stimulus":"[\"img/0860/702bd09d-df3a-40aa-a267-5f04474305b5.jpg\",\"img/0881/609a5e93-38b5-4940-8627-2bf8fad7f802.jpg\"]","trial_type":"similarity","trial_index":32,"time_elapsed":223361,"internal_node_id":"0.0-6.0-26.0"},{"sim_score":3,"rt":4427,"stimulus":"[\"img/0866/be24ab58-230e-4db8-9f45-ff04c9aec6bb.jpg\",\"img/0866/386235d2-6857-41e7-88a8-25cfc3430025.jpg\"]","trial_type":"similarity","trial_index":33,"time_elapsed":228795,"internal_node_id":"0.0-6.0-27.0"},{"sim_score":2,"rt":4432,"stimulus":"[\"img/0764/e30dba15-e68a-4659-89db-e1654b52fe02.jpg\",\"img/0862/a0a3a7ba-7798-46a3-b4ca-05e1f6e581d0.jpg\"]","trial_type":"similarity","trial_index":34,"time_elapsed":234235,"internal_node_id":"0.0-6.0-28.0"},{"sim_score":6,"rt":3938,"stimulus":"[\"img/0904/4e58005d-a2ec-4aaa-b199-445343561396.jpg\",\"img/0758/6e95579b-5166-487c-b8cb-e417c6a218e3.jpg\"]","trial_type":"similarity","trial_index":35,"time_elapsed":239181,"internal_node_id":"0.0-6.0-29.0"},{"sim_score":3,"rt":4894,"stimulus":"[\"img/0894/a3d4170b-b7d8-40e3-955f-87e76ed745fc.jpg\",\"img/0899/66ab3178-c3fe-4455-ad17-d5952b08e018.jpg\"]","trial_type":"similarity","trial_index":36,"time_elapsed":245085,"internal_node_id":"0.0-6.0-30.0"},{"sim_score":5,"rt":6652,"stimulus":"[\"img/0860/c7047cd2-7cc1-41b6-8a34-c0986774975f.jpg\",\"img/0904/e9423a8c-f946-43ad-ab7b-931acef870e2.jpg\"]","trial_type":"similarity","trial_index":37,"time_elapsed":252745,"internal_node_id":"0.0-6.0-31.0"},{"sim_score":5,"rt":4535,"stimulus":"[\"img/0874/8cdb1c07-1c32-46d2-981c-3636560fa6e5.jpg\",\"img/0881/20af39f5-373d-4a55-a437-2dc4c0382c46.jpg\"]","trial_type":"similarity","trial_index":38,"time_elapsed":258287,"internal_node_id":"0.0-6.0-32.0"},{"sim_score":3,"rt":5906,"stimulus":"[\"img/0881/f6bd3b96-dc40-4e99-8681-bc3a35cf896d.jpg\",\"img/0899/fef567a2-c121-4481-9af0-ff108d199bbf.jpg\"]","trial_type":"similarity","trial_index":39,"time_elapsed":265200,"internal_node_id":"0.0-6.0-33.0"},{"sim_score":3,"rt":4106,"stimulus":"[\"img/0866/9b38d691-1802-4959-ab3f-fc902f0e4ea6.jpg\",\"img/0862/fad1d7c1-8187-43c3-942a-0fc12183e48e.jpg\"]","trial_type":"similarity","trial_index":40,"time_elapsed":270314,"internal_node_id":"0.0-6.0-34.0"},{"sim_score":5,"rt":5237,"stimulus":"[\"img/0868/09a9ef4d-d000-4cfa-a6aa-ebec7c2edeb4.jpg\",\"img/0894/151063aa-6472-4745-837b-36603aba5966.jpg\"]","trial_type":"similarity","trial_index":41,"time_elapsed":276559,"internal_node_id":"0.0-6.0-35.0"},{"sim_score":7,"rt":6838,"stimulus":"[\"img/0860/8a92e21b-6a32-4e4a-a445-2d5a487ed0a4.jpg\",\"img/0860/87039971-2210-4aab-93c0-8e9b5f1655b2.jpg\"]","trial_type":"similarity","trial_index":42,"time_elapsed":284407,"internal_node_id":"0.0-6.0-36.0"},{"sim_score":3,"rt":4237,"stimulus":"[\"img/0862/e8cc3bdf-cc43-4565-bccf-492626c70953.jpg\",\"img/0864/efcfbb1b-8197-44c9-b723-40d6c608dd3c.jpg\"]","trial_type":"similarity","trial_index":43,"time_elapsed":289654,"internal_node_id":"0.0-6.0-37.0"},{"sim_score":1,"rt":3449,"stimulus":"[\"img/0766/33519c22-aaa4-49d7-8d49-ab551db1945e.jpg\",\"img/0866/11a1d141-be5e-443c-98c1-a9d4d9e3dec0.jpg\"]","trial_type":"similarity","trial_index":44,"time_elapsed":294114,"internal_node_id":"0.0-6.0-38.0"},{"sim_score":3,"rt":4418,"stimulus":"[\"img/0875/a4935837-7d3c-4df6-88c1-36a94d4991ca.jpg\",\"img/0898/e167334e-cc1d-4986-b3b1-c7bc7da64baa.jpg\"]","trial_type":"similarity","trial_index":45,"time_elapsed":299540,"internal_node_id":"0.0-6.0-39.0"},{"sim_score":2,"rt":3600,"stimulus":"[\"img/0766/79767d11-b612-4e8a-9e4b-a8ac95bb6a54.jpg\",\"img/0769/1afb527f-9887-428c-bd26-a12c2f9efb68.jpg\"]","trial_type":"similarity","trial_index":46,"time_elapsed":304149,"internal_node_id":"0.0-6.0-40.0"},{"sim_score":5,"rt":3947,"stimulus":"[\"img/0874/2c9464dd-8a23-4baa-ac94-1ba3af5c15cc.jpg\",\"img/0764/8740679b-b56f-4292-aece-14063457113a.jpg\"]","trial_type":"similarity","trial_index":47,"time_elapsed":321979,"internal_node_id":"0.0-6.0-41.0"},{"sim_score":3,"rt":5508,"stimulus":"[\"img/0868/5fa7f9d0-f0e5-454c-8224-74d964818f56.jpg\",\"img/0902/b03129ba-b087-4558-af37-e8399d6217d6.jpg\"]","trial_type":"similarity","trial_index":48,"time_elapsed":328495,"internal_node_id":"0.0-6.0-42.0"},{"sim_score":2,"rt":4539,"stimulus":"[\"img/0875/03c3c331-738b-4446-af92-3d7386b08c2e.jpg\",\"img/0899/7b7380d5-d2be-44e5-a09a-c1756f87ef71.jpg\"]","trial_type":"similarity","trial_index":49,"time_elapsed":334045,"internal_node_id":"0.0-6.0-43.0"},{"sim_score":2,"rt":6838,"stimulus":"[\"img/0866/bf14b5bd-fb55-47db-86b9-4f8aeb9a6dad.jpg\",\"img/0860/c3379ff7-0763-48fe-a1ec-7ea3d611bc7a.jpg\"]","trial_type":"similarity","trial_index":50,"time_elapsed":341892,"internal_node_id":"0.0-6.0-44.0"},{"sim_score":1,"rt":5680,"stimulus":"[\"img/0766/0b48f9e0-7d37-4161-8adb-4e3f5b6b7583.jpg\",\"img/0903/71dbc325-b588-4297-a5cf-7f268a722ad9.jpg\"]","trial_type":"similarity","trial_index":51,"time_elapsed":348582,"internal_node_id":"0.0-6.0-45.0"},{"sim_score":3,"rt":3768,"stimulus":"[\"img/0901/b9141736-3041-4385-a586-b1fe911c76a5.jpg\",\"img/0904/5aec2708-cf14-4a58-aa30-9a8a61c1be0e.jpg\"]","trial_type":"similarity","trial_index":52,"time_elapsed":353357,"internal_node_id":"0.0-6.0-46.0"},{"sim_score":3,"rt":5574,"stimulus":"[\"img/0758/eabcd7a8-56ad-4fd2-bc24-90f6b7b33265.jpg\",\"img/0902/51493fab-2a10-4385-aa88-bee3db441626.jpg\"]","trial_type":"similarity","trial_index":53,"time_elapsed":359942,"internal_node_id":"0.0-6.0-47.0"},{"sim_score":7,"rt":4450,"stimulus":"[\"img/0764/56441045-b648-4ede-9632-3e9c0227080b.jpg\",\"img/0764/8389e74f-e0e0-435d-945f-da1f4c92ccb6.jpg\"]","trial_type":"similarity","trial_index":54,"time_elapsed":365400,"internal_node_id":"0.0-6.0-48.0"},{"sim_score":2,"rt":5100,"stimulus":"[\"img/0866/d493a2c8-66eb-44b4-be02-2f327b700b7c.jpg\",\"img/0902/1a120fb9-dbd6-443e-ba91-b4aceab963da.jpg\"]","trial_type":"similarity","trial_index":55,"time_elapsed":371505,"internal_node_id":"0.0-6.0-49.0"},{"sim_score":6,"rt":5257,"stimulus":"[\"img/0764/06ea144f-f4f3-4a14-ba47-f20f35c561e0.jpg\",\"img/0758/e38fd80d-18d0-42f3-b848-f930788e8bd7.jpg\"]","trial_type":"similarity","trial_index":56,"time_elapsed":377769,"internal_node_id":"0.0-6.0-50.0"},{"sim_score":5,"rt":4570,"stimulus":"[\"img/0898/f3a3f225-1248-4ac7-b93b-f0ff28485bf3.jpg\",\"img/0894/e2446cf5-cd48-486a-badc-76498e087fbe.jpg\"]","trial_type":"similarity","trial_index":57,"time_elapsed":383345,"internal_node_id":"0.0-6.0-51.0"},{"sim_score":7,"rt":3821,"stimulus":"[\"img/0875/99698b4d-b4a1-44bc-8c83-8ea755bbbf61.jpg\",\"img/0866/8efcaa46-83ab-4dee-a35f-850402aa21ae.jpg\"]","trial_type":"similarity","trial_index":58,"time_elapsed":388175,"internal_node_id":"0.0-6.0-52.0"},{"sim_score":7,"rt":3545,"stimulus":"[\"img/0904/fe746a3f-8458-48d0-8a13-8cba2a9df9f8.jpg\",\"img/0904/09dac84f-3d1c-4445-a68e-d0389fdbf1e9.jpg\"]","trial_type":"similarity","trial_index":59,"time_elapsed":392729,"internal_node_id":"0.0-6.0-53.0"},{"sim_score":7,"rt":6270,"stimulus":"[\"img/0769/c7cfacc3-7f07-46ff-9f5d-8073f4c4679b.jpg\",\"img/0769/057eb0a0-aa5b-40c7-9852-21444f68d767.jpg\"]","trial_type":"similarity","trial_index":60,"time_elapsed":400008,"internal_node_id":"0.0-6.0-54.0"},{"sim_score":4,"rt":4991,"stimulus":"[\"img/0898/6cd3830b-d44e-4915-be2b-88d31424b91c.jpg\",\"img/0758/b76ceca7-95ac-46e4-ac13-da02c8e93be9.jpg\"]","trial_type":"similarity","trial_index":61,"time_elapsed":406006,"internal_node_id":"0.0-6.0-55.0"},{"sim_score":7,"rt":6126,"stimulus":"[\"img/0769/b664b502-a86c-46c1-ad6f-5ebffc2e1bd3.jpg\",\"img/0902/9f543501-3cf1-45a7-a2f1-eeca87cc15b9.jpg\"]","trial_type":"similarity","trial_index":62,"time_elapsed":413143,"internal_node_id":"0.0-6.0-56.0"},{"sim_score":6,"rt":4351,"stimulus":"[\"img/0864/8ddd2e30-a1d0-479f-9cbe-591213023893.jpg\",\"img/0881/4da99fdd-1f40-4bbb-8e21-8833eef313f5.jpg\"]","trial_type":"similarity","trial_index":63,"time_elapsed":418502,"internal_node_id":"0.0-6.0-57.0"},{"sim_score":1,"rt":3843,"stimulus":"[\"img/0758/65d426d6-3ff6-415d-8654-a43b83ecc4fe.jpg\",\"img/0868/6a28c3b0-3d76-498a-9fb7-ddafc665eca8.jpg\"]","trial_type":"similarity","trial_index":64,"time_elapsed":423355,"internal_node_id":"0.0-6.0-58.0"},{"sim_score":3,"rt":6379,"stimulus":"[\"img/0862/847e5208-38ec-4f36-949c-296cdd7424ee.jpg\",\"img/0769/9ea27d61-3d55-418c-8d14-82e90f656f01.jpg\"]","trial_type":"similarity","trial_index":65,"time_elapsed":430740,"internal_node_id":"0.0-6.0-59.0"},{"sim_score":5,"rt":7215,"stimulus":"[\"img/0764/1f95ab5f-fb65-4d70-b5db-d6bd6351a8aa.jpg\",\"img/0903/b0a3c45f-467e-412f-a183-c9c1827f2e63.jpg\"]","trial_type":"similarity","trial_index":66,"time_elapsed":438966,"internal_node_id":"0.0-6.0-60.0"},{"sim_score":7,"rt":6148,"stimulus":"[\"img/0899/93494f3b-d539-4075-b027-d82e344563da.jpg\",\"img/0899/f58b8d2f-b19d-4b59-8b94-8834be92e4ba.jpg\"]","trial_type":"similarity","trial_index":67,"time_elapsed":446124,"internal_node_id":"0.0-6.0-61.0"},{"sim_score":4,"rt":5638,"stimulus":"[\"img/0860/4c530c3c-6aab-492a-94d1-9c01797bde40.jpg\",\"img/0875/2c361b79-c3d1-4eda-812e-bf03192407bf.jpg\"]","trial_type":"similarity","trial_index":68,"time_elapsed":452772,"internal_node_id":"0.0-6.0-62.0"},{"sim_score":1,"rt":3210,"stimulus":"[\"img/0868/293079b8-7e0c-4afd-a390-1e5d35fe3ded.jpg\",\"img/0874/a82926a3-0b43-4add-803c-d5f9ea7798ee.jpg\"]","trial_type":"similarity","trial_index":69,"time_elapsed":456991,"internal_node_id":"0.0-6.0-63.0"},{"sim_score":6,"rt":3480,"stimulus":"[\"img/0758/d41c06bf-ebaf-454b-91c6-1a17f917b659.jpg\",\"img/0862/7918ca67-5bd3-4606-a5ea-c39fb11a9297.jpg\"]","trial_type":"similarity","trial_index":70,"time_elapsed":461482,"internal_node_id":"0.0-6.0-64.0"},{"sim_score":5,"rt":5245,"stimulus":"[\"img/0904/2f88ce53-02d0-4f95-a082-182c56a0eeb4.jpg\",\"img/0898/a8f16b02-e19f-423b-86c3-a36562ae1f9b.jpg\"]","trial_type":"similarity","trial_index":71,"time_elapsed":467738,"internal_node_id":"0.0-6.0-65.0"},{"sim_score":4,"rt":4166,"stimulus":"[\"img/0881/445edb15-bd7f-4af3-8bd5-c6ad9677bb31.jpg\",\"img/0866/6f2a90d7-14f1-4f1b-bd64-fc0af6b9fe44.jpg\"]","trial_type":"similarity","trial_index":72,"time_elapsed":472911,"internal_node_id":"0.0-6.0-66.0"},{"sim_score":2,"rt":3916,"stimulus":"[\"img/0867/f26f6b60-f772-4f4c-95a4-addc62cfd692.jpg\",\"img/0898/82231d4c-218b-4d0a-b50d-35a49b524e97.jpg\"]","trial_type":"similarity","trial_index":73,"time_elapsed":477833,"internal_node_id":"0.0-6.0-67.0"},{"sim_score":6,"rt":4386,"stimulus":"[\"img/0902/0c760cc9-10ac-429e-8957-a7d51fc99683.jpg\",\"img/0764/e42c1dc9-7831-4995-be19-7ca7b4d141fc.jpg\"]","trial_type":"similarity","trial_index":74,"time_elapsed":483227,"internal_node_id":"0.0-6.0-68.0"},{"sim_score":5,"rt":4812,"stimulus":"[\"img/0875/cff79b3a-a797-4393-9757-6275f999ec04.jpg\",\"img/0867/50a1b60e-3a29-44bf-b606-d4bd3746fea9.jpg\"]","trial_type":"similarity","trial_index":75,"time_elapsed":489048,"internal_node_id":"0.0-6.0-69.0"},{"sim_score":7,"rt":5489,"stimulus":"[\"img/0766/ba35c0fc-4d5b-490d-959e-c94b279cdd02.jpg\",\"img/0764/0e7ed062-f798-4366-8a24-6f430926f919.jpg\"]","trial_type":"similarity","trial_index":76,"time_elapsed":495543,"internal_node_id":"0.0-6.0-70.0"},{"sim_score":1,"rt":3484,"stimulus":"[\"img/0894/7f2f31fd-6618-41c6-b65a-0fd8b2851bc9.jpg\",\"img/0867/f8488a47-94ee-4166-952c-44e16cf172f6.jpg\"]","trial_type":"similarity","trial_index":77,"time_elapsed":500034,"internal_node_id":"0.0-6.0-71.0"},{"sim_score":2,"rt":7225,"stimulus":"[\"img/0875/dbdd643e-6d0e-4a5c-ab57-b9c29b9c981a.jpg\",\"img/0764/7f4ee8e3-9315-4a57-be7d-db8454b33766.jpg\"]","trial_type":"similarity","trial_index":78,"time_elapsed":508264,"internal_node_id":"0.0-6.0-72.0"},{"sim_score":7,"rt":5592,"stimulus":"[\"img/0867/aa05d113-fc19-4756-a8eb-7878f580bc92.jpg\",\"img/0866/23a224f3-2012-4fc8-8e0f-3c36f8de27fd.jpg\"]","trial_type":"similarity","trial_index":79,"time_elapsed":514866,"internal_node_id":"0.0-6.0-73.0"},{"sim_score":2,"rt":5419,"stimulus":"[\"img/0903/6a87dbad-9b8d-4ff5-9c41-03c9aa24f0c3.jpg\",\"img/0758/e1ba5e53-addc-436a-b428-d34fc1b130dc.jpg\"]","trial_type":"similarity","trial_index":80,"time_elapsed":521294,"internal_node_id":"0.0-6.0-74.0"},{"sim_score":1,"rt":3893,"stimulus":"[\"img/0766/006035d8-c736-4daf-bbe4-a9e373af9da6.jpg\",\"img/0868/d6d1f30d-4323-435a-b194-7892521bc57e.jpg\"]","trial_type":"similarity","trial_index":81,"time_elapsed":526194,"internal_node_id":"0.0-6.0-75.0"},{"sim_score":1,"rt":6338,"stimulus":"[\"img/0874/3f471690-9788-4d03-90c7-f615aecef149.jpg\",\"img/0766/b84598d0-5b41-4841-88b0-b441b48289f5.jpg\"]","trial_type":"similarity","trial_index":82,"time_elapsed":533538,"internal_node_id":"0.0-6.0-76.0"},{"sim_score":1,"rt":4940,"stimulus":"[\"img/0881/54ea8e77-c7e5-4197-b7fa-00b7020849a7.jpg\",\"img/0868/3a62db2d-97e9-44a3-b8e3-a48c6f0e423b.jpg\"]","trial_type":"similarity","trial_index":83,"time_elapsed":539496,"internal_node_id":"0.0-6.0-77.0"},{"sim_score":2,"rt":4672,"stimulus":"[\"img/0758/20497cbe-ddae-489e-86e2-ab06985ed07c.jpg\",\"img/0901/77087ed2-6e12-4329-b2a5-605bca6d972d.jpg\"]","trial_type":"similarity","trial_index":84,"time_elapsed":545179,"internal_node_id":"0.0-6.0-78.0"},{"sim_score":1,"rt":4842,"stimulus":"[\"img/0881/7e822106-76f7-4b10-a805-14dc68b2cfaf.jpg\",\"img/0898/04e39a7a-fcf6-4156-ab0e-f5871f335e1c.jpg\"]","trial_type":"similarity","trial_index":85,"time_elapsed":551032,"internal_node_id":"0.0-6.0-79.0"},{"sim_score":2,"rt":4168,"stimulus":"[\"img/0867/a749dddb-69f0-44a6-acdc-2bf295cf6dcc.jpg\",\"img/0758/caa93da2-9edf-49fa-96b9-32dedd8f5078.jpg\"]","trial_type":"similarity","trial_index":86,"time_elapsed":556207,"internal_node_id":"0.0-6.0-80.0"},{"sim_score":6,"rt":4996,"stimulus":"[\"img/0769/387a9744-d6a7-42b8-bab8-33007ec434aa.jpg\",\"img/0899/d60714ae-98d7-4564-8c98-94dba1351135.jpg\"]","trial_type":"similarity","trial_index":87,"time_elapsed":562214,"internal_node_id":"0.0-6.0-81.0"},{"sim_score":7,"rt":3822,"stimulus":"[\"img/0903/8fcafe03-43df-4c45-9da5-0df3a1eeccc5.jpg\",\"img/0903/07b445ee-0cdb-4d2c-a23b-d727613f4059.jpg\"]","trial_type":"similarity","trial_index":88,"time_elapsed":567041,"internal_node_id":"0.0-6.0-82.0"},{"sim_score":1,"rt":4049,"stimulus":"[\"img/0867/7d1c497b-c1b3-4ed8-abb5-d7f73306015f.jpg\",\"img/0766/27f54113-8561-4568-9ffe-0a1650ae65ec.jpg\"]","trial_type":"similarity","trial_index":89,"time_elapsed":585241,"internal_node_id":"0.0-6.0-83.0"},{"sim_score":1,"rt":5242,"stimulus":"[\"img/0902/7499db23-3a41-41ea-ab5b-6ab4d4c3ed35.jpg\",\"img/0867/2e1a0b58-cdb1-4107-a14e-452530d7b9b0.jpg\"]","trial_type":"similarity","trial_index":90,"time_elapsed":591491,"internal_node_id":"0.0-6.0-84.0"},{"sim_score":1,"rt":4063,"stimulus":"[\"img/0901/58ec7fa9-b466-4651-90aa-c082df0972de.jpg\",\"img/0875/5a716432-c6ca-4b1c-955a-2b8ac25198ee.jpg\"]","trial_type":"similarity","trial_index":91,"time_elapsed":596562,"internal_node_id":"0.0-6.0-85.0"},{"sim_score":1,"rt":3771,"stimulus":"[\"img/0764/713cc27e-2338-4486-bfe9-5f5725fbd7a0.jpg\",\"img/0866/a15b02be-11bb-43e3-b0e0-ecc3bd7dfc49.jpg\"]","trial_type":"similarity","trial_index":92,"time_elapsed":601343,"internal_node_id":"0.0-6.0-86.0"},{"sim_score":3,"rt":4177,"stimulus":"[\"img/0901/b13fa50f-dbe0-4d0f-8647-6ac0fd8f40bd.jpg\",\"img/0894/bd34223a-2f66-4e16-9d18-193a746b69ff.jpg\"]","trial_type":"similarity","trial_index":93,"time_elapsed":606526,"internal_node_id":"0.0-6.0-87.0"},{"sim_score":4,"rt":3239,"stimulus":"[\"img/0898/8605a25b-6895-476d-8c13-df7a83f96093.jpg\",\"img/0769/11518cb3-13ea-4dd0-890c-30cfab728ade.jpg\"]","trial_type":"similarity","trial_index":94,"time_elapsed":610772,"internal_node_id":"0.0-6.0-88.0"},{"sim_score":6,"rt":3599,"stimulus":"[\"img/0769/1d8734c4-77ab-4165-9e71-5cfe672ff01c.jpg\",\"img/0894/43216a7f-27bc-4b5a-8841-d122a30da9d9.jpg\"]","trial_type":"similarity","trial_index":95,"time_elapsed":615380,"internal_node_id":"0.0-6.0-89.0"},{"sim_score":5,"rt":5339,"stimulus":"[\"img/0862/92f0146c-20c4-482e-aef5-adb693790338.jpg\",\"img/0874/767f289c-9814-4496-803f-745cc8913d1f.jpg\"]","trial_type":"similarity","trial_index":96,"time_elapsed":621724,"internal_node_id":"0.0-6.0-90.0"},{"sim_score":3,"rt":5216,"stimulus":"[\"img/0894/e6385e52-6c35-43bd-b0af-bc803d107b11.jpg\",\"img/0766/d8221e53-2300-4d99-ae1b-0bfb0eabe579.jpg\"]","trial_type":"similarity","trial_index":97,"time_elapsed":627950,"internal_node_id":"0.0-6.0-91.0"},{"sim_score":1,"rt":3846,"stimulus":"[\"img/0874/1016b306-087c-4afc-aa08-fa527b28dc76.jpg\",\"img/0867/c71dc569-f49c-4397-8381-68b8d726736d.jpg\"]","trial_type":"similarity","trial_index":98,"time_elapsed":632801,"internal_node_id":"0.0-6.0-92.0"},{"sim_score":1,"rt":5051,"stimulus":"[\"img/0899/0433d056-aa30-4f8a-9aa1-abbb951e4edd.jpg\",\"img/0868/fd307a36-9a3a-47d7-ab7c-f810d0b35040.jpg\"]","trial_type":"similarity","trial_index":99,"time_elapsed":638863,"internal_node_id":"0.0-6.0-93.0"},{"sim_score":6,"rt":5524,"stimulus":"[\"img/0903/0e5c2854-42aa-48c0-9c3d-6e1ad2a400bd.jpg\",\"img/0862/24cdc752-c2e5-4a17-86a6-6f2045d8553b.jpg\"]","trial_type":"similarity","trial_index":100,"time_elapsed":645397,"internal_node_id":"0.0-6.0-94.0"},{"sim_score":5,"rt":4248,"stimulus":"[\"img/0899/00715b3f-851b-420b-a26b-d7f79f7759a9.jpg\",\"img/0766/d50d734f-285c-4840-bc7a-c8dd4aff391e.jpg\"]","trial_type":"similarity","trial_index":101,"time_elapsed":650651,"internal_node_id":"0.0-6.0-95.0"},{"sim_score":7,"rt":5127,"stimulus":"[\"img/0867/26611f4e-d694-4460-b7e2-43c62753ddc3.jpg\",\"img/0868/179a5502-ab5c-478e-8263-5a1fbcc101d2.jpg\"]","trial_type":"similarity","trial_index":102,"time_elapsed":656788,"internal_node_id":"0.0-6.0-96.0"},{"sim_score":6,"rt":6053,"stimulus":"[\"img/0862/eefa5588-9efd-4591-aa5f-a2e17c7d7bcc.jpg\",\"img/0901/b453df0b-4c39-49bb-8ced-6127efffa898.jpg\"]","trial_type":"similarity","trial_index":103,"time_elapsed":663851,"internal_node_id":"0.0-6.0-97.0"},{"sim_score":4,"rt":4420,"stimulus":"[\"img/0875/34132396-d896-4c2d-8087-646dd867e769.jpg\",\"img/0766/d512b99c-a2dc-40d7-8e86-827323a0cbcf.jpg\"]","trial_type":"similarity","trial_index":104,"time_elapsed":669277,"internal_node_id":"0.0-6.0-98.0"},{"sim_score":2,"rt":4033,"stimulus":"[\"img/0758/ddc336e9-a8b6-4bb9-937a-c7e25e0e9250.jpg\",\"img/0874/995f0332-0439-4eb4-add3-957335dbf6d9.jpg\"]","trial_type":"similarity","trial_index":105,"time_elapsed":674317,"internal_node_id":"0.0-6.0-99.0"},{"sim_score":4,"rt":3932,"stimulus":"[\"img/0904/d23dd7be-7fe8-4435-82f7-bd592c01e6a1.jpg\",\"img/0868/4e626425-63c8-484a-8a1d-e66ee4e0bef8.jpg\"]","trial_type":"similarity","trial_index":106,"time_elapsed":679254,"internal_node_id":"0.0-6.0-100.0"},{"sim_score":2,"rt":5583,"stimulus":"[\"img/0903/b7e3723f-fd03-4f3d-8820-f19496463a34.jpg\",\"img/0866/4a87911a-d5be-4d4e-ab8e-3d1f581bf507.jpg\"]","trial_type":"similarity","trial_index":107,"time_elapsed":685846,"internal_node_id":"0.0-6.0-101.0"},{"sim_score":2,"rt":3960,"stimulus":"[\"img/0868/4a8a45ed-2c4f-421b-9564-409a33ecd26c.jpg\",\"img/0769/47700831-0ca2-4fdd-a498-a3bc5a528f43.jpg\"]","trial_type":"similarity","trial_index":108,"time_elapsed":690816,"internal_node_id":"0.0-6.0-102.0"},{"sim_score":3,"rt":4515,"stimulus":"[\"img/0902/01b41522-de46-4c3a-b0af-a61b2682b40e.jpg\",\"img/0899/565ccdd9-0933-4536-a625-3c0e25a713dd.jpg\"]","trial_type":"similarity","trial_index":109,"time_elapsed":696340,"internal_node_id":"0.0-6.0-103.0"},{"sim_score":1,"rt":3479,"stimulus":"[\"img/0868/4bd5105a-d2c3-4f82-8c80-57196106ba53.jpg\",\"img/0862/fb26cb07-d5a9-4653-813c-f41609f26cd5.jpg\"]","trial_type":"similarity","trial_index":110,"time_elapsed":700824,"internal_node_id":"0.0-6.0-104.0"},{"sim_score":7,"rt":5145,"stimulus":"[\"img/0903/8931c67c-a43d-47d3-a4c9-42aa2f81d344.jpg\",\"img/0894/133a1636-d123-4893-873c-1718050f832a.jpg\"]","trial_type":"similarity","trial_index":111,"time_elapsed":706978,"internal_node_id":"0.0-6.0-105.0"},{"sim_score":6,"rt":4706,"stimulus":"[\"img/0864/e02eddb5-f468-499c-91bf-f7be3ffe979b.jpg\",\"img/0874/ca76a855-4e77-4f2f-872a-0a718153e7ed.jpg\"]","trial_type":"similarity","trial_index":112,"time_elapsed":712693,"internal_node_id":"0.0-6.0-106.0"},{"sim_score":7,"rt":3275,"stimulus":"[\"img/0862/99a99e39-8355-44ec-b993-e7bcec111e1c.jpg\",\"img/0902/af45fe42-178c-4c1a-99ef-256e87e3b092.jpg\"]","trial_type":"similarity","trial_index":113,"time_elapsed":716974,"internal_node_id":"0.0-6.0-107.0"},{"sim_score":4,"rt":3818,"stimulus":"[\"img/0904/0d25eb24-bb20-4e8d-9787-8b489558b4cb.jpg\",\"img/0903/72197c2b-403e-4a26-b391-f1aa8dea4b76.jpg\"]","trial_type":"similarity","trial_index":114,"time_elapsed":721800,"internal_node_id":"0.0-6.0-108.0"},{"sim_score":3,"rt":3845,"stimulus":"[\"img/0764/b328441c-f81c-486c-9eae-b947c70ba7cd.jpg\",\"img/0864/ea327690-500b-4137-bf91-451b309fe6a5.jpg\"]","trial_type":"similarity","trial_index":115,"time_elapsed":726651,"internal_node_id":"0.0-6.0-109.0"},{"sim_score":2,"rt":5664,"stimulus":"[\"img/0866/f756f7d1-9ad8-4a34-9ef6-7a443d705bfe.jpg\",\"img/0894/7dd6ff43-f8fc-408a-8a41-a2b261871820.jpg\"]","trial_type":"similarity","trial_index":116,"time_elapsed":733322,"internal_node_id":"0.0-6.0-110.0"},{"sim_score":3,"rt":4150,"stimulus":"[\"img/0899/8de08897-b430-42fe-9d42-840670b80f94.jpg\",\"img/0903/8c358e9e-a4f4-466e-8b93-7aec0d2358e8.jpg\"]","trial_type":"similarity","trial_index":117,"time_elapsed":738479,"internal_node_id":"0.0-6.0-111.0"},{"sim_score":5,"rt":4044,"stimulus":"[\"img/0902/3f0eeac5-c996-4026-a376-563ce8f28521.jpg\",\"img/0904/6291eb43-c10c-4810-a36a-101d09868b04.jpg\"]","trial_type":"similarity","trial_index":118,"time_elapsed":743533,"internal_node_id":"0.0-6.0-112.0"},{"sim_score":4,"rt":3540,"stimulus":"[\"img/0864/5f33e097-23e3-4002-882d-76e8cb15f451.jpg\",\"img/0860/15b24a61-25be-4356-9eac-5ce95d0cb4a4.jpg\"]","trial_type":"similarity","trial_index":119,"time_elapsed":748080,"internal_node_id":"0.0-6.0-113.0"},{"sim_score":3,"rt":3644,"stimulus":"[\"img/0860/8277806e-b684-4474-8f7b-3fca946d7d4f.jpg\",\"img/0899/51a7a498-98c7-42d7-bca8-bc2d8f0b5831.jpg\"]","trial_type":"similarity","trial_index":120,"time_elapsed":752735,"internal_node_id":"0.0-6.0-114.0"},{"sim_score":2,"rt":3228,"stimulus":"[\"img/0881/33d65d80-8a8e-4ecf-852d-0ad7725c17a2.jpg\",\"img/0903/005ad0de-4f52-433c-b515-dbe8d46184a3.jpg\"]","trial_type":"similarity","trial_index":121,"time_elapsed":756968,"internal_node_id":"0.0-6.0-115.0"},{"sim_score":5,"rt":5191,"stimulus":"[\"img/0894/5f15154e-e72e-4ce5-aafb-bce6f0564006.jpg\",\"img/0874/29830da7-be5f-44e5-b141-652a0ccf7269.jpg\"]","trial_type":"similarity","trial_index":122,"time_elapsed":763168,"internal_node_id":"0.0-6.0-116.0"},{"sim_score":4,"rt":5433,"stimulus":"[\"img/0881/db77fe00-aeb0-4d1d-aa66-f3a96fd077e4.jpg\",\"img/0862/e697469a-ec19-4414-b972-7b9f3564785b.jpg\"]","trial_type":"similarity","trial_index":123,"time_elapsed":769610,"internal_node_id":"0.0-6.0-117.0"},{"sim_score":4,"rt":1764,"stimulus":"[\"img/0868/15dd6fd7-791e-4b53-b203-195d617521a4.jpg\",\"img/0875/3ecb367d-e9eb-4826-8aaa-7aa72fb98019.jpg\"]","trial_type":"similarity","trial_index":124,"time_elapsed":772384,"internal_node_id":"0.0-6.0-118.0"},{"sim_score":1,"rt":4294,"stimulus":"[\"img/0860/17b44a7d-c5ca-479f-9e87-f65a64f5c80e.jpg\",\"img/0758/a085b443-b5d7-4cb2-9ad4-b9dab0fc23f1.jpg\"]","trial_type":"similarity","trial_index":125,"time_elapsed":777684,"internal_node_id":"0.0-6.0-119.0"},{"sim_score":2,"rt":4507,"stimulus":"[\"img/0864/afcba0a3-7e27-4757-b254-e9f05fad27e2.jpg\",\"img/0875/8521fd58-3b1e-4dc5-97ae-804edfa6734a.jpg\"]","trial_type":"similarity","trial_index":126,"time_elapsed":783202,"internal_node_id":"0.0-6.0-120.0"},{"sim_score":1,"rt":4550,"stimulus":"[\"img/0898/79233891-305a-4a6a-8ddf-5c8604858203.jpg\",\"img/0866/945c6710-d15b-4a5b-a8f6-69af0850357f.jpg\"]","trial_type":"similarity","trial_index":127,"time_elapsed":788760,"internal_node_id":"0.0-6.0-121.0"},{"sim_score":2,"rt":5789,"stimulus":"[\"img/0874/ca23d307-fc00-4d7d-9106-584c6eb21b4d.jpg\",\"img/0904/09934646-45d2-4147-8fec-64a22a5ac822.jpg\"]","trial_type":"similarity","trial_index":128,"time_elapsed":795557,"internal_node_id":"0.0-6.0-122.0"},{"sim_score":3,"rt":3898,"stimulus":"[\"img/0904/9b3568cc-3cf7-42be-9df3-fdafde7a58b8.jpg\",\"img/0864/da39ad34-04e0-40d4-a724-c08d53e0ea09.jpg\"]","trial_type":"similarity","trial_index":129,"time_elapsed":800464,"internal_node_id":"0.0-6.0-123.0"},{"sim_score":5,"rt":5142,"stimulus":"[\"img/0894/05161000-f476-499b-a878-c13c7f347fd9.jpg\",\"img/0902/40d0b6ec-3907-4573-b227-e7d8e9cad1c3.jpg\"]","trial_type":"similarity","trial_index":130,"time_elapsed":806616,"internal_node_id":"0.0-6.0-124.0"},{"sim_score":1,"rt":4813,"stimulus":"[\"img/0868/8b0b8473-e2c0-4331-aa56-c3a5c29369da.jpg\",\"img/0864/6e846d43-94a6-4b37-a268-65eda979f052.jpg\"]","trial_type":"similarity","trial_index":131,"time_elapsed":817008,"internal_node_id":"0.0-6.0-125.0"},{"sim_score":4,"rt":3631,"stimulus":"[\"img/0899/76ad07e2-ca25-45eb-84f2-8d80b8ca3e26.jpg\",\"img/0866/c446214b-a368-4c65-ae39-ea46894256ab.jpg\"]","trial_type":"similarity","trial_index":132,"time_elapsed":821649,"internal_node_id":"0.0-6.0-126.0"},{"sim_score":3,"rt":4700,"stimulus":"[\"img/0875/90da8d75-108a-44ad-b999-e21fee3860d3.jpg\",\"img/0904/65e2b70a-b184-4da3-b5c0-5038bdf9469a.jpg\"]","trial_type":"similarity","trial_index":133,"time_elapsed":827356,"internal_node_id":"0.0-6.0-127.0"},{"sim_score":2,"rt":4214,"stimulus":"[\"img/0867/075e0f95-856b-4cbb-acf5-092393aaf04e.jpg\",\"img/0899/4408c14d-c168-4a7d-96f6-bc87bfb58f83.jpg\"]","trial_type":"similarity","trial_index":134,"time_elapsed":832575,"internal_node_id":"0.0-6.0-128.0"},{"sim_score":3,"rt":4500,"stimulus":"[\"img/0901/a9b9c0a0-8aed-4888-a78a-65fb7e764d13.jpg\",\"img/0867/db7e032f-162b-46f5-ae67-2b29679adee4.jpg\"]","trial_type":"similarity","trial_index":135,"time_elapsed":838089,"internal_node_id":"0.0-6.0-129.0"},{"sim_score":3,"rt":5858,"stimulus":"[\"img/0864/66091c27-e588-4476-8af9-265dc6be4156.jpg\",\"img/0769/7c50e5f5-cc38-4d48-b009-fbe17bcea61c.jpg\"]","trial_type":"similarity","trial_index":136,"time_elapsed":844953,"internal_node_id":"0.0-6.0-130.0"},{"sim_score":1,"rt":3804,"stimulus":"[\"img/0903/a0673b55-6040-47fe-9040-24bca27ca3c9.jpg\",\"img/0868/c8ac40c7-6904-4e13-8d61-c75d3052dc4e.jpg\"]","trial_type":"similarity","trial_index":137,"time_elapsed":849766,"internal_node_id":"0.0-6.0-131.0"},{"sim_score":1,"rt":3963,"stimulus":"[\"img/0864/0f537697-a314-47c3-a8cc-8df23b7e536c.jpg\",\"img/0867/f8159067-056c-41f1-a136-c529fe5e970a.jpg\"]","trial_type":"similarity","trial_index":138,"time_elapsed":854736,"internal_node_id":"0.0-6.0-132.0"},{"sim_score":6,"rt":4739,"stimulus":"[\"img/0901/5b97abf9-f0c8-4fd1-b921-36d574779078.jpg\",\"img/0860/5383b320-1518-4095-a58e-5cc1ae30b64c.jpg\"]","trial_type":"similarity","trial_index":139,"time_elapsed":860482,"internal_node_id":"0.0-6.0-133.0"},{"sim_score":4,"rt":3592,"stimulus":"[\"img/0881/f4e3e181-b3c9-4af2-a5a4-fc135ab70d2e.jpg\",\"img/0766/c23b5a20-e50f-4d85-841f-cf89212a4348.jpg\"]","trial_type":"similarity","trial_index":140,"time_elapsed":865082,"internal_node_id":"0.0-6.0-134.0"},{"sim_score":4,"rt":4725,"stimulus":"[\"img/0903/f1fa0f8d-e62b-4b4a-a174-31a0fabfe61b.jpg\",\"img/0864/a248adb3-c70b-4652-b7a3-776d2a1e904b.jpg\"]","trial_type":"similarity","trial_index":141,"time_elapsed":870812,"internal_node_id":"0.0-6.0-135.0"},{"sim_score":4,"rt":4320,"stimulus":"[\"img/0758/335851a0-a55b-46d8-ab05-8463eda48349.jpg\",\"img/0894/c505c65a-cde2-4f2c-8cde-f8676f7c894d.jpg\"]","trial_type":"similarity","trial_index":142,"time_elapsed":876143,"internal_node_id":"0.0-6.0-136.0"},{"sim_score":3,"rt":4477,"stimulus":"[\"img/0769/04347740-f8f6-48bb-887a-f68babd0a0d4.jpg\",\"img/0860/9593362c-9fe5-4d12-9735-6000a11f6aa5.jpg\"]","trial_type":"similarity","trial_index":143,"time_elapsed":881629,"internal_node_id":"0.0-6.0-137.0"},{"sim_score":3,"rt":3924,"stimulus":"[\"img/0904/2c98dc56-88d1-4fb5-a999-b6a7861f65f0.jpg\",\"img/0766/0025de5e-f620-4079-8a0f-00326ff3a6b0.jpg\"]","trial_type":"similarity","trial_index":144,"time_elapsed":886560,"internal_node_id":"0.0-6.0-138.0"},{"sim_score":5,"rt":4683,"stimulus":"[\"img/0868/1a62b2b2-18f5-466e-b564-5176a57c565e.jpg\",\"img/0860/5bff793e-cbd5-4d7e-b628-0ac2b0e30b64.jpg\"]","trial_type":"similarity","trial_index":145,"time_elapsed":892251,"internal_node_id":"0.0-6.0-139.0"},{"sim_score":2,"rt":4885,"stimulus":"[\"img/0758/7ffbc76b-1fc1-432c-8f7e-9ec8d1b3f643.jpg\",\"img/0864/6f631579-acf1-415c-a42c-1207f62a8d99.jpg\"]","trial_type":"similarity","trial_index":146,"time_elapsed":898146,"internal_node_id":"0.0-6.0-140.0"},{"sim_score":7,"rt":3860,"stimulus":"[\"img/0867/de92135f-5b65-4ed9-b245-188292c7c2f8.jpg\",\"img/0867/12264664-1860-46df-8c21-162b9817cdda.jpg\"]","trial_type":"similarity","trial_index":147,"time_elapsed":903013,"internal_node_id":"0.0-6.0-141.0"},{"sim_score":7,"rt":4790,"stimulus":"[\"img/0898/b2732712-71c2-45d8-834f-2b2ed5504910.jpg\",\"img/0898/b3290bf9-215b-4b45-b21a-65bdf73f142f.jpg\"]","trial_type":"similarity","trial_index":148,"time_elapsed":908813,"internal_node_id":"0.0-6.0-142.0"},{"sim_score":5,"rt":4947,"stimulus":"[\"img/0866/d266fece-59b3-46fa-b69f-96f6efb81b59.jpg\",\"img/0769/9ea9ceb6-049e-4ad9-be8f-00645cd35803.jpg\"]","trial_type":"similarity","trial_index":149,"time_elapsed":914769,"internal_node_id":"0.0-6.0-143.0"},{"sim_score":3,"rt":5075,"stimulus":"[\"img/0860/d9a0d117-6d1d-41c0-8fec-9aff0fd9e9f2.jpg\",\"img/0898/0c7dde4f-efce-4b7a-9387-6921635b7890.jpg\"]","trial_type":"similarity","trial_index":150,"time_elapsed":920851,"internal_node_id":"0.0-6.0-144.0"},{"sim_score":6,"rt":4318,"stimulus":"[\"img/0766/f011ef45-fb48-44b8-8224-867ed2ccf786.jpg\",\"img/0864/3d4de670-b290-4285-9c3d-12a0e3af44e9.jpg\"]","trial_type":"similarity","trial_index":151,"time_elapsed":926178,"internal_node_id":"0.0-6.0-145.0"},{"sim_score":4,"rt":3512,"stimulus":"[\"img/0860/8fdba999-b946-4c7d-9891-336018b563ef.jpg\",\"img/0903/5248eedd-7e6a-4d39-91b0-06ec227f3ed0.jpg\"]","trial_type":"similarity","trial_index":152,"time_elapsed":930696,"internal_node_id":"0.0-6.0-146.0"},{"sim_score":2,"rt":3951,"stimulus":"[\"img/0867/6e19c858-b606-45b2-a4c6-910a73f1d82c.jpg\",\"img/0764/da207710-e7e4-4f42-b2e6-99b5f357f433.jpg\"]","trial_type":"similarity","trial_index":153,"time_elapsed":935657,"internal_node_id":"0.0-6.0-147.0"},{"sim_score":4,"rt":4793,"stimulus":"[\"img/0769/3c1203c5-2ce7-466e-957a-8d77b5905460.jpg\",\"img/0904/9dd5708f-3f8b-46a9-b49f-2f2fab87b357.jpg\"]","trial_type":"similarity","trial_index":154,"time_elapsed":941456,"internal_node_id":"0.0-6.0-148.0"},{"sim_score":4,"rt":4043,"stimulus":"[\"img/0764/c0b03adb-bd0a-4b96-a915-a827c2fd5211.jpg\",\"img/0901/693e0535-ef7e-4d60-af9d-fac2f38e8307.jpg\"]","trial_type":"similarity","trial_index":155,"time_elapsed":946504,"internal_node_id":"0.0-6.0-149.0"},{"sim_score":4,"rt":4293,"stimulus":"[\"img/0904/56e73f28-7e64-489b-a161-e6b1a063878d.jpg\",\"img/0899/57476fed-5962-4272-8fc9-b317bb777b54.jpg\"]","trial_type":"similarity","trial_index":156,"time_elapsed":951804,"internal_node_id":"0.0-6.0-150.0"},{"sim_score":2,"rt":3649,"stimulus":"[\"img/0862/4f0a3b4c-afbf-486e-b248-1d54982f54b4.jpg\",\"img/0867/a498eef3-9fa4-4ab2-9778-4ae82ac40dc5.jpg\"]","trial_type":"similarity","trial_index":157,"time_elapsed":956460,"internal_node_id":"0.0-6.0-151.0"},{"sim_score":6,"rt":4000,"stimulus":"[\"img/0766/dd3e18d0-0c98-4d05-b850-69976ee8cd75.jpg\",\"img/0766/1865bfc9-2410-4765-a804-3ae4ba2393d0.jpg\"]","trial_type":"similarity","trial_index":158,"time_elapsed":961468,"internal_node_id":"0.0-6.0-152.0"},{"sim_score":4,"rt":4589,"stimulus":"[\"img/0862/92fcd8a4-8193-4a6a-ae09-dd4a6338b0df.jpg\",\"img/0894/4739e06d-c31e-4bf1-bf91-c97fa9afb456.jpg\"]","trial_type":"similarity","trial_index":159,"time_elapsed":967064,"internal_node_id":"0.0-6.0-153.0"},{"sim_score":5,"rt":5285,"stimulus":"[\"img/0899/f95cbdb4-f804-4f5d-ad76-373ad343e658.jpg\",\"img/0901/1ede21d9-384f-4150-86b5-e1c57b5dc1d4.jpg\"]","trial_type":"similarity","trial_index":160,"time_elapsed":973357,"internal_node_id":"0.0-6.0-154.0"},{"sim_score":6,"rt":4088,"stimulus":"[\"img/0874/bf14b896-e930-4fd9-9c05-2e83317a2773.jpg\",\"img/0874/93d1f8dc-acf2-4f03-bd8d-8ec35df276ed.jpg\"]","trial_type":"similarity","trial_index":161,"time_elapsed":978454,"internal_node_id":"0.0-6.0-155.0"},{"sim_score":3,"rt":4623,"stimulus":"[\"img/0860/18dfed73-e36b-4487-a8bd-0b8cff8e3668.jpg\",\"img/0867/98d8cd96-1476-4fe0-a3a3-04f875500a1b.jpg\"]","trial_type":"similarity","trial_index":162,"time_elapsed":984087,"internal_node_id":"0.0-6.0-156.0"},{"sim_score":2,"rt":4857,"stimulus":"[\"img/0901/a0d65c84-3f20-476a-92d1-0c01e8019cf4.jpg\",\"img/0881/44e09805-5a25-4f17-a716-4ad4a331b174.jpg\"]","trial_type":"similarity","trial_index":163,"time_elapsed":989949,"internal_node_id":"0.0-6.0-157.0"},{"sim_score":6,"rt":4323,"stimulus":"[\"img/0903/2c7b4aed-6038-4aac-958a-e3e58341c313.jpg\",\"img/0902/cdec1bc6-7f90-4f72-9e01-f5a4111bac1d.jpg\"]","trial_type":"similarity","trial_index":164,"time_elapsed":995279,"internal_node_id":"0.0-6.0-158.0"},{"sim_score":3,"rt":3982,"stimulus":"[\"img/0860/29a21a9f-54bb-4093-ad3f-04823ceaa89f.jpg\",\"img/0764/4952d0a0-c9be-471a-8ec7-94a37bf4051d.jpg\"]","trial_type":"similarity","trial_index":165,"time_elapsed":1000271,"internal_node_id":"0.0-6.0-159.0"},{"sim_score":2,"rt":5948,"stimulus":"[\"img/0902/2a7ac123-414a-476a-9a96-4757b924baef.jpg\",\"img/0875/2e13d160-eea1-416b-aff1-d37ab99ecc1d.jpg\"]","trial_type":"similarity","trial_index":166,"time_elapsed":1007231,"internal_node_id":"0.0-6.0-160.0"},{"sim_score":5,"rt":5523,"stimulus":"[\"img/0898/993d8f2d-bef7-4251-a193-0f93a32b7763.jpg\",\"img/0862/d0ca4c78-fc35-46ed-bdcc-8e124283c53e.jpg\"]","trial_type":"similarity","trial_index":167,"time_elapsed":1013759,"internal_node_id":"0.0-6.0-161.0"},{"sim_score":2,"rt":4253,"stimulus":"[\"img/0894/6aa5545f-fa7d-4286-bbaa-aaf34dc7ec96.jpg\",\"img/0875/e7e66b13-b573-431e-b85e-288ce04a35a3.jpg\"]","trial_type":"similarity","trial_index":168,"time_elapsed":1019019,"internal_node_id":"0.0-6.0-162.0"},{"sim_score":1,"rt":3178,"stimulus":"[\"img/0866/0207e9a2-7dbb-40b5-9459-b472aaeceb2a.jpg\",\"img/0864/ef9cbca0-4be8-435d-ad49-977259e80409.jpg\"]","trial_type":"similarity","trial_index":169,"time_elapsed":1023204,"internal_node_id":"0.0-6.0-163.0"},{"sim_score":2,"rt":4832,"stimulus":"[\"img/0766/2746b119-4bba-463e-acf0-88136dc6600c.jpg\",\"img/0862/de9ad88c-b522-430a-8ee9-eb06a9f85df5.jpg\"]","trial_type":"similarity","trial_index":170,"time_elapsed":1029044,"internal_node_id":"0.0-6.0-164.0"},{"sim_score":2,"rt":2914,"stimulus":"[\"img/0866/07c9c966-3c8d-40e7-8128-92b2acbaed5d.jpg\",\"img/0874/7e4f2150-3b59-4a36-b5da-a4e0ba410531.jpg\"]","trial_type":"similarity","trial_index":171,"time_elapsed":1032964,"internal_node_id":"0.0-6.0-165.0"},{"sim_score":6,"rt":4233,"stimulus":"[\"img/0862/00c06b00-3b73-44e9-bc1e-c5aafb438321.jpg\",\"img/0860/fd4662f9-4c03-4d79-8593-06735e55a64b.jpg\"]","trial_type":"similarity","trial_index":172,"time_elapsed":1038208,"internal_node_id":"0.0-6.0-166.0"},{"sim_score":1,"rt":3645,"stimulus":"[\"img/0766/d919cedb-f9b7-4f30-83bb-3e9c65001ceb.jpg\",\"img/0901/a373612d-67e2-4fec-9764-21d3d6ef6359.jpg\"]","trial_type":"similarity","trial_index":173,"time_elapsed":1050310,"internal_node_id":"0.0-6.0-167.0"},{"sim_score":7,"rt":4382,"stimulus":"[\"img/0862/ad593cc7-cabe-4bb7-8e14-8a447a0717b4.jpg\",\"img/0862/1c20f772-3a51-4a80-aac0-f57dc9f86c28.jpg\"]","trial_type":"similarity","trial_index":174,"time_elapsed":1055702,"internal_node_id":"0.0-6.0-168.0"},{"sim_score":5,"rt":3940,"stimulus":"[\"img/0894/a98416c0-51e2-4960-85da-d81d8688b9d5.jpg\",\"img/0764/974d52cc-6318-4e7a-b294-2f3e92ff800f.jpg\"]","trial_type":"similarity","trial_index":175,"time_elapsed":1060648,"internal_node_id":"0.0-6.0-169.0"},{"sim_score":4,"rt":3559,"stimulus":"[\"img/0874/3ce41e7c-40c8-4d58-a546-171114521796.jpg\",\"img/0898/4184e5a2-84ea-4f36-9b42-ae58646f6f87.jpg\"]","trial_type":"similarity","trial_index":176,"time_elapsed":1065218,"internal_node_id":"0.0-6.0-170.0"},{"sim_score":4,"rt":3866,"stimulus":"[\"img/0860/61fb959d-d4d9-4de4-9e4e-4fa62b4cfcd5.jpg\",\"img/0766/00891401-e4c9-4ce1-bc19-f70740d174bc.jpg\"]","trial_type":"similarity","trial_index":177,"time_elapsed":1070092,"internal_node_id":"0.0-6.0-171.0"},{"sim_score":2,"rt":4007,"stimulus":"[\"img/0898/a114b375-cb89-44ba-9498-74213f1ecdee.jpg\",\"img/0864/c3b63e8f-ea39-4d70-a1f2-b3fe4be8eb75.jpg\"]","trial_type":"similarity","trial_index":178,"time_elapsed":1075109,"internal_node_id":"0.0-6.0-172.0"},{"sim_score":2,"rt":4946,"stimulus":"[\"img/0881/f7a8cc63-8842-40a4-9ff8-fe530310d62c.jpg\",\"img/0764/a3226bc4-dcc3-4608-bde8-1414d685ce5c.jpg\"]","trial_type":"similarity","trial_index":179,"time_elapsed":1081065,"internal_node_id":"0.0-6.0-173.0"},{"sim_score":4,"rt":3460,"stimulus":"[\"img/0898/ec565187-2e31-4fdd-9a5c-153d0c789ae0.jpg\",\"img/0868/7b212364-ff5f-4e28-9241-7eb6ea00161b.jpg\"]","trial_type":"similarity","trial_index":180,"time_elapsed":1085533,"internal_node_id":"0.0-6.0-174.0"},{"sim_score":5,"rt":4560,"stimulus":"[\"img/0864/c22faebd-9c53-47bc-ada3-b9a30c688e75.jpg\",\"img/0864/9b2490c5-a282-400a-9736-e1a0ecbf1cb7.jpg\"]","trial_type":"similarity","trial_index":181,"time_elapsed":1091098,"internal_node_id":"0.0-6.0-175.0"},{"sim_score":2,"rt":5528,"stimulus":"[\"img/0899/d8f2dd94-570e-4e8c-a087-d96090fb9e8c.jpg\",\"img/0862/f188d4f0-76a4-4102-818c-a209969d73a5.jpg\"]","trial_type":"similarity","trial_index":182,"time_elapsed":1097634,"internal_node_id":"0.0-6.0-176.0"},{"sim_score":1,"rt":3207,"stimulus":"[\"img/0875/5a7c4e35-6514-4e12-8879-d16071da4cd6.jpg\",\"img/0758/dd559618-7f09-4a07-8018-d311c4a5ea29.jpg\"]","trial_type":"similarity","trial_index":183,"time_elapsed":1101850,"internal_node_id":"0.0-6.0-177.0"},{"sim_score":6,"rt":3514,"stimulus":"[\"img/0866/02f5e6b9-52b7-448c-9708-5b460d0c9a23.jpg\",\"img/0901/b123d109-47b4-4f9a-80c9-9bb16da42efa.jpg\"]","trial_type":"similarity","trial_index":184,"time_elapsed":1106374,"internal_node_id":"0.0-6.0-178.0"},{"sim_score":4,"rt":4469,"stimulus":"[\"img/0769/14d393ce-e5be-4ca1-86ce-cc27d4b6074c.jpg\",\"img/0874/a3bc679d-619f-4db6-bb68-116dcb757d9c.jpg\"]","trial_type":"similarity","trial_index":185,"time_elapsed":1111852,"internal_node_id":"0.0-6.0-179.0"},{"sim_score":2,"rt":4501,"stimulus":"[\"img/0875/ebf7653f-ff45-4e9f-af58-2c042ab3cd2b.jpg\",\"img/0881/84397291-bc14-4fbf-90e8-241e486ab0fe.jpg\"]","trial_type":"similarity","trial_index":186,"time_elapsed":1117364,"internal_node_id":"0.0-6.0-180.0"},{"sim_score":6,"rt":6039,"stimulus":"[\"img/0866/a04d37f0-99dd-478a-b6c6-58b215138f84.jpg\",\"img/0868/e0aff734-077f-40dd-9781-74821abd3621.jpg\"]","trial_type":"similarity","trial_index":187,"time_elapsed":1124410,"internal_node_id":"0.0-6.0-181.0"},{"sim_score":6,"rt":5521,"stimulus":"[\"img/0899/5b56dd3e-3f49-47cc-af84-16da6457753b.jpg\",\"img/0758/f61ecdf8-a7d4-4db0-b84d-be46f7cfaffc.jpg\"]","trial_type":"similarity","trial_index":188,"time_elapsed":1130937,"internal_node_id":"0.0-6.0-182.0"},{"sim_score":2,"rt":3784,"stimulus":"[\"img/0874/eba003b4-cdab-4eee-8bc3-f064c7d94165.jpg\",\"img/0875/fb732ab5-013a-4366-9f65-27811ed157e9.jpg\"]","trial_type":"similarity","trial_index":189,"time_elapsed":1135728,"internal_node_id":"0.0-6.0-183.0"},{"sim_score":5,"rt":4916,"stimulus":"[\"img/0904/696ebb60-8891-417a-91fd-c53218907a95.jpg\",\"img/0862/47ed5efd-4ec9-4b74-bb4e-a5f5cf0c3e7d.jpg\"]","trial_type":"similarity","trial_index":190,"time_elapsed":1141655,"internal_node_id":"0.0-6.0-184.0"},{"sim_score":1,"rt":3872,"stimulus":"[\"img/0902/30c420f5-c714-4681-ae5a-c0ba8f636a26.jpg\",\"img/0766/fd74fdbb-ea40-4f3a-a091-38d08dfd636e.jpg\"]","trial_type":"similarity","trial_index":191,"time_elapsed":1146537,"internal_node_id":"0.0-6.0-185.0"},{"sim_score":4,"rt":8520,"stimulus":"[\"img/0758/61d64021-9214-4951-bdf8-f871f9827cf9.jpg\",\"img/0769/96556ef3-7fac-4c9d-8281-1cb0ea5081bc.jpg\"]","trial_type":"similarity","trial_index":192,"time_elapsed":1156068,"internal_node_id":"0.0-6.0-186.0"},{"sim_score":6,"rt":4315,"stimulus":"[\"img/0881/5fe04dd0-5c74-47b7-99c8-b068db9ca26a.jpg\",\"img/0881/4bd34581-94d8-4e88-8c89-5cef864ca3be.jpg\"]","trial_type":"similarity","trial_index":193,"time_elapsed":1161389,"internal_node_id":"0.0-6.0-187.0"},{"sim_score":4,"rt":4503,"stimulus":"[\"img/0758/6cd8c362-ae2a-41eb-80a3-3a4f7ace1530.jpg\",\"img/0866/93a27239-8317-4e08-98ca-d8b1ff298e07.jpg\"]","trial_type":"similarity","trial_index":194,"time_elapsed":1166899,"internal_node_id":"0.0-6.0-188.0"},{"sim_score":2,"rt":4041,"stimulus":"[\"img/0764/21e3292f-01ad-4238-828b-61b817857d16.jpg\",\"img/0898/08c72dac-f8ad-407a-9ce6-8c9a5d679c3a.jpg\"]","trial_type":"similarity","trial_index":195,"time_elapsed":1171947,"internal_node_id":"0.0-6.0-189.0"},{"sim_score":5,"rt":5405,"stimulus":"[\"img/0903/c708d08f-a108-4e04-8288-c3fcf6375db4.jpg\",\"img/0901/443f2e59-199b-4f7b-9de9-c44ad97326a5.jpg\"]","trial_type":"similarity","trial_index":196,"time_elapsed":1178359,"internal_node_id":"0.0-6.0-190.0"},{"sim_score":3,"rt":6397,"stimulus":"[\"img/0902/95a36b6b-9601-4fa5-8fd9-606ea62f9425.jpg\",\"img/0898/68476bbb-34a1-42d9-8bc1-deab783d4489.jpg\"]","trial_type":"similarity","trial_index":197,"time_elapsed":1185767,"internal_node_id":"0.0-6.0-191.0"},{"sim_score":1,"rt":3936,"stimulus":"[\"img/0864/0116ca98-293d-4fa6-a93b-5a6144ef64cc.jpg\",\"img/0901/04a53755-6da5-44d4-a7a6-48a6bc0a2280.jpg\"]","trial_type":"similarity","trial_index":198,"time_elapsed":1190713,"internal_node_id":"0.0-6.0-192.0"},{"sim_score":4,"rt":5415,"stimulus":"[\"img/0894/b2d2f66e-e480-46da-a02a-6d0c6b285d78.jpg\",\"img/0881/62a64f90-7a72-4aee-a1a1-0c548ac9bdda.jpg\"]","trial_type":"similarity","trial_index":199,"time_elapsed":1197134,"internal_node_id":"0.0-6.0-193.0"},{"sim_score":7,"rt":4251,"stimulus":"[\"img/0868/0d3abd3a-b6c3-4584-a9f7-e2da63748b3d.jpg\",\"img/0868/d98ca254-b195-477f-b57e-5760a2717db8.jpg\"]","trial_type":"similarity","trial_index":200,"time_elapsed":1202394,"internal_node_id":"0.0-6.0-194.0"},{"sim_score":2,"rt":4217,"stimulus":"[\"img/0899/06b0fc99-0581-461a-9913-d1a5a941ac61.jpg\",\"img/0764/17b088f8-3053-4140-b544-d15654cc79ef.jpg\"]","trial_type":"similarity","trial_index":201,"time_elapsed":1207619,"internal_node_id":"0.0-6.0-195.0"},{"sim_score":1,"rt":3624,"stimulus":"[\"img/0881/c843e210-bdfe-4a7c-8bbe-fcea1f90fe1c.jpg\",\"img/0904/96e503ea-6630-4996-85f2-0237688ce441.jpg\"]","trial_type":"similarity","trial_index":202,"time_elapsed":1212249,"internal_node_id":"0.0-6.0-196.0"},{"sim_score":7,"rt":3561,"stimulus":"[\"img/0864/1d15626a-2f7c-410f-819c-0fa2c967e95e.jpg\",\"img/0902/f3cfec34-482c-4bdb-9c92-19ea6cfce183.jpg\"]","trial_type":"similarity","trial_index":203,"time_elapsed":1216820,"internal_node_id":"0.0-6.0-197.0"},{"sim_score":7,"rt":3327,"stimulus":"[\"img/0894/1a010553-d598-4b06-a772-81f1e7b3addb.jpg\",\"img/0904/9d30eff1-46ef-4453-b11e-124ef8145c00.jpg\"]","trial_type":"similarity","trial_index":204,"time_elapsed":1221154,"internal_node_id":"0.0-6.0-198.0"},{"sim_score":7,"rt":4391,"stimulus":"[\"img/0901/4f9cffe0-c0be-4d7f-bacd-9d51efd19b4a.jpg\",\"img/0901/0f670aef-ac36-496d-8142-ee5fdb21dd82.jpg\"]","trial_type":"similarity","trial_index":205,"time_elapsed":1226554,"internal_node_id":"0.0-6.0-199.0"},{"sim_score":2,"rt":3906,"stimulus":"[\"img/0894/b422d5c6-3c5a-49ae-a53e-7e88ac993f49.jpg\",\"img/0860/b03b963d-949b-4d8d-b19c-4950c89eeca2.jpg\"]","trial_type":"similarity","trial_index":206,"time_elapsed":1231467,"internal_node_id":"0.0-6.0-200.0"},{"sim_score":3,"rt":4045,"stimulus":"[\"img/0898/881e2a85-d5c2-49be-a0c6-8a6ce2c4af08.jpg\",\"img/0903/39365c8e-a733-4801-ac7d-b87e38c3784b.jpg\"]","trial_type":"similarity","trial_index":207,"time_elapsed":1236523,"internal_node_id":"0.0-6.0-201.0"},{"sim_score":2,"rt":4335,"stimulus":"[\"img/0864/e336a4c5-6648-4fd7-b2f6-93a3fb83f8c6.jpg\",\"img/0894/661b9f9f-4bde-487a-b1ed-87085fde6948.jpg\"]","trial_type":"similarity","trial_index":208,"time_elapsed":1241867,"internal_node_id":"0.0-6.0-202.0"},{"sim_score":4,"rt":3240,"stimulus":"[\"img/0874/31e22c7c-99aa-40b1-bf03-dd73fa2df4d6.jpg\",\"img/0860/e14d67c1-6d92-4f1e-9257-c8607159c19c.jpg\"]","trial_type":"similarity","trial_index":209,"time_elapsed":1246114,"internal_node_id":"0.0-6.0-203.0"},{"sim_score":4,"rt":4064,"stimulus":"[\"img/0862/e0f1a4e9-e1b6-45f7-af67-89f334e6630d.jpg\",\"img/0875/42910c99-5463-450a-a0f8-d4d060a11455.jpg\"]","trial_type":"similarity","trial_index":210,"time_elapsed":1251187,"internal_node_id":"0.0-6.0-204.0"},{"sim_score":3,"rt":4008,"stimulus":"[\"img/0867/1719a35d-f085-48c0-9099-16c94fe418b4.jpg\",\"img/0881/7e31e5dc-2240-4b1b-b5a0-3acd980099ef.jpg\"]","trial_type":"similarity","trial_index":211,"time_elapsed":1256205,"internal_node_id":"0.0-6.0-205.0"},{"sim_score":2,"rt":4062,"stimulus":"[\"img/0901/fb0a8e69-7f19-4e6e-a6bb-a48f97f9b4f3.jpg\",\"img/0902/af40b98b-3d23-4d95-b401-49ba5783ce39.jpg\"]","trial_type":"similarity","trial_index":212,"time_elapsed":1261274,"internal_node_id":"0.0-6.0-206.0"},{"sim_score":2,"rt":4142,"stimulus":"[\"img/0899/fd9efb43-701f-4cd6-baaa-4c38315f4bdc.jpg\",\"img/0864/b3c4e378-28f0-4699-9338-2a257b4bca04.jpg\"]","trial_type":"similarity","trial_index":213,"time_elapsed":1266422,"internal_node_id":"0.0-6.0-207.0"},{"sim_score":4,"rt":3823,"stimulus":"[\"img/0901/ae1e6ce4-2e10-4ca9-b1e7-21628637ab74.jpg\",\"img/0769/bb8c4e53-6f32-4814-97ee-392d4decfb2e.jpg\"]","trial_type":"similarity","trial_index":214,"time_elapsed":1271252,"internal_node_id":"0.0-6.0-208.0"},{"sim_score":6,"rt":3925,"stimulus":"[\"img/0902/12452bb1-b8c0-4e4d-ad4d-47e279e5933c.jpg\",\"img/0902/0db94c50-f1fb-4091-953c-29ca0466bee2.jpg\"]","trial_type":"similarity","trial_index":215,"time_elapsed":1293630,"internal_node_id":"0.0-6.0-209.0"},{"view_history":"[{\"page_index\":0,\"viewing_time\":8179}]","rt":8180,"trial_type":"instructions","trial_index":216,"time_elapsed":1302812,"internal_node_id":"0.0-7.0"},{"rt":25491,"responses":"{\"Q0\":\"Orange-crowned Warbler\"}","answer":["Nashville Warbler"],"trial_type":"image-multi-choice","trial_index":217,"time_elapsed":1329325,"internal_node_id":"0.0-8.0-0.0"},{"rt":32910,"responses":"{\"Q0\":\"Blackburnian Warbler\"}","answer":["Black-and-white Warbler"],"trial_type":"image-multi-choice","trial_index":218,"time_elapsed":1363251,"internal_node_id":"0.0-8.0-1.0"},{"rt":15333,"responses":"{\"Q0\":\"Townsend's Warbler\"}","answer":["Townsend's Warbler"],"trial_type":"image-multi-choice","trial_index":219,"time_elapsed":1379604,"internal_node_id":"0.0-8.0-2.0"},{"rt":35434,"responses":"{\"Q0\":\"Lark Sparrow\"}","answer":["Lark Sparrow"],"trial_type":"image-multi-choice","trial_index":220,"time_elapsed":1416055,"internal_node_id":"0.0-8.0-3.0"},{"rt":2924,"responses":"{\"Q0\":\"Yellow Warbler\"}","answer":["Yellow Warbler"],"trial_type":"image-multi-choice","trial_index":221,"time_elapsed":1419997,"internal_node_id":"0.0-8.0-4.0"},{"rt":30393,"responses":"{\"Q0\":\"Nashville Warbler\"}","answer":["Orange-crowned Warbler"],"trial_type":"image-multi-choice","trial_index":222,"time_elapsed":1451407,"internal_node_id":"0.0-8.0-5.0"},{"rt":5873,"responses":"{\"Q0\":\"Chipping Sparrow\"}","answer":["White-throated Sparrow"],"trial_type":"image-multi-choice","trial_index":223,"time_elapsed":1458295,"internal_node_id":"0.0-8.0-6.0"},{"rt":5882,"responses":"{\"Q0\":\"Northern Waterthrush\"}","answer":["Fox Sparrow"],"trial_type":"image-multi-choice","trial_index":224,"time_elapsed":1465193,"internal_node_id":"0.0-8.0-7.0"},{"rt":20244,"responses":"{\"Q0\":\"Vesper Sparrow\"}","answer":["Song Sparrow"],"trial_type":"image-multi-choice","trial_index":225,"time_elapsed":1486453,"internal_node_id":"0.0-8.0-8.0"},{"rt":8364,"responses":"{\"Q0\":\"Black-and-white Warbler\"}","answer":["Blackburnian Warbler"],"trial_type":"image-multi-choice","trial_index":226,"time_elapsed":1495836,"internal_node_id":"0.0-8.0-9.0"},{"rt":9436,"responses":"{\"Q0\":\"Vesper Sparrow\"}","answer":["Vesper Sparrow"],"trial_type":"image-multi-choice","trial_index":227,"time_elapsed":1506287,"internal_node_id":"0.0-8.0-10.0"},{"rt":4145,"responses":"{\"Q0\":\"White-crowned Sparrow\"}","answer":["White-crowned Sparrow"],"trial_type":"image-multi-choice","trial_index":228,"time_elapsed":1511451,"internal_node_id":"0.0-8.0-11.0"},{"rt":20239,"responses":"{\"Q0\":\"Lincoln's Sparrow\"}","answer":["American Tree Sparrow"],"trial_type":"image-multi-choice","trial_index":229,"time_elapsed":1532705,"internal_node_id":"0.0-8.0-12.0"},{"rt":17866,"responses":"{\"Q0\":\"Orange-crowned Warbler\"}","answer":["Tennessee Warbler"],"trial_type":"image-multi-choice","trial_index":230,"time_elapsed":1551589,"internal_node_id":"0.0-8.0-13.0"},{"rt":10647,"responses":"{\"Q0\":\"Black-and-white Warbler\"}","answer":["Magnolia Warbler"],"trial_type":"image-multi-choice","trial_index":231,"time_elapsed":1563254,"internal_node_id":"0.0-8.0-14.0"},{"rt":12838,"responses":"{\"Q0\":\"Northern Waterthrush\"}","answer":["Northern Waterthrush"],"trial_type":"image-multi-choice","trial_index":232,"time_elapsed":1577110,"internal_node_id":"0.0-8.0-15.0"},{"rt":15111,"responses":"{\"Q0\":\"Lincoln's Sparrow\"}","answer":["Chipping Sparrow"],"trial_type":"image-multi-choice","trial_index":233,"time_elapsed":1593237,"internal_node_id":"0.0-8.0-16.0"},{"rt":15389,"responses":"{\"Q0\":\"Lark Sparrow\"}","answer":["Swamp Sparrow"],"trial_type":"image-multi-choice","trial_index":234,"time_elapsed":1609645,"internal_node_id":"0.0-8.0-17.0"},{"rt":8548,"responses":"{\"Q0\":\"Ovenbird\"}","answer":["Lincoln's Sparrow"],"trial_type":"image-multi-choice","trial_index":235,"time_elapsed":1619210,"internal_node_id":"0.0-8.0-18.0"},{"rt":11251,"responses":"{\"Q0\":\"Northern Waterthrush\"}","answer":["Ovenbird"],"trial_type":"image-multi-choice","trial_index":236,"time_elapsed":1631480,"internal_node_id":"0.0-8.0-19.0"}]