[{"view_history":"[{\"page_index\":0,\"viewing_time\":16623}]","rt":16625,"trial_type":"instructions","trial_index":0,"time_elapsed":16626,"internal_node_id":"0.0-0.0"},{"sim_score":5,"rt":9128,"stimulus":"[\"img/866.jpg\",\"img/868.jpg\"]","trial_type":"similarity_demo","trial_index":1,"time_elapsed":26801,"internal_node_id":"0.0-1.0"},{"view_history":"[{\"page_index\":0,\"viewing_time\":10437}]","rt":10438,"trial_type":"instructions","trial_index":2,"time_elapsed":38239,"internal_node_id":"0.0-2.0"},{"sim_score":2,"rt":4670,"stimulus":"[\"img/766.jpg\",\"img/867.jpg\"]","trial_type":"similarity_demo","trial_index":3,"time_elapsed":43918,"internal_node_id":"0.0-3.0"},{"view_history":"[{\"page_index\":0,\"viewing_time\":5683}]","rt":5683,"trial_type":"instructions","trial_index":4,"time_elapsed":50603,"internal_node_id":"0.0-4.0"},{"view_history":"[{\"page_index\":0,\"viewing_time\":18366}]","rt":18367,"trial_type":"instructions","trial_index":5,"time_elapsed":69970,"internal_node_id":"0.0-5.0"},{"sim_score":1,"rt":4927,"stimulus":"[\"img/0868/fd307a36-9a3a-47d7-ab7c-f810d0b35040.jpg\",\"img/0901/08d6d1d1-c043-43c4-bb08-d45e062822b9.jpg\"]","trial_type":"similarity","trial_index":6,"time_elapsed":75905,"internal_node_id":"0.0-6.0-0.0"},{"sim_score":2,"rt":7575,"stimulus":"[\"img/0769/387a9744-d6a7-42b8-bab8-33007ec434aa.jpg\",\"img/0867/50a1b60e-3a29-44bf-b606-d4bd3746fea9.jpg\"]","trial_type":"similarity","trial_index":7,"time_elapsed":84484,"internal_node_id":"0.0-6.0-1.0"},{"sim_score":5,"rt":4549,"stimulus":"[\"img/0766/00891401-e4c9-4ce1-bc19-f70740d174bc.jpg\",\"img/0898/79233891-305a-4a6a-8ddf-5c8604858203.jpg\"]","trial_type":"similarity","trial_index":8,"time_elapsed":90039,"internal_node_id":"0.0-6.0-2.0"},{"sim_score":3,"rt":5717,"stimulus":"[\"img/0902/f3cfec34-482c-4bdb-9c92-19ea6cfce183.jpg\",\"img/0881/f4e3e181-b3c9-4af2-a5a4-fc135ab70d2e.jpg\"]","trial_type":"similarity","trial_index":9,"time_elapsed":96762,"internal_node_id":"0.0-6.0-3.0"},{"sim_score":7,"rt":4260,"stimulus":"[\"img/0894/05161000-f476-499b-a878-c13c7f347fd9.jpg\",\"img/0894/5ff3c4f6-52e2-4075-8679-be0312e59703.jpg\"]","trial_type":"similarity","trial_index":10,"time_elapsed":102037,"internal_node_id":"0.0-6.0-4.0"},{"sim_score":3,"rt":6356,"stimulus":"[\"img/0874/ca76a855-4e77-4f2f-872a-0a718153e7ed.jpg\",\"img/0899/8abe6c69-822c-436c-9bf2-96c818b49ba5.jpg\"]","trial_type":"similarity","trial_index":11,"time_elapsed":109412,"internal_node_id":"0.0-6.0-5.0"},{"sim_score":5,"rt":4273,"stimulus":"[\"img/0904/09dac84f-3d1c-4445-a68e-d0389fdbf1e9.jpg\",\"img/0764/4952d0a0-c9be-471a-8ec7-94a37bf4051d.jpg\"]","trial_type":"similarity","trial_index":12,"time_elapsed":114689,"internal_node_id":"0.0-6.0-6.0"},{"sim_score":3,"rt":7516,"stimulus":"[\"img/0899/66bf4113-ee12-426c-84d2-ea410b6c803e.jpg\",\"img/0898/a114b375-cb89-44ba-9498-74213f1ecdee.jpg\"]","trial_type":"similarity","trial_index":13,"time_elapsed":123213,"internal_node_id":"0.0-6.0-7.0"},{"sim_score":5,"rt":7325,"stimulus":"[\"img/0874/ca23d307-fc00-4d7d-9106-584c6eb21b4d.jpg\",\"img/0903/005ad0de-4f52-433c-b515-dbe8d46184a3.jpg\"]","trial_type":"similarity","trial_index":14,"time_elapsed":131545,"internal_node_id":"0.0-6.0-8.0"},{"sim_score":7,"rt":4411,"stimulus":"[\"img/0881/7e31e5dc-2240-4b1b-b5a0-3acd980099ef.jpg\",\"img/0758/6e95579b-5166-487c-b8cb-e417c6a218e3.jpg\"]","trial_type":"similarity","trial_index":15,"time_elapsed":136961,"internal_node_id":"0.0-6.0-9.0"},{"sim_score":5,"rt":4391,"stimulus":"[\"img/0898/68476bbb-34a1-42d9-8bc1-deab783d4489.jpg\",\"img/0901/b9141736-3041-4385-a586-b1fe911c76a5.jpg\"]","trial_type":"similarity","trial_index":16,"time_elapsed":142355,"internal_node_id":"0.0-6.0-10.0"},{"sim_score":3,"rt":4772,"stimulus":"[\"img/0903/aa842abe-6fa3-448a-bf71-88d3ad28663b.jpg\",\"img/0769/e31b3bd8-efcb-413e-aa8c-75fac2b8f2ac.jpg\"]","trial_type":"similarity","trial_index":17,"time_elapsed":148143,"internal_node_id":"0.0-6.0-11.0"},{"sim_score":1,"rt":3174,"stimulus":"[\"img/0764/974d52cc-6318-4e7a-b294-2f3e92ff800f.jpg\",\"img/0868/7b212364-ff5f-4e28-9241-7eb6ea00161b.jpg\"]","trial_type":"similarity","trial_index":18,"time_elapsed":152348,"internal_node_id":"0.0-6.0-12.0"},{"sim_score":3,"rt":5409,"stimulus":"[\"img/0867/c66898ba-b71b-4d50-84f9-f7f84853a98d.jpg\",\"img/0903/3e9ee8a5-eb66-47f5-8973-8a5af1ddc87e.jpg\"]","trial_type":"similarity","trial_index":19,"time_elapsed":158762,"internal_node_id":"0.0-6.0-13.0"},{"sim_score":2,"rt":4266,"stimulus":"[\"img/0766/db750ba0-ce04-46e1-b601-e1b80212bad2.jpg\",\"img/0758/7ee8bc8f-c40b-4b3a-84ec-3e83580622d4.jpg\"]","trial_type":"similarity","trial_index":20,"time_elapsed":164033,"internal_node_id":"0.0-6.0-14.0"},{"sim_score":3,"rt":4762,"stimulus":"[\"img/0902/01b41522-de46-4c3a-b0af-a61b2682b40e.jpg\",\"img/0860/e14d67c1-6d92-4f1e-9257-c8607159c19c.jpg\"]","trial_type":"similarity","trial_index":21,"time_elapsed":169824,"internal_node_id":"0.0-6.0-15.0"},{"sim_score":2,"rt":5483,"stimulus":"[\"img/0769/47700831-0ca2-4fdd-a498-a3bc5a528f43.jpg\",\"img/0875/d59ff733-eaff-4ee2-9443-06954dd0bcb6.jpg\"]","trial_type":"similarity","trial_index":22,"time_elapsed":176350,"internal_node_id":"0.0-6.0-16.0"},{"sim_score":5,"rt":8163,"stimulus":"[\"img/0904/60d1a521-edf7-4696-9263-f21ac0e62a01.jpg\",\"img/0866/93a27239-8317-4e08-98ca-d8b1ff298e07.jpg\"]","trial_type":"similarity","trial_index":23,"time_elapsed":185540,"internal_node_id":"0.0-6.0-17.0"},{"sim_score":6,"rt":5322,"stimulus":"[\"img/0875/42910c99-5463-450a-a0f8-d4d060a11455.jpg\",\"img/0875/fb732ab5-013a-4366-9f65-27811ed157e9.jpg\"]","trial_type":"similarity","trial_index":24,"time_elapsed":191867,"internal_node_id":"0.0-6.0-18.0"},{"sim_score":5,"rt":4789,"stimulus":"[\"img/0758/65d426d6-3ff6-415d-8654-a43b83ecc4fe.jpg\",\"img/0758/3ddd05d3-557e-4ee7-8b78-9d2d681d8ae2.jpg\"]","trial_type":"similarity","trial_index":25,"time_elapsed":197661,"internal_node_id":"0.0-6.0-19.0"},{"sim_score":2,"rt":5548,"stimulus":"[\"img/0902/962f645e-9b55-4628-9b50-c703422bfe1a.jpg\",\"img/0874/31e22c7c-99aa-40b1-bf03-dd73fa2df4d6.jpg\"]","trial_type":"similarity","trial_index":26,"time_elapsed":204213,"internal_node_id":"0.0-6.0-20.0"},{"sim_score":7,"rt":4998,"stimulus":"[\"img/0764/978aede9-4590-4ad0-b234-135c83e5d669.jpg\",\"img/0769/878531fd-e0e8-4ad1-b9ad-f018bb104ca0.jpg\"]","trial_type":"similarity","trial_index":27,"time_elapsed":210218,"internal_node_id":"0.0-6.0-21.0"},{"sim_score":1,"rt":5593,"stimulus":"[\"img/0901/1b86f2fc-7a1d-4aa8-9252-114f92edef3b.jpg\",\"img/0874/eba003b4-cdab-4eee-8bc3-f064c7d94165.jpg\"]","trial_type":"similarity","trial_index":28,"time_elapsed":216839,"internal_node_id":"0.0-6.0-22.0"},{"sim_score":5,"rt":6790,"stimulus":"[\"img/0875/2e13d160-eea1-416b-aff1-d37ab99ecc1d.jpg\",\"img/0903/4cbdc464-e562-4ec2-9bb6-15f894fdf528.jpg\"]","trial_type":"similarity","trial_index":29,"time_elapsed":224634,"internal_node_id":"0.0-6.0-23.0"},{"sim_score":3,"rt":6845,"stimulus":"[\"img/0769/965c3c44-d9e5-47c5-b61a-2bbdf4215d9a.jpg\",\"img/0881/5fe04dd0-5c74-47b7-99c8-b068db9ca26a.jpg\"]","trial_type":"similarity","trial_index":30,"time_elapsed":232483,"internal_node_id":"0.0-6.0-24.0"},{"sim_score":1,"rt":4041,"stimulus":"[\"img/0867/db7e032f-162b-46f5-ae67-2b29679adee4.jpg\",\"img/0904/6291eb43-c10c-4810-a36a-101d09868b04.jpg\"]","trial_type":"similarity","trial_index":31,"time_elapsed":237529,"internal_node_id":"0.0-6.0-25.0"},{"sim_score":3,"rt":4780,"stimulus":"[\"img/0860/94ef7afc-e0e6-4a15-98c6-0bfac82bc832.jpg\",\"img/0881/14236cf2-6b95-48b8-9368-78af09d2d27f.jpg\"]","trial_type":"similarity","trial_index":32,"time_elapsed":243313,"internal_node_id":"0.0-6.0-26.0"},{"sim_score":7,"rt":4193,"stimulus":"[\"img/0866/f756f7d1-9ad8-4a34-9ef6-7a443d705bfe.jpg\",\"img/0866/4a87911a-d5be-4d4e-ab8e-3d1f581bf507.jpg\"]","trial_type":"similarity","trial_index":33,"time_elapsed":248510,"internal_node_id":"0.0-6.0-27.0"},{"sim_score":3,"rt":4511,"stimulus":"[\"img/0764/c84fbfa8-521c-407a-9bd3-24f7308d896c.jpg\",\"img/0862/92f0146c-20c4-482e-aef5-adb693790338.jpg\"]","trial_type":"similarity","trial_index":34,"time_elapsed":254026,"internal_node_id":"0.0-6.0-28.0"},{"sim_score":3,"rt":4362,"stimulus":"[\"img/0904/65e2b70a-b184-4da3-b5c0-5038bdf9469a.jpg\",\"img/0758/d41c06bf-ebaf-454b-91c6-1a17f917b659.jpg\"]","trial_type":"similarity","trial_index":35,"time_elapsed":259391,"internal_node_id":"0.0-6.0-29.0"},{"sim_score":5,"rt":4969,"stimulus":"[\"img/0894/3664e04c-c6d3-4c9b-afb6-25d89974b174.jpg\",\"img/0899/8de08897-b430-42fe-9d42-840670b80f94.jpg\"]","trial_type":"similarity","trial_index":36,"time_elapsed":265379,"internal_node_id":"0.0-6.0-30.0"},{"sim_score":5,"rt":4554,"stimulus":"[\"img/0860/5383b320-1518-4095-a58e-5cc1ae30b64c.jpg\",\"img/0904/4b8daf2a-13a9-4ea9-9e0b-b265b6e933e7.jpg\"]","trial_type":"similarity","trial_index":37,"time_elapsed":270936,"internal_node_id":"0.0-6.0-31.0"},{"sim_score":6,"rt":5296,"stimulus":"[\"img/0874/93d1f8dc-acf2-4f03-bd8d-8ec35df276ed.jpg\",\"img/0881/445edb15-bd7f-4af3-8bd5-c6ad9677bb31.jpg\"]","trial_type":"similarity","trial_index":38,"time_elapsed":277260,"internal_node_id":"0.0-6.0-32.0"},{"sim_score":2,"rt":5350,"stimulus":"[\"img/0881/84397291-bc14-4fbf-90e8-241e486ab0fe.jpg\",\"img/0899/565ccdd9-0933-4536-a625-3c0e25a713dd.jpg\"]","trial_type":"similarity","trial_index":39,"time_elapsed":283615,"internal_node_id":"0.0-6.0-33.0"},{"sim_score":2,"rt":4557,"stimulus":"[\"img/0866/07c9c966-3c8d-40e7-8128-92b2acbaed5d.jpg\",\"img/0862/847e5208-38ec-4f36-949c-296cdd7424ee.jpg\"]","trial_type":"similarity","trial_index":40,"time_elapsed":289175,"internal_node_id":"0.0-6.0-34.0"},{"sim_score":3,"rt":3812,"stimulus":"[\"img/0868/0d3abd3a-b6c3-4584-a9f7-e2da63748b3d.jpg\",\"img/0894/9b1333fd-3561-43bf-aee5-99b7b7ca3dc3.jpg\"]","trial_type":"similarity","trial_index":41,"time_elapsed":293995,"internal_node_id":"0.0-6.0-35.0"},{"sim_score":7,"rt":3793,"stimulus":"[\"img/0860/524b2e98-5767-4d53-942c-ebae6925659b.jpg\",\"img/0860/c47fdead-eb02-4989-b078-26f4852f44fe.jpg\"]","trial_type":"similarity","trial_index":42,"time_elapsed":298793,"internal_node_id":"0.0-6.0-36.0"},{"sim_score":5,"rt":3359,"stimulus":"[\"img/0862/d0ca4c78-fc35-46ed-bdcc-8e124283c53e.jpg\",\"img/0864/49150900-7f25-4ce8-8d10-9b47a71d1997.jpg\"]","trial_type":"similarity","trial_index":43,"time_elapsed":303186,"internal_node_id":"0.0-6.0-37.0"},{"sim_score":2,"rt":5302,"stimulus":"[\"img/0766/71b81ebd-0937-4d7f-b8bf-c4e46a4728fd.jpg\",\"img/0866/d493a2c8-66eb-44b4-be02-2f327b700b7c.jpg\"]","trial_type":"similarity","trial_index":44,"time_elapsed":309509,"internal_node_id":"0.0-6.0-38.0"},{"sim_score":3,"rt":6031,"stimulus":"[\"img/0875/f87b67d7-c33e-40d1-b281-248c4be1cb6e.jpg\",\"img/0898/0c7dde4f-efce-4b7a-9387-6921635b7890.jpg\"]","trial_type":"similarity","trial_index":45,"time_elapsed":316546,"internal_node_id":"0.0-6.0-39.0"},{"sim_score":5,"rt":5155,"stimulus":"[\"img/0766/af3be95e-e52e-4fae-899b-0ff02ec340aa.jpg\",\"img/0769/9ea9ceb6-049e-4ad9-be8f-00645cd35803.jpg\"]","trial_type":"similarity","trial_index":46,"time_elapsed":322708,"internal_node_id":"0.0-6.0-40.0"},{"sim_score":5,"rt":7428,"stimulus":"[\"img/0874/3f471690-9788-4d03-90c7-f615aecef149.jpg\",\"img/0764/d7f3ac54-318a-4dac-a06b-62bed34d01a4.jpg\"]","trial_type":"similarity","trial_index":47,"time_elapsed":338905,"internal_node_id":"0.0-6.0-41.0"},{"sim_score":2,"rt":5626,"stimulus":"[\"img/0868/d98ca254-b195-477f-b57e-5760a2717db8.jpg\",\"img/0902/af45fe42-178c-4c1a-99ef-256e87e3b092.jpg\"]","trial_type":"similarity","trial_index":48,"time_elapsed":345558,"internal_node_id":"0.0-6.0-42.0"},{"sim_score":1,"rt":4086,"stimulus":"[\"img/0875/90da8d75-108a-44ad-b999-e21fee3860d3.jpg\",\"img/0899/ddf96ade-692e-4602-bd22-dedbb46401bc.jpg\"]","trial_type":"similarity","trial_index":49,"time_elapsed":350648,"internal_node_id":"0.0-6.0-43.0"},{"sim_score":2,"rt":5584,"stimulus":"[\"img/0866/bf14b5bd-fb55-47db-86b9-4f8aeb9a6dad.jpg\",\"img/0860/99c589b9-9140-4d17-90c0-b344323edcda.jpg\"]","trial_type":"similarity","trial_index":50,"time_elapsed":357236,"internal_node_id":"0.0-6.0-44.0"},{"sim_score":6,"rt":3603,"stimulus":"[\"img/0766/e8052e17-9dae-4139-802b-6e590cb2d526.jpg\",\"img/0903/c708d08f-a108-4e04-8288-c3fcf6375db4.jpg\"]","trial_type":"similarity","trial_index":51,"time_elapsed":361858,"internal_node_id":"0.0-6.0-45.0"},{"sim_score":5,"rt":6941,"stimulus":"[\"img/0901/5b97abf9-f0c8-4fd1-b921-36d574779078.jpg\",\"img/0904/b5855d6a-7ef9-46ca-9215-6e9fa046e543.jpg\"]","trial_type":"similarity","trial_index":52,"time_elapsed":369812,"internal_node_id":"0.0-6.0-46.0"},{"sim_score":3,"rt":6192,"stimulus":"[\"img/0758/2fa3e613-e676-4e6e-bd12-705327eeb3e1.jpg\",\"img/0902/168ebd47-9e82-4ab7-a18b-c3da85072db8.jpg\"]","trial_type":"similarity","trial_index":53,"time_elapsed":377035,"internal_node_id":"0.0-6.0-47.0"},{"sim_score":7,"rt":4002,"stimulus":"[\"img/0764/83c93cce-18d1-4aa7-9e23-2c268afe0a46.jpg\",\"img/0764/c80b3e06-2ee3-4326-9678-340607eb5348.jpg\"]","trial_type":"similarity","trial_index":54,"time_elapsed":382050,"internal_node_id":"0.0-6.0-48.0"},{"sim_score":2,"rt":5546,"stimulus":"[\"img/0866/0207e9a2-7dbb-40b5-9459-b472aaeceb2a.jpg\",\"img/0902/d1083f2c-5520-44ec-81a8-3f856fbf0e80.jpg\"]","trial_type":"similarity","trial_index":55,"time_elapsed":388599,"internal_node_id":"0.0-6.0-49.0"},{"sim_score":4,"rt":3935,"stimulus":"[\"img/0764/1f95ab5f-fb65-4d70-b5db-d6bd6351a8aa.jpg\",\"img/0758/7ffbc76b-1fc1-432c-8f7e-9ec8d1b3f643.jpg\"]","trial_type":"similarity","trial_index":56,"time_elapsed":393537,"internal_node_id":"0.0-6.0-50.0"},{"sim_score":5,"rt":6140,"stimulus":"[\"img/0898/224c1572-56b9-4f16-a9e4-6f3bc9c114bd.jpg\",\"img/0894/492d2f29-d7b9-4422-8be8-47fd58bfaa8b.jpg\"]","trial_type":"similarity","trial_index":57,"time_elapsed":400680,"internal_node_id":"0.0-6.0-51.0"},{"sim_score":4,"rt":4573,"stimulus":"[\"img/0875/34132396-d896-4c2d-8087-646dd867e769.jpg\",\"img/0866/6f2a90d7-14f1-4f1b-bd64-fc0af6b9fe44.jpg\"]","trial_type":"similarity","trial_index":58,"time_elapsed":406257,"internal_node_id":"0.0-6.0-52.0"},{"sim_score":7,"rt":4773,"stimulus":"[\"img/0904/fe746a3f-8458-48d0-8a13-8cba2a9df9f8.jpg\",\"img/0904/56e73f28-7e64-489b-a161-e6b1a063878d.jpg\"]","trial_type":"similarity","trial_index":59,"time_elapsed":412033,"internal_node_id":"0.0-6.0-53.0"},{"sim_score":7,"rt":3605,"stimulus":"[\"img/0769/057eb0a0-aa5b-40c7-9852-21444f68d767.jpg\",\"img/0769/50985283-d353-4abc-9abe-14a91d56ebe6.jpg\"]","trial_type":"similarity","trial_index":60,"time_elapsed":416642,"internal_node_id":"0.0-6.0-54.0"},{"sim_score":1,"rt":3803,"stimulus":"[\"img/0898/26c41340-15bd-4ead-8fe4-c0d0ddca09c2.jpg\",\"img/0758/821c68d3-5cb0-4eae-8659-30e6263fca39.jpg\"]","trial_type":"similarity","trial_index":61,"time_elapsed":421449,"internal_node_id":"0.0-6.0-55.0"},{"sim_score":5,"rt":3749,"stimulus":"[\"img/0769/3c1efec9-f8fd-487d-8955-4be88e48c832.jpg\",\"img/0902/c920f0e1-1c81-480f-a164-c77f2dc6ce9a.jpg\"]","trial_type":"similarity","trial_index":62,"time_elapsed":426233,"internal_node_id":"0.0-6.0-56.0"},{"sim_score":5,"rt":5792,"stimulus":"[\"img/0864/9b2490c5-a282-400a-9736-e1a0ecbf1cb7.jpg\",\"img/0881/dea58fad-b4f1-41d9-bd3f-916eff19a3fd.jpg\"]","trial_type":"similarity","trial_index":63,"time_elapsed":433032,"internal_node_id":"0.0-6.0-57.0"},{"sim_score":3,"rt":5530,"stimulus":"[\"img/0758/e1ba5e53-addc-436a-b428-d34fc1b130dc.jpg\",\"img/0868/6a28c3b0-3d76-498a-9fb7-ddafc665eca8.jpg\"]","trial_type":"similarity","trial_index":64,"time_elapsed":439576,"internal_node_id":"0.0-6.0-58.0"},{"sim_score":5,"rt":5366,"stimulus":"[\"img/0862/92fcd8a4-8193-4a6a-ae09-dd4a6338b0df.jpg\",\"img/0769/0fe124d3-bcad-45f6-b64d-8f6eb8ee5251.jpg\"]","trial_type":"similarity","trial_index":65,"time_elapsed":445970,"internal_node_id":"0.0-6.0-59.0"},{"sim_score":4,"rt":3563,"stimulus":"[\"img/0764/29072395-f595-4e3c-83d3-ff87010039fa.jpg\",\"img/0903/647ce311-8c71-479a-8361-961db1457139.jpg\"]","trial_type":"similarity","trial_index":66,"time_elapsed":450538,"internal_node_id":"0.0-6.0-60.0"},{"sim_score":7,"rt":5485,"stimulus":"[\"img/0899/4f7bc593-8ddd-4da3-a0b9-84da730d3370.jpg\",\"img/0899/1b3457ea-87d4-4946-a01c-aac1863ed46c.jpg\"]","trial_type":"similarity","trial_index":67,"time_elapsed":457027,"internal_node_id":"0.0-6.0-61.0"},{"sim_score":5,"rt":5338,"stimulus":"[\"img/0860/c7047cd2-7cc1-41b6-8a34-c0986774975f.jpg\",\"img/0875/cff79b3a-a797-4393-9757-6275f999ec04.jpg\"]","trial_type":"similarity","trial_index":68,"time_elapsed":463374,"internal_node_id":"0.0-6.0-62.0"},{"sim_score":1,"rt":3921,"stimulus":"[\"img/0868/15dd6fd7-791e-4b53-b203-195d617521a4.jpg\",\"img/0874/2c9464dd-8a23-4baa-ac94-1ba3af5c15cc.jpg\"]","trial_type":"similarity","trial_index":69,"time_elapsed":468301,"internal_node_id":"0.0-6.0-63.0"},{"sim_score":3,"rt":3601,"stimulus":"[\"img/0758/d540bee6-b460-4c32-ac57-bc282742d7d4.jpg\",\"img/0862/e0f1a4e9-e1b6-45f7-af67-89f334e6630d.jpg\"]","trial_type":"similarity","trial_index":70,"time_elapsed":472907,"internal_node_id":"0.0-6.0-64.0"},{"sim_score":5,"rt":4915,"stimulus":"[\"img/0904/24fc38fe-842c-4831-ad8a-b1de5c25c0a8.jpg\",\"img/0898/661621d4-a14e-487c-8c74-354134a29710.jpg\"]","trial_type":"similarity","trial_index":71,"time_elapsed":478867,"internal_node_id":"0.0-6.0-65.0"},{"sim_score":1,"rt":3563,"stimulus":"[\"img/0881/f6bd3b96-dc40-4e99-8681-bc3a35cf896d.jpg\",\"img/0866/386235d2-6857-41e7-88a8-25cfc3430025.jpg\"]","trial_type":"similarity","trial_index":72,"time_elapsed":483447,"internal_node_id":"0.0-6.0-66.0"},{"sim_score":3,"rt":4250,"stimulus":"[\"img/0867/f8159067-056c-41f1-a136-c529fe5e970a.jpg\",\"img/0898/cd3aaa3f-efa9-4ab3-8d6f-a6a9273ddf42.jpg\"]","trial_type":"similarity","trial_index":73,"time_elapsed":488701,"internal_node_id":"0.0-6.0-67.0"},{"sim_score":4,"rt":5771,"stimulus":"[\"img/0902/b03129ba-b087-4558-af37-e8399d6217d6.jpg\",\"img/0764/f713847b-4832-42d1-8fb3-e17e37fd745c.jpg\"]","trial_type":"similarity","trial_index":74,"time_elapsed":495505,"internal_node_id":"0.0-6.0-68.0"},{"sim_score":5,"rt":3846,"stimulus":"[\"img/0875/8521fd58-3b1e-4dc5-97ae-804edfa6734a.jpg\",\"img/0867/f26f6b60-f772-4f4c-95a4-addc62cfd692.jpg\"]","trial_type":"similarity","trial_index":75,"time_elapsed":500378,"internal_node_id":"0.0-6.0-69.0"},{"sim_score":6,"rt":5021,"stimulus":"[\"img/0766/ba35c0fc-4d5b-490d-959e-c94b279cdd02.jpg\",\"img/0764/e48e6c6f-9e28-420f-836a-8043b2319bb4.jpg\"]","trial_type":"similarity","trial_index":76,"time_elapsed":506403,"internal_node_id":"0.0-6.0-70.0"},{"sim_score":2,"rt":3756,"stimulus":"[\"img/0894/a3d4170b-b7d8-40e3-955f-87e76ed745fc.jpg\",\"img/0867/12264664-1860-46df-8c21-162b9817cdda.jpg\"]","trial_type":"similarity","trial_index":77,"time_elapsed":511163,"internal_node_id":"0.0-6.0-71.0"},{"sim_score":1,"rt":5835,"stimulus":"[\"img/0875/ebf7653f-ff45-4e9f-af58-2c042ab3cd2b.jpg\",\"img/0764/39a9fc7e-b863-432c-9374-de43983f31a5.jpg\"]","trial_type":"similarity","trial_index":78,"time_elapsed":518002,"internal_node_id":"0.0-6.0-72.0"},{"sim_score":5,"rt":4879,"stimulus":"[\"img/0867/ac1797e4-8afc-48fe-b252-86d1defb1cca.jpg\",\"img/0866/a04d37f0-99dd-478a-b6c6-58b215138f84.jpg\"]","trial_type":"similarity","trial_index":79,"time_elapsed":523890,"internal_node_id":"0.0-6.0-73.0"},{"sim_score":2,"rt":4186,"stimulus":"[\"img/0903/31b5a5f4-b695-4af1-bad2-a19650a05498.jpg\",\"img/0758/f61ecdf8-a7d4-4db0-b84d-be46f7cfaffc.jpg\"]","trial_type":"similarity","trial_index":80,"time_elapsed":529079,"internal_node_id":"0.0-6.0-74.0"},{"sim_score":1,"rt":3958,"stimulus":"[\"img/0766/535849cc-ff5d-4df9-8f31-0ce94a97d571.jpg\",\"img/0868/3a62db2d-97e9-44a3-b8e3-a48c6f0e423b.jpg\"]","trial_type":"similarity","trial_index":81,"time_elapsed":534051,"internal_node_id":"0.0-6.0-75.0"},{"sim_score":3,"rt":3686,"stimulus":"[\"img/0874/7e4f2150-3b59-4a36-b5da-a4e0ba410531.jpg\",\"img/0766/69e486f7-dbef-456b-9d48-53d814248a28.jpg\"]","trial_type":"similarity","trial_index":82,"time_elapsed":538740,"internal_node_id":"0.0-6.0-76.0"},{"sim_score":2,"rt":3817,"stimulus":"[\"img/0881/ed4c971f-0873-4fc8-b6d6-e8bbd82f0bcc.jpg\",\"img/0868/5fa7f9d0-f0e5-454c-8224-74d964818f56.jpg\"]","trial_type":"similarity","trial_index":83,"time_elapsed":543560,"internal_node_id":"0.0-6.0-77.0"},{"sim_score":1,"rt":3698,"stimulus":"[\"img/0758/53f35650-e455-4b53-8be4-c3c8271c6466.jpg\",\"img/0901/a373612d-67e2-4fec-9764-21d3d6ef6359.jpg\"]","trial_type":"similarity","trial_index":84,"time_elapsed":548279,"internal_node_id":"0.0-6.0-78.0"},{"sim_score":2,"rt":3547,"stimulus":"[\"img/0881/48ed65a5-471f-41af-86ec-3793805c116d.jpg\",\"img/0898/5f699581-3853-4547-856c-12f419ba5af7.jpg\"]","trial_type":"similarity","trial_index":85,"time_elapsed":552831,"internal_node_id":"0.0-6.0-79.0"},{"sim_score":1,"rt":4873,"stimulus":"[\"img/0867/6e19c858-b606-45b2-a4c6-910a73f1d82c.jpg\",\"img/0758/e38fd80d-18d0-42f3-b848-f930788e8bd7.jpg\"]","trial_type":"similarity","trial_index":86,"time_elapsed":558713,"internal_node_id":"0.0-6.0-80.0"},{"sim_score":6,"rt":3777,"stimulus":"[\"img/0769/96556ef3-7fac-4c9d-8281-1cb0ea5081bc.jpg\",\"img/0899/06b0fc99-0581-461a-9913-d1a5a941ac61.jpg\"]","trial_type":"similarity","trial_index":87,"time_elapsed":563493,"internal_node_id":"0.0-6.0-81.0"},{"sim_score":7,"rt":3429,"stimulus":"[\"img/0903/c3cb4a01-2797-43ca-b216-88c67b323fbb.jpg\",\"img/0903/470acfd5-5571-4a7b-b3a4-28d87e098138.jpg\"]","trial_type":"similarity","trial_index":88,"time_elapsed":567925,"internal_node_id":"0.0-6.0-82.0"},{"sim_score":1,"rt":3122,"stimulus":"[\"img/0867/a498eef3-9fa4-4ab2-9778-4ae82ac40dc5.jpg\",\"img/0766/d5d38751-8fa5-476f-93e9-86ed2d9045ef.jpg\"]","trial_type":"similarity","trial_index":89,"time_elapsed":585720,"internal_node_id":"0.0-6.0-83.0"},{"sim_score":1,"rt":5327,"stimulus":"[\"img/0902/1f4a4c62-68c1-4993-b213-05652a173ed1.jpg\",\"img/0867/98d8cd96-1476-4fe0-a3a3-04f875500a1b.jpg\"]","trial_type":"similarity","trial_index":90,"time_elapsed":592051,"internal_node_id":"0.0-6.0-84.0"},{"sim_score":2,"rt":5266,"stimulus":"[\"img/0901/148b747a-7392-437e-8823-33053c5dff3f.jpg\",\"img/0875/99698b4d-b4a1-44bc-8c83-8ea755bbbf61.jpg\"]","trial_type":"similarity","trial_index":91,"time_elapsed":598323,"internal_node_id":"0.0-6.0-85.0"},{"sim_score":5,"rt":4043,"stimulus":"[\"img/0764/23ea9375-f801-4a96-9925-7d453da887c7.jpg\",\"img/0866/02f5e6b9-52b7-448c-9708-5b460d0c9a23.jpg\"]","trial_type":"similarity","trial_index":92,"time_elapsed":603373,"internal_node_id":"0.0-6.0-86.0"},{"sim_score":5,"rt":3417,"stimulus":"[\"img/0901/04a53755-6da5-44d4-a7a6-48a6bc0a2280.jpg\",\"img/0894/661b9f9f-4bde-487a-b1ed-87085fde6948.jpg\"]","trial_type":"similarity","trial_index":93,"time_elapsed":607800,"internal_node_id":"0.0-6.0-87.0"},{"sim_score":6,"rt":3381,"stimulus":"[\"img/0898/81b08535-2020-4c15-9ce4-2f1e460755ae.jpg\",\"img/0769/8c7cf147-1780-4d5c-8ddf-5ea23ff03ac9.jpg\"]","trial_type":"similarity","trial_index":94,"time_elapsed":612184,"internal_node_id":"0.0-6.0-88.0"},{"sim_score":6,"rt":3631,"stimulus":"[\"img/0769/b664b502-a86c-46c1-ad6f-5ebffc2e1bd3.jpg\",\"img/0894/a98416c0-51e2-4960-85da-d81d8688b9d5.jpg\"]","trial_type":"similarity","trial_index":95,"time_elapsed":616834,"internal_node_id":"0.0-6.0-89.0"},{"sim_score":4,"rt":7412,"stimulus":"[\"img/0862/e697469a-ec19-4414-b972-7b9f3564785b.jpg\",\"img/0874/29830da7-be5f-44e5-b141-652a0ccf7269.jpg\"]","trial_type":"similarity","trial_index":96,"time_elapsed":625250,"internal_node_id":"0.0-6.0-90.0"},{"sim_score":4,"rt":5297,"stimulus":"[\"img/0894/0130a973-d993-41f8-874a-fee23d9ac11f.jpg\",\"img/0766/110832e5-2646-4bd0-a94e-5df8cc314269.jpg\"]","trial_type":"similarity","trial_index":97,"time_elapsed":631550,"internal_node_id":"0.0-6.0-91.0"},{"sim_score":2,"rt":4351,"stimulus":"[\"img/0874/85eb9b8a-c4c6-4e5a-b8e7-363a87a82054.jpg\",\"img/0867/8ba0c5a7-c7e4-42cf-a80a-543763b90779.jpg\"]","trial_type":"similarity","trial_index":98,"time_elapsed":636916,"internal_node_id":"0.0-6.0-92.0"},{"sim_score":1,"rt":4160,"stimulus":"[\"img/0899/57476fed-5962-4272-8fc9-b317bb777b54.jpg\",\"img/0868/8b0b8473-e2c0-4331-aa56-c3a5c29369da.jpg\"]","trial_type":"similarity","trial_index":99,"time_elapsed":642093,"internal_node_id":"0.0-6.0-93.0"},{"sim_score":3,"rt":5578,"stimulus":"[\"img/0903/6138142e-c84e-45fc-9487-c974f3d4968a.jpg\",\"img/0862/cdaed51d-9e2f-4807-801a-4663c40077e2.jpg\"]","trial_type":"similarity","trial_index":100,"time_elapsed":648678,"internal_node_id":"0.0-6.0-94.0"},{"sim_score":3,"rt":4257,"stimulus":"[\"img/0899/0adc0bc3-6fca-4078-be6f-d45ddf1653d5.jpg\",\"img/0766/09f646c8-a69e-4ed3-879c-8d29b04ad7f9.jpg\"]","trial_type":"similarity","trial_index":101,"time_elapsed":653944,"internal_node_id":"0.0-6.0-95.0"},{"sim_score":6,"rt":3059,"stimulus":"[\"img/0867/5e07b34d-b40f-4b1c-ac10-49975bace45f.jpg\",\"img/0868/d6d1f30d-4323-435a-b194-7892521bc57e.jpg\"]","trial_type":"similarity","trial_index":102,"time_elapsed":658007,"internal_node_id":"0.0-6.0-96.0"},{"sim_score":6,"rt":3917,"stimulus":"[\"img/0862/53a9cf7c-93c4-41b9-952f-07d17f7a17b2.jpg\",\"img/0901/58978a6d-a3e2-4c59-8d62-f60693ecc0f6.jpg\"]","trial_type":"similarity","trial_index":103,"time_elapsed":662928,"internal_node_id":"0.0-6.0-97.0"},{"sim_score":2,"rt":3829,"stimulus":"[\"img/0875/2c361b79-c3d1-4eda-812e-bf03192407bf.jpg\",\"img/0766/d512b99c-a2dc-40d7-8e86-827323a0cbcf.jpg\"]","trial_type":"similarity","trial_index":104,"time_elapsed":667762,"internal_node_id":"0.0-6.0-98.0"},{"sim_score":5,"rt":4307,"stimulus":"[\"img/0758/caa93da2-9edf-49fa-96b9-32dedd8f5078.jpg\",\"img/0874/adf9a8f1-c40b-402b-b95b-1e85a54a7b62.jpg\"]","trial_type":"similarity","trial_index":105,"time_elapsed":673074,"internal_node_id":"0.0-6.0-99.0"},{"sim_score":3,"rt":4308,"stimulus":"[\"img/0904/2fd488e9-960f-41f7-8a44-33375f7d5051.jpg\",\"img/0868/293079b8-7e0c-4afd-a390-1e5d35fe3ded.jpg\"]","trial_type":"similarity","trial_index":106,"time_elapsed":678394,"internal_node_id":"0.0-6.0-100.0"},{"sim_score":3,"rt":4015,"stimulus":"[\"img/0903/97a42b34-5462-4665-88c7-83c014b33d24.jpg\",\"img/0866/23a224f3-2012-4fc8-8e0f-3c36f8de27fd.jpg\"]","trial_type":"similarity","trial_index":107,"time_elapsed":683413,"internal_node_id":"0.0-6.0-101.0"},{"sim_score":1,"rt":4254,"stimulus":"[\"img/0868/c8ac40c7-6904-4e13-8d61-c75d3052dc4e.jpg\",\"img/0769/bb8c4e53-6f32-4814-97ee-392d4decfb2e.jpg\"]","trial_type":"similarity","trial_index":108,"time_elapsed":688671,"internal_node_id":"0.0-6.0-102.0"},{"sim_score":5,"rt":4208,"stimulus":"[\"img/0902/8065aa6b-4aef-4368-afa2-02c6465ca582.jpg\",\"img/0899/f58b8d2f-b19d-4b59-8b94-8834be92e4ba.jpg\"]","trial_type":"similarity","trial_index":109,"time_elapsed":693885,"internal_node_id":"0.0-6.0-103.0"},{"sim_score":2,"rt":5118,"stimulus":"[\"img/0868/4e626425-63c8-484a-8a1d-e66ee4e0bef8.jpg\",\"img/0862/fad1d7c1-8187-43c3-942a-0fc12183e48e.jpg\"]","trial_type":"similarity","trial_index":110,"time_elapsed":700010,"internal_node_id":"0.0-6.0-104.0"},{"sim_score":6,"rt":3031,"stimulus":"[\"img/0903/bf0a7d60-eca5-44b0-bafd-baf21db9904b.jpg\",\"img/0894/c505c65a-cde2-4f2c-8cde-f8676f7c894d.jpg\"]","trial_type":"similarity","trial_index":111,"time_elapsed":704044,"internal_node_id":"0.0-6.0-105.0"},{"sim_score":7,"rt":3503,"stimulus":"[\"img/0864/ea327690-500b-4137-bf91-451b309fe6a5.jpg\",\"img/0874/3ce41e7c-40c8-4d58-a546-171114521796.jpg\"]","trial_type":"similarity","trial_index":112,"time_elapsed":708553,"internal_node_id":"0.0-6.0-106.0"},{"sim_score":5,"rt":4116,"stimulus":"[\"img/0862/24cdc752-c2e5-4a17-86a6-6f2045d8553b.jpg\",\"img/0902/794606a0-d8a8-4e58-8bf8-9d114ed5a548.jpg\"]","trial_type":"similarity","trial_index":113,"time_elapsed":713674,"internal_node_id":"0.0-6.0-107.0"},{"sim_score":7,"rt":3387,"stimulus":"[\"img/0904/73920552-103b-4c9c-9ece-e0b8376b4504.jpg\",\"img/0903/f1fa0f8d-e62b-4b4a-a174-31a0fabfe61b.jpg\"]","trial_type":"similarity","trial_index":114,"time_elapsed":718066,"internal_node_id":"0.0-6.0-108.0"},{"sim_score":5,"rt":3733,"stimulus":"[\"img/0764/4bec8d92-75aa-475a-954d-8215dbe538f5.jpg\",\"img/0864/6e846d43-94a6-4b37-a268-65eda979f052.jpg\"]","trial_type":"similarity","trial_index":115,"time_elapsed":722807,"internal_node_id":"0.0-6.0-109.0"},{"sim_score":3,"rt":6039,"stimulus":"[\"img/0866/be24ab58-230e-4db8-9f45-ff04c9aec6bb.jpg\",\"img/0894/6b2e9509-8699-42b7-9582-7741df0ba2d7.jpg\"]","trial_type":"similarity","trial_index":116,"time_elapsed":729849,"internal_node_id":"0.0-6.0-110.0"},{"sim_score":4,"rt":4018,"stimulus":"[\"img/0899/76ad07e2-ca25-45eb-84f2-8d80b8ca3e26.jpg\",\"img/0903/8635cf25-2648-4fe9-8c42-79d2598e999c.jpg\"]","trial_type":"similarity","trial_index":117,"time_elapsed":734873,"internal_node_id":"0.0-6.0-111.0"},{"sim_score":5,"rt":3332,"stimulus":"[\"img/0902/a323b62d-2fd5-4ac8-acc6-35b768f3c3f2.jpg\",\"img/0904/a8c3c7d2-9bcf-4347-9e03-8203adfc1fc5.jpg\"]","trial_type":"similarity","trial_index":118,"time_elapsed":739208,"internal_node_id":"0.0-6.0-112.0"},{"sim_score":5,"rt":3653,"stimulus":"[\"img/0864/3d4de670-b290-4285-9c3d-12a0e3af44e9.jpg\",\"img/0860/4a022222-056d-461c-ab02-39fac9647552.jpg\"]","trial_type":"similarity","trial_index":119,"time_elapsed":743865,"internal_node_id":"0.0-6.0-113.0"},{"sim_score":1,"rt":3706,"stimulus":"[\"img/0860/f44ba3fb-03a2-42f0-8509-2c1ded493086.jpg\",\"img/0899/a05bea16-2bb4-4cb9-b8fb-4ff975db6971.jpg\"]","trial_type":"similarity","trial_index":120,"time_elapsed":748575,"internal_node_id":"0.0-6.0-114.0"},{"sim_score":3,"rt":5495,"stimulus":"[\"img/0881/b1a136f7-8511-4d3a-a0f6-3879acf1e1a1.jpg\",\"img/0903/6378ee1e-3d2b-48d2-87be-bebda32c8268.jpg\"]","trial_type":"similarity","trial_index":121,"time_elapsed":755073,"internal_node_id":"0.0-6.0-115.0"},{"sim_score":2,"rt":4153,"stimulus":"[\"img/0894/e2446cf5-cd48-486a-badc-76498e087fbe.jpg\",\"img/0874/99f6563c-8a8d-4c1c-a41d-667b618c3fd5.jpg\"]","trial_type":"similarity","trial_index":122,"time_elapsed":760256,"internal_node_id":"0.0-6.0-116.0"},{"sim_score":6,"rt":2915,"stimulus":"[\"img/0881/4da99fdd-1f40-4bbb-8e21-8833eef313f5.jpg\",\"img/0862/47ed5efd-4ec9-4b74-bb4e-a5f5cf0c3e7d.jpg\"]","trial_type":"similarity","trial_index":123,"time_elapsed":764175,"internal_node_id":"0.0-6.0-117.0"},{"sim_score":5,"rt":4757,"stimulus":"[\"img/0868/e0aff734-077f-40dd-9781-74821abd3621.jpg\",\"img/0875/527ced51-8e53-4aab-ab05-86df219104c0.jpg\"]","trial_type":"similarity","trial_index":124,"time_elapsed":769936,"internal_node_id":"0.0-6.0-118.0"},{"sim_score":5,"rt":3980,"stimulus":"[\"img/0860/8277806e-b684-4474-8f7b-3fca946d7d4f.jpg\",\"img/0758/67c0be2f-9e91-48b3-8219-70ac0a1802fa.jpg\"]","trial_type":"similarity","trial_index":125,"time_elapsed":774922,"internal_node_id":"0.0-6.0-119.0"},{"sim_score":2,"rt":4859,"stimulus":"[\"img/0864/afcba0a3-7e27-4757-b254-e9f05fad27e2.jpg\",\"img/0875/5a7c4e35-6514-4e12-8879-d16071da4cd6.jpg\"]","trial_type":"similarity","trial_index":126,"time_elapsed":780802,"internal_node_id":"0.0-6.0-120.0"},{"sim_score":1,"rt":2914,"stimulus":"[\"img/0898/82231d4c-218b-4d0a-b50d-35a49b524e97.jpg\",\"img/0866/c446214b-a368-4c65-ae39-ea46894256ab.jpg\"]","trial_type":"similarity","trial_index":127,"time_elapsed":784720,"internal_node_id":"0.0-6.0-121.0"},{"sim_score":3,"rt":5501,"stimulus":"[\"img/0874/8cdb1c07-1c32-46d2-981c-3636560fa6e5.jpg\",\"img/0904/96e503ea-6630-4996-85f2-0237688ce441.jpg\"]","trial_type":"similarity","trial_index":128,"time_elapsed":791225,"internal_node_id":"0.0-6.0-122.0"},{"sim_score":2,"rt":5700,"stimulus":"[\"img/0904/0d17b811-063e-416e-a23c-3b3cfa4fcce5.jpg\",\"img/0864/e8bd659f-aa43-4748-877e-3118e8b4e189.jpg\"]","trial_type":"similarity","trial_index":129,"time_elapsed":797941,"internal_node_id":"0.0-6.0-123.0"},{"sim_score":6,"rt":3151,"stimulus":"[\"img/0894/e5edf723-72a5-4673-8441-6c1734a8929b.jpg\",\"img/0902/9f543501-3cf1-45a7-a2f1-eeca87cc15b9.jpg\"]","trial_type":"similarity","trial_index":130,"time_elapsed":802102,"internal_node_id":"0.0-6.0-124.0"},{"sim_score":3,"rt":5512,"stimulus":"[\"img/0868/77091fc7-a590-4ebb-b915-fdb2483a2399.jpg\",\"img/0864/8ddd2e30-a1d0-479f-9cbe-591213023893.jpg\"]","trial_type":"similarity","trial_index":131,"time_elapsed":898912,"internal_node_id":"0.0-6.0-125.0"},{"sim_score":2,"rt":4073,"stimulus":"[\"img/0899/7b7380d5-d2be-44e5-a09a-c1756f87ef71.jpg\",\"img/0866/8efcaa46-83ab-4dee-a35f-850402aa21ae.jpg\"]","trial_type":"similarity","trial_index":132,"time_elapsed":903988,"internal_node_id":"0.0-6.0-126.0"},{"sim_score":4,"rt":2408,"stimulus":"[\"img/0875/5a716432-c6ca-4b1c-955a-2b8ac25198ee.jpg\",\"img/0904/2c98dc56-88d1-4fb5-a999-b6a7861f65f0.jpg\"]","trial_type":"similarity","trial_index":133,"time_elapsed":907400,"internal_node_id":"0.0-6.0-127.0"},{"sim_score":1,"rt":3375,"stimulus":"[\"img/0867/aa05d113-fc19-4756-a8eb-7878f580bc92.jpg\",\"img/0899/fef567a2-c121-4481-9af0-ff108d199bbf.jpg\"]","trial_type":"similarity","trial_index":134,"time_elapsed":911785,"internal_node_id":"0.0-6.0-128.0"},{"sim_score":5,"rt":6518,"stimulus":"[\"img/0901/b453df0b-4c39-49bb-8ced-6127efffa898.jpg\",\"img/0867/2e1a0b58-cdb1-4107-a14e-452530d7b9b0.jpg\"]","trial_type":"similarity","trial_index":135,"time_elapsed":919345,"internal_node_id":"0.0-6.0-129.0"},{"sim_score":6,"rt":3933,"stimulus":"[\"img/0864/da39ad34-04e0-40d4-a724-c08d53e0ea09.jpg\",\"img/0769/48a1144d-fbda-4809-991b-fc8424a32ee4.jpg\"]","trial_type":"similarity","trial_index":136,"time_elapsed":924324,"internal_node_id":"0.0-6.0-130.0"},{"sim_score":3,"rt":2642,"stimulus":"[\"img/0903/f67c4ab9-f8c2-4fcd-848a-a54a7b031002.jpg\",\"img/0868/09a9ef4d-d000-4cfa-a6aa-ebec7c2edeb4.jpg\"]","trial_type":"similarity","trial_index":137,"time_elapsed":927971,"internal_node_id":"0.0-6.0-131.0"},{"sim_score":2,"rt":4536,"stimulus":"[\"img/0864/b3c4e378-28f0-4699-9338-2a257b4bca04.jpg\",\"img/0867/26611f4e-d694-4460-b7e2-43c62753ddc3.jpg\"]","trial_type":"similarity","trial_index":138,"time_elapsed":933520,"internal_node_id":"0.0-6.0-132.0"},{"sim_score":7,"rt":3592,"stimulus":"[\"img/0901/2a953e50-d237-405c-a38d-5ed21494c968.jpg\",\"img/0860/18dfed73-e36b-4487-a8bd-0b8cff8e3668.jpg\"]","trial_type":"similarity","trial_index":139,"time_elapsed":938115,"internal_node_id":"0.0-6.0-133.0"},{"sim_score":6,"rt":2840,"stimulus":"[\"img/0881/f8bd891e-aa09-4782-89db-33e7cb2b0cf1.jpg\",\"img/0766/aaec5f42-7f0a-4a16-aeca-488d757acbcc.jpg\"]","trial_type":"similarity","trial_index":140,"time_elapsed":941958,"internal_node_id":"0.0-6.0-134.0"},{"sim_score":6,"rt":3067,"stimulus":"[\"img/0903/b4a0f61e-a964-4b79-a9a7-f767a8f92f34.jpg\",\"img/0864/300bb811-8b3c-4c42-8653-6097c3725197.jpg\"]","trial_type":"similarity","trial_index":141,"time_elapsed":946028,"internal_node_id":"0.0-6.0-135.0"},{"sim_score":5,"rt":4246,"stimulus":"[\"img/0758/9fb5b2fe-3f00-4fe6-973c-1ce10d5f4cd5.jpg\",\"img/0894/5c7677b0-a4f1-479e-b274-7822c415175a.jpg\"]","trial_type":"similarity","trial_index":142,"time_elapsed":951285,"internal_node_id":"0.0-6.0-136.0"},{"sim_score":4,"rt":2775,"stimulus":"[\"img/0769/c34b7763-8ff2-46d5-9e92-f1d8f3bedbd8.jpg\",\"img/0860/9593362c-9fe5-4d12-9735-6000a11f6aa5.jpg\"]","trial_type":"similarity","trial_index":143,"time_elapsed":955110,"internal_node_id":"0.0-6.0-137.0"},{"sim_score":4,"rt":5375,"stimulus":"[\"img/0904/b7c2a2c8-df33-4473-b3d4-ff7147c60db3.jpg\",\"img/0766/27f54113-8561-4568-9ffe-0a1650ae65ec.jpg\"]","trial_type":"similarity","trial_index":144,"time_elapsed":961489,"internal_node_id":"0.0-6.0-138.0"},{"sim_score":3,"rt":4129,"stimulus":"[\"img/0868/179a5502-ab5c-478e-8263-5a1fbcc101d2.jpg\",\"img/0860/17b44a7d-c5ca-479f-9e87-f65a64f5c80e.jpg\"]","trial_type":"similarity","trial_index":145,"time_elapsed":966622,"internal_node_id":"0.0-6.0-139.0"},{"sim_score":6,"rt":3544,"stimulus":"[\"img/0758/eabcd7a8-56ad-4fd2-bc24-90f6b7b33265.jpg\",\"img/0864/c22faebd-9c53-47bc-ada3-b9a30c688e75.jpg\"]","trial_type":"similarity","trial_index":146,"time_elapsed":971176,"internal_node_id":"0.0-6.0-140.0"},{"sim_score":7,"rt":5963,"stimulus":"[\"img/0867/85a96c62-548f-4994-9553-819e03c3135a.jpg\",\"img/0867/a749dddb-69f0-44a6-acdc-2bf295cf6dcc.jpg\"]","trial_type":"similarity","trial_index":147,"time_elapsed":978146,"internal_node_id":"0.0-6.0-141.0"},{"sim_score":7,"rt":3680,"stimulus":"[\"img/0898/f3a3f225-1248-4ac7-b93b-f0ff28485bf3.jpg\",\"img/0898/c3cecf20-f7fd-45fa-97d0-dc0a63e8d6c0.jpg\"]","trial_type":"similarity","trial_index":148,"time_elapsed":982857,"internal_node_id":"0.0-6.0-142.0"},{"sim_score":3,"rt":3762,"stimulus":"[\"img/0866/11a1d141-be5e-443c-98c1-a9d4d9e3dec0.jpg\",\"img/0769/da36e3f7-2337-434f-ab57-11822dd7eed7.jpg\"]","trial_type":"similarity","trial_index":149,"time_elapsed":987623,"internal_node_id":"0.0-6.0-143.0"},{"sim_score":4,"rt":2729,"stimulus":"[\"img/0860/31ff6436-98bf-4652-bed2-40f627229568.jpg\",\"img/0898/b2732712-71c2-45d8-834f-2b2ed5504910.jpg\"]","trial_type":"similarity","trial_index":150,"time_elapsed":991355,"internal_node_id":"0.0-6.0-144.0"},{"sim_score":6,"rt":3745,"stimulus":"[\"img/0766/d919cedb-f9b7-4f30-83bb-3e9c65001ceb.jpg\",\"img/0864/0116ca98-293d-4fa6-a93b-5a6144ef64cc.jpg\"]","trial_type":"similarity","trial_index":151,"time_elapsed":996104,"internal_node_id":"0.0-6.0-145.0"},{"sim_score":2,"rt":4069,"stimulus":"[\"img/0860/702bd09d-df3a-40aa-a267-5f04474305b5.jpg\",\"img/0903/81368973-de81-46f4-844f-b901f3bfd66d.jpg\"]","trial_type":"similarity","trial_index":152,"time_elapsed":1001176,"internal_node_id":"0.0-6.0-146.0"},{"sim_score":1,"rt":4292,"stimulus":"[\"img/0867/179ab87a-8eac-4c52-a41f-2e48e3120f09.jpg\",\"img/0764/3297a811-ea8b-4d74-9547-59cecab7293a.jpg\"]","trial_type":"similarity","trial_index":153,"time_elapsed":1006471,"internal_node_id":"0.0-6.0-147.0"},{"sim_score":5,"rt":4319,"stimulus":"[\"img/0769/1afb527f-9887-428c-bd26-a12c2f9efb68.jpg\",\"img/0904/9d30eff1-46ef-4453-b11e-124ef8145c00.jpg\"]","trial_type":"similarity","trial_index":154,"time_elapsed":1011794,"internal_node_id":"0.0-6.0-148.0"},{"sim_score":3,"rt":3446,"stimulus":"[\"img/0764/17b088f8-3053-4140-b544-d15654cc79ef.jpg\",\"img/0901/233a6948-48eb-4b67-8259-222b916b2322.jpg\"]","trial_type":"similarity","trial_index":155,"time_elapsed":1016243,"internal_node_id":"0.0-6.0-149.0"},{"sim_score":4,"rt":3345,"stimulus":"[\"img/0904/25365108-e038-4021-aac9-797f2063b337.jpg\",\"img/0899/4408c14d-c168-4a7d-96f6-bc87bfb58f83.jpg\"]","trial_type":"similarity","trial_index":156,"time_elapsed":1020591,"internal_node_id":"0.0-6.0-150.0"},{"sim_score":2,"rt":3952,"stimulus":"[\"img/0862/eefa5588-9efd-4591-aa5f-a2e17c7d7bcc.jpg\",\"img/0867/075e0f95-856b-4cbb-acf5-092393aaf04e.jpg\"]","trial_type":"similarity","trial_index":157,"time_elapsed":1025546,"internal_node_id":"0.0-6.0-151.0"},{"sim_score":7,"rt":3055,"stimulus":"[\"img/0766/5d1b8041-c5a1-4b02-b4fe-3453d98a0d72.jpg\",\"img/0766/2746b119-4bba-463e-acf0-88136dc6600c.jpg\"]","trial_type":"similarity","trial_index":158,"time_elapsed":1029604,"internal_node_id":"0.0-6.0-152.0"},{"sim_score":5,"rt":5011,"stimulus":"[\"img/0862/ba89835a-408c-480b-8594-ed4ffa97eb5c.jpg\",\"img/0894/1a010553-d598-4b06-a772-81f1e7b3addb.jpg\"]","trial_type":"similarity","trial_index":159,"time_elapsed":1035618,"internal_node_id":"0.0-6.0-153.0"},{"sim_score":4,"rt":5417,"stimulus":"[\"img/0899/ad8268c5-8199-48d0-ad70-c5b6d6c599ec.jpg\",\"img/0901/7c16dd9c-44ad-4d5b-990c-6a0b9b48b1b1.jpg\"]","trial_type":"similarity","trial_index":160,"time_elapsed":1042038,"internal_node_id":"0.0-6.0-154.0"},{"sim_score":7,"rt":2989,"stimulus":"[\"img/0874/995f0332-0439-4eb4-add3-957335dbf6d9.jpg\",\"img/0874/a82926a3-0b43-4add-803c-d5f9ea7798ee.jpg\"]","trial_type":"similarity","trial_index":161,"time_elapsed":1046050,"internal_node_id":"0.0-6.0-155.0"},{"sim_score":3,"rt":5851,"stimulus":"[\"img/0860/61fb959d-d4d9-4de4-9e4e-4fa62b4cfcd5.jpg\",\"img/0867/f8488a47-94ee-4166-952c-44e16cf172f6.jpg\"]","trial_type":"similarity","trial_index":162,"time_elapsed":1052915,"internal_node_id":"0.0-6.0-156.0"},{"sim_score":1,"rt":4600,"stimulus":"[\"img/0901/0f670aef-ac36-496d-8142-ee5fdb21dd82.jpg\",\"img/0881/1407b85b-a1c6-45b1-9884-3b24203efadb.jpg\"]","trial_type":"similarity","trial_index":163,"time_elapsed":1058518,"internal_node_id":"0.0-6.0-157.0"},{"sim_score":7,"rt":2864,"stimulus":"[\"img/0903/150cf64c-0bd2-4674-abbb-a1387cf1f3e9.jpg\",\"img/0902/a6fb6dd5-696c-47ec-be7d-d7b88f1544f1.jpg\"]","trial_type":"similarity","trial_index":164,"time_elapsed":1062386,"internal_node_id":"0.0-6.0-158.0"},{"sim_score":1,"rt":4590,"stimulus":"[\"img/0860/4c530c3c-6aab-492a-94d1-9c01797bde40.jpg\",\"img/0764/fb92924f-5cfe-4b89-b130-0cce8cc5636b.jpg\"]","trial_type":"similarity","trial_index":165,"time_elapsed":1067979,"internal_node_id":"0.0-6.0-159.0"},{"sim_score":2,"rt":4122,"stimulus":"[\"img/0902/c018bd7a-d91a-4192-aea4-7259cfcdb6c4.jpg\",\"img/0875/a4935837-7d3c-4df6-88c1-36a94d4991ca.jpg\"]","trial_type":"similarity","trial_index":166,"time_elapsed":1073120,"internal_node_id":"0.0-6.0-160.0"},{"sim_score":3,"rt":4142,"stimulus":"[\"img/0898/993d8f2d-bef7-4251-a193-0f93a32b7763.jpg\",\"img/0862/f188d4f0-76a4-4102-818c-a209969d73a5.jpg\"]","trial_type":"similarity","trial_index":167,"time_elapsed":1078273,"internal_node_id":"0.0-6.0-161.0"},{"sim_score":2,"rt":3581,"stimulus":"[\"img/0894/3adef67d-7676-4995-80b2-bb31b8aca3ef.jpg\",\"img/0875/03c3c331-738b-4446-af92-3d7386b08c2e.jpg\"]","trial_type":"similarity","trial_index":168,"time_elapsed":1082859,"internal_node_id":"0.0-6.0-162.0"},{"sim_score":3,"rt":5356,"stimulus":"[\"img/0866/945c6710-d15b-4a5b-a8f6-69af0850357f.jpg\",\"img/0864/e02eddb5-f468-499c-91bf-f7be3ffe979b.jpg\"]","trial_type":"similarity","trial_index":169,"time_elapsed":1089230,"internal_node_id":"0.0-6.0-163.0"},{"sim_score":5,"rt":2911,"stimulus":"[\"img/0766/d8221e53-2300-4d99-ae1b-0bfb0eabe579.jpg\",\"img/0862/064818ee-13d5-4618-bb24-21c7368ea278.jpg\"]","trial_type":"similarity","trial_index":170,"time_elapsed":1093186,"internal_node_id":"0.0-6.0-164.0"},{"sim_score":6,"rt":4079,"stimulus":"[\"img/0866/620cd1aa-0800-4414-8f6e-90342e7a99ad.jpg\",\"img/0874/bf14b896-e930-4fd9-9c05-2e83317a2773.jpg\"]","trial_type":"similarity","trial_index":171,"time_elapsed":1098273,"internal_node_id":"0.0-6.0-165.0"},{"sim_score":6,"rt":2577,"stimulus":"[\"img/0862/57b6f83f-c763-4858-830d-102f97bfefbf.jpg\",\"img/0860/c3379ff7-0763-48fe-a1ec-7ea3d611bc7a.jpg\"]","trial_type":"similarity","trial_index":172,"time_elapsed":1101854,"internal_node_id":"0.0-6.0-166.0"},{"sim_score":4,"rt":3285,"stimulus":"[\"img/0766/ea09dd5a-d24d-4e97-a099-7da3db1baef1.jpg\",\"img/0901/4f9cffe0-c0be-4d7f-bacd-9d51efd19b4a.jpg\"]","trial_type":"similarity","trial_index":173,"time_elapsed":1115916,"internal_node_id":"0.0-6.0-167.0"},{"sim_score":7,"rt":3478,"stimulus":"[\"img/0862/7918ca67-5bd3-4606-a5ea-c39fb11a9297.jpg\",\"img/0862/4f0a3b4c-afbf-486e-b248-1d54982f54b4.jpg\"]","trial_type":"similarity","trial_index":174,"time_elapsed":1120400,"internal_node_id":"0.0-6.0-168.0"},{"sim_score":6,"rt":4191,"stimulus":"[\"img/0894/2217bdcd-23a7-42d3-823b-23f2488d7e87.jpg\",\"img/0764/713cc27e-2338-4486-bfe9-5f5725fbd7a0.jpg\"]","trial_type":"similarity","trial_index":175,"time_elapsed":1125599,"internal_node_id":"0.0-6.0-169.0"},{"sim_score":1,"rt":4174,"stimulus":"[\"img/0874/767f289c-9814-4496-803f-745cc8913d1f.jpg\",\"img/0898/6cd3830b-d44e-4915-be2b-88d31424b91c.jpg\"]","trial_type":"similarity","trial_index":176,"time_elapsed":1130778,"internal_node_id":"0.0-6.0-170.0"},{"sim_score":5,"rt":5621,"stimulus":"[\"img/0860/fd4662f9-4c03-4d79-8593-06735e55a64b.jpg\",\"img/0766/0bf3793e-c353-45e5-ac6f-753f5f484e10.jpg\"]","trial_type":"similarity","trial_index":177,"time_elapsed":1137402,"internal_node_id":"0.0-6.0-171.0"},{"sim_score":4,"rt":2538,"stimulus":"[\"img/0898/a8f16b02-e19f-423b-86c3-a36562ae1f9b.jpg\",\"img/0864/4bd81bc6-c13d-46df-95a9-485886dc7c1b.jpg\"]","trial_type":"similarity","trial_index":178,"time_elapsed":1140943,"internal_node_id":"0.0-6.0-172.0"},{"sim_score":4,"rt":3097,"stimulus":"[\"img/0881/c843e210-bdfe-4a7c-8bbe-fcea1f90fe1c.jpg\",\"img/0764/438c0217-036f-43c9-9b87-f43144e46011.jpg\"]","trial_type":"similarity","trial_index":179,"time_elapsed":1145045,"internal_node_id":"0.0-6.0-173.0"},{"sim_score":2,"rt":3669,"stimulus":"[\"img/0898/b3290bf9-215b-4b45-b21a-65bdf73f142f.jpg\",\"img/0868/1a62b2b2-18f5-466e-b564-5176a57c565e.jpg\"]","trial_type":"similarity","trial_index":180,"time_elapsed":1149717,"internal_node_id":"0.0-6.0-174.0"},{"sim_score":7,"rt":4151,"stimulus":"[\"img/0864/66091c27-e588-4476-8af9-265dc6be4156.jpg\",\"img/0864/efcfbb1b-8197-44c9-b723-40d6c608dd3c.jpg\"]","trial_type":"similarity","trial_index":181,"time_elapsed":1154873,"internal_node_id":"0.0-6.0-175.0"},{"sim_score":4,"rt":3018,"stimulus":"[\"img/0899/0e1d936a-dbe2-4afc-9f19-7b7a1ae6c9ed.jpg\",\"img/0862/a0a3a7ba-7798-46a3-b4ca-05e1f6e581d0.jpg\"]","trial_type":"similarity","trial_index":182,"time_elapsed":1158922,"internal_node_id":"0.0-6.0-176.0"},{"sim_score":1,"rt":3220,"stimulus":"[\"img/0875/e7e66b13-b573-431e-b85e-288ce04a35a3.jpg\",\"img/0758/6cd8c362-ae2a-41eb-80a3-3a4f7ace1530.jpg\"]","trial_type":"similarity","trial_index":183,"time_elapsed":1163153,"internal_node_id":"0.0-6.0-177.0"},{"sim_score":6,"rt":7064,"stimulus":"[\"img/0866/9b38d691-1802-4959-ab3f-fc902f0e4ea6.jpg\",\"img/0901/0adb3bd6-d758-4ba7-9723-3ad6cac05bd5.jpg\"]","trial_type":"similarity","trial_index":184,"time_elapsed":1171222,"internal_node_id":"0.0-6.0-178.0"},{"sim_score":3,"rt":7157,"stimulus":"[\"img/0769/d1be2815-fa79-46e8-b5c3-7d81caaca490.jpg\",\"img/0874/a3bc679d-619f-4db6-bb68-116dcb757d9c.jpg\"]","trial_type":"similarity","trial_index":185,"time_elapsed":1179410,"internal_node_id":"0.0-6.0-179.0"},{"sim_score":2,"rt":2998,"stimulus":"[\"img/0875/dbdd643e-6d0e-4a5c-ab57-b9c29b9c981a.jpg\",\"img/0881/b549bc99-a61c-4450-bab5-9efc3a197bf0.jpg\"]","trial_type":"similarity","trial_index":186,"time_elapsed":1183416,"internal_node_id":"0.0-6.0-180.0"},{"sim_score":7,"rt":4465,"stimulus":"[\"img/0866/a15b02be-11bb-43e3-b0e0-ecc3bd7dfc49.jpg\",\"img/0868/4bd5105a-d2c3-4f82-8c80-57196106ba53.jpg\"]","trial_type":"similarity","trial_index":187,"time_elapsed":1188885,"internal_node_id":"0.0-6.0-181.0"},{"sim_score":4,"rt":2287,"stimulus":"[\"img/0899/b45c550b-96c3-4255-ad59-48a2b4db1c1e.jpg\",\"img/0758/a085b443-b5d7-4cb2-9ad4-b9dab0fc23f1.jpg\"]","trial_type":"similarity","trial_index":188,"time_elapsed":1192188,"internal_node_id":"0.0-6.0-182.0"},{"sim_score":1,"rt":5475,"stimulus":"[\"img/0874/1016b306-087c-4afc-aa08-fa527b28dc76.jpg\",\"img/0875/3ecb367d-e9eb-4826-8aaa-7aa72fb98019.jpg\"]","trial_type":"similarity","trial_index":189,"time_elapsed":1198666,"internal_node_id":"0.0-6.0-183.0"},{"sim_score":4,"rt":3021,"stimulus":"[\"img/0904/06dacdc5-2206-4fb8-92b7-88042d22833c.jpg\",\"img/0862/fb26cb07-d5a9-4653-813c-f41609f26cd5.jpg\"]","trial_type":"similarity","trial_index":190,"time_elapsed":1202713,"internal_node_id":"0.0-6.0-184.0"},{"sim_score":6,"rt":2535,"stimulus":"[\"img/0902/6730b12a-f0a7-4587-8c10-a32fae16565b.jpg\",\"img/0766/a754e4b6-5019-4cf4-8f58-34c20547a1f5.jpg\"]","trial_type":"similarity","trial_index":191,"time_elapsed":1206259,"internal_node_id":"0.0-6.0-185.0"},{"sim_score":4,"rt":2696,"stimulus":"[\"img/0758/b76ceca7-95ac-46e4-ac13-da02c8e93be9.jpg\",\"img/0769/75f7e514-0548-4329-b1e4-93c05e74f038.jpg\"]","trial_type":"similarity","trial_index":192,"time_elapsed":1209971,"internal_node_id":"0.0-6.0-186.0"},{"sim_score":7,"rt":3278,"stimulus":"[\"img/0881/2a8413be-fec2-4de6-88ad-614dd4cccc9d.jpg\",\"img/0881/e6746727-7f89-47ec-b939-d98abe78372d.jpg\"]","trial_type":"similarity","trial_index":193,"time_elapsed":1214257,"internal_node_id":"0.0-6.0-187.0"},{"sim_score":3,"rt":3592,"stimulus":"[\"img/0758/20497cbe-ddae-489e-86e2-ab06985ed07c.jpg\",\"img/0866/d266fece-59b3-46fa-b69f-96f6efb81b59.jpg\"]","trial_type":"similarity","trial_index":194,"time_elapsed":1218861,"internal_node_id":"0.0-6.0-188.0"},{"sim_score":4,"rt":3532,"stimulus":"[\"img/0764/d0bef2e0-e16b-4c82-9451-c1d16265eb67.jpg\",\"img/0898/4184e5a2-84ea-4f36-9b42-ae58646f6f87.jpg\"]","trial_type":"similarity","trial_index":195,"time_elapsed":1223398,"internal_node_id":"0.0-6.0-189.0"},{"sim_score":4,"rt":4276,"stimulus":"[\"img/0903/2a9c8033-3e70-47fa-816d-97ee1813a3a3.jpg\",\"img/0901/33b51a81-06d9-46d9-9d4f-5a2d6d6b8058.jpg\"]","trial_type":"similarity","trial_index":196,"time_elapsed":1228678,"internal_node_id":"0.0-6.0-190.0"},{"sim_score":6,"rt":3350,"stimulus":"[\"img/0902/82d20e8c-2162-47a6-925b-52906558c046.jpg\",\"img/0898/8605a25b-6895-476d-8c13-df7a83f96093.jpg\"]","trial_type":"similarity","trial_index":197,"time_elapsed":1233031,"internal_node_id":"0.0-6.0-191.0"},{"sim_score":2,"rt":5244,"stimulus":"[\"img/0864/5f74a653-3bdc-4308-8cca-ac667dc22e1f.jpg\",\"img/0901/3db47171-0139-4235-82cd-0b1787b6775f.jpg\"]","trial_type":"similarity","trial_index":198,"time_elapsed":1239278,"internal_node_id":"0.0-6.0-192.0"},{"sim_score":3,"rt":5507,"stimulus":"[\"img/0894/11674fa4-285d-44e2-939f-2228c6a64080.jpg\",\"img/0881/0c7068da-d0d9-4103-bda1-74ef7a2b32c3.jpg\"]","trial_type":"similarity","trial_index":199,"time_elapsed":1245815,"internal_node_id":"0.0-6.0-193.0"},{"sim_score":7,"rt":3905,"stimulus":"[\"img/0868/83b4350a-3b70-4cea-b7f5-b5b56f3050a8.jpg\",\"img/0868/4a8a45ed-2c4f-421b-9564-409a33ecd26c.jpg\"]","trial_type":"similarity","trial_index":200,"time_elapsed":1250725,"internal_node_id":"0.0-6.0-194.0"},{"sim_score":4,"rt":4112,"stimulus":"[\"img/0899/d8f2dd94-570e-4e8c-a087-d96090fb9e8c.jpg\",\"img/0764/bd2eaa3e-95a9-4a59-a78e-3f81c766eea9.jpg\"]","trial_type":"similarity","trial_index":201,"time_elapsed":1255851,"internal_node_id":"0.0-6.0-195.0"},{"sim_score":5,"rt":3003,"stimulus":"[\"img/0881/62a64f90-7a72-4aee-a1a1-0c548ac9bdda.jpg\",\"img/0904/4d7d70a3-9477-4921-bda0-f9531d0a5c5b.jpg\"]","trial_type":"similarity","trial_index":202,"time_elapsed":1259857,"internal_node_id":"0.0-6.0-196.0"},{"sim_score":4,"rt":2279,"stimulus":"[\"img/0864/87c467d3-abca-482f-ad80-3766c21b1bb3.jpg\",\"img/0902/0eb85fbc-27c8-41df-9d0b-a5f9efd417d1.jpg\"]","trial_type":"similarity","trial_index":203,"time_elapsed":1263140,"internal_node_id":"0.0-6.0-197.0"},{"sim_score":5,"rt":2969,"stimulus":"[\"img/0894/86201968-6e78-4d68-9b3a-d1692e066210.jpg\",\"img/0904/696ebb60-8891-417a-91fd-c53218907a95.jpg\"]","trial_type":"similarity","trial_index":204,"time_elapsed":1267138,"internal_node_id":"0.0-6.0-198.0"},{"sim_score":7,"rt":3059,"stimulus":"[\"img/0901/d4d09bf5-093e-4050-838e-7c738be8e63c.jpg\",\"img/0901/693e0535-ef7e-4d60-af9d-fac2f38e8307.jpg\"]","trial_type":"similarity","trial_index":205,"time_elapsed":1271200,"internal_node_id":"0.0-6.0-199.0"},{"sim_score":3,"rt":4724,"stimulus":"[\"img/0894/8cadb87a-7001-4e47-99fb-1867bebf1668.jpg\",\"img/0860/29a21a9f-54bb-4093-ad3f-04823ceaa89f.jpg\"]","trial_type":"similarity","trial_index":206,"time_elapsed":1276929,"internal_node_id":"0.0-6.0-200.0"},{"sim_score":7,"rt":4113,"stimulus":"[\"img/0898/08c72dac-f8ad-407a-9ce6-8c9a5d679c3a.jpg\",\"img/0903/5248eedd-7e6a-4d39-91b0-06ec227f3ed0.jpg\"]","trial_type":"similarity","trial_index":207,"time_elapsed":1282057,"internal_node_id":"0.0-6.0-201.0"},{"sim_score":4,"rt":2964,"stimulus":"[\"img/0864/6f631579-acf1-415c-a42c-1207f62a8d99.jpg\",\"img/0894/767a0eec-1064-46b1-b1aa-dfa02b0cd74e.jpg\"]","trial_type":"similarity","trial_index":208,"time_elapsed":1286024,"internal_node_id":"0.0-6.0-202.0"},{"sim_score":1,"rt":4889,"stimulus":"[\"img/0874/c0378dac-9370-439a-8b79-db27c96fb390.jpg\",\"img/0860/87039971-2210-4aab-93c0-8e9b5f1655b2.jpg\"]","trial_type":"similarity","trial_index":209,"time_elapsed":1291917,"internal_node_id":"0.0-6.0-203.0"},{"sim_score":3,"rt":6062,"stimulus":"[\"img/0862/ee3b7bff-4a70-4e84-9bea-4a565e456acb.jpg\",\"img/0875/5a1e5100-0d94-4fec-bbe9-ca9894d2cf8e.jpg\"]","trial_type":"similarity","trial_index":210,"time_elapsed":1298983,"internal_node_id":"0.0-6.0-204.0"},{"sim_score":3,"rt":6716,"stimulus":"[\"img/0867/7d1c497b-c1b3-4ed8-abb5-d7f73306015f.jpg\",\"img/0881/344de456-b358-4887-bd0e-e4c3278af887.jpg\"]","trial_type":"similarity","trial_index":211,"time_elapsed":1306702,"internal_node_id":"0.0-6.0-205.0"},{"sim_score":5,"rt":3611,"stimulus":"[\"img/0901/f1116359-1ff1-4638-b3b3-700918d36d18.jpg\",\"img/0902/3b243e54-0803-4c29-af42-4037c2118495.jpg\"]","trial_type":"similarity","trial_index":212,"time_elapsed":1311318,"internal_node_id":"0.0-6.0-206.0"},{"sim_score":4,"rt":2842,"stimulus":"[\"img/0899/0433d056-aa30-4f8a-9aa1-abbb951e4edd.jpg\",\"img/0864/ef9cbca0-4be8-435d-ad49-977259e80409.jpg\"]","trial_type":"similarity","trial_index":213,"time_elapsed":1315166,"internal_node_id":"0.0-6.0-207.0"},{"sim_score":3,"rt":3370,"stimulus":"[\"img/0901/a6c90438-fa7c-4418-ac7c-16c2e772dd98.jpg\",\"img/0769/35f2dd39-40aa-498e-b401-9f1ef2622d00.jpg\"]","trial_type":"similarity","trial_index":214,"time_elapsed":1319566,"internal_node_id":"0.0-6.0-208.0"},{"sim_score":7,"rt":2681,"stimulus":"[\"img/0902/b76efc44-a50f-4dac-b997-ff0222376067.jpg\",\"img/0902/418b716e-63e5-4c77-93e9-95b1f5a3ddf0.jpg\"]","trial_type":"similarity","trial_index":215,"time_elapsed":1331828,"internal_node_id":"0.0-6.0-209.0"},{"view_history":"[{\"page_index\":0,\"viewing_time\":6850}]","rt":6851,"trial_type":"instructions","trial_index":216,"time_elapsed":1339691,"internal_node_id":"0.0-7.0"},{"rt":22685,"responses":"{\"Q0\":\"Orange-crowned Warbler\"}","answer":["Nashville Warbler"],"trial_type":"image-multi-choice","trial_index":217,"time_elapsed":1363407,"internal_node_id":"0.0-8.0-0.0"},{"rt":10422,"responses":"{\"Q0\":\"Blackburnian Warbler\"}","answer":["Black-and-white Warbler"],"trial_type":"image-multi-choice","trial_index":218,"time_elapsed":1374853,"internal_node_id":"0.0-8.0-1.0"},{"rt":6625,"responses":"{\"Q0\":\"Townsend's Warbler\"}","answer":["Townsend's Warbler"],"trial_type":"image-multi-choice","trial_index":219,"time_elapsed":1382497,"internal_node_id":"0.0-8.0-2.0"},{"rt":5769,"responses":"{\"Q0\":\"Lark Sparrow\"}","answer":["Lark Sparrow"],"trial_type":"image-multi-choice","trial_index":220,"time_elapsed":1389282,"internal_node_id":"0.0-8.0-3.0"},{"rt":4548,"responses":"{\"Q0\":\"Yellow Warbler\"}","answer":["Yellow Warbler"],"trial_type":"image-multi-choice","trial_index":221,"time_elapsed":1394858,"internal_node_id":"0.0-8.0-4.0"},{"rt":7679,"responses":"{\"Q0\":\"Orange-crowned Warbler\"}","answer":["Orange-crowned Warbler"],"trial_type":"image-multi-choice","trial_index":222,"time_elapsed":1403571,"internal_node_id":"0.0-8.0-5.0"},{"rt":12601,"responses":"{\"Q0\":\"White-throated Sparrow\"}","answer":["White-throated Sparrow"],"trial_type":"image-multi-choice","trial_index":223,"time_elapsed":1417185,"internal_node_id":"0.0-8.0-6.0"},{"rt":10001,"responses":"{\"Q0\":\"Fox Sparrow\"}","answer":["Fox Sparrow"],"trial_type":"image-multi-choice","trial_index":224,"time_elapsed":1428197,"internal_node_id":"0.0-8.0-7.0"},{"rt":14977,"responses":"{\"Q0\":\"Song Sparrow\"}","answer":["Song Sparrow"],"trial_type":"image-multi-choice","trial_index":225,"time_elapsed":1444184,"internal_node_id":"0.0-8.0-8.0"},{"rt":9802,"responses":"{\"Q0\":\"Magnolia Warbler\"}","answer":["Blackburnian Warbler"],"trial_type":"image-multi-choice","trial_index":226,"time_elapsed":1455013,"internal_node_id":"0.0-8.0-9.0"},{"rt":5835,"responses":"{\"Q0\":\"Vesper Sparrow\"}","answer":["Vesper Sparrow"],"trial_type":"image-multi-choice","trial_index":227,"time_elapsed":1461868,"internal_node_id":"0.0-8.0-10.0"},{"rt":4799,"responses":"{\"Q0\":\"White-crowned Sparrow\"}","answer":["White-crowned Sparrow"],"trial_type":"image-multi-choice","trial_index":228,"time_elapsed":1467680,"internal_node_id":"0.0-8.0-11.0"},{"rt":8584,"responses":"{\"Q0\":\"Chipping Sparrow\"}","answer":["American Tree Sparrow"],"trial_type":"image-multi-choice","trial_index":229,"time_elapsed":1477286,"internal_node_id":"0.0-8.0-12.0"},{"rt":9123,"responses":"{\"Q0\":\"Nashville Warbler\"}","answer":["Tennessee Warbler"],"trial_type":"image-multi-choice","trial_index":230,"time_elapsed":1487422,"internal_node_id":"0.0-8.0-13.0"},{"rt":11428,"responses":"{\"Q0\":\"Townsend's Warbler\"}","answer":["Magnolia Warbler"],"trial_type":"image-multi-choice","trial_index":231,"time_elapsed":1499862,"internal_node_id":"0.0-8.0-14.0"},{"rt":6941,"responses":"{\"Q0\":\"Northern Waterthrush\"}","answer":["Northern Waterthrush"],"trial_type":"image-multi-choice","trial_index":232,"time_elapsed":1507816,"internal_node_id":"0.0-8.0-15.0"},{"rt":9401,"responses":"{\"Q0\":\"Chipping Sparrow\"}","answer":["Chipping Sparrow"],"trial_type":"image-multi-choice","trial_index":233,"time_elapsed":1518238,"internal_node_id":"0.0-8.0-16.0"},{"rt":5955,"responses":"{\"Q0\":\"Swamp Sparrow\"}","answer":["Swamp Sparrow"],"trial_type":"image-multi-choice","trial_index":234,"time_elapsed":1525282,"internal_node_id":"0.0-8.0-17.0"},{"rt":11030,"responses":"{\"Q0\":\"Lincoln's Sparrow\"}","answer":["Lincoln's Sparrow"],"trial_type":"image-multi-choice","trial_index":235,"time_elapsed":1537358,"internal_node_id":"0.0-8.0-18.0"},{"rt":11350,"responses":"{\"Q0\":\"Ovenbird\"}","answer":["Ovenbird"],"trial_type":"image-multi-choice","trial_index":236,"time_elapsed":1549720,"internal_node_id":"0.0-8.0-19.0"}]