[{"view_history":"[{\"page_index\":0,\"viewing_time\":34328}]","rt":34331,"trial_type":"instructions","trial_index":0,"time_elapsed":34333,"internal_node_id":"0.0-0.0"},{"sim_score":5,"rt":10764,"stimulus":"[\"img/866.jpg\",\"img/868.jpg\"]","trial_type":"similarity_demo","trial_index":1,"time_elapsed":46116,"internal_node_id":"0.0-1.0"},{"view_history":"[{\"page_index\":0,\"viewing_time\":16651}]","rt":16652,"trial_type":"instructions","trial_index":2,"time_elapsed":63769,"internal_node_id":"0.0-2.0"},{"sim_score":2,"rt":5161,"stimulus":"[\"img/766.jpg\",\"img/867.jpg\"]","trial_type":"similarity_demo","trial_index":3,"time_elapsed":69938,"internal_node_id":"0.0-3.0"},{"view_history":"[{\"page_index\":0,\"viewing_time\":12640}]","rt":12641,"trial_type":"instructions","trial_index":4,"time_elapsed":83581,"internal_node_id":"0.0-4.0"},{"view_history":"[{\"page_index\":0,\"viewing_time\":19356}]","rt":19357,"trial_type":"instructions","trial_index":5,"time_elapsed":103939,"internal_node_id":"0.0-5.0"},{"sim_score":3,"rt":7136,"stimulus":"[\"img/0868/4a8a45ed-2c4f-421b-9564-409a33ecd26c.jpg\",\"img/0901/08d6d1d1-c043-43c4-bb08-d45e062822b9.jpg\"]","trial_type":"similarity","trial_index":6,"time_elapsed":112088,"internal_node_id":"0.0-6.0-0.0"},{"sim_score":3,"rt":6027,"stimulus":"[\"img/0769/3c1efec9-f8fd-487d-8955-4be88e48c832.jpg\",\"img/0867/a498eef3-9fa4-4ab2-9778-4ae82ac40dc5.jpg\"]","trial_type":"similarity","trial_index":7,"time_elapsed":119124,"internal_node_id":"0.0-6.0-1.0"},{"sim_score":2,"rt":5512,"stimulus":"[\"img/0766/69e486f7-dbef-456b-9d48-53d814248a28.jpg\",\"img/0898/993d8f2d-bef7-4251-a193-0f93a32b7763.jpg\"]","trial_type":"similarity","trial_index":8,"time_elapsed":125646,"internal_node_id":"0.0-6.0-2.0"},{"sim_score":2,"rt":5064,"stimulus":"[\"img/0902/1a120fb9-dbd6-443e-ba91-b4aceab963da.jpg\",\"img/0881/54ea8e77-c7e5-4197-b7fa-00b7020849a7.jpg\"]","trial_type":"similarity","trial_index":9,"time_elapsed":131720,"internal_node_id":"0.0-6.0-3.0"},{"sim_score":3,"rt":5456,"stimulus":"[\"img/0894/e2446cf5-cd48-486a-badc-76498e087fbe.jpg\",\"img/0894/a3d4170b-b7d8-40e3-955f-87e76ed745fc.jpg\"]","trial_type":"similarity","trial_index":10,"time_elapsed":138192,"internal_node_id":"0.0-6.0-4.0"},{"sim_score":2,"rt":4318,"stimulus":"[\"img/0874/ca23d307-fc00-4d7d-9106-584c6eb21b4d.jpg\",\"img/0899/93494f3b-d539-4075-b027-d82e344563da.jpg\"]","trial_type":"similarity","trial_index":11,"time_elapsed":143516,"internal_node_id":"0.0-6.0-5.0"},{"sim_score":3,"rt":6076,"stimulus":"[\"img/0904/60d1a521-edf7-4696-9263-f21ac0e62a01.jpg\",\"img/0764/e42c1dc9-7831-4995-be19-7ca7b4d141fc.jpg\"]","trial_type":"similarity","trial_index":12,"time_elapsed":150606,"internal_node_id":"0.0-6.0-6.0"},{"sim_score":5,"rt":8235,"stimulus":"[\"img/0899/0433d056-aa30-4f8a-9aa1-abbb951e4edd.jpg\",\"img/0898/b3290bf9-215b-4b45-b21a-65bdf73f142f.jpg\"]","trial_type":"similarity","trial_index":13,"time_elapsed":159847,"internal_node_id":"0.0-6.0-7.0"},{"sim_score":1,"rt":4603,"stimulus":"[\"img/0874/1016b306-087c-4afc-aa08-fa527b28dc76.jpg\",\"img/0903/150cf64c-0bd2-4674-abbb-a1387cf1f3e9.jpg\"]","trial_type":"similarity","trial_index":14,"time_elapsed":165463,"internal_node_id":"0.0-6.0-8.0"},{"sim_score":6,"rt":7373,"stimulus":"[\"img/0881/7e31e5dc-2240-4b1b-b5a0-3acd980099ef.jpg\",\"img/0758/d57c2592-a317-4f63-91be-91a3a9afd222.jpg\"]","trial_type":"similarity","trial_index":15,"time_elapsed":173850,"internal_node_id":"0.0-6.0-9.0"},{"sim_score":5,"rt":5382,"stimulus":"[\"img/0898/4184e5a2-84ea-4f36-9b42-ae58646f6f87.jpg\",\"img/0901/1b86f2fc-7a1d-4aa8-9252-114f92edef3b.jpg\"]","trial_type":"similarity","trial_index":16,"time_elapsed":180242,"internal_node_id":"0.0-6.0-10.0"},{"sim_score":5,"rt":6347,"stimulus":"[\"img/0903/12bd8657-92e6-4c36-a06c-597e7a1d51f3.jpg\",\"img/0769/387a9744-d6a7-42b8-bab8-33007ec434aa.jpg\"]","trial_type":"similarity","trial_index":17,"time_elapsed":187603,"internal_node_id":"0.0-6.0-11.0"},{"sim_score":1,"rt":6874,"stimulus":"[\"img/0764/d7c215ab-ea9a-45be-8d5f-417d5b9a8a17.jpg\",\"img/0868/4bd5105a-d2c3-4f82-8c80-57196106ba53.jpg\"]","trial_type":"similarity","trial_index":18,"time_elapsed":195487,"internal_node_id":"0.0-6.0-12.0"},{"sim_score":3,"rt":7954,"stimulus":"[\"img/0867/cc72ed48-7704-422c-86d6-467a1145287a.jpg\",\"img/0903/4cbdc464-e562-4ec2-9bb6-15f894fdf528.jpg\"]","trial_type":"similarity","trial_index":19,"time_elapsed":204448,"internal_node_id":"0.0-6.0-13.0"},{"sim_score":1,"rt":4463,"stimulus":"[\"img/0766/b84598d0-5b41-4841-88b0-b441b48289f5.jpg\",\"img/0758/caa93da2-9edf-49fa-96b9-32dedd8f5078.jpg\"]","trial_type":"similarity","trial_index":20,"time_elapsed":209918,"internal_node_id":"0.0-6.0-14.0"},{"sim_score":4,"rt":7566,"stimulus":"[\"img/0902/30c420f5-c714-4681-ae5a-c0ba8f636a26.jpg\",\"img/0860/c3379ff7-0763-48fe-a1ec-7ea3d611bc7a.jpg\"]","trial_type":"similarity","trial_index":21,"time_elapsed":218493,"internal_node_id":"0.0-6.0-15.0"},{"sim_score":1,"rt":6151,"stimulus":"[\"img/0769/965c3c44-d9e5-47c5-b61a-2bbdf4215d9a.jpg\",\"img/0875/e7e66b13-b573-431e-b85e-288ce04a35a3.jpg\"]","trial_type":"similarity","trial_index":22,"time_elapsed":225653,"internal_node_id":"0.0-6.0-16.0"},{"sim_score":2,"rt":4316,"stimulus":"[\"img/0904/da170c1b-9651-4f08-b231-2bdd1d9a046f.jpg\",\"img/0866/945c6710-d15b-4a5b-a8f6-69af0850357f.jpg\"]","trial_type":"similarity","trial_index":23,"time_elapsed":230977,"internal_node_id":"0.0-6.0-17.0"},{"sim_score":6,"rt":5368,"stimulus":"[\"img/0875/5a7c4e35-6514-4e12-8879-d16071da4cd6.jpg\",\"img/0875/527ced51-8e53-4aab-ab05-86df219104c0.jpg\"]","trial_type":"similarity","trial_index":24,"time_elapsed":237355,"internal_node_id":"0.0-6.0-18.0"},{"sim_score":7,"rt":5767,"stimulus":"[\"img/0758/335851a0-a55b-46d8-ab05-8463eda48349.jpg\",\"img/0758/65d426d6-3ff6-415d-8654-a43b83ecc4fe.jpg\"]","trial_type":"similarity","trial_index":25,"time_elapsed":244132,"internal_node_id":"0.0-6.0-19.0"},{"sim_score":2,"rt":5412,"stimulus":"[\"img/0902/22ed3536-288b-452e-9777-0fa0ab94deb0.jpg\",\"img/0874/2c9464dd-8a23-4baa-ac94-1ba3af5c15cc.jpg\"]","trial_type":"similarity","trial_index":26,"time_elapsed":250554,"internal_node_id":"0.0-6.0-20.0"},{"sim_score":3,"rt":5691,"stimulus":"[\"img/0764/978aede9-4590-4ad0-b234-135c83e5d669.jpg\",\"img/0769/458d9c77-b844-40b5-bb1b-1e3bbd4da64e.jpg\"]","trial_type":"similarity","trial_index":27,"time_elapsed":257260,"internal_node_id":"0.0-6.0-21.0"},{"sim_score":2,"rt":6731,"stimulus":"[\"img/0901/1e23ffbd-19de-4c4f-aa23-c54aaa3319a3.jpg\",\"img/0874/995f0332-0439-4eb4-add3-957335dbf6d9.jpg\"]","trial_type":"similarity","trial_index":28,"time_elapsed":265002,"internal_node_id":"0.0-6.0-22.0"},{"sim_score":2,"rt":6421,"stimulus":"[\"img/0875/cff79b3a-a797-4393-9757-6275f999ec04.jpg\",\"img/0903/470acfd5-5571-4a7b-b3a4-28d87e098138.jpg\"]","trial_type":"similarity","trial_index":29,"time_elapsed":272430,"internal_node_id":"0.0-6.0-23.0"},{"sim_score":5,"rt":7762,"stimulus":"[\"img/0769/82ab9db6-4578-4e79-874f-f09100439f09.jpg\",\"img/0881/d1982897-8d8d-4704-a940-1ee5d07a1f15.jpg\"]","trial_type":"similarity","trial_index":30,"time_elapsed":281201,"internal_node_id":"0.0-6.0-24.0"},{"sim_score":3,"rt":4839,"stimulus":"[\"img/0867/bf560d4f-dee3-4f11-a385-705cc1aa5f3c.jpg\",\"img/0904/09dac84f-3d1c-4445-a68e-d0389fdbf1e9.jpg\"]","trial_type":"similarity","trial_index":31,"time_elapsed":287048,"internal_node_id":"0.0-6.0-25.0"},{"sim_score":1,"rt":6298,"stimulus":"[\"img/0860/17b44a7d-c5ca-479f-9e87-f65a64f5c80e.jpg\",\"img/0881/445edb15-bd7f-4af3-8bd5-c6ad9677bb31.jpg\"]","trial_type":"similarity","trial_index":32,"time_elapsed":294358,"internal_node_id":"0.0-6.0-26.0"},{"sim_score":7,"rt":4849,"stimulus":"[\"img/0866/a04d37f0-99dd-478a-b6c6-58b215138f84.jpg\",\"img/0866/bf14b5bd-fb55-47db-86b9-4f8aeb9a6dad.jpg\"]","trial_type":"similarity","trial_index":33,"time_elapsed":300212,"internal_node_id":"0.0-6.0-27.0"},{"sim_score":2,"rt":5887,"stimulus":"[\"img/0764/ba0c0955-acbb-457d-b1c2-f006b88121d5.jpg\",\"img/0862/1c20f772-3a51-4a80-aac0-f57dc9f86c28.jpg\"]","trial_type":"similarity","trial_index":34,"time_elapsed":307111,"internal_node_id":"0.0-6.0-28.0"},{"sim_score":2,"rt":5259,"stimulus":"[\"img/0904/b7c2a2c8-df33-4473-b3d4-ff7147c60db3.jpg\",\"img/0758/7ffbc76b-1fc1-432c-8f7e-9ec8d1b3f643.jpg\"]","trial_type":"similarity","trial_index":35,"time_elapsed":313379,"internal_node_id":"0.0-6.0-29.0"},{"sim_score":2,"rt":7691,"stimulus":"[\"img/0894/6b2e9509-8699-42b7-9582-7741df0ba2d7.jpg\",\"img/0899/d8f2dd94-570e-4e8c-a087-d96090fb9e8c.jpg\"]","trial_type":"similarity","trial_index":36,"time_elapsed":322079,"internal_node_id":"0.0-6.0-30.0"},{"sim_score":1,"rt":4204,"stimulus":"[\"img/0860/5383b320-1518-4095-a58e-5cc1ae30b64c.jpg\",\"img/0904/fe746a3f-8458-48d0-8a13-8cba2a9df9f8.jpg\"]","trial_type":"similarity","trial_index":37,"time_elapsed":327294,"internal_node_id":"0.0-6.0-31.0"},{"sim_score":7,"rt":6526,"stimulus":"[\"img/0874/7e4f2150-3b59-4a36-b5da-a4e0ba410531.jpg\",\"img/0881/c24f3051-eefa-42de-aba6-fccb56d93c70.jpg\"]","trial_type":"similarity","trial_index":38,"time_elapsed":334830,"internal_node_id":"0.0-6.0-32.0"},{"sim_score":2,"rt":5903,"stimulus":"[\"img/0881/62a64f90-7a72-4aee-a1a1-0c548ac9bdda.jpg\",\"img/0899/9de5e857-aa9a-4e0c-8ba2-46d79bd069a4.jpg\"]","trial_type":"similarity","trial_index":39,"time_elapsed":341747,"internal_node_id":"0.0-6.0-33.0"},{"sim_score":3,"rt":5744,"stimulus":"[\"img/0866/23a224f3-2012-4fc8-8e0f-3c36f8de27fd.jpg\",\"img/0862/53a9cf7c-93c4-41b9-952f-07d17f7a17b2.jpg\"]","trial_type":"similarity","trial_index":40,"time_elapsed":348501,"internal_node_id":"0.0-6.0-34.0"},{"sim_score":1,"rt":4767,"stimulus":"[\"img/0868/6a28c3b0-3d76-498a-9fb7-ddafc665eca8.jpg\",\"img/0894/76c1201f-8524-4865-85e6-dda8cb4ac986.jpg\"]","trial_type":"similarity","trial_index":41,"time_elapsed":354278,"internal_node_id":"0.0-6.0-35.0"},{"sim_score":6,"rt":6345,"stimulus":"[\"img/0860/c5ccd1a4-4bb7-48e1-9b25-72cfaf06909b.jpg\",\"img/0860/5bff793e-cbd5-4d7e-b628-0ac2b0e30b64.jpg\"]","trial_type":"similarity","trial_index":42,"time_elapsed":361639,"internal_node_id":"0.0-6.0-36.0"},{"sim_score":5,"rt":4918,"stimulus":"[\"img/0862/5d887e9f-89e2-4ebc-80a0-6d46fe6480db.jpg\",\"img/0864/3651d070-2fc5-4848-b6a6-088a2d9ac5c9.jpg\"]","trial_type":"similarity","trial_index":43,"time_elapsed":367567,"internal_node_id":"0.0-6.0-37.0"},{"sim_score":1,"rt":7369,"stimulus":"[\"img/0766/60033a74-9919-47e5-913c-71d0d483e7e5.jpg\",\"img/0866/f756f7d1-9ad8-4a34-9ef6-7a443d705bfe.jpg\"]","trial_type":"similarity","trial_index":44,"time_elapsed":375947,"internal_node_id":"0.0-6.0-38.0"},{"sim_score":1,"rt":4336,"stimulus":"[\"img/0875/42910c99-5463-450a-a0f8-d4d060a11455.jpg\",\"img/0898/01bfe666-3510-4fc7-964f-d00d28732dc8.jpg\"]","trial_type":"similarity","trial_index":45,"time_elapsed":381295,"internal_node_id":"0.0-6.0-39.0"},{"sim_score":5,"rt":4607,"stimulus":"[\"img/0766/ae0fce93-fe8d-4aa1-87ca-4c3e4b889f2f.jpg\",\"img/0769/aad494cc-674d-4a08-9bfa-24a88ebe3c79.jpg\"]","trial_type":"similarity","trial_index":46,"time_elapsed":386914,"internal_node_id":"0.0-6.0-40.0"},{"sim_score":2,"rt":6467,"stimulus":"[\"img/0874/a82926a3-0b43-4add-803c-d5f9ea7798ee.jpg\",\"img/0764/4bec8d92-75aa-475a-954d-8215dbe538f5.jpg\"]","trial_type":"similarity","trial_index":47,"time_elapsed":415260,"internal_node_id":"0.0-6.0-41.0"},{"sim_score":3,"rt":7744,"stimulus":"[\"img/0868/09a9ef4d-d000-4cfa-a6aa-ebec7c2edeb4.jpg\",\"img/0902/7499db23-3a41-41ea-ab5b-6ab4d4c3ed35.jpg\"]","trial_type":"similarity","trial_index":48,"time_elapsed":424014,"internal_node_id":"0.0-6.0-42.0"},{"sim_score":1,"rt":4881,"stimulus":"[\"img/0875/dbdd643e-6d0e-4a5c-ab57-b9c29b9c981a.jpg\",\"img/0899/76ad07e2-ca25-45eb-84f2-8d80b8ca3e26.jpg\"]","trial_type":"similarity","trial_index":49,"time_elapsed":429902,"internal_node_id":"0.0-6.0-43.0"},{"sim_score":1,"rt":5431,"stimulus":"[\"img/0866/8efcaa46-83ab-4dee-a35f-850402aa21ae.jpg\",\"img/0860/b03b963d-949b-4d8d-b19c-4950c89eeca2.jpg\"]","trial_type":"similarity","trial_index":50,"time_elapsed":436347,"internal_node_id":"0.0-6.0-44.0"},{"sim_score":5,"rt":5102,"stimulus":"[\"img/0766/e8052e17-9dae-4139-802b-6e590cb2d526.jpg\",\"img/0903/70d764d9-1f35-4da7-a35d-4cc39834d270.jpg\"]","trial_type":"similarity","trial_index":51,"time_elapsed":442459,"internal_node_id":"0.0-6.0-45.0"},{"sim_score":4,"rt":5316,"stimulus":"[\"img/0901/233a6948-48eb-4b67-8259-222b916b2322.jpg\",\"img/0904/5cceabc9-de1d-4c67-989b-c28a4ef77e79.jpg\"]","trial_type":"similarity","trial_index":52,"time_elapsed":448783,"internal_node_id":"0.0-6.0-46.0"},{"sim_score":3,"rt":4126,"stimulus":"[\"img/0758/b76ceca7-95ac-46e4-ac13-da02c8e93be9.jpg\",\"img/0902/e5a46bda-30d1-41ca-b36d-b8529b5a63d1.jpg\"]","trial_type":"similarity","trial_index":53,"time_elapsed":453920,"internal_node_id":"0.0-6.0-47.0"},{"sim_score":6,"rt":4787,"stimulus":"[\"img/0764/5d6fa3ce-9083-410c-bbdb-336a49b94cfc.jpg\",\"img/0764/ca957454-126a-4bd3-b29c-7174a24c25dc.jpg\"]","trial_type":"similarity","trial_index":54,"time_elapsed":459715,"internal_node_id":"0.0-6.0-48.0"},{"sim_score":3,"rt":5058,"stimulus":"[\"img/0866/d493a2c8-66eb-44b4-be02-2f327b700b7c.jpg\",\"img/0902/97022122-01e4-46c3-a34f-c6260ad28428.jpg\"]","trial_type":"similarity","trial_index":55,"time_elapsed":465783,"internal_node_id":"0.0-6.0-49.0"},{"sim_score":2,"rt":5365,"stimulus":"[\"img/0764/cbdc4f20-3a9a-4211-9b40-090699e0abcc.jpg\",\"img/0758/2fa3e613-e676-4e6e-bd12-705327eeb3e1.jpg\"]","trial_type":"similarity","trial_index":56,"time_elapsed":472155,"internal_node_id":"0.0-6.0-50.0"},{"sim_score":6,"rt":4111,"stimulus":"[\"img/0898/c3cecf20-f7fd-45fa-97d0-dc0a63e8d6c0.jpg\",\"img/0894/3664e04c-c6d3-4c9b-afb6-25d89974b174.jpg\"]","trial_type":"similarity","trial_index":57,"time_elapsed":477271,"internal_node_id":"0.0-6.0-51.0"},{"sim_score":5,"rt":7100,"stimulus":"[\"img/0875/fb732ab5-013a-4366-9f65-27811ed157e9.jpg\",\"img/0866/620cd1aa-0800-4414-8f6e-90342e7a99ad.jpg\"]","trial_type":"similarity","trial_index":58,"time_elapsed":485380,"internal_node_id":"0.0-6.0-52.0"},{"sim_score":7,"rt":6581,"stimulus":"[\"img/0904/e9423a8c-f946-43ad-ab7b-931acef870e2.jpg\",\"img/0904/9d30eff1-46ef-4453-b11e-124ef8145c00.jpg\"]","trial_type":"similarity","trial_index":59,"time_elapsed":492971,"internal_node_id":"0.0-6.0-53.0"},{"sim_score":7,"rt":5759,"stimulus":"[\"img/0769/878531fd-e0e8-4ad1-b9ad-f018bb104ca0.jpg\",\"img/0769/3adfa417-3b90-4aab-b437-5eaa474189cb.jpg\"]","trial_type":"similarity","trial_index":60,"time_elapsed":499739,"internal_node_id":"0.0-6.0-54.0"},{"sim_score":1,"rt":4366,"stimulus":"[\"img/0898/ec565187-2e31-4fdd-9a5c-153d0c789ae0.jpg\",\"img/0758/d540bee6-b460-4c32-ac57-bc282742d7d4.jpg\"]","trial_type":"similarity","trial_index":61,"time_elapsed":505115,"internal_node_id":"0.0-6.0-55.0"},{"sim_score":2,"rt":5059,"stimulus":"[\"img/0769/91acb237-65a3-4d0b-9748-af5c7b83d3c7.jpg\",\"img/0902/0c760cc9-10ac-429e-8957-a7d51fc99683.jpg\"]","trial_type":"similarity","trial_index":62,"time_elapsed":511181,"internal_node_id":"0.0-6.0-56.0"},{"sim_score":4,"rt":4561,"stimulus":"[\"img/0864/b3c4e378-28f0-4699-9338-2a257b4bca04.jpg\",\"img/0881/5fe04dd0-5c74-47b7-99c8-b068db9ca26a.jpg\"]","trial_type":"similarity","trial_index":63,"time_elapsed":516752,"internal_node_id":"0.0-6.0-57.0"},{"sim_score":2,"rt":7950,"stimulus":"[\"img/0758/53f35650-e455-4b53-8be4-c3c8271c6466.jpg\",\"img/0868/3a62db2d-97e9-44a3-b8e3-a48c6f0e423b.jpg\"]","trial_type":"similarity","trial_index":64,"time_elapsed":525712,"internal_node_id":"0.0-6.0-58.0"},{"sim_score":1,"rt":4891,"stimulus":"[\"img/0862/eefa5588-9efd-4591-aa5f-a2e17c7d7bcc.jpg\",\"img/0769/e8ed913b-8a88-44f6-9327-d34afec3116b.jpg\"]","trial_type":"similarity","trial_index":65,"time_elapsed":531615,"internal_node_id":"0.0-6.0-59.0"},{"sim_score":5,"rt":5091,"stimulus":"[\"img/0764/5c8fbafc-e62e-43ed-9b37-f73e8e45147d.jpg\",\"img/0903/647ce311-8c71-479a-8361-961db1457139.jpg\"]","trial_type":"similarity","trial_index":66,"time_elapsed":537716,"internal_node_id":"0.0-6.0-60.0"},{"sim_score":7,"rt":3713,"stimulus":"[\"img/0899/b45c550b-96c3-4255-ad59-48a2b4db1c1e.jpg\",\"img/0899/d60714ae-98d7-4564-8c98-94dba1351135.jpg\"]","trial_type":"similarity","trial_index":67,"time_elapsed":542440,"internal_node_id":"0.0-6.0-61.0"},{"sim_score":3,"rt":6502,"stimulus":"[\"img/0860/8277806e-b684-4474-8f7b-3fca946d7d4f.jpg\",\"img/0875/3ecb367d-e9eb-4826-8aaa-7aa72fb98019.jpg\"]","trial_type":"similarity","trial_index":68,"time_elapsed":549963,"internal_node_id":"0.0-6.0-62.0"},{"sim_score":1,"rt":5551,"stimulus":"[\"img/0868/d98ca254-b195-477f-b57e-5760a2717db8.jpg\",\"img/0874/767f289c-9814-4496-803f-745cc8913d1f.jpg\"]","trial_type":"similarity","trial_index":69,"time_elapsed":556521,"internal_node_id":"0.0-6.0-63.0"},{"sim_score":1,"rt":8196,"stimulus":"[\"img/0758/9fb5b2fe-3f00-4fe6-973c-1ce10d5f4cd5.jpg\",\"img/0862/57b6f83f-c763-4858-830d-102f97bfefbf.jpg\"]","trial_type":"similarity","trial_index":70,"time_elapsed":565729,"internal_node_id":"0.0-6.0-64.0"},{"sim_score":6,"rt":4335,"stimulus":"[\"img/0904/65e2b70a-b184-4da3-b5c0-5038bdf9469a.jpg\",\"img/0898/f3a3f225-1248-4ac7-b93b-f0ff28485bf3.jpg\"]","trial_type":"similarity","trial_index":71,"time_elapsed":571075,"internal_node_id":"0.0-6.0-65.0"},{"sim_score":3,"rt":6597,"stimulus":"[\"img/0881/ee44e27f-d662-4608-b265-e7ffa19b216f.jpg\",\"img/0866/a15b02be-11bb-43e3-b0e0-ecc3bd7dfc49.jpg\"]","trial_type":"similarity","trial_index":72,"time_elapsed":578682,"internal_node_id":"0.0-6.0-66.0"},{"sim_score":2,"rt":4972,"stimulus":"[\"img/0867/5e07b34d-b40f-4b1c-ac10-49975bace45f.jpg\",\"img/0898/a8f16b02-e19f-423b-86c3-a36562ae1f9b.jpg\"]","trial_type":"similarity","trial_index":73,"time_elapsed":584660,"internal_node_id":"0.0-6.0-67.0"},{"sim_score":5,"rt":5118,"stimulus":"[\"img/0902/7f1dcd35-237a-4995-9e42-7f63f3f434d4.jpg\",\"img/0764/bc3865c9-9004-4582-88a7-048478673f97.jpg\"]","trial_type":"similarity","trial_index":74,"time_elapsed":590787,"internal_node_id":"0.0-6.0-68.0"},{"sim_score":3,"rt":5805,"stimulus":"[\"img/0875/2c361b79-c3d1-4eda-812e-bf03192407bf.jpg\",\"img/0867/6e19c858-b606-45b2-a4c6-910a73f1d82c.jpg\"]","trial_type":"similarity","trial_index":75,"time_elapsed":597601,"internal_node_id":"0.0-6.0-69.0"},{"sim_score":6,"rt":7114,"stimulus":"[\"img/0766/110832e5-2646-4bd0-a94e-5df8cc314269.jpg\",\"img/0764/7f4ee8e3-9315-4a57-be7d-db8454b33766.jpg\"]","trial_type":"similarity","trial_index":76,"time_elapsed":605727,"internal_node_id":"0.0-6.0-70.0"},{"sim_score":5,"rt":9990,"stimulus":"[\"img/0894/e6385e52-6c35-43bd-b0af-bc803d107b11.jpg\",\"img/0867/a749dddb-69f0-44a6-acdc-2bf295cf6dcc.jpg\"]","trial_type":"similarity","trial_index":77,"time_elapsed":616726,"internal_node_id":"0.0-6.0-71.0"},{"sim_score":2,"rt":4931,"stimulus":"[\"img/0875/ebf7653f-ff45-4e9f-af58-2c042ab3cd2b.jpg\",\"img/0764/974d52cc-6318-4e7a-b294-2f3e92ff800f.jpg\"]","trial_type":"similarity","trial_index":78,"time_elapsed":622667,"internal_node_id":"0.0-6.0-72.0"},{"sim_score":4,"rt":3863,"stimulus":"[\"img/0867/1719a35d-f085-48c0-9099-16c94fe418b4.jpg\",\"img/0866/11a1d141-be5e-443c-98c1-a9d4d9e3dec0.jpg\"]","trial_type":"similarity","trial_index":79,"time_elapsed":627539,"internal_node_id":"0.0-6.0-73.0"},{"sim_score":1,"rt":4634,"stimulus":"[\"img/0903/8f7f9939-b8e6-433f-93dd-b362496c80a7.jpg\",\"img/0758/e1ba5e53-addc-436a-b428-d34fc1b130dc.jpg\"]","trial_type":"similarity","trial_index":80,"time_elapsed":633181,"internal_node_id":"0.0-6.0-74.0"},{"sim_score":1,"rt":7162,"stimulus":"[\"img/0766/27f54113-8561-4568-9ffe-0a1650ae65ec.jpg\",\"img/0868/7b212364-ff5f-4e28-9241-7eb6ea00161b.jpg\"]","trial_type":"similarity","trial_index":81,"time_elapsed":641349,"internal_node_id":"0.0-6.0-75.0"},{"sim_score":3,"rt":6625,"stimulus":"[\"img/0874/bf14b896-e930-4fd9-9c05-2e83317a2773.jpg\",\"img/0766/af3be95e-e52e-4fae-899b-0ff02ec340aa.jpg\"]","trial_type":"similarity","trial_index":82,"time_elapsed":648981,"internal_node_id":"0.0-6.0-76.0"},{"sim_score":3,"rt":4639,"stimulus":"[\"img/0881/e6746727-7f89-47ec-b939-d98abe78372d.jpg\",\"img/0868/c8ac40c7-6904-4e13-8d61-c75d3052dc4e.jpg\"]","trial_type":"similarity","trial_index":83,"time_elapsed":654631,"internal_node_id":"0.0-6.0-77.0"},{"sim_score":1,"rt":4635,"stimulus":"[\"img/0758/6cd8c362-ae2a-41eb-80a3-3a4f7ace1530.jpg\",\"img/0901/c6c877e0-dd63-4e00-9657-33af29d55aab.jpg\"]","trial_type":"similarity","trial_index":84,"time_elapsed":660275,"internal_node_id":"0.0-6.0-78.0"},{"sim_score":2,"rt":4850,"stimulus":"[\"img/0881/609a5e93-38b5-4940-8627-2bf8fad7f802.jpg\",\"img/0898/8605a25b-6895-476d-8c13-df7a83f96093.jpg\"]","trial_type":"similarity","trial_index":85,"time_elapsed":666135,"internal_node_id":"0.0-6.0-79.0"},{"sim_score":2,"rt":6589,"stimulus":"[\"img/0867/075e0f95-856b-4cbb-acf5-092393aaf04e.jpg\",\"img/0758/f61ecdf8-a7d4-4db0-b84d-be46f7cfaffc.jpg\"]","trial_type":"similarity","trial_index":86,"time_elapsed":673731,"internal_node_id":"0.0-6.0-80.0"},{"sim_score":5,"rt":5093,"stimulus":"[\"img/0769/35364db7-e0d5-40ef-93dc-faf9dfb95136.jpg\",\"img/0899/00715b3f-851b-420b-a26b-d7f79f7759a9.jpg\"]","trial_type":"similarity","trial_index":87,"time_elapsed":679832,"internal_node_id":"0.0-6.0-81.0"},{"sim_score":6,"rt":7736,"stimulus":"[\"img/0903/d987e220-f3e6-4b6d-a270-fe6757041f6d.jpg\",\"img/0903/a0673b55-6040-47fe-9040-24bca27ca3c9.jpg\"]","trial_type":"similarity","trial_index":88,"time_elapsed":688576,"internal_node_id":"0.0-6.0-82.0"},{"sim_score":1,"rt":5736,"stimulus":"[\"img/0867/f26f6b60-f772-4f4c-95a4-addc62cfd692.jpg\",\"img/0766/d5d38751-8fa5-476f-93e9-86ed2d9045ef.jpg\"]","trial_type":"similarity","trial_index":89,"time_elapsed":713266,"internal_node_id":"0.0-6.0-83.0"},{"sim_score":3,"rt":6312,"stimulus":"[\"img/0902/c018bd7a-d91a-4192-aea4-7259cfcdb6c4.jpg\",\"img/0867/db7e032f-162b-46f5-ae67-2b29679adee4.jpg\"]","trial_type":"similarity","trial_index":90,"time_elapsed":720589,"internal_node_id":"0.0-6.0-84.0"},{"sim_score":3,"rt":4522,"stimulus":"[\"img/0901/5b97abf9-f0c8-4fd1-b921-36d574779078.jpg\",\"img/0875/a4935837-7d3c-4df6-88c1-36a94d4991ca.jpg\"]","trial_type":"similarity","trial_index":91,"time_elapsed":726120,"internal_node_id":"0.0-6.0-85.0"},{"sim_score":4,"rt":5886,"stimulus":"[\"img/0764/713cc27e-2338-4486-bfe9-5f5725fbd7a0.jpg\",\"img/0866/6f2a90d7-14f1-4f1b-bd64-fc0af6b9fe44.jpg\"]","trial_type":"similarity","trial_index":92,"time_elapsed":733014,"internal_node_id":"0.0-6.0-86.0"},{"sim_score":5,"rt":4255,"stimulus":"[\"img/0901/04a53755-6da5-44d4-a7a6-48a6bc0a2280.jpg\",\"img/0894/a98416c0-51e2-4960-85da-d81d8688b9d5.jpg\"]","trial_type":"similarity","trial_index":93,"time_elapsed":738280,"internal_node_id":"0.0-6.0-87.0"},{"sim_score":6,"rt":5375,"stimulus":"[\"img/0898/cd3aaa3f-efa9-4ab3-8d6f-a6a9273ddf42.jpg\",\"img/0769/180213e5-1e50-4b4e-87b6-add77ba04d39.jpg\"]","trial_type":"similarity","trial_index":94,"time_elapsed":744662,"internal_node_id":"0.0-6.0-88.0"},{"sim_score":6,"rt":3853,"stimulus":"[\"img/0769/a3cfbdeb-acb3-4eac-87fb-4b117f42d4f8.jpg\",\"img/0894/9b1333fd-3561-43bf-aee5-99b7b7ca3dc3.jpg\"]","trial_type":"similarity","trial_index":95,"time_elapsed":749524,"internal_node_id":"0.0-6.0-89.0"},{"sim_score":4,"rt":4529,"stimulus":"[\"img/0862/24cdc752-c2e5-4a17-86a6-6f2045d8553b.jpg\",\"img/0874/8cdb1c07-1c32-46d2-981c-3636560fa6e5.jpg\"]","trial_type":"similarity","trial_index":96,"time_elapsed":755060,"internal_node_id":"0.0-6.0-90.0"},{"sim_score":3,"rt":5514,"stimulus":"[\"img/0894/2217bdcd-23a7-42d3-823b-23f2488d7e87.jpg\",\"img/0766/1bc0dccc-a5b5-4375-87fa-28360ca42b12.jpg\"]","trial_type":"similarity","trial_index":97,"time_elapsed":761582,"internal_node_id":"0.0-6.0-91.0"},{"sim_score":3,"rt":7228,"stimulus":"[\"img/0874/3ce41e7c-40c8-4d58-a546-171114521796.jpg\",\"img/0867/f8488a47-94ee-4166-952c-44e16cf172f6.jpg\"]","trial_type":"similarity","trial_index":98,"time_elapsed":769820,"internal_node_id":"0.0-6.0-92.0"},{"sim_score":1,"rt":4821,"stimulus":"[\"img/0899/0adc0bc3-6fca-4078-be6f-d45ddf1653d5.jpg\",\"img/0868/15dd6fd7-791e-4b53-b203-195d617521a4.jpg\"]","trial_type":"similarity","trial_index":99,"time_elapsed":775689,"internal_node_id":"0.0-6.0-93.0"},{"sim_score":2,"rt":5216,"stimulus":"[\"img/0903/36e4ab1f-caa9-40b3-8616-faada076df94.jpg\",\"img/0862/e8cc3bdf-cc43-4565-bccf-492626c70953.jpg\"]","trial_type":"similarity","trial_index":100,"time_elapsed":781916,"internal_node_id":"0.0-6.0-94.0"},{"sim_score":6,"rt":6020,"stimulus":"[\"img/0899/7b7380d5-d2be-44e5-a09a-c1756f87ef71.jpg\",\"img/0766/33aa9ebb-c9f5-418f-8c8b-c77861889568.jpg\"]","trial_type":"similarity","trial_index":101,"time_elapsed":788946,"internal_node_id":"0.0-6.0-95.0"},{"sim_score":7,"rt":6740,"stimulus":"[\"img/0867/12264664-1860-46df-8c21-162b9817cdda.jpg\",\"img/0868/4e626425-63c8-484a-8a1d-e66ee4e0bef8.jpg\"]","trial_type":"similarity","trial_index":102,"time_elapsed":796694,"internal_node_id":"0.0-6.0-96.0"},{"sim_score":3,"rt":5973,"stimulus":"[\"img/0862/47ed5efd-4ec9-4b74-bb4e-a5f5cf0c3e7d.jpg\",\"img/0901/4d1bed7e-3c4e-4f6c-ada9-4beb66ba9e39.jpg\"]","trial_type":"similarity","trial_index":103,"time_elapsed":803677,"internal_node_id":"0.0-6.0-97.0"},{"sim_score":2,"rt":4799,"stimulus":"[\"img/0875/8521fd58-3b1e-4dc5-97ae-804edfa6734a.jpg\",\"img/0766/a0270213-fa0e-4972-8b56-228c3e01ff90.jpg\"]","trial_type":"similarity","trial_index":104,"time_elapsed":809482,"internal_node_id":"0.0-6.0-98.0"},{"sim_score":4,"rt":5933,"stimulus":"[\"img/0758/ddc336e9-a8b6-4bb9-937a-c7e25e0e9250.jpg\",\"img/0874/3f471690-9788-4d03-90c7-f615aecef149.jpg\"]","trial_type":"similarity","trial_index":105,"time_elapsed":816430,"internal_node_id":"0.0-6.0-99.0"},{"sim_score":3,"rt":5052,"stimulus":"[\"img/0904/06dacdc5-2206-4fb8-92b7-88042d22833c.jpg\",\"img/0868/1a62b2b2-18f5-466e-b564-5176a57c565e.jpg\"]","trial_type":"similarity","trial_index":106,"time_elapsed":822492,"internal_node_id":"0.0-6.0-100.0"},{"sim_score":1,"rt":5865,"stimulus":"[\"img/0903/6138142e-c84e-45fc-9487-c974f3d4968a.jpg\",\"img/0866/d266fece-59b3-46fa-b69f-96f6efb81b59.jpg\"]","trial_type":"similarity","trial_index":107,"time_elapsed":829366,"internal_node_id":"0.0-6.0-101.0"},{"sim_score":2,"rt":4667,"stimulus":"[\"img/0868/8b0b8473-e2c0-4331-aa56-c3a5c29369da.jpg\",\"img/0769/7c50e5f5-cc38-4d48-b009-fbe17bcea61c.jpg\"]","trial_type":"similarity","trial_index":108,"time_elapsed":835040,"internal_node_id":"0.0-6.0-102.0"},{"sim_score":5,"rt":6575,"stimulus":"[\"img/0902/bd89a85f-3853-4786-acd6-98818ee29f1c.jpg\",\"img/0899/f58b8d2f-b19d-4b59-8b94-8834be92e4ba.jpg\"]","trial_type":"similarity","trial_index":109,"time_elapsed":842622,"internal_node_id":"0.0-6.0-103.0"},{"sim_score":3,"rt":5640,"stimulus":"[\"img/0868/293079b8-7e0c-4afd-a390-1e5d35fe3ded.jpg\",\"img/0862/92f0146c-20c4-482e-aef5-adb693790338.jpg\"]","trial_type":"similarity","trial_index":110,"time_elapsed":849271,"internal_node_id":"0.0-6.0-104.0"},{"sim_score":7,"rt":6979,"stimulus":"[\"img/0903/bf0a7d60-eca5-44b0-bafd-baf21db9904b.jpg\",\"img/0894/43216a7f-27bc-4b5a-8841-d122a30da9d9.jpg\"]","trial_type":"similarity","trial_index":111,"time_elapsed":857258,"internal_node_id":"0.0-6.0-105.0"},{"sim_score":1,"rt":5130,"stimulus":"[\"img/0864/9b2490c5-a282-400a-9736-e1a0ecbf1cb7.jpg\",\"img/0874/eba003b4-cdab-4eee-8bc3-f064c7d94165.jpg\"]","trial_type":"similarity","trial_index":112,"time_elapsed":863398,"internal_node_id":"0.0-6.0-106.0"},{"sim_score":3,"rt":5113,"stimulus":"[\"img/0862/ba89835a-408c-480b-8594-ed4ffa97eb5c.jpg\",\"img/0902/168ebd47-9e82-4ab7-a18b-c3da85072db8.jpg\"]","trial_type":"similarity","trial_index":113,"time_elapsed":869523,"internal_node_id":"0.0-6.0-107.0"},{"sim_score":7,"rt":5387,"stimulus":"[\"img/0904/1d10df11-b5c8-4370-9a6b-097a7f965895.jpg\",\"img/0903/71dbc325-b588-4297-a5cf-7f268a722ad9.jpg\"]","trial_type":"similarity","trial_index":114,"time_elapsed":875925,"internal_node_id":"0.0-6.0-108.0"},{"sim_score":2,"rt":4788,"stimulus":"[\"img/0764/4eff630a-6426-4f8d-b2ba-b4d9842a0962.jpg\",\"img/0864/87c467d3-abca-482f-ad80-3766c21b1bb3.jpg\"]","trial_type":"similarity","trial_index":115,"time_elapsed":881723,"internal_node_id":"0.0-6.0-109.0"},{"sim_score":4,"rt":4610,"stimulus":"[\"img/0866/07c9c966-3c8d-40e7-8128-92b2acbaed5d.jpg\",\"img/0894/38cf335f-f76f-4349-8d65-e20cd6859565.jpg\"]","trial_type":"similarity","trial_index":116,"time_elapsed":887343,"internal_node_id":"0.0-6.0-110.0"},{"sim_score":5,"rt":6089,"stimulus":"[\"img/0899/8abe6c69-822c-436c-9bf2-96c818b49ba5.jpg\",\"img/0903/8c358e9e-a4f4-466e-8b93-7aec0d2358e8.jpg\"]","trial_type":"similarity","trial_index":117,"time_elapsed":894445,"internal_node_id":"0.0-6.0-111.0"},{"sim_score":6,"rt":4605,"stimulus":"[\"img/0902/95a36b6b-9601-4fa5-8fd9-606ea62f9425.jpg\",\"img/0904/5aec2708-cf14-4a58-aa30-9a8a61c1be0e.jpg\"]","trial_type":"similarity","trial_index":118,"time_elapsed":900061,"internal_node_id":"0.0-6.0-112.0"},{"sim_score":3,"rt":5573,"stimulus":"[\"img/0864/0f537697-a314-47c3-a8cc-8df23b7e536c.jpg\",\"img/0860/18dfed73-e36b-4487-a8bd-0b8cff8e3668.jpg\"]","trial_type":"similarity","trial_index":119,"time_elapsed":906649,"internal_node_id":"0.0-6.0-113.0"},{"sim_score":1,"rt":4485,"stimulus":"[\"img/0860/c47fdead-eb02-4989-b078-26f4852f44fe.jpg\",\"img/0899/06b0fc99-0581-461a-9913-d1a5a941ac61.jpg\"]","trial_type":"similarity","trial_index":120,"time_elapsed":912144,"internal_node_id":"0.0-6.0-114.0"},{"sim_score":2,"rt":6485,"stimulus":"[\"img/0881/44e09805-5a25-4f17-a716-4ad4a331b174.jpg\",\"img/0903/5995f4a8-fa82-46f8-8760-fd7800a5ca34.jpg\"]","trial_type":"similarity","trial_index":121,"time_elapsed":919637,"internal_node_id":"0.0-6.0-115.0"},{"sim_score":3,"rt":8897,"stimulus":"[\"img/0894/7f2f31fd-6618-41c6-b65a-0fd8b2851bc9.jpg\",\"img/0874/adf9a8f1-c40b-402b-b95b-1e85a54a7b62.jpg\"]","trial_type":"similarity","trial_index":122,"time_elapsed":929544,"internal_node_id":"0.0-6.0-116.0"},{"sim_score":6,"rt":5137,"stimulus":"[\"img/0881/ed4c971f-0873-4fc8-b6d6-e8bbd82f0bcc.jpg\",\"img/0862/de9ad88c-b522-430a-8ee9-eb06a9f85df5.jpg\"]","trial_type":"similarity","trial_index":123,"time_elapsed":935692,"internal_node_id":"0.0-6.0-117.0"},{"sim_score":5,"rt":4030,"stimulus":"[\"img/0868/0d3abd3a-b6c3-4584-a9f7-e2da63748b3d.jpg\",\"img/0875/d59ff733-eaff-4ee2-9443-06954dd0bcb6.jpg\"]","trial_type":"similarity","trial_index":124,"time_elapsed":940733,"internal_node_id":"0.0-6.0-118.0"},{"sim_score":2,"rt":4133,"stimulus":"[\"img/0860/61fb959d-d4d9-4de4-9e4e-4fa62b4cfcd5.jpg\",\"img/0758/d41c06bf-ebaf-454b-91c6-1a17f917b659.jpg\"]","trial_type":"similarity","trial_index":125,"time_elapsed":945877,"internal_node_id":"0.0-6.0-119.0"},{"sim_score":4,"rt":4364,"stimulus":"[\"img/0864/300bb811-8b3c-4c42-8653-6097c3725197.jpg\",\"img/0875/f87b67d7-c33e-40d1-b281-248c4be1cb6e.jpg\"]","trial_type":"similarity","trial_index":126,"time_elapsed":951253,"internal_node_id":"0.0-6.0-120.0"},{"sim_score":4,"rt":9326,"stimulus":"[\"img/0898/08c72dac-f8ad-407a-9ce6-8c9a5d679c3a.jpg\",\"img/0866/4a87911a-d5be-4d4e-ab8e-3d1f581bf507.jpg\"]","trial_type":"similarity","trial_index":127,"time_elapsed":961588,"internal_node_id":"0.0-6.0-121.0"},{"sim_score":3,"rt":5166,"stimulus":"[\"img/0874/99f6563c-8a8d-4c1c-a41d-667b618c3fd5.jpg\",\"img/0904/56e73f28-7e64-489b-a161-e6b1a063878d.jpg\"]","trial_type":"similarity","trial_index":128,"time_elapsed":967758,"internal_node_id":"0.0-6.0-122.0"},{"sim_score":6,"rt":4499,"stimulus":"[\"img/0904/4b8daf2a-13a9-4ea9-9e0b-b265b6e933e7.jpg\",\"img/0864/ea327690-500b-4137-bf91-451b309fe6a5.jpg\"]","trial_type":"similarity","trial_index":129,"time_elapsed":973267,"internal_node_id":"0.0-6.0-123.0"},{"sim_score":5,"rt":5560,"stimulus":"[\"img/0894/05161000-f476-499b-a878-c13c7f347fd9.jpg\",\"img/0902/af40b98b-3d23-4d95-b401-49ba5783ce39.jpg\"]","trial_type":"similarity","trial_index":130,"time_elapsed":979836,"internal_node_id":"0.0-6.0-124.0"},{"sim_score":4,"rt":5447,"stimulus":"[\"img/0868/5fa7f9d0-f0e5-454c-8224-74d964818f56.jpg\",\"img/0864/f92649a2-0590-4d31-9a7a-1bfb81666a2d.jpg\"]","trial_type":"similarity","trial_index":131,"time_elapsed":996724,"internal_node_id":"0.0-6.0-125.0"},{"sim_score":4,"rt":5226,"stimulus":"[\"img/0899/66bf4113-ee12-426c-84d2-ea410b6c803e.jpg\",\"img/0866/93a27239-8317-4e08-98ca-d8b1ff298e07.jpg\"]","trial_type":"similarity","trial_index":132,"time_elapsed":1002957,"internal_node_id":"0.0-6.0-126.0"},{"sim_score":3,"rt":4772,"stimulus":"[\"img/0875/03c3c331-738b-4446-af92-3d7386b08c2e.jpg\",\"img/0904/73920552-103b-4c9c-9ece-e0b8376b4504.jpg\"]","trial_type":"similarity","trial_index":133,"time_elapsed":1008740,"internal_node_id":"0.0-6.0-127.0"},{"sim_score":2,"rt":3797,"stimulus":"[\"img/0867/c71dc569-f49c-4397-8381-68b8d726736d.jpg\",\"img/0899/4408c14d-c168-4a7d-96f6-bc87bfb58f83.jpg\"]","trial_type":"similarity","trial_index":134,"time_elapsed":1013548,"internal_node_id":"0.0-6.0-128.0"},{"sim_score":4,"rt":4835,"stimulus":"[\"img/0901/c6df1a21-44ed-47c2-960e-7c52220e329e.jpg\",\"img/0867/f8159067-056c-41f1-a136-c529fe5e970a.jpg\"]","trial_type":"similarity","trial_index":135,"time_elapsed":1019402,"internal_node_id":"0.0-6.0-129.0"},{"sim_score":3,"rt":5115,"stimulus":"[\"img/0864/0116ca98-293d-4fa6-a93b-5a6144ef64cc.jpg\",\"img/0769/f229321f-04dd-42d7-b14a-ffad6b509862.jpg\"]","trial_type":"similarity","trial_index":136,"time_elapsed":1025529,"internal_node_id":"0.0-6.0-130.0"},{"sim_score":2,"rt":4749,"stimulus":"[\"img/0903/07b445ee-0cdb-4d2c-a23b-d727613f4059.jpg\",\"img/0868/fd307a36-9a3a-47d7-ab7c-f810d0b35040.jpg\"]","trial_type":"similarity","trial_index":137,"time_elapsed":1031289,"internal_node_id":"0.0-6.0-131.0"},{"sim_score":1,"rt":6045,"stimulus":"[\"img/0864/5f74a653-3bdc-4308-8cca-ac667dc22e1f.jpg\",\"img/0867/50a1b60e-3a29-44bf-b606-d4bd3746fea9.jpg\"]","trial_type":"similarity","trial_index":138,"time_elapsed":1038342,"internal_node_id":"0.0-6.0-132.0"},{"sim_score":7,"rt":5974,"stimulus":"[\"img/0901/12da1841-e611-435c-9719-109413d536a8.jpg\",\"img/0860/9593362c-9fe5-4d12-9735-6000a11f6aa5.jpg\"]","trial_type":"similarity","trial_index":139,"time_elapsed":1045323,"internal_node_id":"0.0-6.0-133.0"},{"sim_score":3,"rt":4827,"stimulus":"[\"img/0881/f4e3e181-b3c9-4af2-a5a4-fc135ab70d2e.jpg\",\"img/0766/d14acac4-7db1-4b07-8f8f-302437326fc0.jpg\"]","trial_type":"similarity","trial_index":140,"time_elapsed":1051161,"internal_node_id":"0.0-6.0-134.0"},{"sim_score":2,"rt":6756,"stimulus":"[\"img/0903/72197c2b-403e-4a26-b391-f1aa8dea4b76.jpg\",\"img/0864/49150900-7f25-4ce8-8d10-9b47a71d1997.jpg\"]","trial_type":"similarity","trial_index":141,"time_elapsed":1058922,"internal_node_id":"0.0-6.0-135.0"},{"sim_score":3,"rt":4195,"stimulus":"[\"img/0758/7fba58df-2a7a-4b76-8a8f-62739f97f271.jpg\",\"img/0894/e5edf723-72a5-4673-8441-6c1734a8929b.jpg\"]","trial_type":"similarity","trial_index":142,"time_elapsed":1064122,"internal_node_id":"0.0-6.0-136.0"},{"sim_score":3,"rt":5207,"stimulus":"[\"img/0769/8598a429-c671-4d2f-842c-32f681f5e412.jpg\",\"img/0860/99c589b9-9140-4d17-90c0-b344323edcda.jpg\"]","trial_type":"similarity","trial_index":143,"time_elapsed":1070341,"internal_node_id":"0.0-6.0-137.0"},{"sim_score":6,"rt":4717,"stimulus":"[\"img/0904/2fd488e9-960f-41f7-8a44-33375f7d5051.jpg\",\"img/0766/db750ba0-ce04-46e1-b601-e1b80212bad2.jpg\"]","trial_type":"similarity","trial_index":144,"time_elapsed":1076069,"internal_node_id":"0.0-6.0-138.0"},{"sim_score":5,"rt":6175,"stimulus":"[\"img/0868/e0aff734-077f-40dd-9781-74821abd3621.jpg\",\"img/0860/e14d67c1-6d92-4f1e-9257-c8607159c19c.jpg\"]","trial_type":"similarity","trial_index":145,"time_elapsed":1083251,"internal_node_id":"0.0-6.0-139.0"},{"sim_score":6,"rt":4248,"stimulus":"[\"img/0758/67c0be2f-9e91-48b3-8219-70ac0a1802fa.jpg\",\"img/0864/65210d57-1153-4657-886a-32e758f49b4a.jpg\"]","trial_type":"similarity","trial_index":146,"time_elapsed":1088508,"internal_node_id":"0.0-6.0-140.0"},{"sim_score":7,"rt":3986,"stimulus":"[\"img/0867/98d8cd96-1476-4fe0-a3a3-04f875500a1b.jpg\",\"img/0867/179ab87a-8eac-4c52-a41f-2e48e3120f09.jpg\"]","trial_type":"similarity","trial_index":147,"time_elapsed":1093502,"internal_node_id":"0.0-6.0-141.0"},{"sim_score":7,"rt":6939,"stimulus":"[\"img/0898/661621d4-a14e-487c-8c74-354134a29710.jpg\",\"img/0898/224c1572-56b9-4f16-a9e4-6f3bc9c114bd.jpg\"]","trial_type":"similarity","trial_index":148,"time_elapsed":1101450,"internal_node_id":"0.0-6.0-142.0"},{"sim_score":5,"rt":4757,"stimulus":"[\"img/0866/0207e9a2-7dbb-40b5-9459-b472aaeceb2a.jpg\",\"img/0769/75f7e514-0548-4329-b1e4-93c05e74f038.jpg\"]","trial_type":"similarity","trial_index":149,"time_elapsed":1107214,"internal_node_id":"0.0-6.0-143.0"},{"sim_score":3,"rt":5163,"stimulus":"[\"img/0860/e8b8c51e-1834-4875-8b61-6c5bc9b178bd.jpg\",\"img/0898/04e39a7a-fcf6-4156-ab0e-f5871f335e1c.jpg\"]","trial_type":"similarity","trial_index":150,"time_elapsed":1113387,"internal_node_id":"0.0-6.0-144.0"},{"sim_score":2,"rt":12540,"stimulus":"[\"img/0766/535849cc-ff5d-4df9-8f31-0ce94a97d571.jpg\",\"img/0864/a248adb3-c70b-4652-b7a3-776d2a1e904b.jpg\"]","trial_type":"similarity","trial_index":151,"time_elapsed":1126934,"internal_node_id":"0.0-6.0-145.0"},{"sim_score":3,"rt":6150,"stimulus":"[\"img/0860/87039971-2210-4aab-93c0-8e9b5f1655b2.jpg\",\"img/0903/31b5a5f4-b695-4af1-bad2-a19650a05498.jpg\"]","trial_type":"similarity","trial_index":152,"time_elapsed":1134094,"internal_node_id":"0.0-6.0-146.0"},{"sim_score":3,"rt":7489,"stimulus":"[\"img/0867/85a96c62-548f-4994-9553-819e03c3135a.jpg\",\"img/0764/ca9829fe-aaf8-45b8-b98a-6bae751c63dd.jpg\"]","trial_type":"similarity","trial_index":153,"time_elapsed":1142595,"internal_node_id":"0.0-6.0-147.0"},{"sim_score":6,"rt":4550,"stimulus":"[\"img/0769/688d0c52-ad73-4065-a5eb-f8c10d076bff.jpg\",\"img/0904/0d25eb24-bb20-4e8d-9787-8b489558b4cb.jpg\"]","trial_type":"similarity","trial_index":154,"time_elapsed":1148153,"internal_node_id":"0.0-6.0-148.0"},{"sim_score":2,"rt":5943,"stimulus":"[\"img/0764/06ea144f-f4f3-4a14-ba47-f20f35c561e0.jpg\",\"img/0901/7c16dd9c-44ad-4d5b-990c-6a0b9b48b1b1.jpg\"]","trial_type":"similarity","trial_index":155,"time_elapsed":1155100,"internal_node_id":"0.0-6.0-149.0"},{"sim_score":3,"rt":5855,"stimulus":"[\"img/0904/96e503ea-6630-4996-85f2-0237688ce441.jpg\",\"img/0899/56a605c3-d0a2-4215-89e1-779279d85a7c.jpg\"]","trial_type":"similarity","trial_index":156,"time_elapsed":1161963,"internal_node_id":"0.0-6.0-150.0"},{"sim_score":4,"rt":5524,"stimulus":"[\"img/0862/ee3b7bff-4a70-4e84-9bea-4a565e456acb.jpg\",\"img/0867/7d1c497b-c1b3-4ed8-abb5-d7f73306015f.jpg\"]","trial_type":"similarity","trial_index":157,"time_elapsed":1168498,"internal_node_id":"0.0-6.0-151.0"},{"sim_score":7,"rt":3852,"stimulus":"[\"img/0766/f011ef45-fb48-44b8-8224-867ed2ccf786.jpg\",\"img/0766/006035d8-c736-4daf-bbe4-a9e373af9da6.jpg\"]","trial_type":"similarity","trial_index":158,"time_elapsed":1173359,"internal_node_id":"0.0-6.0-152.0"},{"sim_score":3,"rt":6130,"stimulus":"[\"img/0862/99a99e39-8355-44ec-b993-e7bcec111e1c.jpg\",\"img/0894/767a0eec-1064-46b1-b1aa-dfa02b0cd74e.jpg\"]","trial_type":"similarity","trial_index":159,"time_elapsed":1180502,"internal_node_id":"0.0-6.0-153.0"},{"sim_score":1,"rt":5419,"stimulus":"[\"img/0899/a05bea16-2bb4-4cb9-b8fb-4ff975db6971.jpg\",\"img/0901/deff6cfb-0072-4490-bc3e-206bbcd3e8bf.jpg\"]","trial_type":"similarity","trial_index":160,"time_elapsed":1186929,"internal_node_id":"0.0-6.0-154.0"},{"sim_score":7,"rt":4706,"stimulus":"[\"img/0874/a3bc679d-619f-4db6-bb68-116dcb757d9c.jpg\",\"img/0874/ca76a855-4e77-4f2f-872a-0a718153e7ed.jpg\"]","trial_type":"similarity","trial_index":161,"time_elapsed":1192646,"internal_node_id":"0.0-6.0-155.0"},{"sim_score":6,"rt":4941,"stimulus":"[\"img/0860/71e1aad0-2cdf-43bb-94a4-a8c016997c30.jpg\",\"img/0867/26611f4e-d694-4460-b7e2-43c62753ddc3.jpg\"]","trial_type":"similarity","trial_index":162,"time_elapsed":1198593,"internal_node_id":"0.0-6.0-156.0"},{"sim_score":2,"rt":4631,"stimulus":"[\"img/0901/da4fe30f-d12a-491e-96a2-5ab8ebaadd09.jpg\",\"img/0881/f6bd3b96-dc40-4e99-8681-bc3a35cf896d.jpg\"]","trial_type":"similarity","trial_index":163,"time_elapsed":1204228,"internal_node_id":"0.0-6.0-157.0"},{"sim_score":6,"rt":5225,"stimulus":"[\"img/0903/2c7b4aed-6038-4aac-958a-e3e58341c313.jpg\",\"img/0902/01b41522-de46-4c3a-b0af-a61b2682b40e.jpg\"]","trial_type":"similarity","trial_index":164,"time_elapsed":1210460,"internal_node_id":"0.0-6.0-158.0"},{"sim_score":3,"rt":4837,"stimulus":"[\"img/0860/8a92e21b-6a32-4e4a-a445-2d5a487ed0a4.jpg\",\"img/0764/62fafeea-6274-48ce-976f-35d3d3484c65.jpg\"]","trial_type":"similarity","trial_index":165,"time_elapsed":1216307,"internal_node_id":"0.0-6.0-159.0"},{"sim_score":3,"rt":5267,"stimulus":"[\"img/0902/27b84584-948a-485b-8749-cb09929ef631.jpg\",\"img/0875/90da8d75-108a-44ad-b999-e21fee3860d3.jpg\"]","trial_type":"similarity","trial_index":166,"time_elapsed":1222581,"internal_node_id":"0.0-6.0-160.0"},{"sim_score":4,"rt":5167,"stimulus":"[\"img/0898/b2732712-71c2-45d8-834f-2b2ed5504910.jpg\",\"img/0862/e0f1a4e9-e1b6-45f7-af67-89f334e6630d.jpg\"]","trial_type":"similarity","trial_index":167,"time_elapsed":1228759,"internal_node_id":"0.0-6.0-161.0"},{"sim_score":3,"rt":6110,"stimulus":"[\"img/0894/10f22b96-040c-44f4-950b-a4963f3f506c.jpg\",\"img/0875/5a1e5100-0d94-4fec-bbe9-ca9894d2cf8e.jpg\"]","trial_type":"similarity","trial_index":168,"time_elapsed":1235876,"internal_node_id":"0.0-6.0-162.0"},{"sim_score":4,"rt":4764,"stimulus":"[\"img/0866/c446214b-a368-4c65-ae39-ea46894256ab.jpg\",\"img/0864/1d15626a-2f7c-410f-819c-0fa2c967e95e.jpg\"]","trial_type":"similarity","trial_index":169,"time_elapsed":1241647,"internal_node_id":"0.0-6.0-163.0"},{"sim_score":3,"rt":5624,"stimulus":"[\"img/0766/d512b99c-a2dc-40d7-8e86-827323a0cbcf.jpg\",\"img/0862/f188d4f0-76a4-4102-818c-a209969d73a5.jpg\"]","trial_type":"similarity","trial_index":170,"time_elapsed":1248283,"internal_node_id":"0.0-6.0-164.0"},{"sim_score":5,"rt":5344,"stimulus":"[\"img/0866/02f5e6b9-52b7-448c-9708-5b460d0c9a23.jpg\",\"img/0874/85eb9b8a-c4c6-4e5a-b8e7-363a87a82054.jpg\"]","trial_type":"similarity","trial_index":171,"time_elapsed":1254635,"internal_node_id":"0.0-6.0-165.0"},{"sim_score":4,"rt":5946,"stimulus":"[\"img/0862/d0ca4c78-fc35-46ed-bdcc-8e124283c53e.jpg\",\"img/0860/8fdba999-b946-4c7d-9891-336018b563ef.jpg\"]","trial_type":"similarity","trial_index":172,"time_elapsed":1261590,"internal_node_id":"0.0-6.0-166.0"},{"sim_score":2,"rt":7249,"stimulus":"[\"img/0766/00891401-e4c9-4ce1-bc19-f70740d174bc.jpg\",\"img/0901/875dedb9-24c9-4443-9f8c-85e97d70ee5a.jpg\"]","trial_type":"similarity","trial_index":173,"time_elapsed":1290468,"internal_node_id":"0.0-6.0-167.0"},{"sim_score":7,"rt":6533,"stimulus":"[\"img/0862/fad1d7c1-8187-43c3-942a-0fc12183e48e.jpg\",\"img/0862/064818ee-13d5-4618-bb24-21c7368ea278.jpg\"]","trial_type":"similarity","trial_index":174,"time_elapsed":1298008,"internal_node_id":"0.0-6.0-168.0"},{"sim_score":5,"rt":5074,"stimulus":"[\"img/0894/5a49e858-2850-4892-9a06-e9f0efb5f94d.jpg\",\"img/0764/f64dfa83-333d-494c-87b5-73e942f1766e.jpg\"]","trial_type":"similarity","trial_index":175,"time_elapsed":1304097,"internal_node_id":"0.0-6.0-169.0"},{"sim_score":6,"rt":6383,"stimulus":"[\"img/0874/c0378dac-9370-439a-8b79-db27c96fb390.jpg\",\"img/0898/26c41340-15bd-4ead-8fe4-c0d0ddca09c2.jpg\"]","trial_type":"similarity","trial_index":176,"time_elapsed":1311485,"internal_node_id":"0.0-6.0-170.0"},{"sim_score":3,"rt":13159,"stimulus":"[\"img/0860/702bd09d-df3a-40aa-a267-5f04474305b5.jpg\",\"img/0766/d50d734f-285c-4840-bc7a-c8dd4aff391e.jpg\"]","trial_type":"similarity","trial_index":177,"time_elapsed":1325653,"internal_node_id":"0.0-6.0-171.0"},{"sim_score":3,"rt":5132,"stimulus":"[\"img/0898/79233891-305a-4a6a-8ddf-5c8604858203.jpg\",\"img/0864/3d4de670-b290-4285-9c3d-12a0e3af44e9.jpg\"]","trial_type":"similarity","trial_index":178,"time_elapsed":1331792,"internal_node_id":"0.0-6.0-172.0"},{"sim_score":5,"rt":5260,"stimulus":"[\"img/0881/4da99fdd-1f40-4bbb-8e21-8833eef313f5.jpg\",\"img/0764/1def7b22-b054-4ec2-860b-73d25691823b.jpg\"]","trial_type":"similarity","trial_index":179,"time_elapsed":1338059,"internal_node_id":"0.0-6.0-173.0"},{"sim_score":3,"rt":4849,"stimulus":"[\"img/0898/881e2a85-d5c2-49be-a0c6-8a6ce2c4af08.jpg\",\"img/0868/77091fc7-a590-4ebb-b915-fdb2483a2399.jpg\"]","trial_type":"similarity","trial_index":180,"time_elapsed":1343914,"internal_node_id":"0.0-6.0-174.0"},{"sim_score":6,"rt":5219,"stimulus":"[\"img/0864/1ebbc554-99fa-49f9-8799-317375a79820.jpg\",\"img/0864/e02eddb5-f468-499c-91bf-f7be3ffe979b.jpg\"]","trial_type":"similarity","trial_index":181,"time_elapsed":1350141,"internal_node_id":"0.0-6.0-175.0"},{"sim_score":3,"rt":7191,"stimulus":"[\"img/0899/a048912c-b12c-40e3-90af-46b69b0cc4fe.jpg\",\"img/0862/00c06b00-3b73-44e9-bc1e-c5aafb438321.jpg\"]","trial_type":"similarity","trial_index":182,"time_elapsed":1358342,"internal_node_id":"0.0-6.0-176.0"},{"sim_score":1,"rt":5223,"stimulus":"[\"img/0875/2e13d160-eea1-416b-aff1-d37ab99ecc1d.jpg\",\"img/0758/a085b443-b5d7-4cb2-9ad4-b9dab0fc23f1.jpg\"]","trial_type":"similarity","trial_index":183,"time_elapsed":1364572,"internal_node_id":"0.0-6.0-177.0"},{"sim_score":1,"rt":5332,"stimulus":"[\"img/0866/be24ab58-230e-4db8-9f45-ff04c9aec6bb.jpg\",\"img/0901/62315ff5-ed95-46b4-b099-92552079659b.jpg\"]","trial_type":"similarity","trial_index":184,"time_elapsed":1370918,"internal_node_id":"0.0-6.0-178.0"},{"sim_score":3,"rt":6386,"stimulus":"[\"img/0769/3c1203c5-2ce7-466e-957a-8d77b5905460.jpg\",\"img/0874/31e22c7c-99aa-40b1-bf03-dd73fa2df4d6.jpg\"]","trial_type":"similarity","trial_index":185,"time_elapsed":1378316,"internal_node_id":"0.0-6.0-179.0"},{"sim_score":2,"rt":9429,"stimulus":"[\"img/0875/99698b4d-b4a1-44bc-8c83-8ea755bbbf61.jpg\",\"img/0881/c843e210-bdfe-4a7c-8bbe-fcea1f90fe1c.jpg\"]","trial_type":"similarity","trial_index":186,"time_elapsed":1388751,"internal_node_id":"0.0-6.0-180.0"},{"sim_score":5,"rt":6688,"stimulus":"[\"img/0866/386235d2-6857-41e7-88a8-25cfc3430025.jpg\",\"img/0868/83b4350a-3b70-4cea-b7f5-b5b56f3050a8.jpg\"]","trial_type":"similarity","trial_index":187,"time_elapsed":1396446,"internal_node_id":"0.0-6.0-181.0"},{"sim_score":3,"rt":7484,"stimulus":"[\"img/0899/ad8268c5-8199-48d0-ad70-c5b6d6c599ec.jpg\",\"img/0758/dd559618-7f09-4a07-8018-d311c4a5ea29.jpg\"]","trial_type":"similarity","trial_index":188,"time_elapsed":1404940,"internal_node_id":"0.0-6.0-182.0"},{"sim_score":3,"rt":7210,"stimulus":"[\"img/0874/93d1f8dc-acf2-4f03-bd8d-8ec35df276ed.jpg\",\"img/0875/34132396-d896-4c2d-8087-646dd867e769.jpg\"]","trial_type":"similarity","trial_index":189,"time_elapsed":1413158,"internal_node_id":"0.0-6.0-183.0"},{"sim_score":2,"rt":8134,"stimulus":"[\"img/0904/25365108-e038-4021-aac9-797f2063b337.jpg\",\"img/0862/cdaed51d-9e2f-4807-801a-4663c40077e2.jpg\"]","trial_type":"similarity","trial_index":190,"time_elapsed":1422301,"internal_node_id":"0.0-6.0-184.0"},{"sim_score":6,"rt":6162,"stimulus":"[\"img/0902/3b243e54-0803-4c29-af42-4037c2118495.jpg\",\"img/0766/ef3b15ce-abb7-4292-ad93-aec8e8b50520.jpg\"]","trial_type":"similarity","trial_index":191,"time_elapsed":1429474,"internal_node_id":"0.0-6.0-185.0"},{"sim_score":4,"rt":4237,"stimulus":"[\"img/0758/a709631e-3705-4725-ac40-f0d916924f08.jpg\",\"img/0769/b664b502-a86c-46c1-ad6f-5ebffc2e1bd3.jpg\"]","trial_type":"similarity","trial_index":192,"time_elapsed":1434721,"internal_node_id":"0.0-6.0-186.0"},{"sim_score":7,"rt":3708,"stimulus":"[\"img/0881/4bd34581-94d8-4e88-8c89-5cef864ca3be.jpg\",\"img/0881/7e822106-76f7-4b10-a805-14dc68b2cfaf.jpg\"]","trial_type":"similarity","trial_index":193,"time_elapsed":1439440,"internal_node_id":"0.0-6.0-187.0"},{"sim_score":4,"rt":4179,"stimulus":"[\"img/0758/e38fd80d-18d0-42f3-b848-f930788e8bd7.jpg\",\"img/0866/9b38d691-1802-4959-ab3f-fc902f0e4ea6.jpg\"]","trial_type":"similarity","trial_index":194,"time_elapsed":1444629,"internal_node_id":"0.0-6.0-188.0"},{"sim_score":5,"rt":4733,"stimulus":"[\"img/0764/c80b3e06-2ee3-4326-9678-340607eb5348.jpg\",\"img/0898/0af304a2-6a7a-4082-ab7c-4450cd08cc58.jpg\"]","trial_type":"similarity","trial_index":195,"time_elapsed":1450370,"internal_node_id":"0.0-6.0-189.0"},{"sim_score":4,"rt":5373,"stimulus":"[\"img/0903/5248eedd-7e6a-4d39-91b0-06ec227f3ed0.jpg\",\"img/0901/b453df0b-4c39-49bb-8ced-6127efffa898.jpg\"]","trial_type":"similarity","trial_index":196,"time_elapsed":1456748,"internal_node_id":"0.0-6.0-190.0"},{"sim_score":7,"rt":3863,"stimulus":"[\"img/0902/6c2c243a-f663-45db-baf5-038d3d58c589.jpg\",\"img/0898/a114b375-cb89-44ba-9498-74213f1ecdee.jpg\"]","trial_type":"similarity","trial_index":197,"time_elapsed":1461618,"internal_node_id":"0.0-6.0-191.0"},{"sim_score":2,"rt":4569,"stimulus":"[\"img/0864/afcba0a3-7e27-4757-b254-e9f05fad27e2.jpg\",\"img/0901/f469cb1d-6d81-4a45-bab5-cd0b650c2b4f.jpg\"]","trial_type":"similarity","trial_index":198,"time_elapsed":1467199,"internal_node_id":"0.0-6.0-192.0"},{"sim_score":4,"rt":5882,"stimulus":"[\"img/0894/792c83e9-a747-4000-bc72-5663d2439edb.jpg\",\"img/0881/48ed65a5-471f-41af-86ec-3793805c116d.jpg\"]","trial_type":"similarity","trial_index":199,"time_elapsed":1474088,"internal_node_id":"0.0-6.0-193.0"},{"sim_score":4,"rt":1280,"stimulus":"[\"img/0868/d6d1f30d-4323-435a-b194-7892521bc57e.jpg\",\"img/0868/179a5502-ab5c-478e-8263-5a1fbcc101d2.jpg\"]","trial_type":"similarity","trial_index":200,"time_elapsed":1476382,"internal_node_id":"0.0-6.0-194.0"},{"sim_score":5,"rt":8672,"stimulus":"[\"img/0899/f95cbdb4-f804-4f5d-ad76-373ad343e658.jpg\",\"img/0764/5d83b9db-3b2b-4dc8-9bd1-2b515b19c858.jpg\"]","trial_type":"similarity","trial_index":201,"time_elapsed":1486061,"internal_node_id":"0.0-6.0-195.0"},{"sim_score":2,"rt":4326,"stimulus":"[\"img/0881/dea58fad-b4f1-41d9-bd3f-916eff19a3fd.jpg\",\"img/0904/6291eb43-c10c-4810-a36a-101d09868b04.jpg\"]","trial_type":"similarity","trial_index":202,"time_elapsed":1491398,"internal_node_id":"0.0-6.0-196.0"},{"sim_score":4,"rt":8901,"stimulus":"[\"img/0864/6e846d43-94a6-4b37-a268-65eda979f052.jpg\",\"img/0902/c9c74d2d-9b82-42d7-a9d0-3b8ff67ff81e.jpg\"]","trial_type":"similarity","trial_index":203,"time_elapsed":1501307,"internal_node_id":"0.0-6.0-197.0"},{"sim_score":4,"rt":5556,"stimulus":"[\"img/0894/661b9f9f-4bde-487a-b1ed-87085fde6948.jpg\",\"img/0904/696ebb60-8891-417a-91fd-c53218907a95.jpg\"]","trial_type":"similarity","trial_index":204,"time_elapsed":1507872,"internal_node_id":"0.0-6.0-198.0"},{"sim_score":7,"rt":3358,"stimulus":"[\"img/0901/5657dd86-0ff9-4753-ba2b-9dfb223e5c89.jpg\",\"img/0901/548d1110-7cb8-42a2-9927-9798875c8b5c.jpg\"]","trial_type":"similarity","trial_index":205,"time_elapsed":1512238,"internal_node_id":"0.0-6.0-199.0"},{"sim_score":3,"rt":4468,"stimulus":"[\"img/0894/133a1636-d123-4893-873c-1718050f832a.jpg\",\"img/0860/4f695df5-afac-4da7-9875-fee39b0b24ad.jpg\"]","trial_type":"similarity","trial_index":206,"time_elapsed":1517711,"internal_node_id":"0.0-6.0-200.0"},{"sim_score":6,"rt":3113,"stimulus":"[\"img/0898/5f699581-3853-4547-856c-12f419ba5af7.jpg\",\"img/0903/f67c4ab9-f8c2-4fcd-848a-a54a7b031002.jpg\"]","trial_type":"similarity","trial_index":207,"time_elapsed":1521834,"internal_node_id":"0.0-6.0-201.0"},{"sim_score":2,"rt":4532,"stimulus":"[\"img/0864/da39ad34-04e0-40d4-a724-c08d53e0ea09.jpg\",\"img/0894/5ff3c4f6-52e2-4075-8679-be0312e59703.jpg\"]","trial_type":"similarity","trial_index":208,"time_elapsed":1527377,"internal_node_id":"0.0-6.0-202.0"},{"sim_score":1,"rt":5033,"stimulus":"[\"img/0874/29830da7-be5f-44e5-b141-652a0ccf7269.jpg\",\"img/0860/f44ba3fb-03a2-42f0-8509-2c1ded493086.jpg\"]","trial_type":"similarity","trial_index":209,"time_elapsed":1533419,"internal_node_id":"0.0-6.0-203.0"},{"sim_score":2,"rt":4774,"stimulus":"[\"img/0862/fb26cb07-d5a9-4653-813c-f41609f26cd5.jpg\",\"img/0875/5a716432-c6ca-4b1c-955a-2b8ac25198ee.jpg\"]","trial_type":"similarity","trial_index":210,"time_elapsed":1539198,"internal_node_id":"0.0-6.0-204.0"},{"sim_score":1,"rt":4592,"stimulus":"[\"img/0867/ac1797e4-8afc-48fe-b252-86d1defb1cca.jpg\",\"img/0881/292e9b4b-fca0-4ba8-87f1-4048f9e37b7d.jpg\"]","trial_type":"similarity","trial_index":211,"time_elapsed":1544802,"internal_node_id":"0.0-6.0-205.0"},{"sim_score":5,"rt":4021,"stimulus":"[\"img/0901/1ede21d9-384f-4150-86b5-e1c57b5dc1d4.jpg\",\"img/0902/cf9dee9c-2bdf-4d64-9302-97f1660fe52c.jpg\"]","trial_type":"similarity","trial_index":212,"time_elapsed":1549829,"internal_node_id":"0.0-6.0-206.0"},{"sim_score":2,"rt":5109,"stimulus":"[\"img/0899/66ab3178-c3fe-4455-ad17-d5952b08e018.jpg\",\"img/0864/4bd81bc6-c13d-46df-95a9-485886dc7c1b.jpg\"]","trial_type":"similarity","trial_index":213,"time_elapsed":1555944,"internal_node_id":"0.0-6.0-207.0"},{"sim_score":5,"rt":6745,"stimulus":"[\"img/0901/a6c90438-fa7c-4418-ac7c-16c2e772dd98.jpg\",\"img/0769/38a88f69-28fd-4bbd-99f0-f4c02bfd3995.jpg\"]","trial_type":"similarity","trial_index":214,"time_elapsed":1563697,"internal_node_id":"0.0-6.0-208.0"},{"sim_score":6,"rt":5050,"stimulus":"[\"img/0902/d5e25767-e8ec-45f3-ac0a-7b4a6f7a9edc.jpg\",\"img/0902/b03129ba-b087-4558-af37-e8399d6217d6.jpg\"]","trial_type":"similarity","trial_index":215,"time_elapsed":1584271,"internal_node_id":"0.0-6.0-209.0"},{"view_history":"[{\"page_index\":0,\"viewing_time\":8009}]","rt":8010,"trial_type":"instructions","trial_index":216,"time_elapsed":1593283,"internal_node_id":"0.0-7.0"},{"rt":47623,"responses":"{\"Q0\":\"Orange-crowned Warbler\"}","answer":["Nashville Warbler"],"trial_type":"image-multi-choice","trial_index":217,"time_elapsed":1641953,"internal_node_id":"0.0-8.0-0.0"},{"rt":13594,"responses":"{\"Q0\":\"Blackburnian Warbler\"}","answer":["Black-and-white Warbler"],"trial_type":"image-multi-choice","trial_index":218,"time_elapsed":1656576,"internal_node_id":"0.0-8.0-1.0"},{"rt":12457,"responses":"{\"Q0\":\"Black-and-white Warbler\"}","answer":["Townsend's Warbler"],"trial_type":"image-multi-choice","trial_index":219,"time_elapsed":1670059,"internal_node_id":"0.0-8.0-2.0"},{"rt":10835,"responses":"{\"Q0\":\"Lark Sparrow\"}","answer":["Lark Sparrow"],"trial_type":"image-multi-choice","trial_index":220,"time_elapsed":1681921,"internal_node_id":"0.0-8.0-3.0"},{"rt":6519,"responses":"{\"Q0\":\"Yellow Warbler\"}","answer":["Yellow Warbler"],"trial_type":"image-multi-choice","trial_index":221,"time_elapsed":1689470,"internal_node_id":"0.0-8.0-4.0"},{"rt":49945,"responses":"{\"Q0\":\"Townsend's Warbler\"}","answer":["Orange-crowned Warbler"],"trial_type":"image-multi-choice","trial_index":222,"time_elapsed":1740426,"internal_node_id":"0.0-8.0-5.0"},{"rt":7808,"responses":"{\"Q0\":\"White-throated Sparrow\"}","answer":["White-throated Sparrow"],"trial_type":"image-multi-choice","trial_index":223,"time_elapsed":1749258,"internal_node_id":"0.0-8.0-6.0"},{"rt":14352,"responses":"{\"Q0\":\"Fox Sparrow\"}","answer":["Fox Sparrow"],"trial_type":"image-multi-choice","trial_index":224,"time_elapsed":1764626,"internal_node_id":"0.0-8.0-7.0"},{"rt":38175,"responses":"{\"Q0\":\"Song Sparrow\"}","answer":["Song Sparrow"],"trial_type":"image-multi-choice","trial_index":225,"time_elapsed":1803825,"internal_node_id":"0.0-8.0-8.0"},{"rt":19673,"responses":"{\"Q0\":\"Magnolia Warbler\"}","answer":["Blackburnian Warbler"],"trial_type":"image-multi-choice","trial_index":226,"time_elapsed":1824529,"internal_node_id":"0.0-8.0-9.0"},{"rt":28171,"responses":"{\"Q0\":\"Lincoln's Sparrow\"}","answer":["Vesper Sparrow"],"trial_type":"image-multi-choice","trial_index":227,"time_elapsed":1853736,"internal_node_id":"0.0-8.0-10.0"},{"rt":5147,"responses":"{\"Q0\":\"White-crowned Sparrow\"}","answer":["White-crowned Sparrow"],"trial_type":"image-multi-choice","trial_index":228,"time_elapsed":1859907,"internal_node_id":"0.0-8.0-11.0"},{"rt":8872,"responses":"{\"Q0\":\"Chipping Sparrow\"}","answer":["American Tree Sparrow"],"trial_type":"image-multi-choice","trial_index":229,"time_elapsed":1869809,"internal_node_id":"0.0-8.0-12.0"},{"rt":12675,"responses":"{\"Q0\":\"Nashville Warbler\"}","answer":["Tennessee Warbler"],"trial_type":"image-multi-choice","trial_index":230,"time_elapsed":1883506,"internal_node_id":"0.0-8.0-13.0"},{"rt":12470,"responses":"{\"Q0\":\"Blackburnian Warbler\"}","answer":["Magnolia Warbler"],"trial_type":"image-multi-choice","trial_index":231,"time_elapsed":1897002,"internal_node_id":"0.0-8.0-14.0"},{"rt":37454,"responses":"{\"Q0\":\"Ovenbird\"}","answer":["Northern Waterthrush"],"trial_type":"image-multi-choice","trial_index":232,"time_elapsed":1935483,"internal_node_id":"0.0-8.0-15.0"},{"rt":14999,"responses":"{\"Q0\":\"American Tree Sparrow\"}","answer":["Chipping Sparrow"],"trial_type":"image-multi-choice","trial_index":233,"time_elapsed":1951518,"internal_node_id":"0.0-8.0-16.0"},{"rt":19094,"responses":"{\"Q0\":\"Lincoln's Sparrow\"}","answer":["Swamp Sparrow"],"trial_type":"image-multi-choice","trial_index":234,"time_elapsed":1971639,"internal_node_id":"0.0-8.0-17.0"},{"rt":29290,"responses":"{\"Q0\":\"Swamp Sparrow\"}","answer":["Lincoln's Sparrow"],"trial_type":"image-multi-choice","trial_index":235,"time_elapsed":2001958,"internal_node_id":"0.0-8.0-18.0"},{"rt":15895,"responses":"{\"Q0\":\"Ovenbird\"}","answer":["Ovenbird"],"trial_type":"image-multi-choice","trial_index":236,"time_elapsed":2018892,"internal_node_id":"0.0-8.0-19.0"}]