"view_history","rt","trial_type","trial_index","time_elapsed","internal_node_id","sim_score","stimulus","responses","answer"
"[{""page_index"":0,""viewing_time"":34328}]","34331","instructions","0","34333","0.0-0.0","","","",""
"","10764","similarity_demo","1","46116","0.0-1.0","5","[""img/866.jpg"",""img/868.jpg""]","",""
"[{""page_index"":0,""viewing_time"":16651}]","16652","instructions","2","63769","0.0-2.0","","","",""
"","5161","similarity_demo","3","69938","0.0-3.0","2","[""img/766.jpg"",""img/867.jpg""]","",""
"[{""page_index"":0,""viewing_time"":12640}]","12641","instructions","4","83581","0.0-4.0","","","",""
"[{""page_index"":0,""viewing_time"":19356}]","19357","instructions","5","103939","0.0-5.0","","","",""
"","7136","similarity","6","112088","0.0-6.0-0.0","3","[""img/0868/4a8a45ed-2c4f-421b-9564-409a33ecd26c.jpg"",""img/0901/08d6d1d1-c043-43c4-bb08-d45e062822b9.jpg""]","",""
"","6027","similarity","7","119124","0.0-6.0-1.0","3","[""img/0769/3c1efec9-f8fd-487d-8955-4be88e48c832.jpg"",""img/0867/a498eef3-9fa4-4ab2-9778-4ae82ac40dc5.jpg""]","",""
"","5512","similarity","8","125646","0.0-6.0-2.0","2","[""img/0766/69e486f7-dbef-456b-9d48-53d814248a28.jpg"",""img/0898/993d8f2d-bef7-4251-a193-0f93a32b7763.jpg""]","",""
"","5064","similarity","9","131720","0.0-6.0-3.0","2","[""img/0902/1a120fb9-dbd6-443e-ba91-b4aceab963da.jpg"",""img/0881/54ea8e77-c7e5-4197-b7fa-00b7020849a7.jpg""]","",""
"","5456","similarity","10","138192","0.0-6.0-4.0","3","[""img/0894/e2446cf5-cd48-486a-badc-76498e087fbe.jpg"",""img/0894/a3d4170b-b7d8-40e3-955f-87e76ed745fc.jpg""]","",""
"","4318","similarity","11","143516","0.0-6.0-5.0","2","[""img/0874/ca23d307-fc00-4d7d-9106-584c6eb21b4d.jpg"",""img/0899/93494f3b-d539-4075-b027-d82e344563da.jpg""]","",""
"","6076","similarity","12","150606","0.0-6.0-6.0","3","[""img/0904/60d1a521-edf7-4696-9263-f21ac0e62a01.jpg"",""img/0764/e42c1dc9-7831-4995-be19-7ca7b4d141fc.jpg""]","",""
"","8235","similarity","13","159847","0.0-6.0-7.0","5","[""img/0899/0433d056-aa30-4f8a-9aa1-abbb951e4edd.jpg"",""img/0898/b3290bf9-215b-4b45-b21a-65bdf73f142f.jpg""]","",""
"","4603","similarity","14","165463","0.0-6.0-8.0","1","[""img/0874/1016b306-087c-4afc-aa08-fa527b28dc76.jpg"",""img/0903/150cf64c-0bd2-4674-abbb-a1387cf1f3e9.jpg""]","",""
"","7373","similarity","15","173850","0.0-6.0-9.0","6","[""img/0881/7e31e5dc-2240-4b1b-b5a0-3acd980099ef.jpg"",""img/0758/d57c2592-a317-4f63-91be-91a3a9afd222.jpg""]","",""
"","5382","similarity","16","180242","0.0-6.0-10.0","5","[""img/0898/4184e5a2-84ea-4f36-9b42-ae58646f6f87.jpg"",""img/0901/1b86f2fc-7a1d-4aa8-9252-114f92edef3b.jpg""]","",""
"","6347","similarity","17","187603","0.0-6.0-11.0","5","[""img/0903/12bd8657-92e6-4c36-a06c-597e7a1d51f3.jpg"",""img/0769/387a9744-d6a7-42b8-bab8-33007ec434aa.jpg""]","",""
"","6874","similarity","18","195487","0.0-6.0-12.0","1","[""img/0764/d7c215ab-ea9a-45be-8d5f-417d5b9a8a17.jpg"",""img/0868/4bd5105a-d2c3-4f82-8c80-57196106ba53.jpg""]","",""
"","7954","similarity","19","204448","0.0-6.0-13.0","3","[""img/0867/cc72ed48-7704-422c-86d6-467a1145287a.jpg"",""img/0903/4cbdc464-e562-4ec2-9bb6-15f894fdf528.jpg""]","",""
"","4463","similarity","20","209918","0.0-6.0-14.0","1","[""img/0766/b84598d0-5b41-4841-88b0-b441b48289f5.jpg"",""img/0758/caa93da2-9edf-49fa-96b9-32dedd8f5078.jpg""]","",""
"","7566","similarity","21","218493","0.0-6.0-15.0","4","[""img/0902/30c420f5-c714-4681-ae5a-c0ba8f636a26.jpg"",""img/0860/c3379ff7-0763-48fe-a1ec-7ea3d611bc7a.jpg""]","",""
"","6151","similarity","22","225653","0.0-6.0-16.0","1","[""img/0769/965c3c44-d9e5-47c5-b61a-2bbdf4215d9a.jpg"",""img/0875/e7e66b13-b573-431e-b85e-288ce04a35a3.jpg""]","",""
"","4316","similarity","23","230977","0.0-6.0-17.0","2","[""img/0904/da170c1b-9651-4f08-b231-2bdd1d9a046f.jpg"",""img/0866/945c6710-d15b-4a5b-a8f6-69af0850357f.jpg""]","",""
"","5368","similarity","24","237355","0.0-6.0-18.0","6","[""img/0875/5a7c4e35-6514-4e12-8879-d16071da4cd6.jpg"",""img/0875/527ced51-8e53-4aab-ab05-86df219104c0.jpg""]","",""
"","5767","similarity","25","244132","0.0-6.0-19.0","7","[""img/0758/335851a0-a55b-46d8-ab05-8463eda48349.jpg"",""img/0758/65d426d6-3ff6-415d-8654-a43b83ecc4fe.jpg""]","",""
"","5412","similarity","26","250554","0.0-6.0-20.0","2","[""img/0902/22ed3536-288b-452e-9777-0fa0ab94deb0.jpg"",""img/0874/2c9464dd-8a23-4baa-ac94-1ba3af5c15cc.jpg""]","",""
"","5691","similarity","27","257260","0.0-6.0-21.0","3","[""img/0764/978aede9-4590-4ad0-b234-135c83e5d669.jpg"",""img/0769/458d9c77-b844-40b5-bb1b-1e3bbd4da64e.jpg""]","",""
"","6731","similarity","28","265002","0.0-6.0-22.0","2","[""img/0901/1e23ffbd-19de-4c4f-aa23-c54aaa3319a3.jpg"",""img/0874/995f0332-0439-4eb4-add3-957335dbf6d9.jpg""]","",""
"","6421","similarity","29","272430","0.0-6.0-23.0","2","[""img/0875/cff79b3a-a797-4393-9757-6275f999ec04.jpg"",""img/0903/470acfd5-5571-4a7b-b3a4-28d87e098138.jpg""]","",""
"","7762","similarity","30","281201","0.0-6.0-24.0","5","[""img/0769/82ab9db6-4578-4e79-874f-f09100439f09.jpg"",""img/0881/d1982897-8d8d-4704-a940-1ee5d07a1f15.jpg""]","",""
"","4839","similarity","31","287048","0.0-6.0-25.0","3","[""img/0867/bf560d4f-dee3-4f11-a385-705cc1aa5f3c.jpg"",""img/0904/09dac84f-3d1c-4445-a68e-d0389fdbf1e9.jpg""]","",""
"","6298","similarity","32","294358","0.0-6.0-26.0","1","[""img/0860/17b44a7d-c5ca-479f-9e87-f65a64f5c80e.jpg"",""img/0881/445edb15-bd7f-4af3-8bd5-c6ad9677bb31.jpg""]","",""
"","4849","similarity","33","300212","0.0-6.0-27.0","7","[""img/0866/a04d37f0-99dd-478a-b6c6-58b215138f84.jpg"",""img/0866/bf14b5bd-fb55-47db-86b9-4f8aeb9a6dad.jpg""]","",""
"","5887","similarity","34","307111","0.0-6.0-28.0","2","[""img/0764/ba0c0955-acbb-457d-b1c2-f006b88121d5.jpg"",""img/0862/1c20f772-3a51-4a80-aac0-f57dc9f86c28.jpg""]","",""
"","5259","similarity","35","313379","0.0-6.0-29.0","2","[""img/0904/b7c2a2c8-df33-4473-b3d4-ff7147c60db3.jpg"",""img/0758/7ffbc76b-1fc1-432c-8f7e-9ec8d1b3f643.jpg""]","",""
"","7691","similarity","36","322079","0.0-6.0-30.0","2","[""img/0894/6b2e9509-8699-42b7-9582-7741df0ba2d7.jpg"",""img/0899/d8f2dd94-570e-4e8c-a087-d96090fb9e8c.jpg""]","",""
"","4204","similarity","37","327294","0.0-6.0-31.0","1","[""img/0860/5383b320-1518-4095-a58e-5cc1ae30b64c.jpg"",""img/0904/fe746a3f-8458-48d0-8a13-8cba2a9df9f8.jpg""]","",""
"","6526","similarity","38","334830","0.0-6.0-32.0","7","[""img/0874/7e4f2150-3b59-4a36-b5da-a4e0ba410531.jpg"",""img/0881/c24f3051-eefa-42de-aba6-fccb56d93c70.jpg""]","",""
"","5903","similarity","39","341747","0.0-6.0-33.0","2","[""img/0881/62a64f90-7a72-4aee-a1a1-0c548ac9bdda.jpg"",""img/0899/9de5e857-aa9a-4e0c-8ba2-46d79bd069a4.jpg""]","",""
"","5744","similarity","40","348501","0.0-6.0-34.0","3","[""img/0866/23a224f3-2012-4fc8-8e0f-3c36f8de27fd.jpg"",""img/0862/53a9cf7c-93c4-41b9-952f-07d17f7a17b2.jpg""]","",""
"","4767","similarity","41","354278","0.0-6.0-35.0","1","[""img/0868/6a28c3b0-3d76-498a-9fb7-ddafc665eca8.jpg"",""img/0894/76c1201f-8524-4865-85e6-dda8cb4ac986.jpg""]","",""
"","6345","similarity","42","361639","0.0-6.0-36.0","6","[""img/0860/c5ccd1a4-4bb7-48e1-9b25-72cfaf06909b.jpg"",""img/0860/5bff793e-cbd5-4d7e-b628-0ac2b0e30b64.jpg""]","",""
"","4918","similarity","43","367567","0.0-6.0-37.0","5","[""img/0862/5d887e9f-89e2-4ebc-80a0-6d46fe6480db.jpg"",""img/0864/3651d070-2fc5-4848-b6a6-088a2d9ac5c9.jpg""]","",""
"","7369","similarity","44","375947","0.0-6.0-38.0","1","[""img/0766/60033a74-9919-47e5-913c-71d0d483e7e5.jpg"",""img/0866/f756f7d1-9ad8-4a34-9ef6-7a443d705bfe.jpg""]","",""
"","4336","similarity","45","381295","0.0-6.0-39.0","1","[""img/0875/42910c99-5463-450a-a0f8-d4d060a11455.jpg"",""img/0898/01bfe666-3510-4fc7-964f-d00d28732dc8.jpg""]","",""
"","4607","similarity","46","386914","0.0-6.0-40.0","5","[""img/0766/ae0fce93-fe8d-4aa1-87ca-4c3e4b889f2f.jpg"",""img/0769/aad494cc-674d-4a08-9bfa-24a88ebe3c79.jpg""]","",""
"","6467","similarity","47","415260","0.0-6.0-41.0","2","[""img/0874/a82926a3-0b43-4add-803c-d5f9ea7798ee.jpg"",""img/0764/4bec8d92-75aa-475a-954d-8215dbe538f5.jpg""]","",""
"","7744","similarity","48","424014","0.0-6.0-42.0","3","[""img/0868/09a9ef4d-d000-4cfa-a6aa-ebec7c2edeb4.jpg"",""img/0902/7499db23-3a41-41ea-ab5b-6ab4d4c3ed35.jpg""]","",""
"","4881","similarity","49","429902","0.0-6.0-43.0","1","[""img/0875/dbdd643e-6d0e-4a5c-ab57-b9c29b9c981a.jpg"",""img/0899/76ad07e2-ca25-45eb-84f2-8d80b8ca3e26.jpg""]","",""
"","5431","similarity","50","436347","0.0-6.0-44.0","1","[""img/0866/8efcaa46-83ab-4dee-a35f-850402aa21ae.jpg"",""img/0860/b03b963d-949b-4d8d-b19c-4950c89eeca2.jpg""]","",""
"","5102","similarity","51","442459","0.0-6.0-45.0","5","[""img/0766/e8052e17-9dae-4139-802b-6e590cb2d526.jpg"",""img/0903/70d764d9-1f35-4da7-a35d-4cc39834d270.jpg""]","",""
"","5316","similarity","52","448783","0.0-6.0-46.0","4","[""img/0901/233a6948-48eb-4b67-8259-222b916b2322.jpg"",""img/0904/5cceabc9-de1d-4c67-989b-c28a4ef77e79.jpg""]","",""
"","4126","similarity","53","453920","0.0-6.0-47.0","3","[""img/0758/b76ceca7-95ac-46e4-ac13-da02c8e93be9.jpg"",""img/0902/e5a46bda-30d1-41ca-b36d-b8529b5a63d1.jpg""]","",""
"","4787","similarity","54","459715","0.0-6.0-48.0","6","[""img/0764/5d6fa3ce-9083-410c-bbdb-336a49b94cfc.jpg"",""img/0764/ca957454-126a-4bd3-b29c-7174a24c25dc.jpg""]","",""
"","5058","similarity","55","465783","0.0-6.0-49.0","3","[""img/0866/d493a2c8-66eb-44b4-be02-2f327b700b7c.jpg"",""img/0902/97022122-01e4-46c3-a34f-c6260ad28428.jpg""]","",""
"","5365","similarity","56","472155","0.0-6.0-50.0","2","[""img/0764/cbdc4f20-3a9a-4211-9b40-090699e0abcc.jpg"",""img/0758/2fa3e613-e676-4e6e-bd12-705327eeb3e1.jpg""]","",""
"","4111","similarity","57","477271","0.0-6.0-51.0","6","[""img/0898/c3cecf20-f7fd-45fa-97d0-dc0a63e8d6c0.jpg"",""img/0894/3664e04c-c6d3-4c9b-afb6-25d89974b174.jpg""]","",""
"","7100","similarity","58","485380","0.0-6.0-52.0","5","[""img/0875/fb732ab5-013a-4366-9f65-27811ed157e9.jpg"",""img/0866/620cd1aa-0800-4414-8f6e-90342e7a99ad.jpg""]","",""
"","6581","similarity","59","492971","0.0-6.0-53.0","7","[""img/0904/e9423a8c-f946-43ad-ab7b-931acef870e2.jpg"",""img/0904/9d30eff1-46ef-4453-b11e-124ef8145c00.jpg""]","",""
"","5759","similarity","60","499739","0.0-6.0-54.0","7","[""img/0769/878531fd-e0e8-4ad1-b9ad-f018bb104ca0.jpg"",""img/0769/3adfa417-3b90-4aab-b437-5eaa474189cb.jpg""]","",""
"","4366","similarity","61","505115","0.0-6.0-55.0","1","[""img/0898/ec565187-2e31-4fdd-9a5c-153d0c789ae0.jpg"",""img/0758/d540bee6-b460-4c32-ac57-bc282742d7d4.jpg""]","",""
"","5059","similarity","62","511181","0.0-6.0-56.0","2","[""img/0769/91acb237-65a3-4d0b-9748-af5c7b83d3c7.jpg"",""img/0902/0c760cc9-10ac-429e-8957-a7d51fc99683.jpg""]","",""
"","4561","similarity","63","516752","0.0-6.0-57.0","4","[""img/0864/b3c4e378-28f0-4699-9338-2a257b4bca04.jpg"",""img/0881/5fe04dd0-5c74-47b7-99c8-b068db9ca26a.jpg""]","",""
"","7950","similarity","64","525712","0.0-6.0-58.0","2","[""img/0758/53f35650-e455-4b53-8be4-c3c8271c6466.jpg"",""img/0868/3a62db2d-97e9-44a3-b8e3-a48c6f0e423b.jpg""]","",""
"","4891","similarity","65","531615","0.0-6.0-59.0","1","[""img/0862/eefa5588-9efd-4591-aa5f-a2e17c7d7bcc.jpg"",""img/0769/e8ed913b-8a88-44f6-9327-d34afec3116b.jpg""]","",""
"","5091","similarity","66","537716","0.0-6.0-60.0","5","[""img/0764/5c8fbafc-e62e-43ed-9b37-f73e8e45147d.jpg"",""img/0903/647ce311-8c71-479a-8361-961db1457139.jpg""]","",""
"","3713","similarity","67","542440","0.0-6.0-61.0","7","[""img/0899/b45c550b-96c3-4255-ad59-48a2b4db1c1e.jpg"",""img/0899/d60714ae-98d7-4564-8c98-94dba1351135.jpg""]","",""
"","6502","similarity","68","549963","0.0-6.0-62.0","3","[""img/0860/8277806e-b684-4474-8f7b-3fca946d7d4f.jpg"",""img/0875/3ecb367d-e9eb-4826-8aaa-7aa72fb98019.jpg""]","",""
"","5551","similarity","69","556521","0.0-6.0-63.0","1","[""img/0868/d98ca254-b195-477f-b57e-5760a2717db8.jpg"",""img/0874/767f289c-9814-4496-803f-745cc8913d1f.jpg""]","",""
"","8196","similarity","70","565729","0.0-6.0-64.0","1","[""img/0758/9fb5b2fe-3f00-4fe6-973c-1ce10d5f4cd5.jpg"",""img/0862/57b6f83f-c763-4858-830d-102f97bfefbf.jpg""]","",""
"","4335","similarity","71","571075","0.0-6.0-65.0","6","[""img/0904/65e2b70a-b184-4da3-b5c0-5038bdf9469a.jpg"",""img/0898/f3a3f225-1248-4ac7-b93b-f0ff28485bf3.jpg""]","",""
"","6597","similarity","72","578682","0.0-6.0-66.0","3","[""img/0881/ee44e27f-d662-4608-b265-e7ffa19b216f.jpg"",""img/0866/a15b02be-11bb-43e3-b0e0-ecc3bd7dfc49.jpg""]","",""
"","4972","similarity","73","584660","0.0-6.0-67.0","2","[""img/0867/5e07b34d-b40f-4b1c-ac10-49975bace45f.jpg"",""img/0898/a8f16b02-e19f-423b-86c3-a36562ae1f9b.jpg""]","",""
"","5118","similarity","74","590787","0.0-6.0-68.0","5","[""img/0902/7f1dcd35-237a-4995-9e42-7f63f3f434d4.jpg"",""img/0764/bc3865c9-9004-4582-88a7-048478673f97.jpg""]","",""
"","5805","similarity","75","597601","0.0-6.0-69.0","3","[""img/0875/2c361b79-c3d1-4eda-812e-bf03192407bf.jpg"",""img/0867/6e19c858-b606-45b2-a4c6-910a73f1d82c.jpg""]","",""
"","7114","similarity","76","605727","0.0-6.0-70.0","6","[""img/0766/110832e5-2646-4bd0-a94e-5df8cc314269.jpg"",""img/0764/7f4ee8e3-9315-4a57-be7d-db8454b33766.jpg""]","",""
"","9990","similarity","77","616726","0.0-6.0-71.0","5","[""img/0894/e6385e52-6c35-43bd-b0af-bc803d107b11.jpg"",""img/0867/a749dddb-69f0-44a6-acdc-2bf295cf6dcc.jpg""]","",""
"","4931","similarity","78","622667","0.0-6.0-72.0","2","[""img/0875/ebf7653f-ff45-4e9f-af58-2c042ab3cd2b.jpg"",""img/0764/974d52cc-6318-4e7a-b294-2f3e92ff800f.jpg""]","",""
"","3863","similarity","79","627539","0.0-6.0-73.0","4","[""img/0867/1719a35d-f085-48c0-9099-16c94fe418b4.jpg"",""img/0866/11a1d141-be5e-443c-98c1-a9d4d9e3dec0.jpg""]","",""
"","4634","similarity","80","633181","0.0-6.0-74.0","1","[""img/0903/8f7f9939-b8e6-433f-93dd-b362496c80a7.jpg"",""img/0758/e1ba5e53-addc-436a-b428-d34fc1b130dc.jpg""]","",""
"","7162","similarity","81","641349","0.0-6.0-75.0","1","[""img/0766/27f54113-8561-4568-9ffe-0a1650ae65ec.jpg"",""img/0868/7b212364-ff5f-4e28-9241-7eb6ea00161b.jpg""]","",""
"","6625","similarity","82","648981","0.0-6.0-76.0","3","[""img/0874/bf14b896-e930-4fd9-9c05-2e83317a2773.jpg"",""img/0766/af3be95e-e52e-4fae-899b-0ff02ec340aa.jpg""]","",""
"","4639","similarity","83","654631","0.0-6.0-77.0","3","[""img/0881/e6746727-7f89-47ec-b939-d98abe78372d.jpg"",""img/0868/c8ac40c7-6904-4e13-8d61-c75d3052dc4e.jpg""]","",""
"","4635","similarity","84","660275","0.0-6.0-78.0","1","[""img/0758/6cd8c362-ae2a-41eb-80a3-3a4f7ace1530.jpg"",""img/0901/c6c877e0-dd63-4e00-9657-33af29d55aab.jpg""]","",""
"","4850","similarity","85","666135","0.0-6.0-79.0","2","[""img/0881/609a5e93-38b5-4940-8627-2bf8fad7f802.jpg"",""img/0898/8605a25b-6895-476d-8c13-df7a83f96093.jpg""]","",""
"","6589","similarity","86","673731","0.0-6.0-80.0","2","[""img/0867/075e0f95-856b-4cbb-acf5-092393aaf04e.jpg"",""img/0758/f61ecdf8-a7d4-4db0-b84d-be46f7cfaffc.jpg""]","",""
"","5093","similarity","87","679832","0.0-6.0-81.0","5","[""img/0769/35364db7-e0d5-40ef-93dc-faf9dfb95136.jpg"",""img/0899/00715b3f-851b-420b-a26b-d7f79f7759a9.jpg""]","",""
"","7736","similarity","88","688576","0.0-6.0-82.0","6","[""img/0903/d987e220-f3e6-4b6d-a270-fe6757041f6d.jpg"",""img/0903/a0673b55-6040-47fe-9040-24bca27ca3c9.jpg""]","",""
"","5736","similarity","89","713266","0.0-6.0-83.0","1","[""img/0867/f26f6b60-f772-4f4c-95a4-addc62cfd692.jpg"",""img/0766/d5d38751-8fa5-476f-93e9-86ed2d9045ef.jpg""]","",""
"","6312","similarity","90","720589","0.0-6.0-84.0","3","[""img/0902/c018bd7a-d91a-4192-aea4-7259cfcdb6c4.jpg"",""img/0867/db7e032f-162b-46f5-ae67-2b29679adee4.jpg""]","",""
"","4522","similarity","91","726120","0.0-6.0-85.0","3","[""img/0901/5b97abf9-f0c8-4fd1-b921-36d574779078.jpg"",""img/0875/a4935837-7d3c-4df6-88c1-36a94d4991ca.jpg""]","",""
"","5886","similarity","92","733014","0.0-6.0-86.0","4","[""img/0764/713cc27e-2338-4486-bfe9-5f5725fbd7a0.jpg"",""img/0866/6f2a90d7-14f1-4f1b-bd64-fc0af6b9fe44.jpg""]","",""
"","4255","similarity","93","738280","0.0-6.0-87.0","5","[""img/0901/04a53755-6da5-44d4-a7a6-48a6bc0a2280.jpg"",""img/0894/a98416c0-51e2-4960-85da-d81d8688b9d5.jpg""]","",""
"","5375","similarity","94","744662","0.0-6.0-88.0","6","[""img/0898/cd3aaa3f-efa9-4ab3-8d6f-a6a9273ddf42.jpg"",""img/0769/180213e5-1e50-4b4e-87b6-add77ba04d39.jpg""]","",""
"","3853","similarity","95","749524","0.0-6.0-89.0","6","[""img/0769/a3cfbdeb-acb3-4eac-87fb-4b117f42d4f8.jpg"",""img/0894/9b1333fd-3561-43bf-aee5-99b7b7ca3dc3.jpg""]","",""
"","4529","similarity","96","755060","0.0-6.0-90.0","4","[""img/0862/24cdc752-c2e5-4a17-86a6-6f2045d8553b.jpg"",""img/0874/8cdb1c07-1c32-46d2-981c-3636560fa6e5.jpg""]","",""
"","5514","similarity","97","761582","0.0-6.0-91.0","3","[""img/0894/2217bdcd-23a7-42d3-823b-23f2488d7e87.jpg"",""img/0766/1bc0dccc-a5b5-4375-87fa-28360ca42b12.jpg""]","",""
"","7228","similarity","98","769820","0.0-6.0-92.0","3","[""img/0874/3ce41e7c-40c8-4d58-a546-171114521796.jpg"",""img/0867/f8488a47-94ee-4166-952c-44e16cf172f6.jpg""]","",""
"","4821","similarity","99","775689","0.0-6.0-93.0","1","[""img/0899/0adc0bc3-6fca-4078-be6f-d45ddf1653d5.jpg"",""img/0868/15dd6fd7-791e-4b53-b203-195d617521a4.jpg""]","",""
"","5216","similarity","100","781916","0.0-6.0-94.0","2","[""img/0903/36e4ab1f-caa9-40b3-8616-faada076df94.jpg"",""img/0862/e8cc3bdf-cc43-4565-bccf-492626c70953.jpg""]","",""
"","6020","similarity","101","788946","0.0-6.0-95.0","6","[""img/0899/7b7380d5-d2be-44e5-a09a-c1756f87ef71.jpg"",""img/0766/33aa9ebb-c9f5-418f-8c8b-c77861889568.jpg""]","",""
"","6740","similarity","102","796694","0.0-6.0-96.0","7","[""img/0867/12264664-1860-46df-8c21-162b9817cdda.jpg"",""img/0868/4e626425-63c8-484a-8a1d-e66ee4e0bef8.jpg""]","",""
"","5973","similarity","103","803677","0.0-6.0-97.0","3","[""img/0862/47ed5efd-4ec9-4b74-bb4e-a5f5cf0c3e7d.jpg"",""img/0901/4d1bed7e-3c4e-4f6c-ada9-4beb66ba9e39.jpg""]","",""
"","4799","similarity","104","809482","0.0-6.0-98.0","2","[""img/0875/8521fd58-3b1e-4dc5-97ae-804edfa6734a.jpg"",""img/0766/a0270213-fa0e-4972-8b56-228c3e01ff90.jpg""]","",""
"","5933","similarity","105","816430","0.0-6.0-99.0","4","[""img/0758/ddc336e9-a8b6-4bb9-937a-c7e25e0e9250.jpg"",""img/0874/3f471690-9788-4d03-90c7-f615aecef149.jpg""]","",""
"","5052","similarity","106","822492","0.0-6.0-100.0","3","[""img/0904/06dacdc5-2206-4fb8-92b7-88042d22833c.jpg"",""img/0868/1a62b2b2-18f5-466e-b564-5176a57c565e.jpg""]","",""
"","5865","similarity","107","829366","0.0-6.0-101.0","1","[""img/0903/6138142e-c84e-45fc-9487-c974f3d4968a.jpg"",""img/0866/d266fece-59b3-46fa-b69f-96f6efb81b59.jpg""]","",""
"","4667","similarity","108","835040","0.0-6.0-102.0","2","[""img/0868/8b0b8473-e2c0-4331-aa56-c3a5c29369da.jpg"",""img/0769/7c50e5f5-cc38-4d48-b009-fbe17bcea61c.jpg""]","",""
"","6575","similarity","109","842622","0.0-6.0-103.0","5","[""img/0902/bd89a85f-3853-4786-acd6-98818ee29f1c.jpg"",""img/0899/f58b8d2f-b19d-4b59-8b94-8834be92e4ba.jpg""]","",""
"","5640","similarity","110","849271","0.0-6.0-104.0","3","[""img/0868/293079b8-7e0c-4afd-a390-1e5d35fe3ded.jpg"",""img/0862/92f0146c-20c4-482e-aef5-adb693790338.jpg""]","",""
"","6979","similarity","111","857258","0.0-6.0-105.0","7","[""img/0903/bf0a7d60-eca5-44b0-bafd-baf21db9904b.jpg"",""img/0894/43216a7f-27bc-4b5a-8841-d122a30da9d9.jpg""]","",""
"","5130","similarity","112","863398","0.0-6.0-106.0","1","[""img/0864/9b2490c5-a282-400a-9736-e1a0ecbf1cb7.jpg"",""img/0874/eba003b4-cdab-4eee-8bc3-f064c7d94165.jpg""]","",""
"","5113","similarity","113","869523","0.0-6.0-107.0","3","[""img/0862/ba89835a-408c-480b-8594-ed4ffa97eb5c.jpg"",""img/0902/168ebd47-9e82-4ab7-a18b-c3da85072db8.jpg""]","",""
"","5387","similarity","114","875925","0.0-6.0-108.0","7","[""img/0904/1d10df11-b5c8-4370-9a6b-097a7f965895.jpg"",""img/0903/71dbc325-b588-4297-a5cf-7f268a722ad9.jpg""]","",""
"","4788","similarity","115","881723","0.0-6.0-109.0","2","[""img/0764/4eff630a-6426-4f8d-b2ba-b4d9842a0962.jpg"",""img/0864/87c467d3-abca-482f-ad80-3766c21b1bb3.jpg""]","",""
"","4610","similarity","116","887343","0.0-6.0-110.0","4","[""img/0866/07c9c966-3c8d-40e7-8128-92b2acbaed5d.jpg"",""img/0894/38cf335f-f76f-4349-8d65-e20cd6859565.jpg""]","",""
"","6089","similarity","117","894445","0.0-6.0-111.0","5","[""img/0899/8abe6c69-822c-436c-9bf2-96c818b49ba5.jpg"",""img/0903/8c358e9e-a4f4-466e-8b93-7aec0d2358e8.jpg""]","",""
"","4605","similarity","118","900061","0.0-6.0-112.0","6","[""img/0902/95a36b6b-9601-4fa5-8fd9-606ea62f9425.jpg"",""img/0904/5aec2708-cf14-4a58-aa30-9a8a61c1be0e.jpg""]","",""
"","5573","similarity","119","906649","0.0-6.0-113.0","3","[""img/0864/0f537697-a314-47c3-a8cc-8df23b7e536c.jpg"",""img/0860/18dfed73-e36b-4487-a8bd-0b8cff8e3668.jpg""]","",""
"","4485","similarity","120","912144","0.0-6.0-114.0","1","[""img/0860/c47fdead-eb02-4989-b078-26f4852f44fe.jpg"",""img/0899/06b0fc99-0581-461a-9913-d1a5a941ac61.jpg""]","",""
"","6485","similarity","121","919637","0.0-6.0-115.0","2","[""img/0881/44e09805-5a25-4f17-a716-4ad4a331b174.jpg"",""img/0903/5995f4a8-fa82-46f8-8760-fd7800a5ca34.jpg""]","",""
"","8897","similarity","122","929544","0.0-6.0-116.0","3","[""img/0894/7f2f31fd-6618-41c6-b65a-0fd8b2851bc9.jpg"",""img/0874/adf9a8f1-c40b-402b-b95b-1e85a54a7b62.jpg""]","",""
"","5137","similarity","123","935692","0.0-6.0-117.0","6","[""img/0881/ed4c971f-0873-4fc8-b6d6-e8bbd82f0bcc.jpg"",""img/0862/de9ad88c-b522-430a-8ee9-eb06a9f85df5.jpg""]","",""
"","4030","similarity","124","940733","0.0-6.0-118.0","5","[""img/0868/0d3abd3a-b6c3-4584-a9f7-e2da63748b3d.jpg"",""img/0875/d59ff733-eaff-4ee2-9443-06954dd0bcb6.jpg""]","",""
"","4133","similarity","125","945877","0.0-6.0-119.0","2","[""img/0860/61fb959d-d4d9-4de4-9e4e-4fa62b4cfcd5.jpg"",""img/0758/d41c06bf-ebaf-454b-91c6-1a17f917b659.jpg""]","",""
"","4364","similarity","126","951253","0.0-6.0-120.0","4","[""img/0864/300bb811-8b3c-4c42-8653-6097c3725197.jpg"",""img/0875/f87b67d7-c33e-40d1-b281-248c4be1cb6e.jpg""]","",""
"","9326","similarity","127","961588","0.0-6.0-121.0","4","[""img/0898/08c72dac-f8ad-407a-9ce6-8c9a5d679c3a.jpg"",""img/0866/4a87911a-d5be-4d4e-ab8e-3d1f581bf507.jpg""]","",""
"","5166","similarity","128","967758","0.0-6.0-122.0","3","[""img/0874/99f6563c-8a8d-4c1c-a41d-667b618c3fd5.jpg"",""img/0904/56e73f28-7e64-489b-a161-e6b1a063878d.jpg""]","",""
"","4499","similarity","129","973267","0.0-6.0-123.0","6","[""img/0904/4b8daf2a-13a9-4ea9-9e0b-b265b6e933e7.jpg"",""img/0864/ea327690-500b-4137-bf91-451b309fe6a5.jpg""]","",""
"","5560","similarity","130","979836","0.0-6.0-124.0","5","[""img/0894/05161000-f476-499b-a878-c13c7f347fd9.jpg"",""img/0902/af40b98b-3d23-4d95-b401-49ba5783ce39.jpg""]","",""
"","5447","similarity","131","996724","0.0-6.0-125.0","4","[""img/0868/5fa7f9d0-f0e5-454c-8224-74d964818f56.jpg"",""img/0864/f92649a2-0590-4d31-9a7a-1bfb81666a2d.jpg""]","",""
"","5226","similarity","132","1002957","0.0-6.0-126.0","4","[""img/0899/66bf4113-ee12-426c-84d2-ea410b6c803e.jpg"",""img/0866/93a27239-8317-4e08-98ca-d8b1ff298e07.jpg""]","",""
"","4772","similarity","133","1008740","0.0-6.0-127.0","3","[""img/0875/03c3c331-738b-4446-af92-3d7386b08c2e.jpg"",""img/0904/73920552-103b-4c9c-9ece-e0b8376b4504.jpg""]","",""
"","3797","similarity","134","1013548","0.0-6.0-128.0","2","[""img/0867/c71dc569-f49c-4397-8381-68b8d726736d.jpg"",""img/0899/4408c14d-c168-4a7d-96f6-bc87bfb58f83.jpg""]","",""
"","4835","similarity","135","1019402","0.0-6.0-129.0","4","[""img/0901/c6df1a21-44ed-47c2-960e-7c52220e329e.jpg"",""img/0867/f8159067-056c-41f1-a136-c529fe5e970a.jpg""]","",""
"","5115","similarity","136","1025529","0.0-6.0-130.0","3","[""img/0864/0116ca98-293d-4fa6-a93b-5a6144ef64cc.jpg"",""img/0769/f229321f-04dd-42d7-b14a-ffad6b509862.jpg""]","",""
"","4749","similarity","137","1031289","0.0-6.0-131.0","2","[""img/0903/07b445ee-0cdb-4d2c-a23b-d727613f4059.jpg"",""img/0868/fd307a36-9a3a-47d7-ab7c-f810d0b35040.jpg""]","",""
"","6045","similarity","138","1038342","0.0-6.0-132.0","1","[""img/0864/5f74a653-3bdc-4308-8cca-ac667dc22e1f.jpg"",""img/0867/50a1b60e-3a29-44bf-b606-d4bd3746fea9.jpg""]","",""
"","5974","similarity","139","1045323","0.0-6.0-133.0","7","[""img/0901/12da1841-e611-435c-9719-109413d536a8.jpg"",""img/0860/9593362c-9fe5-4d12-9735-6000a11f6aa5.jpg""]","",""
"","4827","similarity","140","1051161","0.0-6.0-134.0","3","[""img/0881/f4e3e181-b3c9-4af2-a5a4-fc135ab70d2e.jpg"",""img/0766/d14acac4-7db1-4b07-8f8f-302437326fc0.jpg""]","",""
"","6756","similarity","141","1058922","0.0-6.0-135.0","2","[""img/0903/72197c2b-403e-4a26-b391-f1aa8dea4b76.jpg"",""img/0864/49150900-7f25-4ce8-8d10-9b47a71d1997.jpg""]","",""
"","4195","similarity","142","1064122","0.0-6.0-136.0","3","[""img/0758/7fba58df-2a7a-4b76-8a8f-62739f97f271.jpg"",""img/0894/e5edf723-72a5-4673-8441-6c1734a8929b.jpg""]","",""
"","5207","similarity","143","1070341","0.0-6.0-137.0","3","[""img/0769/8598a429-c671-4d2f-842c-32f681f5e412.jpg"",""img/0860/99c589b9-9140-4d17-90c0-b344323edcda.jpg""]","",""
"","4717","similarity","144","1076069","0.0-6.0-138.0","6","[""img/0904/2fd488e9-960f-41f7-8a44-33375f7d5051.jpg"",""img/0766/db750ba0-ce04-46e1-b601-e1b80212bad2.jpg""]","",""
"","6175","similarity","145","1083251","0.0-6.0-139.0","5","[""img/0868/e0aff734-077f-40dd-9781-74821abd3621.jpg"",""img/0860/e14d67c1-6d92-4f1e-9257-c8607159c19c.jpg""]","",""
"","4248","similarity","146","1088508","0.0-6.0-140.0","6","[""img/0758/67c0be2f-9e91-48b3-8219-70ac0a1802fa.jpg"",""img/0864/65210d57-1153-4657-886a-32e758f49b4a.jpg""]","",""
"","3986","similarity","147","1093502","0.0-6.0-141.0","7","[""img/0867/98d8cd96-1476-4fe0-a3a3-04f875500a1b.jpg"",""img/0867/179ab87a-8eac-4c52-a41f-2e48e3120f09.jpg""]","",""
"","6939","similarity","148","1101450","0.0-6.0-142.0","7","[""img/0898/661621d4-a14e-487c-8c74-354134a29710.jpg"",""img/0898/224c1572-56b9-4f16-a9e4-6f3bc9c114bd.jpg""]","",""
"","4757","similarity","149","1107214","0.0-6.0-143.0","5","[""img/0866/0207e9a2-7dbb-40b5-9459-b472aaeceb2a.jpg"",""img/0769/75f7e514-0548-4329-b1e4-93c05e74f038.jpg""]","",""
"","5163","similarity","150","1113387","0.0-6.0-144.0","3","[""img/0860/e8b8c51e-1834-4875-8b61-6c5bc9b178bd.jpg"",""img/0898/04e39a7a-fcf6-4156-ab0e-f5871f335e1c.jpg""]","",""
"","12540","similarity","151","1126934","0.0-6.0-145.0","2","[""img/0766/535849cc-ff5d-4df9-8f31-0ce94a97d571.jpg"",""img/0864/a248adb3-c70b-4652-b7a3-776d2a1e904b.jpg""]","",""
"","6150","similarity","152","1134094","0.0-6.0-146.0","3","[""img/0860/87039971-2210-4aab-93c0-8e9b5f1655b2.jpg"",""img/0903/31b5a5f4-b695-4af1-bad2-a19650a05498.jpg""]","",""
"","7489","similarity","153","1142595","0.0-6.0-147.0","3","[""img/0867/85a96c62-548f-4994-9553-819e03c3135a.jpg"",""img/0764/ca9829fe-aaf8-45b8-b98a-6bae751c63dd.jpg""]","",""
"","4550","similarity","154","1148153","0.0-6.0-148.0","6","[""img/0769/688d0c52-ad73-4065-a5eb-f8c10d076bff.jpg"",""img/0904/0d25eb24-bb20-4e8d-9787-8b489558b4cb.jpg""]","",""
"","5943","similarity","155","1155100","0.0-6.0-149.0","2","[""img/0764/06ea144f-f4f3-4a14-ba47-f20f35c561e0.jpg"",""img/0901/7c16dd9c-44ad-4d5b-990c-6a0b9b48b1b1.jpg""]","",""
"","5855","similarity","156","1161963","0.0-6.0-150.0","3","[""img/0904/96e503ea-6630-4996-85f2-0237688ce441.jpg"",""img/0899/56a605c3-d0a2-4215-89e1-779279d85a7c.jpg""]","",""
"","5524","similarity","157","1168498","0.0-6.0-151.0","4","[""img/0862/ee3b7bff-4a70-4e84-9bea-4a565e456acb.jpg"",""img/0867/7d1c497b-c1b3-4ed8-abb5-d7f73306015f.jpg""]","",""
"","3852","similarity","158","1173359","0.0-6.0-152.0","7","[""img/0766/f011ef45-fb48-44b8-8224-867ed2ccf786.jpg"",""img/0766/006035d8-c736-4daf-bbe4-a9e373af9da6.jpg""]","",""
"","6130","similarity","159","1180502","0.0-6.0-153.0","3","[""img/0862/99a99e39-8355-44ec-b993-e7bcec111e1c.jpg"",""img/0894/767a0eec-1064-46b1-b1aa-dfa02b0cd74e.jpg""]","",""
"","5419","similarity","160","1186929","0.0-6.0-154.0","1","[""img/0899/a05bea16-2bb4-4cb9-b8fb-4ff975db6971.jpg"",""img/0901/deff6cfb-0072-4490-bc3e-206bbcd3e8bf.jpg""]","",""
"","4706","similarity","161","1192646","0.0-6.0-155.0","7","[""img/0874/a3bc679d-619f-4db6-bb68-116dcb757d9c.jpg"",""img/0874/ca76a855-4e77-4f2f-872a-0a718153e7ed.jpg""]","",""
"","4941","similarity","162","1198593","0.0-6.0-156.0","6","[""img/0860/71e1aad0-2cdf-43bb-94a4-a8c016997c30.jpg"",""img/0867/26611f4e-d694-4460-b7e2-43c62753ddc3.jpg""]","",""
"","4631","similarity","163","1204228","0.0-6.0-157.0","2","[""img/0901/da4fe30f-d12a-491e-96a2-5ab8ebaadd09.jpg"",""img/0881/f6bd3b96-dc40-4e99-8681-bc3a35cf896d.jpg""]","",""
"","5225","similarity","164","1210460","0.0-6.0-158.0","6","[""img/0903/2c7b4aed-6038-4aac-958a-e3e58341c313.jpg"",""img/0902/01b41522-de46-4c3a-b0af-a61b2682b40e.jpg""]","",""
"","4837","similarity","165","1216307","0.0-6.0-159.0","3","[""img/0860/8a92e21b-6a32-4e4a-a445-2d5a487ed0a4.jpg"",""img/0764/62fafeea-6274-48ce-976f-35d3d3484c65.jpg""]","",""
"","5267","similarity","166","1222581","0.0-6.0-160.0","3","[""img/0902/27b84584-948a-485b-8749-cb09929ef631.jpg"",""img/0875/90da8d75-108a-44ad-b999-e21fee3860d3.jpg""]","",""
"","5167","similarity","167","1228759","0.0-6.0-161.0","4","[""img/0898/b2732712-71c2-45d8-834f-2b2ed5504910.jpg"",""img/0862/e0f1a4e9-e1b6-45f7-af67-89f334e6630d.jpg""]","",""
"","6110","similarity","168","1235876","0.0-6.0-162.0","3","[""img/0894/10f22b96-040c-44f4-950b-a4963f3f506c.jpg"",""img/0875/5a1e5100-0d94-4fec-bbe9-ca9894d2cf8e.jpg""]","",""
"","4764","similarity","169","1241647","0.0-6.0-163.0","4","[""img/0866/c446214b-a368-4c65-ae39-ea46894256ab.jpg"",""img/0864/1d15626a-2f7c-410f-819c-0fa2c967e95e.jpg""]","",""
"","5624","similarity","170","1248283","0.0-6.0-164.0","3","[""img/0766/d512b99c-a2dc-40d7-8e86-827323a0cbcf.jpg"",""img/0862/f188d4f0-76a4-4102-818c-a209969d73a5.jpg""]","",""
"","5344","similarity","171","1254635","0.0-6.0-165.0","5","[""img/0866/02f5e6b9-52b7-448c-9708-5b460d0c9a23.jpg"",""img/0874/85eb9b8a-c4c6-4e5a-b8e7-363a87a82054.jpg""]","",""
"","5946","similarity","172","1261590","0.0-6.0-166.0","4","[""img/0862/d0ca4c78-fc35-46ed-bdcc-8e124283c53e.jpg"",""img/0860/8fdba999-b946-4c7d-9891-336018b563ef.jpg""]","",""
"","7249","similarity","173","1290468","0.0-6.0-167.0","2","[""img/0766/00891401-e4c9-4ce1-bc19-f70740d174bc.jpg"",""img/0901/875dedb9-24c9-4443-9f8c-85e97d70ee5a.jpg""]","",""
"","6533","similarity","174","1298008","0.0-6.0-168.0","7","[""img/0862/fad1d7c1-8187-43c3-942a-0fc12183e48e.jpg"",""img/0862/064818ee-13d5-4618-bb24-21c7368ea278.jpg""]","",""
"","5074","similarity","175","1304097","0.0-6.0-169.0","5","[""img/0894/5a49e858-2850-4892-9a06-e9f0efb5f94d.jpg"",""img/0764/f64dfa83-333d-494c-87b5-73e942f1766e.jpg""]","",""
"","6383","similarity","176","1311485","0.0-6.0-170.0","6","[""img/0874/c0378dac-9370-439a-8b79-db27c96fb390.jpg"",""img/0898/26c41340-15bd-4ead-8fe4-c0d0ddca09c2.jpg""]","",""
"","13159","similarity","177","1325653","0.0-6.0-171.0","3","[""img/0860/702bd09d-df3a-40aa-a267-5f04474305b5.jpg"",""img/0766/d50d734f-285c-4840-bc7a-c8dd4aff391e.jpg""]","",""
"","5132","similarity","178","1331792","0.0-6.0-172.0","3","[""img/0898/79233891-305a-4a6a-8ddf-5c8604858203.jpg"",""img/0864/3d4de670-b290-4285-9c3d-12a0e3af44e9.jpg""]","",""
"","5260","similarity","179","1338059","0.0-6.0-173.0","5","[""img/0881/4da99fdd-1f40-4bbb-8e21-8833eef313f5.jpg"",""img/0764/1def7b22-b054-4ec2-860b-73d25691823b.jpg""]","",""
"","4849","similarity","180","1343914","0.0-6.0-174.0","3","[""img/0898/881e2a85-d5c2-49be-a0c6-8a6ce2c4af08.jpg"",""img/0868/77091fc7-a590-4ebb-b915-fdb2483a2399.jpg""]","",""
"","5219","similarity","181","1350141","0.0-6.0-175.0","6","[""img/0864/1ebbc554-99fa-49f9-8799-317375a79820.jpg"",""img/0864/e02eddb5-f468-499c-91bf-f7be3ffe979b.jpg""]","",""
"","7191","similarity","182","1358342","0.0-6.0-176.0","3","[""img/0899/a048912c-b12c-40e3-90af-46b69b0cc4fe.jpg"",""img/0862/00c06b00-3b73-44e9-bc1e-c5aafb438321.jpg""]","",""
"","5223","similarity","183","1364572","0.0-6.0-177.0","1","[""img/0875/2e13d160-eea1-416b-aff1-d37ab99ecc1d.jpg"",""img/0758/a085b443-b5d7-4cb2-9ad4-b9dab0fc23f1.jpg""]","",""
"","5332","similarity","184","1370918","0.0-6.0-178.0","1","[""img/0866/be24ab58-230e-4db8-9f45-ff04c9aec6bb.jpg"",""img/0901/62315ff5-ed95-46b4-b099-92552079659b.jpg""]","",""
"","6386","similarity","185","1378316","0.0-6.0-179.0","3","[""img/0769/3c1203c5-2ce7-466e-957a-8d77b5905460.jpg"",""img/0874/31e22c7c-99aa-40b1-bf03-dd73fa2df4d6.jpg""]","",""
"","9429","similarity","186","1388751","0.0-6.0-180.0","2","[""img/0875/99698b4d-b4a1-44bc-8c83-8ea755bbbf61.jpg"",""img/0881/c843e210-bdfe-4a7c-8bbe-fcea1f90fe1c.jpg""]","",""
"","6688","similarity","187","1396446","0.0-6.0-181.0","5","[""img/0866/386235d2-6857-41e7-88a8-25cfc3430025.jpg"",""img/0868/83b4350a-3b70-4cea-b7f5-b5b56f3050a8.jpg""]","",""
"","7484","similarity","188","1404940","0.0-6.0-182.0","3","[""img/0899/ad8268c5-8199-48d0-ad70-c5b6d6c599ec.jpg"",""img/0758/dd559618-7f09-4a07-8018-d311c4a5ea29.jpg""]","",""
"","7210","similarity","189","1413158","0.0-6.0-183.0","3","[""img/0874/93d1f8dc-acf2-4f03-bd8d-8ec35df276ed.jpg"",""img/0875/34132396-d896-4c2d-8087-646dd867e769.jpg""]","",""
"","8134","similarity","190","1422301","0.0-6.0-184.0","2","[""img/0904/25365108-e038-4021-aac9-797f2063b337.jpg"",""img/0862/cdaed51d-9e2f-4807-801a-4663c40077e2.jpg""]","",""
"","6162","similarity","191","1429474","0.0-6.0-185.0","6","[""img/0902/3b243e54-0803-4c29-af42-4037c2118495.jpg"",""img/0766/ef3b15ce-abb7-4292-ad93-aec8e8b50520.jpg""]","",""
"","4237","similarity","192","1434721","0.0-6.0-186.0","4","[""img/0758/a709631e-3705-4725-ac40-f0d916924f08.jpg"",""img/0769/b664b502-a86c-46c1-ad6f-5ebffc2e1bd3.jpg""]","",""
"","3708","similarity","193","1439440","0.0-6.0-187.0","7","[""img/0881/4bd34581-94d8-4e88-8c89-5cef864ca3be.jpg"",""img/0881/7e822106-76f7-4b10-a805-14dc68b2cfaf.jpg""]","",""
"","4179","similarity","194","1444629","0.0-6.0-188.0","4","[""img/0758/e38fd80d-18d0-42f3-b848-f930788e8bd7.jpg"",""img/0866/9b38d691-1802-4959-ab3f-fc902f0e4ea6.jpg""]","",""
"","4733","similarity","195","1450370","0.0-6.0-189.0","5","[""img/0764/c80b3e06-2ee3-4326-9678-340607eb5348.jpg"",""img/0898/0af304a2-6a7a-4082-ab7c-4450cd08cc58.jpg""]","",""
"","5373","similarity","196","1456748","0.0-6.0-190.0","4","[""img/0903/5248eedd-7e6a-4d39-91b0-06ec227f3ed0.jpg"",""img/0901/b453df0b-4c39-49bb-8ced-6127efffa898.jpg""]","",""
"","3863","similarity","197","1461618","0.0-6.0-191.0","7","[""img/0902/6c2c243a-f663-45db-baf5-038d3d58c589.jpg"",""img/0898/a114b375-cb89-44ba-9498-74213f1ecdee.jpg""]","",""
"","4569","similarity","198","1467199","0.0-6.0-192.0","2","[""img/0864/afcba0a3-7e27-4757-b254-e9f05fad27e2.jpg"",""img/0901/f469cb1d-6d81-4a45-bab5-cd0b650c2b4f.jpg""]","",""
"","5882","similarity","199","1474088","0.0-6.0-193.0","4","[""img/0894/792c83e9-a747-4000-bc72-5663d2439edb.jpg"",""img/0881/48ed65a5-471f-41af-86ec-3793805c116d.jpg""]","",""
"","1280","similarity","200","1476382","0.0-6.0-194.0","4","[""img/0868/d6d1f30d-4323-435a-b194-7892521bc57e.jpg"",""img/0868/179a5502-ab5c-478e-8263-5a1fbcc101d2.jpg""]","",""
"","8672","similarity","201","1486061","0.0-6.0-195.0","5","[""img/0899/f95cbdb4-f804-4f5d-ad76-373ad343e658.jpg"",""img/0764/5d83b9db-3b2b-4dc8-9bd1-2b515b19c858.jpg""]","",""
"","4326","similarity","202","1491398","0.0-6.0-196.0","2","[""img/0881/dea58fad-b4f1-41d9-bd3f-916eff19a3fd.jpg"",""img/0904/6291eb43-c10c-4810-a36a-101d09868b04.jpg""]","",""
"","8901","similarity","203","1501307","0.0-6.0-197.0","4","[""img/0864/6e846d43-94a6-4b37-a268-65eda979f052.jpg"",""img/0902/c9c74d2d-9b82-42d7-a9d0-3b8ff67ff81e.jpg""]","",""
"","5556","similarity","204","1507872","0.0-6.0-198.0","4","[""img/0894/661b9f9f-4bde-487a-b1ed-87085fde6948.jpg"",""img/0904/696ebb60-8891-417a-91fd-c53218907a95.jpg""]","",""
"","3358","similarity","205","1512238","0.0-6.0-199.0","7","[""img/0901/5657dd86-0ff9-4753-ba2b-9dfb223e5c89.jpg"",""img/0901/548d1110-7cb8-42a2-9927-9798875c8b5c.jpg""]","",""
"","4468","similarity","206","1517711","0.0-6.0-200.0","3","[""img/0894/133a1636-d123-4893-873c-1718050f832a.jpg"",""img/0860/4f695df5-afac-4da7-9875-fee39b0b24ad.jpg""]","",""
"","3113","similarity","207","1521834","0.0-6.0-201.0","6","[""img/0898/5f699581-3853-4547-856c-12f419ba5af7.jpg"",""img/0903/f67c4ab9-f8c2-4fcd-848a-a54a7b031002.jpg""]","",""
"","4532","similarity","208","1527377","0.0-6.0-202.0","2","[""img/0864/da39ad34-04e0-40d4-a724-c08d53e0ea09.jpg"",""img/0894/5ff3c4f6-52e2-4075-8679-be0312e59703.jpg""]","",""
"","5033","similarity","209","1533419","0.0-6.0-203.0","1","[""img/0874/29830da7-be5f-44e5-b141-652a0ccf7269.jpg"",""img/0860/f44ba3fb-03a2-42f0-8509-2c1ded493086.jpg""]","",""
"","4774","similarity","210","1539198","0.0-6.0-204.0","2","[""img/0862/fb26cb07-d5a9-4653-813c-f41609f26cd5.jpg"",""img/0875/5a716432-c6ca-4b1c-955a-2b8ac25198ee.jpg""]","",""
"","4592","similarity","211","1544802","0.0-6.0-205.0","1","[""img/0867/ac1797e4-8afc-48fe-b252-86d1defb1cca.jpg"",""img/0881/292e9b4b-fca0-4ba8-87f1-4048f9e37b7d.jpg""]","",""
"","4021","similarity","212","1549829","0.0-6.0-206.0","5","[""img/0901/1ede21d9-384f-4150-86b5-e1c57b5dc1d4.jpg"",""img/0902/cf9dee9c-2bdf-4d64-9302-97f1660fe52c.jpg""]","",""
"","5109","similarity","213","1555944","0.0-6.0-207.0","2","[""img/0899/66ab3178-c3fe-4455-ad17-d5952b08e018.jpg"",""img/0864/4bd81bc6-c13d-46df-95a9-485886dc7c1b.jpg""]","",""
"","6745","similarity","214","1563697","0.0-6.0-208.0","5","[""img/0901/a6c90438-fa7c-4418-ac7c-16c2e772dd98.jpg"",""img/0769/38a88f69-28fd-4bbd-99f0-f4c02bfd3995.jpg""]","",""
"","5050","similarity","215","1584271","0.0-6.0-209.0","6","[""img/0902/d5e25767-e8ec-45f3-ac0a-7b4a6f7a9edc.jpg"",""img/0902/b03129ba-b087-4558-af37-e8399d6217d6.jpg""]","",""
"[{""page_index"":0,""viewing_time"":8009}]","8010","instructions","216","1593283","0.0-7.0","","","",""
"","47623","image-multi-choice","217","1641953","0.0-8.0-0.0","","","{""Q0"":""Orange-crowned Warbler""}","Nashville Warbler"
"","13594","image-multi-choice","218","1656576","0.0-8.0-1.0","","","{""Q0"":""Blackburnian Warbler""}","Black-and-white Warbler"
"","12457","image-multi-choice","219","1670059","0.0-8.0-2.0","","","{""Q0"":""Black-and-white Warbler""}","Townsend's Warbler"
"","10835","image-multi-choice","220","1681921","0.0-8.0-3.0","","","{""Q0"":""Lark Sparrow""}","Lark Sparrow"
"","6519","image-multi-choice","221","1689470","0.0-8.0-4.0","","","{""Q0"":""Yellow Warbler""}","Yellow Warbler"
"","49945","image-multi-choice","222","1740426","0.0-8.0-5.0","","","{""Q0"":""Townsend's Warbler""}","Orange-crowned Warbler"
"","7808","image-multi-choice","223","1749258","0.0-8.0-6.0","","","{""Q0"":""White-throated Sparrow""}","White-throated Sparrow"
"","14352","image-multi-choice","224","1764626","0.0-8.0-7.0","","","{""Q0"":""Fox Sparrow""}","Fox Sparrow"
"","38175","image-multi-choice","225","1803825","0.0-8.0-8.0","","","{""Q0"":""Song Sparrow""}","Song Sparrow"
"","19673","image-multi-choice","226","1824529","0.0-8.0-9.0","","","{""Q0"":""Magnolia Warbler""}","Blackburnian Warbler"
"","28171","image-multi-choice","227","1853736","0.0-8.0-10.0","","","{""Q0"":""Lincoln's Sparrow""}","Vesper Sparrow"
"","5147","image-multi-choice","228","1859907","0.0-8.0-11.0","","","{""Q0"":""White-crowned Sparrow""}","White-crowned Sparrow"
"","8872","image-multi-choice","229","1869809","0.0-8.0-12.0","","","{""Q0"":""Chipping Sparrow""}","American Tree Sparrow"
"","12675","image-multi-choice","230","1883506","0.0-8.0-13.0","","","{""Q0"":""Nashville Warbler""}","Tennessee Warbler"
"","12470","image-multi-choice","231","1897002","0.0-8.0-14.0","","","{""Q0"":""Blackburnian Warbler""}","Magnolia Warbler"
"","37454","image-multi-choice","232","1935483","0.0-8.0-15.0","","","{""Q0"":""Ovenbird""}","Northern Waterthrush"
"","14999","image-multi-choice","233","1951518","0.0-8.0-16.0","","","{""Q0"":""American Tree Sparrow""}","Chipping Sparrow"
"","19094","image-multi-choice","234","1971639","0.0-8.0-17.0","","","{""Q0"":""Lincoln's Sparrow""}","Swamp Sparrow"
"","29290","image-multi-choice","235","2001958","0.0-8.0-18.0","","","{""Q0"":""Swamp Sparrow""}","Lincoln's Sparrow"
"","15895","image-multi-choice","236","2018892","0.0-8.0-19.0","","","{""Q0"":""Ovenbird""}","Ovenbird"
