"view_history","rt","trial_type","trial_index","time_elapsed","internal_node_id","sim_score","stimulus","responses","answer"
"[{""page_index"":0,""viewing_time"":13136}]","13137","instructions","0","13139","0.0-0.0","","","",""
"","8092","similarity_demo","1","22245","0.0-1.0","1","[""img/866.jpg"",""img/868.jpg""]","",""
"[{""page_index"":0,""viewing_time"":12518}]","12519","instructions","2","35765","0.0-2.0","","","",""
"","6320","similarity_demo","3","43093","0.0-3.0","1","[""img/766.jpg"",""img/867.jpg""]","",""
"[{""page_index"":0,""viewing_time"":5996}]","5997","instructions","4","50091","0.0-4.0","","","",""
"[{""page_index"":0,""viewing_time"":16811}]","16811","instructions","5","67902","0.0-5.0","","","",""
"","7727","similarity","6","76639","0.0-6.0-0.0","3","[""img/0868/83b4350a-3b70-4cea-b7f5-b5b56f3050a8.jpg"",""img/0901/ae1e6ce4-2e10-4ca9-b1e7-21628637ab74.jpg""]","",""
"","6314","similarity","7","83961","0.0-6.0-1.0","5","[""img/0769/9ea9ceb6-049e-4ad9-be8f-00645cd35803.jpg"",""img/0867/7d1c497b-c1b3-4ed8-abb5-d7f73306015f.jpg""]","",""
"","5559","similarity","8","90529","0.0-6.0-2.0","2","[""img/0766/51d3aab4-3d09-4dda-b99d-3dc7aaabc6f2.jpg"",""img/0898/881e2a85-d5c2-49be-a0c6-8a6ce2c4af08.jpg""]","",""
"","6362","similarity","9","97898","0.0-6.0-3.0","5","[""img/0902/cf9dee9c-2bdf-4d64-9302-97f1660fe52c.jpg"",""img/0881/2a8413be-fec2-4de6-88ad-614dd4cccc9d.jpg""]","",""
"","6137","similarity","10","105044","0.0-6.0-4.0","5","[""img/0894/2d2db7b3-e8a3-499b-b63a-14f51bf73882.jpg"",""img/0894/e2446cf5-cd48-486a-badc-76498e087fbe.jpg""]","",""
"","5106","similarity","11","111156","0.0-6.0-5.0","7","[""img/0874/ca76a855-4e77-4f2f-872a-0a718153e7ed.jpg"",""img/0899/51a7a498-98c7-42d7-bca8-bc2d8f0b5831.jpg""]","",""
"","5638","similarity","12","117800","0.0-6.0-6.0","5","[""img/0904/06dacdc5-2206-4fb8-92b7-88042d22833c.jpg"",""img/0764/4bec8d92-75aa-475a-954d-8215dbe538f5.jpg""]","",""
"","5135","similarity","13","123943","0.0-6.0-7.0","7","[""img/0899/1b3457ea-87d4-4946-a01c-aac1863ed46c.jpg"",""img/0898/a114b375-cb89-44ba-9498-74213f1ecdee.jpg""]","",""
"","7124","similarity","14","132075","0.0-6.0-8.0","3","[""img/0874/7e4f2150-3b59-4a36-b5da-a4e0ba410531.jpg"",""img/0903/150cf64c-0bd2-4674-abbb-a1387cf1f3e9.jpg""]","",""
"","5419","similarity","15","138502","0.0-6.0-9.0","4","[""img/0881/405484ae-0d00-4b05-bc57-6420a36adfac.jpg"",""img/0758/20497cbe-ddae-489e-86e2-ab06985ed07c.jpg""]","",""
"","5378","similarity","16","144888","0.0-6.0-10.0","5","[""img/0898/81b08535-2020-4c15-9ce4-2f1e460755ae.jpg"",""img/0901/04a53755-6da5-44d4-a7a6-48a6bc0a2280.jpg""]","",""
"","4501","similarity","17","150397","0.0-6.0-11.0","2","[""img/0903/a0673b55-6040-47fe-9040-24bca27ca3c9.jpg"",""img/0769/1ca58b80-2365-446d-9616-6c1719e6c46f.jpg""]","",""
"","3326","similarity","18","154730","0.0-6.0-12.0","2","[""img/0764/5c8fbafc-e62e-43ed-9b37-f73e8e45147d.jpg"",""img/0868/0d3abd3a-b6c3-4584-a9f7-e2da63748b3d.jpg""]","",""
"","5236","similarity","19","160973","0.0-6.0-13.0","2","[""img/0867/f26f6b60-f772-4f4c-95a4-addc62cfd692.jpg"",""img/0903/39365c8e-a733-4801-ac7d-b87e38c3784b.jpg""]","",""
"","3212","similarity","20","165193","0.0-6.0-14.0","2","[""img/0766/af3be95e-e52e-4fae-899b-0ff02ec340aa.jpg"",""img/0758/ddc336e9-a8b6-4bb9-937a-c7e25e0e9250.jpg""]","",""
"","4834","similarity","21","171032","0.0-6.0-15.0","2","[""img/0902/418b716e-63e5-4c77-93e9-95b1f5a3ddf0.jpg"",""img/0860/4a022222-056d-461c-ab02-39fac9647552.jpg""]","",""
"","5154","similarity","22","177193","0.0-6.0-16.0","2","[""img/0769/f73c5138-2f4c-4354-981c-129dff9cc734.jpg"",""img/0875/34132396-d896-4c2d-8087-646dd867e769.jpg""]","",""
"","5232","similarity","23","183431","0.0-6.0-17.0","2","[""img/0904/1d10df11-b5c8-4370-9a6b-097a7f965895.jpg"",""img/0866/be24ab58-230e-4db8-9f45-ff04c9aec6bb.jpg""]","",""
"","4504","similarity","24","188940","0.0-6.0-18.0","7","[""img/0875/527ced51-8e53-4aab-ab05-86df219104c0.jpg"",""img/0875/3ecb367d-e9eb-4826-8aaa-7aa72fb98019.jpg""]","",""
"","4407","similarity","25","194356","0.0-6.0-19.0","7","[""img/0758/7ee8bc8f-c40b-4b3a-84ec-3e83580622d4.jpg"",""img/0758/2fa3e613-e676-4e6e-bd12-705327eeb3e1.jpg""]","",""
"","3723","similarity","26","199087","0.0-6.0-20.0","1","[""img/0902/31abfa33-7cdb-44ad-968e-9f7b324d577a.jpg"",""img/0874/995f0332-0439-4eb4-add3-957335dbf6d9.jpg""]","",""
"","5524","similarity","27","205618","0.0-6.0-21.0","2","[""img/0764/6fbd1902-fa2a-48d8-bc11-705b8ab68d8f.jpg"",""img/0769/8056889f-2b14-4782-bb25-b4e8896ab65b.jpg""]","",""
"","9644","similarity","28","216269","0.0-6.0-22.0","3","[""img/0901/3db47171-0139-4235-82cd-0b1787b6775f.jpg"",""img/0874/eba003b4-cdab-4eee-8bc3-f064c7d94165.jpg""]","",""
"","4026","similarity","29","221302","0.0-6.0-23.0","2","[""img/0875/42910c99-5463-450a-a0f8-d4d060a11455.jpg"",""img/0903/8f7f9939-b8e6-433f-93dd-b362496c80a7.jpg""]","",""
"","3328","similarity","30","225638","0.0-6.0-24.0","2","[""img/0769/0fe124d3-bcad-45f6-b64d-8f6eb8ee5251.jpg"",""img/0881/0c7068da-d0d9-4103-bda1-74ef7a2b32c3.jpg""]","",""
"","3280","similarity","31","229926","0.0-6.0-25.0","2","[""img/0867/98d8cd96-1476-4fe0-a3a3-04f875500a1b.jpg"",""img/0904/0d17b811-063e-416e-a23c-3b3cfa4fcce5.jpg""]","",""
"","3105","similarity","32","234037","0.0-6.0-26.0","2","[""img/0860/524b2e98-5767-4d53-942c-ebae6925659b.jpg"",""img/0881/dea58fad-b4f1-41d9-bd3f-916eff19a3fd.jpg""]","",""
"","5954","similarity","33","240998","0.0-6.0-27.0","3","[""img/0866/386235d2-6857-41e7-88a8-25cfc3430025.jpg"",""img/0866/945c6710-d15b-4a5b-a8f6-69af0850357f.jpg""]","",""
"","5122","similarity","34","247130","0.0-6.0-28.0","2","[""img/0764/bd2eaa3e-95a9-4a59-a78e-3f81c766eea9.jpg"",""img/0862/53a9cf7c-93c4-41b9-952f-07d17f7a17b2.jpg""]","",""
"","3327","similarity","35","251464","0.0-6.0-29.0","2","[""img/0904/e9423a8c-f946-43ad-ab7b-931acef870e2.jpg"",""img/0758/f61ecdf8-a7d4-4db0-b84d-be46f7cfaffc.jpg""]","",""
"","4028","similarity","36","256500","0.0-6.0-30.0","5","[""img/0894/792c83e9-a747-4000-bc72-5663d2439edb.jpg"",""img/0899/06b0fc99-0581-461a-9913-d1a5a941ac61.jpg""]","",""
"","3663","similarity","37","261170","0.0-6.0-31.0","1","[""img/0860/c7047cd2-7cc1-41b6-8a34-c0986774975f.jpg"",""img/0904/9b3568cc-3cf7-42be-9df3-fdafde7a58b8.jpg""]","",""
"","2957","similarity","38","265135","0.0-6.0-32.0","2","[""img/0874/767f289c-9814-4496-803f-745cc8913d1f.jpg"",""img/0881/62a64f90-7a72-4aee-a1a1-0c548ac9bdda.jpg""]","",""
"","4756","similarity","39","270899","0.0-6.0-33.0","2","[""img/0881/633c6f40-56d9-4b48-bf1c-ecd83116eabb.jpg"",""img/0899/a048912c-b12c-40e3-90af-46b69b0cc4fe.jpg""]","",""
"","4509","similarity","40","276416","0.0-6.0-34.0","3","[""img/0866/c446214b-a368-4c65-ae39-ea46894256ab.jpg"",""img/0862/e697469a-ec19-4414-b972-7b9f3564785b.jpg""]","",""
"","4316","similarity","41","281738","0.0-6.0-35.0","3","[""img/0868/293079b8-7e0c-4afd-a390-1e5d35fe3ded.jpg"",""img/0894/11674fa4-285d-44e2-939f-2228c6a64080.jpg""]","",""
"","3348","similarity","42","286093","0.0-6.0-36.0","7","[""img/0860/4f695df5-afac-4da7-9875-fee39b0b24ad.jpg"",""img/0860/702bd09d-df3a-40aa-a267-5f04474305b5.jpg""]","",""
"","4244","similarity","43","291344","0.0-6.0-37.0","5","[""img/0862/00c06b00-3b73-44e9-bc1e-c5aafb438321.jpg"",""img/0864/c3b63e8f-ea39-4d70-a1f2-b3fe4be8eb75.jpg""]","",""
"","7149","similarity","44","299500","0.0-6.0-38.0","3","[""img/0766/09f646c8-a69e-4ed3-879c-8d29b04ad7f9.jpg"",""img/0866/d493a2c8-66eb-44b4-be02-2f327b700b7c.jpg""]","",""
"","3100","similarity","45","303607","0.0-6.0-39.0","4","[""img/0875/90da8d75-108a-44ad-b999-e21fee3860d3.jpg"",""img/0898/993d8f2d-bef7-4251-a193-0f93a32b7763.jpg""]","",""
"","4209","similarity","46","308823","0.0-6.0-40.0","3","[""img/0766/75c3d627-4f3b-40d5-9d9c-10c8a62db644.jpg"",""img/0769/a1ce8d07-ba37-40de-bade-2778805521e0.jpg""]","",""
"","3614","similarity","47","321927","0.0-6.0-41.0","7","[""img/0874/c0378dac-9370-439a-8b79-db27c96fb390.jpg"",""img/0764/83c93cce-18d1-4aa7-9e23-2c268afe0a46.jpg""]","",""
"","4604","similarity","48","327538","0.0-6.0-42.0","4","[""img/0868/e0aff734-077f-40dd-9781-74821abd3621.jpg"",""img/0902/eb3e7e71-8ff1-4b88-a6a7-47e2c1ce1683.jpg""]","",""
"","3861","similarity","49","332406","0.0-6.0-43.0","1","[""img/0875/d59ff733-eaff-4ee2-9443-06954dd0bcb6.jpg"",""img/0899/b45c550b-96c3-4255-ad59-48a2b4db1c1e.jpg""]","",""
"","4065","similarity","50","337479","0.0-6.0-44.0","2","[""img/0866/d266fece-59b3-46fa-b69f-96f6efb81b59.jpg"",""img/0860/f44ba3fb-03a2-42f0-8509-2c1ded493086.jpg""]","",""
"","3364","similarity","51","341849","0.0-6.0-45.0","1","[""img/0766/91fc8c4d-862f-4d2b-b1a1-2db8d729b6b7.jpg"",""img/0903/43ffd882-077a-40dd-a264-e58d519420a1.jpg""]","",""
"","4208","similarity","52","347064","0.0-6.0-46.0","3","[""img/0901/b453df0b-4c39-49bb-8ced-6127efffa898.jpg"",""img/0904/b5855d6a-7ef9-46ca-9215-6e9fa046e543.jpg""]","",""
"","4918","similarity","53","352991","0.0-6.0-47.0","6","[""img/0758/67c0be2f-9e91-48b3-8219-70ac0a1802fa.jpg"",""img/0902/30c420f5-c714-4681-ae5a-c0ba8f636a26.jpg""]","",""
"","3749","similarity","54","357747","0.0-6.0-48.0","7","[""img/0764/f64dfa83-333d-494c-87b5-73e942f1766e.jpg"",""img/0764/e30dba15-e68a-4659-89db-e1654b52fe02.jpg""]","",""
"","4175","similarity","55","362930","0.0-6.0-49.0","5","[""img/0866/11a1d141-be5e-443c-98c1-a9d4d9e3dec0.jpg"",""img/0902/d3e55000-c839-4bf9-9b9b-4af0a9925af1.jpg""]","",""
"","3697","similarity","56","367635","0.0-6.0-50.0","1","[""img/0764/c80b3e06-2ee3-4326-9678-340607eb5348.jpg"",""img/0758/a085b443-b5d7-4cb2-9ad4-b9dab0fc23f1.jpg""]","",""
"","5435","similarity","57","374076","0.0-6.0-51.0","4","[""img/0898/8605a25b-6895-476d-8c13-df7a83f96093.jpg"",""img/0894/38cf335f-f76f-4349-8d65-e20cd6859565.jpg""]","",""
"","5135","similarity","58","380216","0.0-6.0-52.0","5","[""img/0875/2c361b79-c3d1-4eda-812e-bf03192407bf.jpg"",""img/0866/620cd1aa-0800-4414-8f6e-90342e7a99ad.jpg""]","",""
"","4747","similarity","59","385970","0.0-6.0-53.0","5","[""img/0904/d23dd7be-7fe8-4435-82f7-bd592c01e6a1.jpg"",""img/0904/24fc38fe-842c-4831-ad8a-b1de5c25c0a8.jpg""]","",""
"","3335","similarity","60","390311","0.0-6.0-54.0","7","[""img/0769/878531fd-e0e8-4ad1-b9ad-f018bb104ca0.jpg"",""img/0769/f2740c58-7c02-433f-920b-746b0b75435b.jpg""]","",""
"","4481","similarity","61","395800","0.0-6.0-55.0","3","[""img/0898/04e39a7a-fcf6-4156-ab0e-f5871f335e1c.jpg"",""img/0758/e38fd80d-18d0-42f3-b848-f930788e8bd7.jpg""]","",""
"","6092","similarity","62","402899","0.0-6.0-56.0","4","[""img/0769/7c50e5f5-cc38-4d48-b009-fbe17bcea61c.jpg"",""img/0902/fbef27fa-ac83-4936-ab78-9d1c20a383e1.jpg""]","",""
"","3636","similarity","63","407540","0.0-6.0-57.0","7","[""img/0864/65210d57-1153-4657-886a-32e758f49b4a.jpg"",""img/0881/44e09805-5a25-4f17-a716-4ad4a331b174.jpg""]","",""
"","3214","similarity","64","411761","0.0-6.0-58.0","1","[""img/0758/a709631e-3705-4725-ac40-f0d916924f08.jpg"",""img/0868/179a5502-ab5c-478e-8263-5a1fbcc101d2.jpg""]","",""
"","5099","similarity","65","417959","0.0-6.0-59.0","5","[""img/0862/064818ee-13d5-4618-bb24-21c7368ea278.jpg"",""img/0769/965c3c44-d9e5-47c5-b61a-2bbdf4215d9a.jpg""]","",""
"","4009","similarity","66","422975","0.0-6.0-60.0","6","[""img/0764/e0788029-9d7f-414c-b747-46d2a99f7c86.jpg"",""img/0903/ea75f240-fb62-4edb-a709-83e858b202c0.jpg""]","",""
"","4812","similarity","67","428793","0.0-6.0-61.0","7","[""img/0899/ad8268c5-8199-48d0-ad70-c5b6d6c599ec.jpg"",""img/0899/00715b3f-851b-420b-a26b-d7f79f7759a9.jpg""]","",""
"","3710","similarity","68","433508","0.0-6.0-62.0","2","[""img/0860/c47fdead-eb02-4989-b078-26f4852f44fe.jpg"",""img/0875/99698b4d-b4a1-44bc-8c83-8ea755bbbf61.jpg""]","",""
"","3007","similarity","69","437523","0.0-6.0-63.0","1","[""img/0868/fd307a36-9a3a-47d7-ab7c-f810d0b35040.jpg"",""img/0874/99f6563c-8a8d-4c1c-a41d-667b618c3fd5.jpg""]","",""
"","3383","similarity","70","441915","0.0-6.0-64.0","1","[""img/0758/53f35650-e455-4b53-8be4-c3c8271c6466.jpg"",""img/0862/47ed5efd-4ec9-4b74-bb4e-a5f5cf0c3e7d.jpg""]","",""
"","5285","similarity","71","448206","0.0-6.0-65.0","4","[""img/0904/a8c3c7d2-9bcf-4347-9e03-8203adfc1fc5.jpg"",""img/0898/82231d4c-218b-4d0a-b50d-35a49b524e97.jpg""]","",""
"","2774","similarity","72","451986","0.0-6.0-66.0","1","[""img/0881/f6bd3b96-dc40-4e99-8681-bc3a35cf896d.jpg"",""img/0866/9b38d691-1802-4959-ab3f-fc902f0e4ea6.jpg""]","",""
"","5249","similarity","73","458242","0.0-6.0-67.0","3","[""img/0867/85a96c62-548f-4994-9553-819e03c3135a.jpg"",""img/0898/79233891-305a-4a6a-8ddf-5c8604858203.jpg""]","",""
"","4902","similarity","74","464151","0.0-6.0-68.0","6","[""img/0902/7499db23-3a41-41ea-ab5b-6ab4d4c3ed35.jpg"",""img/0764/29072395-f595-4e3c-83d3-ff87010039fa.jpg""]","",""
"","3998","similarity","75","469156","0.0-6.0-69.0","6","[""img/0875/5a716432-c6ca-4b1c-955a-2b8ac25198ee.jpg"",""img/0867/1719a35d-f085-48c0-9099-16c94fe418b4.jpg""]","",""
"","5192","similarity","76","475367","0.0-6.0-70.0","5","[""img/0766/33aa9ebb-c9f5-418f-8c8b-c77861889568.jpg"",""img/0764/bc3865c9-9004-4582-88a7-048478673f97.jpg""]","",""
"","4693","similarity","77","481066","0.0-6.0-71.0","6","[""img/0894/05161000-f476-499b-a878-c13c7f347fd9.jpg"",""img/0867/6e19c858-b606-45b2-a4c6-910a73f1d82c.jpg""]","",""
"","3030","similarity","78","485103","0.0-6.0-72.0","2","[""img/0875/2e13d160-eea1-416b-aff1-d37ab99ecc1d.jpg"",""img/0764/a86eed5b-d0af-4c3f-8c7a-26e98e98cf1a.jpg""]","",""
"","3197","similarity","79","489309","0.0-6.0-73.0","3","[""img/0867/cc72ed48-7704-422c-86d6-467a1145287a.jpg"",""img/0866/02f5e6b9-52b7-448c-9708-5b460d0c9a23.jpg""]","",""
"","5402","similarity","80","495716","0.0-6.0-74.0","6","[""img/0903/45e2d600-57ff-4d69-b22c-0c7896cd38f0.jpg"",""img/0758/335851a0-a55b-46d8-ab05-8463eda48349.jpg""]","",""
"","3402","similarity","81","500126","0.0-6.0-75.0","2","[""img/0766/ae0fce93-fe8d-4aa1-87ca-4c3e4b889f2f.jpg"",""img/0868/1a62b2b2-18f5-466e-b564-5176a57c565e.jpg""]","",""
"","7193","similarity","82","508324","0.0-6.0-76.0","3","[""img/0874/3ce41e7c-40c8-4d58-a546-171114521796.jpg"",""img/0766/f011ef45-fb48-44b8-8224-867ed2ccf786.jpg""]","",""
"","3891","similarity","83","513222","0.0-6.0-77.0","1","[""img/0881/ee44e27f-d662-4608-b265-e7ffa19b216f.jpg"",""img/0868/4e626425-63c8-484a-8a1d-e66ee4e0bef8.jpg""]","",""
"","3776","similarity","84","518003","0.0-6.0-78.0","1","[""img/0758/9fb5b2fe-3f00-4fe6-973c-1ce10d5f4cd5.jpg"",""img/0901/875dedb9-24c9-4443-9f8c-85e97d70ee5a.jpg""]","",""
"","5901","similarity","85","524914","0.0-6.0-79.0","3","[""img/0881/14236cf2-6b95-48b8-9368-78af09d2d27f.jpg"",""img/0898/08c72dac-f8ad-407a-9ce6-8c9a5d679c3a.jpg""]","",""
"","4011","similarity","86","529930","0.0-6.0-80.0","1","[""img/0867/2e1a0b58-cdb1-4107-a14e-452530d7b9b0.jpg"",""img/0758/caa93da2-9edf-49fa-96b9-32dedd8f5078.jpg""]","",""
"","3866","similarity","87","534803","0.0-6.0-81.0","2","[""img/0769/35f2dd39-40aa-498e-b401-9f1ef2622d00.jpg"",""img/0899/7f9d45d0-b2c6-40d3-aa41-c207db2c411b.jpg""]","",""
"","4553","similarity","88","540360","0.0-6.0-82.0","6","[""img/0903/f1fa0f8d-e62b-4b4a-a174-31a0fabfe61b.jpg"",""img/0903/36e4ab1f-caa9-40b3-8616-faada076df94.jpg""]","",""
"","4510","similarity","89","552940","0.0-6.0-83.0","1","[""img/0867/ac1797e4-8afc-48fe-b252-86d1defb1cca.jpg"",""img/0766/908bc45b-7c9e-4f95-806e-86b196ebcb2c.jpg""]","",""
"","3840","similarity","90","557787","0.0-6.0-84.0","5","[""img/0902/ca3160ba-ad5d-459f-a1b6-8b4f3c85ecd5.jpg"",""img/0867/12264664-1860-46df-8c21-162b9817cdda.jpg""]","",""
"","3903","similarity","91","562697","0.0-6.0-85.0","3","[""img/0901/c6df1a21-44ed-47c2-960e-7c52220e329e.jpg"",""img/0875/e7e66b13-b573-431e-b85e-288ce04a35a3.jpg""]","",""
"","4610","similarity","92","568314","0.0-6.0-86.0","4","[""img/0764/c643e165-df19-459f-8c2b-8357bf432a17.jpg"",""img/0866/93a27239-8317-4e08-98ca-d8b1ff298e07.jpg""]","",""
"","5294","similarity","93","574614","0.0-6.0-87.0","4","[""img/0901/5b97abf9-f0c8-4fd1-b921-36d574779078.jpg"",""img/0894/b2d2f66e-e480-46da-a02a-6d0c6b285d78.jpg""]","",""
"","5736","similarity","94","581356","0.0-6.0-88.0","5","[""img/0898/661621d4-a14e-487c-8c74-354134a29710.jpg"",""img/0769/f6396414-6788-4d59-9683-de153298d89c.jpg""]","",""
"","4302","similarity","95","586665","0.0-6.0-89.0","6","[""img/0769/3adfa417-3b90-4aab-b437-5eaa474189cb.jpg"",""img/0894/bd34223a-2f66-4e16-9d18-193a746b69ff.jpg""]","",""
"","5193","similarity","96","592865","0.0-6.0-90.0","1","[""img/0862/92f0146c-20c4-482e-aef5-adb693790338.jpg"",""img/0874/29830da7-be5f-44e5-b141-652a0ccf7269.jpg""]","",""
"","4149","similarity","97","598020","0.0-6.0-91.0","5","[""img/0894/43216a7f-27bc-4b5a-8841-d122a30da9d9.jpg"",""img/0766/0b48f9e0-7d37-4161-8adb-4e3f5b6b7583.jpg""]","",""
"","3164","similarity","98","602189","0.0-6.0-92.0","2","[""img/0874/31e22c7c-99aa-40b1-bf03-dd73fa2df4d6.jpg"",""img/0867/bf560d4f-dee3-4f11-a385-705cc1aa5f3c.jpg""]","",""
"","3281","similarity","99","606475","0.0-6.0-93.0","2","[""img/0899/8de08897-b430-42fe-9d42-840670b80f94.jpg"",""img/0868/5fa7f9d0-f0e5-454c-8224-74d964818f56.jpg""]","",""
"","4337","similarity","100","611821","0.0-6.0-94.0","1","[""img/0903/0fb24af7-9a26-4e9d-aadc-959a36f683e2.jpg"",""img/0862/99a99e39-8355-44ec-b993-e7bcec111e1c.jpg""]","",""
"","5012","similarity","101","617839","0.0-6.0-95.0","2","[""img/0899/f58b8d2f-b19d-4b59-8b94-8834be92e4ba.jpg"",""img/0766/e8052e17-9dae-4139-802b-6e590cb2d526.jpg""]","",""
"","3181","similarity","102","622025","0.0-6.0-96.0","6","[""img/0867/179ab87a-8eac-4c52-a41f-2e48e3120f09.jpg"",""img/0868/d98ca254-b195-477f-b57e-5760a2717db8.jpg""]","",""
"","3349","similarity","103","626379","0.0-6.0-97.0","1","[""img/0862/57b6f83f-c763-4858-830d-102f97bfefbf.jpg"",""img/0901/31c032fd-3c3d-4882-a226-da9a80198937.jpg""]","",""
"","3896","similarity","104","631281","0.0-6.0-98.0","1","[""img/0875/dbdd643e-6d0e-4a5c-ab57-b9c29b9c981a.jpg"",""img/0766/214866ee-423d-4629-9bb9-41572bdc7dac.jpg""]","",""
"","5250","similarity","105","637538","0.0-6.0-99.0","7","[""img/0758/d540bee6-b460-4c32-ac57-bc282742d7d4.jpg"",""img/0874/a82926a3-0b43-4add-803c-d5f9ea7798ee.jpg""]","",""
"","6932","similarity","106","645478","0.0-6.0-100.0","5","[""img/0904/60d1a521-edf7-4696-9263-f21ac0e62a01.jpg"",""img/0868/8b0b8473-e2c0-4331-aa56-c3a5c29369da.jpg""]","",""
"","5262","similarity","107","651748","0.0-6.0-101.0","4","[""img/0903/8fcafe03-43df-4c45-9da5-0df3a1eeccc5.jpg"",""img/0866/07c9c966-3c8d-40e7-8128-92b2acbaed5d.jpg""]","",""
"","5848","similarity","108","658602","0.0-6.0-102.0","2","[""img/0868/6a28c3b0-3d76-498a-9fb7-ddafc665eca8.jpg"",""img/0769/662ab839-88d1-4ebf-af05-9b2980cad943.jpg""]","",""
"","4441","similarity","109","664049","0.0-6.0-103.0","5","[""img/0902/6730b12a-f0a7-4587-8c10-a32fae16565b.jpg"",""img/0899/fd9efb43-701f-4cd6-baaa-4c38315f4bdc.jpg""]","",""
"","3508","similarity","110","668563","0.0-6.0-104.0","1","[""img/0868/c8ac40c7-6904-4e13-8d61-c75d3052dc4e.jpg"",""img/0862/5d887e9f-89e2-4ebc-80a0-6d46fe6480db.jpg""]","",""
"","5678","similarity","111","675246","0.0-6.0-105.0","2","[""img/0903/07b445ee-0cdb-4d2c-a23b-d727613f4059.jpg"",""img/0894/7dd6ff43-f8fc-408a-8a41-a2b261871820.jpg""]","",""
"","4326","similarity","112","680578","0.0-6.0-106.0","2","[""img/0864/efcfbb1b-8197-44c9-b723-40d6c608dd3c.jpg"",""img/0874/93d1f8dc-acf2-4f03-bd8d-8ec35df276ed.jpg""]","",""
"","5585","similarity","113","687168","0.0-6.0-107.0","2","[""img/0862/d0ca4c78-fc35-46ed-bdcc-8e124283c53e.jpg"",""img/0902/8af4182a-9af9-4212-a436-9195555112d6.jpg""]","",""
"","4505","similarity","114","692680","0.0-6.0-108.0","6","[""img/0904/6291eb43-c10c-4810-a36a-101d09868b04.jpg"",""img/0903/680ed18e-b311-4ecf-9b00-7dea32128334.jpg""]","",""
"","6068","similarity","115","699754","0.0-6.0-109.0","4","[""img/0764/958b8576-3a3b-4acc-96dc-06b74de69f37.jpg"",""img/0864/a248adb3-c70b-4652-b7a3-776d2a1e904b.jpg""]","",""
"","6380","similarity","116","707142","0.0-6.0-110.0","5","[""img/0866/8efcaa46-83ab-4dee-a35f-850402aa21ae.jpg"",""img/0894/38f5931f-926d-414e-b498-66b188978b7a.jpg""]","",""
"","5487","similarity","117","713636","0.0-6.0-111.0","3","[""img/0899/9de5e857-aa9a-4e0c-8ba2-46d79bd069a4.jpg"",""img/0903/3e9ee8a5-eb66-47f5-8973-8a5af1ddc87e.jpg""]","",""
"","5931","similarity","118","720573","0.0-6.0-112.0","6","[""img/0902/1a120fb9-dbd6-443e-ba91-b4aceab963da.jpg"",""img/0904/4e58005d-a2ec-4aaa-b199-445343561396.jpg""]","",""
"","5405","similarity","119","726984","0.0-6.0-113.0","5","[""img/0864/300bb811-8b3c-4c42-8653-6097c3725197.jpg"",""img/0860/8a92e21b-6a32-4e4a-a445-2d5a487ed0a4.jpg""]","",""
"","3322","similarity","120","731314","0.0-6.0-114.0","3","[""img/0860/5383b320-1518-4095-a58e-5cc1ae30b64c.jpg"",""img/0899/4408c14d-c168-4a7d-96f6-bc87bfb58f83.jpg""]","",""
"","4671","similarity","121","736991","0.0-6.0-115.0","1","[""img/0881/db77fe00-aeb0-4d1d-aa66-f3a96fd077e4.jpg"",""img/0903/8635cf25-2648-4fe9-8c42-79d2598e999c.jpg""]","",""
"","5330","similarity","122","743327","0.0-6.0-116.0","4","[""img/0894/7fb082e0-ce79-485c-9109-04367fb32275.jpg"",""img/0874/bf14b896-e930-4fd9-9c05-2e83317a2773.jpg""]","",""
"","5096","similarity","123","749428","0.0-6.0-117.0","4","[""img/0881/566f45f8-5fed-4479-a60f-26377e60a62d.jpg"",""img/0862/f23038d4-c366-4f70-979f-66b62362efa4.jpg""]","",""
"","4954","similarity","124","755389","0.0-6.0-118.0","5","[""img/0868/77091fc7-a590-4ebb-b915-fdb2483a2399.jpg"",""img/0875/5a1e5100-0d94-4fec-bbe9-ca9894d2cf8e.jpg""]","",""
"","4140","similarity","125","760536","0.0-6.0-119.0","1","[""img/0860/8fdba999-b946-4c7d-9891-336018b563ef.jpg"",""img/0758/d41c06bf-ebaf-454b-91c6-1a17f917b659.jpg""]","",""
"","3390","similarity","126","764933","0.0-6.0-120.0","2","[""img/0864/66091c27-e588-4476-8af9-265dc6be4156.jpg"",""img/0875/a4935837-7d3c-4df6-88c1-36a94d4991ca.jpg""]","",""
"","3507","similarity","127","769445","0.0-6.0-121.0","1","[""img/0898/e167334e-cc1d-4986-b3b1-c7bc7da64baa.jpg"",""img/0866/a15b02be-11bb-43e3-b0e0-ecc3bd7dfc49.jpg""]","",""
"","5417","similarity","128","775869","0.0-6.0-122.0","6","[""img/0874/3f471690-9788-4d03-90c7-f615aecef149.jpg"",""img/0904/4b8daf2a-13a9-4ea9-9e0b-b265b6e933e7.jpg""]","",""
"","5998","similarity","129","782872","0.0-6.0-123.0","2","[""img/0904/25365108-e038-4021-aac9-797f2063b337.jpg"",""img/0864/ea327690-500b-4137-bf91-451b309fe6a5.jpg""]","",""
"","5434","similarity","130","789312","0.0-6.0-124.0","2","[""img/0894/b422d5c6-3c5a-49ae-a53e-7e88ac993f49.jpg"",""img/0902/c920f0e1-1c81-480f-a164-c77f2dc6ce9a.jpg""]","",""
"","3915","similarity","131","807778","0.0-6.0-125.0","2","[""img/0868/7b212364-ff5f-4e28-9241-7eb6ea00161b.jpg"",""img/0864/49150900-7f25-4ce8-8d10-9b47a71d1997.jpg""]","",""
"","5346","similarity","132","814132","0.0-6.0-126.0","2","[""img/0899/0e1d936a-dbe2-4afc-9f19-7b7a1ae6c9ed.jpg"",""img/0866/0207e9a2-7dbb-40b5-9459-b472aaeceb2a.jpg""]","",""
"","4685","similarity","133","819824","0.0-6.0-127.0","2","[""img/0875/cff79b3a-a797-4393-9757-6275f999ec04.jpg"",""img/0904/63dd06dd-dccb-47ba-9740-eb33239e18a7.jpg""]","",""
"","2945","similarity","134","823775","0.0-6.0-128.0","2","[""img/0867/26611f4e-d694-4460-b7e2-43c62753ddc3.jpg"",""img/0899/66bf4113-ee12-426c-84d2-ea410b6c803e.jpg""]","",""
"","5416","similarity","135","830202","0.0-6.0-129.0","2","[""img/0901/d4d09bf5-093e-4050-838e-7c738be8e63c.jpg"",""img/0867/075e0f95-856b-4cbb-acf5-092393aaf04e.jpg""]","",""
"","4733","similarity","136","835943","0.0-6.0-130.0","2","[""img/0864/3d4de670-b290-4285-9c3d-12a0e3af44e9.jpg"",""img/0769/38a88f69-28fd-4bbd-99f0-f4c02bfd3995.jpg""]","",""
"","5424","similarity","137","842375","0.0-6.0-131.0","3","[""img/0903/47e39de8-6959-469f-8be9-6999a6db207c.jpg"",""img/0868/09a9ef4d-d000-4cfa-a6aa-ebec7c2edeb4.jpg""]","",""
"","2854","similarity","138","846236","0.0-6.0-132.0","3","[""img/0864/f92649a2-0590-4d31-9a7a-1bfb81666a2d.jpg"",""img/0867/a498eef3-9fa4-4ab2-9778-4ae82ac40dc5.jpg""]","",""
"","5224","similarity","139","852467","0.0-6.0-133.0","5","[""img/0901/443f2e59-199b-4f7b-9de9-c44ad97326a5.jpg"",""img/0860/b03b963d-949b-4d8d-b19c-4950c89eeca2.jpg""]","",""
"","3881","similarity","140","857353","0.0-6.0-134.0","5","[""img/0881/e6746727-7f89-47ec-b939-d98abe78372d.jpg"",""img/0766/ea09dd5a-d24d-4e97-a099-7da3db1baef1.jpg""]","",""
"","4896","similarity","141","863256","0.0-6.0-135.0","5","[""img/0903/4cbdc464-e562-4ec2-9bb6-15f894fdf528.jpg"",""img/0864/4bd81bc6-c13d-46df-95a9-485886dc7c1b.jpg""]","",""
"","3850","similarity","142","868112","0.0-6.0-136.0","1","[""img/0758/7fba58df-2a7a-4b76-8a8f-62739f97f271.jpg"",""img/0894/e5edf723-72a5-4673-8441-6c1734a8929b.jpg""]","",""
"","3926","similarity","143","873047","0.0-6.0-137.0","3","[""img/0769/1afb527f-9887-428c-bd26-a12c2f9efb68.jpg"",""img/0860/61fb959d-d4d9-4de4-9e4e-4fa62b4cfcd5.jpg""]","",""
"","3420","similarity","144","877474","0.0-6.0-138.0","2","[""img/0904/73920552-103b-4c9c-9ece-e0b8376b4504.jpg"",""img/0766/dd3e18d0-0c98-4d05-b850-69976ee8cd75.jpg""]","",""
"","6228","similarity","145","884709","0.0-6.0-139.0","4","[""img/0868/4bd5105a-d2c3-4f82-8c80-57196106ba53.jpg"",""img/0860/c5ccd1a4-4bb7-48e1-9b25-72cfaf06909b.jpg""]","",""
"","4120","similarity","146","889837","0.0-6.0-140.0","2","[""img/0758/dd559618-7f09-4a07-8018-d311c4a5ea29.jpg"",""img/0864/da39ad34-04e0-40d4-a724-c08d53e0ea09.jpg""]","",""
"","3117","similarity","147","893960","0.0-6.0-141.0","6","[""img/0867/50a1b60e-3a29-44bf-b606-d4bd3746fea9.jpg"",""img/0867/a749dddb-69f0-44a6-acdc-2bf295cf6dcc.jpg""]","",""
"","4240","similarity","148","899205","0.0-6.0-142.0","5","[""img/0898/cd3aaa3f-efa9-4ab3-8d6f-a6a9273ddf42.jpg"",""img/0898/b3290bf9-215b-4b45-b21a-65bdf73f142f.jpg""]","",""
"","2928","similarity","149","903140","0.0-6.0-143.0","2","[""img/0866/4a87911a-d5be-4d4e-ab8e-3d1f581bf507.jpg"",""img/0769/48a1144d-fbda-4809-991b-fc8424a32ee4.jpg""]","",""
"","5077","similarity","150","909223","0.0-6.0-144.0","5","[""img/0860/18dfed73-e36b-4487-a8bd-0b8cff8e3668.jpg"",""img/0898/40f99fb2-64d2-4e72-8a7f-a1cf60741e69.jpg""]","",""
"","4588","similarity","151","914819","0.0-6.0-145.0","4","[""img/0766/ef3b15ce-abb7-4292-ad93-aec8e8b50520.jpg"",""img/0864/e8bd659f-aa43-4748-877e-3118e8b4e189.jpg""]","",""
"","3979","similarity","152","919803","0.0-6.0-146.0","6","[""img/0860/87039971-2210-4aab-93c0-8e9b5f1655b2.jpg"",""img/0903/5995f4a8-fa82-46f8-8760-fd7800a5ca34.jpg""]","",""
"","3075","similarity","153","923886","0.0-6.0-147.0","3","[""img/0867/8ba0c5a7-c7e4-42cf-a80a-543763b90779.jpg"",""img/0764/d7c215ab-ea9a-45be-8d5f-417d5b9a8a17.jpg""]","",""
"","3426","similarity","154","928319","0.0-6.0-148.0","6","[""img/0769/35364db7-e0d5-40ef-93dc-faf9dfb95136.jpg"",""img/0904/9dd5708f-3f8b-46a9-b49f-2f2fab87b357.jpg""]","",""
"","3617","similarity","155","932942","0.0-6.0-149.0","2","[""img/0764/17b088f8-3053-4140-b544-d15654cc79ef.jpg"",""img/0901/c6c877e0-dd63-4e00-9657-33af29d55aab.jpg""]","",""
"","5739","similarity","156","939690","0.0-6.0-150.0","3","[""img/0904/da170c1b-9651-4f08-b231-2bdd1d9a046f.jpg"",""img/0899/56a605c3-d0a2-4215-89e1-779279d85a7c.jpg""]","",""
"","3001","similarity","157","943697","0.0-6.0-151.0","2","[""img/0862/fb26cb07-d5a9-4653-813c-f41609f26cd5.jpg"",""img/0867/aa05d113-fc19-4756-a8eb-7878f580bc92.jpg""]","",""
"","2809","similarity","158","947512","0.0-6.0-152.0","6","[""img/0766/d5d38751-8fa5-476f-93e9-86ed2d9045ef.jpg"",""img/0766/0025de5e-f620-4079-8a0f-00326ff3a6b0.jpg""]","",""
"","3692","similarity","159","952209","0.0-6.0-153.0","1","[""img/0862/847e5208-38ec-4f36-949c-296cdd7424ee.jpg"",""img/0894/2217bdcd-23a7-42d3-823b-23f2488d7e87.jpg""]","",""
"","4965","similarity","160","958181","0.0-6.0-154.0","2","[""img/0899/7b7380d5-d2be-44e5-a09a-c1756f87ef71.jpg"",""img/0901/12da1841-e611-435c-9719-109413d536a8.jpg""]","",""
"","5316","similarity","161","964503","0.0-6.0-155.0","7","[""img/0874/ca23d307-fc00-4d7d-9106-584c6eb21b4d.jpg"",""img/0874/adf9a8f1-c40b-402b-b95b-1e85a54a7b62.jpg""]","",""
"","4609","similarity","162","970120","0.0-6.0-156.0","2","[""img/0860/5bff793e-cbd5-4d7e-b628-0ac2b0e30b64.jpg"",""img/0867/de92135f-5b65-4ed9-b245-188292c7c2f8.jpg""]","",""
"","5517","similarity","163","976645","0.0-6.0-157.0","3","[""img/0901/d61f267a-c492-4db6-9bfb-61efd49cf072.jpg"",""img/0881/54ea8e77-c7e5-4197-b7fa-00b7020849a7.jpg""]","",""
"","3050","similarity","164","980702","0.0-6.0-158.0","3","[""img/0903/6378ee1e-3d2b-48d2-87be-bebda32c8268.jpg"",""img/0902/5b45a7a0-81c8-4a71-aaa2-2ce09adb5a29.jpg""]","",""
"","4294","similarity","165","986003","0.0-6.0-159.0","2","[""img/0860/e14d67c1-6d92-4f1e-9257-c8607159c19c.jpg"",""img/0764/1def7b22-b054-4ec2-860b-73d25691823b.jpg""]","",""
"","5427","similarity","166","992436","0.0-6.0-160.0","1","[""img/0902/44cd9b7e-fdfb-4f78-90de-8d4c9d279365.jpg"",""img/0875/8521fd58-3b1e-4dc5-97ae-804edfa6734a.jpg""]","",""
"","4827","similarity","167","998270","0.0-6.0-161.0","2","[""img/0898/b2732712-71c2-45d8-834f-2b2ed5504910.jpg"",""img/0862/7918ca67-5bd3-4606-a5ea-c39fb11a9297.jpg""]","",""
"","4622","similarity","168","1003903","0.0-6.0-162.0","2","[""img/0894/3adef67d-7676-4995-80b2-bb31b8aca3ef.jpg"",""img/0875/ebf7653f-ff45-4e9f-af58-2c042ab3cd2b.jpg""]","",""
"","4171","similarity","169","1009080","0.0-6.0-163.0","1","[""img/0866/a04d37f0-99dd-478a-b6c6-58b215138f84.jpg"",""img/0864/e336a4c5-6648-4fd7-b2f6-93a3fb83f8c6.jpg""]","",""
"","4630","similarity","170","1014717","0.0-6.0-164.0","1","[""img/0766/33519c22-aaa4-49d7-8d49-ab551db1945e.jpg"",""img/0862/f43ceabf-acc1-4107-b857-5d1849808f93.jpg""]","",""
"","4060","similarity","171","1019784","0.0-6.0-165.0","1","[""img/0866/23a224f3-2012-4fc8-8e0f-3c36f8de27fd.jpg"",""img/0874/8cdb1c07-1c32-46d2-981c-3636560fa6e5.jpg""]","",""
"","3723","similarity","172","1024513","0.0-6.0-166.0","6","[""img/0862/4f0a3b4c-afbf-486e-b248-1d54982f54b4.jpg"",""img/0860/4c530c3c-6aab-492a-94d1-9c01797bde40.jpg""]","",""
"","5527","similarity","173","1034926","0.0-6.0-167.0","2","[""img/0766/f3276cc4-65de-4c2d-88d5-6cfebce14b8f.jpg"",""img/0901/1ede21d9-384f-4150-86b5-e1c57b5dc1d4.jpg""]","",""
"","3417","similarity","174","1039352","0.0-6.0-168.0","7","[""img/0862/cdaed51d-9e2f-4807-801a-4663c40077e2.jpg"",""img/0862/fad1d7c1-8187-43c3-942a-0fc12183e48e.jpg""]","",""
"","4244","similarity","175","1044602","0.0-6.0-169.0","5","[""img/0894/767a0eec-1064-46b1-b1aa-dfa02b0cd74e.jpg"",""img/0764/4eff630a-6426-4f8d-b2ba-b4d9842a0962.jpg""]","",""
"","3052","similarity","176","1048662","0.0-6.0-170.0","2","[""img/0874/85eb9b8a-c4c6-4e5a-b8e7-363a87a82054.jpg"",""img/0898/ec565187-2e31-4fdd-9a5c-153d0c789ae0.jpg""]","",""
"","5074","similarity","177","1054744","0.0-6.0-171.0","2","[""img/0860/e8b8c51e-1834-4875-8b61-6c5bc9b178bd.jpg"",""img/0766/2da002a4-05c9-4f5c-9ed7-433b4183e273.jpg""]","",""
"","3057","similarity","178","1058806","0.0-6.0-172.0","6","[""img/0898/6cd3830b-d44e-4915-be2b-88d31424b91c.jpg"",""img/0864/c22faebd-9c53-47bc-ada3-b9a30c688e75.jpg""]","",""
"","3863","similarity","179","1063676","0.0-6.0-173.0","6","[""img/0881/f4e3e181-b3c9-4af2-a5a4-fc135ab70d2e.jpg"",""img/0764/f2f23359-8e82-41d3-8900-5b9f4433991d.jpg""]","",""
"","4517","similarity","180","1069199","0.0-6.0-174.0","2","[""img/0898/26c41340-15bd-4ead-8fe4-c0d0ddca09c2.jpg"",""img/0868/d6d1f30d-4323-435a-b194-7892521bc57e.jpg""]","",""
"","5498","similarity","181","1075704","0.0-6.0-175.0","4","[""img/0864/9b2490c5-a282-400a-9736-e1a0ecbf1cb7.jpg"",""img/0864/5f33e097-23e3-4002-882d-76e8cb15f451.jpg""]","",""
"","6609","similarity","182","1083319","0.0-6.0-176.0","5","[""img/0899/0adc0bc3-6fca-4078-be6f-d45ddf1653d5.jpg"",""img/0862/e0f1a4e9-e1b6-45f7-af67-89f334e6630d.jpg""]","",""
"","5664","similarity","183","1089990","0.0-6.0-177.0","5","[""img/0875/fb732ab5-013a-4366-9f65-27811ed157e9.jpg"",""img/0758/b76ceca7-95ac-46e4-ac13-da02c8e93be9.jpg""]","",""
"","4709","similarity","184","1095704","0.0-6.0-178.0","1","[""img/0866/bf14b5bd-fb55-47db-86b9-4f8aeb9a6dad.jpg"",""img/0901/7c16dd9c-44ad-4d5b-990c-6a0b9b48b1b1.jpg""]","",""
"","3955","similarity","185","1100666","0.0-6.0-179.0","2","[""img/0769/aad494cc-674d-4a08-9bfa-24a88ebe3c79.jpg"",""img/0874/a3bc679d-619f-4db6-bb68-116dcb757d9c.jpg""]","",""
"","3954","similarity","186","1105627","0.0-6.0-180.0","2","[""img/0875/5a7c4e35-6514-4e12-8879-d16071da4cd6.jpg"",""img/0881/ed4c971f-0873-4fc8-b6d6-e8bbd82f0bcc.jpg""]","",""
"","3091","similarity","187","1109724","0.0-6.0-181.0","7","[""img/0866/f756f7d1-9ad8-4a34-9ef6-7a443d705bfe.jpg"",""img/0868/15dd6fd7-791e-4b53-b203-195d617521a4.jpg""]","",""
"","3398","similarity","188","1114129","0.0-6.0-182.0","6","[""img/0899/4f7bc593-8ddd-4da3-a0b9-84da730d3370.jpg"",""img/0758/6e95579b-5166-487c-b8cb-e417c6a218e3.jpg""]","",""
"","5068","similarity","189","1120204","0.0-6.0-183.0","5","[""img/0874/1016b306-087c-4afc-aa08-fa527b28dc76.jpg"",""img/0875/f87b67d7-c33e-40d1-b281-248c4be1cb6e.jpg""]","",""
"","3675","similarity","190","1124885","0.0-6.0-184.0","3","[""img/0904/4d7d70a3-9477-4921-bda0-f9531d0a5c5b.jpg"",""img/0862/92fcd8a4-8193-4a6a-ae09-dd4a6338b0df.jpg""]","",""
"","5380","similarity","191","1131272","0.0-6.0-185.0","3","[""img/0902/168ebd47-9e82-4ab7-a18b-c3da85072db8.jpg"",""img/0766/110832e5-2646-4bd0-a94e-5df8cc314269.jpg""]","",""
"","6254","similarity","192","1138533","0.0-6.0-186.0","2","[""img/0758/d57c2592-a317-4f63-91be-91a3a9afd222.jpg"",""img/0769/3c1203c5-2ce7-466e-957a-8d77b5905460.jpg""]","",""
"","5385","similarity","193","1144924","0.0-6.0-187.0","7","[""img/0881/1407b85b-a1c6-45b1-9884-3b24203efadb.jpg"",""img/0881/609a5e93-38b5-4940-8627-2bf8fad7f802.jpg""]","",""
"","5114","similarity","194","1151045","0.0-6.0-188.0","2","[""img/0758/6cd8c362-ae2a-41eb-80a3-3a4f7ace1530.jpg"",""img/0866/6f2a90d7-14f1-4f1b-bd64-fc0af6b9fe44.jpg""]","",""
"","4068","similarity","195","1156120","0.0-6.0-189.0","6","[""img/0764/c0b03adb-bd0a-4b96-a915-a827c2fd5211.jpg"",""img/0898/0af304a2-6a7a-4082-ab7c-4450cd08cc58.jpg""]","",""
"","4647","similarity","196","1161774","0.0-6.0-190.0","5","[""img/0903/c708d08f-a108-4e04-8288-c3fcf6375db4.jpg"",""img/0901/a373612d-67e2-4fec-9764-21d3d6ef6359.jpg""]","",""
"","3031","similarity","197","1165812","0.0-6.0-191.0","6","[""img/0902/71c03003-03ef-4b0f-8229-e0c857150a5d.jpg"",""img/0898/68476bbb-34a1-42d9-8bc1-deab783d4489.jpg""]","",""
"","4470","similarity","198","1171288","0.0-6.0-192.0","2","[""img/0864/3651d070-2fc5-4848-b6a6-088a2d9ac5c9.jpg"",""img/0901/148b747a-7392-437e-8823-33053c5dff3f.jpg""]","",""
"","7333","similarity","199","1179628","0.0-6.0-193.0","3","[""img/0894/1a010553-d598-4b06-a772-81f1e7b3addb.jpg"",""img/0881/7e822106-76f7-4b10-a805-14dc68b2cfaf.jpg""]","",""
"","2569","similarity","200","1183204","0.0-6.0-194.0","7","[""img/0868/4a8a45ed-2c4f-421b-9564-409a33ecd26c.jpg"",""img/0868/3a62db2d-97e9-44a3-b8e3-a48c6f0e423b.jpg""]","",""
"","3895","similarity","201","1188107","0.0-6.0-195.0","5","[""img/0899/d60714ae-98d7-4564-8c98-94dba1351135.jpg"",""img/0764/a3226bc4-dcc3-4608-bde8-1414d685ce5c.jpg""]","",""
"","4483","similarity","202","1193596","0.0-6.0-196.0","2","[""img/0881/19e82c47-8e4b-45d2-a6c8-74181eb4155e.jpg"",""img/0904/65e2b70a-b184-4da3-b5c0-5038bdf9469a.jpg""]","",""
"","3089","similarity","203","1197690","0.0-6.0-197.0","2","[""img/0864/5f74a653-3bdc-4308-8cca-ac667dc22e1f.jpg"",""img/0902/417d8b4a-3c72-4adc-ac78-820e833316f2.jpg""]","",""
"","402","similarity","204","1199099","0.0-6.0-198.0","4","[""img/0894/a3d4170b-b7d8-40e3-955f-87e76ed745fc.jpg"",""img/0904/ba8e689e-9ca6-4608-a2a1-3b0940666ae6.jpg""]","",""
"","4670","similarity","205","1204775","0.0-6.0-199.0","6","[""img/0901/62315ff5-ed95-46b4-b099-92552079659b.jpg"",""img/0901/b123d109-47b4-4f9a-80c9-9bb16da42efa.jpg""]","",""
"","3688","similarity","206","1209470","0.0-6.0-200.0","4","[""img/0894/1b3888e6-cf36-4c4a-a039-187aa5cb71ac.jpg"",""img/0860/17b44a7d-c5ca-479f-9e87-f65a64f5c80e.jpg""]","",""
"","3677","similarity","207","1214153","0.0-6.0-201.0","6","[""img/0898/224c1572-56b9-4f16-a9e4-6f3bc9c114bd.jpg"",""img/0903/31b5a5f4-b695-4af1-bad2-a19650a05498.jpg""]","",""
"","4223","similarity","208","1219382","0.0-6.0-202.0","6","[""img/0864/87c467d3-abca-482f-ad80-3766c21b1bb3.jpg"",""img/0894/8cadb87a-7001-4e47-99fb-1867bebf1668.jpg""]","",""
"","4968","similarity","209","1225357","0.0-6.0-203.0","5","[""img/0874/2c9464dd-8a23-4baa-ac94-1ba3af5c15cc.jpg"",""img/0860/9593362c-9fe5-4d12-9735-6000a11f6aa5.jpg""]","",""
"","4132","similarity","210","1230495","0.0-6.0-204.0","5","[""img/0862/a0a3a7ba-7798-46a3-b4ca-05e1f6e581d0.jpg"",""img/0875/03c3c331-738b-4446-af92-3d7386b08c2e.jpg""]","",""
"","5601","similarity","211","1237103","0.0-6.0-205.0","5","[""img/0867/f8488a47-94ee-4166-952c-44e16cf172f6.jpg"",""img/0881/292e9b4b-fca0-4ba8-87f1-4048f9e37b7d.jpg""]","",""
"","3216","similarity","212","1241324","0.0-6.0-206.0","3","[""img/0901/50e1d53e-a49f-4806-8610-be6dec5a2475.jpg"",""img/0902/01b41522-de46-4c3a-b0af-a61b2682b40e.jpg""]","",""
"","4629","similarity","213","1246960","0.0-6.0-207.0","4","[""img/0899/0433d056-aa30-4f8a-9aa1-abbb951e4edd.jpg"",""img/0864/e02eddb5-f468-499c-91bf-f7be3ffe979b.jpg""]","",""
"","2848","similarity","214","1250816","0.0-6.0-208.0","2","[""img/0901/a9b9c0a0-8aed-4888-a78a-65fb7e764d13.jpg"",""img/0769/b664b502-a86c-46c1-ad6f-5ebffc2e1bd3.jpg""]","",""
"","4943","similarity","215","1259010","0.0-6.0-209.0","3","[""img/0902/d2c34af0-8c50-437d-8cc3-619195a3e8ba.jpg"",""img/0902/b56db912-c3c0-4fc2-b325-d640acd7cb58.jpg""]","",""
"[{""page_index"":0,""viewing_time"":6765}]","6766","instructions","216","1266777","0.0-7.0","","","",""
"","31790","image-multi-choice","217","1299591","0.0-8.0-0.0","","","{""Q0"":""Ovenbird""}","Nashville Warbler"
"","11754","image-multi-choice","218","1312363","0.0-8.0-1.0","","","{""Q0"":""Magnolia Warbler""}","Black-and-white Warbler"
"","8575","image-multi-choice","219","1321955","0.0-8.0-2.0","","","{""Q0"":""Townsend's Warbler""}","Townsend's Warbler"
"","14686","image-multi-choice","220","1337660","0.0-8.0-3.0","","","{""Q0"":""Song Sparrow""}","Lark Sparrow"
"","14514","image-multi-choice","221","1353186","0.0-8.0-4.0","","","{""Q0"":""Yellow Warbler""}","Yellow Warbler"
"","13540","image-multi-choice","222","1367743","0.0-8.0-5.0","","","{""Q0"":""Orange-crowned Warbler""}","Orange-crowned Warbler"
"","5488","image-multi-choice","223","1374250","0.0-8.0-6.0","","","{""Q0"":""White-throated Sparrow""}","White-throated Sparrow"
"","13501","image-multi-choice","224","1388768","0.0-8.0-7.0","","","{""Q0"":""Northern Waterthrush""}","Fox Sparrow"
"","8147","image-multi-choice","225","1397933","0.0-8.0-8.0","","","{""Q0"":""Vesper Sparrow""}","Song Sparrow"
"","10813","image-multi-choice","226","1409764","0.0-8.0-9.0","","","{""Q0"":""Nashville Warbler""}","Blackburnian Warbler"
"","8744","image-multi-choice","227","1419524","0.0-8.0-10.0","","","{""Q0"":""Swamp Sparrow""}","Vesper Sparrow"
"","8259","image-multi-choice","228","1428802","0.0-8.0-11.0","","","{""Q0"":""White-crowned Sparrow""}","White-crowned Sparrow"
"","15413","image-multi-choice","229","1445232","0.0-8.0-12.0","","","{""Q0"":""Ovenbird""}","American Tree Sparrow"
"","18251","image-multi-choice","230","1464498","0.0-8.0-13.0","","","{""Q0"":""Orange-crowned Warbler""}","Tennessee Warbler"
"","6234","image-multi-choice","231","1471749","0.0-8.0-14.0","","","{""Q0"":""Nashville Warbler""}","Magnolia Warbler"
"","4233","image-multi-choice","232","1476997","0.0-8.0-15.0","","","{""Q0"":""Northern Waterthrush""}","Northern Waterthrush"
"","9839","image-multi-choice","233","1487854","0.0-8.0-16.0","","","{""Q0"":""Swamp Sparrow""}","Chipping Sparrow"
"","7638","image-multi-choice","234","1496509","0.0-8.0-17.0","","","{""Q0"":""Fox Sparrow""}","Swamp Sparrow"
"","19361","image-multi-choice","235","1516890","0.0-8.0-18.0","","","{""Q0"":""Lincoln's Sparrow""}","Lincoln's Sparrow"
"","4052","image-multi-choice","236","1521958","0.0-8.0-19.0","","","{""Q0"":""Northern Waterthrush""}","Ovenbird"
