[{"view_history":"[{\"page_index\":0,\"viewing_time\":13136}]","rt":13137,"trial_type":"instructions","trial_index":0,"time_elapsed":13139,"internal_node_id":"0.0-0.0"},{"sim_score":1,"rt":8092,"stimulus":"[\"img/866.jpg\",\"img/868.jpg\"]","trial_type":"similarity_demo","trial_index":1,"time_elapsed":22245,"internal_node_id":"0.0-1.0"},{"view_history":"[{\"page_index\":0,\"viewing_time\":12518}]","rt":12519,"trial_type":"instructions","trial_index":2,"time_elapsed":35765,"internal_node_id":"0.0-2.0"},{"sim_score":1,"rt":6320,"stimulus":"[\"img/766.jpg\",\"img/867.jpg\"]","trial_type":"similarity_demo","trial_index":3,"time_elapsed":43093,"internal_node_id":"0.0-3.0"},{"view_history":"[{\"page_index\":0,\"viewing_time\":5996}]","rt":5997,"trial_type":"instructions","trial_index":4,"time_elapsed":50091,"internal_node_id":"0.0-4.0"},{"view_history":"[{\"page_index\":0,\"viewing_time\":16811}]","rt":16811,"trial_type":"instructions","trial_index":5,"time_elapsed":67902,"internal_node_id":"0.0-5.0"},{"sim_score":3,"rt":7727,"stimulus":"[\"img/0868/83b4350a-3b70-4cea-b7f5-b5b56f3050a8.jpg\",\"img/0901/ae1e6ce4-2e10-4ca9-b1e7-21628637ab74.jpg\"]","trial_type":"similarity","trial_index":6,"time_elapsed":76639,"internal_node_id":"0.0-6.0-0.0"},{"sim_score":5,"rt":6314,"stimulus":"[\"img/0769/9ea9ceb6-049e-4ad9-be8f-00645cd35803.jpg\",\"img/0867/7d1c497b-c1b3-4ed8-abb5-d7f73306015f.jpg\"]","trial_type":"similarity","trial_index":7,"time_elapsed":83961,"internal_node_id":"0.0-6.0-1.0"},{"sim_score":2,"rt":5559,"stimulus":"[\"img/0766/51d3aab4-3d09-4dda-b99d-3dc7aaabc6f2.jpg\",\"img/0898/881e2a85-d5c2-49be-a0c6-8a6ce2c4af08.jpg\"]","trial_type":"similarity","trial_index":8,"time_elapsed":90529,"internal_node_id":"0.0-6.0-2.0"},{"sim_score":5,"rt":6362,"stimulus":"[\"img/0902/cf9dee9c-2bdf-4d64-9302-97f1660fe52c.jpg\",\"img/0881/2a8413be-fec2-4de6-88ad-614dd4cccc9d.jpg\"]","trial_type":"similarity","trial_index":9,"time_elapsed":97898,"internal_node_id":"0.0-6.0-3.0"},{"sim_score":5,"rt":6137,"stimulus":"[\"img/0894/2d2db7b3-e8a3-499b-b63a-14f51bf73882.jpg\",\"img/0894/e2446cf5-cd48-486a-badc-76498e087fbe.jpg\"]","trial_type":"similarity","trial_index":10,"time_elapsed":105044,"internal_node_id":"0.0-6.0-4.0"},{"sim_score":7,"rt":5106,"stimulus":"[\"img/0874/ca76a855-4e77-4f2f-872a-0a718153e7ed.jpg\",\"img/0899/51a7a498-98c7-42d7-bca8-bc2d8f0b5831.jpg\"]","trial_type":"similarity","trial_index":11,"time_elapsed":111156,"internal_node_id":"0.0-6.0-5.0"},{"sim_score":5,"rt":5638,"stimulus":"[\"img/0904/06dacdc5-2206-4fb8-92b7-88042d22833c.jpg\",\"img/0764/4bec8d92-75aa-475a-954d-8215dbe538f5.jpg\"]","trial_type":"similarity","trial_index":12,"time_elapsed":117800,"internal_node_id":"0.0-6.0-6.0"},{"sim_score":7,"rt":5135,"stimulus":"[\"img/0899/1b3457ea-87d4-4946-a01c-aac1863ed46c.jpg\",\"img/0898/a114b375-cb89-44ba-9498-74213f1ecdee.jpg\"]","trial_type":"similarity","trial_index":13,"time_elapsed":123943,"internal_node_id":"0.0-6.0-7.0"},{"sim_score":3,"rt":7124,"stimulus":"[\"img/0874/7e4f2150-3b59-4a36-b5da-a4e0ba410531.jpg\",\"img/0903/150cf64c-0bd2-4674-abbb-a1387cf1f3e9.jpg\"]","trial_type":"similarity","trial_index":14,"time_elapsed":132075,"internal_node_id":"0.0-6.0-8.0"},{"sim_score":4,"rt":5419,"stimulus":"[\"img/0881/405484ae-0d00-4b05-bc57-6420a36adfac.jpg\",\"img/0758/20497cbe-ddae-489e-86e2-ab06985ed07c.jpg\"]","trial_type":"similarity","trial_index":15,"time_elapsed":138502,"internal_node_id":"0.0-6.0-9.0"},{"sim_score":5,"rt":5378,"stimulus":"[\"img/0898/81b08535-2020-4c15-9ce4-2f1e460755ae.jpg\",\"img/0901/04a53755-6da5-44d4-a7a6-48a6bc0a2280.jpg\"]","trial_type":"similarity","trial_index":16,"time_elapsed":144888,"internal_node_id":"0.0-6.0-10.0"},{"sim_score":2,"rt":4501,"stimulus":"[\"img/0903/a0673b55-6040-47fe-9040-24bca27ca3c9.jpg\",\"img/0769/1ca58b80-2365-446d-9616-6c1719e6c46f.jpg\"]","trial_type":"similarity","trial_index":17,"time_elapsed":150397,"internal_node_id":"0.0-6.0-11.0"},{"sim_score":2,"rt":3326,"stimulus":"[\"img/0764/5c8fbafc-e62e-43ed-9b37-f73e8e45147d.jpg\",\"img/0868/0d3abd3a-b6c3-4584-a9f7-e2da63748b3d.jpg\"]","trial_type":"similarity","trial_index":18,"time_elapsed":154730,"internal_node_id":"0.0-6.0-12.0"},{"sim_score":2,"rt":5236,"stimulus":"[\"img/0867/f26f6b60-f772-4f4c-95a4-addc62cfd692.jpg\",\"img/0903/39365c8e-a733-4801-ac7d-b87e38c3784b.jpg\"]","trial_type":"similarity","trial_index":19,"time_elapsed":160973,"internal_node_id":"0.0-6.0-13.0"},{"sim_score":2,"rt":3212,"stimulus":"[\"img/0766/af3be95e-e52e-4fae-899b-0ff02ec340aa.jpg\",\"img/0758/ddc336e9-a8b6-4bb9-937a-c7e25e0e9250.jpg\"]","trial_type":"similarity","trial_index":20,"time_elapsed":165193,"internal_node_id":"0.0-6.0-14.0"},{"sim_score":2,"rt":4834,"stimulus":"[\"img/0902/418b716e-63e5-4c77-93e9-95b1f5a3ddf0.jpg\",\"img/0860/4a022222-056d-461c-ab02-39fac9647552.jpg\"]","trial_type":"similarity","trial_index":21,"time_elapsed":171032,"internal_node_id":"0.0-6.0-15.0"},{"sim_score":2,"rt":5154,"stimulus":"[\"img/0769/f73c5138-2f4c-4354-981c-129dff9cc734.jpg\",\"img/0875/34132396-d896-4c2d-8087-646dd867e769.jpg\"]","trial_type":"similarity","trial_index":22,"time_elapsed":177193,"internal_node_id":"0.0-6.0-16.0"},{"sim_score":2,"rt":5232,"stimulus":"[\"img/0904/1d10df11-b5c8-4370-9a6b-097a7f965895.jpg\",\"img/0866/be24ab58-230e-4db8-9f45-ff04c9aec6bb.jpg\"]","trial_type":"similarity","trial_index":23,"time_elapsed":183431,"internal_node_id":"0.0-6.0-17.0"},{"sim_score":7,"rt":4504,"stimulus":"[\"img/0875/527ced51-8e53-4aab-ab05-86df219104c0.jpg\",\"img/0875/3ecb367d-e9eb-4826-8aaa-7aa72fb98019.jpg\"]","trial_type":"similarity","trial_index":24,"time_elapsed":188940,"internal_node_id":"0.0-6.0-18.0"},{"sim_score":7,"rt":4407,"stimulus":"[\"img/0758/7ee8bc8f-c40b-4b3a-84ec-3e83580622d4.jpg\",\"img/0758/2fa3e613-e676-4e6e-bd12-705327eeb3e1.jpg\"]","trial_type":"similarity","trial_index":25,"time_elapsed":194356,"internal_node_id":"0.0-6.0-19.0"},{"sim_score":1,"rt":3723,"stimulus":"[\"img/0902/31abfa33-7cdb-44ad-968e-9f7b324d577a.jpg\",\"img/0874/995f0332-0439-4eb4-add3-957335dbf6d9.jpg\"]","trial_type":"similarity","trial_index":26,"time_elapsed":199087,"internal_node_id":"0.0-6.0-20.0"},{"sim_score":2,"rt":5524,"stimulus":"[\"img/0764/6fbd1902-fa2a-48d8-bc11-705b8ab68d8f.jpg\",\"img/0769/8056889f-2b14-4782-bb25-b4e8896ab65b.jpg\"]","trial_type":"similarity","trial_index":27,"time_elapsed":205618,"internal_node_id":"0.0-6.0-21.0"},{"sim_score":3,"rt":9644,"stimulus":"[\"img/0901/3db47171-0139-4235-82cd-0b1787b6775f.jpg\",\"img/0874/eba003b4-cdab-4eee-8bc3-f064c7d94165.jpg\"]","trial_type":"similarity","trial_index":28,"time_elapsed":216269,"internal_node_id":"0.0-6.0-22.0"},{"sim_score":2,"rt":4026,"stimulus":"[\"img/0875/42910c99-5463-450a-a0f8-d4d060a11455.jpg\",\"img/0903/8f7f9939-b8e6-433f-93dd-b362496c80a7.jpg\"]","trial_type":"similarity","trial_index":29,"time_elapsed":221302,"internal_node_id":"0.0-6.0-23.0"},{"sim_score":2,"rt":3328,"stimulus":"[\"img/0769/0fe124d3-bcad-45f6-b64d-8f6eb8ee5251.jpg\",\"img/0881/0c7068da-d0d9-4103-bda1-74ef7a2b32c3.jpg\"]","trial_type":"similarity","trial_index":30,"time_elapsed":225638,"internal_node_id":"0.0-6.0-24.0"},{"sim_score":2,"rt":3280,"stimulus":"[\"img/0867/98d8cd96-1476-4fe0-a3a3-04f875500a1b.jpg\",\"img/0904/0d17b811-063e-416e-a23c-3b3cfa4fcce5.jpg\"]","trial_type":"similarity","trial_index":31,"time_elapsed":229926,"internal_node_id":"0.0-6.0-25.0"},{"sim_score":2,"rt":3105,"stimulus":"[\"img/0860/524b2e98-5767-4d53-942c-ebae6925659b.jpg\",\"img/0881/dea58fad-b4f1-41d9-bd3f-916eff19a3fd.jpg\"]","trial_type":"similarity","trial_index":32,"time_elapsed":234037,"internal_node_id":"0.0-6.0-26.0"},{"sim_score":3,"rt":5954,"stimulus":"[\"img/0866/386235d2-6857-41e7-88a8-25cfc3430025.jpg\",\"img/0866/945c6710-d15b-4a5b-a8f6-69af0850357f.jpg\"]","trial_type":"similarity","trial_index":33,"time_elapsed":240998,"internal_node_id":"0.0-6.0-27.0"},{"sim_score":2,"rt":5122,"stimulus":"[\"img/0764/bd2eaa3e-95a9-4a59-a78e-3f81c766eea9.jpg\",\"img/0862/53a9cf7c-93c4-41b9-952f-07d17f7a17b2.jpg\"]","trial_type":"similarity","trial_index":34,"time_elapsed":247130,"internal_node_id":"0.0-6.0-28.0"},{"sim_score":2,"rt":3327,"stimulus":"[\"img/0904/e9423a8c-f946-43ad-ab7b-931acef870e2.jpg\",\"img/0758/f61ecdf8-a7d4-4db0-b84d-be46f7cfaffc.jpg\"]","trial_type":"similarity","trial_index":35,"time_elapsed":251464,"internal_node_id":"0.0-6.0-29.0"},{"sim_score":5,"rt":4028,"stimulus":"[\"img/0894/792c83e9-a747-4000-bc72-5663d2439edb.jpg\",\"img/0899/06b0fc99-0581-461a-9913-d1a5a941ac61.jpg\"]","trial_type":"similarity","trial_index":36,"time_elapsed":256500,"internal_node_id":"0.0-6.0-30.0"},{"sim_score":1,"rt":3663,"stimulus":"[\"img/0860/c7047cd2-7cc1-41b6-8a34-c0986774975f.jpg\",\"img/0904/9b3568cc-3cf7-42be-9df3-fdafde7a58b8.jpg\"]","trial_type":"similarity","trial_index":37,"time_elapsed":261170,"internal_node_id":"0.0-6.0-31.0"},{"sim_score":2,"rt":2957,"stimulus":"[\"img/0874/767f289c-9814-4496-803f-745cc8913d1f.jpg\",\"img/0881/62a64f90-7a72-4aee-a1a1-0c548ac9bdda.jpg\"]","trial_type":"similarity","trial_index":38,"time_elapsed":265135,"internal_node_id":"0.0-6.0-32.0"},{"sim_score":2,"rt":4756,"stimulus":"[\"img/0881/633c6f40-56d9-4b48-bf1c-ecd83116eabb.jpg\",\"img/0899/a048912c-b12c-40e3-90af-46b69b0cc4fe.jpg\"]","trial_type":"similarity","trial_index":39,"time_elapsed":270899,"internal_node_id":"0.0-6.0-33.0"},{"sim_score":3,"rt":4509,"stimulus":"[\"img/0866/c446214b-a368-4c65-ae39-ea46894256ab.jpg\",\"img/0862/e697469a-ec19-4414-b972-7b9f3564785b.jpg\"]","trial_type":"similarity","trial_index":40,"time_elapsed":276416,"internal_node_id":"0.0-6.0-34.0"},{"sim_score":3,"rt":4316,"stimulus":"[\"img/0868/293079b8-7e0c-4afd-a390-1e5d35fe3ded.jpg\",\"img/0894/11674fa4-285d-44e2-939f-2228c6a64080.jpg\"]","trial_type":"similarity","trial_index":41,"time_elapsed":281738,"internal_node_id":"0.0-6.0-35.0"},{"sim_score":7,"rt":3348,"stimulus":"[\"img/0860/4f695df5-afac-4da7-9875-fee39b0b24ad.jpg\",\"img/0860/702bd09d-df3a-40aa-a267-5f04474305b5.jpg\"]","trial_type":"similarity","trial_index":42,"time_elapsed":286093,"internal_node_id":"0.0-6.0-36.0"},{"sim_score":5,"rt":4244,"stimulus":"[\"img/0862/00c06b00-3b73-44e9-bc1e-c5aafb438321.jpg\",\"img/0864/c3b63e8f-ea39-4d70-a1f2-b3fe4be8eb75.jpg\"]","trial_type":"similarity","trial_index":43,"time_elapsed":291344,"internal_node_id":"0.0-6.0-37.0"},{"sim_score":3,"rt":7149,"stimulus":"[\"img/0766/09f646c8-a69e-4ed3-879c-8d29b04ad7f9.jpg\",\"img/0866/d493a2c8-66eb-44b4-be02-2f327b700b7c.jpg\"]","trial_type":"similarity","trial_index":44,"time_elapsed":299500,"internal_node_id":"0.0-6.0-38.0"},{"sim_score":4,"rt":3100,"stimulus":"[\"img/0875/90da8d75-108a-44ad-b999-e21fee3860d3.jpg\",\"img/0898/993d8f2d-bef7-4251-a193-0f93a32b7763.jpg\"]","trial_type":"similarity","trial_index":45,"time_elapsed":303607,"internal_node_id":"0.0-6.0-39.0"},{"sim_score":3,"rt":4209,"stimulus":"[\"img/0766/75c3d627-4f3b-40d5-9d9c-10c8a62db644.jpg\",\"img/0769/a1ce8d07-ba37-40de-bade-2778805521e0.jpg\"]","trial_type":"similarity","trial_index":46,"time_elapsed":308823,"internal_node_id":"0.0-6.0-40.0"},{"sim_score":7,"rt":3614,"stimulus":"[\"img/0874/c0378dac-9370-439a-8b79-db27c96fb390.jpg\",\"img/0764/83c93cce-18d1-4aa7-9e23-2c268afe0a46.jpg\"]","trial_type":"similarity","trial_index":47,"time_elapsed":321927,"internal_node_id":"0.0-6.0-41.0"},{"sim_score":4,"rt":4604,"stimulus":"[\"img/0868/e0aff734-077f-40dd-9781-74821abd3621.jpg\",\"img/0902/eb3e7e71-8ff1-4b88-a6a7-47e2c1ce1683.jpg\"]","trial_type":"similarity","trial_index":48,"time_elapsed":327538,"internal_node_id":"0.0-6.0-42.0"},{"sim_score":1,"rt":3861,"stimulus":"[\"img/0875/d59ff733-eaff-4ee2-9443-06954dd0bcb6.jpg\",\"img/0899/b45c550b-96c3-4255-ad59-48a2b4db1c1e.jpg\"]","trial_type":"similarity","trial_index":49,"time_elapsed":332406,"internal_node_id":"0.0-6.0-43.0"},{"sim_score":2,"rt":4065,"stimulus":"[\"img/0866/d266fece-59b3-46fa-b69f-96f6efb81b59.jpg\",\"img/0860/f44ba3fb-03a2-42f0-8509-2c1ded493086.jpg\"]","trial_type":"similarity","trial_index":50,"time_elapsed":337479,"internal_node_id":"0.0-6.0-44.0"},{"sim_score":1,"rt":3364,"stimulus":"[\"img/0766/91fc8c4d-862f-4d2b-b1a1-2db8d729b6b7.jpg\",\"img/0903/43ffd882-077a-40dd-a264-e58d519420a1.jpg\"]","trial_type":"similarity","trial_index":51,"time_elapsed":341849,"internal_node_id":"0.0-6.0-45.0"},{"sim_score":3,"rt":4208,"stimulus":"[\"img/0901/b453df0b-4c39-49bb-8ced-6127efffa898.jpg\",\"img/0904/b5855d6a-7ef9-46ca-9215-6e9fa046e543.jpg\"]","trial_type":"similarity","trial_index":52,"time_elapsed":347064,"internal_node_id":"0.0-6.0-46.0"},{"sim_score":6,"rt":4918,"stimulus":"[\"img/0758/67c0be2f-9e91-48b3-8219-70ac0a1802fa.jpg\",\"img/0902/30c420f5-c714-4681-ae5a-c0ba8f636a26.jpg\"]","trial_type":"similarity","trial_index":53,"time_elapsed":352991,"internal_node_id":"0.0-6.0-47.0"},{"sim_score":7,"rt":3749,"stimulus":"[\"img/0764/f64dfa83-333d-494c-87b5-73e942f1766e.jpg\",\"img/0764/e30dba15-e68a-4659-89db-e1654b52fe02.jpg\"]","trial_type":"similarity","trial_index":54,"time_elapsed":357747,"internal_node_id":"0.0-6.0-48.0"},{"sim_score":5,"rt":4175,"stimulus":"[\"img/0866/11a1d141-be5e-443c-98c1-a9d4d9e3dec0.jpg\",\"img/0902/d3e55000-c839-4bf9-9b9b-4af0a9925af1.jpg\"]","trial_type":"similarity","trial_index":55,"time_elapsed":362930,"internal_node_id":"0.0-6.0-49.0"},{"sim_score":1,"rt":3697,"stimulus":"[\"img/0764/c80b3e06-2ee3-4326-9678-340607eb5348.jpg\",\"img/0758/a085b443-b5d7-4cb2-9ad4-b9dab0fc23f1.jpg\"]","trial_type":"similarity","trial_index":56,"time_elapsed":367635,"internal_node_id":"0.0-6.0-50.0"},{"sim_score":4,"rt":5435,"stimulus":"[\"img/0898/8605a25b-6895-476d-8c13-df7a83f96093.jpg\",\"img/0894/38cf335f-f76f-4349-8d65-e20cd6859565.jpg\"]","trial_type":"similarity","trial_index":57,"time_elapsed":374076,"internal_node_id":"0.0-6.0-51.0"},{"sim_score":5,"rt":5135,"stimulus":"[\"img/0875/2c361b79-c3d1-4eda-812e-bf03192407bf.jpg\",\"img/0866/620cd1aa-0800-4414-8f6e-90342e7a99ad.jpg\"]","trial_type":"similarity","trial_index":58,"time_elapsed":380216,"internal_node_id":"0.0-6.0-52.0"},{"sim_score":5,"rt":4747,"stimulus":"[\"img/0904/d23dd7be-7fe8-4435-82f7-bd592c01e6a1.jpg\",\"img/0904/24fc38fe-842c-4831-ad8a-b1de5c25c0a8.jpg\"]","trial_type":"similarity","trial_index":59,"time_elapsed":385970,"internal_node_id":"0.0-6.0-53.0"},{"sim_score":7,"rt":3335,"stimulus":"[\"img/0769/878531fd-e0e8-4ad1-b9ad-f018bb104ca0.jpg\",\"img/0769/f2740c58-7c02-433f-920b-746b0b75435b.jpg\"]","trial_type":"similarity","trial_index":60,"time_elapsed":390311,"internal_node_id":"0.0-6.0-54.0"},{"sim_score":3,"rt":4481,"stimulus":"[\"img/0898/04e39a7a-fcf6-4156-ab0e-f5871f335e1c.jpg\",\"img/0758/e38fd80d-18d0-42f3-b848-f930788e8bd7.jpg\"]","trial_type":"similarity","trial_index":61,"time_elapsed":395800,"internal_node_id":"0.0-6.0-55.0"},{"sim_score":4,"rt":6092,"stimulus":"[\"img/0769/7c50e5f5-cc38-4d48-b009-fbe17bcea61c.jpg\",\"img/0902/fbef27fa-ac83-4936-ab78-9d1c20a383e1.jpg\"]","trial_type":"similarity","trial_index":62,"time_elapsed":402899,"internal_node_id":"0.0-6.0-56.0"},{"sim_score":7,"rt":3636,"stimulus":"[\"img/0864/65210d57-1153-4657-886a-32e758f49b4a.jpg\",\"img/0881/44e09805-5a25-4f17-a716-4ad4a331b174.jpg\"]","trial_type":"similarity","trial_index":63,"time_elapsed":407540,"internal_node_id":"0.0-6.0-57.0"},{"sim_score":1,"rt":3214,"stimulus":"[\"img/0758/a709631e-3705-4725-ac40-f0d916924f08.jpg\",\"img/0868/179a5502-ab5c-478e-8263-5a1fbcc101d2.jpg\"]","trial_type":"similarity","trial_index":64,"time_elapsed":411761,"internal_node_id":"0.0-6.0-58.0"},{"sim_score":5,"rt":5099,"stimulus":"[\"img/0862/064818ee-13d5-4618-bb24-21c7368ea278.jpg\",\"img/0769/965c3c44-d9e5-47c5-b61a-2bbdf4215d9a.jpg\"]","trial_type":"similarity","trial_index":65,"time_elapsed":417959,"internal_node_id":"0.0-6.0-59.0"},{"sim_score":6,"rt":4009,"stimulus":"[\"img/0764/e0788029-9d7f-414c-b747-46d2a99f7c86.jpg\",\"img/0903/ea75f240-fb62-4edb-a709-83e858b202c0.jpg\"]","trial_type":"similarity","trial_index":66,"time_elapsed":422975,"internal_node_id":"0.0-6.0-60.0"},{"sim_score":7,"rt":4812,"stimulus":"[\"img/0899/ad8268c5-8199-48d0-ad70-c5b6d6c599ec.jpg\",\"img/0899/00715b3f-851b-420b-a26b-d7f79f7759a9.jpg\"]","trial_type":"similarity","trial_index":67,"time_elapsed":428793,"internal_node_id":"0.0-6.0-61.0"},{"sim_score":2,"rt":3710,"stimulus":"[\"img/0860/c47fdead-eb02-4989-b078-26f4852f44fe.jpg\",\"img/0875/99698b4d-b4a1-44bc-8c83-8ea755bbbf61.jpg\"]","trial_type":"similarity","trial_index":68,"time_elapsed":433508,"internal_node_id":"0.0-6.0-62.0"},{"sim_score":1,"rt":3007,"stimulus":"[\"img/0868/fd307a36-9a3a-47d7-ab7c-f810d0b35040.jpg\",\"img/0874/99f6563c-8a8d-4c1c-a41d-667b618c3fd5.jpg\"]","trial_type":"similarity","trial_index":69,"time_elapsed":437523,"internal_node_id":"0.0-6.0-63.0"},{"sim_score":1,"rt":3383,"stimulus":"[\"img/0758/53f35650-e455-4b53-8be4-c3c8271c6466.jpg\",\"img/0862/47ed5efd-4ec9-4b74-bb4e-a5f5cf0c3e7d.jpg\"]","trial_type":"similarity","trial_index":70,"time_elapsed":441915,"internal_node_id":"0.0-6.0-64.0"},{"sim_score":4,"rt":5285,"stimulus":"[\"img/0904/a8c3c7d2-9bcf-4347-9e03-8203adfc1fc5.jpg\",\"img/0898/82231d4c-218b-4d0a-b50d-35a49b524e97.jpg\"]","trial_type":"similarity","trial_index":71,"time_elapsed":448206,"internal_node_id":"0.0-6.0-65.0"},{"sim_score":1,"rt":2774,"stimulus":"[\"img/0881/f6bd3b96-dc40-4e99-8681-bc3a35cf896d.jpg\",\"img/0866/9b38d691-1802-4959-ab3f-fc902f0e4ea6.jpg\"]","trial_type":"similarity","trial_index":72,"time_elapsed":451986,"internal_node_id":"0.0-6.0-66.0"},{"sim_score":3,"rt":5249,"stimulus":"[\"img/0867/85a96c62-548f-4994-9553-819e03c3135a.jpg\",\"img/0898/79233891-305a-4a6a-8ddf-5c8604858203.jpg\"]","trial_type":"similarity","trial_index":73,"time_elapsed":458242,"internal_node_id":"0.0-6.0-67.0"},{"sim_score":6,"rt":4902,"stimulus":"[\"img/0902/7499db23-3a41-41ea-ab5b-6ab4d4c3ed35.jpg\",\"img/0764/29072395-f595-4e3c-83d3-ff87010039fa.jpg\"]","trial_type":"similarity","trial_index":74,"time_elapsed":464151,"internal_node_id":"0.0-6.0-68.0"},{"sim_score":6,"rt":3998,"stimulus":"[\"img/0875/5a716432-c6ca-4b1c-955a-2b8ac25198ee.jpg\",\"img/0867/1719a35d-f085-48c0-9099-16c94fe418b4.jpg\"]","trial_type":"similarity","trial_index":75,"time_elapsed":469156,"internal_node_id":"0.0-6.0-69.0"},{"sim_score":5,"rt":5192,"stimulus":"[\"img/0766/33aa9ebb-c9f5-418f-8c8b-c77861889568.jpg\",\"img/0764/bc3865c9-9004-4582-88a7-048478673f97.jpg\"]","trial_type":"similarity","trial_index":76,"time_elapsed":475367,"internal_node_id":"0.0-6.0-70.0"},{"sim_score":6,"rt":4693,"stimulus":"[\"img/0894/05161000-f476-499b-a878-c13c7f347fd9.jpg\",\"img/0867/6e19c858-b606-45b2-a4c6-910a73f1d82c.jpg\"]","trial_type":"similarity","trial_index":77,"time_elapsed":481066,"internal_node_id":"0.0-6.0-71.0"},{"sim_score":2,"rt":3030,"stimulus":"[\"img/0875/2e13d160-eea1-416b-aff1-d37ab99ecc1d.jpg\",\"img/0764/a86eed5b-d0af-4c3f-8c7a-26e98e98cf1a.jpg\"]","trial_type":"similarity","trial_index":78,"time_elapsed":485103,"internal_node_id":"0.0-6.0-72.0"},{"sim_score":3,"rt":3197,"stimulus":"[\"img/0867/cc72ed48-7704-422c-86d6-467a1145287a.jpg\",\"img/0866/02f5e6b9-52b7-448c-9708-5b460d0c9a23.jpg\"]","trial_type":"similarity","trial_index":79,"time_elapsed":489309,"internal_node_id":"0.0-6.0-73.0"},{"sim_score":6,"rt":5402,"stimulus":"[\"img/0903/45e2d600-57ff-4d69-b22c-0c7896cd38f0.jpg\",\"img/0758/335851a0-a55b-46d8-ab05-8463eda48349.jpg\"]","trial_type":"similarity","trial_index":80,"time_elapsed":495716,"internal_node_id":"0.0-6.0-74.0"},{"sim_score":2,"rt":3402,"stimulus":"[\"img/0766/ae0fce93-fe8d-4aa1-87ca-4c3e4b889f2f.jpg\",\"img/0868/1a62b2b2-18f5-466e-b564-5176a57c565e.jpg\"]","trial_type":"similarity","trial_index":81,"time_elapsed":500126,"internal_node_id":"0.0-6.0-75.0"},{"sim_score":3,"rt":7193,"stimulus":"[\"img/0874/3ce41e7c-40c8-4d58-a546-171114521796.jpg\",\"img/0766/f011ef45-fb48-44b8-8224-867ed2ccf786.jpg\"]","trial_type":"similarity","trial_index":82,"time_elapsed":508324,"internal_node_id":"0.0-6.0-76.0"},{"sim_score":1,"rt":3891,"stimulus":"[\"img/0881/ee44e27f-d662-4608-b265-e7ffa19b216f.jpg\",\"img/0868/4e626425-63c8-484a-8a1d-e66ee4e0bef8.jpg\"]","trial_type":"similarity","trial_index":83,"time_elapsed":513222,"internal_node_id":"0.0-6.0-77.0"},{"sim_score":1,"rt":3776,"stimulus":"[\"img/0758/9fb5b2fe-3f00-4fe6-973c-1ce10d5f4cd5.jpg\",\"img/0901/875dedb9-24c9-4443-9f8c-85e97d70ee5a.jpg\"]","trial_type":"similarity","trial_index":84,"time_elapsed":518003,"internal_node_id":"0.0-6.0-78.0"},{"sim_score":3,"rt":5901,"stimulus":"[\"img/0881/14236cf2-6b95-48b8-9368-78af09d2d27f.jpg\",\"img/0898/08c72dac-f8ad-407a-9ce6-8c9a5d679c3a.jpg\"]","trial_type":"similarity","trial_index":85,"time_elapsed":524914,"internal_node_id":"0.0-6.0-79.0"},{"sim_score":1,"rt":4011,"stimulus":"[\"img/0867/2e1a0b58-cdb1-4107-a14e-452530d7b9b0.jpg\",\"img/0758/caa93da2-9edf-49fa-96b9-32dedd8f5078.jpg\"]","trial_type":"similarity","trial_index":86,"time_elapsed":529930,"internal_node_id":"0.0-6.0-80.0"},{"sim_score":2,"rt":3866,"stimulus":"[\"img/0769/35f2dd39-40aa-498e-b401-9f1ef2622d00.jpg\",\"img/0899/7f9d45d0-b2c6-40d3-aa41-c207db2c411b.jpg\"]","trial_type":"similarity","trial_index":87,"time_elapsed":534803,"internal_node_id":"0.0-6.0-81.0"},{"sim_score":6,"rt":4553,"stimulus":"[\"img/0903/f1fa0f8d-e62b-4b4a-a174-31a0fabfe61b.jpg\",\"img/0903/36e4ab1f-caa9-40b3-8616-faada076df94.jpg\"]","trial_type":"similarity","trial_index":88,"time_elapsed":540360,"internal_node_id":"0.0-6.0-82.0"},{"sim_score":1,"rt":4510,"stimulus":"[\"img/0867/ac1797e4-8afc-48fe-b252-86d1defb1cca.jpg\",\"img/0766/908bc45b-7c9e-4f95-806e-86b196ebcb2c.jpg\"]","trial_type":"similarity","trial_index":89,"time_elapsed":552940,"internal_node_id":"0.0-6.0-83.0"},{"sim_score":5,"rt":3840,"stimulus":"[\"img/0902/ca3160ba-ad5d-459f-a1b6-8b4f3c85ecd5.jpg\",\"img/0867/12264664-1860-46df-8c21-162b9817cdda.jpg\"]","trial_type":"similarity","trial_index":90,"time_elapsed":557787,"internal_node_id":"0.0-6.0-84.0"},{"sim_score":3,"rt":3903,"stimulus":"[\"img/0901/c6df1a21-44ed-47c2-960e-7c52220e329e.jpg\",\"img/0875/e7e66b13-b573-431e-b85e-288ce04a35a3.jpg\"]","trial_type":"similarity","trial_index":91,"time_elapsed":562697,"internal_node_id":"0.0-6.0-85.0"},{"sim_score":4,"rt":4610,"stimulus":"[\"img/0764/c643e165-df19-459f-8c2b-8357bf432a17.jpg\",\"img/0866/93a27239-8317-4e08-98ca-d8b1ff298e07.jpg\"]","trial_type":"similarity","trial_index":92,"time_elapsed":568314,"internal_node_id":"0.0-6.0-86.0"},{"sim_score":4,"rt":5294,"stimulus":"[\"img/0901/5b97abf9-f0c8-4fd1-b921-36d574779078.jpg\",\"img/0894/b2d2f66e-e480-46da-a02a-6d0c6b285d78.jpg\"]","trial_type":"similarity","trial_index":93,"time_elapsed":574614,"internal_node_id":"0.0-6.0-87.0"},{"sim_score":5,"rt":5736,"stimulus":"[\"img/0898/661621d4-a14e-487c-8c74-354134a29710.jpg\",\"img/0769/f6396414-6788-4d59-9683-de153298d89c.jpg\"]","trial_type":"similarity","trial_index":94,"time_elapsed":581356,"internal_node_id":"0.0-6.0-88.0"},{"sim_score":6,"rt":4302,"stimulus":"[\"img/0769/3adfa417-3b90-4aab-b437-5eaa474189cb.jpg\",\"img/0894/bd34223a-2f66-4e16-9d18-193a746b69ff.jpg\"]","trial_type":"similarity","trial_index":95,"time_elapsed":586665,"internal_node_id":"0.0-6.0-89.0"},{"sim_score":1,"rt":5193,"stimulus":"[\"img/0862/92f0146c-20c4-482e-aef5-adb693790338.jpg\",\"img/0874/29830da7-be5f-44e5-b141-652a0ccf7269.jpg\"]","trial_type":"similarity","trial_index":96,"time_elapsed":592865,"internal_node_id":"0.0-6.0-90.0"},{"sim_score":5,"rt":4149,"stimulus":"[\"img/0894/43216a7f-27bc-4b5a-8841-d122a30da9d9.jpg\",\"img/0766/0b48f9e0-7d37-4161-8adb-4e3f5b6b7583.jpg\"]","trial_type":"similarity","trial_index":97,"time_elapsed":598020,"internal_node_id":"0.0-6.0-91.0"},{"sim_score":2,"rt":3164,"stimulus":"[\"img/0874/31e22c7c-99aa-40b1-bf03-dd73fa2df4d6.jpg\",\"img/0867/bf560d4f-dee3-4f11-a385-705cc1aa5f3c.jpg\"]","trial_type":"similarity","trial_index":98,"time_elapsed":602189,"internal_node_id":"0.0-6.0-92.0"},{"sim_score":2,"rt":3281,"stimulus":"[\"img/0899/8de08897-b430-42fe-9d42-840670b80f94.jpg\",\"img/0868/5fa7f9d0-f0e5-454c-8224-74d964818f56.jpg\"]","trial_type":"similarity","trial_index":99,"time_elapsed":606475,"internal_node_id":"0.0-6.0-93.0"},{"sim_score":1,"rt":4337,"stimulus":"[\"img/0903/0fb24af7-9a26-4e9d-aadc-959a36f683e2.jpg\",\"img/0862/99a99e39-8355-44ec-b993-e7bcec111e1c.jpg\"]","trial_type":"similarity","trial_index":100,"time_elapsed":611821,"internal_node_id":"0.0-6.0-94.0"},{"sim_score":2,"rt":5012,"stimulus":"[\"img/0899/f58b8d2f-b19d-4b59-8b94-8834be92e4ba.jpg\",\"img/0766/e8052e17-9dae-4139-802b-6e590cb2d526.jpg\"]","trial_type":"similarity","trial_index":101,"time_elapsed":617839,"internal_node_id":"0.0-6.0-95.0"},{"sim_score":6,"rt":3181,"stimulus":"[\"img/0867/179ab87a-8eac-4c52-a41f-2e48e3120f09.jpg\",\"img/0868/d98ca254-b195-477f-b57e-5760a2717db8.jpg\"]","trial_type":"similarity","trial_index":102,"time_elapsed":622025,"internal_node_id":"0.0-6.0-96.0"},{"sim_score":1,"rt":3349,"stimulus":"[\"img/0862/57b6f83f-c763-4858-830d-102f97bfefbf.jpg\",\"img/0901/31c032fd-3c3d-4882-a226-da9a80198937.jpg\"]","trial_type":"similarity","trial_index":103,"time_elapsed":626379,"internal_node_id":"0.0-6.0-97.0"},{"sim_score":1,"rt":3896,"stimulus":"[\"img/0875/dbdd643e-6d0e-4a5c-ab57-b9c29b9c981a.jpg\",\"img/0766/214866ee-423d-4629-9bb9-41572bdc7dac.jpg\"]","trial_type":"similarity","trial_index":104,"time_elapsed":631281,"internal_node_id":"0.0-6.0-98.0"},{"sim_score":7,"rt":5250,"stimulus":"[\"img/0758/d540bee6-b460-4c32-ac57-bc282742d7d4.jpg\",\"img/0874/a82926a3-0b43-4add-803c-d5f9ea7798ee.jpg\"]","trial_type":"similarity","trial_index":105,"time_elapsed":637538,"internal_node_id":"0.0-6.0-99.0"},{"sim_score":5,"rt":6932,"stimulus":"[\"img/0904/60d1a521-edf7-4696-9263-f21ac0e62a01.jpg\",\"img/0868/8b0b8473-e2c0-4331-aa56-c3a5c29369da.jpg\"]","trial_type":"similarity","trial_index":106,"time_elapsed":645478,"internal_node_id":"0.0-6.0-100.0"},{"sim_score":4,"rt":5262,"stimulus":"[\"img/0903/8fcafe03-43df-4c45-9da5-0df3a1eeccc5.jpg\",\"img/0866/07c9c966-3c8d-40e7-8128-92b2acbaed5d.jpg\"]","trial_type":"similarity","trial_index":107,"time_elapsed":651748,"internal_node_id":"0.0-6.0-101.0"},{"sim_score":2,"rt":5848,"stimulus":"[\"img/0868/6a28c3b0-3d76-498a-9fb7-ddafc665eca8.jpg\",\"img/0769/662ab839-88d1-4ebf-af05-9b2980cad943.jpg\"]","trial_type":"similarity","trial_index":108,"time_elapsed":658602,"internal_node_id":"0.0-6.0-102.0"},{"sim_score":5,"rt":4441,"stimulus":"[\"img/0902/6730b12a-f0a7-4587-8c10-a32fae16565b.jpg\",\"img/0899/fd9efb43-701f-4cd6-baaa-4c38315f4bdc.jpg\"]","trial_type":"similarity","trial_index":109,"time_elapsed":664049,"internal_node_id":"0.0-6.0-103.0"},{"sim_score":1,"rt":3508,"stimulus":"[\"img/0868/c8ac40c7-6904-4e13-8d61-c75d3052dc4e.jpg\",\"img/0862/5d887e9f-89e2-4ebc-80a0-6d46fe6480db.jpg\"]","trial_type":"similarity","trial_index":110,"time_elapsed":668563,"internal_node_id":"0.0-6.0-104.0"},{"sim_score":2,"rt":5678,"stimulus":"[\"img/0903/07b445ee-0cdb-4d2c-a23b-d727613f4059.jpg\",\"img/0894/7dd6ff43-f8fc-408a-8a41-a2b261871820.jpg\"]","trial_type":"similarity","trial_index":111,"time_elapsed":675246,"internal_node_id":"0.0-6.0-105.0"},{"sim_score":2,"rt":4326,"stimulus":"[\"img/0864/efcfbb1b-8197-44c9-b723-40d6c608dd3c.jpg\",\"img/0874/93d1f8dc-acf2-4f03-bd8d-8ec35df276ed.jpg\"]","trial_type":"similarity","trial_index":112,"time_elapsed":680578,"internal_node_id":"0.0-6.0-106.0"},{"sim_score":2,"rt":5585,"stimulus":"[\"img/0862/d0ca4c78-fc35-46ed-bdcc-8e124283c53e.jpg\",\"img/0902/8af4182a-9af9-4212-a436-9195555112d6.jpg\"]","trial_type":"similarity","trial_index":113,"time_elapsed":687168,"internal_node_id":"0.0-6.0-107.0"},{"sim_score":6,"rt":4505,"stimulus":"[\"img/0904/6291eb43-c10c-4810-a36a-101d09868b04.jpg\",\"img/0903/680ed18e-b311-4ecf-9b00-7dea32128334.jpg\"]","trial_type":"similarity","trial_index":114,"time_elapsed":692680,"internal_node_id":"0.0-6.0-108.0"},{"sim_score":4,"rt":6068,"stimulus":"[\"img/0764/958b8576-3a3b-4acc-96dc-06b74de69f37.jpg\",\"img/0864/a248adb3-c70b-4652-b7a3-776d2a1e904b.jpg\"]","trial_type":"similarity","trial_index":115,"time_elapsed":699754,"internal_node_id":"0.0-6.0-109.0"},{"sim_score":5,"rt":6380,"stimulus":"[\"img/0866/8efcaa46-83ab-4dee-a35f-850402aa21ae.jpg\",\"img/0894/38f5931f-926d-414e-b498-66b188978b7a.jpg\"]","trial_type":"similarity","trial_index":116,"time_elapsed":707142,"internal_node_id":"0.0-6.0-110.0"},{"sim_score":3,"rt":5487,"stimulus":"[\"img/0899/9de5e857-aa9a-4e0c-8ba2-46d79bd069a4.jpg\",\"img/0903/3e9ee8a5-eb66-47f5-8973-8a5af1ddc87e.jpg\"]","trial_type":"similarity","trial_index":117,"time_elapsed":713636,"internal_node_id":"0.0-6.0-111.0"},{"sim_score":6,"rt":5931,"stimulus":"[\"img/0902/1a120fb9-dbd6-443e-ba91-b4aceab963da.jpg\",\"img/0904/4e58005d-a2ec-4aaa-b199-445343561396.jpg\"]","trial_type":"similarity","trial_index":118,"time_elapsed":720573,"internal_node_id":"0.0-6.0-112.0"},{"sim_score":5,"rt":5405,"stimulus":"[\"img/0864/300bb811-8b3c-4c42-8653-6097c3725197.jpg\",\"img/0860/8a92e21b-6a32-4e4a-a445-2d5a487ed0a4.jpg\"]","trial_type":"similarity","trial_index":119,"time_elapsed":726984,"internal_node_id":"0.0-6.0-113.0"},{"sim_score":3,"rt":3322,"stimulus":"[\"img/0860/5383b320-1518-4095-a58e-5cc1ae30b64c.jpg\",\"img/0899/4408c14d-c168-4a7d-96f6-bc87bfb58f83.jpg\"]","trial_type":"similarity","trial_index":120,"time_elapsed":731314,"internal_node_id":"0.0-6.0-114.0"},{"sim_score":1,"rt":4671,"stimulus":"[\"img/0881/db77fe00-aeb0-4d1d-aa66-f3a96fd077e4.jpg\",\"img/0903/8635cf25-2648-4fe9-8c42-79d2598e999c.jpg\"]","trial_type":"similarity","trial_index":121,"time_elapsed":736991,"internal_node_id":"0.0-6.0-115.0"},{"sim_score":4,"rt":5330,"stimulus":"[\"img/0894/7fb082e0-ce79-485c-9109-04367fb32275.jpg\",\"img/0874/bf14b896-e930-4fd9-9c05-2e83317a2773.jpg\"]","trial_type":"similarity","trial_index":122,"time_elapsed":743327,"internal_node_id":"0.0-6.0-116.0"},{"sim_score":4,"rt":5096,"stimulus":"[\"img/0881/566f45f8-5fed-4479-a60f-26377e60a62d.jpg\",\"img/0862/f23038d4-c366-4f70-979f-66b62362efa4.jpg\"]","trial_type":"similarity","trial_index":123,"time_elapsed":749428,"internal_node_id":"0.0-6.0-117.0"},{"sim_score":5,"rt":4954,"stimulus":"[\"img/0868/77091fc7-a590-4ebb-b915-fdb2483a2399.jpg\",\"img/0875/5a1e5100-0d94-4fec-bbe9-ca9894d2cf8e.jpg\"]","trial_type":"similarity","trial_index":124,"time_elapsed":755389,"internal_node_id":"0.0-6.0-118.0"},{"sim_score":1,"rt":4140,"stimulus":"[\"img/0860/8fdba999-b946-4c7d-9891-336018b563ef.jpg\",\"img/0758/d41c06bf-ebaf-454b-91c6-1a17f917b659.jpg\"]","trial_type":"similarity","trial_index":125,"time_elapsed":760536,"internal_node_id":"0.0-6.0-119.0"},{"sim_score":2,"rt":3390,"stimulus":"[\"img/0864/66091c27-e588-4476-8af9-265dc6be4156.jpg\",\"img/0875/a4935837-7d3c-4df6-88c1-36a94d4991ca.jpg\"]","trial_type":"similarity","trial_index":126,"time_elapsed":764933,"internal_node_id":"0.0-6.0-120.0"},{"sim_score":1,"rt":3507,"stimulus":"[\"img/0898/e167334e-cc1d-4986-b3b1-c7bc7da64baa.jpg\",\"img/0866/a15b02be-11bb-43e3-b0e0-ecc3bd7dfc49.jpg\"]","trial_type":"similarity","trial_index":127,"time_elapsed":769445,"internal_node_id":"0.0-6.0-121.0"},{"sim_score":6,"rt":5417,"stimulus":"[\"img/0874/3f471690-9788-4d03-90c7-f615aecef149.jpg\",\"img/0904/4b8daf2a-13a9-4ea9-9e0b-b265b6e933e7.jpg\"]","trial_type":"similarity","trial_index":128,"time_elapsed":775869,"internal_node_id":"0.0-6.0-122.0"},{"sim_score":2,"rt":5998,"stimulus":"[\"img/0904/25365108-e038-4021-aac9-797f2063b337.jpg\",\"img/0864/ea327690-500b-4137-bf91-451b309fe6a5.jpg\"]","trial_type":"similarity","trial_index":129,"time_elapsed":782872,"internal_node_id":"0.0-6.0-123.0"},{"sim_score":2,"rt":5434,"stimulus":"[\"img/0894/b422d5c6-3c5a-49ae-a53e-7e88ac993f49.jpg\",\"img/0902/c920f0e1-1c81-480f-a164-c77f2dc6ce9a.jpg\"]","trial_type":"similarity","trial_index":130,"time_elapsed":789312,"internal_node_id":"0.0-6.0-124.0"},{"sim_score":2,"rt":3915,"stimulus":"[\"img/0868/7b212364-ff5f-4e28-9241-7eb6ea00161b.jpg\",\"img/0864/49150900-7f25-4ce8-8d10-9b47a71d1997.jpg\"]","trial_type":"similarity","trial_index":131,"time_elapsed":807778,"internal_node_id":"0.0-6.0-125.0"},{"sim_score":2,"rt":5346,"stimulus":"[\"img/0899/0e1d936a-dbe2-4afc-9f19-7b7a1ae6c9ed.jpg\",\"img/0866/0207e9a2-7dbb-40b5-9459-b472aaeceb2a.jpg\"]","trial_type":"similarity","trial_index":132,"time_elapsed":814132,"internal_node_id":"0.0-6.0-126.0"},{"sim_score":2,"rt":4685,"stimulus":"[\"img/0875/cff79b3a-a797-4393-9757-6275f999ec04.jpg\",\"img/0904/63dd06dd-dccb-47ba-9740-eb33239e18a7.jpg\"]","trial_type":"similarity","trial_index":133,"time_elapsed":819824,"internal_node_id":"0.0-6.0-127.0"},{"sim_score":2,"rt":2945,"stimulus":"[\"img/0867/26611f4e-d694-4460-b7e2-43c62753ddc3.jpg\",\"img/0899/66bf4113-ee12-426c-84d2-ea410b6c803e.jpg\"]","trial_type":"similarity","trial_index":134,"time_elapsed":823775,"internal_node_id":"0.0-6.0-128.0"},{"sim_score":2,"rt":5416,"stimulus":"[\"img/0901/d4d09bf5-093e-4050-838e-7c738be8e63c.jpg\",\"img/0867/075e0f95-856b-4cbb-acf5-092393aaf04e.jpg\"]","trial_type":"similarity","trial_index":135,"time_elapsed":830202,"internal_node_id":"0.0-6.0-129.0"},{"sim_score":2,"rt":4733,"stimulus":"[\"img/0864/3d4de670-b290-4285-9c3d-12a0e3af44e9.jpg\",\"img/0769/38a88f69-28fd-4bbd-99f0-f4c02bfd3995.jpg\"]","trial_type":"similarity","trial_index":136,"time_elapsed":835943,"internal_node_id":"0.0-6.0-130.0"},{"sim_score":3,"rt":5424,"stimulus":"[\"img/0903/47e39de8-6959-469f-8be9-6999a6db207c.jpg\",\"img/0868/09a9ef4d-d000-4cfa-a6aa-ebec7c2edeb4.jpg\"]","trial_type":"similarity","trial_index":137,"time_elapsed":842375,"internal_node_id":"0.0-6.0-131.0"},{"sim_score":3,"rt":2854,"stimulus":"[\"img/0864/f92649a2-0590-4d31-9a7a-1bfb81666a2d.jpg\",\"img/0867/a498eef3-9fa4-4ab2-9778-4ae82ac40dc5.jpg\"]","trial_type":"similarity","trial_index":138,"time_elapsed":846236,"internal_node_id":"0.0-6.0-132.0"},{"sim_score":5,"rt":5224,"stimulus":"[\"img/0901/443f2e59-199b-4f7b-9de9-c44ad97326a5.jpg\",\"img/0860/b03b963d-949b-4d8d-b19c-4950c89eeca2.jpg\"]","trial_type":"similarity","trial_index":139,"time_elapsed":852467,"internal_node_id":"0.0-6.0-133.0"},{"sim_score":5,"rt":3881,"stimulus":"[\"img/0881/e6746727-7f89-47ec-b939-d98abe78372d.jpg\",\"img/0766/ea09dd5a-d24d-4e97-a099-7da3db1baef1.jpg\"]","trial_type":"similarity","trial_index":140,"time_elapsed":857353,"internal_node_id":"0.0-6.0-134.0"},{"sim_score":5,"rt":4896,"stimulus":"[\"img/0903/4cbdc464-e562-4ec2-9bb6-15f894fdf528.jpg\",\"img/0864/4bd81bc6-c13d-46df-95a9-485886dc7c1b.jpg\"]","trial_type":"similarity","trial_index":141,"time_elapsed":863256,"internal_node_id":"0.0-6.0-135.0"},{"sim_score":1,"rt":3850,"stimulus":"[\"img/0758/7fba58df-2a7a-4b76-8a8f-62739f97f271.jpg\",\"img/0894/e5edf723-72a5-4673-8441-6c1734a8929b.jpg\"]","trial_type":"similarity","trial_index":142,"time_elapsed":868112,"internal_node_id":"0.0-6.0-136.0"},{"sim_score":3,"rt":3926,"stimulus":"[\"img/0769/1afb527f-9887-428c-bd26-a12c2f9efb68.jpg\",\"img/0860/61fb959d-d4d9-4de4-9e4e-4fa62b4cfcd5.jpg\"]","trial_type":"similarity","trial_index":143,"time_elapsed":873047,"internal_node_id":"0.0-6.0-137.0"},{"sim_score":2,"rt":3420,"stimulus":"[\"img/0904/73920552-103b-4c9c-9ece-e0b8376b4504.jpg\",\"img/0766/dd3e18d0-0c98-4d05-b850-69976ee8cd75.jpg\"]","trial_type":"similarity","trial_index":144,"time_elapsed":877474,"internal_node_id":"0.0-6.0-138.0"},{"sim_score":4,"rt":6228,"stimulus":"[\"img/0868/4bd5105a-d2c3-4f82-8c80-57196106ba53.jpg\",\"img/0860/c5ccd1a4-4bb7-48e1-9b25-72cfaf06909b.jpg\"]","trial_type":"similarity","trial_index":145,"time_elapsed":884709,"internal_node_id":"0.0-6.0-139.0"},{"sim_score":2,"rt":4120,"stimulus":"[\"img/0758/dd559618-7f09-4a07-8018-d311c4a5ea29.jpg\",\"img/0864/da39ad34-04e0-40d4-a724-c08d53e0ea09.jpg\"]","trial_type":"similarity","trial_index":146,"time_elapsed":889837,"internal_node_id":"0.0-6.0-140.0"},{"sim_score":6,"rt":3117,"stimulus":"[\"img/0867/50a1b60e-3a29-44bf-b606-d4bd3746fea9.jpg\",\"img/0867/a749dddb-69f0-44a6-acdc-2bf295cf6dcc.jpg\"]","trial_type":"similarity","trial_index":147,"time_elapsed":893960,"internal_node_id":"0.0-6.0-141.0"},{"sim_score":5,"rt":4240,"stimulus":"[\"img/0898/cd3aaa3f-efa9-4ab3-8d6f-a6a9273ddf42.jpg\",\"img/0898/b3290bf9-215b-4b45-b21a-65bdf73f142f.jpg\"]","trial_type":"similarity","trial_index":148,"time_elapsed":899205,"internal_node_id":"0.0-6.0-142.0"},{"sim_score":2,"rt":2928,"stimulus":"[\"img/0866/4a87911a-d5be-4d4e-ab8e-3d1f581bf507.jpg\",\"img/0769/48a1144d-fbda-4809-991b-fc8424a32ee4.jpg\"]","trial_type":"similarity","trial_index":149,"time_elapsed":903140,"internal_node_id":"0.0-6.0-143.0"},{"sim_score":5,"rt":5077,"stimulus":"[\"img/0860/18dfed73-e36b-4487-a8bd-0b8cff8e3668.jpg\",\"img/0898/40f99fb2-64d2-4e72-8a7f-a1cf60741e69.jpg\"]","trial_type":"similarity","trial_index":150,"time_elapsed":909223,"internal_node_id":"0.0-6.0-144.0"},{"sim_score":4,"rt":4588,"stimulus":"[\"img/0766/ef3b15ce-abb7-4292-ad93-aec8e8b50520.jpg\",\"img/0864/e8bd659f-aa43-4748-877e-3118e8b4e189.jpg\"]","trial_type":"similarity","trial_index":151,"time_elapsed":914819,"internal_node_id":"0.0-6.0-145.0"},{"sim_score":6,"rt":3979,"stimulus":"[\"img/0860/87039971-2210-4aab-93c0-8e9b5f1655b2.jpg\",\"img/0903/5995f4a8-fa82-46f8-8760-fd7800a5ca34.jpg\"]","trial_type":"similarity","trial_index":152,"time_elapsed":919803,"internal_node_id":"0.0-6.0-146.0"},{"sim_score":3,"rt":3075,"stimulus":"[\"img/0867/8ba0c5a7-c7e4-42cf-a80a-543763b90779.jpg\",\"img/0764/d7c215ab-ea9a-45be-8d5f-417d5b9a8a17.jpg\"]","trial_type":"similarity","trial_index":153,"time_elapsed":923886,"internal_node_id":"0.0-6.0-147.0"},{"sim_score":6,"rt":3426,"stimulus":"[\"img/0769/35364db7-e0d5-40ef-93dc-faf9dfb95136.jpg\",\"img/0904/9dd5708f-3f8b-46a9-b49f-2f2fab87b357.jpg\"]","trial_type":"similarity","trial_index":154,"time_elapsed":928319,"internal_node_id":"0.0-6.0-148.0"},{"sim_score":2,"rt":3617,"stimulus":"[\"img/0764/17b088f8-3053-4140-b544-d15654cc79ef.jpg\",\"img/0901/c6c877e0-dd63-4e00-9657-33af29d55aab.jpg\"]","trial_type":"similarity","trial_index":155,"time_elapsed":932942,"internal_node_id":"0.0-6.0-149.0"},{"sim_score":3,"rt":5739,"stimulus":"[\"img/0904/da170c1b-9651-4f08-b231-2bdd1d9a046f.jpg\",\"img/0899/56a605c3-d0a2-4215-89e1-779279d85a7c.jpg\"]","trial_type":"similarity","trial_index":156,"time_elapsed":939690,"internal_node_id":"0.0-6.0-150.0"},{"sim_score":2,"rt":3001,"stimulus":"[\"img/0862/fb26cb07-d5a9-4653-813c-f41609f26cd5.jpg\",\"img/0867/aa05d113-fc19-4756-a8eb-7878f580bc92.jpg\"]","trial_type":"similarity","trial_index":157,"time_elapsed":943697,"internal_node_id":"0.0-6.0-151.0"},{"sim_score":6,"rt":2809,"stimulus":"[\"img/0766/d5d38751-8fa5-476f-93e9-86ed2d9045ef.jpg\",\"img/0766/0025de5e-f620-4079-8a0f-00326ff3a6b0.jpg\"]","trial_type":"similarity","trial_index":158,"time_elapsed":947512,"internal_node_id":"0.0-6.0-152.0"},{"sim_score":1,"rt":3692,"stimulus":"[\"img/0862/847e5208-38ec-4f36-949c-296cdd7424ee.jpg\",\"img/0894/2217bdcd-23a7-42d3-823b-23f2488d7e87.jpg\"]","trial_type":"similarity","trial_index":159,"time_elapsed":952209,"internal_node_id":"0.0-6.0-153.0"},{"sim_score":2,"rt":4965,"stimulus":"[\"img/0899/7b7380d5-d2be-44e5-a09a-c1756f87ef71.jpg\",\"img/0901/12da1841-e611-435c-9719-109413d536a8.jpg\"]","trial_type":"similarity","trial_index":160,"time_elapsed":958181,"internal_node_id":"0.0-6.0-154.0"},{"sim_score":7,"rt":5316,"stimulus":"[\"img/0874/ca23d307-fc00-4d7d-9106-584c6eb21b4d.jpg\",\"img/0874/adf9a8f1-c40b-402b-b95b-1e85a54a7b62.jpg\"]","trial_type":"similarity","trial_index":161,"time_elapsed":964503,"internal_node_id":"0.0-6.0-155.0"},{"sim_score":2,"rt":4609,"stimulus":"[\"img/0860/5bff793e-cbd5-4d7e-b628-0ac2b0e30b64.jpg\",\"img/0867/de92135f-5b65-4ed9-b245-188292c7c2f8.jpg\"]","trial_type":"similarity","trial_index":162,"time_elapsed":970120,"internal_node_id":"0.0-6.0-156.0"},{"sim_score":3,"rt":5517,"stimulus":"[\"img/0901/d61f267a-c492-4db6-9bfb-61efd49cf072.jpg\",\"img/0881/54ea8e77-c7e5-4197-b7fa-00b7020849a7.jpg\"]","trial_type":"similarity","trial_index":163,"time_elapsed":976645,"internal_node_id":"0.0-6.0-157.0"},{"sim_score":3,"rt":3050,"stimulus":"[\"img/0903/6378ee1e-3d2b-48d2-87be-bebda32c8268.jpg\",\"img/0902/5b45a7a0-81c8-4a71-aaa2-2ce09adb5a29.jpg\"]","trial_type":"similarity","trial_index":164,"time_elapsed":980702,"internal_node_id":"0.0-6.0-158.0"},{"sim_score":2,"rt":4294,"stimulus":"[\"img/0860/e14d67c1-6d92-4f1e-9257-c8607159c19c.jpg\",\"img/0764/1def7b22-b054-4ec2-860b-73d25691823b.jpg\"]","trial_type":"similarity","trial_index":165,"time_elapsed":986003,"internal_node_id":"0.0-6.0-159.0"},{"sim_score":1,"rt":5427,"stimulus":"[\"img/0902/44cd9b7e-fdfb-4f78-90de-8d4c9d279365.jpg\",\"img/0875/8521fd58-3b1e-4dc5-97ae-804edfa6734a.jpg\"]","trial_type":"similarity","trial_index":166,"time_elapsed":992436,"internal_node_id":"0.0-6.0-160.0"},{"sim_score":2,"rt":4827,"stimulus":"[\"img/0898/b2732712-71c2-45d8-834f-2b2ed5504910.jpg\",\"img/0862/7918ca67-5bd3-4606-a5ea-c39fb11a9297.jpg\"]","trial_type":"similarity","trial_index":167,"time_elapsed":998270,"internal_node_id":"0.0-6.0-161.0"},{"sim_score":2,"rt":4622,"stimulus":"[\"img/0894/3adef67d-7676-4995-80b2-bb31b8aca3ef.jpg\",\"img/0875/ebf7653f-ff45-4e9f-af58-2c042ab3cd2b.jpg\"]","trial_type":"similarity","trial_index":168,"time_elapsed":1003903,"internal_node_id":"0.0-6.0-162.0"},{"sim_score":1,"rt":4171,"stimulus":"[\"img/0866/a04d37f0-99dd-478a-b6c6-58b215138f84.jpg\",\"img/0864/e336a4c5-6648-4fd7-b2f6-93a3fb83f8c6.jpg\"]","trial_type":"similarity","trial_index":169,"time_elapsed":1009080,"internal_node_id":"0.0-6.0-163.0"},{"sim_score":1,"rt":4630,"stimulus":"[\"img/0766/33519c22-aaa4-49d7-8d49-ab551db1945e.jpg\",\"img/0862/f43ceabf-acc1-4107-b857-5d1849808f93.jpg\"]","trial_type":"similarity","trial_index":170,"time_elapsed":1014717,"internal_node_id":"0.0-6.0-164.0"},{"sim_score":1,"rt":4060,"stimulus":"[\"img/0866/23a224f3-2012-4fc8-8e0f-3c36f8de27fd.jpg\",\"img/0874/8cdb1c07-1c32-46d2-981c-3636560fa6e5.jpg\"]","trial_type":"similarity","trial_index":171,"time_elapsed":1019784,"internal_node_id":"0.0-6.0-165.0"},{"sim_score":6,"rt":3723,"stimulus":"[\"img/0862/4f0a3b4c-afbf-486e-b248-1d54982f54b4.jpg\",\"img/0860/4c530c3c-6aab-492a-94d1-9c01797bde40.jpg\"]","trial_type":"similarity","trial_index":172,"time_elapsed":1024513,"internal_node_id":"0.0-6.0-166.0"},{"sim_score":2,"rt":5527,"stimulus":"[\"img/0766/f3276cc4-65de-4c2d-88d5-6cfebce14b8f.jpg\",\"img/0901/1ede21d9-384f-4150-86b5-e1c57b5dc1d4.jpg\"]","trial_type":"similarity","trial_index":173,"time_elapsed":1034926,"internal_node_id":"0.0-6.0-167.0"},{"sim_score":7,"rt":3417,"stimulus":"[\"img/0862/cdaed51d-9e2f-4807-801a-4663c40077e2.jpg\",\"img/0862/fad1d7c1-8187-43c3-942a-0fc12183e48e.jpg\"]","trial_type":"similarity","trial_index":174,"time_elapsed":1039352,"internal_node_id":"0.0-6.0-168.0"},{"sim_score":5,"rt":4244,"stimulus":"[\"img/0894/767a0eec-1064-46b1-b1aa-dfa02b0cd74e.jpg\",\"img/0764/4eff630a-6426-4f8d-b2ba-b4d9842a0962.jpg\"]","trial_type":"similarity","trial_index":175,"time_elapsed":1044602,"internal_node_id":"0.0-6.0-169.0"},{"sim_score":2,"rt":3052,"stimulus":"[\"img/0874/85eb9b8a-c4c6-4e5a-b8e7-363a87a82054.jpg\",\"img/0898/ec565187-2e31-4fdd-9a5c-153d0c789ae0.jpg\"]","trial_type":"similarity","trial_index":176,"time_elapsed":1048662,"internal_node_id":"0.0-6.0-170.0"},{"sim_score":2,"rt":5074,"stimulus":"[\"img/0860/e8b8c51e-1834-4875-8b61-6c5bc9b178bd.jpg\",\"img/0766/2da002a4-05c9-4f5c-9ed7-433b4183e273.jpg\"]","trial_type":"similarity","trial_index":177,"time_elapsed":1054744,"internal_node_id":"0.0-6.0-171.0"},{"sim_score":6,"rt":3057,"stimulus":"[\"img/0898/6cd3830b-d44e-4915-be2b-88d31424b91c.jpg\",\"img/0864/c22faebd-9c53-47bc-ada3-b9a30c688e75.jpg\"]","trial_type":"similarity","trial_index":178,"time_elapsed":1058806,"internal_node_id":"0.0-6.0-172.0"},{"sim_score":6,"rt":3863,"stimulus":"[\"img/0881/f4e3e181-b3c9-4af2-a5a4-fc135ab70d2e.jpg\",\"img/0764/f2f23359-8e82-41d3-8900-5b9f4433991d.jpg\"]","trial_type":"similarity","trial_index":179,"time_elapsed":1063676,"internal_node_id":"0.0-6.0-173.0"},{"sim_score":2,"rt":4517,"stimulus":"[\"img/0898/26c41340-15bd-4ead-8fe4-c0d0ddca09c2.jpg\",\"img/0868/d6d1f30d-4323-435a-b194-7892521bc57e.jpg\"]","trial_type":"similarity","trial_index":180,"time_elapsed":1069199,"internal_node_id":"0.0-6.0-174.0"},{"sim_score":4,"rt":5498,"stimulus":"[\"img/0864/9b2490c5-a282-400a-9736-e1a0ecbf1cb7.jpg\",\"img/0864/5f33e097-23e3-4002-882d-76e8cb15f451.jpg\"]","trial_type":"similarity","trial_index":181,"time_elapsed":1075704,"internal_node_id":"0.0-6.0-175.0"},{"sim_score":5,"rt":6609,"stimulus":"[\"img/0899/0adc0bc3-6fca-4078-be6f-d45ddf1653d5.jpg\",\"img/0862/e0f1a4e9-e1b6-45f7-af67-89f334e6630d.jpg\"]","trial_type":"similarity","trial_index":182,"time_elapsed":1083319,"internal_node_id":"0.0-6.0-176.0"},{"sim_score":5,"rt":5664,"stimulus":"[\"img/0875/fb732ab5-013a-4366-9f65-27811ed157e9.jpg\",\"img/0758/b76ceca7-95ac-46e4-ac13-da02c8e93be9.jpg\"]","trial_type":"similarity","trial_index":183,"time_elapsed":1089990,"internal_node_id":"0.0-6.0-177.0"},{"sim_score":1,"rt":4709,"stimulus":"[\"img/0866/bf14b5bd-fb55-47db-86b9-4f8aeb9a6dad.jpg\",\"img/0901/7c16dd9c-44ad-4d5b-990c-6a0b9b48b1b1.jpg\"]","trial_type":"similarity","trial_index":184,"time_elapsed":1095704,"internal_node_id":"0.0-6.0-178.0"},{"sim_score":2,"rt":3955,"stimulus":"[\"img/0769/aad494cc-674d-4a08-9bfa-24a88ebe3c79.jpg\",\"img/0874/a3bc679d-619f-4db6-bb68-116dcb757d9c.jpg\"]","trial_type":"similarity","trial_index":185,"time_elapsed":1100666,"internal_node_id":"0.0-6.0-179.0"},{"sim_score":2,"rt":3954,"stimulus":"[\"img/0875/5a7c4e35-6514-4e12-8879-d16071da4cd6.jpg\",\"img/0881/ed4c971f-0873-4fc8-b6d6-e8bbd82f0bcc.jpg\"]","trial_type":"similarity","trial_index":186,"time_elapsed":1105627,"internal_node_id":"0.0-6.0-180.0"},{"sim_score":7,"rt":3091,"stimulus":"[\"img/0866/f756f7d1-9ad8-4a34-9ef6-7a443d705bfe.jpg\",\"img/0868/15dd6fd7-791e-4b53-b203-195d617521a4.jpg\"]","trial_type":"similarity","trial_index":187,"time_elapsed":1109724,"internal_node_id":"0.0-6.0-181.0"},{"sim_score":6,"rt":3398,"stimulus":"[\"img/0899/4f7bc593-8ddd-4da3-a0b9-84da730d3370.jpg\",\"img/0758/6e95579b-5166-487c-b8cb-e417c6a218e3.jpg\"]","trial_type":"similarity","trial_index":188,"time_elapsed":1114129,"internal_node_id":"0.0-6.0-182.0"},{"sim_score":5,"rt":5068,"stimulus":"[\"img/0874/1016b306-087c-4afc-aa08-fa527b28dc76.jpg\",\"img/0875/f87b67d7-c33e-40d1-b281-248c4be1cb6e.jpg\"]","trial_type":"similarity","trial_index":189,"time_elapsed":1120204,"internal_node_id":"0.0-6.0-183.0"},{"sim_score":3,"rt":3675,"stimulus":"[\"img/0904/4d7d70a3-9477-4921-bda0-f9531d0a5c5b.jpg\",\"img/0862/92fcd8a4-8193-4a6a-ae09-dd4a6338b0df.jpg\"]","trial_type":"similarity","trial_index":190,"time_elapsed":1124885,"internal_node_id":"0.0-6.0-184.0"},{"sim_score":3,"rt":5380,"stimulus":"[\"img/0902/168ebd47-9e82-4ab7-a18b-c3da85072db8.jpg\",\"img/0766/110832e5-2646-4bd0-a94e-5df8cc314269.jpg\"]","trial_type":"similarity","trial_index":191,"time_elapsed":1131272,"internal_node_id":"0.0-6.0-185.0"},{"sim_score":2,"rt":6254,"stimulus":"[\"img/0758/d57c2592-a317-4f63-91be-91a3a9afd222.jpg\",\"img/0769/3c1203c5-2ce7-466e-957a-8d77b5905460.jpg\"]","trial_type":"similarity","trial_index":192,"time_elapsed":1138533,"internal_node_id":"0.0-6.0-186.0"},{"sim_score":7,"rt":5385,"stimulus":"[\"img/0881/1407b85b-a1c6-45b1-9884-3b24203efadb.jpg\",\"img/0881/609a5e93-38b5-4940-8627-2bf8fad7f802.jpg\"]","trial_type":"similarity","trial_index":193,"time_elapsed":1144924,"internal_node_id":"0.0-6.0-187.0"},{"sim_score":2,"rt":5114,"stimulus":"[\"img/0758/6cd8c362-ae2a-41eb-80a3-3a4f7ace1530.jpg\",\"img/0866/6f2a90d7-14f1-4f1b-bd64-fc0af6b9fe44.jpg\"]","trial_type":"similarity","trial_index":194,"time_elapsed":1151045,"internal_node_id":"0.0-6.0-188.0"},{"sim_score":6,"rt":4068,"stimulus":"[\"img/0764/c0b03adb-bd0a-4b96-a915-a827c2fd5211.jpg\",\"img/0898/0af304a2-6a7a-4082-ab7c-4450cd08cc58.jpg\"]","trial_type":"similarity","trial_index":195,"time_elapsed":1156120,"internal_node_id":"0.0-6.0-189.0"},{"sim_score":5,"rt":4647,"stimulus":"[\"img/0903/c708d08f-a108-4e04-8288-c3fcf6375db4.jpg\",\"img/0901/a373612d-67e2-4fec-9764-21d3d6ef6359.jpg\"]","trial_type":"similarity","trial_index":196,"time_elapsed":1161774,"internal_node_id":"0.0-6.0-190.0"},{"sim_score":6,"rt":3031,"stimulus":"[\"img/0902/71c03003-03ef-4b0f-8229-e0c857150a5d.jpg\",\"img/0898/68476bbb-34a1-42d9-8bc1-deab783d4489.jpg\"]","trial_type":"similarity","trial_index":197,"time_elapsed":1165812,"internal_node_id":"0.0-6.0-191.0"},{"sim_score":2,"rt":4470,"stimulus":"[\"img/0864/3651d070-2fc5-4848-b6a6-088a2d9ac5c9.jpg\",\"img/0901/148b747a-7392-437e-8823-33053c5dff3f.jpg\"]","trial_type":"similarity","trial_index":198,"time_elapsed":1171288,"internal_node_id":"0.0-6.0-192.0"},{"sim_score":3,"rt":7333,"stimulus":"[\"img/0894/1a010553-d598-4b06-a772-81f1e7b3addb.jpg\",\"img/0881/7e822106-76f7-4b10-a805-14dc68b2cfaf.jpg\"]","trial_type":"similarity","trial_index":199,"time_elapsed":1179628,"internal_node_id":"0.0-6.0-193.0"},{"sim_score":7,"rt":2569,"stimulus":"[\"img/0868/4a8a45ed-2c4f-421b-9564-409a33ecd26c.jpg\",\"img/0868/3a62db2d-97e9-44a3-b8e3-a48c6f0e423b.jpg\"]","trial_type":"similarity","trial_index":200,"time_elapsed":1183204,"internal_node_id":"0.0-6.0-194.0"},{"sim_score":5,"rt":3895,"stimulus":"[\"img/0899/d60714ae-98d7-4564-8c98-94dba1351135.jpg\",\"img/0764/a3226bc4-dcc3-4608-bde8-1414d685ce5c.jpg\"]","trial_type":"similarity","trial_index":201,"time_elapsed":1188107,"internal_node_id":"0.0-6.0-195.0"},{"sim_score":2,"rt":4483,"stimulus":"[\"img/0881/19e82c47-8e4b-45d2-a6c8-74181eb4155e.jpg\",\"img/0904/65e2b70a-b184-4da3-b5c0-5038bdf9469a.jpg\"]","trial_type":"similarity","trial_index":202,"time_elapsed":1193596,"internal_node_id":"0.0-6.0-196.0"},{"sim_score":2,"rt":3089,"stimulus":"[\"img/0864/5f74a653-3bdc-4308-8cca-ac667dc22e1f.jpg\",\"img/0902/417d8b4a-3c72-4adc-ac78-820e833316f2.jpg\"]","trial_type":"similarity","trial_index":203,"time_elapsed":1197690,"internal_node_id":"0.0-6.0-197.0"},{"sim_score":4,"rt":402,"stimulus":"[\"img/0894/a3d4170b-b7d8-40e3-955f-87e76ed745fc.jpg\",\"img/0904/ba8e689e-9ca6-4608-a2a1-3b0940666ae6.jpg\"]","trial_type":"similarity","trial_index":204,"time_elapsed":1199099,"internal_node_id":"0.0-6.0-198.0"},{"sim_score":6,"rt":4670,"stimulus":"[\"img/0901/62315ff5-ed95-46b4-b099-92552079659b.jpg\",\"img/0901/b123d109-47b4-4f9a-80c9-9bb16da42efa.jpg\"]","trial_type":"similarity","trial_index":205,"time_elapsed":1204775,"internal_node_id":"0.0-6.0-199.0"},{"sim_score":4,"rt":3688,"stimulus":"[\"img/0894/1b3888e6-cf36-4c4a-a039-187aa5cb71ac.jpg\",\"img/0860/17b44a7d-c5ca-479f-9e87-f65a64f5c80e.jpg\"]","trial_type":"similarity","trial_index":206,"time_elapsed":1209470,"internal_node_id":"0.0-6.0-200.0"},{"sim_score":6,"rt":3677,"stimulus":"[\"img/0898/224c1572-56b9-4f16-a9e4-6f3bc9c114bd.jpg\",\"img/0903/31b5a5f4-b695-4af1-bad2-a19650a05498.jpg\"]","trial_type":"similarity","trial_index":207,"time_elapsed":1214153,"internal_node_id":"0.0-6.0-201.0"},{"sim_score":6,"rt":4223,"stimulus":"[\"img/0864/87c467d3-abca-482f-ad80-3766c21b1bb3.jpg\",\"img/0894/8cadb87a-7001-4e47-99fb-1867bebf1668.jpg\"]","trial_type":"similarity","trial_index":208,"time_elapsed":1219382,"internal_node_id":"0.0-6.0-202.0"},{"sim_score":5,"rt":4968,"stimulus":"[\"img/0874/2c9464dd-8a23-4baa-ac94-1ba3af5c15cc.jpg\",\"img/0860/9593362c-9fe5-4d12-9735-6000a11f6aa5.jpg\"]","trial_type":"similarity","trial_index":209,"time_elapsed":1225357,"internal_node_id":"0.0-6.0-203.0"},{"sim_score":5,"rt":4132,"stimulus":"[\"img/0862/a0a3a7ba-7798-46a3-b4ca-05e1f6e581d0.jpg\",\"img/0875/03c3c331-738b-4446-af92-3d7386b08c2e.jpg\"]","trial_type":"similarity","trial_index":210,"time_elapsed":1230495,"internal_node_id":"0.0-6.0-204.0"},{"sim_score":5,"rt":5601,"stimulus":"[\"img/0867/f8488a47-94ee-4166-952c-44e16cf172f6.jpg\",\"img/0881/292e9b4b-fca0-4ba8-87f1-4048f9e37b7d.jpg\"]","trial_type":"similarity","trial_index":211,"time_elapsed":1237103,"internal_node_id":"0.0-6.0-205.0"},{"sim_score":3,"rt":3216,"stimulus":"[\"img/0901/50e1d53e-a49f-4806-8610-be6dec5a2475.jpg\",\"img/0902/01b41522-de46-4c3a-b0af-a61b2682b40e.jpg\"]","trial_type":"similarity","trial_index":212,"time_elapsed":1241324,"internal_node_id":"0.0-6.0-206.0"},{"sim_score":4,"rt":4629,"stimulus":"[\"img/0899/0433d056-aa30-4f8a-9aa1-abbb951e4edd.jpg\",\"img/0864/e02eddb5-f468-499c-91bf-f7be3ffe979b.jpg\"]","trial_type":"similarity","trial_index":213,"time_elapsed":1246960,"internal_node_id":"0.0-6.0-207.0"},{"sim_score":2,"rt":2848,"stimulus":"[\"img/0901/a9b9c0a0-8aed-4888-a78a-65fb7e764d13.jpg\",\"img/0769/b664b502-a86c-46c1-ad6f-5ebffc2e1bd3.jpg\"]","trial_type":"similarity","trial_index":214,"time_elapsed":1250816,"internal_node_id":"0.0-6.0-208.0"},{"sim_score":3,"rt":4943,"stimulus":"[\"img/0902/d2c34af0-8c50-437d-8cc3-619195a3e8ba.jpg\",\"img/0902/b56db912-c3c0-4fc2-b325-d640acd7cb58.jpg\"]","trial_type":"similarity","trial_index":215,"time_elapsed":1259010,"internal_node_id":"0.0-6.0-209.0"},{"view_history":"[{\"page_index\":0,\"viewing_time\":6765}]","rt":6766,"trial_type":"instructions","trial_index":216,"time_elapsed":1266777,"internal_node_id":"0.0-7.0"},{"rt":31790,"responses":"{\"Q0\":\"Ovenbird\"}","answer":["Nashville Warbler"],"trial_type":"image-multi-choice","trial_index":217,"time_elapsed":1299591,"internal_node_id":"0.0-8.0-0.0"},{"rt":11754,"responses":"{\"Q0\":\"Magnolia Warbler\"}","answer":["Black-and-white Warbler"],"trial_type":"image-multi-choice","trial_index":218,"time_elapsed":1312363,"internal_node_id":"0.0-8.0-1.0"},{"rt":8575,"responses":"{\"Q0\":\"Townsend's Warbler\"}","answer":["Townsend's Warbler"],"trial_type":"image-multi-choice","trial_index":219,"time_elapsed":1321955,"internal_node_id":"0.0-8.0-2.0"},{"rt":14686,"responses":"{\"Q0\":\"Song Sparrow\"}","answer":["Lark Sparrow"],"trial_type":"image-multi-choice","trial_index":220,"time_elapsed":1337660,"internal_node_id":"0.0-8.0-3.0"},{"rt":14514,"responses":"{\"Q0\":\"Yellow Warbler\"}","answer":["Yellow Warbler"],"trial_type":"image-multi-choice","trial_index":221,"time_elapsed":1353186,"internal_node_id":"0.0-8.0-4.0"},{"rt":13540,"responses":"{\"Q0\":\"Orange-crowned Warbler\"}","answer":["Orange-crowned Warbler"],"trial_type":"image-multi-choice","trial_index":222,"time_elapsed":1367743,"internal_node_id":"0.0-8.0-5.0"},{"rt":5488,"responses":"{\"Q0\":\"White-throated Sparrow\"}","answer":["White-throated Sparrow"],"trial_type":"image-multi-choice","trial_index":223,"time_elapsed":1374250,"internal_node_id":"0.0-8.0-6.0"},{"rt":13501,"responses":"{\"Q0\":\"Northern Waterthrush\"}","answer":["Fox Sparrow"],"trial_type":"image-multi-choice","trial_index":224,"time_elapsed":1388768,"internal_node_id":"0.0-8.0-7.0"},{"rt":8147,"responses":"{\"Q0\":\"Vesper Sparrow\"}","answer":["Song Sparrow"],"trial_type":"image-multi-choice","trial_index":225,"time_elapsed":1397933,"internal_node_id":"0.0-8.0-8.0"},{"rt":10813,"responses":"{\"Q0\":\"Nashville Warbler\"}","answer":["Blackburnian Warbler"],"trial_type":"image-multi-choice","trial_index":226,"time_elapsed":1409764,"internal_node_id":"0.0-8.0-9.0"},{"rt":8744,"responses":"{\"Q0\":\"Swamp Sparrow\"}","answer":["Vesper Sparrow"],"trial_type":"image-multi-choice","trial_index":227,"time_elapsed":1419524,"internal_node_id":"0.0-8.0-10.0"},{"rt":8259,"responses":"{\"Q0\":\"White-crowned Sparrow\"}","answer":["White-crowned Sparrow"],"trial_type":"image-multi-choice","trial_index":228,"time_elapsed":1428802,"internal_node_id":"0.0-8.0-11.0"},{"rt":15413,"responses":"{\"Q0\":\"Ovenbird\"}","answer":["American Tree Sparrow"],"trial_type":"image-multi-choice","trial_index":229,"time_elapsed":1445232,"internal_node_id":"0.0-8.0-12.0"},{"rt":18251,"responses":"{\"Q0\":\"Orange-crowned Warbler\"}","answer":["Tennessee Warbler"],"trial_type":"image-multi-choice","trial_index":230,"time_elapsed":1464498,"internal_node_id":"0.0-8.0-13.0"},{"rt":6234,"responses":"{\"Q0\":\"Nashville Warbler\"}","answer":["Magnolia Warbler"],"trial_type":"image-multi-choice","trial_index":231,"time_elapsed":1471749,"internal_node_id":"0.0-8.0-14.0"},{"rt":4233,"responses":"{\"Q0\":\"Northern Waterthrush\"}","answer":["Northern Waterthrush"],"trial_type":"image-multi-choice","trial_index":232,"time_elapsed":1476997,"internal_node_id":"0.0-8.0-15.0"},{"rt":9839,"responses":"{\"Q0\":\"Swamp Sparrow\"}","answer":["Chipping Sparrow"],"trial_type":"image-multi-choice","trial_index":233,"time_elapsed":1487854,"internal_node_id":"0.0-8.0-16.0"},{"rt":7638,"responses":"{\"Q0\":\"Fox Sparrow\"}","answer":["Swamp Sparrow"],"trial_type":"image-multi-choice","trial_index":234,"time_elapsed":1496509,"internal_node_id":"0.0-8.0-17.0"},{"rt":19361,"responses":"{\"Q0\":\"Lincoln's Sparrow\"}","answer":["Lincoln's Sparrow"],"trial_type":"image-multi-choice","trial_index":235,"time_elapsed":1516890,"internal_node_id":"0.0-8.0-18.0"},{"rt":4052,"responses":"{\"Q0\":\"Northern Waterthrush\"}","answer":["Ovenbird"],"trial_type":"image-multi-choice","trial_index":236,"time_elapsed":1521958,"internal_node_id":"0.0-8.0-19.0"}]