"view_history","rt","trial_type","trial_index","time_elapsed","internal_node_id","sim_score","stimulus","responses","answer"
"[{""page_index"":0,""viewing_time"":18504}]","18505","instructions","0","18508","0.0-0.0","","","",""
"","4824","similarity_demo","1","24381","0.0-1.0","5","[""img/866.jpg"",""img/868.jpg""]","",""
"[{""page_index"":0,""viewing_time"":7942}]","7943","instructions","2","33341","0.0-2.0","","","",""
"","4721","similarity_demo","3","39093","0.0-3.0","2","[""img/766.jpg"",""img/867.jpg""]","",""
"[{""page_index"":0,""viewing_time"":5244}]","5245","instructions","4","45354","0.0-4.0","","","",""
"[{""page_index"":0,""viewing_time"":11877}]","11878","instructions","5","58258","0.0-5.0","","","",""
"","3466","similarity","6","62768","0.0-6.0-0.0","1","[""img/0868/15dd6fd7-791e-4b53-b203-195d617521a4.jpg"",""img/0901/2a953e50-d237-405c-a38d-5ed21494c968.jpg""]","",""
"","3770","similarity","7","67580","0.0-6.0-1.0","2","[""img/0769/7c50e5f5-cc38-4d48-b009-fbe17bcea61c.jpg"",""img/0867/f8159067-056c-41f1-a136-c529fe5e970a.jpg""]","",""
"","4216","similarity","8","72830","0.0-6.0-2.0","2","[""img/0766/d919cedb-f9b7-4f30-83bb-3e9c65001ceb.jpg"",""img/0898/e167334e-cc1d-4986-b3b1-c7bc7da64baa.jpg""]","",""
"","5520","similarity","9","79376","0.0-6.0-3.0","5","[""img/0902/07437a16-3d0f-4a5c-89ec-36d0efa4b3b8.jpg"",""img/0881/405484ae-0d00-4b05-bc57-6420a36adfac.jpg""]","",""
"","6367","similarity","10","86789","0.0-6.0-4.0","7","[""img/0894/86201968-6e78-4d68-9b3a-d1692e066210.jpg"",""img/0894/9b1333fd-3561-43bf-aee5-99b7b7ca3dc3.jpg""]","",""
"","4903","similarity","11","92735","0.0-6.0-5.0","3","[""img/0874/3f471690-9788-4d03-90c7-f615aecef149.jpg"",""img/0899/93494f3b-d539-4075-b027-d82e344563da.jpg""]","",""
"","4067","similarity","12","97843","0.0-6.0-6.0","3","[""img/0904/4d7d70a3-9477-4921-bda0-f9531d0a5c5b.jpg"",""img/0764/cffc80b0-4a90-4acb-a530-6f480f3ca303.jpg""]","",""
"","3388","similarity","13","102265","0.0-6.0-7.0","3","[""img/0899/57476fed-5962-4272-8fc9-b317bb777b54.jpg"",""img/0898/661621d4-a14e-487c-8c74-354134a29710.jpg""]","",""
"","4610","similarity","14","107921","0.0-6.0-8.0","5","[""img/0874/a3bc679d-619f-4db6-bb68-116dcb757d9c.jpg"",""img/0903/aa842abe-6fa3-448a-bf71-88d3ad28663b.jpg""]","",""
"","3942","similarity","15","112897","0.0-6.0-9.0","6","[""img/0881/4bd34581-94d8-4e88-8c89-5cef864ca3be.jpg"",""img/0758/65d426d6-3ff6-415d-8654-a43b83ecc4fe.jpg""]","",""
"","3654","similarity","16","117601","0.0-6.0-10.0","3","[""img/0898/5f699581-3853-4547-856c-12f419ba5af7.jpg"",""img/0901/3db47171-0139-4235-82cd-0b1787b6775f.jpg""]","",""
"","5741","similarity","17","124367","0.0-6.0-11.0","2","[""img/0903/680ed18e-b311-4ecf-9b00-7dea32128334.jpg"",""img/0769/11518cb3-13ea-4dd0-890c-30cfab728ade.jpg""]","",""
"","5321","similarity","18","130732","0.0-6.0-12.0","3","[""img/0764/17b088f8-3053-4140-b544-d15654cc79ef.jpg"",""img/0868/e0aff734-077f-40dd-9781-74821abd3621.jpg""]","",""
"","3253","similarity","19","135030","0.0-6.0-13.0","1","[""img/0867/de92135f-5b65-4ed9-b245-188292c7c2f8.jpg"",""img/0903/0a92ec52-4e87-410a-857a-4455cde56a70.jpg""]","",""
"","3490","similarity","20","139561","0.0-6.0-14.0","1","[""img/0766/b84598d0-5b41-4841-88b0-b441b48289f5.jpg"",""img/0758/d540bee6-b460-4c32-ac57-bc282742d7d4.jpg""]","",""
"","3618","similarity","21","144209","0.0-6.0-15.0","5","[""img/0902/10d99c89-71f7-4c81-a31e-dfc7c59f5232.jpg"",""img/0860/c7047cd2-7cc1-41b6-8a34-c0986774975f.jpg""]","",""
"","5414","similarity","22","150670","0.0-6.0-16.0","3","[""img/0769/f73c5138-2f4c-4354-981c-129dff9cc734.jpg"",""img/0875/99698b4d-b4a1-44bc-8c83-8ea755bbbf61.jpg""]","",""
"","3760","similarity","23","155458","0.0-6.0-17.0","2","[""img/0904/da170c1b-9651-4f08-b231-2bdd1d9a046f.jpg"",""img/0866/23a224f3-2012-4fc8-8e0f-3c36f8de27fd.jpg""]","",""
"","4653","similarity","24","161138","0.0-6.0-18.0","5","[""img/0875/5a7c4e35-6514-4e12-8879-d16071da4cd6.jpg"",""img/0875/527ced51-8e53-4aab-ab05-86df219104c0.jpg""]","",""
"","5347","similarity","25","167512","0.0-6.0-19.0","6","[""img/0758/3ddd05d3-557e-4ee7-8b78-9d2d681d8ae2.jpg"",""img/0758/7ee8bc8f-c40b-4b3a-84ec-3e83580622d4.jpg""]","",""
"","3366","similarity","26","171911","0.0-6.0-20.0","5","[""img/0902/aa6fca32-82b0-4414-b20a-8f6f8aa5a2d2.jpg"",""img/0874/85eb9b8a-c4c6-4e5a-b8e7-363a87a82054.jpg""]","",""
"","4301","similarity","27","177246","0.0-6.0-21.0","3","[""img/0764/d7f3ac54-318a-4dac-a06b-62bed34d01a4.jpg"",""img/0769/878531fd-e0e8-4ad1-b9ad-f018bb104ca0.jpg""]","",""
"","3358","similarity","28","181637","0.0-6.0-22.0","1","[""img/0901/a373612d-67e2-4fec-9764-21d3d6ef6359.jpg"",""img/0874/1016b306-087c-4afc-aa08-fa527b28dc76.jpg""]","",""
"","4209","similarity","29","186887","0.0-6.0-23.0","4","[""img/0875/5a716432-c6ca-4b1c-955a-2b8ac25198ee.jpg"",""img/0903/70d764d9-1f35-4da7-a35d-4cc39834d270.jpg""]","",""
"","3717","similarity","30","191637","0.0-6.0-24.0","3","[""img/0769/8598a429-c671-4d2f-842c-32f681f5e412.jpg"",""img/0881/f4e3e181-b3c9-4af2-a5a4-fc135ab70d2e.jpg""]","",""
"","3006","similarity","31","195684","0.0-6.0-25.0","2","[""img/0867/cc72ed48-7704-422c-86d6-467a1145287a.jpg"",""img/0904/6291eb43-c10c-4810-a36a-101d09868b04.jpg""]","",""
"","4268","similarity","32","200987","0.0-6.0-26.0","5","[""img/0860/15b24a61-25be-4356-9eac-5ce95d0cb4a4.jpg"",""img/0881/db77fe00-aeb0-4d1d-aa66-f3a96fd077e4.jpg""]","",""
"","3378","similarity","33","205401","0.0-6.0-27.0","6","[""img/0866/620cd1aa-0800-4414-8f6e-90342e7a99ad.jpg"",""img/0866/945c6710-d15b-4a5b-a8f6-69af0850357f.jpg""]","",""
"","3480","similarity","34","209917","0.0-6.0-28.0","3","[""img/0764/b8e23f4f-ff19-4472-ad9b-2f85548ebca0.jpg"",""img/0862/ad593cc7-cabe-4bb7-8e14-8a447a0717b4.jpg""]","",""
"","4001","similarity","35","214963","0.0-6.0-29.0","3","[""img/0904/0d17b811-063e-416e-a23c-3b3cfa4fcce5.jpg"",""img/0758/53f35650-e455-4b53-8be4-c3c8271c6466.jpg""]","",""
"","3995","similarity","36","219994","0.0-6.0-30.0","5","[""img/0894/e2446cf5-cd48-486a-badc-76498e087fbe.jpg"",""img/0899/a05bea16-2bb4-4cb9-b8fb-4ff975db6971.jpg""]","",""
"","3496","similarity","37","224518","0.0-6.0-31.0","3","[""img/0860/4c530c3c-6aab-492a-94d1-9c01797bde40.jpg"",""img/0904/2f88ce53-02d0-4f95-a082-182c56a0eeb4.jpg""]","",""
"","4088","similarity","38","229634","0.0-6.0-32.0","5","[""img/0874/bf14b896-e930-4fd9-9c05-2e83317a2773.jpg"",""img/0881/c843e210-bdfe-4a7c-8bbe-fcea1f90fe1c.jpg""]","",""
"","2893","similarity","39","233556","0.0-6.0-33.0","2","[""img/0881/633c6f40-56d9-4b48-bf1c-ecd83116eabb.jpg"",""img/0899/1b3457ea-87d4-4946-a01c-aac1863ed46c.jpg""]","",""
"","3438","similarity","40","238032","0.0-6.0-34.0","1","[""img/0866/c446214b-a368-4c65-ae39-ea46894256ab.jpg"",""img/0862/fad1d7c1-8187-43c3-942a-0fc12183e48e.jpg""]","",""
"","2665","similarity","41","241720","0.0-6.0-35.0","5","[""img/0868/4e626425-63c8-484a-8a1d-e66ee4e0bef8.jpg"",""img/0894/661b9f9f-4bde-487a-b1ed-87085fde6948.jpg""]","",""
"","3812","similarity","42","246564","0.0-6.0-36.0","6","[""img/0860/c5ccd1a4-4bb7-48e1-9b25-72cfaf06909b.jpg"",""img/0860/61fb959d-d4d9-4de4-9e4e-4fa62b4cfcd5.jpg""]","",""
"","3678","similarity","43","251287","0.0-6.0-37.0","5","[""img/0862/47ed5efd-4ec9-4b74-bb4e-a5f5cf0c3e7d.jpg"",""img/0864/66091c27-e588-4476-8af9-265dc6be4156.jpg""]","",""
"","4294","similarity","44","256609","0.0-6.0-38.0","1","[""img/0766/908bc45b-7c9e-4f95-806e-86b196ebcb2c.jpg"",""img/0866/d266fece-59b3-46fa-b69f-96f6efb81b59.jpg""]","",""
"","4164","similarity","45","261814","0.0-6.0-39.0","5","[""img/0875/dbdd643e-6d0e-4a5c-ab57-b9c29b9c981a.jpg"",""img/0898/40f99fb2-64d2-4e72-8a7f-a1cf60741e69.jpg""]","",""
"","4897","similarity","46","267742","0.0-6.0-40.0","5","[""img/0766/51d3aab4-3d09-4dda-b99d-3dc7aaabc6f2.jpg"",""img/0769/91acb237-65a3-4d0b-9748-af5c7b83d3c7.jpg""]","",""
"","4134","similarity","47","287887","0.0-6.0-41.0","3","[""img/0874/2c9464dd-8a23-4baa-ac94-1ba3af5c15cc.jpg"",""img/0764/f2f23359-8e82-41d3-8900-5b9f4433991d.jpg""]","",""
"","3835","similarity","48","292763","0.0-6.0-42.0","1","[""img/0868/8b0b8473-e2c0-4331-aa56-c3a5c29369da.jpg"",""img/0902/51493fab-2a10-4385-aa88-bee3db441626.jpg""]","",""
"","4428","similarity","49","298223","0.0-6.0-43.0","4","[""img/0875/3ecb367d-e9eb-4826-8aaa-7aa72fb98019.jpg"",""img/0899/0adc0bc3-6fca-4078-be6f-d45ddf1653d5.jpg""]","",""
"","3783","similarity","50","303059","0.0-6.0-44.0","3","[""img/0866/11a1d141-be5e-443c-98c1-a9d4d9e3dec0.jpg"",""img/0860/c47fdead-eb02-4989-b078-26f4852f44fe.jpg""]","",""
"","6095","similarity","51","310176","0.0-6.0-45.0","5","[""img/0766/d5d38751-8fa5-476f-93e9-86ed2d9045ef.jpg"",""img/0903/8f7f9939-b8e6-433f-93dd-b362496c80a7.jpg""]","",""
"","3346","similarity","52","314550","0.0-6.0-46.0","4","[""img/0901/04a53755-6da5-44d4-a7a6-48a6bc0a2280.jpg"",""img/0904/73920552-103b-4c9c-9ece-e0b8376b4504.jpg""]","",""
"","6783","similarity","53","322374","0.0-6.0-47.0","3","[""img/0758/b76ceca7-95ac-46e4-ac13-da02c8e93be9.jpg"",""img/0902/0db94c50-f1fb-4091-953c-29ca0466bee2.jpg""]","",""
"","4067","similarity","54","327484","0.0-6.0-48.0","7","[""img/0764/50f1b062-d608-4bc0-ab25-b872dcf2ed93.jpg"",""img/0764/23ea9375-f801-4a96-9925-7d453da887c7.jpg""]","",""
"","2489","similarity","55","331012","0.0-6.0-49.0","1","[""img/0866/0207e9a2-7dbb-40b5-9459-b472aaeceb2a.jpg"",""img/0902/af45fe42-178c-4c1a-99ef-256e87e3b092.jpg""]","",""
"","4247","similarity","56","336308","0.0-6.0-50.0","3","[""img/0764/39a9fc7e-b863-432c-9374-de43983f31a5.jpg"",""img/0758/a085b443-b5d7-4cb2-9ad4-b9dab0fc23f1.jpg""]","",""
"","3786","similarity","57","341136","0.0-6.0-51.0","2","[""img/0898/82231d4c-218b-4d0a-b50d-35a49b524e97.jpg"",""img/0894/7dd6ff43-f8fc-408a-8a41-a2b261871820.jpg""]","",""
"","3254","similarity","58","345440","0.0-6.0-52.0","3","[""img/0875/f87b67d7-c33e-40d1-b281-248c4be1cb6e.jpg"",""img/0866/07c9c966-3c8d-40e7-8128-92b2acbaed5d.jpg""]","",""
"","3350","similarity","59","349824","0.0-6.0-53.0","6","[""img/0904/0d25eb24-bb20-4e8d-9787-8b489558b4cb.jpg"",""img/0904/9d30eff1-46ef-4453-b11e-124ef8145c00.jpg""]","",""
"","5385","similarity","60","356243","0.0-6.0-54.0","5","[""img/0769/ecda2fb3-556b-43ba-8a67-e87dd75ff2b4.jpg"",""img/0769/8056889f-2b14-4782-bb25-b4e8896ab65b.jpg""]","",""
"","6795","similarity","61","364065","0.0-6.0-55.0","6","[""img/0898/8605a25b-6895-476d-8c13-df7a83f96093.jpg"",""img/0758/821c68d3-5cb0-4eae-8659-30e6263fca39.jpg""]","",""
"","4749","similarity","62","369838","0.0-6.0-56.0","2","[""img/0769/022c7e3b-c3f2-4119-b4bc-f22fa7cae18c.jpg"",""img/0902/22ed3536-288b-452e-9777-0fa0ab94deb0.jpg""]","",""
"","6203","similarity","63","377063","0.0-6.0-57.0","6","[""img/0864/f92649a2-0590-4d31-9a7a-1bfb81666a2d.jpg"",""img/0881/667e2147-d457-4f32-aa5f-6ab86e5848f1.jpg""]","",""
"","3992","similarity","64","382103","0.0-6.0-58.0","2","[""img/0758/a709631e-3705-4725-ac40-f0d916924f08.jpg"",""img/0868/0d3abd3a-b6c3-4584-a9f7-e2da63748b3d.jpg""]","",""
"","3287","similarity","65","386435","0.0-6.0-59.0","1","[""img/0862/92fcd8a4-8193-4a6a-ae09-dd4a6338b0df.jpg"",""img/0769/c34b7763-8ff2-46d5-9e92-f1d8f3bedbd8.jpg""]","",""
"","3662","similarity","66","391133","0.0-6.0-60.0","3","[""img/0764/fb7d4a20-a475-465e-a74f-aa39a0d33d16.jpg"",""img/0903/f45a103c-9bfe-49fd-ad96-bdd8d2589195.jpg""]","",""
"","4036","similarity","67","396203","0.0-6.0-61.0","5","[""img/0899/5b56dd3e-3f49-47cc-af84-16da6457753b.jpg"",""img/0899/66bf4113-ee12-426c-84d2-ea410b6c803e.jpg""]","",""
"","5413","similarity","68","402665","0.0-6.0-62.0","6","[""img/0860/8277806e-b684-4474-8f7b-3fca946d7d4f.jpg"",""img/0875/8521fd58-3b1e-4dc5-97ae-804edfa6734a.jpg""]","",""
"","3885","similarity","69","407595","0.0-6.0-63.0","3","[""img/0868/1a62b2b2-18f5-466e-b564-5176a57c565e.jpg"",""img/0874/adf9a8f1-c40b-402b-b95b-1e85a54a7b62.jpg""]","",""
"","5914","similarity","70","414538","0.0-6.0-64.0","5","[""img/0758/7ffbc76b-1fc1-432c-8f7e-9ec8d1b3f643.jpg"",""img/0862/f188d4f0-76a4-4102-818c-a209969d73a5.jpg""]","",""
"","5145","similarity","71","420726","0.0-6.0-65.0","6","[""img/0904/09dac84f-3d1c-4445-a68e-d0389fdbf1e9.jpg"",""img/0898/26c41340-15bd-4ead-8fe4-c0d0ddca09c2.jpg""]","",""
"","4045","similarity","72","425804","0.0-6.0-66.0","3","[""img/0881/62a64f90-7a72-4aee-a1a1-0c548ac9bdda.jpg"",""img/0866/9b38d691-1802-4959-ab3f-fc902f0e4ea6.jpg""]","",""
"","7570","similarity","73","434416","0.0-6.0-67.0","5","[""img/0867/f8488a47-94ee-4166-952c-44e16cf172f6.jpg"",""img/0898/881e2a85-d5c2-49be-a0c6-8a6ce2c4af08.jpg""]","",""
"","3623","similarity","74","439064","0.0-6.0-68.0","3","[""img/0902/eb3e7e71-8ff1-4b88-a6a7-47e2c1ce1683.jpg"",""img/0764/ca957454-126a-4bd3-b29c-7174a24c25dc.jpg""]","",""
"","2544","similarity","75","442634","0.0-6.0-69.0","6","[""img/0875/42910c99-5463-450a-a0f8-d4d060a11455.jpg"",""img/0867/98d8cd96-1476-4fe0-a3a3-04f875500a1b.jpg""]","",""
"","5895","similarity","76","449556","0.0-6.0-70.0","6","[""img/0766/ae0fce93-fe8d-4aa1-87ca-4c3e4b889f2f.jpg"",""img/0764/4952d0a0-c9be-471a-8ec7-94a37bf4051d.jpg""]","",""
"","4874","similarity","77","455461","0.0-6.0-71.0","5","[""img/0894/a3d4170b-b7d8-40e3-955f-87e76ed745fc.jpg"",""img/0867/aa05d113-fc19-4756-a8eb-7878f580bc92.jpg""]","",""
"","3182","similarity","78","459682","0.0-6.0-72.0","2","[""img/0875/2e13d160-eea1-416b-aff1-d37ab99ecc1d.jpg"",""img/0764/fb92924f-5cfe-4b89-b130-0cce8cc5636b.jpg""]","",""
"","3886","similarity","79","464597","0.0-6.0-73.0","7","[""img/0867/bf560d4f-dee3-4f11-a385-705cc1aa5f3c.jpg"",""img/0866/be24ab58-230e-4db8-9f45-ff04c9aec6bb.jpg""]","",""
"","3672","similarity","80","469306","0.0-6.0-74.0","3","[""img/0903/d987e220-f3e6-4b6d-a270-fe6757041f6d.jpg"",""img/0758/dd559618-7f09-4a07-8018-d311c4a5ea29.jpg""]","",""
"","4313","similarity","81","474649","0.0-6.0-75.0","2","[""img/0766/0025de5e-f620-4079-8a0f-00326ff3a6b0.jpg"",""img/0868/09a9ef4d-d000-4cfa-a6aa-ebec7c2edeb4.jpg""]","",""
"","3228","similarity","82","478915","0.0-6.0-76.0","1","[""img/0874/eba003b4-cdab-4eee-8bc3-f064c7d94165.jpg"",""img/0766/2746b119-4bba-463e-acf0-88136dc6600c.jpg""]","",""
"","3936","similarity","83","483899","0.0-6.0-77.0","2","[""img/0881/f037e3b0-09cb-4a83-b2d9-6a71fe474e63.jpg"",""img/0868/179a5502-ab5c-478e-8263-5a1fbcc101d2.jpg""]","",""
"","3842","similarity","84","488765","0.0-6.0-78.0","5","[""img/0758/d41c06bf-ebaf-454b-91c6-1a17f917b659.jpg"",""img/0901/a9b9c0a0-8aed-4888-a78a-65fb7e764d13.jpg""]","",""
"","5585","similarity","85","495390","0.0-6.0-79.0","5","[""img/0881/f62bdcd1-a4b7-4d48-83da-d9c9e01c8727.jpg"",""img/0898/79233891-305a-4a6a-8ddf-5c8604858203.jpg""]","",""
"","3979","similarity","86","500398","0.0-6.0-80.0","1","[""img/0867/5e07b34d-b40f-4b1c-ac10-49975bace45f.jpg"",""img/0758/e38fd80d-18d0-42f3-b848-f930788e8bd7.jpg""]","",""
"","5284","similarity","87","506727","0.0-6.0-81.0","6","[""img/0769/3adfa417-3b90-4aab-b437-5eaa474189cb.jpg"",""img/0899/a048912c-b12c-40e3-90af-46b69b0cc4fe.jpg""]","",""
"","3856","similarity","88","511616","0.0-6.0-82.0","7","[""img/0903/8931c67c-a43d-47d3-a4c9-42aa2f81d344.jpg"",""img/0903/f1fa0f8d-e62b-4b4a-a174-31a0fabfe61b.jpg""]","",""
"","3411","similarity","89","527686","0.0-6.0-83.0","5","[""img/0867/85a96c62-548f-4994-9553-819e03c3135a.jpg"",""img/0766/ef3b15ce-abb7-4292-ad93-aec8e8b50520.jpg""]","",""
"","3923","similarity","90","532634","0.0-6.0-84.0","2","[""img/0902/d49743d6-67ae-4c2e-a939-8fd895a0f18e.jpg"",""img/0867/c66898ba-b71b-4d50-84f9-f7f84853a98d.jpg""]","",""
"","3337","similarity","91","537008","0.0-6.0-85.0","3","[""img/0901/ae1e6ce4-2e10-4ca9-b1e7-21628637ab74.jpg"",""img/0875/e7e66b13-b573-431e-b85e-288ce04a35a3.jpg""]","",""
"","5133","similarity","92","543172","0.0-6.0-86.0","1","[""img/0764/a3226bc4-dcc3-4608-bde8-1414d685ce5c.jpg"",""img/0866/93a27239-8317-4e08-98ca-d8b1ff298e07.jpg""]","",""
"","5502","similarity","93","549704","0.0-6.0-87.0","1","[""img/0901/b453df0b-4c39-49bb-8ced-6127efffa898.jpg"",""img/0894/792c83e9-a747-4000-bc72-5663d2439edb.jpg""]","",""
"","4028","similarity","94","554765","0.0-6.0-88.0","6","[""img/0898/6cd3830b-d44e-4915-be2b-88d31424b91c.jpg"",""img/0769/4680bcc3-8fbc-4643-8f9a-12aa0e780b64.jpg""]","",""
"","6156","similarity","95","561963","0.0-6.0-89.0","6","[""img/0769/aad494cc-674d-4a08-9bfa-24a88ebe3c79.jpg"",""img/0894/a98416c0-51e2-4960-85da-d81d8688b9d5.jpg""]","",""
"","4188","similarity","96","567187","0.0-6.0-90.0","5","[""img/0862/e8cc3bdf-cc43-4565-bccf-492626c70953.jpg"",""img/0874/29830da7-be5f-44e5-b141-652a0ccf7269.jpg""]","",""
"","4250","similarity","97","572475","0.0-6.0-91.0","7","[""img/0894/0130a973-d993-41f8-874a-fee23d9ac11f.jpg"",""img/0766/33aa9ebb-c9f5-418f-8c8b-c77861889568.jpg""]","",""
"","3002","similarity","98","576515","0.0-6.0-92.0","1","[""img/0874/767f289c-9814-4496-803f-745cc8913d1f.jpg"",""img/0867/db7e032f-162b-46f5-ae67-2b29679adee4.jpg""]","",""
"","8109","similarity","99","585662","0.0-6.0-93.0","4","[""img/0899/fef567a2-c121-4481-9af0-ff108d199bbf.jpg"",""img/0868/d98ca254-b195-477f-b57e-5760a2717db8.jpg""]","",""
"","3288","similarity","100","589983","0.0-6.0-94.0","6","[""img/0903/a0673b55-6040-47fe-9040-24bca27ca3c9.jpg"",""img/0862/de9ad88c-b522-430a-8ee9-eb06a9f85df5.jpg""]","",""
"","3998","similarity","101","595015","0.0-6.0-95.0","7","[""img/0899/76ad07e2-ca25-45eb-84f2-8d80b8ca3e26.jpg"",""img/0766/d512b99c-a2dc-40d7-8e86-827323a0cbcf.jpg""]","",""
"","2476","similarity","102","598515","0.0-6.0-96.0","7","[""img/0867/c71dc569-f49c-4397-8381-68b8d726736d.jpg"",""img/0868/4a8a45ed-2c4f-421b-9564-409a33ecd26c.jpg""]","",""
"","3762","similarity","103","603310","0.0-6.0-97.0","5","[""img/0862/a0a3a7ba-7798-46a3-b4ca-05e1f6e581d0.jpg"",""img/0901/4ca4f962-40c0-4c59-b14a-3cd7b8c9029b.jpg""]","",""
"","5839","similarity","104","610192","0.0-6.0-98.0","4","[""img/0875/2c361b79-c3d1-4eda-812e-bf03192407bf.jpg"",""img/0766/26d3ae14-8275-4e08-99b2-a6598c193ddf.jpg""]","",""
"","4131","similarity","105","615364","0.0-6.0-99.0","2","[""img/0758/6cd8c362-ae2a-41eb-80a3-3a4f7ace1530.jpg"",""img/0874/93d1f8dc-acf2-4f03-bd8d-8ec35df276ed.jpg""]","",""
"","5328","similarity","106","621724","0.0-6.0-100.0","2","[""img/0904/4b8daf2a-13a9-4ea9-9e0b-b265b6e933e7.jpg"",""img/0868/fd307a36-9a3a-47d7-ab7c-f810d0b35040.jpg""]","",""
"","4579","similarity","107","627340","0.0-6.0-101.0","1","[""img/0903/150cf64c-0bd2-4674-abbb-a1387cf1f3e9.jpg"",""img/0866/6f2a90d7-14f1-4f1b-bd64-fc0af6b9fe44.jpg""]","",""
"","4033","similarity","108","632410","0.0-6.0-102.0","5","[""img/0868/c8ac40c7-6904-4e13-8d61-c75d3052dc4e.jpg"",""img/0769/04347740-f8f6-48bb-887a-f68babd0a0d4.jpg""]","",""
"","6767","similarity","109","640214","0.0-6.0-103.0","4","[""img/0902/c9c74d2d-9b82-42d7-a9d0-3b8ff67ff81e.jpg"",""img/0899/d8f2dd94-570e-4e8c-a087-d96090fb9e8c.jpg""]","",""
"","2531","similarity","110","643777","0.0-6.0-104.0","1","[""img/0868/7b212364-ff5f-4e28-9241-7eb6ea00161b.jpg"",""img/0862/e697469a-ec19-4414-b972-7b9f3564785b.jpg""]","",""
"","3216","similarity","111","648019","0.0-6.0-105.0","1","[""img/0903/47e39de8-6959-469f-8be9-6999a6db207c.jpg"",""img/0894/3664e04c-c6d3-4c9b-afb6-25d89974b174.jpg""]","",""
"","6669","similarity","112","655731","0.0-6.0-106.0","6","[""img/0864/87c467d3-abca-482f-ad80-3766c21b1bb3.jpg"",""img/0874/31e22c7c-99aa-40b1-bf03-dd73fa2df4d6.jpg""]","",""
"","5589","similarity","113","662348","0.0-6.0-107.0","7","[""img/0862/fb26cb07-d5a9-4653-813c-f41609f26cd5.jpg"",""img/0902/31abfa33-7cdb-44ad-968e-9f7b324d577a.jpg""]","",""
"","3181","similarity","114","666558","0.0-6.0-108.0","5","[""img/0904/d23dd7be-7fe8-4435-82f7-bd592c01e6a1.jpg"",""img/0903/365f176c-25a4-4973-bd3c-279bf1b39476.jpg""]","",""
"","4822","similarity","115","672426","0.0-6.0-109.0","2","[""img/0764/4eff630a-6426-4f8d-b2ba-b4d9842a0962.jpg"",""img/0864/e02eddb5-f468-499c-91bf-f7be3ffe979b.jpg""]","",""
"","3059","similarity","116","676528","0.0-6.0-110.0","5","[""img/0866/bf14b5bd-fb55-47db-86b9-4f8aeb9a6dad.jpg"",""img/0894/1b3888e6-cf36-4c4a-a039-187aa5cb71ac.jpg""]","",""
"","3313","similarity","117","680870","0.0-6.0-111.0","1","[""img/0899/7b7380d5-d2be-44e5-a09a-c1756f87ef71.jpg"",""img/0903/14f179a2-8786-48a2-8377-88d1d404341b.jpg""]","",""
"","5226","similarity","118","687136","0.0-6.0-112.0","6","[""img/0902/8065aa6b-4aef-4368-afa2-02c6465ca582.jpg"",""img/0904/5aec2708-cf14-4a58-aa30-9a8a61c1be0e.jpg""]","",""
"","5276","similarity","119","693440","0.0-6.0-113.0","5","[""img/0864/49150900-7f25-4ce8-8d10-9b47a71d1997.jpg"",""img/0860/71e1aad0-2cdf-43bb-94a4-a8c016997c30.jpg""]","",""
"","3849","similarity","120","698333","0.0-6.0-114.0","2","[""img/0860/99c589b9-9140-4d17-90c0-b344323edcda.jpg"",""img/0899/66ab3178-c3fe-4455-ad17-d5952b08e018.jpg""]","",""
"","4309","similarity","121","703690","0.0-6.0-115.0","6","[""img/0881/b549bc99-a61c-4450-bab5-9efc3a197bf0.jpg"",""img/0903/45e2d600-57ff-4d69-b22c-0c7896cd38f0.jpg""]","",""
"","5663","similarity","122","710379","0.0-6.0-116.0","4","[""img/0894/151063aa-6472-4745-837b-36603aba5966.jpg"",""img/0874/99f6563c-8a8d-4c1c-a41d-667b618c3fd5.jpg""]","",""
"","6979","similarity","123","718387","0.0-6.0-117.0","5","[""img/0881/0c7068da-d0d9-4103-bda1-74ef7a2b32c3.jpg"",""img/0862/ba89835a-408c-480b-8594-ed4ffa97eb5c.jpg""]","",""
"","3681","similarity","124","723108","0.0-6.0-118.0","2","[""img/0868/d6d1f30d-4323-435a-b194-7892521bc57e.jpg"",""img/0875/34132396-d896-4c2d-8087-646dd867e769.jpg""]","",""
"","5564","similarity","125","729699","0.0-6.0-119.0","6","[""img/0860/5383b320-1518-4095-a58e-5cc1ae30b64c.jpg"",""img/0758/eabcd7a8-56ad-4fd2-bc24-90f6b7b33265.jpg""]","",""
"","5049","similarity","126","735785","0.0-6.0-120.0","6","[""img/0864/1ebbc554-99fa-49f9-8799-317375a79820.jpg"",""img/0875/d59ff733-eaff-4ee2-9443-06954dd0bcb6.jpg""]","",""
"","3645","similarity","127","740465","0.0-6.0-121.0","2","[""img/0898/01bfe666-3510-4fc7-964f-d00d28732dc8.jpg"",""img/0866/a04d37f0-99dd-478a-b6c6-58b215138f84.jpg""]","",""
"","4862","similarity","128","746363","0.0-6.0-122.0","2","[""img/0874/a82926a3-0b43-4add-803c-d5f9ea7798ee.jpg"",""img/0904/56e73f28-7e64-489b-a161-e6b1a063878d.jpg""]","",""
"","4379","similarity","129","751777","0.0-6.0-123.0","6","[""img/0904/ba8e689e-9ca6-4608-a2a1-3b0940666ae6.jpg"",""img/0864/300bb811-8b3c-4c42-8653-6097c3725197.jpg""]","",""
"","4545","similarity","130","757354","0.0-6.0-124.0","2","[""img/0894/4739e06d-c31e-4bf1-bf91-c97fa9afb456.jpg"",""img/0902/94198618-7047-4dc9-ad04-85f4ba913067.jpg""]","",""
"","3694","similarity","131","771448","0.0-6.0-125.0","2","[""img/0868/3a62db2d-97e9-44a3-b8e3-a48c6f0e423b.jpg"",""img/0864/9b2490c5-a282-400a-9736-e1a0ecbf1cb7.jpg""]","",""
"","3298","similarity","132","775794","0.0-6.0-126.0","1","[""img/0899/0433d056-aa30-4f8a-9aa1-abbb951e4edd.jpg"",""img/0866/02f5e6b9-52b7-448c-9708-5b460d0c9a23.jpg""]","",""
"","2749","similarity","133","779566","0.0-6.0-127.0","6","[""img/0875/03c3c331-738b-4446-af92-3d7386b08c2e.jpg"",""img/0904/696ebb60-8891-417a-91fd-c53218907a95.jpg""]","",""
"","3129","similarity","134","783738","0.0-6.0-128.0","6","[""img/0867/26611f4e-d694-4460-b7e2-43c62753ddc3.jpg"",""img/0899/00715b3f-851b-420b-a26b-d7f79f7759a9.jpg""]","",""
"","2497","similarity","135","787270","0.0-6.0-129.0","1","[""img/0901/12da1841-e611-435c-9719-109413d536a8.jpg"",""img/0867/1719a35d-f085-48c0-9099-16c94fe418b4.jpg""]","",""
"","4780","similarity","136","793082","0.0-6.0-130.0","2","[""img/0864/afcba0a3-7e27-4757-b254-e9f05fad27e2.jpg"",""img/0769/b664b502-a86c-46c1-ad6f-5ebffc2e1bd3.jpg""]","",""
"","5707","similarity","137","799824","0.0-6.0-131.0","3","[""img/0903/07b445ee-0cdb-4d2c-a23b-d727613f4059.jpg"",""img/0868/4bd5105a-d2c3-4f82-8c80-57196106ba53.jpg""]","",""
"","3513","similarity","138","804369","0.0-6.0-132.0","1","[""img/0864/ef9cbca0-4be8-435d-ad49-977259e80409.jpg"",""img/0867/ac1797e4-8afc-48fe-b252-86d1defb1cca.jpg""]","",""
"","3903","similarity","139","809299","0.0-6.0-133.0","7","[""img/0901/693e0535-ef7e-4d60-af9d-fac2f38e8307.jpg"",""img/0860/e8b8c51e-1834-4875-8b61-6c5bc9b178bd.jpg""]","",""
"","4770","similarity","140","815111","0.0-6.0-134.0","4","[""img/0881/292e9b4b-fca0-4ba8-87f1-4048f9e37b7d.jpg"",""img/0766/5d6e0d1d-4369-41f0-a64c-91f3503055c7.jpg""]","",""
"","5304","similarity","141","821464","0.0-6.0-135.0","5","[""img/0903/6138142e-c84e-45fc-9487-c974f3d4968a.jpg"",""img/0864/5f74a653-3bdc-4308-8cca-ac667dc22e1f.jpg""]","",""
"","3090","similarity","142","825603","0.0-6.0-136.0","4","[""img/0758/335851a0-a55b-46d8-ab05-8463eda48349.jpg"",""img/0894/e5edf723-72a5-4673-8441-6c1734a8929b.jpg""]","",""
"","3788","similarity","143","830431","0.0-6.0-137.0","1","[""img/0769/688d0c52-ad73-4065-a5eb-f8c10d076bff.jpg"",""img/0860/f44ba3fb-03a2-42f0-8509-2c1ded493086.jpg""]","",""
"","4124","similarity","144","835587","0.0-6.0-138.0","6","[""img/0904/06dacdc5-2206-4fb8-92b7-88042d22833c.jpg"",""img/0766/2da002a4-05c9-4f5c-9ed7-433b4183e273.jpg""]","",""
"","3139","similarity","145","839751","0.0-6.0-139.0","1","[""img/0868/83b4350a-3b70-4cea-b7f5-b5b56f3050a8.jpg"",""img/0860/29a21a9f-54bb-4093-ad3f-04823ceaa89f.jpg""]","",""
"","5143","similarity","146","845907","0.0-6.0-140.0","6","[""img/0758/9fb5b2fe-3f00-4fe6-973c-1ce10d5f4cd5.jpg"",""img/0864/3651d070-2fc5-4848-b6a6-088a2d9ac5c9.jpg""]","",""
"","4312","similarity","147","851251","0.0-6.0-141.0","7","[""img/0867/2e1a0b58-cdb1-4107-a14e-452530d7b9b0.jpg"",""img/0867/8ba0c5a7-c7e4-42cf-a80a-543763b90779.jpg""]","",""
"","3745","similarity","148","856038","0.0-6.0-142.0","7","[""img/0898/cd3aaa3f-efa9-4ab3-8d6f-a6a9273ddf42.jpg"",""img/0898/4184e5a2-84ea-4f36-9b42-ae58646f6f87.jpg""]","",""
"","4360","similarity","149","861422","0.0-6.0-143.0","6","[""img/0866/d493a2c8-66eb-44b4-be02-2f327b700b7c.jpg"",""img/0769/662ab839-88d1-4ebf-af05-9b2980cad943.jpg""]","",""
"","3415","similarity","150","865875","0.0-6.0-144.0","6","[""img/0860/18dfed73-e36b-4487-a8bd-0b8cff8e3668.jpg"",""img/0898/993d8f2d-bef7-4251-a193-0f93a32b7763.jpg""]","",""
"","3773","similarity","151","870694","0.0-6.0-145.0","2","[""img/0766/1bc0dccc-a5b5-4375-87fa-28360ca42b12.jpg"",""img/0864/c3b63e8f-ea39-4d70-a1f2-b3fe4be8eb75.jpg""]","",""
"","3378","similarity","152","875102","0.0-6.0-146.0","6","[""img/0860/94ef7afc-e0e6-4a15-98c6-0bfac82bc832.jpg"",""img/0903/5c6b1f57-b3a2-40f5-9fb1-82785e24b6a0.jpg""]","",""
"","3881","similarity","153","880022","0.0-6.0-147.0","5","[""img/0867/a749dddb-69f0-44a6-acdc-2bf295cf6dcc.jpg"",""img/0764/e30dba15-e68a-4659-89db-e1654b52fe02.jpg""]","",""
"","4835","similarity","154","885890","0.0-6.0-148.0","7","[""img/0769/9ea9ceb6-049e-4ad9-be8f-00645cd35803.jpg"",""img/0904/96e503ea-6630-4996-85f2-0237688ce441.jpg""]","",""
"","3712","similarity","155","890632","0.0-6.0-149.0","1","[""img/0764/713cc27e-2338-4486-bfe9-5f5725fbd7a0.jpg"",""img/0901/d61f267a-c492-4db6-9bfb-61efd49cf072.jpg""]","",""
"","5215","similarity","156","896893","0.0-6.0-150.0","2","[""img/0904/63dd06dd-dccb-47ba-9740-eb33239e18a7.jpg"",""img/0899/8abe6c69-822c-436c-9bf2-96c818b49ba5.jpg""]","",""
"","3284","similarity","157","901217","0.0-6.0-151.0","1","[""img/0862/eefa5588-9efd-4591-aa5f-a2e17c7d7bcc.jpg"",""img/0867/f26f6b60-f772-4f4c-95a4-addc62cfd692.jpg""]","",""
"","7172","similarity","158","909427","0.0-6.0-152.0","7","[""img/0766/2e1cf445-9aef-40e7-92f4-5facf48b64c5.jpg"",""img/0766/ea09dd5a-d24d-4e97-a099-7da3db1baef1.jpg""]","",""
"","4139","similarity","159","914599","0.0-6.0-153.0","2","[""img/0862/99a99e39-8355-44ec-b993-e7bcec111e1c.jpg"",""img/0894/1a010553-d598-4b06-a772-81f1e7b3addb.jpg""]","",""
"","3803","similarity","160","919427","0.0-6.0-154.0","1","[""img/0899/8de08897-b430-42fe-9d42-840670b80f94.jpg"",""img/0901/1b86f2fc-7a1d-4aa8-9252-114f92edef3b.jpg""]","",""
"","5586","similarity","161","926045","0.0-6.0-155.0","7","[""img/0874/8cdb1c07-1c32-46d2-981c-3636560fa6e5.jpg"",""img/0874/7e4f2150-3b59-4a36-b5da-a4e0ba410531.jpg""]","",""
"","2353","similarity","162","929427","0.0-6.0-156.0","1","[""img/0860/9593362c-9fe5-4d12-9735-6000a11f6aa5.jpg"",""img/0867/50a1b60e-3a29-44bf-b606-d4bd3746fea9.jpg""]","",""
"","3414","similarity","163","933873","0.0-6.0-157.0","2","[""img/0901/50e1d53e-a49f-4806-8610-be6dec5a2475.jpg"",""img/0881/6b1189e6-232d-4042-8885-16dc7b10e0d4.jpg""]","",""
"","4523","similarity","164","939427","0.0-6.0-158.0","7","[""img/0903/776b74ee-a8ab-4ab8-a78d-097c0747538d.jpg"",""img/0902/f3cfec34-482c-4bdb-9c92-19ea6cfce183.jpg""]","",""
"","3748","similarity","165","944206","0.0-6.0-159.0","2","[""img/0860/5bff793e-cbd5-4d7e-b628-0ac2b0e30b64.jpg"",""img/0764/438c0217-036f-43c9-9b87-f43144e46011.jpg""]","",""
"","4529","similarity","166","949762","0.0-6.0-160.0","5","[""img/0902/1a120fb9-dbd6-443e-ba91-b4aceab963da.jpg"",""img/0875/90da8d75-108a-44ad-b999-e21fee3860d3.jpg""]","",""
"","3655","similarity","167","954456","0.0-6.0-161.0","6","[""img/0898/224c1572-56b9-4f16-a9e4-6f3bc9c114bd.jpg"",""img/0862/f23038d4-c366-4f70-979f-66b62362efa4.jpg""]","",""
"","3381","similarity","168","958878","0.0-6.0-162.0","2","[""img/0894/2217bdcd-23a7-42d3-823b-23f2488d7e87.jpg"",""img/0875/5a1e5100-0d94-4fec-bbe9-ca9894d2cf8e.jpg""]","",""
"","3873","similarity","169","963784","0.0-6.0-163.0","3","[""img/0866/386235d2-6857-41e7-88a8-25cfc3430025.jpg"",""img/0864/b3c4e378-28f0-4699-9338-2a257b4bca04.jpg""]","",""
"","3975","similarity","170","968784","0.0-6.0-164.0","2","[""img/0766/717fd72f-a281-499b-a5ba-5e2ecc4d4866.jpg"",""img/0862/1c20f772-3a51-4a80-aac0-f57dc9f86c28.jpg""]","",""
"","4467","similarity","171","974284","0.0-6.0-165.0","3","[""img/0866/8efcaa46-83ab-4dee-a35f-850402aa21ae.jpg"",""img/0874/ca76a855-4e77-4f2f-872a-0a718153e7ed.jpg""]","",""
"","3633","similarity","172","978956","0.0-6.0-166.0","6","[""img/0862/24cdc752-c2e5-4a17-86a6-6f2045d8553b.jpg"",""img/0860/87039971-2210-4aab-93c0-8e9b5f1655b2.jpg""]","",""
"","4460","similarity","173","996038","0.0-6.0-167.0","2","[""img/0766/f3276cc4-65de-4c2d-88d5-6cfebce14b8f.jpg"",""img/0901/5b97abf9-f0c8-4fd1-b921-36d574779078.jpg""]","",""
"","3048","similarity","174","1000134","0.0-6.0-168.0","7","[""img/0862/064818ee-13d5-4618-bb24-21c7368ea278.jpg"",""img/0862/cdaed51d-9e2f-4807-801a-4663c40077e2.jpg""]","",""
"","3195","similarity","175","1004367","0.0-6.0-169.0","5","[""img/0894/11674fa4-285d-44e2-939f-2228c6a64080.jpg"",""img/0764/e42c1dc9-7831-4995-be19-7ca7b4d141fc.jpg""]","",""
"","3240","similarity","176","1008639","0.0-6.0-170.0","4","[""img/0874/995f0332-0439-4eb4-add3-957335dbf6d9.jpg"",""img/0898/f3a3f225-1248-4ac7-b93b-f0ff28485bf3.jpg""]","",""
"","3207","similarity","177","1012881","0.0-6.0-171.0","2","[""img/0860/e14d67c1-6d92-4f1e-9257-c8607159c19c.jpg"",""img/0766/a1ed3f0f-e338-4a26-8fe4-4370f0c9fa6e.jpg""]","",""
"","4520","similarity","178","1018437","0.0-6.0-172.0","6","[""img/0898/b3290bf9-215b-4b45-b21a-65bdf73f142f.jpg"",""img/0864/3d4de670-b290-4285-9c3d-12a0e3af44e9.jpg""]","",""
"","4872","similarity","179","1024343","0.0-6.0-173.0","3","[""img/0881/b1a136f7-8511-4d3a-a0f6-3879acf1e1a1.jpg"",""img/0764/3297a811-ea8b-4d74-9547-59cecab7293a.jpg""]","",""
"","3134","similarity","180","1028515","0.0-6.0-174.0","3","[""img/0898/a114b375-cb89-44ba-9498-74213f1ecdee.jpg"",""img/0868/5fa7f9d0-f0e5-454c-8224-74d964818f56.jpg""]","",""
"","4176","similarity","181","1033725","0.0-6.0-175.0","7","[""img/0864/1d15626a-2f7c-410f-819c-0fa2c967e95e.jpg"",""img/0864/5f33e097-23e3-4002-882d-76e8cb15f451.jpg""]","",""
"","5475","similarity","182","1040233","0.0-6.0-176.0","2","[""img/0899/25ae6ec8-9565-49fe-a8bb-8d0666f52716.jpg"",""img/0862/f43ceabf-acc1-4107-b857-5d1849808f93.jpg""]","",""
"","4224","similarity","183","1045491","0.0-6.0-177.0","6","[""img/0875/fb732ab5-013a-4366-9f65-27811ed157e9.jpg"",""img/0758/6e95579b-5166-487c-b8cb-e417c6a218e3.jpg""]","",""
"","4743","similarity","184","1051263","0.0-6.0-178.0","1","[""img/0866/4a87911a-d5be-4d4e-ab8e-3d1f581bf507.jpg"",""img/0901/875dedb9-24c9-4443-9f8c-85e97d70ee5a.jpg""]","",""
"","4574","similarity","185","1056864","0.0-6.0-179.0","4","[""img/0769/14d393ce-e5be-4ca1-86ce-cc27d4b6074c.jpg"",""img/0874/c0378dac-9370-439a-8b79-db27c96fb390.jpg""]","",""
"","7495","similarity","186","1065388","0.0-6.0-180.0","6","[""img/0875/ebf7653f-ff45-4e9f-af58-2c042ab3cd2b.jpg"",""img/0881/20af39f5-373d-4a55-a437-2dc4c0382c46.jpg""]","",""
"","4094","similarity","187","1070520","0.0-6.0-181.0","7","[""img/0866/f756f7d1-9ad8-4a34-9ef6-7a443d705bfe.jpg"",""img/0868/293079b8-7e0c-4afd-a390-1e5d35fe3ded.jpg""]","",""
"","4228","similarity","188","1075786","0.0-6.0-182.0","2","[""img/0899/ad8268c5-8199-48d0-ad70-c5b6d6c599ec.jpg"",""img/0758/d57c2592-a317-4f63-91be-91a3a9afd222.jpg""]","",""
"","4319","similarity","189","1081138","0.0-6.0-183.0","6","[""img/0874/3ce41e7c-40c8-4d58-a546-171114521796.jpg"",""img/0875/a4935837-7d3c-4df6-88c1-36a94d4991ca.jpg""]","",""
"","7277","similarity","190","1089459","0.0-6.0-184.0","6","[""img/0904/2c98dc56-88d1-4fb5-a999-b6a7861f65f0.jpg"",""img/0862/e0f1a4e9-e1b6-45f7-af67-89f334e6630d.jpg""]","",""
"","3713","similarity","191","1094209","0.0-6.0-185.0","2","[""img/0902/cdec1bc6-7f90-4f72-9e01-f5a4111bac1d.jpg"",""img/0766/a0270213-fa0e-4972-8b56-228c3e01ff90.jpg""]","",""
"","4229","similarity","192","1099471","0.0-6.0-186.0","2","[""img/0758/ddc336e9-a8b6-4bb9-937a-c7e25e0e9250.jpg"",""img/0769/f229321f-04dd-42d7-b14a-ffad6b509862.jpg""]","",""
"","5379","similarity","193","1105889","0.0-6.0-187.0","7","[""img/0881/33d65d80-8a8e-4ecf-852d-0ad7725c17a2.jpg"",""img/0881/609a5e93-38b5-4940-8627-2bf8fad7f802.jpg""]","",""
"","3085","similarity","194","1110007","0.0-6.0-188.0","1","[""img/0758/e1ba5e53-addc-436a-b428-d34fc1b130dc.jpg"",""img/0866/a15b02be-11bb-43e3-b0e0-ecc3bd7dfc49.jpg""]","",""
"","4558","similarity","195","1115599","0.0-6.0-189.0","5","[""img/0764/f990b2e8-ecee-481e-be7c-0239fce350e2.jpg"",""img/0898/a8f16b02-e19f-423b-86c3-a36562ae1f9b.jpg""]","",""
"","3226","similarity","196","1119865","0.0-6.0-190.0","2","[""img/0903/005ad0de-4f52-433c-b515-dbe8d46184a3.jpg"",""img/0901/7d4a3388-488d-4e9b-9d32-9d0def7aae8d.jpg""]","",""
"","5184","similarity","197","1126069","0.0-6.0-191.0","5","[""img/0902/6c2c243a-f663-45db-baf5-038d3d58c589.jpg"",""img/0898/04e39a7a-fcf6-4156-ab0e-f5871f335e1c.jpg""]","",""
"","4662","similarity","198","1131771","0.0-6.0-192.0","2","[""img/0864/e336a4c5-6648-4fd7-b2f6-93a3fb83f8c6.jpg"",""img/0901/0f670aef-ac36-496d-8142-ee5fdb21dd82.jpg""]","",""
"","3124","similarity","199","1135926","0.0-6.0-193.0","4","[""img/0894/3adef67d-7676-4995-80b2-bb31b8aca3ef.jpg"",""img/0881/e6746727-7f89-47ec-b939-d98abe78372d.jpg""]","",""
"","2843","similarity","200","1139810","0.0-6.0-194.0","7","[""img/0868/77091fc7-a590-4ebb-b915-fdb2483a2399.jpg"",""img/0868/6a28c3b0-3d76-498a-9fb7-ddafc665eca8.jpg""]","",""
"","6521","similarity","201","1147357","0.0-6.0-195.0","5","[""img/0899/9de5e857-aa9a-4e0c-8ba2-46d79bd069a4.jpg"",""img/0764/06ea144f-f4f3-4a14-ba47-f20f35c561e0.jpg""]","",""
"","4220","similarity","202","1152606","0.0-6.0-196.0","2","[""img/0881/adc02f34-ce97-4aef-850f-00519df06fd7.jpg"",""img/0904/9dd5708f-3f8b-46a9-b49f-2f2fab87b357.jpg""]","",""
"","3774","similarity","203","1157418","0.0-6.0-197.0","5","[""img/0864/65210d57-1153-4657-886a-32e758f49b4a.jpg"",""img/0902/2a7ac123-414a-476a-9a96-4757b924baef.jpg""]","",""
"","7610","similarity","204","1166074","0.0-6.0-198.0","6","[""img/0894/10f22b96-040c-44f4-950b-a4963f3f506c.jpg"",""img/0904/1d10df11-b5c8-4370-9a6b-097a7f965895.jpg""]","",""
"","4186","similarity","205","1171296","0.0-6.0-199.0","7","[""img/0901/548d1110-7cb8-42a2-9927-9798875c8b5c.jpg"",""img/0901/bc47e078-bda4-40ed-b89a-bbd819164b95.jpg""]","",""
"","2671","similarity","206","1175004","0.0-6.0-200.0","1","[""img/0894/5a49e858-2850-4892-9a06-e9f0efb5f94d.jpg"",""img/0860/4f695df5-afac-4da7-9875-fee39b0b24ad.jpg""]","",""
"","4020","similarity","207","1180066","0.0-6.0-201.0","7","[""img/0898/c3cecf20-f7fd-45fa-97d0-dc0a63e8d6c0.jpg"",""img/0903/12bd8657-92e6-4c36-a06c-597e7a1d51f3.jpg""]","",""
"","3465","similarity","208","1184565","0.0-6.0-202.0","1","[""img/0864/ea327690-500b-4137-bf91-451b309fe6a5.jpg"",""img/0894/767a0eec-1064-46b1-b1aa-dfa02b0cd74e.jpg""]","",""
"","5155","similarity","209","1190762","0.0-6.0-203.0","5","[""img/0874/ca23d307-fc00-4d7d-9106-584c6eb21b4d.jpg"",""img/0860/c3379ff7-0763-48fe-a1ec-7ea3d611bc7a.jpg""]","",""
"","4618","similarity","210","1196418","0.0-6.0-204.0","5","[""img/0862/00c06b00-3b73-44e9-bc1e-c5aafb438321.jpg"",""img/0875/cff79b3a-a797-4393-9757-6275f999ec04.jpg""]","",""
"","5118","similarity","211","1202581","0.0-6.0-205.0","2","[""img/0867/7d1c497b-c1b3-4ed8-abb5-d7f73306015f.jpg"",""img/0881/14236cf2-6b95-48b8-9368-78af09d2d27f.jpg""]","",""
"","6142","similarity","212","1209767","0.0-6.0-206.0","5","[""img/0901/168eb52c-c415-43f1-b5c8-e76e1a1ec247.jpg"",""img/0902/82d20e8c-2162-47a6-925b-52906558c046.jpg""]","",""
"","4576","similarity","213","1215377","0.0-6.0-207.0","2","[""img/0899/06b0fc99-0581-461a-9913-d1a5a941ac61.jpg"",""img/0864/0f537697-a314-47c3-a8cc-8df23b7e536c.jpg""]","",""
"","7951","similarity","214","1224353","0.0-6.0-208.0","2","[""img/0901/31c032fd-3c3d-4882-a226-da9a80198937.jpg"",""img/0769/48a1144d-fbda-4809-991b-fc8424a32ee4.jpg""]","",""
"","4871","similarity","215","1239842","0.0-6.0-209.0","7","[""img/0902/b03fee99-d5ca-4bf8-871c-a4a743a39842.jpg"",""img/0902/168ebd47-9e82-4ab7-a18b-c3da85072db8.jpg""]","",""
"[{""page_index"":0,""viewing_time"":7760}]","7761","instructions","216","1248618","0.0-7.0","","","",""
"","9886","image-multi-choice","217","1259560","0.0-8.0-0.0","","","{""Q0"":""Orange-crowned Warbler""}","Nashville Warbler"
"","5047","image-multi-choice","218","1265675","0.0-8.0-1.0","","","{""Q0"":""Black-and-white Warbler""}","Black-and-white Warbler"
"","22299","image-multi-choice","219","1289049","0.0-8.0-2.0","","","{""Q0"":""Magnolia Warbler""}","Townsend's Warbler"
"","3647","image-multi-choice","220","1293768","0.0-8.0-3.0","","","{""Q0"":""Lark Sparrow""}","Lark Sparrow"
"","2701","image-multi-choice","221","1297540","0.0-8.0-4.0","","","{""Q0"":""Yellow Warbler""}","Yellow Warbler"
"","7257","image-multi-choice","222","1305890","0.0-8.0-5.0","","","{""Q0"":""Tennessee Warbler""}","Orange-crowned Warbler"
"","4866","image-multi-choice","223","1311820","0.0-8.0-6.0","","","{""Q0"":""White-throated Sparrow""}","White-throated Sparrow"
"","8796","image-multi-choice","224","1321712","0.0-8.0-7.0","","","{""Q0"":""Fox Sparrow""}","Fox Sparrow"
"","7524","image-multi-choice","225","1330313","0.0-8.0-8.0","","","{""Q0"":""Lincoln's Sparrow""}","Song Sparrow"
"","6729","image-multi-choice","226","1338125","0.0-8.0-9.0","","","{""Q0"":""Blackburnian Warbler""}","Blackburnian Warbler"
"","4283","image-multi-choice","227","1343482","0.0-8.0-10.0","","","{""Q0"":""Vesper Sparrow""}","Vesper Sparrow"
"","3372","image-multi-choice","228","1347936","0.0-8.0-11.0","","","{""Q0"":""White-crowned Sparrow""}","White-crowned Sparrow"
"","5825","image-multi-choice","229","1354841","0.0-8.0-12.0","","","{""Q0"":""American Tree Sparrow""}","American Tree Sparrow"
"","16697","image-multi-choice","230","1372607","0.0-8.0-13.0","","","{""Q0"":""Orange-crowned Warbler""}","Tennessee Warbler"
"","15890","image-multi-choice","231","1389551","0.0-8.0-14.0","","","{""Q0"":""Townsend's Warbler""}","Magnolia Warbler"
"","5026","image-multi-choice","232","1395651","0.0-8.0-15.0","","","{""Q0"":""Northern Waterthrush""}","Northern Waterthrush"
"","6762","image-multi-choice","233","1403465","0.0-8.0-16.0","","","{""Q0"":""Chipping Sparrow""}","Chipping Sparrow"
"","17153","image-multi-choice","234","1421686","0.0-8.0-17.0","","","{""Q0"":""Lincoln's Sparrow""}","Swamp Sparrow"
"","8366","image-multi-choice","235","1431122","0.0-8.0-18.0","","","{""Q0"":""Lincoln's Sparrow""}","Lincoln's Sparrow"
"","4333","image-multi-choice","236","1436520","0.0-8.0-19.0","","","{""Q0"":""Ovenbird""}","Ovenbird"
