[{"view_history":"[{\"page_index\":0,\"viewing_time\":18504}]","rt":18505,"trial_type":"instructions","trial_index":0,"time_elapsed":18508,"internal_node_id":"0.0-0.0"},{"sim_score":5,"rt":4824,"stimulus":"[\"img/866.jpg\",\"img/868.jpg\"]","trial_type":"similarity_demo","trial_index":1,"time_elapsed":24381,"internal_node_id":"0.0-1.0"},{"view_history":"[{\"page_index\":0,\"viewing_time\":7942}]","rt":7943,"trial_type":"instructions","trial_index":2,"time_elapsed":33341,"internal_node_id":"0.0-2.0"},{"sim_score":2,"rt":4721,"stimulus":"[\"img/766.jpg\",\"img/867.jpg\"]","trial_type":"similarity_demo","trial_index":3,"time_elapsed":39093,"internal_node_id":"0.0-3.0"},{"view_history":"[{\"page_index\":0,\"viewing_time\":5244}]","rt":5245,"trial_type":"instructions","trial_index":4,"time_elapsed":45354,"internal_node_id":"0.0-4.0"},{"view_history":"[{\"page_index\":0,\"viewing_time\":11877}]","rt":11878,"trial_type":"instructions","trial_index":5,"time_elapsed":58258,"internal_node_id":"0.0-5.0"},{"sim_score":1,"rt":3466,"stimulus":"[\"img/0868/15dd6fd7-791e-4b53-b203-195d617521a4.jpg\",\"img/0901/2a953e50-d237-405c-a38d-5ed21494c968.jpg\"]","trial_type":"similarity","trial_index":6,"time_elapsed":62768,"internal_node_id":"0.0-6.0-0.0"},{"sim_score":2,"rt":3770,"stimulus":"[\"img/0769/7c50e5f5-cc38-4d48-b009-fbe17bcea61c.jpg\",\"img/0867/f8159067-056c-41f1-a136-c529fe5e970a.jpg\"]","trial_type":"similarity","trial_index":7,"time_elapsed":67580,"internal_node_id":"0.0-6.0-1.0"},{"sim_score":2,"rt":4216,"stimulus":"[\"img/0766/d919cedb-f9b7-4f30-83bb-3e9c65001ceb.jpg\",\"img/0898/e167334e-cc1d-4986-b3b1-c7bc7da64baa.jpg\"]","trial_type":"similarity","trial_index":8,"time_elapsed":72830,"internal_node_id":"0.0-6.0-2.0"},{"sim_score":5,"rt":5520,"stimulus":"[\"img/0902/07437a16-3d0f-4a5c-89ec-36d0efa4b3b8.jpg\",\"img/0881/405484ae-0d00-4b05-bc57-6420a36adfac.jpg\"]","trial_type":"similarity","trial_index":9,"time_elapsed":79376,"internal_node_id":"0.0-6.0-3.0"},{"sim_score":7,"rt":6367,"stimulus":"[\"img/0894/86201968-6e78-4d68-9b3a-d1692e066210.jpg\",\"img/0894/9b1333fd-3561-43bf-aee5-99b7b7ca3dc3.jpg\"]","trial_type":"similarity","trial_index":10,"time_elapsed":86789,"internal_node_id":"0.0-6.0-4.0"},{"sim_score":3,"rt":4903,"stimulus":"[\"img/0874/3f471690-9788-4d03-90c7-f615aecef149.jpg\",\"img/0899/93494f3b-d539-4075-b027-d82e344563da.jpg\"]","trial_type":"similarity","trial_index":11,"time_elapsed":92735,"internal_node_id":"0.0-6.0-5.0"},{"sim_score":3,"rt":4067,"stimulus":"[\"img/0904/4d7d70a3-9477-4921-bda0-f9531d0a5c5b.jpg\",\"img/0764/cffc80b0-4a90-4acb-a530-6f480f3ca303.jpg\"]","trial_type":"similarity","trial_index":12,"time_elapsed":97843,"internal_node_id":"0.0-6.0-6.0"},{"sim_score":3,"rt":3388,"stimulus":"[\"img/0899/57476fed-5962-4272-8fc9-b317bb777b54.jpg\",\"img/0898/661621d4-a14e-487c-8c74-354134a29710.jpg\"]","trial_type":"similarity","trial_index":13,"time_elapsed":102265,"internal_node_id":"0.0-6.0-7.0"},{"sim_score":5,"rt":4610,"stimulus":"[\"img/0874/a3bc679d-619f-4db6-bb68-116dcb757d9c.jpg\",\"img/0903/aa842abe-6fa3-448a-bf71-88d3ad28663b.jpg\"]","trial_type":"similarity","trial_index":14,"time_elapsed":107921,"internal_node_id":"0.0-6.0-8.0"},{"sim_score":6,"rt":3942,"stimulus":"[\"img/0881/4bd34581-94d8-4e88-8c89-5cef864ca3be.jpg\",\"img/0758/65d426d6-3ff6-415d-8654-a43b83ecc4fe.jpg\"]","trial_type":"similarity","trial_index":15,"time_elapsed":112897,"internal_node_id":"0.0-6.0-9.0"},{"sim_score":3,"rt":3654,"stimulus":"[\"img/0898/5f699581-3853-4547-856c-12f419ba5af7.jpg\",\"img/0901/3db47171-0139-4235-82cd-0b1787b6775f.jpg\"]","trial_type":"similarity","trial_index":16,"time_elapsed":117601,"internal_node_id":"0.0-6.0-10.0"},{"sim_score":2,"rt":5741,"stimulus":"[\"img/0903/680ed18e-b311-4ecf-9b00-7dea32128334.jpg\",\"img/0769/11518cb3-13ea-4dd0-890c-30cfab728ade.jpg\"]","trial_type":"similarity","trial_index":17,"time_elapsed":124367,"internal_node_id":"0.0-6.0-11.0"},{"sim_score":3,"rt":5321,"stimulus":"[\"img/0764/17b088f8-3053-4140-b544-d15654cc79ef.jpg\",\"img/0868/e0aff734-077f-40dd-9781-74821abd3621.jpg\"]","trial_type":"similarity","trial_index":18,"time_elapsed":130732,"internal_node_id":"0.0-6.0-12.0"},{"sim_score":1,"rt":3253,"stimulus":"[\"img/0867/de92135f-5b65-4ed9-b245-188292c7c2f8.jpg\",\"img/0903/0a92ec52-4e87-410a-857a-4455cde56a70.jpg\"]","trial_type":"similarity","trial_index":19,"time_elapsed":135030,"internal_node_id":"0.0-6.0-13.0"},{"sim_score":1,"rt":3490,"stimulus":"[\"img/0766/b84598d0-5b41-4841-88b0-b441b48289f5.jpg\",\"img/0758/d540bee6-b460-4c32-ac57-bc282742d7d4.jpg\"]","trial_type":"similarity","trial_index":20,"time_elapsed":139561,"internal_node_id":"0.0-6.0-14.0"},{"sim_score":5,"rt":3618,"stimulus":"[\"img/0902/10d99c89-71f7-4c81-a31e-dfc7c59f5232.jpg\",\"img/0860/c7047cd2-7cc1-41b6-8a34-c0986774975f.jpg\"]","trial_type":"similarity","trial_index":21,"time_elapsed":144209,"internal_node_id":"0.0-6.0-15.0"},{"sim_score":3,"rt":5414,"stimulus":"[\"img/0769/f73c5138-2f4c-4354-981c-129dff9cc734.jpg\",\"img/0875/99698b4d-b4a1-44bc-8c83-8ea755bbbf61.jpg\"]","trial_type":"similarity","trial_index":22,"time_elapsed":150670,"internal_node_id":"0.0-6.0-16.0"},{"sim_score":2,"rt":3760,"stimulus":"[\"img/0904/da170c1b-9651-4f08-b231-2bdd1d9a046f.jpg\",\"img/0866/23a224f3-2012-4fc8-8e0f-3c36f8de27fd.jpg\"]","trial_type":"similarity","trial_index":23,"time_elapsed":155458,"internal_node_id":"0.0-6.0-17.0"},{"sim_score":5,"rt":4653,"stimulus":"[\"img/0875/5a7c4e35-6514-4e12-8879-d16071da4cd6.jpg\",\"img/0875/527ced51-8e53-4aab-ab05-86df219104c0.jpg\"]","trial_type":"similarity","trial_index":24,"time_elapsed":161138,"internal_node_id":"0.0-6.0-18.0"},{"sim_score":6,"rt":5347,"stimulus":"[\"img/0758/3ddd05d3-557e-4ee7-8b78-9d2d681d8ae2.jpg\",\"img/0758/7ee8bc8f-c40b-4b3a-84ec-3e83580622d4.jpg\"]","trial_type":"similarity","trial_index":25,"time_elapsed":167512,"internal_node_id":"0.0-6.0-19.0"},{"sim_score":5,"rt":3366,"stimulus":"[\"img/0902/aa6fca32-82b0-4414-b20a-8f6f8aa5a2d2.jpg\",\"img/0874/85eb9b8a-c4c6-4e5a-b8e7-363a87a82054.jpg\"]","trial_type":"similarity","trial_index":26,"time_elapsed":171911,"internal_node_id":"0.0-6.0-20.0"},{"sim_score":3,"rt":4301,"stimulus":"[\"img/0764/d7f3ac54-318a-4dac-a06b-62bed34d01a4.jpg\",\"img/0769/878531fd-e0e8-4ad1-b9ad-f018bb104ca0.jpg\"]","trial_type":"similarity","trial_index":27,"time_elapsed":177246,"internal_node_id":"0.0-6.0-21.0"},{"sim_score":1,"rt":3358,"stimulus":"[\"img/0901/a373612d-67e2-4fec-9764-21d3d6ef6359.jpg\",\"img/0874/1016b306-087c-4afc-aa08-fa527b28dc76.jpg\"]","trial_type":"similarity","trial_index":28,"time_elapsed":181637,"internal_node_id":"0.0-6.0-22.0"},{"sim_score":4,"rt":4209,"stimulus":"[\"img/0875/5a716432-c6ca-4b1c-955a-2b8ac25198ee.jpg\",\"img/0903/70d764d9-1f35-4da7-a35d-4cc39834d270.jpg\"]","trial_type":"similarity","trial_index":29,"time_elapsed":186887,"internal_node_id":"0.0-6.0-23.0"},{"sim_score":3,"rt":3717,"stimulus":"[\"img/0769/8598a429-c671-4d2f-842c-32f681f5e412.jpg\",\"img/0881/f4e3e181-b3c9-4af2-a5a4-fc135ab70d2e.jpg\"]","trial_type":"similarity","trial_index":30,"time_elapsed":191637,"internal_node_id":"0.0-6.0-24.0"},{"sim_score":2,"rt":3006,"stimulus":"[\"img/0867/cc72ed48-7704-422c-86d6-467a1145287a.jpg\",\"img/0904/6291eb43-c10c-4810-a36a-101d09868b04.jpg\"]","trial_type":"similarity","trial_index":31,"time_elapsed":195684,"internal_node_id":"0.0-6.0-25.0"},{"sim_score":5,"rt":4268,"stimulus":"[\"img/0860/15b24a61-25be-4356-9eac-5ce95d0cb4a4.jpg\",\"img/0881/db77fe00-aeb0-4d1d-aa66-f3a96fd077e4.jpg\"]","trial_type":"similarity","trial_index":32,"time_elapsed":200987,"internal_node_id":"0.0-6.0-26.0"},{"sim_score":6,"rt":3378,"stimulus":"[\"img/0866/620cd1aa-0800-4414-8f6e-90342e7a99ad.jpg\",\"img/0866/945c6710-d15b-4a5b-a8f6-69af0850357f.jpg\"]","trial_type":"similarity","trial_index":33,"time_elapsed":205401,"internal_node_id":"0.0-6.0-27.0"},{"sim_score":3,"rt":3480,"stimulus":"[\"img/0764/b8e23f4f-ff19-4472-ad9b-2f85548ebca0.jpg\",\"img/0862/ad593cc7-cabe-4bb7-8e14-8a447a0717b4.jpg\"]","trial_type":"similarity","trial_index":34,"time_elapsed":209917,"internal_node_id":"0.0-6.0-28.0"},{"sim_score":3,"rt":4001,"stimulus":"[\"img/0904/0d17b811-063e-416e-a23c-3b3cfa4fcce5.jpg\",\"img/0758/53f35650-e455-4b53-8be4-c3c8271c6466.jpg\"]","trial_type":"similarity","trial_index":35,"time_elapsed":214963,"internal_node_id":"0.0-6.0-29.0"},{"sim_score":5,"rt":3995,"stimulus":"[\"img/0894/e2446cf5-cd48-486a-badc-76498e087fbe.jpg\",\"img/0899/a05bea16-2bb4-4cb9-b8fb-4ff975db6971.jpg\"]","trial_type":"similarity","trial_index":36,"time_elapsed":219994,"internal_node_id":"0.0-6.0-30.0"},{"sim_score":3,"rt":3496,"stimulus":"[\"img/0860/4c530c3c-6aab-492a-94d1-9c01797bde40.jpg\",\"img/0904/2f88ce53-02d0-4f95-a082-182c56a0eeb4.jpg\"]","trial_type":"similarity","trial_index":37,"time_elapsed":224518,"internal_node_id":"0.0-6.0-31.0"},{"sim_score":5,"rt":4088,"stimulus":"[\"img/0874/bf14b896-e930-4fd9-9c05-2e83317a2773.jpg\",\"img/0881/c843e210-bdfe-4a7c-8bbe-fcea1f90fe1c.jpg\"]","trial_type":"similarity","trial_index":38,"time_elapsed":229634,"internal_node_id":"0.0-6.0-32.0"},{"sim_score":2,"rt":2893,"stimulus":"[\"img/0881/633c6f40-56d9-4b48-bf1c-ecd83116eabb.jpg\",\"img/0899/1b3457ea-87d4-4946-a01c-aac1863ed46c.jpg\"]","trial_type":"similarity","trial_index":39,"time_elapsed":233556,"internal_node_id":"0.0-6.0-33.0"},{"sim_score":1,"rt":3438,"stimulus":"[\"img/0866/c446214b-a368-4c65-ae39-ea46894256ab.jpg\",\"img/0862/fad1d7c1-8187-43c3-942a-0fc12183e48e.jpg\"]","trial_type":"similarity","trial_index":40,"time_elapsed":238032,"internal_node_id":"0.0-6.0-34.0"},{"sim_score":5,"rt":2665,"stimulus":"[\"img/0868/4e626425-63c8-484a-8a1d-e66ee4e0bef8.jpg\",\"img/0894/661b9f9f-4bde-487a-b1ed-87085fde6948.jpg\"]","trial_type":"similarity","trial_index":41,"time_elapsed":241720,"internal_node_id":"0.0-6.0-35.0"},{"sim_score":6,"rt":3812,"stimulus":"[\"img/0860/c5ccd1a4-4bb7-48e1-9b25-72cfaf06909b.jpg\",\"img/0860/61fb959d-d4d9-4de4-9e4e-4fa62b4cfcd5.jpg\"]","trial_type":"similarity","trial_index":42,"time_elapsed":246564,"internal_node_id":"0.0-6.0-36.0"},{"sim_score":5,"rt":3678,"stimulus":"[\"img/0862/47ed5efd-4ec9-4b74-bb4e-a5f5cf0c3e7d.jpg\",\"img/0864/66091c27-e588-4476-8af9-265dc6be4156.jpg\"]","trial_type":"similarity","trial_index":43,"time_elapsed":251287,"internal_node_id":"0.0-6.0-37.0"},{"sim_score":1,"rt":4294,"stimulus":"[\"img/0766/908bc45b-7c9e-4f95-806e-86b196ebcb2c.jpg\",\"img/0866/d266fece-59b3-46fa-b69f-96f6efb81b59.jpg\"]","trial_type":"similarity","trial_index":44,"time_elapsed":256609,"internal_node_id":"0.0-6.0-38.0"},{"sim_score":5,"rt":4164,"stimulus":"[\"img/0875/dbdd643e-6d0e-4a5c-ab57-b9c29b9c981a.jpg\",\"img/0898/40f99fb2-64d2-4e72-8a7f-a1cf60741e69.jpg\"]","trial_type":"similarity","trial_index":45,"time_elapsed":261814,"internal_node_id":"0.0-6.0-39.0"},{"sim_score":5,"rt":4897,"stimulus":"[\"img/0766/51d3aab4-3d09-4dda-b99d-3dc7aaabc6f2.jpg\",\"img/0769/91acb237-65a3-4d0b-9748-af5c7b83d3c7.jpg\"]","trial_type":"similarity","trial_index":46,"time_elapsed":267742,"internal_node_id":"0.0-6.0-40.0"},{"sim_score":3,"rt":4134,"stimulus":"[\"img/0874/2c9464dd-8a23-4baa-ac94-1ba3af5c15cc.jpg\",\"img/0764/f2f23359-8e82-41d3-8900-5b9f4433991d.jpg\"]","trial_type":"similarity","trial_index":47,"time_elapsed":287887,"internal_node_id":"0.0-6.0-41.0"},{"sim_score":1,"rt":3835,"stimulus":"[\"img/0868/8b0b8473-e2c0-4331-aa56-c3a5c29369da.jpg\",\"img/0902/51493fab-2a10-4385-aa88-bee3db441626.jpg\"]","trial_type":"similarity","trial_index":48,"time_elapsed":292763,"internal_node_id":"0.0-6.0-42.0"},{"sim_score":4,"rt":4428,"stimulus":"[\"img/0875/3ecb367d-e9eb-4826-8aaa-7aa72fb98019.jpg\",\"img/0899/0adc0bc3-6fca-4078-be6f-d45ddf1653d5.jpg\"]","trial_type":"similarity","trial_index":49,"time_elapsed":298223,"internal_node_id":"0.0-6.0-43.0"},{"sim_score":3,"rt":3783,"stimulus":"[\"img/0866/11a1d141-be5e-443c-98c1-a9d4d9e3dec0.jpg\",\"img/0860/c47fdead-eb02-4989-b078-26f4852f44fe.jpg\"]","trial_type":"similarity","trial_index":50,"time_elapsed":303059,"internal_node_id":"0.0-6.0-44.0"},{"sim_score":5,"rt":6095,"stimulus":"[\"img/0766/d5d38751-8fa5-476f-93e9-86ed2d9045ef.jpg\",\"img/0903/8f7f9939-b8e6-433f-93dd-b362496c80a7.jpg\"]","trial_type":"similarity","trial_index":51,"time_elapsed":310176,"internal_node_id":"0.0-6.0-45.0"},{"sim_score":4,"rt":3346,"stimulus":"[\"img/0901/04a53755-6da5-44d4-a7a6-48a6bc0a2280.jpg\",\"img/0904/73920552-103b-4c9c-9ece-e0b8376b4504.jpg\"]","trial_type":"similarity","trial_index":52,"time_elapsed":314550,"internal_node_id":"0.0-6.0-46.0"},{"sim_score":3,"rt":6783,"stimulus":"[\"img/0758/b76ceca7-95ac-46e4-ac13-da02c8e93be9.jpg\",\"img/0902/0db94c50-f1fb-4091-953c-29ca0466bee2.jpg\"]","trial_type":"similarity","trial_index":53,"time_elapsed":322374,"internal_node_id":"0.0-6.0-47.0"},{"sim_score":7,"rt":4067,"stimulus":"[\"img/0764/50f1b062-d608-4bc0-ab25-b872dcf2ed93.jpg\",\"img/0764/23ea9375-f801-4a96-9925-7d453da887c7.jpg\"]","trial_type":"similarity","trial_index":54,"time_elapsed":327484,"internal_node_id":"0.0-6.0-48.0"},{"sim_score":1,"rt":2489,"stimulus":"[\"img/0866/0207e9a2-7dbb-40b5-9459-b472aaeceb2a.jpg\",\"img/0902/af45fe42-178c-4c1a-99ef-256e87e3b092.jpg\"]","trial_type":"similarity","trial_index":55,"time_elapsed":331012,"internal_node_id":"0.0-6.0-49.0"},{"sim_score":3,"rt":4247,"stimulus":"[\"img/0764/39a9fc7e-b863-432c-9374-de43983f31a5.jpg\",\"img/0758/a085b443-b5d7-4cb2-9ad4-b9dab0fc23f1.jpg\"]","trial_type":"similarity","trial_index":56,"time_elapsed":336308,"internal_node_id":"0.0-6.0-50.0"},{"sim_score":2,"rt":3786,"stimulus":"[\"img/0898/82231d4c-218b-4d0a-b50d-35a49b524e97.jpg\",\"img/0894/7dd6ff43-f8fc-408a-8a41-a2b261871820.jpg\"]","trial_type":"similarity","trial_index":57,"time_elapsed":341136,"internal_node_id":"0.0-6.0-51.0"},{"sim_score":3,"rt":3254,"stimulus":"[\"img/0875/f87b67d7-c33e-40d1-b281-248c4be1cb6e.jpg\",\"img/0866/07c9c966-3c8d-40e7-8128-92b2acbaed5d.jpg\"]","trial_type":"similarity","trial_index":58,"time_elapsed":345440,"internal_node_id":"0.0-6.0-52.0"},{"sim_score":6,"rt":3350,"stimulus":"[\"img/0904/0d25eb24-bb20-4e8d-9787-8b489558b4cb.jpg\",\"img/0904/9d30eff1-46ef-4453-b11e-124ef8145c00.jpg\"]","trial_type":"similarity","trial_index":59,"time_elapsed":349824,"internal_node_id":"0.0-6.0-53.0"},{"sim_score":5,"rt":5385,"stimulus":"[\"img/0769/ecda2fb3-556b-43ba-8a67-e87dd75ff2b4.jpg\",\"img/0769/8056889f-2b14-4782-bb25-b4e8896ab65b.jpg\"]","trial_type":"similarity","trial_index":60,"time_elapsed":356243,"internal_node_id":"0.0-6.0-54.0"},{"sim_score":6,"rt":6795,"stimulus":"[\"img/0898/8605a25b-6895-476d-8c13-df7a83f96093.jpg\",\"img/0758/821c68d3-5cb0-4eae-8659-30e6263fca39.jpg\"]","trial_type":"similarity","trial_index":61,"time_elapsed":364065,"internal_node_id":"0.0-6.0-55.0"},{"sim_score":2,"rt":4749,"stimulus":"[\"img/0769/022c7e3b-c3f2-4119-b4bc-f22fa7cae18c.jpg\",\"img/0902/22ed3536-288b-452e-9777-0fa0ab94deb0.jpg\"]","trial_type":"similarity","trial_index":62,"time_elapsed":369838,"internal_node_id":"0.0-6.0-56.0"},{"sim_score":6,"rt":6203,"stimulus":"[\"img/0864/f92649a2-0590-4d31-9a7a-1bfb81666a2d.jpg\",\"img/0881/667e2147-d457-4f32-aa5f-6ab86e5848f1.jpg\"]","trial_type":"similarity","trial_index":63,"time_elapsed":377063,"internal_node_id":"0.0-6.0-57.0"},{"sim_score":2,"rt":3992,"stimulus":"[\"img/0758/a709631e-3705-4725-ac40-f0d916924f08.jpg\",\"img/0868/0d3abd3a-b6c3-4584-a9f7-e2da63748b3d.jpg\"]","trial_type":"similarity","trial_index":64,"time_elapsed":382103,"internal_node_id":"0.0-6.0-58.0"},{"sim_score":1,"rt":3287,"stimulus":"[\"img/0862/92fcd8a4-8193-4a6a-ae09-dd4a6338b0df.jpg\",\"img/0769/c34b7763-8ff2-46d5-9e92-f1d8f3bedbd8.jpg\"]","trial_type":"similarity","trial_index":65,"time_elapsed":386435,"internal_node_id":"0.0-6.0-59.0"},{"sim_score":3,"rt":3662,"stimulus":"[\"img/0764/fb7d4a20-a475-465e-a74f-aa39a0d33d16.jpg\",\"img/0903/f45a103c-9bfe-49fd-ad96-bdd8d2589195.jpg\"]","trial_type":"similarity","trial_index":66,"time_elapsed":391133,"internal_node_id":"0.0-6.0-60.0"},{"sim_score":5,"rt":4036,"stimulus":"[\"img/0899/5b56dd3e-3f49-47cc-af84-16da6457753b.jpg\",\"img/0899/66bf4113-ee12-426c-84d2-ea410b6c803e.jpg\"]","trial_type":"similarity","trial_index":67,"time_elapsed":396203,"internal_node_id":"0.0-6.0-61.0"},{"sim_score":6,"rt":5413,"stimulus":"[\"img/0860/8277806e-b684-4474-8f7b-3fca946d7d4f.jpg\",\"img/0875/8521fd58-3b1e-4dc5-97ae-804edfa6734a.jpg\"]","trial_type":"similarity","trial_index":68,"time_elapsed":402665,"internal_node_id":"0.0-6.0-62.0"},{"sim_score":3,"rt":3885,"stimulus":"[\"img/0868/1a62b2b2-18f5-466e-b564-5176a57c565e.jpg\",\"img/0874/adf9a8f1-c40b-402b-b95b-1e85a54a7b62.jpg\"]","trial_type":"similarity","trial_index":69,"time_elapsed":407595,"internal_node_id":"0.0-6.0-63.0"},{"sim_score":5,"rt":5914,"stimulus":"[\"img/0758/7ffbc76b-1fc1-432c-8f7e-9ec8d1b3f643.jpg\",\"img/0862/f188d4f0-76a4-4102-818c-a209969d73a5.jpg\"]","trial_type":"similarity","trial_index":70,"time_elapsed":414538,"internal_node_id":"0.0-6.0-64.0"},{"sim_score":6,"rt":5145,"stimulus":"[\"img/0904/09dac84f-3d1c-4445-a68e-d0389fdbf1e9.jpg\",\"img/0898/26c41340-15bd-4ead-8fe4-c0d0ddca09c2.jpg\"]","trial_type":"similarity","trial_index":71,"time_elapsed":420726,"internal_node_id":"0.0-6.0-65.0"},{"sim_score":3,"rt":4045,"stimulus":"[\"img/0881/62a64f90-7a72-4aee-a1a1-0c548ac9bdda.jpg\",\"img/0866/9b38d691-1802-4959-ab3f-fc902f0e4ea6.jpg\"]","trial_type":"similarity","trial_index":72,"time_elapsed":425804,"internal_node_id":"0.0-6.0-66.0"},{"sim_score":5,"rt":7570,"stimulus":"[\"img/0867/f8488a47-94ee-4166-952c-44e16cf172f6.jpg\",\"img/0898/881e2a85-d5c2-49be-a0c6-8a6ce2c4af08.jpg\"]","trial_type":"similarity","trial_index":73,"time_elapsed":434416,"internal_node_id":"0.0-6.0-67.0"},{"sim_score":3,"rt":3623,"stimulus":"[\"img/0902/eb3e7e71-8ff1-4b88-a6a7-47e2c1ce1683.jpg\",\"img/0764/ca957454-126a-4bd3-b29c-7174a24c25dc.jpg\"]","trial_type":"similarity","trial_index":74,"time_elapsed":439064,"internal_node_id":"0.0-6.0-68.0"},{"sim_score":6,"rt":2544,"stimulus":"[\"img/0875/42910c99-5463-450a-a0f8-d4d060a11455.jpg\",\"img/0867/98d8cd96-1476-4fe0-a3a3-04f875500a1b.jpg\"]","trial_type":"similarity","trial_index":75,"time_elapsed":442634,"internal_node_id":"0.0-6.0-69.0"},{"sim_score":6,"rt":5895,"stimulus":"[\"img/0766/ae0fce93-fe8d-4aa1-87ca-4c3e4b889f2f.jpg\",\"img/0764/4952d0a0-c9be-471a-8ec7-94a37bf4051d.jpg\"]","trial_type":"similarity","trial_index":76,"time_elapsed":449556,"internal_node_id":"0.0-6.0-70.0"},{"sim_score":5,"rt":4874,"stimulus":"[\"img/0894/a3d4170b-b7d8-40e3-955f-87e76ed745fc.jpg\",\"img/0867/aa05d113-fc19-4756-a8eb-7878f580bc92.jpg\"]","trial_type":"similarity","trial_index":77,"time_elapsed":455461,"internal_node_id":"0.0-6.0-71.0"},{"sim_score":2,"rt":3182,"stimulus":"[\"img/0875/2e13d160-eea1-416b-aff1-d37ab99ecc1d.jpg\",\"img/0764/fb92924f-5cfe-4b89-b130-0cce8cc5636b.jpg\"]","trial_type":"similarity","trial_index":78,"time_elapsed":459682,"internal_node_id":"0.0-6.0-72.0"},{"sim_score":7,"rt":3886,"stimulus":"[\"img/0867/bf560d4f-dee3-4f11-a385-705cc1aa5f3c.jpg\",\"img/0866/be24ab58-230e-4db8-9f45-ff04c9aec6bb.jpg\"]","trial_type":"similarity","trial_index":79,"time_elapsed":464597,"internal_node_id":"0.0-6.0-73.0"},{"sim_score":3,"rt":3672,"stimulus":"[\"img/0903/d987e220-f3e6-4b6d-a270-fe6757041f6d.jpg\",\"img/0758/dd559618-7f09-4a07-8018-d311c4a5ea29.jpg\"]","trial_type":"similarity","trial_index":80,"time_elapsed":469306,"internal_node_id":"0.0-6.0-74.0"},{"sim_score":2,"rt":4313,"stimulus":"[\"img/0766/0025de5e-f620-4079-8a0f-00326ff3a6b0.jpg\",\"img/0868/09a9ef4d-d000-4cfa-a6aa-ebec7c2edeb4.jpg\"]","trial_type":"similarity","trial_index":81,"time_elapsed":474649,"internal_node_id":"0.0-6.0-75.0"},{"sim_score":1,"rt":3228,"stimulus":"[\"img/0874/eba003b4-cdab-4eee-8bc3-f064c7d94165.jpg\",\"img/0766/2746b119-4bba-463e-acf0-88136dc6600c.jpg\"]","trial_type":"similarity","trial_index":82,"time_elapsed":478915,"internal_node_id":"0.0-6.0-76.0"},{"sim_score":2,"rt":3936,"stimulus":"[\"img/0881/f037e3b0-09cb-4a83-b2d9-6a71fe474e63.jpg\",\"img/0868/179a5502-ab5c-478e-8263-5a1fbcc101d2.jpg\"]","trial_type":"similarity","trial_index":83,"time_elapsed":483899,"internal_node_id":"0.0-6.0-77.0"},{"sim_score":5,"rt":3842,"stimulus":"[\"img/0758/d41c06bf-ebaf-454b-91c6-1a17f917b659.jpg\",\"img/0901/a9b9c0a0-8aed-4888-a78a-65fb7e764d13.jpg\"]","trial_type":"similarity","trial_index":84,"time_elapsed":488765,"internal_node_id":"0.0-6.0-78.0"},{"sim_score":5,"rt":5585,"stimulus":"[\"img/0881/f62bdcd1-a4b7-4d48-83da-d9c9e01c8727.jpg\",\"img/0898/79233891-305a-4a6a-8ddf-5c8604858203.jpg\"]","trial_type":"similarity","trial_index":85,"time_elapsed":495390,"internal_node_id":"0.0-6.0-79.0"},{"sim_score":1,"rt":3979,"stimulus":"[\"img/0867/5e07b34d-b40f-4b1c-ac10-49975bace45f.jpg\",\"img/0758/e38fd80d-18d0-42f3-b848-f930788e8bd7.jpg\"]","trial_type":"similarity","trial_index":86,"time_elapsed":500398,"internal_node_id":"0.0-6.0-80.0"},{"sim_score":6,"rt":5284,"stimulus":"[\"img/0769/3adfa417-3b90-4aab-b437-5eaa474189cb.jpg\",\"img/0899/a048912c-b12c-40e3-90af-46b69b0cc4fe.jpg\"]","trial_type":"similarity","trial_index":87,"time_elapsed":506727,"internal_node_id":"0.0-6.0-81.0"},{"sim_score":7,"rt":3856,"stimulus":"[\"img/0903/8931c67c-a43d-47d3-a4c9-42aa2f81d344.jpg\",\"img/0903/f1fa0f8d-e62b-4b4a-a174-31a0fabfe61b.jpg\"]","trial_type":"similarity","trial_index":88,"time_elapsed":511616,"internal_node_id":"0.0-6.0-82.0"},{"sim_score":5,"rt":3411,"stimulus":"[\"img/0867/85a96c62-548f-4994-9553-819e03c3135a.jpg\",\"img/0766/ef3b15ce-abb7-4292-ad93-aec8e8b50520.jpg\"]","trial_type":"similarity","trial_index":89,"time_elapsed":527686,"internal_node_id":"0.0-6.0-83.0"},{"sim_score":2,"rt":3923,"stimulus":"[\"img/0902/d49743d6-67ae-4c2e-a939-8fd895a0f18e.jpg\",\"img/0867/c66898ba-b71b-4d50-84f9-f7f84853a98d.jpg\"]","trial_type":"similarity","trial_index":90,"time_elapsed":532634,"internal_node_id":"0.0-6.0-84.0"},{"sim_score":3,"rt":3337,"stimulus":"[\"img/0901/ae1e6ce4-2e10-4ca9-b1e7-21628637ab74.jpg\",\"img/0875/e7e66b13-b573-431e-b85e-288ce04a35a3.jpg\"]","trial_type":"similarity","trial_index":91,"time_elapsed":537008,"internal_node_id":"0.0-6.0-85.0"},{"sim_score":1,"rt":5133,"stimulus":"[\"img/0764/a3226bc4-dcc3-4608-bde8-1414d685ce5c.jpg\",\"img/0866/93a27239-8317-4e08-98ca-d8b1ff298e07.jpg\"]","trial_type":"similarity","trial_index":92,"time_elapsed":543172,"internal_node_id":"0.0-6.0-86.0"},{"sim_score":1,"rt":5502,"stimulus":"[\"img/0901/b453df0b-4c39-49bb-8ced-6127efffa898.jpg\",\"img/0894/792c83e9-a747-4000-bc72-5663d2439edb.jpg\"]","trial_type":"similarity","trial_index":93,"time_elapsed":549704,"internal_node_id":"0.0-6.0-87.0"},{"sim_score":6,"rt":4028,"stimulus":"[\"img/0898/6cd3830b-d44e-4915-be2b-88d31424b91c.jpg\",\"img/0769/4680bcc3-8fbc-4643-8f9a-12aa0e780b64.jpg\"]","trial_type":"similarity","trial_index":94,"time_elapsed":554765,"internal_node_id":"0.0-6.0-88.0"},{"sim_score":6,"rt":6156,"stimulus":"[\"img/0769/aad494cc-674d-4a08-9bfa-24a88ebe3c79.jpg\",\"img/0894/a98416c0-51e2-4960-85da-d81d8688b9d5.jpg\"]","trial_type":"similarity","trial_index":95,"time_elapsed":561963,"internal_node_id":"0.0-6.0-89.0"},{"sim_score":5,"rt":4188,"stimulus":"[\"img/0862/e8cc3bdf-cc43-4565-bccf-492626c70953.jpg\",\"img/0874/29830da7-be5f-44e5-b141-652a0ccf7269.jpg\"]","trial_type":"similarity","trial_index":96,"time_elapsed":567187,"internal_node_id":"0.0-6.0-90.0"},{"sim_score":7,"rt":4250,"stimulus":"[\"img/0894/0130a973-d993-41f8-874a-fee23d9ac11f.jpg\",\"img/0766/33aa9ebb-c9f5-418f-8c8b-c77861889568.jpg\"]","trial_type":"similarity","trial_index":97,"time_elapsed":572475,"internal_node_id":"0.0-6.0-91.0"},{"sim_score":1,"rt":3002,"stimulus":"[\"img/0874/767f289c-9814-4496-803f-745cc8913d1f.jpg\",\"img/0867/db7e032f-162b-46f5-ae67-2b29679adee4.jpg\"]","trial_type":"similarity","trial_index":98,"time_elapsed":576515,"internal_node_id":"0.0-6.0-92.0"},{"sim_score":4,"rt":8109,"stimulus":"[\"img/0899/fef567a2-c121-4481-9af0-ff108d199bbf.jpg\",\"img/0868/d98ca254-b195-477f-b57e-5760a2717db8.jpg\"]","trial_type":"similarity","trial_index":99,"time_elapsed":585662,"internal_node_id":"0.0-6.0-93.0"},{"sim_score":6,"rt":3288,"stimulus":"[\"img/0903/a0673b55-6040-47fe-9040-24bca27ca3c9.jpg\",\"img/0862/de9ad88c-b522-430a-8ee9-eb06a9f85df5.jpg\"]","trial_type":"similarity","trial_index":100,"time_elapsed":589983,"internal_node_id":"0.0-6.0-94.0"},{"sim_score":7,"rt":3998,"stimulus":"[\"img/0899/76ad07e2-ca25-45eb-84f2-8d80b8ca3e26.jpg\",\"img/0766/d512b99c-a2dc-40d7-8e86-827323a0cbcf.jpg\"]","trial_type":"similarity","trial_index":101,"time_elapsed":595015,"internal_node_id":"0.0-6.0-95.0"},{"sim_score":7,"rt":2476,"stimulus":"[\"img/0867/c71dc569-f49c-4397-8381-68b8d726736d.jpg\",\"img/0868/4a8a45ed-2c4f-421b-9564-409a33ecd26c.jpg\"]","trial_type":"similarity","trial_index":102,"time_elapsed":598515,"internal_node_id":"0.0-6.0-96.0"},{"sim_score":5,"rt":3762,"stimulus":"[\"img/0862/a0a3a7ba-7798-46a3-b4ca-05e1f6e581d0.jpg\",\"img/0901/4ca4f962-40c0-4c59-b14a-3cd7b8c9029b.jpg\"]","trial_type":"similarity","trial_index":103,"time_elapsed":603310,"internal_node_id":"0.0-6.0-97.0"},{"sim_score":4,"rt":5839,"stimulus":"[\"img/0875/2c361b79-c3d1-4eda-812e-bf03192407bf.jpg\",\"img/0766/26d3ae14-8275-4e08-99b2-a6598c193ddf.jpg\"]","trial_type":"similarity","trial_index":104,"time_elapsed":610192,"internal_node_id":"0.0-6.0-98.0"},{"sim_score":2,"rt":4131,"stimulus":"[\"img/0758/6cd8c362-ae2a-41eb-80a3-3a4f7ace1530.jpg\",\"img/0874/93d1f8dc-acf2-4f03-bd8d-8ec35df276ed.jpg\"]","trial_type":"similarity","trial_index":105,"time_elapsed":615364,"internal_node_id":"0.0-6.0-99.0"},{"sim_score":2,"rt":5328,"stimulus":"[\"img/0904/4b8daf2a-13a9-4ea9-9e0b-b265b6e933e7.jpg\",\"img/0868/fd307a36-9a3a-47d7-ab7c-f810d0b35040.jpg\"]","trial_type":"similarity","trial_index":106,"time_elapsed":621724,"internal_node_id":"0.0-6.0-100.0"},{"sim_score":1,"rt":4579,"stimulus":"[\"img/0903/150cf64c-0bd2-4674-abbb-a1387cf1f3e9.jpg\",\"img/0866/6f2a90d7-14f1-4f1b-bd64-fc0af6b9fe44.jpg\"]","trial_type":"similarity","trial_index":107,"time_elapsed":627340,"internal_node_id":"0.0-6.0-101.0"},{"sim_score":5,"rt":4033,"stimulus":"[\"img/0868/c8ac40c7-6904-4e13-8d61-c75d3052dc4e.jpg\",\"img/0769/04347740-f8f6-48bb-887a-f68babd0a0d4.jpg\"]","trial_type":"similarity","trial_index":108,"time_elapsed":632410,"internal_node_id":"0.0-6.0-102.0"},{"sim_score":4,"rt":6767,"stimulus":"[\"img/0902/c9c74d2d-9b82-42d7-a9d0-3b8ff67ff81e.jpg\",\"img/0899/d8f2dd94-570e-4e8c-a087-d96090fb9e8c.jpg\"]","trial_type":"similarity","trial_index":109,"time_elapsed":640214,"internal_node_id":"0.0-6.0-103.0"},{"sim_score":1,"rt":2531,"stimulus":"[\"img/0868/7b212364-ff5f-4e28-9241-7eb6ea00161b.jpg\",\"img/0862/e697469a-ec19-4414-b972-7b9f3564785b.jpg\"]","trial_type":"similarity","trial_index":110,"time_elapsed":643777,"internal_node_id":"0.0-6.0-104.0"},{"sim_score":1,"rt":3216,"stimulus":"[\"img/0903/47e39de8-6959-469f-8be9-6999a6db207c.jpg\",\"img/0894/3664e04c-c6d3-4c9b-afb6-25d89974b174.jpg\"]","trial_type":"similarity","trial_index":111,"time_elapsed":648019,"internal_node_id":"0.0-6.0-105.0"},{"sim_score":6,"rt":6669,"stimulus":"[\"img/0864/87c467d3-abca-482f-ad80-3766c21b1bb3.jpg\",\"img/0874/31e22c7c-99aa-40b1-bf03-dd73fa2df4d6.jpg\"]","trial_type":"similarity","trial_index":112,"time_elapsed":655731,"internal_node_id":"0.0-6.0-106.0"},{"sim_score":7,"rt":5589,"stimulus":"[\"img/0862/fb26cb07-d5a9-4653-813c-f41609f26cd5.jpg\",\"img/0902/31abfa33-7cdb-44ad-968e-9f7b324d577a.jpg\"]","trial_type":"similarity","trial_index":113,"time_elapsed":662348,"internal_node_id":"0.0-6.0-107.0"},{"sim_score":5,"rt":3181,"stimulus":"[\"img/0904/d23dd7be-7fe8-4435-82f7-bd592c01e6a1.jpg\",\"img/0903/365f176c-25a4-4973-bd3c-279bf1b39476.jpg\"]","trial_type":"similarity","trial_index":114,"time_elapsed":666558,"internal_node_id":"0.0-6.0-108.0"},{"sim_score":2,"rt":4822,"stimulus":"[\"img/0764/4eff630a-6426-4f8d-b2ba-b4d9842a0962.jpg\",\"img/0864/e02eddb5-f468-499c-91bf-f7be3ffe979b.jpg\"]","trial_type":"similarity","trial_index":115,"time_elapsed":672426,"internal_node_id":"0.0-6.0-109.0"},{"sim_score":5,"rt":3059,"stimulus":"[\"img/0866/bf14b5bd-fb55-47db-86b9-4f8aeb9a6dad.jpg\",\"img/0894/1b3888e6-cf36-4c4a-a039-187aa5cb71ac.jpg\"]","trial_type":"similarity","trial_index":116,"time_elapsed":676528,"internal_node_id":"0.0-6.0-110.0"},{"sim_score":1,"rt":3313,"stimulus":"[\"img/0899/7b7380d5-d2be-44e5-a09a-c1756f87ef71.jpg\",\"img/0903/14f179a2-8786-48a2-8377-88d1d404341b.jpg\"]","trial_type":"similarity","trial_index":117,"time_elapsed":680870,"internal_node_id":"0.0-6.0-111.0"},{"sim_score":6,"rt":5226,"stimulus":"[\"img/0902/8065aa6b-4aef-4368-afa2-02c6465ca582.jpg\",\"img/0904/5aec2708-cf14-4a58-aa30-9a8a61c1be0e.jpg\"]","trial_type":"similarity","trial_index":118,"time_elapsed":687136,"internal_node_id":"0.0-6.0-112.0"},{"sim_score":5,"rt":5276,"stimulus":"[\"img/0864/49150900-7f25-4ce8-8d10-9b47a71d1997.jpg\",\"img/0860/71e1aad0-2cdf-43bb-94a4-a8c016997c30.jpg\"]","trial_type":"similarity","trial_index":119,"time_elapsed":693440,"internal_node_id":"0.0-6.0-113.0"},{"sim_score":2,"rt":3849,"stimulus":"[\"img/0860/99c589b9-9140-4d17-90c0-b344323edcda.jpg\",\"img/0899/66ab3178-c3fe-4455-ad17-d5952b08e018.jpg\"]","trial_type":"similarity","trial_index":120,"time_elapsed":698333,"internal_node_id":"0.0-6.0-114.0"},{"sim_score":6,"rt":4309,"stimulus":"[\"img/0881/b549bc99-a61c-4450-bab5-9efc3a197bf0.jpg\",\"img/0903/45e2d600-57ff-4d69-b22c-0c7896cd38f0.jpg\"]","trial_type":"similarity","trial_index":121,"time_elapsed":703690,"internal_node_id":"0.0-6.0-115.0"},{"sim_score":4,"rt":5663,"stimulus":"[\"img/0894/151063aa-6472-4745-837b-36603aba5966.jpg\",\"img/0874/99f6563c-8a8d-4c1c-a41d-667b618c3fd5.jpg\"]","trial_type":"similarity","trial_index":122,"time_elapsed":710379,"internal_node_id":"0.0-6.0-116.0"},{"sim_score":5,"rt":6979,"stimulus":"[\"img/0881/0c7068da-d0d9-4103-bda1-74ef7a2b32c3.jpg\",\"img/0862/ba89835a-408c-480b-8594-ed4ffa97eb5c.jpg\"]","trial_type":"similarity","trial_index":123,"time_elapsed":718387,"internal_node_id":"0.0-6.0-117.0"},{"sim_score":2,"rt":3681,"stimulus":"[\"img/0868/d6d1f30d-4323-435a-b194-7892521bc57e.jpg\",\"img/0875/34132396-d896-4c2d-8087-646dd867e769.jpg\"]","trial_type":"similarity","trial_index":124,"time_elapsed":723108,"internal_node_id":"0.0-6.0-118.0"},{"sim_score":6,"rt":5564,"stimulus":"[\"img/0860/5383b320-1518-4095-a58e-5cc1ae30b64c.jpg\",\"img/0758/eabcd7a8-56ad-4fd2-bc24-90f6b7b33265.jpg\"]","trial_type":"similarity","trial_index":125,"time_elapsed":729699,"internal_node_id":"0.0-6.0-119.0"},{"sim_score":6,"rt":5049,"stimulus":"[\"img/0864/1ebbc554-99fa-49f9-8799-317375a79820.jpg\",\"img/0875/d59ff733-eaff-4ee2-9443-06954dd0bcb6.jpg\"]","trial_type":"similarity","trial_index":126,"time_elapsed":735785,"internal_node_id":"0.0-6.0-120.0"},{"sim_score":2,"rt":3645,"stimulus":"[\"img/0898/01bfe666-3510-4fc7-964f-d00d28732dc8.jpg\",\"img/0866/a04d37f0-99dd-478a-b6c6-58b215138f84.jpg\"]","trial_type":"similarity","trial_index":127,"time_elapsed":740465,"internal_node_id":"0.0-6.0-121.0"},{"sim_score":2,"rt":4862,"stimulus":"[\"img/0874/a82926a3-0b43-4add-803c-d5f9ea7798ee.jpg\",\"img/0904/56e73f28-7e64-489b-a161-e6b1a063878d.jpg\"]","trial_type":"similarity","trial_index":128,"time_elapsed":746363,"internal_node_id":"0.0-6.0-122.0"},{"sim_score":6,"rt":4379,"stimulus":"[\"img/0904/ba8e689e-9ca6-4608-a2a1-3b0940666ae6.jpg\",\"img/0864/300bb811-8b3c-4c42-8653-6097c3725197.jpg\"]","trial_type":"similarity","trial_index":129,"time_elapsed":751777,"internal_node_id":"0.0-6.0-123.0"},{"sim_score":2,"rt":4545,"stimulus":"[\"img/0894/4739e06d-c31e-4bf1-bf91-c97fa9afb456.jpg\",\"img/0902/94198618-7047-4dc9-ad04-85f4ba913067.jpg\"]","trial_type":"similarity","trial_index":130,"time_elapsed":757354,"internal_node_id":"0.0-6.0-124.0"},{"sim_score":2,"rt":3694,"stimulus":"[\"img/0868/3a62db2d-97e9-44a3-b8e3-a48c6f0e423b.jpg\",\"img/0864/9b2490c5-a282-400a-9736-e1a0ecbf1cb7.jpg\"]","trial_type":"similarity","trial_index":131,"time_elapsed":771448,"internal_node_id":"0.0-6.0-125.0"},{"sim_score":1,"rt":3298,"stimulus":"[\"img/0899/0433d056-aa30-4f8a-9aa1-abbb951e4edd.jpg\",\"img/0866/02f5e6b9-52b7-448c-9708-5b460d0c9a23.jpg\"]","trial_type":"similarity","trial_index":132,"time_elapsed":775794,"internal_node_id":"0.0-6.0-126.0"},{"sim_score":6,"rt":2749,"stimulus":"[\"img/0875/03c3c331-738b-4446-af92-3d7386b08c2e.jpg\",\"img/0904/696ebb60-8891-417a-91fd-c53218907a95.jpg\"]","trial_type":"similarity","trial_index":133,"time_elapsed":779566,"internal_node_id":"0.0-6.0-127.0"},{"sim_score":6,"rt":3129,"stimulus":"[\"img/0867/26611f4e-d694-4460-b7e2-43c62753ddc3.jpg\",\"img/0899/00715b3f-851b-420b-a26b-d7f79f7759a9.jpg\"]","trial_type":"similarity","trial_index":134,"time_elapsed":783738,"internal_node_id":"0.0-6.0-128.0"},{"sim_score":1,"rt":2497,"stimulus":"[\"img/0901/12da1841-e611-435c-9719-109413d536a8.jpg\",\"img/0867/1719a35d-f085-48c0-9099-16c94fe418b4.jpg\"]","trial_type":"similarity","trial_index":135,"time_elapsed":787270,"internal_node_id":"0.0-6.0-129.0"},{"sim_score":2,"rt":4780,"stimulus":"[\"img/0864/afcba0a3-7e27-4757-b254-e9f05fad27e2.jpg\",\"img/0769/b664b502-a86c-46c1-ad6f-5ebffc2e1bd3.jpg\"]","trial_type":"similarity","trial_index":136,"time_elapsed":793082,"internal_node_id":"0.0-6.0-130.0"},{"sim_score":3,"rt":5707,"stimulus":"[\"img/0903/07b445ee-0cdb-4d2c-a23b-d727613f4059.jpg\",\"img/0868/4bd5105a-d2c3-4f82-8c80-57196106ba53.jpg\"]","trial_type":"similarity","trial_index":137,"time_elapsed":799824,"internal_node_id":"0.0-6.0-131.0"},{"sim_score":1,"rt":3513,"stimulus":"[\"img/0864/ef9cbca0-4be8-435d-ad49-977259e80409.jpg\",\"img/0867/ac1797e4-8afc-48fe-b252-86d1defb1cca.jpg\"]","trial_type":"similarity","trial_index":138,"time_elapsed":804369,"internal_node_id":"0.0-6.0-132.0"},{"sim_score":7,"rt":3903,"stimulus":"[\"img/0901/693e0535-ef7e-4d60-af9d-fac2f38e8307.jpg\",\"img/0860/e8b8c51e-1834-4875-8b61-6c5bc9b178bd.jpg\"]","trial_type":"similarity","trial_index":139,"time_elapsed":809299,"internal_node_id":"0.0-6.0-133.0"},{"sim_score":4,"rt":4770,"stimulus":"[\"img/0881/292e9b4b-fca0-4ba8-87f1-4048f9e37b7d.jpg\",\"img/0766/5d6e0d1d-4369-41f0-a64c-91f3503055c7.jpg\"]","trial_type":"similarity","trial_index":140,"time_elapsed":815111,"internal_node_id":"0.0-6.0-134.0"},{"sim_score":5,"rt":5304,"stimulus":"[\"img/0903/6138142e-c84e-45fc-9487-c974f3d4968a.jpg\",\"img/0864/5f74a653-3bdc-4308-8cca-ac667dc22e1f.jpg\"]","trial_type":"similarity","trial_index":141,"time_elapsed":821464,"internal_node_id":"0.0-6.0-135.0"},{"sim_score":4,"rt":3090,"stimulus":"[\"img/0758/335851a0-a55b-46d8-ab05-8463eda48349.jpg\",\"img/0894/e5edf723-72a5-4673-8441-6c1734a8929b.jpg\"]","trial_type":"similarity","trial_index":142,"time_elapsed":825603,"internal_node_id":"0.0-6.0-136.0"},{"sim_score":1,"rt":3788,"stimulus":"[\"img/0769/688d0c52-ad73-4065-a5eb-f8c10d076bff.jpg\",\"img/0860/f44ba3fb-03a2-42f0-8509-2c1ded493086.jpg\"]","trial_type":"similarity","trial_index":143,"time_elapsed":830431,"internal_node_id":"0.0-6.0-137.0"},{"sim_score":6,"rt":4124,"stimulus":"[\"img/0904/06dacdc5-2206-4fb8-92b7-88042d22833c.jpg\",\"img/0766/2da002a4-05c9-4f5c-9ed7-433b4183e273.jpg\"]","trial_type":"similarity","trial_index":144,"time_elapsed":835587,"internal_node_id":"0.0-6.0-138.0"},{"sim_score":1,"rt":3139,"stimulus":"[\"img/0868/83b4350a-3b70-4cea-b7f5-b5b56f3050a8.jpg\",\"img/0860/29a21a9f-54bb-4093-ad3f-04823ceaa89f.jpg\"]","trial_type":"similarity","trial_index":145,"time_elapsed":839751,"internal_node_id":"0.0-6.0-139.0"},{"sim_score":6,"rt":5143,"stimulus":"[\"img/0758/9fb5b2fe-3f00-4fe6-973c-1ce10d5f4cd5.jpg\",\"img/0864/3651d070-2fc5-4848-b6a6-088a2d9ac5c9.jpg\"]","trial_type":"similarity","trial_index":146,"time_elapsed":845907,"internal_node_id":"0.0-6.0-140.0"},{"sim_score":7,"rt":4312,"stimulus":"[\"img/0867/2e1a0b58-cdb1-4107-a14e-452530d7b9b0.jpg\",\"img/0867/8ba0c5a7-c7e4-42cf-a80a-543763b90779.jpg\"]","trial_type":"similarity","trial_index":147,"time_elapsed":851251,"internal_node_id":"0.0-6.0-141.0"},{"sim_score":7,"rt":3745,"stimulus":"[\"img/0898/cd3aaa3f-efa9-4ab3-8d6f-a6a9273ddf42.jpg\",\"img/0898/4184e5a2-84ea-4f36-9b42-ae58646f6f87.jpg\"]","trial_type":"similarity","trial_index":148,"time_elapsed":856038,"internal_node_id":"0.0-6.0-142.0"},{"sim_score":6,"rt":4360,"stimulus":"[\"img/0866/d493a2c8-66eb-44b4-be02-2f327b700b7c.jpg\",\"img/0769/662ab839-88d1-4ebf-af05-9b2980cad943.jpg\"]","trial_type":"similarity","trial_index":149,"time_elapsed":861422,"internal_node_id":"0.0-6.0-143.0"},{"sim_score":6,"rt":3415,"stimulus":"[\"img/0860/18dfed73-e36b-4487-a8bd-0b8cff8e3668.jpg\",\"img/0898/993d8f2d-bef7-4251-a193-0f93a32b7763.jpg\"]","trial_type":"similarity","trial_index":150,"time_elapsed":865875,"internal_node_id":"0.0-6.0-144.0"},{"sim_score":2,"rt":3773,"stimulus":"[\"img/0766/1bc0dccc-a5b5-4375-87fa-28360ca42b12.jpg\",\"img/0864/c3b63e8f-ea39-4d70-a1f2-b3fe4be8eb75.jpg\"]","trial_type":"similarity","trial_index":151,"time_elapsed":870694,"internal_node_id":"0.0-6.0-145.0"},{"sim_score":6,"rt":3378,"stimulus":"[\"img/0860/94ef7afc-e0e6-4a15-98c6-0bfac82bc832.jpg\",\"img/0903/5c6b1f57-b3a2-40f5-9fb1-82785e24b6a0.jpg\"]","trial_type":"similarity","trial_index":152,"time_elapsed":875102,"internal_node_id":"0.0-6.0-146.0"},{"sim_score":5,"rt":3881,"stimulus":"[\"img/0867/a749dddb-69f0-44a6-acdc-2bf295cf6dcc.jpg\",\"img/0764/e30dba15-e68a-4659-89db-e1654b52fe02.jpg\"]","trial_type":"similarity","trial_index":153,"time_elapsed":880022,"internal_node_id":"0.0-6.0-147.0"},{"sim_score":7,"rt":4835,"stimulus":"[\"img/0769/9ea9ceb6-049e-4ad9-be8f-00645cd35803.jpg\",\"img/0904/96e503ea-6630-4996-85f2-0237688ce441.jpg\"]","trial_type":"similarity","trial_index":154,"time_elapsed":885890,"internal_node_id":"0.0-6.0-148.0"},{"sim_score":1,"rt":3712,"stimulus":"[\"img/0764/713cc27e-2338-4486-bfe9-5f5725fbd7a0.jpg\",\"img/0901/d61f267a-c492-4db6-9bfb-61efd49cf072.jpg\"]","trial_type":"similarity","trial_index":155,"time_elapsed":890632,"internal_node_id":"0.0-6.0-149.0"},{"sim_score":2,"rt":5215,"stimulus":"[\"img/0904/63dd06dd-dccb-47ba-9740-eb33239e18a7.jpg\",\"img/0899/8abe6c69-822c-436c-9bf2-96c818b49ba5.jpg\"]","trial_type":"similarity","trial_index":156,"time_elapsed":896893,"internal_node_id":"0.0-6.0-150.0"},{"sim_score":1,"rt":3284,"stimulus":"[\"img/0862/eefa5588-9efd-4591-aa5f-a2e17c7d7bcc.jpg\",\"img/0867/f26f6b60-f772-4f4c-95a4-addc62cfd692.jpg\"]","trial_type":"similarity","trial_index":157,"time_elapsed":901217,"internal_node_id":"0.0-6.0-151.0"},{"sim_score":7,"rt":7172,"stimulus":"[\"img/0766/2e1cf445-9aef-40e7-92f4-5facf48b64c5.jpg\",\"img/0766/ea09dd5a-d24d-4e97-a099-7da3db1baef1.jpg\"]","trial_type":"similarity","trial_index":158,"time_elapsed":909427,"internal_node_id":"0.0-6.0-152.0"},{"sim_score":2,"rt":4139,"stimulus":"[\"img/0862/99a99e39-8355-44ec-b993-e7bcec111e1c.jpg\",\"img/0894/1a010553-d598-4b06-a772-81f1e7b3addb.jpg\"]","trial_type":"similarity","trial_index":159,"time_elapsed":914599,"internal_node_id":"0.0-6.0-153.0"},{"sim_score":1,"rt":3803,"stimulus":"[\"img/0899/8de08897-b430-42fe-9d42-840670b80f94.jpg\",\"img/0901/1b86f2fc-7a1d-4aa8-9252-114f92edef3b.jpg\"]","trial_type":"similarity","trial_index":160,"time_elapsed":919427,"internal_node_id":"0.0-6.0-154.0"},{"sim_score":7,"rt":5586,"stimulus":"[\"img/0874/8cdb1c07-1c32-46d2-981c-3636560fa6e5.jpg\",\"img/0874/7e4f2150-3b59-4a36-b5da-a4e0ba410531.jpg\"]","trial_type":"similarity","trial_index":161,"time_elapsed":926045,"internal_node_id":"0.0-6.0-155.0"},{"sim_score":1,"rt":2353,"stimulus":"[\"img/0860/9593362c-9fe5-4d12-9735-6000a11f6aa5.jpg\",\"img/0867/50a1b60e-3a29-44bf-b606-d4bd3746fea9.jpg\"]","trial_type":"similarity","trial_index":162,"time_elapsed":929427,"internal_node_id":"0.0-6.0-156.0"},{"sim_score":2,"rt":3414,"stimulus":"[\"img/0901/50e1d53e-a49f-4806-8610-be6dec5a2475.jpg\",\"img/0881/6b1189e6-232d-4042-8885-16dc7b10e0d4.jpg\"]","trial_type":"similarity","trial_index":163,"time_elapsed":933873,"internal_node_id":"0.0-6.0-157.0"},{"sim_score":7,"rt":4523,"stimulus":"[\"img/0903/776b74ee-a8ab-4ab8-a78d-097c0747538d.jpg\",\"img/0902/f3cfec34-482c-4bdb-9c92-19ea6cfce183.jpg\"]","trial_type":"similarity","trial_index":164,"time_elapsed":939427,"internal_node_id":"0.0-6.0-158.0"},{"sim_score":2,"rt":3748,"stimulus":"[\"img/0860/5bff793e-cbd5-4d7e-b628-0ac2b0e30b64.jpg\",\"img/0764/438c0217-036f-43c9-9b87-f43144e46011.jpg\"]","trial_type":"similarity","trial_index":165,"time_elapsed":944206,"internal_node_id":"0.0-6.0-159.0"},{"sim_score":5,"rt":4529,"stimulus":"[\"img/0902/1a120fb9-dbd6-443e-ba91-b4aceab963da.jpg\",\"img/0875/90da8d75-108a-44ad-b999-e21fee3860d3.jpg\"]","trial_type":"similarity","trial_index":166,"time_elapsed":949762,"internal_node_id":"0.0-6.0-160.0"},{"sim_score":6,"rt":3655,"stimulus":"[\"img/0898/224c1572-56b9-4f16-a9e4-6f3bc9c114bd.jpg\",\"img/0862/f23038d4-c366-4f70-979f-66b62362efa4.jpg\"]","trial_type":"similarity","trial_index":167,"time_elapsed":954456,"internal_node_id":"0.0-6.0-161.0"},{"sim_score":2,"rt":3381,"stimulus":"[\"img/0894/2217bdcd-23a7-42d3-823b-23f2488d7e87.jpg\",\"img/0875/5a1e5100-0d94-4fec-bbe9-ca9894d2cf8e.jpg\"]","trial_type":"similarity","trial_index":168,"time_elapsed":958878,"internal_node_id":"0.0-6.0-162.0"},{"sim_score":3,"rt":3873,"stimulus":"[\"img/0866/386235d2-6857-41e7-88a8-25cfc3430025.jpg\",\"img/0864/b3c4e378-28f0-4699-9338-2a257b4bca04.jpg\"]","trial_type":"similarity","trial_index":169,"time_elapsed":963784,"internal_node_id":"0.0-6.0-163.0"},{"sim_score":2,"rt":3975,"stimulus":"[\"img/0766/717fd72f-a281-499b-a5ba-5e2ecc4d4866.jpg\",\"img/0862/1c20f772-3a51-4a80-aac0-f57dc9f86c28.jpg\"]","trial_type":"similarity","trial_index":170,"time_elapsed":968784,"internal_node_id":"0.0-6.0-164.0"},{"sim_score":3,"rt":4467,"stimulus":"[\"img/0866/8efcaa46-83ab-4dee-a35f-850402aa21ae.jpg\",\"img/0874/ca76a855-4e77-4f2f-872a-0a718153e7ed.jpg\"]","trial_type":"similarity","trial_index":171,"time_elapsed":974284,"internal_node_id":"0.0-6.0-165.0"},{"sim_score":6,"rt":3633,"stimulus":"[\"img/0862/24cdc752-c2e5-4a17-86a6-6f2045d8553b.jpg\",\"img/0860/87039971-2210-4aab-93c0-8e9b5f1655b2.jpg\"]","trial_type":"similarity","trial_index":172,"time_elapsed":978956,"internal_node_id":"0.0-6.0-166.0"},{"sim_score":2,"rt":4460,"stimulus":"[\"img/0766/f3276cc4-65de-4c2d-88d5-6cfebce14b8f.jpg\",\"img/0901/5b97abf9-f0c8-4fd1-b921-36d574779078.jpg\"]","trial_type":"similarity","trial_index":173,"time_elapsed":996038,"internal_node_id":"0.0-6.0-167.0"},{"sim_score":7,"rt":3048,"stimulus":"[\"img/0862/064818ee-13d5-4618-bb24-21c7368ea278.jpg\",\"img/0862/cdaed51d-9e2f-4807-801a-4663c40077e2.jpg\"]","trial_type":"similarity","trial_index":174,"time_elapsed":1000134,"internal_node_id":"0.0-6.0-168.0"},{"sim_score":5,"rt":3195,"stimulus":"[\"img/0894/11674fa4-285d-44e2-939f-2228c6a64080.jpg\",\"img/0764/e42c1dc9-7831-4995-be19-7ca7b4d141fc.jpg\"]","trial_type":"similarity","trial_index":175,"time_elapsed":1004367,"internal_node_id":"0.0-6.0-169.0"},{"sim_score":4,"rt":3240,"stimulus":"[\"img/0874/995f0332-0439-4eb4-add3-957335dbf6d9.jpg\",\"img/0898/f3a3f225-1248-4ac7-b93b-f0ff28485bf3.jpg\"]","trial_type":"similarity","trial_index":176,"time_elapsed":1008639,"internal_node_id":"0.0-6.0-170.0"},{"sim_score":2,"rt":3207,"stimulus":"[\"img/0860/e14d67c1-6d92-4f1e-9257-c8607159c19c.jpg\",\"img/0766/a1ed3f0f-e338-4a26-8fe4-4370f0c9fa6e.jpg\"]","trial_type":"similarity","trial_index":177,"time_elapsed":1012881,"internal_node_id":"0.0-6.0-171.0"},{"sim_score":6,"rt":4520,"stimulus":"[\"img/0898/b3290bf9-215b-4b45-b21a-65bdf73f142f.jpg\",\"img/0864/3d4de670-b290-4285-9c3d-12a0e3af44e9.jpg\"]","trial_type":"similarity","trial_index":178,"time_elapsed":1018437,"internal_node_id":"0.0-6.0-172.0"},{"sim_score":3,"rt":4872,"stimulus":"[\"img/0881/b1a136f7-8511-4d3a-a0f6-3879acf1e1a1.jpg\",\"img/0764/3297a811-ea8b-4d74-9547-59cecab7293a.jpg\"]","trial_type":"similarity","trial_index":179,"time_elapsed":1024343,"internal_node_id":"0.0-6.0-173.0"},{"sim_score":3,"rt":3134,"stimulus":"[\"img/0898/a114b375-cb89-44ba-9498-74213f1ecdee.jpg\",\"img/0868/5fa7f9d0-f0e5-454c-8224-74d964818f56.jpg\"]","trial_type":"similarity","trial_index":180,"time_elapsed":1028515,"internal_node_id":"0.0-6.0-174.0"},{"sim_score":7,"rt":4176,"stimulus":"[\"img/0864/1d15626a-2f7c-410f-819c-0fa2c967e95e.jpg\",\"img/0864/5f33e097-23e3-4002-882d-76e8cb15f451.jpg\"]","trial_type":"similarity","trial_index":181,"time_elapsed":1033725,"internal_node_id":"0.0-6.0-175.0"},{"sim_score":2,"rt":5475,"stimulus":"[\"img/0899/25ae6ec8-9565-49fe-a8bb-8d0666f52716.jpg\",\"img/0862/f43ceabf-acc1-4107-b857-5d1849808f93.jpg\"]","trial_type":"similarity","trial_index":182,"time_elapsed":1040233,"internal_node_id":"0.0-6.0-176.0"},{"sim_score":6,"rt":4224,"stimulus":"[\"img/0875/fb732ab5-013a-4366-9f65-27811ed157e9.jpg\",\"img/0758/6e95579b-5166-487c-b8cb-e417c6a218e3.jpg\"]","trial_type":"similarity","trial_index":183,"time_elapsed":1045491,"internal_node_id":"0.0-6.0-177.0"},{"sim_score":1,"rt":4743,"stimulus":"[\"img/0866/4a87911a-d5be-4d4e-ab8e-3d1f581bf507.jpg\",\"img/0901/875dedb9-24c9-4443-9f8c-85e97d70ee5a.jpg\"]","trial_type":"similarity","trial_index":184,"time_elapsed":1051263,"internal_node_id":"0.0-6.0-178.0"},{"sim_score":4,"rt":4574,"stimulus":"[\"img/0769/14d393ce-e5be-4ca1-86ce-cc27d4b6074c.jpg\",\"img/0874/c0378dac-9370-439a-8b79-db27c96fb390.jpg\"]","trial_type":"similarity","trial_index":185,"time_elapsed":1056864,"internal_node_id":"0.0-6.0-179.0"},{"sim_score":6,"rt":7495,"stimulus":"[\"img/0875/ebf7653f-ff45-4e9f-af58-2c042ab3cd2b.jpg\",\"img/0881/20af39f5-373d-4a55-a437-2dc4c0382c46.jpg\"]","trial_type":"similarity","trial_index":186,"time_elapsed":1065388,"internal_node_id":"0.0-6.0-180.0"},{"sim_score":7,"rt":4094,"stimulus":"[\"img/0866/f756f7d1-9ad8-4a34-9ef6-7a443d705bfe.jpg\",\"img/0868/293079b8-7e0c-4afd-a390-1e5d35fe3ded.jpg\"]","trial_type":"similarity","trial_index":187,"time_elapsed":1070520,"internal_node_id":"0.0-6.0-181.0"},{"sim_score":2,"rt":4228,"stimulus":"[\"img/0899/ad8268c5-8199-48d0-ad70-c5b6d6c599ec.jpg\",\"img/0758/d57c2592-a317-4f63-91be-91a3a9afd222.jpg\"]","trial_type":"similarity","trial_index":188,"time_elapsed":1075786,"internal_node_id":"0.0-6.0-182.0"},{"sim_score":6,"rt":4319,"stimulus":"[\"img/0874/3ce41e7c-40c8-4d58-a546-171114521796.jpg\",\"img/0875/a4935837-7d3c-4df6-88c1-36a94d4991ca.jpg\"]","trial_type":"similarity","trial_index":189,"time_elapsed":1081138,"internal_node_id":"0.0-6.0-183.0"},{"sim_score":6,"rt":7277,"stimulus":"[\"img/0904/2c98dc56-88d1-4fb5-a999-b6a7861f65f0.jpg\",\"img/0862/e0f1a4e9-e1b6-45f7-af67-89f334e6630d.jpg\"]","trial_type":"similarity","trial_index":190,"time_elapsed":1089459,"internal_node_id":"0.0-6.0-184.0"},{"sim_score":2,"rt":3713,"stimulus":"[\"img/0902/cdec1bc6-7f90-4f72-9e01-f5a4111bac1d.jpg\",\"img/0766/a0270213-fa0e-4972-8b56-228c3e01ff90.jpg\"]","trial_type":"similarity","trial_index":191,"time_elapsed":1094209,"internal_node_id":"0.0-6.0-185.0"},{"sim_score":2,"rt":4229,"stimulus":"[\"img/0758/ddc336e9-a8b6-4bb9-937a-c7e25e0e9250.jpg\",\"img/0769/f229321f-04dd-42d7-b14a-ffad6b509862.jpg\"]","trial_type":"similarity","trial_index":192,"time_elapsed":1099471,"internal_node_id":"0.0-6.0-186.0"},{"sim_score":7,"rt":5379,"stimulus":"[\"img/0881/33d65d80-8a8e-4ecf-852d-0ad7725c17a2.jpg\",\"img/0881/609a5e93-38b5-4940-8627-2bf8fad7f802.jpg\"]","trial_type":"similarity","trial_index":193,"time_elapsed":1105889,"internal_node_id":"0.0-6.0-187.0"},{"sim_score":1,"rt":3085,"stimulus":"[\"img/0758/e1ba5e53-addc-436a-b428-d34fc1b130dc.jpg\",\"img/0866/a15b02be-11bb-43e3-b0e0-ecc3bd7dfc49.jpg\"]","trial_type":"similarity","trial_index":194,"time_elapsed":1110007,"internal_node_id":"0.0-6.0-188.0"},{"sim_score":5,"rt":4558,"stimulus":"[\"img/0764/f990b2e8-ecee-481e-be7c-0239fce350e2.jpg\",\"img/0898/a8f16b02-e19f-423b-86c3-a36562ae1f9b.jpg\"]","trial_type":"similarity","trial_index":195,"time_elapsed":1115599,"internal_node_id":"0.0-6.0-189.0"},{"sim_score":2,"rt":3226,"stimulus":"[\"img/0903/005ad0de-4f52-433c-b515-dbe8d46184a3.jpg\",\"img/0901/7d4a3388-488d-4e9b-9d32-9d0def7aae8d.jpg\"]","trial_type":"similarity","trial_index":196,"time_elapsed":1119865,"internal_node_id":"0.0-6.0-190.0"},{"sim_score":5,"rt":5184,"stimulus":"[\"img/0902/6c2c243a-f663-45db-baf5-038d3d58c589.jpg\",\"img/0898/04e39a7a-fcf6-4156-ab0e-f5871f335e1c.jpg\"]","trial_type":"similarity","trial_index":197,"time_elapsed":1126069,"internal_node_id":"0.0-6.0-191.0"},{"sim_score":2,"rt":4662,"stimulus":"[\"img/0864/e336a4c5-6648-4fd7-b2f6-93a3fb83f8c6.jpg\",\"img/0901/0f670aef-ac36-496d-8142-ee5fdb21dd82.jpg\"]","trial_type":"similarity","trial_index":198,"time_elapsed":1131771,"internal_node_id":"0.0-6.0-192.0"},{"sim_score":4,"rt":3124,"stimulus":"[\"img/0894/3adef67d-7676-4995-80b2-bb31b8aca3ef.jpg\",\"img/0881/e6746727-7f89-47ec-b939-d98abe78372d.jpg\"]","trial_type":"similarity","trial_index":199,"time_elapsed":1135926,"internal_node_id":"0.0-6.0-193.0"},{"sim_score":7,"rt":2843,"stimulus":"[\"img/0868/77091fc7-a590-4ebb-b915-fdb2483a2399.jpg\",\"img/0868/6a28c3b0-3d76-498a-9fb7-ddafc665eca8.jpg\"]","trial_type":"similarity","trial_index":200,"time_elapsed":1139810,"internal_node_id":"0.0-6.0-194.0"},{"sim_score":5,"rt":6521,"stimulus":"[\"img/0899/9de5e857-aa9a-4e0c-8ba2-46d79bd069a4.jpg\",\"img/0764/06ea144f-f4f3-4a14-ba47-f20f35c561e0.jpg\"]","trial_type":"similarity","trial_index":201,"time_elapsed":1147357,"internal_node_id":"0.0-6.0-195.0"},{"sim_score":2,"rt":4220,"stimulus":"[\"img/0881/adc02f34-ce97-4aef-850f-00519df06fd7.jpg\",\"img/0904/9dd5708f-3f8b-46a9-b49f-2f2fab87b357.jpg\"]","trial_type":"similarity","trial_index":202,"time_elapsed":1152606,"internal_node_id":"0.0-6.0-196.0"},{"sim_score":5,"rt":3774,"stimulus":"[\"img/0864/65210d57-1153-4657-886a-32e758f49b4a.jpg\",\"img/0902/2a7ac123-414a-476a-9a96-4757b924baef.jpg\"]","trial_type":"similarity","trial_index":203,"time_elapsed":1157418,"internal_node_id":"0.0-6.0-197.0"},{"sim_score":6,"rt":7610,"stimulus":"[\"img/0894/10f22b96-040c-44f4-950b-a4963f3f506c.jpg\",\"img/0904/1d10df11-b5c8-4370-9a6b-097a7f965895.jpg\"]","trial_type":"similarity","trial_index":204,"time_elapsed":1166074,"internal_node_id":"0.0-6.0-198.0"},{"sim_score":7,"rt":4186,"stimulus":"[\"img/0901/548d1110-7cb8-42a2-9927-9798875c8b5c.jpg\",\"img/0901/bc47e078-bda4-40ed-b89a-bbd819164b95.jpg\"]","trial_type":"similarity","trial_index":205,"time_elapsed":1171296,"internal_node_id":"0.0-6.0-199.0"},{"sim_score":1,"rt":2671,"stimulus":"[\"img/0894/5a49e858-2850-4892-9a06-e9f0efb5f94d.jpg\",\"img/0860/4f695df5-afac-4da7-9875-fee39b0b24ad.jpg\"]","trial_type":"similarity","trial_index":206,"time_elapsed":1175004,"internal_node_id":"0.0-6.0-200.0"},{"sim_score":7,"rt":4020,"stimulus":"[\"img/0898/c3cecf20-f7fd-45fa-97d0-dc0a63e8d6c0.jpg\",\"img/0903/12bd8657-92e6-4c36-a06c-597e7a1d51f3.jpg\"]","trial_type":"similarity","trial_index":207,"time_elapsed":1180066,"internal_node_id":"0.0-6.0-201.0"},{"sim_score":1,"rt":3465,"stimulus":"[\"img/0864/ea327690-500b-4137-bf91-451b309fe6a5.jpg\",\"img/0894/767a0eec-1064-46b1-b1aa-dfa02b0cd74e.jpg\"]","trial_type":"similarity","trial_index":208,"time_elapsed":1184565,"internal_node_id":"0.0-6.0-202.0"},{"sim_score":5,"rt":5155,"stimulus":"[\"img/0874/ca23d307-fc00-4d7d-9106-584c6eb21b4d.jpg\",\"img/0860/c3379ff7-0763-48fe-a1ec-7ea3d611bc7a.jpg\"]","trial_type":"similarity","trial_index":209,"time_elapsed":1190762,"internal_node_id":"0.0-6.0-203.0"},{"sim_score":5,"rt":4618,"stimulus":"[\"img/0862/00c06b00-3b73-44e9-bc1e-c5aafb438321.jpg\",\"img/0875/cff79b3a-a797-4393-9757-6275f999ec04.jpg\"]","trial_type":"similarity","trial_index":210,"time_elapsed":1196418,"internal_node_id":"0.0-6.0-204.0"},{"sim_score":2,"rt":5118,"stimulus":"[\"img/0867/7d1c497b-c1b3-4ed8-abb5-d7f73306015f.jpg\",\"img/0881/14236cf2-6b95-48b8-9368-78af09d2d27f.jpg\"]","trial_type":"similarity","trial_index":211,"time_elapsed":1202581,"internal_node_id":"0.0-6.0-205.0"},{"sim_score":5,"rt":6142,"stimulus":"[\"img/0901/168eb52c-c415-43f1-b5c8-e76e1a1ec247.jpg\",\"img/0902/82d20e8c-2162-47a6-925b-52906558c046.jpg\"]","trial_type":"similarity","trial_index":212,"time_elapsed":1209767,"internal_node_id":"0.0-6.0-206.0"},{"sim_score":2,"rt":4576,"stimulus":"[\"img/0899/06b0fc99-0581-461a-9913-d1a5a941ac61.jpg\",\"img/0864/0f537697-a314-47c3-a8cc-8df23b7e536c.jpg\"]","trial_type":"similarity","trial_index":213,"time_elapsed":1215377,"internal_node_id":"0.0-6.0-207.0"},{"sim_score":2,"rt":7951,"stimulus":"[\"img/0901/31c032fd-3c3d-4882-a226-da9a80198937.jpg\",\"img/0769/48a1144d-fbda-4809-991b-fc8424a32ee4.jpg\"]","trial_type":"similarity","trial_index":214,"time_elapsed":1224353,"internal_node_id":"0.0-6.0-208.0"},{"sim_score":7,"rt":4871,"stimulus":"[\"img/0902/b03fee99-d5ca-4bf8-871c-a4a743a39842.jpg\",\"img/0902/168ebd47-9e82-4ab7-a18b-c3da85072db8.jpg\"]","trial_type":"similarity","trial_index":215,"time_elapsed":1239842,"internal_node_id":"0.0-6.0-209.0"},{"view_history":"[{\"page_index\":0,\"viewing_time\":7760}]","rt":7761,"trial_type":"instructions","trial_index":216,"time_elapsed":1248618,"internal_node_id":"0.0-7.0"},{"rt":9886,"responses":"{\"Q0\":\"Orange-crowned Warbler\"}","answer":["Nashville Warbler"],"trial_type":"image-multi-choice","trial_index":217,"time_elapsed":1259560,"internal_node_id":"0.0-8.0-0.0"},{"rt":5047,"responses":"{\"Q0\":\"Black-and-white Warbler\"}","answer":["Black-and-white Warbler"],"trial_type":"image-multi-choice","trial_index":218,"time_elapsed":1265675,"internal_node_id":"0.0-8.0-1.0"},{"rt":22299,"responses":"{\"Q0\":\"Magnolia Warbler\"}","answer":["Townsend's Warbler"],"trial_type":"image-multi-choice","trial_index":219,"time_elapsed":1289049,"internal_node_id":"0.0-8.0-2.0"},{"rt":3647,"responses":"{\"Q0\":\"Lark Sparrow\"}","answer":["Lark Sparrow"],"trial_type":"image-multi-choice","trial_index":220,"time_elapsed":1293768,"internal_node_id":"0.0-8.0-3.0"},{"rt":2701,"responses":"{\"Q0\":\"Yellow Warbler\"}","answer":["Yellow Warbler"],"trial_type":"image-multi-choice","trial_index":221,"time_elapsed":1297540,"internal_node_id":"0.0-8.0-4.0"},{"rt":7257,"responses":"{\"Q0\":\"Tennessee Warbler\"}","answer":["Orange-crowned Warbler"],"trial_type":"image-multi-choice","trial_index":222,"time_elapsed":1305890,"internal_node_id":"0.0-8.0-5.0"},{"rt":4866,"responses":"{\"Q0\":\"White-throated Sparrow\"}","answer":["White-throated Sparrow"],"trial_type":"image-multi-choice","trial_index":223,"time_elapsed":1311820,"internal_node_id":"0.0-8.0-6.0"},{"rt":8796,"responses":"{\"Q0\":\"Fox Sparrow\"}","answer":["Fox Sparrow"],"trial_type":"image-multi-choice","trial_index":224,"time_elapsed":1321712,"internal_node_id":"0.0-8.0-7.0"},{"rt":7524,"responses":"{\"Q0\":\"Lincoln's Sparrow\"}","answer":["Song Sparrow"],"trial_type":"image-multi-choice","trial_index":225,"time_elapsed":1330313,"internal_node_id":"0.0-8.0-8.0"},{"rt":6729,"responses":"{\"Q0\":\"Blackburnian Warbler\"}","answer":["Blackburnian Warbler"],"trial_type":"image-multi-choice","trial_index":226,"time_elapsed":1338125,"internal_node_id":"0.0-8.0-9.0"},{"rt":4283,"responses":"{\"Q0\":\"Vesper Sparrow\"}","answer":["Vesper Sparrow"],"trial_type":"image-multi-choice","trial_index":227,"time_elapsed":1343482,"internal_node_id":"0.0-8.0-10.0"},{"rt":3372,"responses":"{\"Q0\":\"White-crowned Sparrow\"}","answer":["White-crowned Sparrow"],"trial_type":"image-multi-choice","trial_index":228,"time_elapsed":1347936,"internal_node_id":"0.0-8.0-11.0"},{"rt":5825,"responses":"{\"Q0\":\"American Tree Sparrow\"}","answer":["American Tree Sparrow"],"trial_type":"image-multi-choice","trial_index":229,"time_elapsed":1354841,"internal_node_id":"0.0-8.0-12.0"},{"rt":16697,"responses":"{\"Q0\":\"Orange-crowned Warbler\"}","answer":["Tennessee Warbler"],"trial_type":"image-multi-choice","trial_index":230,"time_elapsed":1372607,"internal_node_id":"0.0-8.0-13.0"},{"rt":15890,"responses":"{\"Q0\":\"Townsend's Warbler\"}","answer":["Magnolia Warbler"],"trial_type":"image-multi-choice","trial_index":231,"time_elapsed":1389551,"internal_node_id":"0.0-8.0-14.0"},{"rt":5026,"responses":"{\"Q0\":\"Northern Waterthrush\"}","answer":["Northern Waterthrush"],"trial_type":"image-multi-choice","trial_index":232,"time_elapsed":1395651,"internal_node_id":"0.0-8.0-15.0"},{"rt":6762,"responses":"{\"Q0\":\"Chipping Sparrow\"}","answer":["Chipping Sparrow"],"trial_type":"image-multi-choice","trial_index":233,"time_elapsed":1403465,"internal_node_id":"0.0-8.0-16.0"},{"rt":17153,"responses":"{\"Q0\":\"Lincoln's Sparrow\"}","answer":["Swamp Sparrow"],"trial_type":"image-multi-choice","trial_index":234,"time_elapsed":1421686,"internal_node_id":"0.0-8.0-17.0"},{"rt":8366,"responses":"{\"Q0\":\"Lincoln's Sparrow\"}","answer":["Lincoln's Sparrow"],"trial_type":"image-multi-choice","trial_index":235,"time_elapsed":1431122,"internal_node_id":"0.0-8.0-18.0"},{"rt":4333,"responses":"{\"Q0\":\"Ovenbird\"}","answer":["Ovenbird"],"trial_type":"image-multi-choice","trial_index":236,"time_elapsed":1436520,"internal_node_id":"0.0-8.0-19.0"}]