[{"view_history":"[{\"page_index\":0,\"viewing_time\":17011}]","rt":17012,"trial_type":"instructions","trial_index":0,"time_elapsed":17013,"internal_node_id":"0.0-0.0"},{"sim_score":5,"rt":10815,"stimulus":"[\"img/866.jpg\",\"img/868.jpg\"]","trial_type":"similarity_demo","trial_index":1,"time_elapsed":28847,"internal_node_id":"0.0-1.0"},{"view_history":"[{\"page_index\":0,\"viewing_time\":17798}]","rt":17798,"trial_type":"instructions","trial_index":2,"time_elapsed":47655,"internal_node_id":"0.0-2.0"},{"sim_score":3,"rt":5502,"stimulus":"[\"img/766.jpg\",\"img/867.jpg\"]","trial_type":"similarity_demo","trial_index":3,"time_elapsed":54164,"internal_node_id":"0.0-3.0"},{"view_history":"[{\"page_index\":0,\"viewing_time\":10700}]","rt":10701,"trial_type":"instructions","trial_index":4,"time_elapsed":65879,"internal_node_id":"0.0-4.0"},{"view_history":"[{\"page_index\":0,\"viewing_time\":41917}]","rt":41918,"trial_type":"instructions","trial_index":5,"time_elapsed":108803,"internal_node_id":"0.0-5.0"},{"sim_score":1,"rt":6135,"stimulus":"[\"img/0868/179a5502-ab5c-478e-8263-5a1fbcc101d2.jpg\",\"img/0901/08d6d1d1-c043-43c4-bb08-d45e062822b9.jpg\"]","trial_type":"similarity","trial_index":6,"time_elapsed":115946,"internal_node_id":"0.0-6.0-0.0"},{"sim_score":3,"rt":8591,"stimulus":"[\"img/0769/8c7cf147-1780-4d5c-8ddf-5ea23ff03ac9.jpg\",\"img/0867/98d8cd96-1476-4fe0-a3a3-04f875500a1b.jpg\"]","trial_type":"similarity","trial_index":7,"time_elapsed":125546,"internal_node_id":"0.0-6.0-1.0"},{"sim_score":1,"rt":4808,"stimulus":"[\"img/0766/d5d38751-8fa5-476f-93e9-86ed2d9045ef.jpg\",\"img/0898/01bfe666-3510-4fc7-964f-d00d28732dc8.jpg\"]","trial_type":"similarity","trial_index":8,"time_elapsed":131366,"internal_node_id":"0.0-6.0-2.0"},{"sim_score":7,"rt":6360,"stimulus":"[\"img/0902/d1083f2c-5520-44ec-81a8-3f856fbf0e80.jpg\",\"img/0881/dea58fad-b4f1-41d9-bd3f-916eff19a3fd.jpg\"]","trial_type":"similarity","trial_index":9,"time_elapsed":138743,"internal_node_id":"0.0-6.0-3.0"},{"sim_score":7,"rt":4926,"stimulus":"[\"img/0894/7f2f31fd-6618-41c6-b65a-0fd8b2851bc9.jpg\",\"img/0894/492d2f29-d7b9-4422-8be8-47fd58bfaa8b.jpg\"]","trial_type":"similarity","trial_index":10,"time_elapsed":144680,"internal_node_id":"0.0-6.0-4.0"},{"sim_score":5,"rt":4940,"stimulus":"[\"img/0874/a82926a3-0b43-4add-803c-d5f9ea7798ee.jpg\",\"img/0899/ad8268c5-8199-48d0-ad70-c5b6d6c599ec.jpg\"]","trial_type":"similarity","trial_index":11,"time_elapsed":150634,"internal_node_id":"0.0-6.0-5.0"},{"sim_score":5,"rt":5604,"stimulus":"[\"img/0904/56e73f28-7e64-489b-a161-e6b1a063878d.jpg\",\"img/0764/8740679b-b56f-4292-aece-14063457113a.jpg\"]","trial_type":"similarity","trial_index":12,"time_elapsed":157241,"internal_node_id":"0.0-6.0-6.0"},{"sim_score":1,"rt":5136,"stimulus":"[\"img/0899/06b0fc99-0581-461a-9913-d1a5a941ac61.jpg\",\"img/0898/881e2a85-d5c2-49be-a0c6-8a6ce2c4af08.jpg\"]","trial_type":"similarity","trial_index":13,"time_elapsed":163400,"internal_node_id":"0.0-6.0-7.0"},{"sim_score":1,"rt":4260,"stimulus":"[\"img/0874/7e4f2150-3b59-4a36-b5da-a4e0ba410531.jpg\",\"img/0903/5c6b1f57-b3a2-40f5-9fb1-82785e24b6a0.jpg\"]","trial_type":"similarity","trial_index":14,"time_elapsed":168664,"internal_node_id":"0.0-6.0-8.0"},{"sim_score":7,"rt":5340,"stimulus":"[\"img/0881/6b1189e6-232d-4042-8885-16dc7b10e0d4.jpg\",\"img/0758/e38fd80d-18d0-42f3-b848-f930788e8bd7.jpg\"]","trial_type":"similarity","trial_index":15,"time_elapsed":175023,"internal_node_id":"0.0-6.0-9.0"},{"sim_score":3,"rt":7023,"stimulus":"[\"img/0898/08c72dac-f8ad-407a-9ce6-8c9a5d679c3a.jpg\",\"img/0901/0f670aef-ac36-496d-8142-ee5fdb21dd82.jpg\"]","trial_type":"similarity","trial_index":16,"time_elapsed":183061,"internal_node_id":"0.0-6.0-10.0"},{"sim_score":2,"rt":7626,"stimulus":"[\"img/0903/12bd8657-92e6-4c36-a06c-597e7a1d51f3.jpg\",\"img/0769/c7cfacc3-7f07-46ff-9f5d-8073f4c4679b.jpg\"]","trial_type":"similarity","trial_index":17,"time_elapsed":191696,"internal_node_id":"0.0-6.0-11.0"},{"sim_score":3,"rt":5940,"stimulus":"[\"img/0764/fb92924f-5cfe-4b89-b130-0cce8cc5636b.jpg\",\"img/0868/7b212364-ff5f-4e28-9241-7eb6ea00161b.jpg\"]","trial_type":"similarity","trial_index":18,"time_elapsed":198643,"internal_node_id":"0.0-6.0-12.0"},{"sim_score":1,"rt":4680,"stimulus":"[\"img/0867/c66898ba-b71b-4d50-84f9-f7f84853a98d.jpg\",\"img/0903/c3cb4a01-2797-43ca-b216-88c67b323fbb.jpg\"]","trial_type":"similarity","trial_index":19,"time_elapsed":204336,"internal_node_id":"0.0-6.0-13.0"},{"sim_score":5,"rt":5568,"stimulus":"[\"img/0766/27f54113-8561-4568-9ffe-0a1650ae65ec.jpg\",\"img/0758/a709631e-3705-4725-ac40-f0d916924f08.jpg\"]","trial_type":"similarity","trial_index":20,"time_elapsed":210914,"internal_node_id":"0.0-6.0-14.0"},{"sim_score":3,"rt":4832,"stimulus":"[\"img/0902/04a6ad4a-afc6-4871-8225-56b299af7b6b.jpg\",\"img/0860/71e1aad0-2cdf-43bb-94a4-a8c016997c30.jpg\"]","trial_type":"similarity","trial_index":21,"time_elapsed":216758,"internal_node_id":"0.0-6.0-15.0"},{"sim_score":2,"rt":5341,"stimulus":"[\"img/0769/458d9c77-b844-40b5-bb1b-1e3bbd4da64e.jpg\",\"img/0875/cff79b3a-a797-4393-9757-6275f999ec04.jpg\"]","trial_type":"similarity","trial_index":22,"time_elapsed":223110,"internal_node_id":"0.0-6.0-16.0"},{"sim_score":2,"rt":5774,"stimulus":"[\"img/0904/5aec2708-cf14-4a58-aa30-9a8a61c1be0e.jpg\",\"img/0866/9b38d691-1802-4959-ab3f-fc902f0e4ea6.jpg\"]","trial_type":"similarity","trial_index":23,"time_elapsed":229892,"internal_node_id":"0.0-6.0-17.0"},{"sim_score":6,"rt":4711,"stimulus":"[\"img/0875/99698b4d-b4a1-44bc-8c83-8ea755bbbf61.jpg\",\"img/0875/f87b67d7-c33e-40d1-b281-248c4be1cb6e.jpg\"]","trial_type":"similarity","trial_index":24,"time_elapsed":235617,"internal_node_id":"0.0-6.0-18.0"},{"sim_score":7,"rt":4460,"stimulus":"[\"img/0758/7ffbc76b-1fc1-432c-8f7e-9ec8d1b3f643.jpg\",\"img/0758/61d64021-9214-4951-bdf8-f871f9827cf9.jpg\"]","trial_type":"similarity","trial_index":25,"time_elapsed":241088,"internal_node_id":"0.0-6.0-19.0"},{"sim_score":5,"rt":3940,"stimulus":"[\"img/0902/418b716e-63e5-4c77-93e9-95b1f5a3ddf0.jpg\",\"img/0874/99f6563c-8a8d-4c1c-a41d-667b618c3fd5.jpg\"]","trial_type":"similarity","trial_index":26,"time_elapsed":246047,"internal_node_id":"0.0-6.0-20.0"},{"sim_score":6,"rt":5242,"stimulus":"[\"img/0764/5d6fa3ce-9083-410c-bbdb-336a49b94cfc.jpg\",\"img/0769/75f7e514-0548-4329-b1e4-93c05e74f038.jpg\"]","trial_type":"similarity","trial_index":27,"time_elapsed":252297,"internal_node_id":"0.0-6.0-21.0"},{"sim_score":2,"rt":7468,"stimulus":"[\"img/0901/7c16dd9c-44ad-4d5b-990c-6a0b9b48b1b1.jpg\",\"img/0874/93d1f8dc-acf2-4f03-bd8d-8ec35df276ed.jpg\"]","trial_type":"similarity","trial_index":28,"time_elapsed":260783,"internal_node_id":"0.0-6.0-22.0"},{"sim_score":2,"rt":4400,"stimulus":"[\"img/0875/5a716432-c6ca-4b1c-955a-2b8ac25198ee.jpg\",\"img/0903/71dbc325-b588-4297-a5cf-7f268a722ad9.jpg\"]","trial_type":"similarity","trial_index":29,"time_elapsed":266198,"internal_node_id":"0.0-6.0-23.0"},{"sim_score":1,"rt":6311,"stimulus":"[\"img/0769/91acb237-65a3-4d0b-9748-af5c7b83d3c7.jpg\",\"img/0881/c843e210-bdfe-4a7c-8bbe-fcea1f90fe1c.jpg\"]","trial_type":"similarity","trial_index":30,"time_elapsed":273525,"internal_node_id":"0.0-6.0-24.0"},{"sim_score":5,"rt":4772,"stimulus":"[\"img/0867/a749dddb-69f0-44a6-acdc-2bf295cf6dcc.jpg\",\"img/0904/0d25eb24-bb20-4e8d-9787-8b489558b4cb.jpg\"]","trial_type":"similarity","trial_index":31,"time_elapsed":279307,"internal_node_id":"0.0-6.0-25.0"},{"sim_score":3,"rt":6139,"stimulus":"[\"img/0860/c7047cd2-7cc1-41b6-8a34-c0986774975f.jpg\",\"img/0881/4da99fdd-1f40-4bbb-8e21-8833eef313f5.jpg\"]","trial_type":"similarity","trial_index":32,"time_elapsed":286463,"internal_node_id":"0.0-6.0-26.0"},{"sim_score":7,"rt":4906,"stimulus":"[\"img/0866/d493a2c8-66eb-44b4-be02-2f327b700b7c.jpg\",\"img/0866/02f5e6b9-52b7-448c-9708-5b460d0c9a23.jpg\"]","trial_type":"similarity","trial_index":33,"time_elapsed":292377,"internal_node_id":"0.0-6.0-27.0"},{"sim_score":5,"rt":5886,"stimulus":"[\"img/0764/f713847b-4832-42d1-8fb3-e17e37fd745c.jpg\",\"img/0862/00c06b00-3b73-44e9-bc1e-c5aafb438321.jpg\"]","trial_type":"similarity","trial_index":34,"time_elapsed":299268,"internal_node_id":"0.0-6.0-28.0"},{"sim_score":1,"rt":4696,"stimulus":"[\"img/0904/a8c3c7d2-9bcf-4347-9e03-8203adfc1fc5.jpg\",\"img/0758/6cd8c362-ae2a-41eb-80a3-3a4f7ace1530.jpg\"]","trial_type":"similarity","trial_index":35,"time_elapsed":304971,"internal_node_id":"0.0-6.0-29.0"},{"sim_score":1,"rt":4581,"stimulus":"[\"img/0894/133a1636-d123-4893-873c-1718050f832a.jpg\",\"img/0899/a05bea16-2bb4-4cb9-b8fb-4ff975db6971.jpg\"]","trial_type":"similarity","trial_index":36,"time_elapsed":310565,"internal_node_id":"0.0-6.0-30.0"},{"sim_score":2,"rt":5152,"stimulus":"[\"img/0860/8fdba999-b946-4c7d-9891-336018b563ef.jpg\",\"img/0904/9b3568cc-3cf7-42be-9df3-fdafde7a58b8.jpg\"]","trial_type":"similarity","trial_index":37,"time_elapsed":316729,"internal_node_id":"0.0-6.0-31.0"},{"sim_score":5,"rt":4261,"stimulus":"[\"img/0874/995f0332-0439-4eb4-add3-957335dbf6d9.jpg\",\"img/0881/1407b85b-a1c6-45b1-9884-3b24203efadb.jpg\"]","trial_type":"similarity","trial_index":38,"time_elapsed":321995,"internal_node_id":"0.0-6.0-32.0"},{"sim_score":4,"rt":3956,"stimulus":"[\"img/0881/adc02f34-ce97-4aef-850f-00519df06fd7.jpg\",\"img/0899/0433d056-aa30-4f8a-9aa1-abbb951e4edd.jpg\"]","trial_type":"similarity","trial_index":39,"time_elapsed":326964,"internal_node_id":"0.0-6.0-33.0"},{"sim_score":1,"rt":4925,"stimulus":"[\"img/0866/386235d2-6857-41e7-88a8-25cfc3430025.jpg\",\"img/0862/d0ca4c78-fc35-46ed-bdcc-8e124283c53e.jpg\"]","trial_type":"similarity","trial_index":40,"time_elapsed":332901,"internal_node_id":"0.0-6.0-34.0"},{"sim_score":1,"rt":8249,"stimulus":"[\"img/0868/fd307a36-9a3a-47d7-ab7c-f810d0b35040.jpg\",\"img/0894/5ff3c4f6-52e2-4075-8679-be0312e59703.jpg\"]","trial_type":"similarity","trial_index":41,"time_elapsed":342160,"internal_node_id":"0.0-6.0-35.0"},{"sim_score":7,"rt":4546,"stimulus":"[\"img/0860/c5ccd1a4-4bb7-48e1-9b25-72cfaf06909b.jpg\",\"img/0860/31ff6436-98bf-4652-bed2-40f627229568.jpg\"]","trial_type":"similarity","trial_index":42,"time_elapsed":347714,"internal_node_id":"0.0-6.0-36.0"},{"sim_score":2,"rt":6587,"stimulus":"[\"img/0862/a0a3a7ba-7798-46a3-b4ca-05e1f6e581d0.jpg\",\"img/0864/f92649a2-0590-4d31-9a7a-1bfb81666a2d.jpg\"]","trial_type":"similarity","trial_index":43,"time_elapsed":355307,"internal_node_id":"0.0-6.0-37.0"},{"sim_score":2,"rt":5798,"stimulus":"[\"img/0766/75c3d627-4f3b-40d5-9d9c-10c8a62db644.jpg\",\"img/0866/c446214b-a368-4c65-ae39-ea46894256ab.jpg\"]","trial_type":"similarity","trial_index":44,"time_elapsed":362121,"internal_node_id":"0.0-6.0-38.0"},{"sim_score":3,"rt":5497,"stimulus":"[\"img/0875/2c361b79-c3d1-4eda-812e-bf03192407bf.jpg\",\"img/0898/b2732712-71c2-45d8-834f-2b2ed5504910.jpg\"]","trial_type":"similarity","trial_index":45,"time_elapsed":368636,"internal_node_id":"0.0-6.0-39.0"},{"sim_score":7,"rt":5398,"stimulus":"[\"img/0766/d3bab2fc-ddcc-40a0-bb72-c0d0ebe19978.jpg\",\"img/0769/878531fd-e0e8-4ad1-b9ad-f018bb104ca0.jpg\"]","trial_type":"similarity","trial_index":46,"time_elapsed":375044,"internal_node_id":"0.0-6.0-40.0"},{"sim_score":1,"rt":4152,"stimulus":"[\"img/0874/1016b306-087c-4afc-aa08-fa527b28dc76.jpg\",\"img/0764/b887d7c6-aa81-4637-af8e-05135757ac59.jpg\"]","trial_type":"similarity","trial_index":47,"time_elapsed":411023,"internal_node_id":"0.0-6.0-41.0"},{"sim_score":1,"rt":3987,"stimulus":"[\"img/0868/6a28c3b0-3d76-498a-9fb7-ddafc665eca8.jpg\",\"img/0902/c920f0e1-1c81-480f-a164-c77f2dc6ce9a.jpg\"]","trial_type":"similarity","trial_index":48,"time_elapsed":416017,"internal_node_id":"0.0-6.0-42.0"},{"sim_score":1,"rt":4437,"stimulus":"[\"img/0875/ebf7653f-ff45-4e9f-af58-2c042ab3cd2b.jpg\",\"img/0899/d8f2dd94-570e-4e8c-a087-d96090fb9e8c.jpg\"]","trial_type":"similarity","trial_index":49,"time_elapsed":421469,"internal_node_id":"0.0-6.0-43.0"},{"sim_score":1,"rt":3882,"stimulus":"[\"img/0866/a15b02be-11bb-43e3-b0e0-ecc3bd7dfc49.jpg\",\"img/0860/e8b8c51e-1834-4875-8b61-6c5bc9b178bd.jpg\"]","trial_type":"similarity","trial_index":50,"time_elapsed":426361,"internal_node_id":"0.0-6.0-44.0"},{"sim_score":2,"rt":4612,"stimulus":"[\"img/0766/fd74fdbb-ea40-4f3a-a091-38d08dfd636e.jpg\",\"img/0903/c708d08f-a108-4e04-8288-c3fcf6375db4.jpg\"]","trial_type":"similarity","trial_index":51,"time_elapsed":431985,"internal_node_id":"0.0-6.0-45.0"},{"sim_score":1,"rt":4865,"stimulus":"[\"img/0901/2a953e50-d237-405c-a38d-5ed21494c968.jpg\",\"img/0904/1d10df11-b5c8-4370-9a6b-097a7f965895.jpg\"]","trial_type":"similarity","trial_index":52,"time_elapsed":437862,"internal_node_id":"0.0-6.0-46.0"},{"sim_score":5,"rt":4811,"stimulus":"[\"img/0758/d540bee6-b460-4c32-ac57-bc282742d7d4.jpg\",\"img/0902/24d10fe7-314f-4d5a-8c7b-b43121bba0a4.jpg\"]","trial_type":"similarity","trial_index":53,"time_elapsed":443690,"internal_node_id":"0.0-6.0-47.0"},{"sim_score":7,"rt":6519,"stimulus":"[\"img/0764/e48e6c6f-9e28-420f-836a-8043b2319bb4.jpg\",\"img/0764/50f1b062-d608-4bc0-ab25-b872dcf2ed93.jpg\"]","trial_type":"similarity","trial_index":54,"time_elapsed":451228,"internal_node_id":"0.0-6.0-48.0"},{"sim_score":1,"rt":3864,"stimulus":"[\"img/0866/f756f7d1-9ad8-4a34-9ef6-7a443d705bfe.jpg\",\"img/0902/3b243e54-0803-4c29-af42-4037c2118495.jpg\"]","trial_type":"similarity","trial_index":55,"time_elapsed":456112,"internal_node_id":"0.0-6.0-49.0"},{"sim_score":1,"rt":4188,"stimulus":"[\"img/0764/978aede9-4590-4ad0-b234-135c83e5d669.jpg\",\"img/0758/d57c2592-a317-4f63-91be-91a3a9afd222.jpg\"]","trial_type":"similarity","trial_index":56,"time_elapsed":461313,"internal_node_id":"0.0-6.0-50.0"},{"sim_score":3,"rt":6770,"stimulus":"[\"img/0898/cd3aaa3f-efa9-4ab3-8d6f-a6a9273ddf42.jpg\",\"img/0894/1a010553-d598-4b06-a772-81f1e7b3addb.jpg\"]","trial_type":"similarity","trial_index":57,"time_elapsed":469095,"internal_node_id":"0.0-6.0-51.0"},{"sim_score":4,"rt":4347,"stimulus":"[\"img/0875/8521fd58-3b1e-4dc5-97ae-804edfa6734a.jpg\",\"img/0866/6f2a90d7-14f1-4f1b-bd64-fc0af6b9fe44.jpg\"]","trial_type":"similarity","trial_index":58,"time_elapsed":474447,"internal_node_id":"0.0-6.0-52.0"},{"sim_score":6,"rt":6735,"stimulus":"[\"img/0904/5cceabc9-de1d-4c67-989b-c28a4ef77e79.jpg\",\"img/0904/73920552-103b-4c9c-9ece-e0b8376b4504.jpg\"]","trial_type":"similarity","trial_index":59,"time_elapsed":482197,"internal_node_id":"0.0-6.0-53.0"},{"sim_score":7,"rt":4708,"stimulus":"[\"img/0769/9ea27d61-3d55-418c-8d14-82e90f656f01.jpg\",\"img/0769/35f2dd39-40aa-498e-b401-9f1ef2622d00.jpg\"]","trial_type":"similarity","trial_index":60,"time_elapsed":487910,"internal_node_id":"0.0-6.0-54.0"},{"sim_score":5,"rt":5755,"stimulus":"[\"img/0898/ec565187-2e31-4fdd-9a5c-153d0c789ae0.jpg\",\"img/0758/335851a0-a55b-46d8-ab05-8463eda48349.jpg\"]","trial_type":"similarity","trial_index":61,"time_elapsed":494674,"internal_node_id":"0.0-6.0-55.0"},{"sim_score":2,"rt":6906,"stimulus":"[\"img/0769/662ab839-88d1-4ebf-af05-9b2980cad943.jpg\",\"img/0902/0db94c50-f1fb-4091-953c-29ca0466bee2.jpg\"]","trial_type":"similarity","trial_index":62,"time_elapsed":502596,"internal_node_id":"0.0-6.0-56.0"},{"sim_score":5,"rt":4544,"stimulus":"[\"img/0864/4bd81bc6-c13d-46df-95a9-485886dc7c1b.jpg\",\"img/0881/44e09805-5a25-4f17-a716-4ad4a331b174.jpg\"]","trial_type":"similarity","trial_index":63,"time_elapsed":508152,"internal_node_id":"0.0-6.0-57.0"},{"sim_score":1,"rt":3916,"stimulus":"[\"img/0758/2fa3e613-e676-4e6e-bd12-705327eeb3e1.jpg\",\"img/0868/4e626425-63c8-484a-8a1d-e66ee4e0bef8.jpg\"]","trial_type":"similarity","trial_index":64,"time_elapsed":513082,"internal_node_id":"0.0-6.0-58.0"},{"sim_score":1,"rt":3810,"stimulus":"[\"img/0862/fad1d7c1-8187-43c3-942a-0fc12183e48e.jpg\",\"img/0769/ebef2ddc-ba59-4e0e-97f8-927864eb5081.jpg\"]","trial_type":"similarity","trial_index":65,"time_elapsed":517910,"internal_node_id":"0.0-6.0-59.0"},{"sim_score":2,"rt":5963,"stimulus":"[\"img/0764/f9f890e6-3c2f-40cd-84e9-85e0b54cb28e.jpg\",\"img/0903/b0a3c45f-467e-412f-a183-c9c1827f2e63.jpg\"]","trial_type":"similarity","trial_index":66,"time_elapsed":524885,"internal_node_id":"0.0-6.0-60.0"},{"sim_score":7,"rt":4878,"stimulus":"[\"img/0899/57476fed-5962-4272-8fc9-b317bb777b54.jpg\",\"img/0899/1b3457ea-87d4-4946-a01c-aac1863ed46c.jpg\"]","trial_type":"similarity","trial_index":67,"time_elapsed":530778,"internal_node_id":"0.0-6.0-61.0"},{"sim_score":6,"rt":4072,"stimulus":"[\"img/0860/d9a0d117-6d1d-41c0-8fec-9aff0fd9e9f2.jpg\",\"img/0875/d59ff733-eaff-4ee2-9443-06954dd0bcb6.jpg\"]","trial_type":"similarity","trial_index":68,"time_elapsed":535864,"internal_node_id":"0.0-6.0-62.0"},{"sim_score":1,"rt":5737,"stimulus":"[\"img/0868/293079b8-7e0c-4afd-a390-1e5d35fe3ded.jpg\",\"img/0874/2c9464dd-8a23-4baa-ac94-1ba3af5c15cc.jpg\"]","trial_type":"similarity","trial_index":69,"time_elapsed":542617,"internal_node_id":"0.0-6.0-63.0"},{"sim_score":1,"rt":4556,"stimulus":"[\"img/0758/caa93da2-9edf-49fa-96b9-32dedd8f5078.jpg\",\"img/0862/24cdc752-c2e5-4a17-86a6-6f2045d8553b.jpg\"]","trial_type":"similarity","trial_index":70,"time_elapsed":548178,"internal_node_id":"0.0-6.0-64.0"},{"sim_score":5,"rt":7005,"stimulus":"[\"img/0904/2c98dc56-88d1-4fb5-a999-b6a7861f65f0.jpg\",\"img/0898/82231d4c-218b-4d0a-b50d-35a49b524e97.jpg\"]","trial_type":"similarity","trial_index":71,"time_elapsed":556203,"internal_node_id":"0.0-6.0-65.0"},{"sim_score":2,"rt":4979,"stimulus":"[\"img/0881/566f45f8-5fed-4479-a60f-26377e60a62d.jpg\",\"img/0866/23a224f3-2012-4fc8-8e0f-3c36f8de27fd.jpg\"]","trial_type":"similarity","trial_index":72,"time_elapsed":562193,"internal_node_id":"0.0-6.0-66.0"},{"sim_score":1,"rt":5016,"stimulus":"[\"img/0867/179ab87a-8eac-4c52-a41f-2e48e3120f09.jpg\",\"img/0898/c3cecf20-f7fd-45fa-97d0-dc0a63e8d6c0.jpg\"]","trial_type":"similarity","trial_index":73,"time_elapsed":568218,"internal_node_id":"0.0-6.0-67.0"},{"sim_score":7,"rt":3472,"stimulus":"[\"img/0902/417d8b4a-3c72-4adc-ac78-820e833316f2.jpg\",\"img/0764/83c93cce-18d1-4aa7-9e23-2c268afe0a46.jpg\"]","trial_type":"similarity","trial_index":74,"time_elapsed":572709,"internal_node_id":"0.0-6.0-68.0"},{"sim_score":7,"rt":4350,"stimulus":"[\"img/0875/fb732ab5-013a-4366-9f65-27811ed157e9.jpg\",\"img/0867/de92135f-5b65-4ed9-b245-188292c7c2f8.jpg\"]","trial_type":"similarity","trial_index":75,"time_elapsed":578070,"internal_node_id":"0.0-6.0-69.0"},{"sim_score":7,"rt":5087,"stimulus":"[\"img/0766/717fd72f-a281-499b-a5ba-5e2ecc4d4866.jpg\",\"img/0764/23ea9375-f801-4a96-9925-7d453da887c7.jpg\"]","trial_type":"similarity","trial_index":76,"time_elapsed":584163,"internal_node_id":"0.0-6.0-70.0"},{"sim_score":5,"rt":5287,"stimulus":"[\"img/0894/2217bdcd-23a7-42d3-823b-23f2488d7e87.jpg\",\"img/0867/85a96c62-548f-4994-9553-819e03c3135a.jpg\"]","trial_type":"similarity","trial_index":77,"time_elapsed":590453,"internal_node_id":"0.0-6.0-71.0"},{"sim_score":5,"rt":4226,"stimulus":"[\"img/0875/5a7c4e35-6514-4e12-8879-d16071da4cd6.jpg\",\"img/0764/4eff630a-6426-4f8d-b2ba-b4d9842a0962.jpg\"]","trial_type":"similarity","trial_index":78,"time_elapsed":595696,"internal_node_id":"0.0-6.0-72.0"},{"sim_score":6,"rt":4289,"stimulus":"[\"img/0867/075e0f95-856b-4cbb-acf5-092393aaf04e.jpg\",\"img/0866/be24ab58-230e-4db8-9f45-ff04c9aec6bb.jpg\"]","trial_type":"similarity","trial_index":79,"time_elapsed":600992,"internal_node_id":"0.0-6.0-73.0"},{"sim_score":3,"rt":4561,"stimulus":"[\"img/0903/a0673b55-6040-47fe-9040-24bca27ca3c9.jpg\",\"img/0758/d41c06bf-ebaf-454b-91c6-1a17f917b659.jpg\"]","trial_type":"similarity","trial_index":80,"time_elapsed":606561,"internal_node_id":"0.0-6.0-74.0"},{"sim_score":2,"rt":5701,"stimulus":"[\"img/0766/33aa9ebb-c9f5-418f-8c8b-c77861889568.jpg\",\"img/0868/4a8a45ed-2c4f-421b-9564-409a33ecd26c.jpg\"]","trial_type":"similarity","trial_index":81,"time_elapsed":613274,"internal_node_id":"0.0-6.0-75.0"},{"sim_score":5,"rt":3798,"stimulus":"[\"img/0874/767f289c-9814-4496-803f-745cc8913d1f.jpg\",\"img/0766/79767d11-b612-4e8a-9e4b-a8ac95bb6a54.jpg\"]","trial_type":"similarity","trial_index":82,"time_elapsed":618086,"internal_node_id":"0.0-6.0-76.0"},{"sim_score":1,"rt":4062,"stimulus":"[\"img/0881/f037e3b0-09cb-4a83-b2d9-6a71fe474e63.jpg\",\"img/0868/15dd6fd7-791e-4b53-b203-195d617521a4.jpg\"]","trial_type":"similarity","trial_index":83,"time_elapsed":623150,"internal_node_id":"0.0-6.0-77.0"},{"sim_score":2,"rt":4234,"stimulus":"[\"img/0758/53f35650-e455-4b53-8be4-c3c8271c6466.jpg\",\"img/0901/f1116359-1ff1-4638-b3b3-700918d36d18.jpg\"]","trial_type":"similarity","trial_index":84,"time_elapsed":628392,"internal_node_id":"0.0-6.0-78.0"},{"sim_score":1,"rt":4426,"stimulus":"[\"img/0881/c24f3051-eefa-42de-aba6-fccb56d93c70.jpg\",\"img/0898/68476bbb-34a1-42d9-8bc1-deab783d4489.jpg\"]","trial_type":"similarity","trial_index":85,"time_elapsed":633836,"internal_node_id":"0.0-6.0-79.0"},{"sim_score":1,"rt":5086,"stimulus":"[\"img/0867/ac1797e4-8afc-48fe-b252-86d1defb1cca.jpg\",\"img/0758/7fba58df-2a7a-4b76-8a8f-62739f97f271.jpg\"]","trial_type":"similarity","trial_index":86,"time_elapsed":639937,"internal_node_id":"0.0-6.0-80.0"},{"sim_score":5,"rt":7199,"stimulus":"[\"img/0769/965c3c44-d9e5-47c5-b61a-2bbdf4215d9a.jpg\",\"img/0899/66bf4113-ee12-426c-84d2-ea410b6c803e.jpg\"]","trial_type":"similarity","trial_index":87,"time_elapsed":648150,"internal_node_id":"0.0-6.0-81.0"},{"sim_score":7,"rt":5763,"stimulus":"[\"img/0903/b548d383-2a95-4575-8c13-647873751ff1.jpg\",\"img/0903/2c7b4aed-6038-4aac-958a-e3e58341c313.jpg\"]","trial_type":"similarity","trial_index":88,"time_elapsed":654931,"internal_node_id":"0.0-6.0-82.0"},{"sim_score":1,"rt":5016,"stimulus":"[\"img/0867/2e1a0b58-cdb1-4107-a14e-452530d7b9b0.jpg\",\"img/0766/d512b99c-a2dc-40d7-8e86-827323a0cbcf.jpg\"]","trial_type":"similarity","trial_index":89,"time_elapsed":668995,"internal_node_id":"0.0-6.0-83.0"},{"sim_score":2,"rt":8209,"stimulus":"[\"img/0902/cf9dee9c-2bdf-4d64-9302-97f1660fe52c.jpg\",\"img/0867/8ba0c5a7-c7e4-42cf-a80a-543763b90779.jpg\"]","trial_type":"similarity","trial_index":90,"time_elapsed":678222,"internal_node_id":"0.0-6.0-84.0"},{"sim_score":1,"rt":4840,"stimulus":"[\"img/0901/233a6948-48eb-4b67-8259-222b916b2322.jpg\",\"img/0875/3ecb367d-e9eb-4826-8aaa-7aa72fb98019.jpg\"]","trial_type":"similarity","trial_index":91,"time_elapsed":684080,"internal_node_id":"0.0-6.0-85.0"},{"sim_score":6,"rt":5235,"stimulus":"[\"img/0764/17b088f8-3053-4140-b544-d15654cc79ef.jpg\",\"img/0866/07c9c966-3c8d-40e7-8128-92b2acbaed5d.jpg\"]","trial_type":"similarity","trial_index":92,"time_elapsed":690322,"internal_node_id":"0.0-6.0-86.0"},{"sim_score":5,"rt":6593,"stimulus":"[\"img/0901/3db47171-0139-4235-82cd-0b1787b6775f.jpg\",\"img/0894/38f5931f-926d-414e-b498-66b188978b7a.jpg\"]","trial_type":"similarity","trial_index":93,"time_elapsed":697927,"internal_node_id":"0.0-6.0-87.0"},{"sim_score":4,"rt":5633,"stimulus":"[\"img/0898/04e39a7a-fcf6-4156-ab0e-f5871f335e1c.jpg\",\"img/0769/bb8c4e53-6f32-4814-97ee-392d4decfb2e.jpg\"]","trial_type":"similarity","trial_index":94,"time_elapsed":704570,"internal_node_id":"0.0-6.0-88.0"},{"sim_score":6,"rt":4650,"stimulus":"[\"img/0769/b664b502-a86c-46c1-ad6f-5ebffc2e1bd3.jpg\",\"img/0894/8cadb87a-7001-4e47-99fb-1867bebf1668.jpg\"]","trial_type":"similarity","trial_index":95,"time_elapsed":710225,"internal_node_id":"0.0-6.0-89.0"},{"sim_score":2,"rt":4252,"stimulus":"[\"img/0862/53a9cf7c-93c4-41b9-952f-07d17f7a17b2.jpg\",\"img/0874/3ce41e7c-40c8-4d58-a546-171114521796.jpg\"]","trial_type":"similarity","trial_index":96,"time_elapsed":715497,"internal_node_id":"0.0-6.0-90.0"},{"sim_score":5,"rt":5879,"stimulus":"[\"img/0894/151063aa-6472-4745-837b-36603aba5966.jpg\",\"img/0766/908bc45b-7c9e-4f95-806e-86b196ebcb2c.jpg\"]","trial_type":"similarity","trial_index":97,"time_elapsed":722381,"internal_node_id":"0.0-6.0-91.0"},{"sim_score":1,"rt":3652,"stimulus":"[\"img/0874/c0378dac-9370-439a-8b79-db27c96fb390.jpg\",\"img/0867/5e07b34d-b40f-4b1c-ac10-49975bace45f.jpg\"]","trial_type":"similarity","trial_index":98,"time_elapsed":727037,"internal_node_id":"0.0-6.0-92.0"},{"sim_score":1,"rt":6360,"stimulus":"[\"img/0899/f95cbdb4-f804-4f5d-ad76-373ad343e658.jpg\",\"img/0868/8b0b8473-e2c0-4331-aa56-c3a5c29369da.jpg\"]","trial_type":"similarity","trial_index":99,"time_elapsed":734413,"internal_node_id":"0.0-6.0-93.0"},{"sim_score":6,"rt":5068,"stimulus":"[\"img/0903/0fb24af7-9a26-4e9d-aadc-959a36f683e2.jpg\",\"img/0862/f23038d4-c366-4f70-979f-66b62362efa4.jpg\"]","trial_type":"similarity","trial_index":100,"time_elapsed":740491,"internal_node_id":"0.0-6.0-94.0"},{"sim_score":7,"rt":4602,"stimulus":"[\"img/0899/4408c14d-c168-4a7d-96f6-bc87bfb58f83.jpg\",\"img/0766/26d3ae14-8275-4e08-99b2-a6598c193ddf.jpg\"]","trial_type":"similarity","trial_index":101,"time_elapsed":746108,"internal_node_id":"0.0-6.0-95.0"},{"sim_score":7,"rt":4088,"stimulus":"[\"img/0867/12264664-1860-46df-8c21-162b9817cdda.jpg\",\"img/0868/77091fc7-a590-4ebb-b915-fdb2483a2399.jpg\"]","trial_type":"similarity","trial_index":102,"time_elapsed":751209,"internal_node_id":"0.0-6.0-96.0"},{"sim_score":7,"rt":4103,"stimulus":"[\"img/0862/ad593cc7-cabe-4bb7-8e14-8a447a0717b4.jpg\",\"img/0901/6e2957f8-f5ab-46f4-87cc-bb50155a098b.jpg\"]","trial_type":"similarity","trial_index":103,"time_elapsed":756328,"internal_node_id":"0.0-6.0-97.0"},{"sim_score":6,"rt":4749,"stimulus":"[\"img/0875/dbdd643e-6d0e-4a5c-ab57-b9c29b9c981a.jpg\",\"img/0766/71b81ebd-0937-4d7f-b8bf-c4e46a4728fd.jpg\"]","trial_type":"similarity","trial_index":104,"time_elapsed":762085,"internal_node_id":"0.0-6.0-98.0"},{"sim_score":3,"rt":6711,"stimulus":"[\"img/0758/67c0be2f-9e91-48b3-8219-70ac0a1802fa.jpg\",\"img/0874/29830da7-be5f-44e5-b141-652a0ccf7269.jpg\"]","trial_type":"similarity","trial_index":105,"time_elapsed":769813,"internal_node_id":"0.0-6.0-99.0"},{"sim_score":3,"rt":5155,"stimulus":"[\"img/0904/b7c2a2c8-df33-4473-b3d4-ff7147c60db3.jpg\",\"img/0868/e0aff734-077f-40dd-9781-74821abd3621.jpg\"]","trial_type":"similarity","trial_index":106,"time_elapsed":775975,"internal_node_id":"0.0-6.0-100.0"},{"sim_score":3,"rt":6117,"stimulus":"[\"img/0903/47e39de8-6959-469f-8be9-6999a6db207c.jpg\",\"img/0866/d266fece-59b3-46fa-b69f-96f6efb81b59.jpg\"]","trial_type":"similarity","trial_index":107,"time_elapsed":783109,"internal_node_id":"0.0-6.0-101.0"},{"sim_score":3,"rt":5650,"stimulus":"[\"img/0868/3a62db2d-97e9-44a3-b8e3-a48c6f0e423b.jpg\",\"img/0769/50985283-d353-4abc-9abe-14a91d56ebe6.jpg\"]","trial_type":"similarity","trial_index":108,"time_elapsed":789773,"internal_node_id":"0.0-6.0-102.0"},{"sim_score":5,"rt":5777,"stimulus":"[\"img/0902/6730b12a-f0a7-4587-8c10-a32fae16565b.jpg\",\"img/0899/00715b3f-851b-420b-a26b-d7f79f7759a9.jpg\"]","trial_type":"similarity","trial_index":109,"time_elapsed":796556,"internal_node_id":"0.0-6.0-103.0"},{"sim_score":1,"rt":5385,"stimulus":"[\"img/0868/5fa7f9d0-f0e5-454c-8224-74d964818f56.jpg\",\"img/0862/57b6f83f-c763-4858-830d-102f97bfefbf.jpg\"]","trial_type":"similarity","trial_index":110,"time_elapsed":802945,"internal_node_id":"0.0-6.0-104.0"},{"sim_score":7,"rt":4424,"stimulus":"[\"img/0903/0e5c2854-42aa-48c0-9c3d-6e1ad2a400bd.jpg\",\"img/0894/b422d5c6-3c5a-49ae-a53e-7e88ac993f49.jpg\"]","trial_type":"similarity","trial_index":111,"time_elapsed":808375,"internal_node_id":"0.0-6.0-105.0"},{"sim_score":5,"rt":4393,"stimulus":"[\"img/0864/ef9cbca0-4be8-435d-ad49-977259e80409.jpg\",\"img/0874/3f471690-9788-4d03-90c7-f615aecef149.jpg\"]","trial_type":"similarity","trial_index":112,"time_elapsed":813774,"internal_node_id":"0.0-6.0-106.0"},{"sim_score":7,"rt":4061,"stimulus":"[\"img/0862/92fcd8a4-8193-4a6a-ae09-dd4a6338b0df.jpg\",\"img/0902/44cd9b7e-fdfb-4f78-90de-8d4c9d279365.jpg\"]","trial_type":"similarity","trial_index":113,"time_elapsed":818844,"internal_node_id":"0.0-6.0-107.0"},{"sim_score":7,"rt":4001,"stimulus":"[\"img/0904/ba8e689e-9ca6-4608-a2a1-3b0940666ae6.jpg\",\"img/0903/5ea5bbe0-f238-4724-abe7-9ed8dee8c0ba.jpg\"]","trial_type":"similarity","trial_index":114,"time_elapsed":823851,"internal_node_id":"0.0-6.0-108.0"},{"sim_score":3,"rt":5617,"stimulus":"[\"img/0764/56441045-b648-4ede-9632-3e9c0227080b.jpg\",\"img/0864/efcfbb1b-8197-44c9-b723-40d6c608dd3c.jpg\"]","trial_type":"similarity","trial_index":115,"time_elapsed":830477,"internal_node_id":"0.0-6.0-109.0"},{"sim_score":2,"rt":7110,"stimulus":"[\"img/0866/93a27239-8317-4e08-98ca-d8b1ff298e07.jpg\",\"img/0894/792c83e9-a747-4000-bc72-5663d2439edb.jpg\"]","trial_type":"similarity","trial_index":116,"time_elapsed":838605,"internal_node_id":"0.0-6.0-110.0"},{"sim_score":3,"rt":6067,"stimulus":"[\"img/0899/7f9d45d0-b2c6-40d3-aa41-c207db2c411b.jpg\",\"img/0903/3e9ee8a5-eb66-47f5-8973-8a5af1ddc87e.jpg\"]","trial_type":"similarity","trial_index":117,"time_elapsed":845677,"internal_node_id":"0.0-6.0-111.0"},{"sim_score":5,"rt":6978,"stimulus":"[\"img/0902/10d99c89-71f7-4c81-a31e-dfc7c59f5232.jpg\",\"img/0904/2f88ce53-02d0-4f95-a082-182c56a0eeb4.jpg\"]","trial_type":"similarity","trial_index":118,"time_elapsed":853661,"internal_node_id":"0.0-6.0-112.0"},{"sim_score":3,"rt":6377,"stimulus":"[\"img/0864/a248adb3-c70b-4652-b7a3-776d2a1e904b.jpg\",\"img/0860/29a21a9f-54bb-4093-ad3f-04823ceaa89f.jpg\"]","trial_type":"similarity","trial_index":119,"time_elapsed":861043,"internal_node_id":"0.0-6.0-113.0"},{"sim_score":2,"rt":4696,"stimulus":"[\"img/0860/fd4662f9-4c03-4d79-8593-06735e55a64b.jpg\",\"img/0899/7b7380d5-d2be-44e5-a09a-c1756f87ef71.jpg\"]","trial_type":"similarity","trial_index":120,"time_elapsed":866756,"internal_node_id":"0.0-6.0-114.0"},{"sim_score":5,"rt":5764,"stimulus":"[\"img/0881/445edb15-bd7f-4af3-8bd5-c6ad9677bb31.jpg\",\"img/0903/5248eedd-7e6a-4d39-91b0-06ec227f3ed0.jpg\"]","trial_type":"similarity","trial_index":121,"time_elapsed":873525,"internal_node_id":"0.0-6.0-115.0"},{"sim_score":1,"rt":4803,"stimulus":"[\"img/0894/7dd6ff43-f8fc-408a-8a41-a2b261871820.jpg\",\"img/0874/eba003b4-cdab-4eee-8bc3-f064c7d94165.jpg\"]","trial_type":"similarity","trial_index":122,"time_elapsed":879331,"internal_node_id":"0.0-6.0-116.0"},{"sim_score":6,"rt":5664,"stimulus":"[\"img/0881/19e82c47-8e4b-45d2-a6c8-74181eb4155e.jpg\",\"img/0862/4f0a3b4c-afbf-486e-b248-1d54982f54b4.jpg\"]","trial_type":"similarity","trial_index":123,"time_elapsed":886003,"internal_node_id":"0.0-6.0-117.0"},{"sim_score":7,"rt":4627,"stimulus":"[\"img/0868/1a62b2b2-18f5-466e-b564-5176a57c565e.jpg\",\"img/0875/527ced51-8e53-4aab-ab05-86df219104c0.jpg\"]","trial_type":"similarity","trial_index":124,"time_elapsed":891643,"internal_node_id":"0.0-6.0-118.0"},{"sim_score":6,"rt":4561,"stimulus":"[\"img/0860/18dfed73-e36b-4487-a8bd-0b8cff8e3668.jpg\",\"img/0758/ddc336e9-a8b6-4bb9-937a-c7e25e0e9250.jpg\"]","trial_type":"similarity","trial_index":125,"time_elapsed":897222,"internal_node_id":"0.0-6.0-119.0"},{"sim_score":3,"rt":5620,"stimulus":"[\"img/0864/e8bd659f-aa43-4748-877e-3118e8b4e189.jpg\",\"img/0875/90da8d75-108a-44ad-b999-e21fee3860d3.jpg\"]","trial_type":"similarity","trial_index":126,"time_elapsed":903855,"internal_node_id":"0.0-6.0-120.0"},{"sim_score":1,"rt":4280,"stimulus":"[\"img/0898/224c1572-56b9-4f16-a9e4-6f3bc9c114bd.jpg\",\"img/0866/945c6710-d15b-4a5b-a8f6-69af0850357f.jpg\"]","trial_type":"similarity","trial_index":127,"time_elapsed":909151,"internal_node_id":"0.0-6.0-121.0"},{"sim_score":5,"rt":3713,"stimulus":"[\"img/0874/bf14b896-e930-4fd9-9c05-2e83317a2773.jpg\",\"img/0904/2fd488e9-960f-41f7-8a44-33375f7d5051.jpg\"]","trial_type":"similarity","trial_index":128,"time_elapsed":913873,"internal_node_id":"0.0-6.0-122.0"},{"sim_score":3,"rt":5300,"stimulus":"[\"img/0904/9dd5708f-3f8b-46a9-b49f-2f2fab87b357.jpg\",\"img/0864/da39ad34-04e0-40d4-a724-c08d53e0ea09.jpg\"]","trial_type":"similarity","trial_index":129,"time_elapsed":920179,"internal_node_id":"0.0-6.0-123.0"},{"sim_score":5,"rt":6032,"stimulus":"[\"img/0894/2d2db7b3-e8a3-499b-b63a-14f51bf73882.jpg\",\"img/0902/51493fab-2a10-4385-aa88-bee3db441626.jpg\"]","trial_type":"similarity","trial_index":130,"time_elapsed":927215,"internal_node_id":"0.0-6.0-124.0"},{"sim_score":1,"rt":3699,"stimulus":"[\"img/0868/0d3abd3a-b6c3-4584-a9f7-e2da63748b3d.jpg\",\"img/0864/0f537697-a314-47c3-a8cc-8df23b7e536c.jpg\"]","trial_type":"similarity","trial_index":131,"time_elapsed":940682,"internal_node_id":"0.0-6.0-125.0"},{"sim_score":3,"rt":6354,"stimulus":"[\"img/0899/8de08897-b430-42fe-9d42-840670b80f94.jpg\",\"img/0866/620cd1aa-0800-4414-8f6e-90342e7a99ad.jpg\"]","trial_type":"similarity","trial_index":132,"time_elapsed":948041,"internal_node_id":"0.0-6.0-126.0"},{"sim_score":6,"rt":4538,"stimulus":"[\"img/0875/03c3c331-738b-4446-af92-3d7386b08c2e.jpg\",\"img/0904/09dac84f-3d1c-4445-a68e-d0389fdbf1e9.jpg\"]","trial_type":"similarity","trial_index":133,"time_elapsed":953597,"internal_node_id":"0.0-6.0-127.0"},{"sim_score":1,"rt":4246,"stimulus":"[\"img/0867/6e19c858-b606-45b2-a4c6-910a73f1d82c.jpg\",\"img/0899/b45c550b-96c3-4255-ad59-48a2b4db1c1e.jpg\"]","trial_type":"similarity","trial_index":134,"time_elapsed":958856,"internal_node_id":"0.0-6.0-128.0"},{"sim_score":2,"rt":4428,"stimulus":"[\"img/0901/1ede21d9-384f-4150-86b5-e1c57b5dc1d4.jpg\",\"img/0867/db7e032f-162b-46f5-ae67-2b29679adee4.jpg\"]","trial_type":"similarity","trial_index":135,"time_elapsed":964295,"internal_node_id":"0.0-6.0-129.0"},{"sim_score":5,"rt":4685,"stimulus":"[\"img/0864/0116ca98-293d-4fa6-a93b-5a6144ef64cc.jpg\",\"img/0769/180213e5-1e50-4b4e-87b6-add77ba04d39.jpg\"]","trial_type":"similarity","trial_index":136,"time_elapsed":969996,"internal_node_id":"0.0-6.0-130.0"},{"sim_score":2,"rt":5571,"stimulus":"[\"img/0903/36e4ab1f-caa9-40b3-8616-faada076df94.jpg\",\"img/0868/4bd5105a-d2c3-4f82-8c80-57196106ba53.jpg\"]","trial_type":"similarity","trial_index":137,"time_elapsed":976581,"internal_node_id":"0.0-6.0-131.0"},{"sim_score":1,"rt":3245,"stimulus":"[\"img/0864/300bb811-8b3c-4c42-8653-6097c3725197.jpg\",\"img/0867/bf560d4f-dee3-4f11-a385-705cc1aa5f3c.jpg\"]","trial_type":"similarity","trial_index":138,"time_elapsed":980847,"internal_node_id":"0.0-6.0-132.0"},{"sim_score":7,"rt":4488,"stimulus":"[\"img/0901/71e551a2-9ce2-409c-9c7c-dd556a0791e9.jpg\",\"img/0860/5bff793e-cbd5-4d7e-b628-0ac2b0e30b64.jpg\"]","trial_type":"similarity","trial_index":139,"time_elapsed":986339,"internal_node_id":"0.0-6.0-133.0"},{"sim_score":5,"rt":3867,"stimulus":"[\"img/0881/ed4c971f-0873-4fc8-b6d6-e8bbd82f0bcc.jpg\",\"img/0766/214866ee-423d-4629-9bb9-41572bdc7dac.jpg\"]","trial_type":"similarity","trial_index":140,"time_elapsed":991223,"internal_node_id":"0.0-6.0-134.0"},{"sim_score":2,"rt":5801,"stimulus":"[\"img/0903/b4a0f61e-a964-4b79-a9a7-f767a8f92f34.jpg\",\"img/0864/afcba0a3-7e27-4757-b254-e9f05fad27e2.jpg\"]","trial_type":"similarity","trial_index":141,"time_elapsed":998044,"internal_node_id":"0.0-6.0-135.0"},{"sim_score":2,"rt":4247,"stimulus":"[\"img/0758/7ee8bc8f-c40b-4b3a-84ec-3e83580622d4.jpg\",\"img/0894/767a0eec-1064-46b1-b1aa-dfa02b0cd74e.jpg\"]","trial_type":"similarity","trial_index":142,"time_elapsed":1003309,"internal_node_id":"0.0-6.0-136.0"},{"sim_score":3,"rt":6035,"stimulus":"[\"img/0769/057eb0a0-aa5b-40c7-9852-21444f68d767.jpg\",\"img/0860/8277806e-b684-4474-8f7b-3fca946d7d4f.jpg\"]","trial_type":"similarity","trial_index":143,"time_elapsed":1010348,"internal_node_id":"0.0-6.0-137.0"},{"sim_score":5,"rt":8740,"stimulus":"[\"img/0904/e9423a8c-f946-43ad-ab7b-931acef870e2.jpg\",\"img/0766/d14acac4-7db1-4b07-8f8f-302437326fc0.jpg\"]","trial_type":"similarity","trial_index":144,"time_elapsed":1020092,"internal_node_id":"0.0-6.0-138.0"},{"sim_score":3,"rt":4623,"stimulus":"[\"img/0868/83b4350a-3b70-4cea-b7f5-b5b56f3050a8.jpg\",\"img/0860/8a92e21b-6a32-4e4a-a445-2d5a487ed0a4.jpg\"]","trial_type":"similarity","trial_index":145,"time_elapsed":1025732,"internal_node_id":"0.0-6.0-139.0"},{"sim_score":6,"rt":4141,"stimulus":"[\"img/0758/6e95579b-5166-487c-b8cb-e417c6a218e3.jpg\",\"img/0864/1ebbc554-99fa-49f9-8799-317375a79820.jpg\"]","trial_type":"similarity","trial_index":146,"time_elapsed":1030880,"internal_node_id":"0.0-6.0-140.0"},{"sim_score":7,"rt":4154,"stimulus":"[\"img/0867/7d1c497b-c1b3-4ed8-abb5-d7f73306015f.jpg\",\"img/0867/50a1b60e-3a29-44bf-b606-d4bd3746fea9.jpg\"]","trial_type":"similarity","trial_index":147,"time_elapsed":1036043,"internal_node_id":"0.0-6.0-141.0"},{"sim_score":6,"rt":3980,"stimulus":"[\"img/0898/f3a3f225-1248-4ac7-b93b-f0ff28485bf3.jpg\",\"img/0898/661621d4-a14e-487c-8c74-354134a29710.jpg\"]","trial_type":"similarity","trial_index":148,"time_elapsed":1041027,"internal_node_id":"0.0-6.0-142.0"},{"sim_score":3,"rt":5132,"stimulus":"[\"img/0866/8efcaa46-83ab-4dee-a35f-850402aa21ae.jpg\",\"img/0769/3adfa417-3b90-4aab-b437-5eaa474189cb.jpg\"]","trial_type":"similarity","trial_index":149,"time_elapsed":1047177,"internal_node_id":"0.0-6.0-143.0"},{"sim_score":1,"rt":5329,"stimulus":"[\"img/0860/c47fdead-eb02-4989-b078-26f4852f44fe.jpg\",\"img/0898/0c7dde4f-efce-4b7a-9387-6921635b7890.jpg\"]","trial_type":"similarity","trial_index":150,"time_elapsed":1053523,"internal_node_id":"0.0-6.0-144.0"},{"sim_score":5,"rt":4405,"stimulus":"[\"img/0766/69e486f7-dbef-456b-9d48-53d814248a28.jpg\",\"img/0864/e336a4c5-6648-4fd7-b2f6-93a3fb83f8c6.jpg\"]","trial_type":"similarity","trial_index":151,"time_elapsed":1058937,"internal_node_id":"0.0-6.0-145.0"},{"sim_score":3,"rt":6166,"stimulus":"[\"img/0860/99c589b9-9140-4d17-90c0-b344323edcda.jpg\",\"img/0903/d987e220-f3e6-4b6d-a270-fe6757041f6d.jpg\"]","trial_type":"similarity","trial_index":152,"time_elapsed":1066117,"internal_node_id":"0.0-6.0-146.0"},{"sim_score":1,"rt":4232,"stimulus":"[\"img/0867/f8488a47-94ee-4166-952c-44e16cf172f6.jpg\",\"img/0764/ca9829fe-aaf8-45b8-b98a-6bae751c63dd.jpg\"]","trial_type":"similarity","trial_index":153,"time_elapsed":1071367,"internal_node_id":"0.0-6.0-147.0"},{"sim_score":7,"rt":4332,"stimulus":"[\"img/0769/35364db7-e0d5-40ef-93dc-faf9dfb95136.jpg\",\"img/0904/fe746a3f-8458-48d0-8a13-8cba2a9df9f8.jpg\"]","trial_type":"similarity","trial_index":154,"time_elapsed":1076705,"internal_node_id":"0.0-6.0-148.0"},{"sim_score":2,"rt":5366,"stimulus":"[\"img/0764/cbdc4f20-3a9a-4211-9b40-090699e0abcc.jpg\",\"img/0901/00acf6c1-b66e-4060-bb04-4caf29b5a8b0.jpg\"]","trial_type":"similarity","trial_index":155,"time_elapsed":1083086,"internal_node_id":"0.0-6.0-149.0"},{"sim_score":3,"rt":6061,"stimulus":"[\"img/0904/0d17b811-063e-416e-a23c-3b3cfa4fcce5.jpg\",\"img/0899/0adc0bc3-6fca-4078-be6f-d45ddf1653d5.jpg\"]","trial_type":"similarity","trial_index":156,"time_elapsed":1090155,"internal_node_id":"0.0-6.0-150.0"},{"sim_score":3,"rt":6117,"stimulus":"[\"img/0862/5d887e9f-89e2-4ebc-80a0-6d46fe6480db.jpg\",\"img/0867/aa05d113-fc19-4756-a8eb-7878f580bc92.jpg\"]","trial_type":"similarity","trial_index":157,"time_elapsed":1097279,"internal_node_id":"0.0-6.0-151.0"},{"sim_score":7,"rt":3964,"stimulus":"[\"img/0766/b84598d0-5b41-4841-88b0-b441b48289f5.jpg\",\"img/0766/af3be95e-e52e-4fae-899b-0ff02ec340aa.jpg\"]","trial_type":"similarity","trial_index":158,"time_elapsed":1102265,"internal_node_id":"0.0-6.0-152.0"},{"sim_score":1,"rt":4322,"stimulus":"[\"img/0862/92f0146c-20c4-482e-aef5-adb693790338.jpg\",\"img/0894/5a49e858-2850-4892-9a06-e9f0efb5f94d.jpg\"]","trial_type":"similarity","trial_index":159,"time_elapsed":1107601,"internal_node_id":"0.0-6.0-153.0"},{"sim_score":1,"rt":4464,"stimulus":"[\"img/0899/fef567a2-c121-4481-9af0-ff108d199bbf.jpg\",\"img/0901/d6d15b1c-4a30-4f74-a3fd-d4c8ee4169ca.jpg\"]","trial_type":"similarity","trial_index":160,"time_elapsed":1113070,"internal_node_id":"0.0-6.0-154.0"},{"sim_score":7,"rt":4517,"stimulus":"[\"img/0874/ca76a855-4e77-4f2f-872a-0a718153e7ed.jpg\",\"img/0874/31e22c7c-99aa-40b1-bf03-dd73fa2df4d6.jpg\"]","trial_type":"similarity","trial_index":161,"time_elapsed":1118602,"internal_node_id":"0.0-6.0-155.0"},{"sim_score":2,"rt":6251,"stimulus":"[\"img/0860/702bd09d-df3a-40aa-a267-5f04474305b5.jpg\",\"img/0867/cc72ed48-7704-422c-86d6-467a1145287a.jpg\"]","trial_type":"similarity","trial_index":162,"time_elapsed":1125860,"internal_node_id":"0.0-6.0-156.0"},{"sim_score":1,"rt":4755,"stimulus":"[\"img/0901/168eb52c-c415-43f1-b5c8-e76e1a1ec247.jpg\",\"img/0881/b1a136f7-8511-4d3a-a0f6-3879acf1e1a1.jpg\"]","trial_type":"similarity","trial_index":163,"time_elapsed":1131631,"internal_node_id":"0.0-6.0-157.0"},{"sim_score":7,"rt":4588,"stimulus":"[\"img/0903/0a92ec52-4e87-410a-857a-4455cde56a70.jpg\",\"img/0902/01b41522-de46-4c3a-b0af-a61b2682b40e.jpg\"]","trial_type":"similarity","trial_index":164,"time_elapsed":1137233,"internal_node_id":"0.0-6.0-158.0"},{"sim_score":2,"rt":8721,"stimulus":"[\"img/0860/15b24a61-25be-4356-9eac-5ce95d0cb4a4.jpg\",\"img/0764/d7f3ac54-318a-4dac-a06b-62bed34d01a4.jpg\"]","trial_type":"similarity","trial_index":165,"time_elapsed":1146969,"internal_node_id":"0.0-6.0-159.0"},{"sim_score":5,"rt":4435,"stimulus":"[\"img/0902/b03129ba-b087-4558-af37-e8399d6217d6.jpg\",\"img/0875/e7e66b13-b573-431e-b85e-288ce04a35a3.jpg\"]","trial_type":"similarity","trial_index":166,"time_elapsed":1152421,"internal_node_id":"0.0-6.0-160.0"},{"sim_score":5,"rt":4785,"stimulus":"[\"img/0898/8605a25b-6895-476d-8c13-df7a83f96093.jpg\",\"img/0862/eefa5588-9efd-4591-aa5f-a2e17c7d7bcc.jpg\"]","trial_type":"similarity","trial_index":167,"time_elapsed":1158228,"internal_node_id":"0.0-6.0-161.0"},{"sim_score":5,"rt":4086,"stimulus":"[\"img/0894/661b9f9f-4bde-487a-b1ed-87085fde6948.jpg\",\"img/0875/a4935837-7d3c-4df6-88c1-36a94d4991ca.jpg\"]","trial_type":"similarity","trial_index":168,"time_elapsed":1163320,"internal_node_id":"0.0-6.0-162.0"},{"sim_score":1,"rt":5047,"stimulus":"[\"img/0866/0207e9a2-7dbb-40b5-9459-b472aaeceb2a.jpg\",\"img/0864/c22faebd-9c53-47bc-ada3-b9a30c688e75.jpg\"]","trial_type":"similarity","trial_index":169,"time_elapsed":1169383,"internal_node_id":"0.0-6.0-163.0"},{"sim_score":1,"rt":4505,"stimulus":"[\"img/0766/535849cc-ff5d-4df9-8f31-0ce94a97d571.jpg\",\"img/0862/e697469a-ec19-4414-b972-7b9f3564785b.jpg\"]","trial_type":"similarity","trial_index":170,"time_elapsed":1174901,"internal_node_id":"0.0-6.0-164.0"},{"sim_score":1,"rt":3539,"stimulus":"[\"img/0866/bf14b5bd-fb55-47db-86b9-4f8aeb9a6dad.jpg\",\"img/0874/85eb9b8a-c4c6-4e5a-b8e7-363a87a82054.jpg\"]","trial_type":"similarity","trial_index":171,"time_elapsed":1179445,"internal_node_id":"0.0-6.0-165.0"},{"sim_score":7,"rt":4019,"stimulus":"[\"img/0862/ee3b7bff-4a70-4e84-9bea-4a565e456acb.jpg\",\"img/0860/5383b320-1518-4095-a58e-5cc1ae30b64c.jpg\"]","trial_type":"similarity","trial_index":172,"time_elapsed":1184469,"internal_node_id":"0.0-6.0-166.0"},{"sim_score":3,"rt":6026,"stimulus":"[\"img/0766/aaec5f42-7f0a-4a16-aeca-488d757acbcc.jpg\",\"img/0901/effc03f6-8f9d-46db-a66c-16fc83891c5c.jpg\"]","trial_type":"similarity","trial_index":173,"time_elapsed":1197492,"internal_node_id":"0.0-6.0-167.0"},{"sim_score":6,"rt":4034,"stimulus":"[\"img/0862/99a99e39-8355-44ec-b993-e7bcec111e1c.jpg\",\"img/0862/f188d4f0-76a4-4102-818c-a209969d73a5.jpg\"]","trial_type":"similarity","trial_index":174,"time_elapsed":1202539,"internal_node_id":"0.0-6.0-168.0"},{"sim_score":6,"rt":6349,"stimulus":"[\"img/0894/76c1201f-8524-4865-85e6-dda8cb4ac986.jpg\",\"img/0764/55b3fab1-b809-4d38-a461-3f40ce062f52.jpg\"]","trial_type":"similarity","trial_index":175,"time_elapsed":1209907,"internal_node_id":"0.0-6.0-169.0"},{"sim_score":5,"rt":4767,"stimulus":"[\"img/0874/a3bc679d-619f-4db6-bb68-116dcb757d9c.jpg\",\"img/0898/b3290bf9-215b-4b45-b21a-65bdf73f142f.jpg\"]","trial_type":"similarity","trial_index":176,"time_elapsed":1215681,"internal_node_id":"0.0-6.0-170.0"},{"sim_score":3,"rt":4206,"stimulus":"[\"img/0860/17b44a7d-c5ca-479f-9e87-f65a64f5c80e.jpg\",\"img/0766/f5f78e4e-d88f-4866-951a-118ba9fec4d0.jpg\"]","trial_type":"similarity","trial_index":177,"time_elapsed":1220892,"internal_node_id":"0.0-6.0-171.0"},{"sim_score":1,"rt":3407,"stimulus":"[\"img/0898/0af304a2-6a7a-4082-ab7c-4450cd08cc58.jpg\",\"img/0864/5f33e097-23e3-4002-882d-76e8cb15f451.jpg\"]","trial_type":"similarity","trial_index":178,"time_elapsed":1225313,"internal_node_id":"0.0-6.0-172.0"},{"sim_score":3,"rt":5474,"stimulus":"[\"img/0881/7e822106-76f7-4b10-a805-14dc68b2cfaf.jpg\",\"img/0764/c80b3e06-2ee3-4326-9678-340607eb5348.jpg\"]","trial_type":"similarity","trial_index":179,"time_elapsed":1231805,"internal_node_id":"0.0-6.0-173.0"},{"sim_score":2,"rt":6448,"stimulus":"[\"img/0898/26c41340-15bd-4ead-8fe4-c0d0ddca09c2.jpg\",\"img/0868/d6d1f30d-4323-435a-b194-7892521bc57e.jpg\"]","trial_type":"similarity","trial_index":180,"time_elapsed":1239268,"internal_node_id":"0.0-6.0-174.0"},{"sim_score":7,"rt":4042,"stimulus":"[\"img/0864/9b2490c5-a282-400a-9736-e1a0ecbf1cb7.jpg\",\"img/0864/ea327690-500b-4137-bf91-451b309fe6a5.jpg\"]","trial_type":"similarity","trial_index":181,"time_elapsed":1244314,"internal_node_id":"0.0-6.0-175.0"},{"sim_score":5,"rt":4545,"stimulus":"[\"img/0899/8abe6c69-822c-436c-9bf2-96c818b49ba5.jpg\",\"img/0862/1c20f772-3a51-4a80-aac0-f57dc9f86c28.jpg\"]","trial_type":"similarity","trial_index":182,"time_elapsed":1249869,"internal_node_id":"0.0-6.0-176.0"},{"sim_score":4,"rt":6109,"stimulus":"[\"img/0875/42910c99-5463-450a-a0f8-d4d060a11455.jpg\",\"img/0758/20497cbe-ddae-489e-86e2-ab06985ed07c.jpg\"]","trial_type":"similarity","trial_index":183,"time_elapsed":1256985,"internal_node_id":"0.0-6.0-177.0"},{"sim_score":2,"rt":4068,"stimulus":"[\"img/0866/4a87911a-d5be-4d4e-ab8e-3d1f581bf507.jpg\",\"img/0901/4ca4f962-40c0-4c59-b14a-3cd7b8c9029b.jpg\"]","trial_type":"similarity","trial_index":184,"time_elapsed":1262065,"internal_node_id":"0.0-6.0-178.0"},{"sim_score":7,"rt":4116,"stimulus":"[\"img/0769/6c0bac4c-5f59-43c7-898c-3ca93cf55cfe.jpg\",\"img/0874/adf9a8f1-c40b-402b-b95b-1e85a54a7b62.jpg\"]","trial_type":"similarity","trial_index":185,"time_elapsed":1267197,"internal_node_id":"0.0-6.0-179.0"},{"sim_score":2,"rt":3558,"stimulus":"[\"img/0875/2e13d160-eea1-416b-aff1-d37ab99ecc1d.jpg\",\"img/0881/e6746727-7f89-47ec-b939-d98abe78372d.jpg\"]","trial_type":"similarity","trial_index":186,"time_elapsed":1271768,"internal_node_id":"0.0-6.0-180.0"},{"sim_score":6,"rt":4821,"stimulus":"[\"img/0866/11a1d141-be5e-443c-98c1-a9d4d9e3dec0.jpg\",\"img/0868/c8ac40c7-6904-4e13-8d61-c75d3052dc4e.jpg\"]","trial_type":"similarity","trial_index":187,"time_elapsed":1277595,"internal_node_id":"0.0-6.0-181.0"},{"sim_score":5,"rt":6083,"stimulus":"[\"img/0899/f58b8d2f-b19d-4b59-8b94-8834be92e4ba.jpg\",\"img/0758/a085b443-b5d7-4cb2-9ad4-b9dab0fc23f1.jpg\"]","trial_type":"similarity","trial_index":188,"time_elapsed":1284685,"internal_node_id":"0.0-6.0-182.0"},{"sim_score":1,"rt":4777,"stimulus":"[\"img/0874/8cdb1c07-1c32-46d2-981c-3636560fa6e5.jpg\",\"img/0875/5a1e5100-0d94-4fec-bbe9-ca9894d2cf8e.jpg\"]","trial_type":"similarity","trial_index":189,"time_elapsed":1290467,"internal_node_id":"0.0-6.0-183.0"},{"sim_score":2,"rt":6326,"stimulus":"[\"img/0904/4d7d70a3-9477-4921-bda0-f9531d0a5c5b.jpg\",\"img/0862/fb26cb07-d5a9-4653-813c-f41609f26cd5.jpg\"]","trial_type":"similarity","trial_index":190,"time_elapsed":1297813,"internal_node_id":"0.0-6.0-184.0"},{"sim_score":2,"rt":4703,"stimulus":"[\"img/0902/eb3e7e71-8ff1-4b88-a6a7-47e2c1ce1683.jpg\",\"img/0766/006035d8-c736-4daf-bbe4-a9e373af9da6.jpg\"]","trial_type":"similarity","trial_index":191,"time_elapsed":1303522,"internal_node_id":"0.0-6.0-185.0"},{"sim_score":5,"rt":4220,"stimulus":"[\"img/0758/e1ba5e53-addc-436a-b428-d34fc1b130dc.jpg\",\"img/0769/387a9744-d6a7-42b8-bab8-33007ec434aa.jpg\"]","trial_type":"similarity","trial_index":192,"time_elapsed":1308747,"internal_node_id":"0.0-6.0-186.0"},{"sim_score":7,"rt":4174,"stimulus":"[\"img/0881/33d65d80-8a8e-4ecf-852d-0ad7725c17a2.jpg\",\"img/0881/ee44e27f-d662-4608-b265-e7ffa19b216f.jpg\"]","trial_type":"similarity","trial_index":193,"time_elapsed":1313938,"internal_node_id":"0.0-6.0-187.0"},{"sim_score":5,"rt":4216,"stimulus":"[\"img/0758/821c68d3-5cb0-4eae-8659-30e6263fca39.jpg\",\"img/0866/a04d37f0-99dd-478a-b6c6-58b215138f84.jpg\"]","trial_type":"similarity","trial_index":194,"time_elapsed":1319169,"internal_node_id":"0.0-6.0-188.0"},{"sim_score":7,"rt":4351,"stimulus":"[\"img/0764/f990b2e8-ecee-481e-be7c-0239fce350e2.jpg\",\"img/0898/6cd3830b-d44e-4915-be2b-88d31424b91c.jpg\"]","trial_type":"similarity","trial_index":195,"time_elapsed":1324529,"internal_node_id":"0.0-6.0-189.0"},{"sim_score":2,"rt":4936,"stimulus":"[\"img/0903/f1fa0f8d-e62b-4b4a-a174-31a0fabfe61b.jpg\",\"img/0901/b453df0b-4c39-49bb-8ced-6127efffa898.jpg\"]","trial_type":"similarity","trial_index":196,"time_elapsed":1330476,"internal_node_id":"0.0-6.0-190.0"},{"sim_score":7,"rt":4270,"stimulus":"[\"img/0902/bd89a85f-3853-4786-acd6-98818ee29f1c.jpg\",\"img/0898/a114b375-cb89-44ba-9498-74213f1ecdee.jpg\"]","trial_type":"similarity","trial_index":197,"time_elapsed":1335763,"internal_node_id":"0.0-6.0-191.0"},{"sim_score":5,"rt":5875,"stimulus":"[\"img/0864/66091c27-e588-4476-8af9-265dc6be4156.jpg\",\"img/0901/7d4a3388-488d-4e9b-9d32-9d0def7aae8d.jpg\"]","trial_type":"similarity","trial_index":198,"time_elapsed":1342655,"internal_node_id":"0.0-6.0-192.0"},{"sim_score":5,"rt":5765,"stimulus":"[\"img/0894/e2446cf5-cd48-486a-badc-76498e087fbe.jpg\",\"img/0881/609a5e93-38b5-4940-8627-2bf8fad7f802.jpg\"]","trial_type":"similarity","trial_index":199,"time_elapsed":1349429,"internal_node_id":"0.0-6.0-193.0"},{"sim_score":7,"rt":4073,"stimulus":"[\"img/0868/d98ca254-b195-477f-b57e-5760a2717db8.jpg\",\"img/0868/09a9ef4d-d000-4cfa-a6aa-ebec7c2edeb4.jpg\"]","trial_type":"similarity","trial_index":200,"time_elapsed":1354522,"internal_node_id":"0.0-6.0-194.0"},{"sim_score":7,"rt":3927,"stimulus":"[\"img/0899/ddf96ade-692e-4602-bd22-dedbb46401bc.jpg\",\"img/0764/4952d0a0-c9be-471a-8ec7-94a37bf4051d.jpg\"]","trial_type":"similarity","trial_index":201,"time_elapsed":1359460,"internal_node_id":"0.0-6.0-195.0"},{"sim_score":3,"rt":4540,"stimulus":"[\"img/0881/f8bd891e-aa09-4782-89db-33e7cb2b0cf1.jpg\",\"img/0904/b5855d6a-7ef9-46ca-9215-6e9fa046e543.jpg\"]","trial_type":"similarity","trial_index":202,"time_elapsed":1365007,"internal_node_id":"0.0-6.0-196.0"},{"sim_score":2,"rt":4707,"stimulus":"[\"img/0864/5f74a653-3bdc-4308-8cca-ac667dc22e1f.jpg\",\"img/0902/5b45a7a0-81c8-4a71-aaa2-2ce09adb5a29.jpg\"]","trial_type":"similarity","trial_index":203,"time_elapsed":1370725,"internal_node_id":"0.0-6.0-197.0"},{"sim_score":5,"rt":3966,"stimulus":"[\"img/0894/10f22b96-040c-44f4-950b-a4963f3f506c.jpg\",\"img/0904/06dacdc5-2206-4fb8-92b7-88042d22833c.jpg\"]","trial_type":"similarity","trial_index":204,"time_elapsed":1375709,"internal_node_id":"0.0-6.0-198.0"},{"sim_score":6,"rt":4730,"stimulus":"[\"img/0901/50e1d53e-a49f-4806-8610-be6dec5a2475.jpg\",\"img/0901/693e0535-ef7e-4d60-af9d-fac2f38e8307.jpg\"]","trial_type":"similarity","trial_index":205,"time_elapsed":1381447,"internal_node_id":"0.0-6.0-199.0"},{"sim_score":4,"rt":6524,"stimulus":"[\"img/0894/7fb082e0-ce79-485c-9109-04367fb32275.jpg\",\"img/0860/e14d67c1-6d92-4f1e-9257-c8607159c19c.jpg\"]","trial_type":"similarity","trial_index":206,"time_elapsed":1388975,"internal_node_id":"0.0-6.0-200.0"},{"sim_score":7,"rt":3715,"stimulus":"[\"img/0898/a8f16b02-e19f-423b-86c3-a36562ae1f9b.jpg\",\"img/0903/81368973-de81-46f4-844f-b901f3bfd66d.jpg\"]","trial_type":"similarity","trial_index":207,"time_elapsed":1393703,"internal_node_id":"0.0-6.0-201.0"},{"sim_score":3,"rt":5057,"stimulus":"[\"img/0864/3d4de670-b290-4285-9c3d-12a0e3af44e9.jpg\",\"img/0894/1b3888e6-cf36-4c4a-a039-187aa5cb71ac.jpg\"]","trial_type":"similarity","trial_index":208,"time_elapsed":1399773,"internal_node_id":"0.0-6.0-202.0"},{"sim_score":3,"rt":4388,"stimulus":"[\"img/0874/ca23d307-fc00-4d7d-9106-584c6eb21b4d.jpg\",\"img/0860/94ef7afc-e0e6-4a15-98c6-0bfac82bc832.jpg\"]","trial_type":"similarity","trial_index":209,"time_elapsed":1405171,"internal_node_id":"0.0-6.0-203.0"},{"sim_score":5,"rt":6510,"stimulus":"[\"img/0862/7918ca67-5bd3-4606-a5ea-c39fb11a9297.jpg\",\"img/0875/34132396-d896-4c2d-8087-646dd867e769.jpg\"]","trial_type":"similarity","trial_index":210,"time_elapsed":1412684,"internal_node_id":"0.0-6.0-204.0"},{"sim_score":2,"rt":3916,"stimulus":"[\"img/0867/c71dc569-f49c-4397-8381-68b8d726736d.jpg\",\"img/0881/4bd34581-94d8-4e88-8c89-5cef864ca3be.jpg\"]","trial_type":"similarity","trial_index":211,"time_elapsed":1417608,"internal_node_id":"0.0-6.0-205.0"},{"sim_score":7,"rt":3508,"stimulus":"[\"img/0901/c6c877e0-dd63-4e00-9657-33af29d55aab.jpg\",\"img/0902/b56db912-c3c0-4fc2-b325-d640acd7cb58.jpg\"]","trial_type":"similarity","trial_index":212,"time_elapsed":1422129,"internal_node_id":"0.0-6.0-206.0"},{"sim_score":6,"rt":4250,"stimulus":"[\"img/0899/a048912c-b12c-40e3-90af-46b69b0cc4fe.jpg\",\"img/0864/1d15626a-2f7c-410f-819c-0fa2c967e95e.jpg\"]","trial_type":"similarity","trial_index":213,"time_elapsed":1427390,"internal_node_id":"0.0-6.0-207.0"},{"sim_score":3,"rt":3973,"stimulus":"[\"img/0901/0adb3bd6-d758-4ba7-9723-3ad6cac05bd5.jpg\",\"img/0769/4a1d0b52-3fe8-40fb-bb1c-c814fe49a68c.jpg\"]","trial_type":"similarity","trial_index":214,"time_elapsed":1432382,"internal_node_id":"0.0-6.0-208.0"},{"sim_score":7,"rt":3835,"stimulus":"[\"img/0902/af45fe42-178c-4c1a-99ef-256e87e3b092.jpg\",\"img/0902/168ebd47-9e82-4ab7-a18b-c3da85072db8.jpg\"]","trial_type":"similarity","trial_index":215,"time_elapsed":1447264,"internal_node_id":"0.0-6.0-209.0"},{"view_history":"[{\"page_index\":0,\"viewing_time\":10186}]","rt":10186,"trial_type":"instructions","trial_index":216,"time_elapsed":1458459,"internal_node_id":"0.0-7.0"},{"rt":43061,"responses":"{\"Q0\":\"Orange-crowned Warbler\"}","answer":["Nashville Warbler"],"trial_type":"image-multi-choice","trial_index":217,"time_elapsed":1502561,"internal_node_id":"0.0-8.0-0.0"},{"rt":12498,"responses":"{\"Q0\":\"Black-and-white Warbler\"}","answer":["Black-and-white Warbler"],"trial_type":"image-multi-choice","trial_index":218,"time_elapsed":1516077,"internal_node_id":"0.0-8.0-1.0"},{"rt":11808,"responses":"{\"Q0\":\"Townsend's Warbler\"}","answer":["Townsend's Warbler"],"trial_type":"image-multi-choice","trial_index":219,"time_elapsed":1528903,"internal_node_id":"0.0-8.0-2.0"},{"rt":34929,"responses":"{\"Q0\":\"Lark Sparrow\"}","answer":["Lark Sparrow"],"trial_type":"image-multi-choice","trial_index":220,"time_elapsed":1564864,"internal_node_id":"0.0-8.0-3.0"},{"rt":8951,"responses":"{\"Q0\":\"Yellow Warbler\"}","answer":["Yellow Warbler"],"trial_type":"image-multi-choice","trial_index":221,"time_elapsed":1574832,"internal_node_id":"0.0-8.0-4.0"},{"rt":77432,"responses":"{\"Q0\":\"Nashville Warbler\"}","answer":["Orange-crowned Warbler"],"trial_type":"image-multi-choice","trial_index":222,"time_elapsed":1653286,"internal_node_id":"0.0-8.0-5.0"},{"rt":12823,"responses":"{\"Q0\":\"White-throated Sparrow\"}","answer":["White-throated Sparrow"],"trial_type":"image-multi-choice","trial_index":223,"time_elapsed":1667131,"internal_node_id":"0.0-8.0-6.0"},{"rt":7169,"responses":"{\"Q0\":\"Fox Sparrow\"}","answer":["Fox Sparrow"],"trial_type":"image-multi-choice","trial_index":224,"time_elapsed":1675327,"internal_node_id":"0.0-8.0-7.0"},{"rt":46739,"responses":"{\"Q0\":\"Lincoln's Sparrow\"}","answer":["Song Sparrow"],"trial_type":"image-multi-choice","trial_index":225,"time_elapsed":1723086,"internal_node_id":"0.0-8.0-8.0"},{"rt":8120,"responses":"{\"Q0\":\"Blackburnian Warbler\"}","answer":["Blackburnian Warbler"],"trial_type":"image-multi-choice","trial_index":226,"time_elapsed":1732217,"internal_node_id":"0.0-8.0-9.0"},{"rt":24390,"responses":"{\"Q0\":\"Lincoln's Sparrow\"}","answer":["Vesper Sparrow"],"trial_type":"image-multi-choice","trial_index":227,"time_elapsed":1757639,"internal_node_id":"0.0-8.0-10.0"},{"rt":5600,"responses":"{\"Q0\":\"White-crowned Sparrow\"}","answer":["White-crowned Sparrow"],"trial_type":"image-multi-choice","trial_index":228,"time_elapsed":1764271,"internal_node_id":"0.0-8.0-11.0"},{"rt":27176,"responses":"{\"Q0\":\"Chipping Sparrow\"}","answer":["American Tree Sparrow"],"trial_type":"image-multi-choice","trial_index":229,"time_elapsed":1792466,"internal_node_id":"0.0-8.0-12.0"},{"rt":12238,"responses":"{\"Q0\":\"Ovenbird\"}","answer":["Tennessee Warbler"],"trial_type":"image-multi-choice","trial_index":230,"time_elapsed":1805721,"internal_node_id":"0.0-8.0-13.0"},{"rt":10476,"responses":"{\"Q0\":\"Magnolia Warbler\"}","answer":["Magnolia Warbler"],"trial_type":"image-multi-choice","trial_index":231,"time_elapsed":1817231,"internal_node_id":"0.0-8.0-14.0"},{"rt":8921,"responses":"{\"Q0\":\"Ovenbird\"}","answer":["Northern Waterthrush"],"trial_type":"image-multi-choice","trial_index":232,"time_elapsed":1827167,"internal_node_id":"0.0-8.0-15.0"},{"rt":34248,"responses":"{\"Q0\":\"Vesper Sparrow\"}","answer":["Chipping Sparrow"],"trial_type":"image-multi-choice","trial_index":233,"time_elapsed":1862427,"internal_node_id":"0.0-8.0-16.0"},{"rt":16714,"responses":"{\"Q0\":\"Chipping Sparrow\"}","answer":["Swamp Sparrow"],"trial_type":"image-multi-choice","trial_index":234,"time_elapsed":1880155,"internal_node_id":"0.0-8.0-17.0"},{"rt":35697,"responses":"{\"Q0\":\"Swamp Sparrow\"}","answer":["Lincoln's Sparrow"],"trial_type":"image-multi-choice","trial_index":235,"time_elapsed":1916870,"internal_node_id":"0.0-8.0-18.0"},{"rt":29734,"responses":"{\"Q0\":\"Northern Waterthrush\"}","answer":["Ovenbird"],"trial_type":"image-multi-choice","trial_index":236,"time_elapsed":1947625,"internal_node_id":"0.0-8.0-19.0"}]