[{"view_history":"[{\"page_index\":0,\"viewing_time\":21330}]","rt":21330,"trial_type":"instructions","trial_index":0,"time_elapsed":21332,"internal_node_id":"0.0-0.0"},{"sim_score":3,"rt":10623,"stimulus":"[\"img/866.jpg\",\"img/868.jpg\"]","trial_type":"similarity_demo","trial_index":1,"time_elapsed":32967,"internal_node_id":"0.0-1.0"},{"view_history":"[{\"page_index\":0,\"viewing_time\":15110}]","rt":15110,"trial_type":"instructions","trial_index":2,"time_elapsed":49089,"internal_node_id":"0.0-2.0"},{"sim_score":3,"rt":5675,"stimulus":"[\"img/766.jpg\",\"img/867.jpg\"]","trial_type":"similarity_demo","trial_index":3,"time_elapsed":55781,"internal_node_id":"0.0-3.0"},{"view_history":"[{\"page_index\":0,\"viewing_time\":6113}]","rt":6113,"trial_type":"instructions","trial_index":4,"time_elapsed":62904,"internal_node_id":"0.0-4.0"},{"view_history":"[{\"page_index\":0,\"viewing_time\":23467}]","rt":23467,"trial_type":"instructions","trial_index":5,"time_elapsed":87385,"internal_node_id":"0.0-5.0"},{"sim_score":2,"rt":8104,"stimulus":"[\"img/0868/77091fc7-a590-4ebb-b915-fdb2483a2399.jpg\",\"img/0901/fb0a8e69-7f19-4e6e-a6bb-a48f97f9b4f3.jpg\"]","trial_type":"similarity","trial_index":6,"time_elapsed":96494,"internal_node_id":"0.0-6.0-0.0"},{"sim_score":3,"rt":6399,"stimulus":"[\"img/0769/48a1144d-fbda-4809-991b-fc8424a32ee4.jpg\",\"img/0867/6e19c858-b606-45b2-a4c6-910a73f1d82c.jpg\"]","trial_type":"similarity","trial_index":7,"time_elapsed":103897,"internal_node_id":"0.0-6.0-1.0"},{"sim_score":4,"rt":4917,"stimulus":"[\"img/0766/75c3d627-4f3b-40d5-9d9c-10c8a62db644.jpg\",\"img/0898/c3cecf20-f7fd-45fa-97d0-dc0a63e8d6c0.jpg\"]","trial_type":"similarity","trial_index":8,"time_elapsed":109822,"internal_node_id":"0.0-6.0-2.0"},{"sim_score":3,"rt":5721,"stimulus":"[\"img/0902/2a7ac123-414a-476a-9a96-4757b924baef.jpg\",\"img/0881/344de456-b358-4887-bd0e-e4c3278af887.jpg\"]","trial_type":"similarity","trial_index":9,"time_elapsed":116545,"internal_node_id":"0.0-6.0-3.0"},{"sim_score":6,"rt":6483,"stimulus":"[\"img/0894/1b3888e6-cf36-4c4a-a039-187aa5cb71ac.jpg\",\"img/0894/5a49e858-2850-4892-9a06-e9f0efb5f94d.jpg\"]","trial_type":"similarity","trial_index":10,"time_elapsed":124034,"internal_node_id":"0.0-6.0-4.0"},{"sim_score":4,"rt":5019,"stimulus":"[\"img/0874/c0378dac-9370-439a-8b79-db27c96fb390.jpg\",\"img/0899/1b3457ea-87d4-4946-a01c-aac1863ed46c.jpg\"]","trial_type":"similarity","trial_index":11,"time_elapsed":130069,"internal_node_id":"0.0-6.0-5.0"},{"sim_score":4,"rt":4576,"stimulus":"[\"img/0904/d23dd7be-7fe8-4435-82f7-bd592c01e6a1.jpg\",\"img/0764/b8e23f4f-ff19-4472-ad9b-2f85548ebca0.jpg\"]","trial_type":"similarity","trial_index":12,"time_elapsed":135649,"internal_node_id":"0.0-6.0-6.0"},{"sim_score":4,"rt":4465,"stimulus":"[\"img/0899/00715b3f-851b-420b-a26b-d7f79f7759a9.jpg\",\"img/0898/08c72dac-f8ad-407a-9ce6-8c9a5d679c3a.jpg\"]","trial_type":"similarity","trial_index":13,"time_elapsed":141129,"internal_node_id":"0.0-6.0-7.0"},{"sim_score":4,"rt":6390,"stimulus":"[\"img/0874/adf9a8f1-c40b-402b-b95b-1e85a54a7b62.jpg\",\"img/0903/470acfd5-5571-4a7b-b3a4-28d87e098138.jpg\"]","trial_type":"similarity","trial_index":14,"time_elapsed":148530,"internal_node_id":"0.0-6.0-8.0"},{"sim_score":7,"rt":5644,"stimulus":"[\"img/0881/566f45f8-5fed-4479-a60f-26377e60a62d.jpg\",\"img/0758/b76ceca7-95ac-46e4-ac13-da02c8e93be9.jpg\"]","trial_type":"similarity","trial_index":15,"time_elapsed":155177,"internal_node_id":"0.0-6.0-9.0"},{"sim_score":5,"rt":7176,"stimulus":"[\"img/0898/881e2a85-d5c2-49be-a0c6-8a6ce2c4af08.jpg\",\"img/0901/5657dd86-0ff9-4753-ba2b-9dfb223e5c89.jpg\"]","trial_type":"similarity","trial_index":16,"time_elapsed":163360,"internal_node_id":"0.0-6.0-10.0"},{"sim_score":4,"rt":4782,"stimulus":"[\"img/0903/71dbc325-b588-4297-a5cf-7f268a722ad9.jpg\",\"img/0769/7c50e5f5-cc38-4d48-b009-fbe17bcea61c.jpg\"]","trial_type":"similarity","trial_index":17,"time_elapsed":169160,"internal_node_id":"0.0-6.0-11.0"},{"sim_score":3,"rt":4461,"stimulus":"[\"img/0764/5c8fbafc-e62e-43ed-9b37-f73e8e45147d.jpg\",\"img/0868/09a9ef4d-d000-4cfa-a6aa-ebec7c2edeb4.jpg\"]","trial_type":"similarity","trial_index":18,"time_elapsed":174632,"internal_node_id":"0.0-6.0-12.0"},{"sim_score":3,"rt":4612,"stimulus":"[\"img/0867/f8488a47-94ee-4166-952c-44e16cf172f6.jpg\",\"img/0903/365f176c-25a4-4973-bd3c-279bf1b39476.jpg\"]","trial_type":"similarity","trial_index":19,"time_elapsed":180252,"internal_node_id":"0.0-6.0-13.0"},{"sim_score":3,"rt":4581,"stimulus":"[\"img/0766/27f54113-8561-4568-9ffe-0a1650ae65ec.jpg\",\"img/0758/e1ba5e53-addc-436a-b428-d34fc1b130dc.jpg\"]","trial_type":"similarity","trial_index":20,"time_elapsed":185844,"internal_node_id":"0.0-6.0-14.0"},{"sim_score":4,"rt":4777,"stimulus":"[\"img/0902/62f11694-7ed7-4cb7-8a73-9e95c43824e7.jpg\",\"img/0860/b03b963d-949b-4d8d-b19c-4950c89eeca2.jpg\"]","trial_type":"similarity","trial_index":21,"time_elapsed":191632,"internal_node_id":"0.0-6.0-15.0"},{"sim_score":3,"rt":4968,"stimulus":"[\"img/0769/458d9c77-b844-40b5-bb1b-1e3bbd4da64e.jpg\",\"img/0875/d59ff733-eaff-4ee2-9443-06954dd0bcb6.jpg\"]","trial_type":"similarity","trial_index":22,"time_elapsed":197616,"internal_node_id":"0.0-6.0-16.0"},{"sim_score":3,"rt":6014,"stimulus":"[\"img/0904/e9423a8c-f946-43ad-ab7b-931acef870e2.jpg\",\"img/0866/386235d2-6857-41e7-88a8-25cfc3430025.jpg\"]","trial_type":"similarity","trial_index":23,"time_elapsed":204645,"internal_node_id":"0.0-6.0-17.0"},{"sim_score":6,"rt":5538,"stimulus":"[\"img/0875/527ced51-8e53-4aab-ab05-86df219104c0.jpg\",\"img/0875/99698b4d-b4a1-44bc-8c83-8ea755bbbf61.jpg\"]","trial_type":"similarity","trial_index":24,"time_elapsed":211200,"internal_node_id":"0.0-6.0-18.0"},{"sim_score":7,"rt":4855,"stimulus":"[\"img/0758/d540bee6-b460-4c32-ac57-bc282742d7d4.jpg\",\"img/0758/53f35650-e455-4b53-8be4-c3c8271c6466.jpg\"]","trial_type":"similarity","trial_index":25,"time_elapsed":217072,"internal_node_id":"0.0-6.0-19.0"},{"sim_score":3,"rt":4454,"stimulus":"[\"img/0902/af40b98b-3d23-4d95-b401-49ba5783ce39.jpg\",\"img/0874/99f6563c-8a8d-4c1c-a41d-667b618c3fd5.jpg\"]","trial_type":"similarity","trial_index":26,"time_elapsed":222537,"internal_node_id":"0.0-6.0-20.0"},{"sim_score":7,"rt":5539,"stimulus":"[\"img/0764/cbdc4f20-3a9a-4211-9b40-090699e0abcc.jpg\",\"img/0769/c34b7763-8ff2-46d5-9e92-f1d8f3bedbd8.jpg\"]","trial_type":"similarity","trial_index":27,"time_elapsed":229080,"internal_node_id":"0.0-6.0-21.0"},{"sim_score":3,"rt":4966,"stimulus":"[\"img/0901/875dedb9-24c9-4443-9f8c-85e97d70ee5a.jpg\",\"img/0874/995f0332-0439-4eb4-add3-957335dbf6d9.jpg\"]","trial_type":"similarity","trial_index":28,"time_elapsed":235052,"internal_node_id":"0.0-6.0-22.0"},{"sim_score":3,"rt":4222,"stimulus":"[\"img/0875/5a7c4e35-6514-4e12-8879-d16071da4cd6.jpg\",\"img/0903/0e5c2854-42aa-48c0-9c3d-6e1ad2a400bd.jpg\"]","trial_type":"similarity","trial_index":29,"time_elapsed":240288,"internal_node_id":"0.0-6.0-23.0"},{"sim_score":3,"rt":4228,"stimulus":"[\"img/0769/f2740c58-7c02-433f-920b-746b0b75435b.jpg\",\"img/0881/19e82c47-8e4b-45d2-a6c8-74181eb4155e.jpg\"]","trial_type":"similarity","trial_index":30,"time_elapsed":245536,"internal_node_id":"0.0-6.0-24.0"},{"sim_score":3,"rt":4542,"stimulus":"[\"img/0867/c71dc569-f49c-4397-8381-68b8d726736d.jpg\",\"img/0904/da170c1b-9651-4f08-b231-2bdd1d9a046f.jpg\"]","trial_type":"similarity","trial_index":31,"time_elapsed":251081,"internal_node_id":"0.0-6.0-25.0"},{"sim_score":5,"rt":5695,"stimulus":"[\"img/0860/5383b320-1518-4095-a58e-5cc1ae30b64c.jpg\",\"img/0881/ee44e27f-d662-4608-b265-e7ffa19b216f.jpg\"]","trial_type":"similarity","trial_index":32,"time_elapsed":257793,"internal_node_id":"0.0-6.0-26.0"},{"sim_score":7,"rt":5318,"stimulus":"[\"img/0866/a04d37f0-99dd-478a-b6c6-58b215138f84.jpg\",\"img/0866/8efcaa46-83ab-4dee-a35f-850402aa21ae.jpg\"]","trial_type":"similarity","trial_index":33,"time_elapsed":264128,"internal_node_id":"0.0-6.0-27.0"},{"sim_score":3,"rt":5087,"stimulus":"[\"img/0764/ca957454-126a-4bd3-b29c-7174a24c25dc.jpg\",\"img/0862/00c06b00-3b73-44e9-bc1e-c5aafb438321.jpg\"]","trial_type":"similarity","trial_index":34,"time_elapsed":270220,"internal_node_id":"0.0-6.0-28.0"},{"sim_score":2,"rt":6099,"stimulus":"[\"img/0904/ba8e689e-9ca6-4608-a2a1-3b0940666ae6.jpg\",\"img/0758/e38fd80d-18d0-42f3-b848-f930788e8bd7.jpg\"]","trial_type":"similarity","trial_index":35,"time_elapsed":277336,"internal_node_id":"0.0-6.0-29.0"},{"sim_score":4,"rt":5080,"stimulus":"[\"img/0894/492d2f29-d7b9-4422-8be8-47fd58bfaa8b.jpg\",\"img/0899/d8f2dd94-570e-4e8c-a087-d96090fb9e8c.jpg\"]","trial_type":"similarity","trial_index":36,"time_elapsed":283432,"internal_node_id":"0.0-6.0-30.0"},{"sim_score":4,"rt":5007,"stimulus":"[\"img/0860/31ff6436-98bf-4652-bed2-40f627229568.jpg\",\"img/0904/4b8daf2a-13a9-4ea9-9e0b-b265b6e933e7.jpg\"]","trial_type":"similarity","trial_index":37,"time_elapsed":289452,"internal_node_id":"0.0-6.0-31.0"},{"sim_score":5,"rt":4600,"stimulus":"[\"img/0874/a3bc679d-619f-4db6-bb68-116dcb757d9c.jpg\",\"img/0881/d373cb9f-a719-4549-a2a4-82def79fb2a5.jpg\"]","trial_type":"similarity","trial_index":38,"time_elapsed":295063,"internal_node_id":"0.0-6.0-32.0"},{"sim_score":3,"rt":3982,"stimulus":"[\"img/0881/f62bdcd1-a4b7-4d48-83da-d9c9e01c8727.jpg\",\"img/0899/5b56dd3e-3f49-47cc-af84-16da6457753b.jpg\"]","trial_type":"similarity","trial_index":39,"time_elapsed":300064,"internal_node_id":"0.0-6.0-33.0"},{"sim_score":3,"rt":4369,"stimulus":"[\"img/0866/11a1d141-be5e-443c-98c1-a9d4d9e3dec0.jpg\",\"img/0862/7918ca67-5bd3-4606-a5ea-c39fb11a9297.jpg\"]","trial_type":"similarity","trial_index":40,"time_elapsed":305448,"internal_node_id":"0.0-6.0-34.0"},{"sim_score":3,"rt":5255,"stimulus":"[\"img/0868/8b0b8473-e2c0-4331-aa56-c3a5c29369da.jpg\",\"img/0894/5f15154e-e72e-4ce5-aafb-bce6f0564006.jpg\"]","trial_type":"similarity","trial_index":41,"time_elapsed":311716,"internal_node_id":"0.0-6.0-35.0"},{"sim_score":7,"rt":5688,"stimulus":"[\"img/0860/4a022222-056d-461c-ab02-39fac9647552.jpg\",\"img/0860/9593362c-9fe5-4d12-9735-6000a11f6aa5.jpg\"]","trial_type":"similarity","trial_index":42,"time_elapsed":318408,"internal_node_id":"0.0-6.0-36.0"},{"sim_score":3,"rt":5813,"stimulus":"[\"img/0862/ba89835a-408c-480b-8594-ed4ffa97eb5c.jpg\",\"img/0864/300bb811-8b3c-4c42-8653-6097c3725197.jpg\"]","trial_type":"similarity","trial_index":43,"time_elapsed":325240,"internal_node_id":"0.0-6.0-37.0"},{"sim_score":2,"rt":4904,"stimulus":"[\"img/0766/d919cedb-f9b7-4f30-83bb-3e9c65001ceb.jpg\",\"img/0866/4a87911a-d5be-4d4e-ab8e-3d1f581bf507.jpg\"]","trial_type":"similarity","trial_index":44,"time_elapsed":331149,"internal_node_id":"0.0-6.0-38.0"},{"sim_score":1,"rt":5907,"stimulus":"[\"img/0875/8521fd58-3b1e-4dc5-97ae-804edfa6734a.jpg\",\"img/0898/4184e5a2-84ea-4f36-9b42-ae58646f6f87.jpg\"]","trial_type":"similarity","trial_index":45,"time_elapsed":338060,"internal_node_id":"0.0-6.0-39.0"},{"sim_score":5,"rt":6475,"stimulus":"[\"img/0766/69e486f7-dbef-456b-9d48-53d814248a28.jpg\",\"img/0769/da36e3f7-2337-434f-ab57-11822dd7eed7.jpg\"]","trial_type":"similarity","trial_index":46,"time_elapsed":345553,"internal_node_id":"0.0-6.0-40.0"},{"sim_score":3,"rt":4547,"stimulus":"[\"img/0874/2c9464dd-8a23-4baa-ac94-1ba3af5c15cc.jpg\",\"img/0764/b328441c-f81c-486c-9eae-b947c70ba7cd.jpg\"]","trial_type":"similarity","trial_index":47,"time_elapsed":360687,"internal_node_id":"0.0-6.0-41.0"},{"sim_score":3,"rt":5148,"stimulus":"[\"img/0868/d6d1f30d-4323-435a-b194-7892521bc57e.jpg\",\"img/0902/07437a16-3d0f-4a5c-89ec-36d0efa4b3b8.jpg\"]","trial_type":"similarity","trial_index":48,"time_elapsed":366849,"internal_node_id":"0.0-6.0-42.0"},{"sim_score":2,"rt":4267,"stimulus":"[\"img/0875/fb732ab5-013a-4366-9f65-27811ed157e9.jpg\",\"img/0899/d60714ae-98d7-4564-8c98-94dba1351135.jpg\"]","trial_type":"similarity","trial_index":49,"time_elapsed":372124,"internal_node_id":"0.0-6.0-43.0"},{"sim_score":1,"rt":5214,"stimulus":"[\"img/0866/be24ab58-230e-4db8-9f45-ff04c9aec6bb.jpg\",\"img/0860/702bd09d-df3a-40aa-a267-5f04474305b5.jpg\"]","trial_type":"similarity","trial_index":50,"time_elapsed":378352,"internal_node_id":"0.0-6.0-44.0"},{"sim_score":4,"rt":5468,"stimulus":"[\"img/0766/33519c22-aaa4-49d7-8d49-ab551db1945e.jpg\",\"img/0903/45e2d600-57ff-4d69-b22c-0c7896cd38f0.jpg\"]","trial_type":"similarity","trial_index":51,"time_elapsed":384824,"internal_node_id":"0.0-6.0-45.0"},{"sim_score":1,"rt":5260,"stimulus":"[\"img/0901/a373612d-67e2-4fec-9764-21d3d6ef6359.jpg\",\"img/0904/2fd488e9-960f-41f7-8a44-33375f7d5051.jpg\"]","trial_type":"similarity","trial_index":52,"time_elapsed":391088,"internal_node_id":"0.0-6.0-46.0"},{"sim_score":2,"rt":7324,"stimulus":"[\"img/0758/d57c2592-a317-4f63-91be-91a3a9afd222.jpg\",\"img/0902/418b716e-63e5-4c77-93e9-95b1f5a3ddf0.jpg\"]","trial_type":"similarity","trial_index":53,"time_elapsed":399420,"internal_node_id":"0.0-6.0-47.0"},{"sim_score":7,"rt":4046,"stimulus":"[\"img/0764/6fbd1902-fa2a-48d8-bc11-705b8ab68d8f.jpg\",\"img/0764/ec2dd087-c471-4370-b570-95a542506a96.jpg\"]","trial_type":"similarity","trial_index":54,"time_elapsed":404480,"internal_node_id":"0.0-6.0-48.0"},{"sim_score":2,"rt":4258,"stimulus":"[\"img/0866/0207e9a2-7dbb-40b5-9459-b472aaeceb2a.jpg\",\"img/0902/b56db912-c3c0-4fc2-b325-d640acd7cb58.jpg\"]","trial_type":"similarity","trial_index":55,"time_elapsed":409740,"internal_node_id":"0.0-6.0-49.0"},{"sim_score":1,"rt":4045,"stimulus":"[\"img/0764/713cc27e-2338-4486-bfe9-5f5725fbd7a0.jpg\",\"img/0758/7ffbc76b-1fc1-432c-8f7e-9ec8d1b3f643.jpg\"]","trial_type":"similarity","trial_index":56,"time_elapsed":414788,"internal_node_id":"0.0-6.0-50.0"},{"sim_score":2,"rt":4800,"stimulus":"[\"img/0898/661621d4-a14e-487c-8c74-354134a29710.jpg\",\"img/0894/b2d2f66e-e480-46da-a02a-6d0c6b285d78.jpg\"]","trial_type":"similarity","trial_index":57,"time_elapsed":420593,"internal_node_id":"0.0-6.0-51.0"},{"sim_score":6,"rt":5645,"stimulus":"[\"img/0875/5a716432-c6ca-4b1c-955a-2b8ac25198ee.jpg\",\"img/0866/945c6710-d15b-4a5b-a8f6-69af0850357f.jpg\"]","trial_type":"similarity","trial_index":58,"time_elapsed":427252,"internal_node_id":"0.0-6.0-52.0"},{"sim_score":7,"rt":4545,"stimulus":"[\"img/0904/25365108-e038-4021-aac9-797f2063b337.jpg\",\"img/0904/5aec2708-cf14-4a58-aa30-9a8a61c1be0e.jpg\"]","trial_type":"similarity","trial_index":59,"time_elapsed":432800,"internal_node_id":"0.0-6.0-53.0"},{"sim_score":7,"rt":5400,"stimulus":"[\"img/0769/a3cfbdeb-acb3-4eac-87fb-4b117f42d4f8.jpg\",\"img/0769/d1be2815-fa79-46e8-b5c3-7d81caaca490.jpg\"]","trial_type":"similarity","trial_index":60,"time_elapsed":439217,"internal_node_id":"0.0-6.0-54.0"},{"sim_score":1,"rt":4324,"stimulus":"[\"img/0898/82231d4c-218b-4d0a-b50d-35a49b524e97.jpg\",\"img/0758/65d426d6-3ff6-415d-8654-a43b83ecc4fe.jpg\"]","trial_type":"similarity","trial_index":61,"time_elapsed":444548,"internal_node_id":"0.0-6.0-55.0"},{"sim_score":3,"rt":5613,"stimulus":"[\"img/0769/96556ef3-7fac-4c9d-8281-1cb0ea5081bc.jpg\",\"img/0902/7499db23-3a41-41ea-ab5b-6ab4d4c3ed35.jpg\"]","trial_type":"similarity","trial_index":62,"time_elapsed":451164,"internal_node_id":"0.0-6.0-56.0"},{"sim_score":6,"rt":6850,"stimulus":"[\"img/0864/9b2490c5-a282-400a-9736-e1a0ecbf1cb7.jpg\",\"img/0881/e046471a-35b4-4159-bbf7-3cfd201bef66.jpg\"]","trial_type":"similarity","trial_index":63,"time_elapsed":459032,"internal_node_id":"0.0-6.0-57.0"},{"sim_score":4,"rt":5721,"stimulus":"[\"img/0758/3ddd05d3-557e-4ee7-8b78-9d2d681d8ae2.jpg\",\"img/0868/7b212364-ff5f-4e28-9241-7eb6ea00161b.jpg\"]","trial_type":"similarity","trial_index":64,"time_elapsed":465763,"internal_node_id":"0.0-6.0-58.0"},{"sim_score":4,"rt":5721,"stimulus":"[\"img/0862/ee3b7bff-4a70-4e84-9bea-4a565e456acb.jpg\",\"img/0769/1ca58b80-2365-446d-9616-6c1719e6c46f.jpg\"]","trial_type":"similarity","trial_index":65,"time_elapsed":472499,"internal_node_id":"0.0-6.0-59.0"},{"sim_score":1,"rt":6169,"stimulus":"[\"img/0764/5d83b9db-3b2b-4dc8-9bd1-2b515b19c858.jpg\",\"img/0903/4cbdc464-e562-4ec2-9bb6-15f894fdf528.jpg\"]","trial_type":"similarity","trial_index":66,"time_elapsed":479671,"internal_node_id":"0.0-6.0-60.0"},{"sim_score":7,"rt":5674,"stimulus":"[\"img/0899/fef567a2-c121-4481-9af0-ff108d199bbf.jpg\",\"img/0899/66ab3178-c3fe-4455-ad17-d5952b08e018.jpg\"]","trial_type":"similarity","trial_index":67,"time_elapsed":486363,"internal_node_id":"0.0-6.0-61.0"},{"sim_score":5,"rt":6511,"stimulus":"[\"img/0860/f44ba3fb-03a2-42f0-8509-2c1ded493086.jpg\",\"img/0875/cff79b3a-a797-4393-9757-6275f999ec04.jpg\"]","trial_type":"similarity","trial_index":68,"time_elapsed":493883,"internal_node_id":"0.0-6.0-62.0"},{"sim_score":1,"rt":3597,"stimulus":"[\"img/0868/4bd5105a-d2c3-4f82-8c80-57196106ba53.jpg\",\"img/0874/a82926a3-0b43-4add-803c-d5f9ea7798ee.jpg\"]","trial_type":"similarity","trial_index":69,"time_elapsed":498484,"internal_node_id":"0.0-6.0-63.0"},{"sim_score":2,"rt":7013,"stimulus":"[\"img/0758/335851a0-a55b-46d8-ab05-8463eda48349.jpg\",\"img/0862/f43ceabf-acc1-4107-b857-5d1849808f93.jpg\"]","trial_type":"similarity","trial_index":70,"time_elapsed":506507,"internal_node_id":"0.0-6.0-64.0"},{"sim_score":7,"rt":5041,"stimulus":"[\"img/0904/63dd06dd-dccb-47ba-9740-eb33239e18a7.jpg\",\"img/0898/6cd3830b-d44e-4915-be2b-88d31424b91c.jpg\"]","trial_type":"similarity","trial_index":71,"time_elapsed":512555,"internal_node_id":"0.0-6.0-65.0"},{"sim_score":5,"rt":4356,"stimulus":"[\"img/0881/667e2147-d457-4f32-aa5f-6ab86e5848f1.jpg\",\"img/0866/d493a2c8-66eb-44b4-be02-2f327b700b7c.jpg\"]","trial_type":"similarity","trial_index":72,"time_elapsed":517915,"internal_node_id":"0.0-6.0-66.0"},{"sim_score":2,"rt":4403,"stimulus":"[\"img/0867/de92135f-5b65-4ed9-b245-188292c7c2f8.jpg\",\"img/0898/a114b375-cb89-44ba-9498-74213f1ecdee.jpg\"]","trial_type":"similarity","trial_index":73,"time_elapsed":523328,"internal_node_id":"0.0-6.0-67.0"},{"sim_score":5,"rt":5887,"stimulus":"[\"img/0902/bd89a85f-3853-4786-acd6-98818ee29f1c.jpg\",\"img/0764/03c07b98-3f18-4b71-bb70-ecff564a78d1.jpg\"]","trial_type":"similarity","trial_index":74,"time_elapsed":530228,"internal_node_id":"0.0-6.0-68.0"},{"sim_score":4,"rt":5197,"stimulus":"[\"img/0875/34132396-d896-4c2d-8087-646dd867e769.jpg\",\"img/0867/db7e032f-162b-46f5-ae67-2b29679adee4.jpg\"]","trial_type":"similarity","trial_index":75,"time_elapsed":536440,"internal_node_id":"0.0-6.0-69.0"},{"sim_score":5,"rt":5517,"stimulus":"[\"img/0766/09f646c8-a69e-4ed3-879c-8d29b04ad7f9.jpg\",\"img/0764/958b8576-3a3b-4acc-96dc-06b74de69f37.jpg\"]","trial_type":"similarity","trial_index":76,"time_elapsed":542964,"internal_node_id":"0.0-6.0-70.0"},{"sim_score":5,"rt":5942,"stimulus":"[\"img/0894/3664e04c-c6d3-4c9b-afb6-25d89974b174.jpg\",\"img/0867/2e1a0b58-cdb1-4107-a14e-452530d7b9b0.jpg\"]","trial_type":"similarity","trial_index":77,"time_elapsed":549924,"internal_node_id":"0.0-6.0-71.0"},{"sim_score":3,"rt":3944,"stimulus":"[\"img/0875/ebf7653f-ff45-4e9f-af58-2c042ab3cd2b.jpg\",\"img/0764/17b088f8-3053-4140-b544-d15654cc79ef.jpg\"]","trial_type":"similarity","trial_index":78,"time_elapsed":554879,"internal_node_id":"0.0-6.0-72.0"},{"sim_score":6,"rt":4357,"stimulus":"[\"img/0867/26611f4e-d694-4460-b7e2-43c62753ddc3.jpg\",\"img/0866/bf14b5bd-fb55-47db-86b9-4f8aeb9a6dad.jpg\"]","trial_type":"similarity","trial_index":79,"time_elapsed":560256,"internal_node_id":"0.0-6.0-73.0"},{"sim_score":2,"rt":4419,"stimulus":"[\"img/0903/36e4ab1f-caa9-40b3-8616-faada076df94.jpg\",\"img/0758/9fb5b2fe-3f00-4fe6-973c-1ce10d5f4cd5.jpg\"]","trial_type":"similarity","trial_index":80,"time_elapsed":565683,"internal_node_id":"0.0-6.0-74.0"},{"sim_score":1,"rt":4556,"stimulus":"[\"img/0766/a0270213-fa0e-4972-8b56-228c3e01ff90.jpg\",\"img/0868/83b4350a-3b70-4cea-b7f5-b5b56f3050a8.jpg\"]","trial_type":"similarity","trial_index":81,"time_elapsed":571259,"internal_node_id":"0.0-6.0-75.0"},{"sim_score":2,"rt":4203,"stimulus":"[\"img/0874/3f471690-9788-4d03-90c7-f615aecef149.jpg\",\"img/0766/dd3e18d0-0c98-4d05-b850-69976ee8cd75.jpg\"]","trial_type":"similarity","trial_index":82,"time_elapsed":576480,"internal_node_id":"0.0-6.0-76.0"},{"sim_score":1,"rt":5015,"stimulus":"[\"img/0881/4da99fdd-1f40-4bbb-8e21-8833eef313f5.jpg\",\"img/0868/4a8a45ed-2c4f-421b-9564-409a33ecd26c.jpg\"]","trial_type":"similarity","trial_index":83,"time_elapsed":582510,"internal_node_id":"0.0-6.0-77.0"},{"sim_score":1,"rt":3984,"stimulus":"[\"img/0758/2fa3e613-e676-4e6e-bd12-705327eeb3e1.jpg\",\"img/0901/a2d7b2f6-396b-4d91-8403-de5361c74af7.jpg\"]","trial_type":"similarity","trial_index":84,"time_elapsed":587515,"internal_node_id":"0.0-6.0-78.0"},{"sim_score":3,"rt":3898,"stimulus":"[\"img/0881/f8bd891e-aa09-4782-89db-33e7cb2b0cf1.jpg\",\"img/0898/993d8f2d-bef7-4251-a193-0f93a32b7763.jpg\"]","trial_type":"similarity","trial_index":85,"time_elapsed":592426,"internal_node_id":"0.0-6.0-79.0"},{"sim_score":2,"rt":3501,"stimulus":"[\"img/0867/f8159067-056c-41f1-a136-c529fe5e970a.jpg\",\"img/0758/a709631e-3705-4725-ac40-f0d916924f08.jpg\"]","trial_type":"similarity","trial_index":86,"time_elapsed":596931,"internal_node_id":"0.0-6.0-80.0"},{"sim_score":5,"rt":5116,"stimulus":"[\"img/0769/b664b502-a86c-46c1-ad6f-5ebffc2e1bd3.jpg\",\"img/0899/565ccdd9-0933-4536-a625-3c0e25a713dd.jpg\"]","trial_type":"similarity","trial_index":87,"time_elapsed":603051,"internal_node_id":"0.0-6.0-81.0"},{"sim_score":5,"rt":6386,"stimulus":"[\"img/0903/5995f4a8-fa82-46f8-8760-fd7800a5ca34.jpg\",\"img/0903/5248eedd-7e6a-4d39-91b0-06ec227f3ed0.jpg\"]","trial_type":"similarity","trial_index":88,"time_elapsed":610445,"internal_node_id":"0.0-6.0-82.0"},{"sim_score":1,"rt":5612,"stimulus":"[\"img/0867/ac1797e4-8afc-48fe-b252-86d1defb1cca.jpg\",\"img/0766/79767d11-b612-4e8a-9e4b-a8ac95bb6a54.jpg\"]","trial_type":"similarity","trial_index":89,"time_elapsed":624810,"internal_node_id":"0.0-6.0-83.0"},{"sim_score":2,"rt":4106,"stimulus":"[\"img/0902/fbef27fa-ac83-4936-ab78-9d1c20a383e1.jpg\",\"img/0867/12264664-1860-46df-8c21-162b9817cdda.jpg\"]","trial_type":"similarity","trial_index":90,"time_elapsed":629919,"internal_node_id":"0.0-6.0-84.0"},{"sim_score":2,"rt":3900,"stimulus":"[\"img/0901/deff6cfb-0072-4490-bc3e-206bbcd3e8bf.jpg\",\"img/0875/03c3c331-738b-4446-af92-3d7386b08c2e.jpg\"]","trial_type":"similarity","trial_index":91,"time_elapsed":634835,"internal_node_id":"0.0-6.0-85.0"},{"sim_score":2,"rt":4440,"stimulus":"[\"img/0764/952d7adc-dc40-4aee-acce-18c2a1d02ea1.jpg\",\"img/0866/93a27239-8317-4e08-98ca-d8b1ff298e07.jpg\"]","trial_type":"similarity","trial_index":92,"time_elapsed":640288,"internal_node_id":"0.0-6.0-86.0"},{"sim_score":1,"rt":4484,"stimulus":"[\"img/0901/693e0535-ef7e-4d60-af9d-fac2f38e8307.jpg\",\"img/0894/5c7677b0-a4f1-479e-b274-7822c415175a.jpg\"]","trial_type":"similarity","trial_index":93,"time_elapsed":645775,"internal_node_id":"0.0-6.0-87.0"},{"sim_score":3,"rt":5497,"stimulus":"[\"img/0898/b3290bf9-215b-4b45-b21a-65bdf73f142f.jpg\",\"img/0769/f6396414-6788-4d59-9683-de153298d89c.jpg\"]","trial_type":"similarity","trial_index":94,"time_elapsed":652283,"internal_node_id":"0.0-6.0-88.0"},{"sim_score":3,"rt":7312,"stimulus":"[\"img/0769/1d8734c4-77ab-4165-9e71-5cfe672ff01c.jpg\",\"img/0894/6b2e9509-8699-42b7-9582-7741df0ba2d7.jpg\"]","trial_type":"similarity","trial_index":95,"time_elapsed":660600,"internal_node_id":"0.0-6.0-89.0"},{"sim_score":1,"rt":5600,"stimulus":"[\"img/0862/847e5208-38ec-4f36-949c-296cdd7424ee.jpg\",\"img/0874/31e22c7c-99aa-40b1-bf03-dd73fa2df4d6.jpg\"]","trial_type":"similarity","trial_index":96,"time_elapsed":667204,"internal_node_id":"0.0-6.0-90.0"},{"sim_score":7,"rt":6535,"stimulus":"[\"img/0894/38f5931f-926d-414e-b498-66b188978b7a.jpg\",\"img/0766/b84598d0-5b41-4841-88b0-b441b48289f5.jpg\"]","trial_type":"similarity","trial_index":97,"time_elapsed":674751,"internal_node_id":"0.0-6.0-91.0"},{"sim_score":2,"rt":3846,"stimulus":"[\"img/0874/8cdb1c07-1c32-46d2-981c-3636560fa6e5.jpg\",\"img/0867/aa05d113-fc19-4756-a8eb-7878f580bc92.jpg\"]","trial_type":"similarity","trial_index":98,"time_elapsed":679611,"internal_node_id":"0.0-6.0-92.0"},{"sim_score":1,"rt":3914,"stimulus":"[\"img/0899/57476fed-5962-4272-8fc9-b317bb777b54.jpg\",\"img/0868/15dd6fd7-791e-4b53-b203-195d617521a4.jpg\"]","trial_type":"similarity","trial_index":99,"time_elapsed":684535,"internal_node_id":"0.0-6.0-93.0"},{"sim_score":6,"rt":4853,"stimulus":"[\"img/0903/b7e3723f-fd03-4f3d-8820-f19496463a34.jpg\",\"img/0862/1c20f772-3a51-4a80-aac0-f57dc9f86c28.jpg\"]","trial_type":"similarity","trial_index":100,"time_elapsed":690391,"internal_node_id":"0.0-6.0-94.0"},{"sim_score":5,"rt":6020,"stimulus":"[\"img/0899/4f7bc593-8ddd-4da3-a0b9-84da730d3370.jpg\",\"img/0766/91fc8c4d-862f-4d2b-b1a1-2db8d729b6b7.jpg\"]","trial_type":"similarity","trial_index":101,"time_elapsed":697415,"internal_node_id":"0.0-6.0-95.0"},{"sim_score":7,"rt":6224,"stimulus":"[\"img/0867/bf560d4f-dee3-4f11-a385-705cc1aa5f3c.jpg\",\"img/0868/e0aff734-077f-40dd-9781-74821abd3621.jpg\"]","trial_type":"similarity","trial_index":102,"time_elapsed":704656,"internal_node_id":"0.0-6.0-96.0"},{"sim_score":3,"rt":4553,"stimulus":"[\"img/0862/e0f1a4e9-e1b6-45f7-af67-89f334e6630d.jpg\",\"img/0901/b123d109-47b4-4f9a-80c9-9bb16da42efa.jpg\"]","trial_type":"similarity","trial_index":103,"time_elapsed":710219,"internal_node_id":"0.0-6.0-97.0"},{"sim_score":2,"rt":3816,"stimulus":"[\"img/0875/a4935837-7d3c-4df6-88c1-36a94d4991ca.jpg\",\"img/0766/fd064894-7147-4af5-97e9-2089d5472656.jpg\"]","trial_type":"similarity","trial_index":104,"time_elapsed":715047,"internal_node_id":"0.0-6.0-98.0"},{"sim_score":5,"rt":5895,"stimulus":"[\"img/0758/821c68d3-5cb0-4eae-8659-30e6263fca39.jpg\",\"img/0874/1016b306-087c-4afc-aa08-fa527b28dc76.jpg\"]","trial_type":"similarity","trial_index":105,"time_elapsed":721956,"internal_node_id":"0.0-6.0-99.0"},{"sim_score":3,"rt":4965,"stimulus":"[\"img/0904/4d7d70a3-9477-4921-bda0-f9531d0a5c5b.jpg\",\"img/0868/d98ca254-b195-477f-b57e-5760a2717db8.jpg\"]","trial_type":"similarity","trial_index":106,"time_elapsed":727923,"internal_node_id":"0.0-6.0-100.0"},{"sim_score":2,"rt":3692,"stimulus":"[\"img/0903/07b445ee-0cdb-4d2c-a23b-d727613f4059.jpg\",\"img/0866/c446214b-a368-4c65-ae39-ea46894256ab.jpg\"]","trial_type":"similarity","trial_index":107,"time_elapsed":732623,"internal_node_id":"0.0-6.0-101.0"},{"sim_score":3,"rt":4324,"stimulus":"[\"img/0868/1a62b2b2-18f5-466e-b564-5176a57c565e.jpg\",\"img/0769/75f7e514-0548-4329-b1e4-93c05e74f038.jpg\"]","trial_type":"similarity","trial_index":108,"time_elapsed":737964,"internal_node_id":"0.0-6.0-102.0"},{"sim_score":3,"rt":4022,"stimulus":"[\"img/0902/ca3160ba-ad5d-459f-a1b6-8b4f3c85ecd5.jpg\",\"img/0899/0adc0bc3-6fca-4078-be6f-d45ddf1653d5.jpg\"]","trial_type":"similarity","trial_index":109,"time_elapsed":743003,"internal_node_id":"0.0-6.0-103.0"},{"sim_score":3,"rt":3629,"stimulus":"[\"img/0868/179a5502-ab5c-478e-8263-5a1fbcc101d2.jpg\",\"img/0862/fb26cb07-d5a9-4653-813c-f41609f26cd5.jpg\"]","trial_type":"similarity","trial_index":110,"time_elapsed":747647,"internal_node_id":"0.0-6.0-104.0"},{"sim_score":3,"rt":5843,"stimulus":"[\"img/0903/f67c4ab9-f8c2-4fcd-848a-a54a7b031002.jpg\",\"img/0894/05161000-f476-499b-a878-c13c7f347fd9.jpg\"]","trial_type":"similarity","trial_index":111,"time_elapsed":754503,"internal_node_id":"0.0-6.0-105.0"},{"sim_score":5,"rt":4401,"stimulus":"[\"img/0864/49150900-7f25-4ce8-8d10-9b47a71d1997.jpg\",\"img/0874/eba003b4-cdab-4eee-8bc3-f064c7d94165.jpg\"]","trial_type":"similarity","trial_index":112,"time_elapsed":759908,"internal_node_id":"0.0-6.0-106.0"},{"sim_score":3,"rt":5151,"stimulus":"[\"img/0862/24cdc752-c2e5-4a17-86a6-6f2045d8553b.jpg\",\"img/0902/b03129ba-b087-4558-af37-e8399d6217d6.jpg\"]","trial_type":"similarity","trial_index":113,"time_elapsed":766071,"internal_node_id":"0.0-6.0-107.0"},{"sim_score":3,"rt":4517,"stimulus":"[\"img/0904/a8c3c7d2-9bcf-4347-9e03-8203adfc1fc5.jpg\",\"img/0903/6378ee1e-3d2b-48d2-87be-bebda32c8268.jpg\"]","trial_type":"similarity","trial_index":114,"time_elapsed":771591,"internal_node_id":"0.0-6.0-108.0"},{"sim_score":2,"rt":4753,"stimulus":"[\"img/0764/438c0217-036f-43c9-9b87-f43144e46011.jpg\",\"img/0864/0f537697-a314-47c3-a8cc-8df23b7e536c.jpg\"]","trial_type":"similarity","trial_index":115,"time_elapsed":777347,"internal_node_id":"0.0-6.0-109.0"},{"sim_score":4,"rt":5441,"stimulus":"[\"img/0866/07c9c966-3c8d-40e7-8128-92b2acbaed5d.jpg\",\"img/0894/11674fa4-285d-44e2-939f-2228c6a64080.jpg\"]","trial_type":"similarity","trial_index":116,"time_elapsed":783799,"internal_node_id":"0.0-6.0-110.0"},{"sim_score":5,"rt":5378,"stimulus":"[\"img/0899/ad8268c5-8199-48d0-ad70-c5b6d6c599ec.jpg\",\"img/0903/aa842abe-6fa3-448a-bf71-88d3ad28663b.jpg\"]","trial_type":"similarity","trial_index":117,"time_elapsed":790191,"internal_node_id":"0.0-6.0-111.0"},{"sim_score":4,"rt":4488,"stimulus":"[\"img/0902/6c2c243a-f663-45db-baf5-038d3d58c589.jpg\",\"img/0904/96e503ea-6630-4996-85f2-0237688ce441.jpg\"]","trial_type":"similarity","trial_index":118,"time_elapsed":795691,"internal_node_id":"0.0-6.0-112.0"},{"sim_score":3,"rt":7760,"stimulus":"[\"img/0864/3d4de670-b290-4285-9c3d-12a0e3af44e9.jpg\",\"img/0860/c47fdead-eb02-4989-b078-26f4852f44fe.jpg\"]","trial_type":"similarity","trial_index":119,"time_elapsed":804455,"internal_node_id":"0.0-6.0-113.0"},{"sim_score":3,"rt":5494,"stimulus":"[\"img/0860/8fdba999-b946-4c7d-9891-336018b563ef.jpg\",\"img/0899/76ad07e2-ca25-45eb-84f2-8d80b8ca3e26.jpg\"]","trial_type":"similarity","trial_index":120,"time_elapsed":810967,"internal_node_id":"0.0-6.0-114.0"},{"sim_score":3,"rt":5249,"stimulus":"[\"img/0881/0c7068da-d0d9-4103-bda1-74ef7a2b32c3.jpg\",\"img/0903/bf0a7d60-eca5-44b0-bafd-baf21db9904b.jpg\"]","trial_type":"similarity","trial_index":121,"time_elapsed":817231,"internal_node_id":"0.0-6.0-115.0"},{"sim_score":2,"rt":3327,"stimulus":"[\"img/0894/e5edf723-72a5-4673-8441-6c1734a8929b.jpg\",\"img/0874/85eb9b8a-c4c6-4e5a-b8e7-363a87a82054.jpg\"]","trial_type":"similarity","trial_index":122,"time_elapsed":821571,"internal_node_id":"0.0-6.0-116.0"},{"sim_score":4,"rt":4801,"stimulus":"[\"img/0881/7e822106-76f7-4b10-a805-14dc68b2cfaf.jpg\",\"img/0862/f23038d4-c366-4f70-979f-66b62362efa4.jpg\"]","trial_type":"similarity","trial_index":123,"time_elapsed":827386,"internal_node_id":"0.0-6.0-117.0"},{"sim_score":5,"rt":4431,"stimulus":"[\"img/0868/6a28c3b0-3d76-498a-9fb7-ddafc665eca8.jpg\",\"img/0875/2e13d160-eea1-416b-aff1-d37ab99ecc1d.jpg\"]","trial_type":"similarity","trial_index":124,"time_elapsed":832834,"internal_node_id":"0.0-6.0-118.0"},{"sim_score":5,"rt":4779,"stimulus":"[\"img/0860/94ef7afc-e0e6-4a15-98c6-0bfac82bc832.jpg\",\"img/0758/7ee8bc8f-c40b-4b3a-84ec-3e83580622d4.jpg\"]","trial_type":"similarity","trial_index":125,"time_elapsed":838622,"internal_node_id":"0.0-6.0-119.0"},{"sim_score":4,"rt":2980,"stimulus":"[\"img/0864/a248adb3-c70b-4652-b7a3-776d2a1e904b.jpg\",\"img/0875/90da8d75-108a-44ad-b999-e21fee3860d3.jpg\"]","trial_type":"similarity","trial_index":126,"time_elapsed":842610,"internal_node_id":"0.0-6.0-120.0"},{"sim_score":4,"rt":4110,"stimulus":"[\"img/0898/8605a25b-6895-476d-8c13-df7a83f96093.jpg\",\"img/0866/620cd1aa-0800-4414-8f6e-90342e7a99ad.jpg\"]","trial_type":"similarity","trial_index":127,"time_elapsed":847730,"internal_node_id":"0.0-6.0-121.0"},{"sim_score":2,"rt":3869,"stimulus":"[\"img/0874/3ce41e7c-40c8-4d58-a546-171114521796.jpg\",\"img/0904/60d1a521-edf7-4696-9263-f21ac0e62a01.jpg\"]","trial_type":"similarity","trial_index":128,"time_elapsed":852613,"internal_node_id":"0.0-6.0-122.0"},{"sim_score":1,"rt":4460,"stimulus":"[\"img/0904/0d17b811-063e-416e-a23c-3b3cfa4fcce5.jpg\",\"img/0864/e02eddb5-f468-499c-91bf-f7be3ffe979b.jpg\"]","trial_type":"similarity","trial_index":129,"time_elapsed":858089,"internal_node_id":"0.0-6.0-123.0"},{"sim_score":5,"rt":3875,"stimulus":"[\"img/0894/661b9f9f-4bde-487a-b1ed-87085fde6948.jpg\",\"img/0902/c920f0e1-1c81-480f-a164-c77f2dc6ce9a.jpg\"]","trial_type":"similarity","trial_index":130,"time_elapsed":862982,"internal_node_id":"0.0-6.0-124.0"},{"sim_score":2,"rt":4693,"stimulus":"[\"img/0868/293079b8-7e0c-4afd-a390-1e5d35fe3ded.jpg\",\"img/0864/65210d57-1153-4657-886a-32e758f49b4a.jpg\"]","trial_type":"similarity","trial_index":131,"time_elapsed":878313,"internal_node_id":"0.0-6.0-125.0"},{"sim_score":2,"rt":3865,"stimulus":"[\"img/0899/b45c550b-96c3-4255-ad59-48a2b4db1c1e.jpg\",\"img/0866/02f5e6b9-52b7-448c-9708-5b460d0c9a23.jpg\"]","trial_type":"similarity","trial_index":132,"time_elapsed":883190,"internal_node_id":"0.0-6.0-126.0"},{"sim_score":2,"rt":3740,"stimulus":"[\"img/0875/5a1e5100-0d94-4fec-bbe9-ca9894d2cf8e.jpg\",\"img/0904/2f88ce53-02d0-4f95-a082-182c56a0eeb4.jpg\"]","trial_type":"similarity","trial_index":133,"time_elapsed":887943,"internal_node_id":"0.0-6.0-127.0"},{"sim_score":3,"rt":4139,"stimulus":"[\"img/0867/c66898ba-b71b-4d50-84f9-f7f84853a98d.jpg\",\"img/0899/9de5e857-aa9a-4e0c-8ba2-46d79bd069a4.jpg\"]","trial_type":"similarity","trial_index":134,"time_elapsed":893095,"internal_node_id":"0.0-6.0-128.0"},{"sim_score":3,"rt":4560,"stimulus":"[\"img/0901/c6c877e0-dd63-4e00-9657-33af29d55aab.jpg\",\"img/0867/85a96c62-548f-4994-9553-819e03c3135a.jpg\"]","trial_type":"similarity","trial_index":135,"time_elapsed":898668,"internal_node_id":"0.0-6.0-129.0"},{"sim_score":4,"rt":5076,"stimulus":"[\"img/0864/f92649a2-0590-4d31-9a7a-1bfb81666a2d.jpg\",\"img/0769/3c1203c5-2ce7-466e-957a-8d77b5905460.jpg\"]","trial_type":"similarity","trial_index":136,"time_elapsed":904758,"internal_node_id":"0.0-6.0-130.0"},{"sim_score":2,"rt":4243,"stimulus":"[\"img/0903/97a42b34-5462-4665-88c7-83c014b33d24.jpg\",\"img/0868/c8ac40c7-6904-4e13-8d61-c75d3052dc4e.jpg\"]","trial_type":"similarity","trial_index":137,"time_elapsed":910015,"internal_node_id":"0.0-6.0-131.0"},{"sim_score":3,"rt":5720,"stimulus":"[\"img/0864/e8bd659f-aa43-4748-877e-3118e8b4e189.jpg\",\"img/0867/179ab87a-8eac-4c52-a41f-2e48e3120f09.jpg\"]","trial_type":"similarity","trial_index":138,"time_elapsed":916750,"internal_node_id":"0.0-6.0-132.0"},{"sim_score":3,"rt":6007,"stimulus":"[\"img/0901/443f2e59-199b-4f7b-9de9-c44ad97326a5.jpg\",\"img/0860/4c530c3c-6aab-492a-94d1-9c01797bde40.jpg\"]","trial_type":"similarity","trial_index":139,"time_elapsed":923774,"internal_node_id":"0.0-6.0-133.0"},{"sim_score":2,"rt":4407,"stimulus":"[\"img/0881/4bd34581-94d8-4e88-8c89-5cef864ca3be.jpg\",\"img/0766/0bf3793e-c353-45e5-ac6f-753f5f484e10.jpg\"]","trial_type":"similarity","trial_index":140,"time_elapsed":929191,"internal_node_id":"0.0-6.0-134.0"},{"sim_score":2,"rt":3794,"stimulus":"[\"img/0903/b4a0f61e-a964-4b79-a9a7-f767a8f92f34.jpg\",\"img/0864/6e846d43-94a6-4b37-a268-65eda979f052.jpg\"]","trial_type":"similarity","trial_index":141,"time_elapsed":933999,"internal_node_id":"0.0-6.0-135.0"},{"sim_score":2,"rt":5136,"stimulus":"[\"img/0758/f61ecdf8-a7d4-4db0-b84d-be46f7cfaffc.jpg\",\"img/0894/38cf335f-f76f-4349-8d65-e20cd6859565.jpg\"]","trial_type":"similarity","trial_index":142,"time_elapsed":940151,"internal_node_id":"0.0-6.0-136.0"},{"sim_score":2,"rt":4219,"stimulus":"[\"img/0769/662ab839-88d1-4ebf-af05-9b2980cad943.jpg\",\"img/0860/61fb959d-d4d9-4de4-9e4e-4fa62b4cfcd5.jpg\"]","trial_type":"similarity","trial_index":143,"time_elapsed":945374,"internal_node_id":"0.0-6.0-137.0"},{"sim_score":7,"rt":6359,"stimulus":"[\"img/0904/9d30eff1-46ef-4453-b11e-124ef8145c00.jpg\",\"img/0766/535849cc-ff5d-4df9-8f31-0ce94a97d571.jpg\"]","trial_type":"similarity","trial_index":144,"time_elapsed":952742,"internal_node_id":"0.0-6.0-138.0"},{"sim_score":4,"rt":3948,"stimulus":"[\"img/0868/5fa7f9d0-f0e5-454c-8224-74d964818f56.jpg\",\"img/0860/524b2e98-5767-4d53-942c-ebae6925659b.jpg\"]","trial_type":"similarity","trial_index":145,"time_elapsed":957695,"internal_node_id":"0.0-6.0-139.0"},{"sim_score":3,"rt":4369,"stimulus":"[\"img/0758/dd559618-7f09-4a07-8018-d311c4a5ea29.jpg\",\"img/0864/1ebbc554-99fa-49f9-8799-317375a79820.jpg\"]","trial_type":"similarity","trial_index":146,"time_elapsed":963069,"internal_node_id":"0.0-6.0-140.0"},{"sim_score":7,"rt":4094,"stimulus":"[\"img/0867/8ba0c5a7-c7e4-42cf-a80a-543763b90779.jpg\",\"img/0867/5e07b34d-b40f-4b1c-ac10-49975bace45f.jpg\"]","trial_type":"similarity","trial_index":147,"time_elapsed":968170,"internal_node_id":"0.0-6.0-141.0"},{"sim_score":7,"rt":6880,"stimulus":"[\"img/0898/26c41340-15bd-4ead-8fe4-c0d0ddca09c2.jpg\",\"img/0898/cd3aaa3f-efa9-4ab3-8d6f-a6a9273ddf42.jpg\"]","trial_type":"similarity","trial_index":148,"time_elapsed":976066,"internal_node_id":"0.0-6.0-142.0"},{"sim_score":2,"rt":3614,"stimulus":"[\"img/0866/9b38d691-1802-4959-ab3f-fc902f0e4ea6.jpg\",\"img/0769/76eaa4a3-dfe9-4dc1-9efb-caebe86264e1.jpg\"]","trial_type":"similarity","trial_index":149,"time_elapsed":980689,"internal_node_id":"0.0-6.0-143.0"},{"sim_score":4,"rt":5194,"stimulus":"[\"img/0860/e8b8c51e-1834-4875-8b61-6c5bc9b178bd.jpg\",\"img/0898/ec565187-2e31-4fdd-9a5c-153d0c789ae0.jpg\"]","trial_type":"similarity","trial_index":150,"time_elapsed":986893,"internal_node_id":"0.0-6.0-144.0"},{"sim_score":5,"rt":6559,"stimulus":"[\"img/0766/0025de5e-f620-4079-8a0f-00326ff3a6b0.jpg\",\"img/0864/87c467d3-abca-482f-ad80-3766c21b1bb3.jpg\"]","trial_type":"similarity","trial_index":151,"time_elapsed":994465,"internal_node_id":"0.0-6.0-145.0"},{"sim_score":3,"rt":4979,"stimulus":"[\"img/0860/c7047cd2-7cc1-41b6-8a34-c0986774975f.jpg\",\"img/0903/b548d383-2a95-4575-8c13-647873751ff1.jpg\"]","trial_type":"similarity","trial_index":152,"time_elapsed":1000461,"internal_node_id":"0.0-6.0-146.0"},{"sim_score":3,"rt":3935,"stimulus":"[\"img/0867/cc72ed48-7704-422c-86d6-467a1145287a.jpg\",\"img/0764/d7c215ab-ea9a-45be-8d5f-417d5b9a8a17.jpg\"]","trial_type":"similarity","trial_index":153,"time_elapsed":1005404,"internal_node_id":"0.0-6.0-147.0"},{"sim_score":5,"rt":4442,"stimulus":"[\"img/0769/e31b3bd8-efcb-413e-aa8c-75fac2b8f2ac.jpg\",\"img/0904/6291eb43-c10c-4810-a36a-101d09868b04.jpg\"]","trial_type":"similarity","trial_index":154,"time_elapsed":1010858,"internal_node_id":"0.0-6.0-148.0"},{"sim_score":3,"rt":3931,"stimulus":"[\"img/0764/c0b03adb-bd0a-4b96-a915-a827c2fd5211.jpg\",\"img/0901/233a6948-48eb-4b67-8259-222b916b2322.jpg\"]","trial_type":"similarity","trial_index":155,"time_elapsed":1015806,"internal_node_id":"0.0-6.0-149.0"},{"sim_score":5,"rt":5454,"stimulus":"[\"img/0904/1d10df11-b5c8-4370-9a6b-097a7f965895.jpg\",\"img/0899/93494f3b-d539-4075-b027-d82e344563da.jpg\"]","trial_type":"similarity","trial_index":156,"time_elapsed":1022270,"internal_node_id":"0.0-6.0-150.0"},{"sim_score":2,"rt":3622,"stimulus":"[\"img/0862/47ed5efd-4ec9-4b74-bb4e-a5f5cf0c3e7d.jpg\",\"img/0867/98d8cd96-1476-4fe0-a3a3-04f875500a1b.jpg\"]","trial_type":"similarity","trial_index":157,"time_elapsed":1026902,"internal_node_id":"0.0-6.0-151.0"},{"sim_score":7,"rt":7783,"stimulus":"[\"img/0766/f3276cc4-65de-4c2d-88d5-6cfebce14b8f.jpg\",\"img/0766/717fd72f-a281-499b-a5ba-5e2ecc4d4866.jpg\"]","trial_type":"similarity","trial_index":158,"time_elapsed":1035702,"internal_node_id":"0.0-6.0-152.0"},{"sim_score":2,"rt":5322,"stimulus":"[\"img/0862/92fcd8a4-8193-4a6a-ae09-dd4a6338b0df.jpg\",\"img/0894/7f2f31fd-6618-41c6-b65a-0fd8b2851bc9.jpg\"]","trial_type":"similarity","trial_index":159,"time_elapsed":1042042,"internal_node_id":"0.0-6.0-153.0"},{"sim_score":3,"rt":6012,"stimulus":"[\"img/0899/4408c14d-c168-4a7d-96f6-bc87bfb58f83.jpg\",\"img/0901/b453df0b-4c39-49bb-8ced-6127efffa898.jpg\"]","trial_type":"similarity","trial_index":160,"time_elapsed":1049070,"internal_node_id":"0.0-6.0-154.0"},{"sim_score":6,"rt":6643,"stimulus":"[\"img/0874/ca76a855-4e77-4f2f-872a-0a718153e7ed.jpg\",\"img/0874/7e4f2150-3b59-4a36-b5da-a4e0ba410531.jpg\"]","trial_type":"similarity","trial_index":161,"time_elapsed":1056722,"internal_node_id":"0.0-6.0-155.0"},{"sim_score":2,"rt":3750,"stimulus":"[\"img/0860/8a92e21b-6a32-4e4a-a445-2d5a487ed0a4.jpg\",\"img/0867/075e0f95-856b-4cbb-acf5-092393aaf04e.jpg\"]","trial_type":"similarity","trial_index":162,"time_elapsed":1061490,"internal_node_id":"0.0-6.0-156.0"},{"sim_score":2,"rt":3480,"stimulus":"[\"img/0901/7d4a3388-488d-4e9b-9d32-9d0def7aae8d.jpg\",\"img/0881/292e9b4b-fca0-4ba8-87f1-4048f9e37b7d.jpg\"]","trial_type":"similarity","trial_index":163,"time_elapsed":1065973,"internal_node_id":"0.0-6.0-157.0"},{"sim_score":5,"rt":3885,"stimulus":"[\"img/0903/f1fa0f8d-e62b-4b4a-a174-31a0fabfe61b.jpg\",\"img/0902/01b41522-de46-4c3a-b0af-a61b2682b40e.jpg\"]","trial_type":"similarity","trial_index":164,"time_elapsed":1070861,"internal_node_id":"0.0-6.0-158.0"},{"sim_score":3,"rt":3534,"stimulus":"[\"img/0860/c5ccd1a4-4bb7-48e1-9b25-72cfaf06909b.jpg\",\"img/0764/f2f23359-8e82-41d3-8900-5b9f4433991d.jpg\"]","trial_type":"similarity","trial_index":165,"time_elapsed":1075409,"internal_node_id":"0.0-6.0-159.0"},{"sim_score":2,"rt":3254,"stimulus":"[\"img/0902/794606a0-d8a8-4e58-8bf8-9d114ed5a548.jpg\",\"img/0875/e7e66b13-b573-431e-b85e-288ce04a35a3.jpg\"]","trial_type":"similarity","trial_index":166,"time_elapsed":1079669,"internal_node_id":"0.0-6.0-160.0"},{"sim_score":2,"rt":3787,"stimulus":"[\"img/0898/0c7dde4f-efce-4b7a-9387-6921635b7890.jpg\",\"img/0862/53a9cf7c-93c4-41b9-952f-07d17f7a17b2.jpg\"]","trial_type":"similarity","trial_index":167,"time_elapsed":1084473,"internal_node_id":"0.0-6.0-161.0"},{"sim_score":2,"rt":4060,"stimulus":"[\"img/0894/a98416c0-51e2-4960-85da-d81d8688b9d5.jpg\",\"img/0875/3ecb367d-e9eb-4826-8aaa-7aa72fb98019.jpg\"]","trial_type":"similarity","trial_index":168,"time_elapsed":1089541,"internal_node_id":"0.0-6.0-162.0"},{"sim_score":2,"rt":4101,"stimulus":"[\"img/0866/a15b02be-11bb-43e3-b0e0-ecc3bd7dfc49.jpg\",\"img/0864/da39ad34-04e0-40d4-a724-c08d53e0ea09.jpg\"]","trial_type":"similarity","trial_index":169,"time_elapsed":1094645,"internal_node_id":"0.0-6.0-163.0"},{"sim_score":2,"rt":4363,"stimulus":"[\"img/0766/110832e5-2646-4bd0-a94e-5df8cc314269.jpg\",\"img/0862/e697469a-ec19-4414-b972-7b9f3564785b.jpg\"]","trial_type":"similarity","trial_index":170,"time_elapsed":1100013,"internal_node_id":"0.0-6.0-164.0"},{"sim_score":4,"rt":4658,"stimulus":"[\"img/0866/f756f7d1-9ad8-4a34-9ef6-7a443d705bfe.jpg\",\"img/0874/767f289c-9814-4496-803f-745cc8913d1f.jpg\"]","trial_type":"similarity","trial_index":171,"time_elapsed":1105688,"internal_node_id":"0.0-6.0-165.0"},{"sim_score":5,"rt":5489,"stimulus":"[\"img/0862/4f0a3b4c-afbf-486e-b248-1d54982f54b4.jpg\",\"img/0860/17b44a7d-c5ca-479f-9e87-f65a64f5c80e.jpg\"]","trial_type":"similarity","trial_index":172,"time_elapsed":1112189,"internal_node_id":"0.0-6.0-166.0"},{"sim_score":2,"rt":4736,"stimulus":"[\"img/0766/fd74fdbb-ea40-4f3a-a091-38d08dfd636e.jpg\",\"img/0901/12da1841-e611-435c-9719-109413d536a8.jpg\"]","trial_type":"similarity","trial_index":173,"time_elapsed":1124768,"internal_node_id":"0.0-6.0-167.0"},{"sim_score":7,"rt":6147,"stimulus":"[\"img/0862/a0a3a7ba-7798-46a3-b4ca-05e1f6e581d0.jpg\",\"img/0862/fad1d7c1-8187-43c3-942a-0fc12183e48e.jpg\"]","trial_type":"similarity","trial_index":174,"time_elapsed":1131921,"internal_node_id":"0.0-6.0-168.0"},{"sim_score":5,"rt":6957,"stimulus":"[\"img/0894/a3d4170b-b7d8-40e3-955f-87e76ed745fc.jpg\",\"img/0764/1f95ab5f-fb65-4d70-b5db-d6bd6351a8aa.jpg\"]","trial_type":"similarity","trial_index":175,"time_elapsed":1139885,"internal_node_id":"0.0-6.0-169.0"},{"sim_score":2,"rt":3484,"stimulus":"[\"img/0874/bf14b896-e930-4fd9-9c05-2e83317a2773.jpg\",\"img/0898/e167334e-cc1d-4986-b3b1-c7bc7da64baa.jpg\"]","trial_type":"similarity","trial_index":176,"time_elapsed":1144373,"internal_node_id":"0.0-6.0-170.0"},{"sim_score":2,"rt":3123,"stimulus":"[\"img/0860/c3379ff7-0763-48fe-a1ec-7ea3d611bc7a.jpg\",\"img/0766/214866ee-423d-4629-9bb9-41572bdc7dac.jpg\"]","trial_type":"similarity","trial_index":177,"time_elapsed":1148512,"internal_node_id":"0.0-6.0-171.0"},{"sim_score":3,"rt":4306,"stimulus":"[\"img/0898/a8f16b02-e19f-423b-86c3-a36562ae1f9b.jpg\",\"img/0864/66091c27-e588-4476-8af9-265dc6be4156.jpg\"]","trial_type":"similarity","trial_index":178,"time_elapsed":1153845,"internal_node_id":"0.0-6.0-172.0"},{"sim_score":3,"rt":3597,"stimulus":"[\"img/0881/54ea8e77-c7e5-4197-b7fa-00b7020849a7.jpg\",\"img/0764/fb92924f-5cfe-4b89-b130-0cce8cc5636b.jpg\"]","trial_type":"similarity","trial_index":179,"time_elapsed":1158452,"internal_node_id":"0.0-6.0-173.0"},{"sim_score":3,"rt":4672,"stimulus":"[\"img/0898/f3a3f225-1248-4ac7-b93b-f0ff28485bf3.jpg\",\"img/0868/0d3abd3a-b6c3-4584-a9f7-e2da63748b3d.jpg\"]","trial_type":"similarity","trial_index":180,"time_elapsed":1164136,"internal_node_id":"0.0-6.0-174.0"},{"sim_score":5,"rt":4474,"stimulus":"[\"img/0864/8ddd2e30-a1d0-479f-9cbe-591213023893.jpg\",\"img/0864/5f74a653-3bdc-4308-8cca-ac667dc22e1f.jpg\"]","trial_type":"similarity","trial_index":181,"time_elapsed":1169629,"internal_node_id":"0.0-6.0-175.0"},{"sim_score":5,"rt":5803,"stimulus":"[\"img/0899/51a7a498-98c7-42d7-bca8-bc2d8f0b5831.jpg\",\"img/0862/57b6f83f-c763-4858-830d-102f97bfefbf.jpg\"]","trial_type":"similarity","trial_index":182,"time_elapsed":1176445,"internal_node_id":"0.0-6.0-176.0"},{"sim_score":5,"rt":5668,"stimulus":"[\"img/0875/42910c99-5463-450a-a0f8-d4d060a11455.jpg\",\"img/0758/d41c06bf-ebaf-454b-91c6-1a17f917b659.jpg\"]","trial_type":"similarity","trial_index":183,"time_elapsed":1183121,"internal_node_id":"0.0-6.0-177.0"},{"sim_score":3,"rt":3355,"stimulus":"[\"img/0866/6f2a90d7-14f1-4f1b-bd64-fc0af6b9fe44.jpg\",\"img/0901/08d6d1d1-c043-43c4-bb08-d45e062822b9.jpg\"]","trial_type":"similarity","trial_index":184,"time_elapsed":1187482,"internal_node_id":"0.0-6.0-178.0"},{"sim_score":3,"rt":5195,"stimulus":"[\"img/0769/35f2dd39-40aa-498e-b401-9f1ef2622d00.jpg\",\"img/0874/93d1f8dc-acf2-4f03-bd8d-8ec35df276ed.jpg\"]","trial_type":"similarity","trial_index":185,"time_elapsed":1193685,"internal_node_id":"0.0-6.0-179.0"},{"sim_score":5,"rt":5986,"stimulus":"[\"img/0875/dbdd643e-6d0e-4a5c-ab57-b9c29b9c981a.jpg\",\"img/0881/f6bd3b96-dc40-4e99-8681-bc3a35cf896d.jpg\"]","trial_type":"similarity","trial_index":186,"time_elapsed":1200686,"internal_node_id":"0.0-6.0-180.0"},{"sim_score":3,"rt":5095,"stimulus":"[\"img/0866/d266fece-59b3-46fa-b69f-96f6efb81b59.jpg\",\"img/0868/4e626425-63c8-484a-8a1d-e66ee4e0bef8.jpg\"]","trial_type":"similarity","trial_index":187,"time_elapsed":1206791,"internal_node_id":"0.0-6.0-181.0"},{"sim_score":2,"rt":3459,"stimulus":"[\"img/0899/56a605c3-d0a2-4215-89e1-779279d85a7c.jpg\",\"img/0758/caa93da2-9edf-49fa-96b9-32dedd8f5078.jpg\"]","trial_type":"similarity","trial_index":188,"time_elapsed":1211259,"internal_node_id":"0.0-6.0-182.0"},{"sim_score":4,"rt":3548,"stimulus":"[\"img/0874/29830da7-be5f-44e5-b141-652a0ccf7269.jpg\",\"img/0875/f87b67d7-c33e-40d1-b281-248c4be1cb6e.jpg\"]","trial_type":"similarity","trial_index":189,"time_elapsed":1215814,"internal_node_id":"0.0-6.0-183.0"},{"sim_score":2,"rt":3789,"stimulus":"[\"img/0904/65e2b70a-b184-4da3-b5c0-5038bdf9469a.jpg\",\"img/0862/eefa5588-9efd-4591-aa5f-a2e17c7d7bcc.jpg\"]","trial_type":"similarity","trial_index":190,"time_elapsed":1220605,"internal_node_id":"0.0-6.0-184.0"},{"sim_score":5,"rt":4262,"stimulus":"[\"img/0902/d1083f2c-5520-44ec-81a8-3f856fbf0e80.jpg\",\"img/0766/00891401-e4c9-4ce1-bc19-f70740d174bc.jpg\"]","trial_type":"similarity","trial_index":191,"time_elapsed":1225882,"internal_node_id":"0.0-6.0-185.0"},{"sim_score":5,"rt":6029,"stimulus":"[\"img/0758/67c0be2f-9e91-48b3-8219-70ac0a1802fa.jpg\",\"img/0769/c7cfacc3-7f07-46ff-9f5d-8073f4c4679b.jpg\"]","trial_type":"similarity","trial_index":192,"time_elapsed":1232913,"internal_node_id":"0.0-6.0-186.0"},{"sim_score":4,"rt":4074,"stimulus":"[\"img/0881/20af39f5-373d-4a55-a437-2dc4c0382c46.jpg\",\"img/0881/e6746727-7f89-47ec-b939-d98abe78372d.jpg\"]","trial_type":"similarity","trial_index":193,"time_elapsed":1238002,"internal_node_id":"0.0-6.0-187.0"},{"sim_score":3,"rt":3609,"stimulus":"[\"img/0758/ddc336e9-a8b6-4bb9-937a-c7e25e0e9250.jpg\",\"img/0866/23a224f3-2012-4fc8-8e0f-3c36f8de27fd.jpg\"]","trial_type":"similarity","trial_index":194,"time_elapsed":1242614,"internal_node_id":"0.0-6.0-188.0"},{"sim_score":2,"rt":4449,"stimulus":"[\"img/0764/3297a811-ea8b-4d74-9547-59cecab7293a.jpg\",\"img/0898/0af304a2-6a7a-4082-ab7c-4450cd08cc58.jpg\"]","trial_type":"similarity","trial_index":195,"time_elapsed":1248077,"internal_node_id":"0.0-6.0-189.0"},{"sim_score":3,"rt":3355,"stimulus":"[\"img/0903/b0df4094-a3be-4b5b-81bd-8d260f13f61b.jpg\",\"img/0901/0f670aef-ac36-496d-8142-ee5fdb21dd82.jpg\"]","trial_type":"similarity","trial_index":196,"time_elapsed":1252449,"internal_node_id":"0.0-6.0-190.0"},{"sim_score":2,"rt":3841,"stimulus":"[\"img/0902/24d10fe7-314f-4d5a-8c7b-b43121bba0a4.jpg\",\"img/0898/40f99fb2-64d2-4e72-8a7f-a1cf60741e69.jpg\"]","trial_type":"similarity","trial_index":197,"time_elapsed":1257293,"internal_node_id":"0.0-6.0-191.0"},{"sim_score":2,"rt":4071,"stimulus":"[\"img/0864/b3c4e378-28f0-4699-9338-2a257b4bca04.jpg\",\"img/0901/62315ff5-ed95-46b4-b099-92552079659b.jpg\"]","trial_type":"similarity","trial_index":198,"time_elapsed":1262381,"internal_node_id":"0.0-6.0-192.0"},{"sim_score":2,"rt":3545,"stimulus":"[\"img/0894/76c1201f-8524-4865-85e6-dda8cb4ac986.jpg\",\"img/0881/b549bc99-a61c-4450-bab5-9efc3a197bf0.jpg\"]","trial_type":"similarity","trial_index":199,"time_elapsed":1266933,"internal_node_id":"0.0-6.0-193.0"},{"sim_score":7,"rt":4538,"stimulus":"[\"img/0868/fd307a36-9a3a-47d7-ab7c-f810d0b35040.jpg\",\"img/0868/3a62db2d-97e9-44a3-b8e3-a48c6f0e423b.jpg\"]","trial_type":"similarity","trial_index":200,"time_elapsed":1272477,"internal_node_id":"0.0-6.0-194.0"},{"sim_score":5,"rt":3170,"stimulus":"[\"img/0899/0e1d936a-dbe2-4afc-9f19-7b7a1ae6c9ed.jpg\",\"img/0764/f64dfa83-333d-494c-87b5-73e942f1766e.jpg\"]","trial_type":"similarity","trial_index":201,"time_elapsed":1276653,"internal_node_id":"0.0-6.0-195.0"},{"sim_score":3,"rt":3542,"stimulus":"[\"img/0881/f037e3b0-09cb-4a83-b2d9-6a71fe474e63.jpg\",\"img/0904/09dac84f-3d1c-4445-a68e-d0389fdbf1e9.jpg\"]","trial_type":"similarity","trial_index":202,"time_elapsed":1281209,"internal_node_id":"0.0-6.0-196.0"},{"sim_score":2,"rt":4092,"stimulus":"[\"img/0864/4bd81bc6-c13d-46df-95a9-485886dc7c1b.jpg\",\"img/0902/b76efc44-a50f-4dac-b997-ff0222376067.jpg\"]","trial_type":"similarity","trial_index":203,"time_elapsed":1286309,"internal_node_id":"0.0-6.0-197.0"},{"sim_score":4,"rt":4835,"stimulus":"[\"img/0894/1a010553-d598-4b06-a772-81f1e7b3addb.jpg\",\"img/0904/696ebb60-8891-417a-91fd-c53218907a95.jpg\"]","trial_type":"similarity","trial_index":204,"time_elapsed":1292153,"internal_node_id":"0.0-6.0-198.0"},{"sim_score":4,"rt":5876,"stimulus":"[\"img/0901/c6df1a21-44ed-47c2-960e-7c52220e329e.jpg\",\"img/0901/71e551a2-9ce2-409c-9c7c-dd556a0791e9.jpg\"]","trial_type":"similarity","trial_index":205,"time_elapsed":1299045,"internal_node_id":"0.0-6.0-199.0"},{"sim_score":2,"rt":3961,"stimulus":"[\"img/0894/767a0eec-1064-46b1-b1aa-dfa02b0cd74e.jpg\",\"img/0860/18dfed73-e36b-4487-a8bd-0b8cff8e3668.jpg\"]","trial_type":"similarity","trial_index":206,"time_elapsed":1304021,"internal_node_id":"0.0-6.0-200.0"},{"sim_score":2,"rt":4258,"stimulus":"[\"img/0898/01bfe666-3510-4fc7-964f-d00d28732dc8.jpg\",\"img/0903/e2e55a9e-0397-4dc0-8adf-4a54cfefe1fe.jpg\"]","trial_type":"similarity","trial_index":207,"time_elapsed":1309291,"internal_node_id":"0.0-6.0-201.0"},{"sim_score":1,"rt":5572,"stimulus":"[\"img/0864/6f631579-acf1-415c-a42c-1207f62a8d99.jpg\",\"img/0894/e6385e52-6c35-43bd-b0af-bc803d107b11.jpg\"]","trial_type":"similarity","trial_index":208,"time_elapsed":1315869,"internal_node_id":"0.0-6.0-202.0"},{"sim_score":1,"rt":5071,"stimulus":"[\"img/0874/ca23d307-fc00-4d7d-9106-584c6eb21b4d.jpg\",\"img/0860/87039971-2210-4aab-93c0-8e9b5f1655b2.jpg\"]","trial_type":"similarity","trial_index":209,"time_elapsed":1321945,"internal_node_id":"0.0-6.0-203.0"},{"sim_score":5,"rt":7049,"stimulus":"[\"img/0862/cdaed51d-9e2f-4807-801a-4663c40077e2.jpg\",\"img/0875/2c361b79-c3d1-4eda-812e-bf03192407bf.jpg\"]","trial_type":"similarity","trial_index":210,"time_elapsed":1330003,"internal_node_id":"0.0-6.0-204.0"},{"sim_score":3,"rt":4953,"stimulus":"[\"img/0867/f26f6b60-f772-4f4c-95a4-addc62cfd692.jpg\",\"img/0881/7e31e5dc-2240-4b1b-b5a0-3acd980099ef.jpg\"]","trial_type":"similarity","trial_index":211,"time_elapsed":1335969,"internal_node_id":"0.0-6.0-205.0"},{"sim_score":3,"rt":3904,"stimulus":"[\"img/0901/33b51a81-06d9-46d9-9d4f-5a2d6d6b8058.jpg\",\"img/0902/3f0eeac5-c996-4026-a376-563ce8f28521.jpg\"]","trial_type":"similarity","trial_index":212,"time_elapsed":1340877,"internal_node_id":"0.0-6.0-206.0"},{"sim_score":2,"rt":4506,"stimulus":"[\"img/0899/fd9efb43-701f-4cd6-baaa-4c38315f4bdc.jpg\",\"img/0864/efcfbb1b-8197-44c9-b723-40d6c608dd3c.jpg\"]","trial_type":"similarity","trial_index":213,"time_elapsed":1346397,"internal_node_id":"0.0-6.0-207.0"},{"sim_score":3,"rt":5104,"stimulus":"[\"img/0901/f1116359-1ff1-4638-b3b3-700918d36d18.jpg\",\"img/0769/022c7e3b-c3f2-4119-b4bc-f22fa7cae18c.jpg\"]","trial_type":"similarity","trial_index":214,"time_elapsed":1352509,"internal_node_id":"0.0-6.0-208.0"},{"sim_score":7,"rt":5793,"stimulus":"[\"img/0902/aa6fca32-82b0-4414-b20a-8f6f8aa5a2d2.jpg\",\"img/0902/94198618-7047-4dc9-ad04-85f4ba913067.jpg\"]","trial_type":"similarity","trial_index":215,"time_elapsed":1367901,"internal_node_id":"0.0-6.0-209.0"},{"view_history":"[{\"page_index\":0,\"viewing_time\":7303}]","rt":7303,"trial_type":"instructions","trial_index":216,"time_elapsed":1376208,"internal_node_id":"0.0-7.0"},{"rt":43890,"responses":"{\"Q0\":\"Orange-crowned Warbler\"}","answer":["Nashville Warbler"],"trial_type":"image-multi-choice","trial_index":217,"time_elapsed":1421116,"internal_node_id":"0.0-8.0-0.0"},{"rt":10440,"responses":"{\"Q0\":\"Black-and-white Warbler\"}","answer":["Black-and-white Warbler"],"trial_type":"image-multi-choice","trial_index":218,"time_elapsed":1432570,"internal_node_id":"0.0-8.0-1.0"},{"rt":9252,"responses":"{\"Q0\":\"Magnolia Warbler\"}","answer":["Townsend's Warbler"],"trial_type":"image-multi-choice","trial_index":219,"time_elapsed":1442837,"internal_node_id":"0.0-8.0-2.0"},{"rt":8232,"responses":"{\"Q0\":\"Lark Sparrow\"}","answer":["Lark Sparrow"],"trial_type":"image-multi-choice","trial_index":220,"time_elapsed":1452086,"internal_node_id":"0.0-8.0-3.0"},{"rt":6838,"responses":"{\"Q0\":\"Yellow Warbler\"}","answer":["Yellow Warbler"],"trial_type":"image-multi-choice","trial_index":221,"time_elapsed":1459938,"internal_node_id":"0.0-8.0-4.0"},{"rt":18367,"responses":"{\"Q0\":\"Townsend's Warbler\"}","answer":["Orange-crowned Warbler"],"trial_type":"image-multi-choice","trial_index":222,"time_elapsed":1479325,"internal_node_id":"0.0-8.0-5.0"},{"rt":7894,"responses":"{\"Q0\":\"White-throated Sparrow\"}","answer":["White-throated Sparrow"],"trial_type":"image-multi-choice","trial_index":223,"time_elapsed":1488242,"internal_node_id":"0.0-8.0-6.0"},{"rt":20202,"responses":"{\"Q0\":\"Northern Waterthrush\"}","answer":["Fox Sparrow"],"trial_type":"image-multi-choice","trial_index":224,"time_elapsed":1509452,"internal_node_id":"0.0-8.0-7.0"},{"rt":24723,"responses":"{\"Q0\":\"Lincoln's Sparrow\"}","answer":["Song Sparrow"],"trial_type":"image-multi-choice","trial_index":225,"time_elapsed":1535191,"internal_node_id":"0.0-8.0-8.0"},{"rt":6273,"responses":"{\"Q0\":\"Nashville Warbler\"}","answer":["Blackburnian Warbler"],"trial_type":"image-multi-choice","trial_index":226,"time_elapsed":1542480,"internal_node_id":"0.0-8.0-9.0"},{"rt":31636,"responses":"{\"Q0\":\"Swamp Sparrow\"}","answer":["Vesper Sparrow"],"trial_type":"image-multi-choice","trial_index":227,"time_elapsed":1575136,"internal_node_id":"0.0-8.0-10.0"},{"rt":5287,"responses":"{\"Q0\":\"White-crowned Sparrow\"}","answer":["White-crowned Sparrow"],"trial_type":"image-multi-choice","trial_index":228,"time_elapsed":1581432,"internal_node_id":"0.0-8.0-11.0"},{"rt":8146,"responses":"{\"Q0\":\"American Tree Sparrow\"}","answer":["American Tree Sparrow"],"trial_type":"image-multi-choice","trial_index":229,"time_elapsed":1590599,"internal_node_id":"0.0-8.0-12.0"},{"rt":25800,"responses":"{\"Q0\":\"Ovenbird\"}","answer":["Tennessee Warbler"],"trial_type":"image-multi-choice","trial_index":230,"time_elapsed":1617416,"internal_node_id":"0.0-8.0-13.0"},{"rt":8803,"responses":"{\"Q0\":\"Ovenbird\"}","answer":["Magnolia Warbler"],"trial_type":"image-multi-choice","trial_index":231,"time_elapsed":1627228,"internal_node_id":"0.0-8.0-14.0"},{"rt":17381,"responses":"{\"Q0\":\"Tennessee Warbler\"}","answer":["Northern Waterthrush"],"trial_type":"image-multi-choice","trial_index":232,"time_elapsed":1645620,"internal_node_id":"0.0-8.0-15.0"},{"rt":8673,"responses":"{\"Q0\":\"Chipping Sparrow\"}","answer":["Chipping Sparrow"],"trial_type":"image-multi-choice","trial_index":233,"time_elapsed":1655316,"internal_node_id":"0.0-8.0-16.0"},{"rt":14894,"responses":"{\"Q0\":\"Swamp Sparrow\"}","answer":["Swamp Sparrow"],"trial_type":"image-multi-choice","trial_index":234,"time_elapsed":1671227,"internal_node_id":"0.0-8.0-17.0"},{"rt":6467,"responses":"{\"Q0\":\"Fox Sparrow\"}","answer":["Lincoln's Sparrow"],"trial_type":"image-multi-choice","trial_index":235,"time_elapsed":1678705,"internal_node_id":"0.0-8.0-18.0"},{"rt":12755,"responses":"{\"Q0\":\"Tennessee Warbler\"}","answer":["Ovenbird"],"trial_type":"image-multi-choice","trial_index":236,"time_elapsed":1692468,"internal_node_id":"0.0-8.0-19.0"}]