[{"view_history":"[{\"page_index\":0,\"viewing_time\":36258}]","rt":36258,"trial_type":"instructions","trial_index":0,"time_elapsed":36259,"internal_node_id":"0.0-0.0"},{"sim_score":5,"rt":9227,"stimulus":"[\"img/866.jpg\",\"img/868.jpg\"]","trial_type":"similarity_demo","trial_index":1,"time_elapsed":46510,"internal_node_id":"0.0-1.0"},{"view_history":"[{\"page_index\":0,\"viewing_time\":9409}]","rt":9409,"trial_type":"instructions","trial_index":2,"time_elapsed":56940,"internal_node_id":"0.0-2.0"},{"sim_score":3,"rt":6377,"stimulus":"[\"img/766.jpg\",\"img/867.jpg\"]","trial_type":"similarity_demo","trial_index":3,"time_elapsed":64327,"internal_node_id":"0.0-3.0"},{"view_history":"[{\"page_index\":0,\"viewing_time\":8390}]","rt":8390,"trial_type":"instructions","trial_index":4,"time_elapsed":73723,"internal_node_id":"0.0-4.0"},{"view_history":"[{\"page_index\":0,\"viewing_time\":12359}]","rt":12359,"trial_type":"instructions","trial_index":5,"time_elapsed":87092,"internal_node_id":"0.0-5.0"},{"sim_score":2,"rt":5862,"stimulus":"[\"img/0868/fd307a36-9a3a-47d7-ab7c-f810d0b35040.jpg\",\"img/0901/a9b9c0a0-8aed-4888-a78a-65fb7e764d13.jpg\"]","trial_type":"similarity","trial_index":6,"time_elapsed":93977,"internal_node_id":"0.0-6.0-0.0"},{"sim_score":3,"rt":4675,"stimulus":"[\"img/0769/c7cfacc3-7f07-46ff-9f5d-8073f4c4679b.jpg\",\"img/0867/f8159067-056c-41f1-a136-c529fe5e970a.jpg\"]","trial_type":"similarity","trial_index":7,"time_elapsed":99658,"internal_node_id":"0.0-6.0-1.0"},{"sim_score":3,"rt":4153,"stimulus":"[\"img/0766/33519c22-aaa4-49d7-8d49-ab551db1945e.jpg\",\"img/0898/881e2a85-d5c2-49be-a0c6-8a6ce2c4af08.jpg\"]","trial_type":"similarity","trial_index":8,"time_elapsed":104826,"internal_node_id":"0.0-6.0-2.0"},{"sim_score":2,"rt":5127,"stimulus":"[\"img/0902/af40b98b-3d23-4d95-b401-49ba5783ce39.jpg\",\"img/0881/33d65d80-8a8e-4ecf-852d-0ad7725c17a2.jpg\"]","trial_type":"similarity","trial_index":9,"time_elapsed":110961,"internal_node_id":"0.0-6.0-3.0"},{"sim_score":6,"rt":5210,"stimulus":"[\"img/0894/151063aa-6472-4745-837b-36603aba5966.jpg\",\"img/0894/38cf335f-f76f-4349-8d65-e20cd6859565.jpg\"]","trial_type":"similarity","trial_index":10,"time_elapsed":117180,"internal_node_id":"0.0-6.0-4.0"},{"sim_score":2,"rt":5027,"stimulus":"[\"img/0874/7e4f2150-3b59-4a36-b5da-a4e0ba410531.jpg\",\"img/0899/56a605c3-d0a2-4215-89e1-779279d85a7c.jpg\"]","trial_type":"similarity","trial_index":11,"time_elapsed":123210,"internal_node_id":"0.0-6.0-5.0"},{"sim_score":5,"rt":6728,"stimulus":"[\"img/0904/5cceabc9-de1d-4c67-989b-c28a4ef77e79.jpg\",\"img/0764/e30dba15-e68a-4659-89db-e1654b52fe02.jpg\"]","trial_type":"similarity","trial_index":12,"time_elapsed":130959,"internal_node_id":"0.0-6.0-6.0"},{"sim_score":5,"rt":3329,"stimulus":"[\"img/0899/ad8268c5-8199-48d0-ad70-c5b6d6c599ec.jpg\",\"img/0898/40f99fb2-64d2-4e72-8a7f-a1cf60741e69.jpg\"]","trial_type":"similarity","trial_index":13,"time_elapsed":135310,"internal_node_id":"0.0-6.0-7.0"},{"sim_score":2,"rt":2960,"stimulus":"[\"img/0874/a82926a3-0b43-4add-803c-d5f9ea7798ee.jpg\",\"img/0903/72197c2b-403e-4a26-b391-f1aa8dea4b76.jpg\"]","trial_type":"similarity","trial_index":14,"time_elapsed":139275,"internal_node_id":"0.0-6.0-8.0"},{"sim_score":3,"rt":4717,"stimulus":"[\"img/0881/ed4c971f-0873-4fc8-b6d6-e8bbd82f0bcc.jpg\",\"img/0758/821c68d3-5cb0-4eae-8659-30e6263fca39.jpg\"]","trial_type":"similarity","trial_index":15,"time_elapsed":145009,"internal_node_id":"0.0-6.0-9.0"},{"sim_score":3,"rt":3211,"stimulus":"[\"img/0898/cd3aaa3f-efa9-4ab3-8d6f-a6a9273ddf42.jpg\",\"img/0901/0adb3bd6-d758-4ba7-9723-3ad6cac05bd5.jpg\"]","trial_type":"similarity","trial_index":16,"time_elapsed":149226,"internal_node_id":"0.0-6.0-10.0"},{"sim_score":5,"rt":5795,"stimulus":"[\"img/0903/d987e220-f3e6-4b6d-a270-fe6757041f6d.jpg\",\"img/0769/f73c5138-2f4c-4354-981c-129dff9cc734.jpg\"]","trial_type":"similarity","trial_index":17,"time_elapsed":156042,"internal_node_id":"0.0-6.0-11.0"},{"sim_score":2,"rt":2562,"stimulus":"[\"img/0764/cbdc4f20-3a9a-4211-9b40-090699e0abcc.jpg\",\"img/0868/7b212364-ff5f-4e28-9241-7eb6ea00161b.jpg\"]","trial_type":"similarity","trial_index":18,"time_elapsed":159642,"internal_node_id":"0.0-6.0-12.0"},{"sim_score":2,"rt":2494,"stimulus":"[\"img/0867/179ab87a-8eac-4c52-a41f-2e48e3120f09.jpg\",\"img/0903/8f7f9939-b8e6-433f-93dd-b362496c80a7.jpg\"]","trial_type":"similarity","trial_index":19,"time_elapsed":163141,"internal_node_id":"0.0-6.0-13.0"},{"sim_score":2,"rt":2876,"stimulus":"[\"img/0766/d3bab2fc-ddcc-40a0-bb72-c0d0ebe19978.jpg\",\"img/0758/2fa3e613-e676-4e6e-bd12-705327eeb3e1.jpg\"]","trial_type":"similarity","trial_index":20,"time_elapsed":167040,"internal_node_id":"0.0-6.0-14.0"},{"sim_score":2,"rt":2844,"stimulus":"[\"img/0902/c920f0e1-1c81-480f-a164-c77f2dc6ce9a.jpg\",\"img/0860/15b24a61-25be-4356-9eac-5ce95d0cb4a4.jpg\"]","trial_type":"similarity","trial_index":21,"time_elapsed":170893,"internal_node_id":"0.0-6.0-15.0"},{"sim_score":2,"rt":3114,"stimulus":"[\"img/0769/3c1efec9-f8fd-487d-8955-4be88e48c832.jpg\",\"img/0875/ebf7653f-ff45-4e9f-af58-2c042ab3cd2b.jpg\"]","trial_type":"similarity","trial_index":22,"time_elapsed":175026,"internal_node_id":"0.0-6.0-16.0"},{"sim_score":2,"rt":2761,"stimulus":"[\"img/0904/56e73f28-7e64-489b-a161-e6b1a063878d.jpg\",\"img/0866/be24ab58-230e-4db8-9f45-ff04c9aec6bb.jpg\"]","trial_type":"similarity","trial_index":23,"time_elapsed":178808,"internal_node_id":"0.0-6.0-17.0"},{"sim_score":3,"rt":3495,"stimulus":"[\"img/0875/90da8d75-108a-44ad-b999-e21fee3860d3.jpg\",\"img/0875/fb732ab5-013a-4366-9f65-27811ed157e9.jpg\"]","trial_type":"similarity","trial_index":24,"time_elapsed":183310,"internal_node_id":"0.0-6.0-18.0"},{"sim_score":7,"rt":5580,"stimulus":"[\"img/0758/53f35650-e455-4b53-8be4-c3c8271c6466.jpg\",\"img/0758/65d426d6-3ff6-415d-8654-a43b83ecc4fe.jpg\"]","trial_type":"similarity","trial_index":25,"time_elapsed":189910,"internal_node_id":"0.0-6.0-19.0"},{"sim_score":2,"rt":4996,"stimulus":"[\"img/0902/e5a46bda-30d1-41ca-b36d-b8529b5a63d1.jpg\",\"img/0874/adf9a8f1-c40b-402b-b95b-1e85a54a7b62.jpg\"]","trial_type":"similarity","trial_index":26,"time_elapsed":195927,"internal_node_id":"0.0-6.0-20.0"},{"sim_score":5,"rt":5011,"stimulus":"[\"img/0764/83c93cce-18d1-4aa7-9e23-2c268afe0a46.jpg\",\"img/0769/35364db7-e0d5-40ef-93dc-faf9dfb95136.jpg\"]","trial_type":"similarity","trial_index":27,"time_elapsed":201943,"internal_node_id":"0.0-6.0-21.0"},{"sim_score":2,"rt":2993,"stimulus":"[\"img/0901/b453df0b-4c39-49bb-8ced-6127efffa898.jpg\",\"img/0874/3ce41e7c-40c8-4d58-a546-171114521796.jpg\"]","trial_type":"similarity","trial_index":28,"time_elapsed":205957,"internal_node_id":"0.0-6.0-22.0"},{"sim_score":2,"rt":2295,"stimulus":"[\"img/0875/5a716432-c6ca-4b1c-955a-2b8ac25198ee.jpg\",\"img/0903/6378ee1e-3d2b-48d2-87be-bebda32c8268.jpg\"]","trial_type":"similarity","trial_index":29,"time_elapsed":209276,"internal_node_id":"0.0-6.0-23.0"},{"sim_score":2,"rt":2593,"stimulus":"[\"img/0769/d1be2815-fa79-46e8-b5c3-7d81caaca490.jpg\",\"img/0881/4da99fdd-1f40-4bbb-8e21-8833eef313f5.jpg\"]","trial_type":"similarity","trial_index":30,"time_elapsed":212893,"internal_node_id":"0.0-6.0-24.0"},{"sim_score":2,"rt":1993,"stimulus":"[\"img/0867/c66898ba-b71b-4d50-84f9-f7f84853a98d.jpg\",\"img/0904/96e503ea-6630-4996-85f2-0237688ce441.jpg\"]","trial_type":"similarity","trial_index":31,"time_elapsed":215908,"internal_node_id":"0.0-6.0-25.0"},{"sim_score":2,"rt":2727,"stimulus":"[\"img/0860/4a022222-056d-461c-ab02-39fac9647552.jpg\",\"img/0881/ee44e27f-d662-4608-b265-e7ffa19b216f.jpg\"]","trial_type":"similarity","trial_index":32,"time_elapsed":219674,"internal_node_id":"0.0-6.0-26.0"},{"sim_score":3,"rt":4977,"stimulus":"[\"img/0866/11a1d141-be5e-443c-98c1-a9d4d9e3dec0.jpg\",\"img/0866/02f5e6b9-52b7-448c-9708-5b460d0c9a23.jpg\"]","trial_type":"similarity","trial_index":33,"time_elapsed":225659,"internal_node_id":"0.0-6.0-27.0"},{"sim_score":2,"rt":2891,"stimulus":"[\"img/0764/4bec8d92-75aa-475a-954d-8215dbe538f5.jpg\",\"img/0862/847e5208-38ec-4f36-949c-296cdd7424ee.jpg\"]","trial_type":"similarity","trial_index":34,"time_elapsed":229572,"internal_node_id":"0.0-6.0-28.0"},{"sim_score":2,"rt":2842,"stimulus":"[\"img/0904/63dd06dd-dccb-47ba-9740-eb33239e18a7.jpg\",\"img/0758/d540bee6-b460-4c32-ac57-bc282742d7d4.jpg\"]","trial_type":"similarity","trial_index":35,"time_elapsed":233424,"internal_node_id":"0.0-6.0-29.0"},{"sim_score":5,"rt":4460,"stimulus":"[\"img/0894/9b1333fd-3561-43bf-aee5-99b7b7ca3dc3.jpg\",\"img/0899/0e1d936a-dbe2-4afc-9f19-7b7a1ae6c9ed.jpg\"]","trial_type":"similarity","trial_index":36,"time_elapsed":238892,"internal_node_id":"0.0-6.0-30.0"},{"sim_score":2,"rt":3961,"stimulus":"[\"img/0860/fd4662f9-4c03-4d79-8593-06735e55a64b.jpg\",\"img/0904/2fd488e9-960f-41f7-8a44-33375f7d5051.jpg\"]","trial_type":"similarity","trial_index":37,"time_elapsed":243875,"internal_node_id":"0.0-6.0-31.0"},{"sim_score":5,"rt":5295,"stimulus":"[\"img/0874/93d1f8dc-acf2-4f03-bd8d-8ec35df276ed.jpg\",\"img/0881/2a8413be-fec2-4de6-88ad-614dd4cccc9d.jpg\"]","trial_type":"similarity","trial_index":38,"time_elapsed":250191,"internal_node_id":"0.0-6.0-32.0"},{"sim_score":2,"rt":2944,"stimulus":"[\"img/0881/f7a8cc63-8842-40a4-9ff8-fe530310d62c.jpg\",\"img/0899/8abe6c69-822c-436c-9bf2-96c818b49ba5.jpg\"]","trial_type":"similarity","trial_index":39,"time_elapsed":254161,"internal_node_id":"0.0-6.0-33.0"},{"sim_score":2,"rt":3528,"stimulus":"[\"img/0866/6f2a90d7-14f1-4f1b-bd64-fc0af6b9fe44.jpg\",\"img/0862/eefa5588-9efd-4591-aa5f-a2e17c7d7bcc.jpg\"]","trial_type":"similarity","trial_index":40,"time_elapsed":258692,"internal_node_id":"0.0-6.0-34.0"},{"sim_score":2,"rt":2827,"stimulus":"[\"img/0868/1a62b2b2-18f5-466e-b564-5176a57c565e.jpg\",\"img/0894/2d2db7b3-e8a3-499b-b63a-14f51bf73882.jpg\"]","trial_type":"similarity","trial_index":41,"time_elapsed":262525,"internal_node_id":"0.0-6.0-35.0"},{"sim_score":7,"rt":4528,"stimulus":"[\"img/0860/9593362c-9fe5-4d12-9735-6000a11f6aa5.jpg\",\"img/0860/4f695df5-afac-4da7-9875-fee39b0b24ad.jpg\"]","trial_type":"similarity","trial_index":42,"time_elapsed":268059,"internal_node_id":"0.0-6.0-36.0"},{"sim_score":5,"rt":6495,"stimulus":"[\"img/0862/ba89835a-408c-480b-8594-ed4ffa97eb5c.jpg\",\"img/0864/300bb811-8b3c-4c42-8653-6097c3725197.jpg\"]","trial_type":"similarity","trial_index":43,"time_elapsed":275574,"internal_node_id":"0.0-6.0-37.0"},{"sim_score":2,"rt":2610,"stimulus":"[\"img/0766/af3be95e-e52e-4fae-899b-0ff02ec340aa.jpg\",\"img/0866/d493a2c8-66eb-44b4-be02-2f327b700b7c.jpg\"]","trial_type":"similarity","trial_index":44,"time_elapsed":279206,"internal_node_id":"0.0-6.0-38.0"},{"sim_score":2,"rt":2178,"stimulus":"[\"img/0875/dbdd643e-6d0e-4a5c-ab57-b9c29b9c981a.jpg\",\"img/0898/c3cecf20-f7fd-45fa-97d0-dc0a63e8d6c0.jpg\"]","trial_type":"similarity","trial_index":45,"time_elapsed":282392,"internal_node_id":"0.0-6.0-39.0"},{"sim_score":6,"rt":4079,"stimulus":"[\"img/0766/006035d8-c736-4daf-bbe4-a9e373af9da6.jpg\",\"img/0769/db94b61b-a5a7-4861-9d32-7b02ad194fb0.jpg\"]","trial_type":"similarity","trial_index":46,"time_elapsed":287491,"internal_node_id":"0.0-6.0-40.0"},{"sim_score":2,"rt":2376,"stimulus":"[\"img/0874/ca76a855-4e77-4f2f-872a-0a718153e7ed.jpg\",\"img/0764/952d7adc-dc40-4aee-acce-18c2a1d02ea1.jpg\"]","trial_type":"similarity","trial_index":47,"time_elapsed":431290,"internal_node_id":"0.0-6.0-41.0"},{"sim_score":3,"rt":15621,"stimulus":"[\"img/0868/09a9ef4d-d000-4cfa-a6aa-ebec7c2edeb4.jpg\",\"img/0902/418b716e-63e5-4c77-93e9-95b1f5a3ddf0.jpg\"]","trial_type":"similarity","trial_index":48,"time_elapsed":447923,"internal_node_id":"0.0-6.0-42.0"},{"sim_score":2,"rt":3128,"stimulus":"[\"img/0875/3ecb367d-e9eb-4826-8aaa-7aa72fb98019.jpg\",\"img/0899/ddf96ade-692e-4602-bd22-dedbb46401bc.jpg\"]","trial_type":"similarity","trial_index":49,"time_elapsed":452058,"internal_node_id":"0.0-6.0-43.0"},{"sim_score":2,"rt":4623,"stimulus":"[\"img/0866/945c6710-d15b-4a5b-a8f6-69af0850357f.jpg\",\"img/0860/61fb959d-d4d9-4de4-9e4e-4fa62b4cfcd5.jpg\"]","trial_type":"similarity","trial_index":50,"time_elapsed":457708,"internal_node_id":"0.0-6.0-44.0"},{"sim_score":5,"rt":6262,"stimulus":"[\"img/0766/0bf3793e-c353-45e5-ac6f-753f5f484e10.jpg\",\"img/0903/b4a0f61e-a964-4b79-a9a7-f767a8f92f34.jpg\"]","trial_type":"similarity","trial_index":51,"time_elapsed":464991,"internal_node_id":"0.0-6.0-45.0"},{"sim_score":5,"rt":4310,"stimulus":"[\"img/0901/d61f267a-c492-4db6-9bfb-61efd49cf072.jpg\",\"img/0904/4e58005d-a2ec-4aaa-b199-445343561396.jpg\"]","trial_type":"similarity","trial_index":52,"time_elapsed":470306,"internal_node_id":"0.0-6.0-46.0"},{"sim_score":2,"rt":3794,"stimulus":"[\"img/0758/dd559618-7f09-4a07-8018-d311c4a5ea29.jpg\",\"img/0902/a6fb6dd5-696c-47ec-be7d-d7b88f1544f1.jpg\"]","trial_type":"similarity","trial_index":53,"time_elapsed":475106,"internal_node_id":"0.0-6.0-47.0"},{"sim_score":7,"rt":4952,"stimulus":"[\"img/0764/55b3fab1-b809-4d38-a461-3f40ce062f52.jpg\",\"img/0764/f9f890e6-3c2f-40cd-84e9-85e0b54cb28e.jpg\"]","trial_type":"similarity","trial_index":54,"time_elapsed":481076,"internal_node_id":"0.0-6.0-48.0"},{"sim_score":1,"rt":6812,"stimulus":"[\"img/0866/f756f7d1-9ad8-4a34-9ef6-7a443d705bfe.jpg\",\"img/0902/0db94c50-f1fb-4091-953c-29ca0466bee2.jpg\"]","trial_type":"similarity","trial_index":55,"time_elapsed":488907,"internal_node_id":"0.0-6.0-49.0"},{"sim_score":2,"rt":5710,"stimulus":"[\"img/0764/8740679b-b56f-4292-aece-14063457113a.jpg\",\"img/0758/6cd8c362-ae2a-41eb-80a3-3a4f7ace1530.jpg\"]","trial_type":"similarity","trial_index":56,"time_elapsed":495640,"internal_node_id":"0.0-6.0-50.0"},{"sim_score":6,"rt":4046,"stimulus":"[\"img/0898/26c41340-15bd-4ead-8fe4-c0d0ddca09c2.jpg\",\"img/0894/43216a7f-27bc-4b5a-8841-d122a30da9d9.jpg\"]","trial_type":"similarity","trial_index":57,"time_elapsed":500709,"internal_node_id":"0.0-6.0-51.0"},{"sim_score":5,"rt":4866,"stimulus":"[\"img/0875/5a1e5100-0d94-4fec-bbe9-ca9894d2cf8e.jpg\",\"img/0866/07c9c966-3c8d-40e7-8128-92b2acbaed5d.jpg\"]","trial_type":"similarity","trial_index":58,"time_elapsed":506610,"internal_node_id":"0.0-6.0-52.0"},{"sim_score":7,"rt":4743,"stimulus":"[\"img/0904/0d17b811-063e-416e-a23c-3b3cfa4fcce5.jpg\",\"img/0904/9d30eff1-46ef-4453-b11e-124ef8145c00.jpg\"]","trial_type":"similarity","trial_index":59,"time_elapsed":512356,"internal_node_id":"0.0-6.0-53.0"},{"sim_score":6,"rt":5480,"stimulus":"[\"img/0769/35f2dd39-40aa-498e-b401-9f1ef2622d00.jpg\",\"img/0769/662ab839-88d1-4ebf-af05-9b2980cad943.jpg\"]","trial_type":"similarity","trial_index":60,"time_elapsed":518858,"internal_node_id":"0.0-6.0-54.0"},{"sim_score":2,"rt":3301,"stimulus":"[\"img/0898/82231d4c-218b-4d0a-b50d-35a49b524e97.jpg\",\"img/0758/e38fd80d-18d0-42f3-b848-f930788e8bd7.jpg\"]","trial_type":"similarity","trial_index":61,"time_elapsed":523175,"internal_node_id":"0.0-6.0-55.0"},{"sim_score":6,"rt":2897,"stimulus":"[\"img/0769/aad494cc-674d-4a08-9bfa-24a88ebe3c79.jpg\",\"img/0902/07437a16-3d0f-4a5c-89ec-36d0efa4b3b8.jpg\"]","trial_type":"similarity","trial_index":62,"time_elapsed":527092,"internal_node_id":"0.0-6.0-56.0"},{"sim_score":6,"rt":4563,"stimulus":"[\"img/0864/1d15626a-2f7c-410f-819c-0fa2c967e95e.jpg\",\"img/0881/566f45f8-5fed-4479-a60f-26377e60a62d.jpg\"]","trial_type":"similarity","trial_index":63,"time_elapsed":532675,"internal_node_id":"0.0-6.0-57.0"},{"sim_score":5,"rt":3181,"stimulus":"[\"img/0758/67c0be2f-9e91-48b3-8219-70ac0a1802fa.jpg\",\"img/0868/15dd6fd7-791e-4b53-b203-195d617521a4.jpg\"]","trial_type":"similarity","trial_index":64,"time_elapsed":536875,"internal_node_id":"0.0-6.0-58.0"},{"sim_score":1,"rt":3977,"stimulus":"[\"img/0862/f43ceabf-acc1-4107-b857-5d1849808f93.jpg\",\"img/0769/3adfa417-3b90-4aab-b437-5eaa474189cb.jpg\"]","trial_type":"similarity","trial_index":65,"time_elapsed":541872,"internal_node_id":"0.0-6.0-59.0"},{"sim_score":6,"rt":3177,"stimulus":"[\"img/0764/06ea144f-f4f3-4a14-ba47-f20f35c561e0.jpg\",\"img/0903/776b74ee-a8ab-4ab8-a78d-097c0747538d.jpg\"]","trial_type":"similarity","trial_index":66,"time_elapsed":546072,"internal_node_id":"0.0-6.0-60.0"},{"sim_score":7,"rt":4345,"stimulus":"[\"img/0899/06b0fc99-0581-461a-9913-d1a5a941ac61.jpg\",\"img/0899/7b7380d5-d2be-44e5-a09a-c1756f87ef71.jpg\"]","trial_type":"similarity","trial_index":67,"time_elapsed":551424,"internal_node_id":"0.0-6.0-61.0"},{"sim_score":4,"rt":2927,"stimulus":"[\"img/0860/c7047cd2-7cc1-41b6-8a34-c0986774975f.jpg\",\"img/0875/f87b67d7-c33e-40d1-b281-248c4be1cb6e.jpg\"]","trial_type":"similarity","trial_index":68,"time_elapsed":555372,"internal_node_id":"0.0-6.0-62.0"},{"sim_score":4,"rt":4128,"stimulus":"[\"img/0868/8b0b8473-e2c0-4331-aa56-c3a5c29369da.jpg\",\"img/0874/2c9464dd-8a23-4baa-ac94-1ba3af5c15cc.jpg\"]","trial_type":"similarity","trial_index":69,"time_elapsed":560507,"internal_node_id":"0.0-6.0-63.0"},{"sim_score":4,"rt":4412,"stimulus":"[\"img/0758/e1ba5e53-addc-436a-b428-d34fc1b130dc.jpg\",\"img/0862/a0a3a7ba-7798-46a3-b4ca-05e1f6e581d0.jpg\"]","trial_type":"similarity","trial_index":70,"time_elapsed":565940,"internal_node_id":"0.0-6.0-64.0"},{"sim_score":6,"rt":3073,"stimulus":"[\"img/0904/da170c1b-9651-4f08-b231-2bdd1d9a046f.jpg\",\"img/0898/4184e5a2-84ea-4f36-9b42-ae58646f6f87.jpg\"]","trial_type":"similarity","trial_index":71,"time_elapsed":570026,"internal_node_id":"0.0-6.0-65.0"},{"sim_score":5,"rt":3344,"stimulus":"[\"img/0881/445edb15-bd7f-4af3-8bd5-c6ad9677bb31.jpg\",\"img/0866/9b38d691-1802-4959-ab3f-fc902f0e4ea6.jpg\"]","trial_type":"similarity","trial_index":72,"time_elapsed":574391,"internal_node_id":"0.0-6.0-66.0"},{"sim_score":3,"rt":2927,"stimulus":"[\"img/0867/db7e032f-162b-46f5-ae67-2b29679adee4.jpg\",\"img/0898/a8f16b02-e19f-423b-86c3-a36562ae1f9b.jpg\"]","trial_type":"similarity","trial_index":73,"time_elapsed":578322,"internal_node_id":"0.0-6.0-67.0"},{"sim_score":7,"rt":4343,"stimulus":"[\"img/0902/24d10fe7-314f-4d5a-8c7b-b43121bba0a4.jpg\",\"img/0764/56441045-b648-4ede-9632-3e9c0227080b.jpg\"]","trial_type":"similarity","trial_index":74,"time_elapsed":583672,"internal_node_id":"0.0-6.0-68.0"},{"sim_score":4,"rt":4028,"stimulus":"[\"img/0875/2c361b79-c3d1-4eda-812e-bf03192407bf.jpg\",\"img/0867/ac1797e4-8afc-48fe-b252-86d1defb1cca.jpg\"]","trial_type":"similarity","trial_index":75,"time_elapsed":588724,"internal_node_id":"0.0-6.0-69.0"},{"sim_score":7,"rt":3779,"stimulus":"[\"img/0766/79767d11-b612-4e8a-9e4b-a8ac95bb6a54.jpg\",\"img/0764/ca9829fe-aaf8-45b8-b98a-6bae751c63dd.jpg\"]","trial_type":"similarity","trial_index":76,"time_elapsed":593508,"internal_node_id":"0.0-6.0-70.0"},{"sim_score":2,"rt":3328,"stimulus":"[\"img/0894/133a1636-d123-4893-873c-1718050f832a.jpg\",\"img/0867/c71dc569-f49c-4397-8381-68b8d726736d.jpg\"]","trial_type":"similarity","trial_index":77,"time_elapsed":597856,"internal_node_id":"0.0-6.0-71.0"},{"sim_score":2,"rt":3415,"stimulus":"[\"img/0875/42910c99-5463-450a-a0f8-d4d060a11455.jpg\",\"img/0764/21e3292f-01ad-4238-828b-61b817857d16.jpg\"]","trial_type":"similarity","trial_index":78,"time_elapsed":602290,"internal_node_id":"0.0-6.0-72.0"},{"sim_score":5,"rt":5529,"stimulus":"[\"img/0867/50a1b60e-3a29-44bf-b606-d4bd3746fea9.jpg\",\"img/0866/d266fece-59b3-46fa-b69f-96f6efb81b59.jpg\"]","trial_type":"similarity","trial_index":79,"time_elapsed":608840,"internal_node_id":"0.0-6.0-73.0"},{"sim_score":2,"rt":3081,"stimulus":"[\"img/0903/005ad0de-4f52-433c-b515-dbe8d46184a3.jpg\",\"img/0758/a085b443-b5d7-4cb2-9ad4-b9dab0fc23f1.jpg\"]","trial_type":"similarity","trial_index":80,"time_elapsed":612942,"internal_node_id":"0.0-6.0-74.0"},{"sim_score":2,"rt":2496,"stimulus":"[\"img/0766/aaec5f42-7f0a-4a16-aeca-488d757acbcc.jpg\",\"img/0868/293079b8-7e0c-4afd-a390-1e5d35fe3ded.jpg\"]","trial_type":"similarity","trial_index":81,"time_elapsed":616441,"internal_node_id":"0.0-6.0-75.0"},{"sim_score":2,"rt":3961,"stimulus":"[\"img/0874/c0378dac-9370-439a-8b79-db27c96fb390.jpg\",\"img/0766/dd3e18d0-0c98-4d05-b850-69976ee8cd75.jpg\"]","trial_type":"similarity","trial_index":82,"time_elapsed":621421,"internal_node_id":"0.0-6.0-76.0"},{"sim_score":4,"rt":4860,"stimulus":"[\"img/0881/e6746727-7f89-47ec-b939-d98abe78372d.jpg\",\"img/0868/4e626425-63c8-484a-8a1d-e66ee4e0bef8.jpg\"]","trial_type":"similarity","trial_index":83,"time_elapsed":627289,"internal_node_id":"0.0-6.0-77.0"},{"sim_score":2,"rt":2334,"stimulus":"[\"img/0758/ddc336e9-a8b6-4bb9-937a-c7e25e0e9250.jpg\",\"img/0901/1ede21d9-384f-4150-86b5-e1c57b5dc1d4.jpg\"]","trial_type":"similarity","trial_index":84,"time_elapsed":630640,"internal_node_id":"0.0-6.0-78.0"},{"sim_score":2,"rt":3278,"stimulus":"[\"img/0881/db77fe00-aeb0-4d1d-aa66-f3a96fd077e4.jpg\",\"img/0898/01bfe666-3510-4fc7-964f-d00d28732dc8.jpg\"]","trial_type":"similarity","trial_index":85,"time_elapsed":634938,"internal_node_id":"0.0-6.0-79.0"},{"sim_score":3,"rt":4296,"stimulus":"[\"img/0867/85a96c62-548f-4994-9553-819e03c3135a.jpg\",\"img/0758/caa93da2-9edf-49fa-96b9-32dedd8f5078.jpg\"]","trial_type":"similarity","trial_index":86,"time_elapsed":640256,"internal_node_id":"0.0-6.0-80.0"},{"sim_score":5,"rt":2929,"stimulus":"[\"img/0769/04347740-f8f6-48bb-887a-f68babd0a0d4.jpg\",\"img/0899/5b56dd3e-3f49-47cc-af84-16da6457753b.jpg\"]","trial_type":"similarity","trial_index":87,"time_elapsed":644208,"internal_node_id":"0.0-6.0-81.0"},{"sim_score":6,"rt":2909,"stimulus":"[\"img/0903/39365c8e-a733-4801-ac7d-b87e38c3784b.jpg\",\"img/0903/6b5dcc60-3ad3-4962-93e5-e6cf768477af.jpg\"]","trial_type":"similarity","trial_index":88,"time_elapsed":648139,"internal_node_id":"0.0-6.0-82.0"},{"sim_score":2,"rt":2070,"stimulus":"[\"img/0867/12264664-1860-46df-8c21-162b9817cdda.jpg\",\"img/0766/535849cc-ff5d-4df9-8f31-0ce94a97d571.jpg\"]","trial_type":"similarity","trial_index":89,"time_elapsed":662038,"internal_node_id":"0.0-6.0-83.0"},{"sim_score":3,"rt":4028,"stimulus":"[\"img/0902/82d20e8c-2162-47a6-925b-52906558c046.jpg\",\"img/0867/6e19c858-b606-45b2-a4c6-910a73f1d82c.jpg\"]","trial_type":"similarity","trial_index":90,"time_elapsed":667073,"internal_node_id":"0.0-6.0-84.0"},{"sim_score":1,"rt":2643,"stimulus":"[\"img/0901/0f670aef-ac36-496d-8142-ee5fdb21dd82.jpg\",\"img/0875/d59ff733-eaff-4ee2-9443-06954dd0bcb6.jpg\"]","trial_type":"similarity","trial_index":91,"time_elapsed":670739,"internal_node_id":"0.0-6.0-85.0"},{"sim_score":4,"rt":4711,"stimulus":"[\"img/0764/f990b2e8-ecee-481e-be7c-0239fce350e2.jpg\",\"img/0866/93a27239-8317-4e08-98ca-d8b1ff298e07.jpg\"]","trial_type":"similarity","trial_index":92,"time_elapsed":676472,"internal_node_id":"0.0-6.0-86.0"},{"sim_score":5,"rt":3411,"stimulus":"[\"img/0901/c6df1a21-44ed-47c2-960e-7c52220e329e.jpg\",\"img/0894/6b2e9509-8699-42b7-9582-7741df0ba2d7.jpg\"]","trial_type":"similarity","trial_index":93,"time_elapsed":680905,"internal_node_id":"0.0-6.0-87.0"},{"sim_score":5,"rt":2696,"stimulus":"[\"img/0898/81b08535-2020-4c15-9ce4-2f1e460755ae.jpg\",\"img/0769/91acb237-65a3-4d0b-9748-af5c7b83d3c7.jpg\"]","trial_type":"similarity","trial_index":94,"time_elapsed":684623,"internal_node_id":"0.0-6.0-88.0"},{"sim_score":6,"rt":4060,"stimulus":"[\"img/0769/a3cfbdeb-acb3-4eac-87fb-4b117f42d4f8.jpg\",\"img/0894/661b9f9f-4bde-487a-b1ed-87085fde6948.jpg\"]","trial_type":"similarity","trial_index":95,"time_elapsed":689705,"internal_node_id":"0.0-6.0-89.0"},{"sim_score":6,"rt":3249,"stimulus":"[\"img/0862/5d887e9f-89e2-4ebc-80a0-6d46fe6480db.jpg\",\"img/0874/8cdb1c07-1c32-46d2-981c-3636560fa6e5.jpg\"]","trial_type":"similarity","trial_index":96,"time_elapsed":693972,"internal_node_id":"0.0-6.0-90.0"},{"sim_score":6,"rt":4297,"stimulus":"[\"img/0894/8cadb87a-7001-4e47-99fb-1867bebf1668.jpg\",\"img/0766/ef3b15ce-abb7-4292-ad93-aec8e8b50520.jpg\"]","trial_type":"similarity","trial_index":97,"time_elapsed":699274,"internal_node_id":"0.0-6.0-91.0"},{"sim_score":5,"rt":3040,"stimulus":"[\"img/0874/995f0332-0439-4eb4-add3-957335dbf6d9.jpg\",\"img/0867/bf560d4f-dee3-4f11-a385-705cc1aa5f3c.jpg\"]","trial_type":"similarity","trial_index":98,"time_elapsed":703333,"internal_node_id":"0.0-6.0-92.0"},{"sim_score":1,"rt":3214,"stimulus":"[\"img/0899/00715b3f-851b-420b-a26b-d7f79f7759a9.jpg\",\"img/0868/d6d1f30d-4323-435a-b194-7892521bc57e.jpg\"]","trial_type":"similarity","trial_index":99,"time_elapsed":707553,"internal_node_id":"0.0-6.0-93.0"},{"sim_score":3,"rt":4313,"stimulus":"[\"img/0903/36e4ab1f-caa9-40b3-8616-faada076df94.jpg\",\"img/0862/fb26cb07-d5a9-4653-813c-f41609f26cd5.jpg\"]","trial_type":"similarity","trial_index":100,"time_elapsed":712888,"internal_node_id":"0.0-6.0-94.0"},{"sim_score":5,"rt":2678,"stimulus":"[\"img/0899/565ccdd9-0933-4536-a625-3c0e25a713dd.jpg\",\"img/0766/d5d38751-8fa5-476f-93e9-86ed2d9045ef.jpg\"]","trial_type":"similarity","trial_index":101,"time_elapsed":716588,"internal_node_id":"0.0-6.0-95.0"},{"sim_score":4,"rt":4378,"stimulus":"[\"img/0867/2e1a0b58-cdb1-4107-a14e-452530d7b9b0.jpg\",\"img/0868/e0aff734-077f-40dd-9781-74821abd3621.jpg\"]","trial_type":"similarity","trial_index":102,"time_elapsed":721988,"internal_node_id":"0.0-6.0-96.0"},{"sim_score":3,"rt":2764,"stimulus":"[\"img/0862/e0f1a4e9-e1b6-45f7-af67-89f334e6630d.jpg\",\"img/0901/12da1841-e611-435c-9719-109413d536a8.jpg\"]","trial_type":"similarity","trial_index":103,"time_elapsed":725772,"internal_node_id":"0.0-6.0-97.0"},{"sim_score":5,"rt":8462,"stimulus":"[\"img/0875/e7e66b13-b573-431e-b85e-288ce04a35a3.jpg\",\"img/0766/a754e4b6-5019-4cf4-8f58-34c20547a1f5.jpg\"]","trial_type":"similarity","trial_index":104,"time_elapsed":735255,"internal_node_id":"0.0-6.0-98.0"},{"sim_score":5,"rt":3746,"stimulus":"[\"img/0758/6e95579b-5166-487c-b8cb-e417c6a218e3.jpg\",\"img/0874/bf14b896-e930-4fd9-9c05-2e83317a2773.jpg\"]","trial_type":"similarity","trial_index":105,"time_elapsed":740037,"internal_node_id":"0.0-6.0-99.0"},{"sim_score":3,"rt":2925,"stimulus":"[\"img/0904/2c98dc56-88d1-4fb5-a999-b6a7861f65f0.jpg\",\"img/0868/6a28c3b0-3d76-498a-9fb7-ddafc665eca8.jpg\"]","trial_type":"similarity","trial_index":106,"time_elapsed":743970,"internal_node_id":"0.0-6.0-100.0"},{"sim_score":5,"rt":3262,"stimulus":"[\"img/0903/07b445ee-0cdb-4d2c-a23b-d727613f4059.jpg\",\"img/0866/620cd1aa-0800-4414-8f6e-90342e7a99ad.jpg\"]","trial_type":"similarity","trial_index":107,"time_elapsed":748255,"internal_node_id":"0.0-6.0-101.0"},{"sim_score":3,"rt":2945,"stimulus":"[\"img/0868/0d3abd3a-b6c3-4584-a9f7-e2da63748b3d.jpg\",\"img/0769/8056889f-2b14-4782-bb25-b4e8896ab65b.jpg\"]","trial_type":"similarity","trial_index":108,"time_elapsed":752221,"internal_node_id":"0.0-6.0-102.0"},{"sim_score":5,"rt":4489,"stimulus":"[\"img/0902/94198618-7047-4dc9-ad04-85f4ba913067.jpg\",\"img/0899/f95cbdb4-f804-4f5d-ad76-373ad343e658.jpg\"]","trial_type":"similarity","trial_index":109,"time_elapsed":757722,"internal_node_id":"0.0-6.0-103.0"},{"sim_score":2,"rt":3894,"stimulus":"[\"img/0868/77091fc7-a590-4ebb-b915-fdb2483a2399.jpg\",\"img/0862/7918ca67-5bd3-4606-a5ea-c39fb11a9297.jpg\"]","trial_type":"similarity","trial_index":110,"time_elapsed":762638,"internal_node_id":"0.0-6.0-104.0"},{"sim_score":5,"rt":3536,"stimulus":"[\"img/0903/a0673b55-6040-47fe-9040-24bca27ca3c9.jpg\",\"img/0894/792c83e9-a747-4000-bc72-5663d2439edb.jpg\"]","trial_type":"similarity","trial_index":111,"time_elapsed":767188,"internal_node_id":"0.0-6.0-105.0"},{"sim_score":7,"rt":2529,"stimulus":"[\"img/0864/c22faebd-9c53-47bc-ada3-b9a30c688e75.jpg\",\"img/0874/99f6563c-8a8d-4c1c-a41d-667b618c3fd5.jpg\"]","trial_type":"similarity","trial_index":112,"time_elapsed":770738,"internal_node_id":"0.0-6.0-106.0"},{"sim_score":5,"rt":2493,"stimulus":"[\"img/0862/57b6f83f-c763-4858-830d-102f97bfefbf.jpg\",\"img/0902/7499db23-3a41-41ea-ab5b-6ab4d4c3ed35.jpg\"]","trial_type":"similarity","trial_index":113,"time_elapsed":774253,"internal_node_id":"0.0-6.0-107.0"},{"sim_score":7,"rt":4612,"stimulus":"[\"img/0904/a8c3c7d2-9bcf-4347-9e03-8203adfc1fc5.jpg\",\"img/0903/43ffd882-077a-40dd-a264-e58d519420a1.jpg\"]","trial_type":"similarity","trial_index":114,"time_elapsed":779886,"internal_node_id":"0.0-6.0-108.0"},{"sim_score":5,"rt":2244,"stimulus":"[\"img/0764/62fafeea-6274-48ce-976f-35d3d3484c65.jpg\",\"img/0864/65210d57-1153-4657-886a-32e758f49b4a.jpg\"]","trial_type":"similarity","trial_index":115,"time_elapsed":783139,"internal_node_id":"0.0-6.0-109.0"},{"sim_score":3,"rt":3045,"stimulus":"[\"img/0866/8efcaa46-83ab-4dee-a35f-850402aa21ae.jpg\",\"img/0894/0130a973-d993-41f8-874a-fee23d9ac11f.jpg\"]","trial_type":"similarity","trial_index":116,"time_elapsed":787190,"internal_node_id":"0.0-6.0-110.0"},{"sim_score":5,"rt":2827,"stimulus":"[\"img/0899/25ae6ec8-9565-49fe-a8bb-8d0666f52716.jpg\",\"img/0903/b0a3c45f-467e-412f-a183-c9c1827f2e63.jpg\"]","trial_type":"similarity","trial_index":117,"time_elapsed":791021,"internal_node_id":"0.0-6.0-111.0"},{"sim_score":6,"rt":2713,"stimulus":"[\"img/0902/d49743d6-67ae-4c2e-a939-8fd895a0f18e.jpg\",\"img/0904/e9423a8c-f946-43ad-ab7b-931acef870e2.jpg\"]","trial_type":"similarity","trial_index":118,"time_elapsed":794736,"internal_node_id":"0.0-6.0-112.0"},{"sim_score":5,"rt":2394,"stimulus":"[\"img/0864/0f537697-a314-47c3-a8cc-8df23b7e536c.jpg\",\"img/0860/5bff793e-cbd5-4d7e-b628-0ac2b0e30b64.jpg\"]","trial_type":"similarity","trial_index":119,"time_elapsed":798138,"internal_node_id":"0.0-6.0-113.0"},{"sim_score":4,"rt":2162,"stimulus":"[\"img/0860/17b44a7d-c5ca-479f-9e87-f65a64f5c80e.jpg\",\"img/0899/8de08897-b430-42fe-9d42-840670b80f94.jpg\"]","trial_type":"similarity","trial_index":120,"time_elapsed":801321,"internal_node_id":"0.0-6.0-114.0"},{"sim_score":3,"rt":2442,"stimulus":"[\"img/0881/609a5e93-38b5-4940-8627-2bf8fad7f802.jpg\",\"img/0903/24477210-856c-4550-9de0-9f85a32762eb.jpg\"]","trial_type":"similarity","trial_index":121,"time_elapsed":804788,"internal_node_id":"0.0-6.0-115.0"},{"sim_score":6,"rt":3359,"stimulus":"[\"img/0894/e6385e52-6c35-43bd-b0af-bc803d107b11.jpg\",\"img/0874/1016b306-087c-4afc-aa08-fa527b28dc76.jpg\"]","trial_type":"similarity","trial_index":122,"time_elapsed":809169,"internal_node_id":"0.0-6.0-116.0"},{"sim_score":5,"rt":2077,"stimulus":"[\"img/0881/f8bd891e-aa09-4782-89db-33e7cb2b0cf1.jpg\",\"img/0862/f188d4f0-76a4-4102-818c-a209969d73a5.jpg\"]","trial_type":"similarity","trial_index":123,"time_elapsed":812253,"internal_node_id":"0.0-6.0-117.0"},{"sim_score":3,"rt":2314,"stimulus":"[\"img/0868/179a5502-ab5c-478e-8263-5a1fbcc101d2.jpg\",\"img/0875/2e13d160-eea1-416b-aff1-d37ab99ecc1d.jpg\"]","trial_type":"similarity","trial_index":124,"time_elapsed":815588,"internal_node_id":"0.0-6.0-118.0"},{"sim_score":1,"rt":2228,"stimulus":"[\"img/0860/18dfed73-e36b-4487-a8bd-0b8cff8e3668.jpg\",\"img/0758/7fba58df-2a7a-4b76-8a8f-62739f97f271.jpg\"]","trial_type":"similarity","trial_index":125,"time_elapsed":818836,"internal_node_id":"0.0-6.0-119.0"},{"sim_score":1,"rt":1911,"stimulus":"[\"img/0864/c3b63e8f-ea39-4d70-a1f2-b3fe4be8eb75.jpg\",\"img/0875/34132396-d896-4c2d-8087-646dd867e769.jpg\"]","trial_type":"similarity","trial_index":126,"time_elapsed":821769,"internal_node_id":"0.0-6.0-120.0"},{"sim_score":3,"rt":2527,"stimulus":"[\"img/0898/8605a25b-6895-476d-8c13-df7a83f96093.jpg\",\"img/0866/0207e9a2-7dbb-40b5-9459-b472aaeceb2a.jpg\"]","trial_type":"similarity","trial_index":127,"time_elapsed":825303,"internal_node_id":"0.0-6.0-121.0"},{"sim_score":4,"rt":4261,"stimulus":"[\"img/0874/3f471690-9788-4d03-90c7-f615aecef149.jpg\",\"img/0904/ba8e689e-9ca6-4608-a2a1-3b0940666ae6.jpg\"]","trial_type":"similarity","trial_index":128,"time_elapsed":830571,"internal_node_id":"0.0-6.0-122.0"},{"sim_score":3,"rt":3513,"stimulus":"[\"img/0904/73920552-103b-4c9c-9ece-e0b8376b4504.jpg\",\"img/0864/3651d070-2fc5-4848-b6a6-088a2d9ac5c9.jpg\"]","trial_type":"similarity","trial_index":129,"time_elapsed":835104,"internal_node_id":"0.0-6.0-123.0"},{"sim_score":5,"rt":2679,"stimulus":"[\"img/0894/e5edf723-72a5-4673-8441-6c1734a8929b.jpg\",\"img/0902/8af4182a-9af9-4212-a436-9195555112d6.jpg\"]","trial_type":"similarity","trial_index":130,"time_elapsed":838803,"internal_node_id":"0.0-6.0-124.0"},{"sim_score":2,"rt":2362,"stimulus":"[\"img/0868/d98ca254-b195-477f-b57e-5760a2717db8.jpg\",\"img/0864/1ebbc554-99fa-49f9-8799-317375a79820.jpg\"]","trial_type":"similarity","trial_index":131,"time_elapsed":844889,"internal_node_id":"0.0-6.0-125.0"},{"sim_score":1,"rt":6513,"stimulus":"[\"img/0899/4f7bc593-8ddd-4da3-a0b9-84da730d3370.jpg\",\"img/0866/bf14b5bd-fb55-47db-86b9-4f8aeb9a6dad.jpg\"]","trial_type":"similarity","trial_index":132,"time_elapsed":852421,"internal_node_id":"0.0-6.0-126.0"},{"sim_score":2,"rt":6747,"stimulus":"[\"img/0875/8521fd58-3b1e-4dc5-97ae-804edfa6734a.jpg\",\"img/0904/09dac84f-3d1c-4445-a68e-d0389fdbf1e9.jpg\"]","trial_type":"similarity","trial_index":133,"time_elapsed":860204,"internal_node_id":"0.0-6.0-127.0"},{"sim_score":1,"rt":2294,"stimulus":"[\"img/0867/aa05d113-fc19-4756-a8eb-7878f580bc92.jpg\",\"img/0899/fd9efb43-701f-4cd6-baaa-4c38315f4bdc.jpg\"]","trial_type":"similarity","trial_index":134,"time_elapsed":863503,"internal_node_id":"0.0-6.0-128.0"},{"sim_score":3,"rt":2626,"stimulus":"[\"img/0901/f1116359-1ff1-4638-b3b3-700918d36d18.jpg\",\"img/0867/a749dddb-69f0-44a6-acdc-2bf295cf6dcc.jpg\"]","trial_type":"similarity","trial_index":135,"time_elapsed":867152,"internal_node_id":"0.0-6.0-129.0"},{"sim_score":6,"rt":2595,"stimulus":"[\"img/0864/f92649a2-0590-4d31-9a7a-1bfb81666a2d.jpg\",\"img/0769/a1ce8d07-ba37-40de-bade-2778805521e0.jpg\"]","trial_type":"similarity","trial_index":136,"time_elapsed":870769,"internal_node_id":"0.0-6.0-130.0"},{"sim_score":2,"rt":2912,"stimulus":"[\"img/0903/2c7b4aed-6038-4aac-958a-e3e58341c313.jpg\",\"img/0868/c8ac40c7-6904-4e13-8d61-c75d3052dc4e.jpg\"]","trial_type":"similarity","trial_index":137,"time_elapsed":874703,"internal_node_id":"0.0-6.0-131.0"},{"sim_score":3,"rt":2316,"stimulus":"[\"img/0864/87c467d3-abca-482f-ad80-3766c21b1bb3.jpg\",\"img/0867/075e0f95-856b-4cbb-acf5-092393aaf04e.jpg\"]","trial_type":"similarity","trial_index":138,"time_elapsed":878037,"internal_node_id":"0.0-6.0-132.0"},{"sim_score":5,"rt":2706,"stimulus":"[\"img/0901/33b51a81-06d9-46d9-9d4f-5a2d6d6b8058.jpg\",\"img/0860/29a21a9f-54bb-4093-ad3f-04823ceaa89f.jpg\"]","trial_type":"similarity","trial_index":139,"time_elapsed":881753,"internal_node_id":"0.0-6.0-133.0"},{"sim_score":5,"rt":2398,"stimulus":"[\"img/0881/5fe04dd0-5c74-47b7-99c8-b068db9ca26a.jpg\",\"img/0766/5d6e0d1d-4369-41f0-a64c-91f3503055c7.jpg\"]","trial_type":"similarity","trial_index":140,"time_elapsed":885188,"internal_node_id":"0.0-6.0-134.0"},{"sim_score":4,"rt":2780,"stimulus":"[\"img/0903/0a92ec52-4e87-410a-857a-4455cde56a70.jpg\",\"img/0864/4bd81bc6-c13d-46df-95a9-485886dc7c1b.jpg\"]","trial_type":"similarity","trial_index":141,"time_elapsed":888971,"internal_node_id":"0.0-6.0-135.0"},{"sim_score":3,"rt":3129,"stimulus":"[\"img/0758/61d64021-9214-4951-bdf8-f871f9827cf9.jpg\",\"img/0894/86201968-6e78-4d68-9b3a-d1692e066210.jpg\"]","trial_type":"similarity","trial_index":142,"time_elapsed":893120,"internal_node_id":"0.0-6.0-136.0"},{"sim_score":4,"rt":2594,"stimulus":"[\"img/0769/1ca58b80-2365-446d-9616-6c1719e6c46f.jpg\",\"img/0860/8fdba999-b946-4c7d-9891-336018b563ef.jpg\"]","trial_type":"similarity","trial_index":143,"time_elapsed":896736,"internal_node_id":"0.0-6.0-137.0"},{"sim_score":5,"rt":2778,"stimulus":"[\"img/0904/696ebb60-8891-417a-91fd-c53218907a95.jpg\",\"img/0766/f3276cc4-65de-4c2d-88d5-6cfebce14b8f.jpg\"]","trial_type":"similarity","trial_index":144,"time_elapsed":900536,"internal_node_id":"0.0-6.0-138.0"},{"sim_score":3,"rt":2955,"stimulus":"[\"img/0868/4bd5105a-d2c3-4f82-8c80-57196106ba53.jpg\",\"img/0860/c5ccd1a4-4bb7-48e1-9b25-72cfaf06909b.jpg\"]","trial_type":"similarity","trial_index":145,"time_elapsed":904503,"internal_node_id":"0.0-6.0-139.0"},{"sim_score":5,"rt":2743,"stimulus":"[\"img/0758/7ee8bc8f-c40b-4b3a-84ec-3e83580622d4.jpg\",\"img/0864/8ddd2e30-a1d0-479f-9cbe-591213023893.jpg\"]","trial_type":"similarity","trial_index":146,"time_elapsed":908251,"internal_node_id":"0.0-6.0-140.0"},{"sim_score":7,"rt":2743,"stimulus":"[\"img/0867/98d8cd96-1476-4fe0-a3a3-04f875500a1b.jpg\",\"img/0867/5e07b34d-b40f-4b1c-ac10-49975bace45f.jpg\"]","trial_type":"similarity","trial_index":147,"time_elapsed":912002,"internal_node_id":"0.0-6.0-141.0"},{"sim_score":6,"rt":2961,"stimulus":"[\"img/0898/79233891-305a-4a6a-8ddf-5c8604858203.jpg\",\"img/0898/f3a3f225-1248-4ac7-b93b-f0ff28485bf3.jpg\"]","trial_type":"similarity","trial_index":148,"time_elapsed":915985,"internal_node_id":"0.0-6.0-142.0"},{"sim_score":3,"rt":2542,"stimulus":"[\"img/0866/4a87911a-d5be-4d4e-ab8e-3d1f581bf507.jpg\",\"img/0769/965c3c44-d9e5-47c5-b61a-2bbdf4215d9a.jpg\"]","trial_type":"similarity","trial_index":149,"time_elapsed":919550,"internal_node_id":"0.0-6.0-143.0"},{"sim_score":7,"rt":4310,"stimulus":"[\"img/0860/71e1aad0-2cdf-43bb-94a4-a8c016997c30.jpg\",\"img/0898/ec565187-2e31-4fdd-9a5c-153d0c789ae0.jpg\"]","trial_type":"similarity","trial_index":150,"time_elapsed":924868,"internal_node_id":"0.0-6.0-144.0"},{"sim_score":3,"rt":2510,"stimulus":"[\"img/0766/0b48f9e0-7d37-4161-8adb-4e3f5b6b7583.jpg\",\"img/0864/b3c4e378-28f0-4699-9338-2a257b4bca04.jpg\"]","trial_type":"similarity","trial_index":151,"time_elapsed":928401,"internal_node_id":"0.0-6.0-145.0"},{"sim_score":2,"rt":2694,"stimulus":"[\"img/0860/f44ba3fb-03a2-42f0-8509-2c1ded493086.jpg\",\"img/0903/f1fa0f8d-e62b-4b4a-a174-31a0fabfe61b.jpg\"]","trial_type":"similarity","trial_index":152,"time_elapsed":932118,"internal_node_id":"0.0-6.0-146.0"},{"sim_score":1,"rt":2910,"stimulus":"[\"img/0867/cc72ed48-7704-422c-86d6-467a1145287a.jpg\",\"img/0764/ba0c0955-acbb-457d-b1c2-f006b88121d5.jpg\"]","trial_type":"similarity","trial_index":153,"time_elapsed":936035,"internal_node_id":"0.0-6.0-147.0"},{"sim_score":6,"rt":3764,"stimulus":"[\"img/0769/50985283-d353-4abc-9abe-14a91d56ebe6.jpg\",\"img/0904/1d10df11-b5c8-4370-9a6b-097a7f965895.jpg\"]","trial_type":"similarity","trial_index":154,"time_elapsed":940821,"internal_node_id":"0.0-6.0-148.0"},{"sim_score":3,"rt":3065,"stimulus":"[\"img/0764/5c8fbafc-e62e-43ed-9b37-f73e8e45147d.jpg\",\"img/0901/3db47171-0139-4235-82cd-0b1787b6775f.jpg\"]","trial_type":"similarity","trial_index":155,"time_elapsed":944891,"internal_node_id":"0.0-6.0-149.0"},{"sim_score":5,"rt":2310,"stimulus":"[\"img/0904/4d7d70a3-9477-4921-bda0-f9531d0a5c5b.jpg\",\"img/0899/9de5e857-aa9a-4e0c-8ba2-46d79bd069a4.jpg\"]","trial_type":"similarity","trial_index":156,"time_elapsed":948203,"internal_node_id":"0.0-6.0-150.0"},{"sim_score":3,"rt":2528,"stimulus":"[\"img/0862/f23038d4-c366-4f70-979f-66b62362efa4.jpg\",\"img/0867/26611f4e-d694-4460-b7e2-43c62753ddc3.jpg\"]","trial_type":"similarity","trial_index":157,"time_elapsed":951752,"internal_node_id":"0.0-6.0-151.0"},{"sim_score":7,"rt":4061,"stimulus":"[\"img/0766/1865bfc9-2410-4765-a804-3ae4ba2393d0.jpg\",\"img/0766/d8221e53-2300-4d99-ae1b-0bfb0eabe579.jpg\"]","trial_type":"similarity","trial_index":158,"time_elapsed":956835,"internal_node_id":"0.0-6.0-152.0"},{"sim_score":4,"rt":2594,"stimulus":"[\"img/0862/92f0146c-20c4-482e-aef5-adb693790338.jpg\",\"img/0894/10f22b96-040c-44f4-950b-a4963f3f506c.jpg\"]","trial_type":"similarity","trial_index":159,"time_elapsed":960451,"internal_node_id":"0.0-6.0-153.0"},{"sim_score":3,"rt":2469,"stimulus":"[\"img/0899/fef567a2-c121-4481-9af0-ff108d199bbf.jpg\",\"img/0901/a6c90438-fa7c-4418-ac7c-16c2e772dd98.jpg\"]","trial_type":"similarity","trial_index":160,"time_elapsed":963935,"internal_node_id":"0.0-6.0-154.0"},{"sim_score":5,"rt":2195,"stimulus":"[\"img/0874/a3bc679d-619f-4db6-bb68-116dcb757d9c.jpg\",\"img/0874/ca23d307-fc00-4d7d-9106-584c6eb21b4d.jpg\"]","trial_type":"similarity","trial_index":161,"time_elapsed":967136,"internal_node_id":"0.0-6.0-155.0"},{"sim_score":1,"rt":1995,"stimulus":"[\"img/0860/b03b963d-949b-4d8d-b19c-4950c89eeca2.jpg\",\"img/0867/7d1c497b-c1b3-4ed8-abb5-d7f73306015f.jpg\"]","trial_type":"similarity","trial_index":162,"time_elapsed":970152,"internal_node_id":"0.0-6.0-156.0"},{"sim_score":1,"rt":2146,"stimulus":"[\"img/0901/8bb79e82-9c43-4b6f-a655-40655519598b.jpg\",\"img/0881/405484ae-0d00-4b05-bc57-6420a36adfac.jpg\"]","trial_type":"similarity","trial_index":163,"time_elapsed":973304,"internal_node_id":"0.0-6.0-157.0"},{"sim_score":5,"rt":2477,"stimulus":"[\"img/0903/5ea5bbe0-f238-4724-abe7-9ed8dee8c0ba.jpg\",\"img/0902/aa6fca32-82b0-4414-b20a-8f6f8aa5a2d2.jpg\"]","trial_type":"similarity","trial_index":164,"time_elapsed":976785,"internal_node_id":"0.0-6.0-158.0"},{"sim_score":3,"rt":2994,"stimulus":"[\"img/0860/524b2e98-5767-4d53-942c-ebae6925659b.jpg\",\"img/0764/da207710-e7e4-4f42-b2e6-99b5f357f433.jpg\"]","trial_type":"similarity","trial_index":165,"time_elapsed":980802,"internal_node_id":"0.0-6.0-159.0"},{"sim_score":1,"rt":2548,"stimulus":"[\"img/0902/7f1dcd35-237a-4995-9e42-7f63f3f434d4.jpg\",\"img/0875/cff79b3a-a797-4393-9757-6275f999ec04.jpg\"]","trial_type":"similarity","trial_index":166,"time_elapsed":984368,"internal_node_id":"0.0-6.0-160.0"},{"sim_score":5,"rt":1896,"stimulus":"[\"img/0898/661621d4-a14e-487c-8c74-354134a29710.jpg\",\"img/0862/47ed5efd-4ec9-4b74-bb4e-a5f5cf0c3e7d.jpg\"]","trial_type":"similarity","trial_index":167,"time_elapsed":987286,"internal_node_id":"0.0-6.0-161.0"},{"sim_score":3,"rt":2461,"stimulus":"[\"img/0894/767a0eec-1064-46b1-b1aa-dfa02b0cd74e.jpg\",\"img/0875/a4935837-7d3c-4df6-88c1-36a94d4991ca.jpg\"]","trial_type":"similarity","trial_index":168,"time_elapsed":990768,"internal_node_id":"0.0-6.0-162.0"},{"sim_score":3,"rt":1777,"stimulus":"[\"img/0866/23a224f3-2012-4fc8-8e0f-3c36f8de27fd.jpg\",\"img/0864/66091c27-e588-4476-8af9-265dc6be4156.jpg\"]","trial_type":"similarity","trial_index":169,"time_elapsed":993567,"internal_node_id":"0.0-6.0-163.0"},{"sim_score":3,"rt":2393,"stimulus":"[\"img/0766/6d32752d-aa05-40dc-9541-640b6e9d6fa1.jpg\",\"img/0862/de9ad88c-b522-430a-8ee9-eb06a9f85df5.jpg\"]","trial_type":"similarity","trial_index":170,"time_elapsed":996968,"internal_node_id":"0.0-6.0-164.0"},{"sim_score":1,"rt":2528,"stimulus":"[\"img/0866/a15b02be-11bb-43e3-b0e0-ecc3bd7dfc49.jpg\",\"img/0874/eba003b4-cdab-4eee-8bc3-f064c7d94165.jpg\"]","trial_type":"similarity","trial_index":171,"time_elapsed":1000502,"internal_node_id":"0.0-6.0-165.0"},{"sim_score":6,"rt":2471,"stimulus":"[\"img/0862/e697469a-ec19-4414-b972-7b9f3564785b.jpg\",\"img/0860/c3379ff7-0763-48fe-a1ec-7ea3d611bc7a.jpg\"]","trial_type":"similarity","trial_index":172,"time_elapsed":1003985,"internal_node_id":"0.0-6.0-166.0"},{"sim_score":4,"rt":2309,"stimulus":"[\"img/0766/1bc0dccc-a5b5-4375-87fa-28360ca42b12.jpg\",\"img/0901/ae1e6ce4-2e10-4ca9-b1e7-21628637ab74.jpg\"]","trial_type":"similarity","trial_index":173,"time_elapsed":1018151,"internal_node_id":"0.0-6.0-167.0"},{"sim_score":7,"rt":2780,"stimulus":"[\"img/0862/99a99e39-8355-44ec-b993-e7bcec111e1c.jpg\",\"img/0862/24cdc752-c2e5-4a17-86a6-6f2045d8553b.jpg\"]","trial_type":"similarity","trial_index":174,"time_elapsed":1021954,"internal_node_id":"0.0-6.0-168.0"},{"sim_score":6,"rt":3712,"stimulus":"[\"img/0894/492d2f29-d7b9-4422-8be8-47fd58bfaa8b.jpg\",\"img/0764/17b088f8-3053-4140-b544-d15654cc79ef.jpg\"]","trial_type":"similarity","trial_index":175,"time_elapsed":1026685,"internal_node_id":"0.0-6.0-169.0"},{"sim_score":4,"rt":1996,"stimulus":"[\"img/0874/29830da7-be5f-44e5-b141-652a0ccf7269.jpg\",\"img/0898/68476bbb-34a1-42d9-8bc1-deab783d4489.jpg\"]","trial_type":"similarity","trial_index":176,"time_elapsed":1029703,"internal_node_id":"0.0-6.0-170.0"},{"sim_score":6,"rt":2894,"stimulus":"[\"img/0860/94ef7afc-e0e6-4a15-98c6-0bfac82bc832.jpg\",\"img/0766/2746b119-4bba-463e-acf0-88136dc6600c.jpg\"]","trial_type":"similarity","trial_index":177,"time_elapsed":1033617,"internal_node_id":"0.0-6.0-171.0"},{"sim_score":4,"rt":2694,"stimulus":"[\"img/0898/b3290bf9-215b-4b45-b21a-65bdf73f142f.jpg\",\"img/0864/ef9cbca0-4be8-435d-ad49-977259e80409.jpg\"]","trial_type":"similarity","trial_index":178,"time_elapsed":1037318,"internal_node_id":"0.0-6.0-172.0"},{"sim_score":4,"rt":1898,"stimulus":"[\"img/0881/14236cf2-6b95-48b8-9368-78af09d2d27f.jpg\",\"img/0764/5d6fa3ce-9083-410c-bbdb-336a49b94cfc.jpg\"]","trial_type":"similarity","trial_index":179,"time_elapsed":1040236,"internal_node_id":"0.0-6.0-173.0"},{"sim_score":1,"rt":2502,"stimulus":"[\"img/0898/6cd3830b-d44e-4915-be2b-88d31424b91c.jpg\",\"img/0868/4a8a45ed-2c4f-421b-9564-409a33ecd26c.jpg\"]","trial_type":"similarity","trial_index":180,"time_elapsed":1043745,"internal_node_id":"0.0-6.0-174.0"},{"sim_score":7,"rt":3501,"stimulus":"[\"img/0864/a248adb3-c70b-4652-b7a3-776d2a1e904b.jpg\",\"img/0864/3d4de670-b290-4285-9c3d-12a0e3af44e9.jpg\"]","trial_type":"similarity","trial_index":181,"time_elapsed":1048251,"internal_node_id":"0.0-6.0-175.0"},{"sim_score":3,"rt":3726,"stimulus":"[\"img/0899/a05bea16-2bb4-4cb9-b8fb-4ff975db6971.jpg\",\"img/0862/1c20f772-3a51-4a80-aac0-f57dc9f86c28.jpg\"]","trial_type":"similarity","trial_index":182,"time_elapsed":1052983,"internal_node_id":"0.0-6.0-176.0"},{"sim_score":1,"rt":1962,"stimulus":"[\"img/0875/99698b4d-b4a1-44bc-8c83-8ea755bbbf61.jpg\",\"img/0758/7ffbc76b-1fc1-432c-8f7e-9ec8d1b3f643.jpg\"]","trial_type":"similarity","trial_index":183,"time_elapsed":1055968,"internal_node_id":"0.0-6.0-177.0"},{"sim_score":1,"rt":2644,"stimulus":"[\"img/0866/c446214b-a368-4c65-ae39-ea46894256ab.jpg\",\"img/0901/effc03f6-8f9d-46db-a66c-16fc83891c5c.jpg\"]","trial_type":"similarity","trial_index":184,"time_elapsed":1059634,"internal_node_id":"0.0-6.0-178.0"},{"sim_score":5,"rt":3111,"stimulus":"[\"img/0769/4a1d0b52-3fe8-40fb-bb1c-c814fe49a68c.jpg\",\"img/0874/31e22c7c-99aa-40b1-bf03-dd73fa2df4d6.jpg\"]","trial_type":"similarity","trial_index":185,"time_elapsed":1063768,"internal_node_id":"0.0-6.0-179.0"},{"sim_score":3,"rt":2015,"stimulus":"[\"img/0875/5a7c4e35-6514-4e12-8879-d16071da4cd6.jpg\",\"img/0881/62a64f90-7a72-4aee-a1a1-0c548ac9bdda.jpg\"]","trial_type":"similarity","trial_index":186,"time_elapsed":1066799,"internal_node_id":"0.0-6.0-180.0"},{"sim_score":6,"rt":2995,"stimulus":"[\"img/0866/a04d37f0-99dd-478a-b6c6-58b215138f84.jpg\",\"img/0868/83b4350a-3b70-4cea-b7f5-b5b56f3050a8.jpg\"]","trial_type":"similarity","trial_index":187,"time_elapsed":1070803,"internal_node_id":"0.0-6.0-181.0"},{"sim_score":4,"rt":2213,"stimulus":"[\"img/0899/93494f3b-d539-4075-b027-d82e344563da.jpg\",\"img/0758/d41c06bf-ebaf-454b-91c6-1a17f917b659.jpg\"]","trial_type":"similarity","trial_index":188,"time_elapsed":1074036,"internal_node_id":"0.0-6.0-182.0"},{"sim_score":3,"rt":2435,"stimulus":"[\"img/0874/767f289c-9814-4496-803f-745cc8913d1f.jpg\",\"img/0875/03c3c331-738b-4446-af92-3d7386b08c2e.jpg\"]","trial_type":"similarity","trial_index":189,"time_elapsed":1077484,"internal_node_id":"0.0-6.0-183.0"},{"sim_score":4,"rt":3145,"stimulus":"[\"img/0904/25365108-e038-4021-aac9-797f2063b337.jpg\",\"img/0862/ee3b7bff-4a70-4e84-9bea-4a565e456acb.jpg\"]","trial_type":"similarity","trial_index":190,"time_elapsed":1081666,"internal_node_id":"0.0-6.0-184.0"},{"sim_score":4,"rt":3513,"stimulus":"[\"img/0902/eb3e7e71-8ff1-4b88-a6a7-47e2c1ce1683.jpg\",\"img/0766/d512b99c-a2dc-40d7-8e86-827323a0cbcf.jpg\"]","trial_type":"similarity","trial_index":191,"time_elapsed":1086202,"internal_node_id":"0.0-6.0-185.0"},{"sim_score":3,"rt":2411,"stimulus":"[\"img/0758/b76ceca7-95ac-46e4-ac13-da02c8e93be9.jpg\",\"img/0769/0fe124d3-bcad-45f6-b64d-8f6eb8ee5251.jpg\"]","trial_type":"similarity","trial_index":192,"time_elapsed":1089618,"internal_node_id":"0.0-6.0-186.0"},{"sim_score":4,"rt":4078,"stimulus":"[\"img/0881/54ea8e77-c7e5-4197-b7fa-00b7020849a7.jpg\",\"img/0881/84397291-bc14-4fbf-90e8-241e486ab0fe.jpg\"]","trial_type":"similarity","trial_index":193,"time_elapsed":1094717,"internal_node_id":"0.0-6.0-187.0"},{"sim_score":4,"rt":5762,"stimulus":"[\"img/0758/eabcd7a8-56ad-4fd2-bc24-90f6b7b33265.jpg\",\"img/0866/386235d2-6857-41e7-88a8-25cfc3430025.jpg\"]","trial_type":"similarity","trial_index":194,"time_elapsed":1101502,"internal_node_id":"0.0-6.0-188.0"},{"sim_score":3,"rt":3230,"stimulus":"[\"img/0764/e48e6c6f-9e28-420f-836a-8043b2319bb4.jpg\",\"img/0898/993d8f2d-bef7-4251-a193-0f93a32b7763.jpg\"]","trial_type":"similarity","trial_index":195,"time_elapsed":1105750,"internal_node_id":"0.0-6.0-189.0"},{"sim_score":6,"rt":2510,"stimulus":"[\"img/0903/b7e3723f-fd03-4f3d-8820-f19496463a34.jpg\",\"img/0901/d6d15b1c-4a30-4f74-a3fd-d4c8ee4169ca.jpg\"]","trial_type":"similarity","trial_index":196,"time_elapsed":1109283,"internal_node_id":"0.0-6.0-190.0"},{"sim_score":6,"rt":2461,"stimulus":"[\"img/0902/962f645e-9b55-4628-9b50-c703422bfe1a.jpg\",\"img/0898/0af304a2-6a7a-4082-ab7c-4450cd08cc58.jpg\"]","trial_type":"similarity","trial_index":197,"time_elapsed":1112752,"internal_node_id":"0.0-6.0-191.0"},{"sim_score":2,"rt":2378,"stimulus":"[\"img/0864/49150900-7f25-4ce8-8d10-9b47a71d1997.jpg\",\"img/0901/1e23ffbd-19de-4c4f-aa23-c54aaa3319a3.jpg\"]","trial_type":"similarity","trial_index":198,"time_elapsed":1116134,"internal_node_id":"0.0-6.0-192.0"},{"sim_score":2,"rt":2764,"stimulus":"[\"img/0894/5f15154e-e72e-4ce5-aafb-bce6f0564006.jpg\",\"img/0881/c24f3051-eefa-42de-aba6-fccb56d93c70.jpg\"]","trial_type":"similarity","trial_index":199,"time_elapsed":1119918,"internal_node_id":"0.0-6.0-193.0"},{"sim_score":6,"rt":3064,"stimulus":"[\"img/0868/3a62db2d-97e9-44a3-b8e3-a48c6f0e423b.jpg\",\"img/0868/5fa7f9d0-f0e5-454c-8224-74d964818f56.jpg\"]","trial_type":"similarity","trial_index":200,"time_elapsed":1124004,"internal_node_id":"0.0-6.0-194.0"},{"sim_score":4,"rt":4071,"stimulus":"[\"img/0899/0433d056-aa30-4f8a-9aa1-abbb951e4edd.jpg\",\"img/0764/c01e2d65-6586-441b-bef5-3c96fcd85380.jpg\"]","trial_type":"similarity","trial_index":201,"time_elapsed":1129085,"internal_node_id":"0.0-6.0-195.0"},{"sim_score":3,"rt":3646,"stimulus":"[\"img/0881/6b1189e6-232d-4042-8885-16dc7b10e0d4.jpg\",\"img/0904/09934646-45d2-4147-8fec-64a22a5ac822.jpg\"]","trial_type":"similarity","trial_index":202,"time_elapsed":1133752,"internal_node_id":"0.0-6.0-196.0"},{"sim_score":3,"rt":2861,"stimulus":"[\"img/0864/e02eddb5-f468-499c-91bf-f7be3ffe979b.jpg\",\"img/0902/cf9dee9c-2bdf-4d64-9302-97f1660fe52c.jpg\"]","trial_type":"similarity","trial_index":203,"time_elapsed":1137634,"internal_node_id":"0.0-6.0-197.0"},{"sim_score":4,"rt":2927,"stimulus":"[\"img/0894/7f2f31fd-6618-41c6-b65a-0fd8b2851bc9.jpg\",\"img/0904/4b8daf2a-13a9-4ea9-9e0b-b265b6e933e7.jpg\"]","trial_type":"similarity","trial_index":204,"time_elapsed":1141568,"internal_node_id":"0.0-6.0-198.0"},{"sim_score":4,"rt":41524,"stimulus":"[\"img/0901/58ec7fa9-b466-4651-90aa-c082df0972de.jpg\",\"img/0901/4f9cffe0-c0be-4d7f-bacd-9d51efd19b4a.jpg\"]","trial_type":"similarity","trial_index":205,"time_elapsed":1184099,"internal_node_id":"0.0-6.0-199.0"},{"sim_score":3,"rt":2794,"stimulus":"[\"img/0894/3664e04c-c6d3-4c9b-afb6-25d89974b174.jpg\",\"img/0860/e14d67c1-6d92-4f1e-9257-c8607159c19c.jpg\"]","trial_type":"similarity","trial_index":206,"time_elapsed":1187916,"internal_node_id":"0.0-6.0-200.0"},{"sim_score":6,"rt":2922,"stimulus":"[\"img/0898/08c72dac-f8ad-407a-9ce6-8c9a5d679c3a.jpg\",\"img/0903/aa842abe-6fa3-448a-bf71-88d3ad28663b.jpg\"]","trial_type":"similarity","trial_index":207,"time_elapsed":1191852,"internal_node_id":"0.0-6.0-201.0"},{"sim_score":3,"rt":2479,"stimulus":"[\"img/0864/5f33e097-23e3-4002-882d-76e8cb15f451.jpg\",\"img/0894/5ff3c4f6-52e2-4075-8679-be0312e59703.jpg\"]","trial_type":"similarity","trial_index":208,"time_elapsed":1195352,"internal_node_id":"0.0-6.0-202.0"},{"sim_score":3,"rt":2157,"stimulus":"[\"img/0874/85eb9b8a-c4c6-4e5a-b8e7-363a87a82054.jpg\",\"img/0860/8a92e21b-6a32-4e4a-a445-2d5a487ed0a4.jpg\"]","trial_type":"similarity","trial_index":209,"time_elapsed":1198533,"internal_node_id":"0.0-6.0-203.0"},{"sim_score":5,"rt":2895,"stimulus":"[\"img/0862/4f0a3b4c-afbf-486e-b248-1d54982f54b4.jpg\",\"img/0875/527ced51-8e53-4aab-ab05-86df219104c0.jpg\"]","trial_type":"similarity","trial_index":210,"time_elapsed":1202452,"internal_node_id":"0.0-6.0-204.0"},{"sim_score":1,"rt":2824,"stimulus":"[\"img/0867/de92135f-5b65-4ed9-b245-188292c7c2f8.jpg\",\"img/0881/f037e3b0-09cb-4a83-b2d9-6a71fe474e63.jpg\"]","trial_type":"similarity","trial_index":211,"time_elapsed":1206297,"internal_node_id":"0.0-6.0-205.0"},{"sim_score":4,"rt":2063,"stimulus":"[\"img/0901/6e2957f8-f5ab-46f4-87cc-bb50155a098b.jpg\",\"img/0902/10d99c89-71f7-4c81-a31e-dfc7c59f5232.jpg\"]","trial_type":"similarity","trial_index":212,"time_elapsed":1209368,"internal_node_id":"0.0-6.0-206.0"},{"sim_score":3,"rt":3096,"stimulus":"[\"img/0899/0adc0bc3-6fca-4078-be6f-d45ddf1653d5.jpg\",\"img/0864/9b2490c5-a282-400a-9736-e1a0ecbf1cb7.jpg\"]","trial_type":"similarity","trial_index":213,"time_elapsed":1213469,"internal_node_id":"0.0-6.0-207.0"},{"sim_score":3,"rt":2807,"stimulus":"[\"img/0901/deff6cfb-0072-4490-bc3e-206bbcd3e8bf.jpg\",\"img/0769/47700831-0ca2-4fdd-a498-a3bc5a528f43.jpg\"]","trial_type":"similarity","trial_index":214,"time_elapsed":1217283,"internal_node_id":"0.0-6.0-208.0"},{"sim_score":6,"rt":2691,"stimulus":"[\"img/0902/9f543501-3cf1-45a7-a2f1-eeca87cc15b9.jpg\",\"img/0902/5b45a7a0-81c8-4a71-aaa2-2ce09adb5a29.jpg\"]","trial_type":"similarity","trial_index":215,"time_elapsed":1224500,"internal_node_id":"0.0-6.0-209.0"},{"view_history":"[{\"page_index\":0,\"viewing_time\":4282}]","rt":4282,"trial_type":"instructions","trial_index":216,"time_elapsed":1229799,"internal_node_id":"0.0-7.0"},{"rt":23269,"responses":"{\"Q0\":\"Orange-crowned Warbler\"}","answer":["Nashville Warbler"],"trial_type":"image-multi-choice","trial_index":217,"time_elapsed":1254099,"internal_node_id":"0.0-8.0-0.0"},{"rt":10909,"responses":"{\"Q0\":\"Black-and-white Warbler\"}","answer":["Black-and-white Warbler"],"trial_type":"image-multi-choice","trial_index":218,"time_elapsed":1266015,"internal_node_id":"0.0-8.0-1.0"},{"rt":14184,"responses":"{\"Q0\":\"Townsend's Warbler\"}","answer":["Townsend's Warbler"],"trial_type":"image-multi-choice","trial_index":219,"time_elapsed":1281223,"internal_node_id":"0.0-8.0-2.0"},{"rt":4875,"responses":"{\"Q0\":\"Lark Sparrow\"}","answer":["Lark Sparrow"],"trial_type":"image-multi-choice","trial_index":220,"time_elapsed":1287116,"internal_node_id":"0.0-8.0-3.0"},{"rt":3579,"responses":"{\"Q0\":\"Yellow Warbler\"}","answer":["Yellow Warbler"],"trial_type":"image-multi-choice","trial_index":221,"time_elapsed":1291701,"internal_node_id":"0.0-8.0-4.0"},{"rt":15181,"responses":"{\"Q0\":\"Orange-crowned Warbler\"}","answer":["Orange-crowned Warbler"],"trial_type":"image-multi-choice","trial_index":222,"time_elapsed":1307918,"internal_node_id":"0.0-8.0-5.0"},{"rt":3376,"responses":"{\"Q0\":\"White-throated Sparrow\"}","answer":["White-throated Sparrow"],"trial_type":"image-multi-choice","trial_index":223,"time_elapsed":1312330,"internal_node_id":"0.0-8.0-6.0"},{"rt":4178,"responses":"{\"Q0\":\"Fox Sparrow\"}","answer":["Fox Sparrow"],"trial_type":"image-multi-choice","trial_index":224,"time_elapsed":1317516,"internal_node_id":"0.0-8.0-7.0"},{"rt":9163,"responses":"{\"Q0\":\"Lincoln's Sparrow\"}","answer":["Song Sparrow"],"trial_type":"image-multi-choice","trial_index":225,"time_elapsed":1327700,"internal_node_id":"0.0-8.0-8.0"},{"rt":13327,"responses":"{\"Q0\":\"Black-and-white Warbler\"}","answer":["Blackburnian Warbler"],"trial_type":"image-multi-choice","trial_index":226,"time_elapsed":1342049,"internal_node_id":"0.0-8.0-9.0"},{"rt":12726,"responses":"{\"Q0\":\"Vesper Sparrow\"}","answer":["Vesper Sparrow"],"trial_type":"image-multi-choice","trial_index":227,"time_elapsed":1355781,"internal_node_id":"0.0-8.0-10.0"},{"rt":3480,"responses":"{\"Q0\":\"White-crowned Sparrow\"}","answer":["White-crowned Sparrow"],"trial_type":"image-multi-choice","trial_index":228,"time_elapsed":1360268,"internal_node_id":"0.0-8.0-11.0"},{"rt":4412,"responses":"{\"Q0\":\"American Tree Sparrow\"}","answer":["American Tree Sparrow"],"trial_type":"image-multi-choice","trial_index":229,"time_elapsed":1365700,"internal_node_id":"0.0-8.0-12.0"},{"rt":14026,"responses":"{\"Q0\":\"Nashville Warbler\"}","answer":["Tennessee Warbler"],"trial_type":"image-multi-choice","trial_index":230,"time_elapsed":1380747,"internal_node_id":"0.0-8.0-13.0"},{"rt":8378,"responses":"{\"Q0\":\"Magnolia Warbler\"}","answer":["Magnolia Warbler"],"trial_type":"image-multi-choice","trial_index":231,"time_elapsed":1390149,"internal_node_id":"0.0-8.0-14.0"},{"rt":3777,"responses":"{\"Q0\":\"Northern Waterthrush\"}","answer":["Northern Waterthrush"],"trial_type":"image-multi-choice","trial_index":232,"time_elapsed":1394934,"internal_node_id":"0.0-8.0-15.0"},{"rt":5880,"responses":"{\"Q0\":\"Chipping Sparrow\"}","answer":["Chipping Sparrow"],"trial_type":"image-multi-choice","trial_index":233,"time_elapsed":1401819,"internal_node_id":"0.0-8.0-16.0"},{"rt":8548,"responses":"{\"Q0\":\"American Tree Sparrow\"}","answer":["Swamp Sparrow"],"trial_type":"image-multi-choice","trial_index":234,"time_elapsed":1411402,"internal_node_id":"0.0-8.0-17.0"},{"rt":8511,"responses":"{\"Q0\":\"Lincoln's Sparrow\"}","answer":["Lincoln's Sparrow"],"trial_type":"image-multi-choice","trial_index":235,"time_elapsed":1420934,"internal_node_id":"0.0-8.0-18.0"},{"rt":3779,"responses":"{\"Q0\":\"Ovenbird\"}","answer":["Ovenbird"],"trial_type":"image-multi-choice","trial_index":236,"time_elapsed":1425733,"internal_node_id":"0.0-8.0-19.0"}]