"view_history","rt","trial_type","trial_index","time_elapsed","internal_node_id","sim_score","stimulus","responses","answer"
"[{""page_index"":0,""viewing_time"":25416}]","25417","instructions","0","25418","0.0-0.0","","","",""
"","6988","similarity_demo","1","33418","0.0-1.0","2","[""img/866.jpg"",""img/868.jpg""]","",""
"[{""page_index"":0,""viewing_time"":7202}]","7202","instructions","2","41620","0.0-2.0","","","",""
"","5875","similarity_demo","3","48506","0.0-3.0","5","[""img/766.jpg"",""img/867.jpg""]","",""
"[{""page_index"":0,""viewing_time"":4875}]","4875","instructions","4","54383","0.0-4.0","","","",""
"[{""page_index"":0,""viewing_time"":18337}]","18337","instructions","5","73720","0.0-5.0","","","",""
"","5709","similarity","6","80442","0.0-6.0-0.0","5","[""img/0868/09a9ef4d-d000-4cfa-a6aa-ebec7c2edeb4.jpg"",""img/0901/a2d7b2f6-396b-4d91-8403-de5361c74af7.jpg""]","",""
"","4880","similarity","7","86327","0.0-6.0-1.0","5","[""img/0769/4680bcc3-8fbc-4643-8f9a-12aa0e780b64.jpg"",""img/0867/85a96c62-548f-4994-9553-819e03c3135a.jpg""]","",""
"","6430","similarity","8","93767","0.0-6.0-2.0","6","[""img/0766/717fd72f-a281-499b-a5ba-5e2ecc4d4866.jpg"",""img/0898/8605a25b-6895-476d-8c13-df7a83f96093.jpg""]","",""
"","4658","similarity","9","99434","0.0-6.0-3.0","5","[""img/0902/d3e55000-c839-4bf9-9b9b-4af0a9925af1.jpg"",""img/0881/ee44e27f-d662-4608-b265-e7ffa19b216f.jpg""]","",""
"","9369","similarity","10","109810","0.0-6.0-4.0","4","[""img/0894/a98416c0-51e2-4960-85da-d81d8688b9d5.jpg"",""img/0894/76c1201f-8524-4865-85e6-dda8cb4ac986.jpg""]","",""
"","5134","similarity","11","115951","0.0-6.0-5.0","5","[""img/0874/bf14b896-e930-4fd9-9c05-2e83317a2773.jpg"",""img/0899/25ae6ec8-9565-49fe-a8bb-8d0666f52716.jpg""]","",""
"","6368","similarity","12","123332","0.0-6.0-6.0","5","[""img/0904/9b3568cc-3cf7-42be-9df3-fdafde7a58b8.jpg"",""img/0764/4eff630a-6426-4f8d-b2ba-b4d9842a0962.jpg""]","",""
"","4763","similarity","13","129103","0.0-6.0-7.0","6","[""img/0899/7f9d45d0-b2c6-40d3-aa41-c207db2c411b.jpg"",""img/0898/a114b375-cb89-44ba-9498-74213f1ecdee.jpg""]","",""
"","4714","similarity","14","134827","0.0-6.0-8.0","5","[""img/0874/767f289c-9814-4496-803f-745cc8913d1f.jpg"",""img/0903/70d764d9-1f35-4da7-a35d-4cc39834d270.jpg""]","",""
"","4384","similarity","15","140224","0.0-6.0-9.0","7","[""img/0881/4bd34581-94d8-4e88-8c89-5cef864ca3be.jpg"",""img/0758/6cd8c362-ae2a-41eb-80a3-3a4f7ace1530.jpg""]","",""
"","4504","similarity","16","145735","0.0-6.0-10.0","4","[""img/0898/68476bbb-34a1-42d9-8bc1-deab783d4489.jpg"",""img/0901/a6776381-91fe-43f8-ab73-261d318f95fd.jpg""]","",""
"","5816","similarity","17","152559","0.0-6.0-11.0","5","[""img/0903/07b445ee-0cdb-4d2c-a23b-d727613f4059.jpg"",""img/0769/4a1d0b52-3fe8-40fb-bb1c-c814fe49a68c.jpg""]","",""
"","4979","similarity","18","158547","0.0-6.0-12.0","2","[""img/0764/ca9829fe-aaf8-45b8-b98a-6bae751c63dd.jpg"",""img/0868/77091fc7-a590-4ebb-b915-fdb2483a2399.jpg""]","",""
"","5537","similarity","19","165093","0.0-6.0-13.0","3","[""img/0867/1719a35d-f085-48c0-9099-16c94fe418b4.jpg"",""img/0903/b0df4094-a3be-4b5b-81bd-8d260f13f61b.jpg""]","",""
"","3647","similarity","20","169747","0.0-6.0-14.0","4","[""img/0766/0025de5e-f620-4079-8a0f-00326ff3a6b0.jpg"",""img/0758/7ffbc76b-1fc1-432c-8f7e-9ec8d1b3f643.jpg""]","",""
"","6119","similarity","21","176875","0.0-6.0-15.0","4","[""img/0902/2db723b6-130f-454c-8c8d-88829edbcd65.jpg"",""img/0860/4c530c3c-6aab-492a-94d1-9c01797bde40.jpg""]","",""
"","3786","similarity","22","181668","0.0-6.0-16.0","4","[""img/0769/387a9744-d6a7-42b8-bab8-33007ec434aa.jpg"",""img/0875/5a7c4e35-6514-4e12-8879-d16071da4cd6.jpg""]","",""
"","2941","similarity","23","185619","0.0-6.0-17.0","4","[""img/0904/1d10df11-b5c8-4370-9a6b-097a7f965895.jpg"",""img/0866/11a1d141-be5e-443c-98c1-a9d4d9e3dec0.jpg""]","",""
"","4507","similarity","24","191137","0.0-6.0-18.0","7","[""img/0875/8521fd58-3b1e-4dc5-97ae-804edfa6734a.jpg"",""img/0875/dbdd643e-6d0e-4a5c-ab57-b9c29b9c981a.jpg""]","",""
"","4647","similarity","25","196792","0.0-6.0-19.0","6","[""img/0758/6e95579b-5166-487c-b8cb-e417c6a218e3.jpg"",""img/0758/61d64021-9214-4951-bdf8-f871f9827cf9.jpg""]","",""
"","4176","similarity","26","201977","0.0-6.0-20.0","4","[""img/0902/eb3e7e71-8ff1-4b88-a6a7-47e2c1ce1683.jpg"",""img/0874/a82926a3-0b43-4add-803c-d5f9ea7798ee.jpg""]","",""
"","6738","similarity","27","209722","0.0-6.0-21.0","6","[""img/0764/03c07b98-3f18-4b71-bb70-ecff564a78d1.jpg"",""img/0769/8598a429-c671-4d2f-842c-32f681f5e412.jpg""]","",""
"","5786","similarity","28","216517","0.0-6.0-22.0","3","[""img/0901/8bb79e82-9c43-4b6f-a655-40655519598b.jpg"",""img/0874/995f0332-0439-4eb4-add3-957335dbf6d9.jpg""]","",""
"","3580","similarity","29","221102","0.0-6.0-23.0","4","[""img/0875/527ced51-8e53-4aab-ab05-86df219104c0.jpg"",""img/0903/2c7b4aed-6038-4aac-958a-e3e58341c313.jpg""]","",""
"","5310","similarity","30","227423","0.0-6.0-24.0","6","[""img/0769/47700831-0ca2-4fdd-a498-a3bc5a528f43.jpg"",""img/0881/19e82c47-8e4b-45d2-a6c8-74181eb4155e.jpg""]","",""
"","4122","similarity","31","232550","0.0-6.0-25.0","3","[""img/0867/db7e032f-162b-46f5-ae67-2b29679adee4.jpg"",""img/0904/09934646-45d2-4147-8fec-64a22a5ac822.jpg""]","",""
"","5056","similarity","32","238613","0.0-6.0-26.0","1","[""img/0860/61fb959d-d4d9-4de4-9e4e-4fa62b4cfcd5.jpg"",""img/0881/ed4c971f-0873-4fc8-b6d6-e8bbd82f0bcc.jpg""]","",""
"","4916","similarity","33","244539","0.0-6.0-27.0","7","[""img/0866/4a87911a-d5be-4d4e-ab8e-3d1f581bf507.jpg"",""img/0866/23a224f3-2012-4fc8-8e0f-3c36f8de27fd.jpg""]","",""
"","5268","similarity","34","250817","0.0-6.0-28.0","3","[""img/0764/83c93cce-18d1-4aa7-9e23-2c268afe0a46.jpg"",""img/0862/7918ca67-5bd3-4606-a5ea-c39fb11a9297.jpg""]","",""
"","4985","similarity","35","256810","0.0-6.0-29.0","3","[""img/0904/696ebb60-8891-417a-91fd-c53218907a95.jpg"",""img/0758/e38fd80d-18d0-42f3-b848-f930788e8bd7.jpg""]","",""
"","4135","similarity","36","261955","0.0-6.0-30.0","4","[""img/0894/43216a7f-27bc-4b5a-8841-d122a30da9d9.jpg"",""img/0899/4f7bc593-8ddd-4da3-a0b9-84da730d3370.jpg""]","",""
"","2881","similarity","37","265846","0.0-6.0-31.0","4","[""img/0860/c3379ff7-0763-48fe-a1ec-7ea3d611bc7a.jpg"",""img/0904/2fd488e9-960f-41f7-8a44-33375f7d5051.jpg""]","",""
"","4823","similarity","38","271677","0.0-6.0-32.0","7","[""img/0874/adf9a8f1-c40b-402b-b95b-1e85a54a7b62.jpg"",""img/0881/292e9b4b-fca0-4ba8-87f1-4048f9e37b7d.jpg""]","",""
"","3341","similarity","39","276027","0.0-6.0-33.0","4","[""img/0881/d1982897-8d8d-4704-a940-1ee5d07a1f15.jpg"",""img/0899/76ad07e2-ca25-45eb-84f2-8d80b8ca3e26.jpg""]","",""
"","5178","similarity","40","282213","0.0-6.0-34.0","2","[""img/0866/be24ab58-230e-4db8-9f45-ff04c9aec6bb.jpg"",""img/0862/ad593cc7-cabe-4bb7-8e14-8a447a0717b4.jpg""]","",""
"","6990","similarity","41","290211","0.0-6.0-35.0","4","[""img/0868/7b212364-ff5f-4e28-9241-7eb6ea00161b.jpg"",""img/0894/3664e04c-c6d3-4c9b-afb6-25d89974b174.jpg""]","",""
"","4641","similarity","42","295863","0.0-6.0-36.0","7","[""img/0860/c47fdead-eb02-4989-b078-26f4852f44fe.jpg"",""img/0860/e8b8c51e-1834-4875-8b61-6c5bc9b178bd.jpg""]","",""
"","6560","similarity","43","303434","0.0-6.0-37.0","6","[""img/0862/de9ad88c-b522-430a-8ee9-eb06a9f85df5.jpg"",""img/0864/e336a4c5-6648-4fd7-b2f6-93a3fb83f8c6.jpg""]","",""
"","6591","similarity","44","311030","0.0-6.0-38.0","4","[""img/0766/ba35c0fc-4d5b-490d-959e-c94b279cdd02.jpg"",""img/0866/0207e9a2-7dbb-40b5-9459-b472aaeceb2a.jpg""]","",""
"","4010","similarity","45","316052","0.0-6.0-39.0","1","[""img/0875/3ecb367d-e9eb-4826-8aaa-7aa72fb98019.jpg"",""img/0898/81b08535-2020-4c15-9ce4-2f1e460755ae.jpg""]","",""
"","4450","similarity","46","321512","0.0-6.0-40.0","6","[""img/0766/a0270213-fa0e-4972-8b56-228c3e01ff90.jpg"",""img/0769/f229321f-04dd-42d7-b14a-ffad6b509862.jpg""]","",""
"","5880","similarity","47","337906","0.0-6.0-41.0","3","[""img/0874/2c9464dd-8a23-4baa-ac94-1ba3af5c15cc.jpg"",""img/0764/c0b03adb-bd0a-4b96-a915-a827c2fd5211.jpg""]","",""
"","3936","similarity","48","342854","0.0-6.0-42.0","2","[""img/0868/e0aff734-077f-40dd-9781-74821abd3621.jpg"",""img/0902/3f0eeac5-c996-4026-a376-563ce8f28521.jpg""]","",""
"","3562","similarity","49","347427","0.0-6.0-43.0","1","[""img/0875/42910c99-5463-450a-a0f8-d4d060a11455.jpg"",""img/0899/8abe6c69-822c-436c-9bf2-96c818b49ba5.jpg""]","",""
"","3499","similarity","50","351930","0.0-6.0-44.0","1","[""img/0866/9b38d691-1802-4959-ab3f-fc902f0e4ea6.jpg"",""img/0860/b03b963d-949b-4d8d-b19c-4950c89eeca2.jpg""]","",""
"","4560","similarity","51","357499","0.0-6.0-45.0","2","[""img/0766/91fc8c4d-862f-4d2b-b1a1-2db8d729b6b7.jpg"",""img/0903/5248eedd-7e6a-4d39-91b0-06ec227f3ed0.jpg""]","",""
"","5776","similarity","52","364283","0.0-6.0-46.0","5","[""img/0901/a9b9c0a0-8aed-4888-a78a-65fb7e764d13.jpg"",""img/0904/73920552-103b-4c9c-9ece-e0b8376b4504.jpg""]","",""
"","4652","similarity","53","369949","0.0-6.0-47.0","1","[""img/0758/a085b443-b5d7-4cb2-9ad4-b9dab0fc23f1.jpg"",""img/0902/10d99c89-71f7-4c81-a31e-dfc7c59f5232.jpg""]","",""
"","4292","similarity","54","375252","0.0-6.0-48.0","7","[""img/0764/e0788029-9d7f-414c-b747-46d2a99f7c86.jpg"",""img/0764/5d83b9db-3b2b-4dc8-9bd1-2b515b19c858.jpg""]","",""
"","4269","similarity","55","380529","0.0-6.0-49.0","1","[""img/0866/a15b02be-11bb-43e3-b0e0-ecc3bd7dfc49.jpg"",""img/0902/8065aa6b-4aef-4368-afa2-02c6465ca582.jpg""]","",""
"","8043","similarity","56","389580","0.0-6.0-50.0","3","[""img/0764/cffc80b0-4a90-4acb-a530-6f480f3ca303.jpg"",""img/0758/caa93da2-9edf-49fa-96b9-32dedd8f5078.jpg""]","",""
"","7431","similarity","57","398020","0.0-6.0-51.0","5","[""img/0898/0af304a2-6a7a-4082-ab7c-4450cd08cc58.jpg"",""img/0894/7fb082e0-ce79-485c-9109-04367fb32275.jpg""]","",""
"","6086","similarity","58","405115","0.0-6.0-52.0","6","[""img/0875/90da8d75-108a-44ad-b999-e21fee3860d3.jpg"",""img/0866/6f2a90d7-14f1-4f1b-bd64-fc0af6b9fe44.jpg""]","",""
"","5961","similarity","59","412087","0.0-6.0-53.0","2","[""img/0904/65e2b70a-b184-4da3-b5c0-5038bdf9469a.jpg"",""img/0904/60d1a521-edf7-4696-9263-f21ac0e62a01.jpg""]","",""
"","4460","similarity","60","417555","0.0-6.0-54.0","7","[""img/0769/1d8734c4-77ab-4165-9e71-5cfe672ff01c.jpg"",""img/0769/35f2dd39-40aa-498e-b401-9f1ef2622d00.jpg""]","",""
"","5792","similarity","61","424353","0.0-6.0-55.0","1","[""img/0898/0c7dde4f-efce-4b7a-9387-6921635b7890.jpg"",""img/0758/20497cbe-ddae-489e-86e2-ab06985ed07c.jpg""]","",""
"","9605","similarity","62","434966","0.0-6.0-56.0","2","[""img/0769/878531fd-e0e8-4ad1-b9ad-f018bb104ca0.jpg"",""img/0902/97022122-01e4-46c3-a34f-c6260ad28428.jpg""]","",""
"","4598","similarity","63","440572","0.0-6.0-57.0","5","[""img/0864/afcba0a3-7e27-4757-b254-e9f05fad27e2.jpg"",""img/0881/f62bdcd1-a4b7-4d48-83da-d9c9e01c8727.jpg""]","",""
"","3912","similarity","64","445494","0.0-6.0-58.0","1","[""img/0758/d57c2592-a317-4f63-91be-91a3a9afd222.jpg"",""img/0868/83b4350a-3b70-4cea-b7f5-b5b56f3050a8.jpg""]","",""
"","4720","similarity","65","451224","0.0-6.0-59.0","5","[""img/0862/1c20f772-3a51-4a80-aac0-f57dc9f86c28.jpg"",""img/0769/f73c5138-2f4c-4354-981c-129dff9cc734.jpg""]","",""
"","7256","similarity","66","459488","0.0-6.0-60.0","5","[""img/0764/713cc27e-2338-4486-bfe9-5f5725fbd7a0.jpg"",""img/0903/59defeb8-98bd-4570-a2f8-9bd189e68ef4.jpg""]","",""
"","5422","similarity","67","465914","0.0-6.0-61.0","7","[""img/0899/8de08897-b430-42fe-9d42-840670b80f94.jpg"",""img/0899/d60714ae-98d7-4564-8c98-94dba1351135.jpg""]","",""
"","7984","similarity","68","474906","0.0-6.0-62.0","5","[""img/0860/4f695df5-afac-4da7-9875-fee39b0b24ad.jpg"",""img/0875/34132396-d896-4c2d-8087-646dd867e769.jpg""]","",""
"","3642","similarity","69","479560","0.0-6.0-63.0","1","[""img/0868/c8ac40c7-6904-4e13-8d61-c75d3052dc4e.jpg"",""img/0874/eba003b4-cdab-4eee-8bc3-f064c7d94165.jpg""]","",""
"","3481","similarity","70","484046","0.0-6.0-64.0","3","[""img/0758/7ee8bc8f-c40b-4b3a-84ec-3e83580622d4.jpg"",""img/0862/57b6f83f-c763-4858-830d-102f97bfefbf.jpg""]","",""
"","4242","similarity","71","489298","0.0-6.0-65.0","5","[""img/0904/6291eb43-c10c-4810-a36a-101d09868b04.jpg"",""img/0898/26c41340-15bd-4ead-8fe4-c0d0ddca09c2.jpg""]","",""
"","4687","similarity","72","494993","0.0-6.0-66.0","3","[""img/0881/e046471a-35b4-4159-bbf7-3cfd201bef66.jpg"",""img/0866/620cd1aa-0800-4414-8f6e-90342e7a99ad.jpg""]","",""
"","3690","similarity","73","499694","0.0-6.0-67.0","1","[""img/0867/c66898ba-b71b-4d50-84f9-f7f84853a98d.jpg"",""img/0898/c3cecf20-f7fd-45fa-97d0-dc0a63e8d6c0.jpg""]","",""
"","8721","similarity","74","509424","0.0-6.0-68.0","3","[""img/0902/af45fe42-178c-4c1a-99ef-256e87e3b092.jpg"",""img/0764/8740679b-b56f-4292-aece-14063457113a.jpg""]","",""
"","4159","similarity","75","514587","0.0-6.0-69.0","7","[""img/0875/e7e66b13-b573-431e-b85e-288ce04a35a3.jpg"",""img/0867/2e1a0b58-cdb1-4107-a14e-452530d7b9b0.jpg""]","",""
"","4789","similarity","76","520385","0.0-6.0-70.0","6","[""img/0766/69e486f7-dbef-456b-9d48-53d814248a28.jpg"",""img/0764/f64dfa83-333d-494c-87b5-73e942f1766e.jpg""]","",""
"","5314","similarity","77","526708","0.0-6.0-71.0","4","[""img/0894/1b3888e6-cf36-4c4a-a039-187aa5cb71ac.jpg"",""img/0867/f8488a47-94ee-4166-952c-44e16cf172f6.jpg""]","",""
"","5215","similarity","78","532930","0.0-6.0-72.0","1","[""img/0875/2c361b79-c3d1-4eda-812e-bf03192407bf.jpg"",""img/0764/ba0c0955-acbb-457d-b1c2-f006b88121d5.jpg""]","",""
"","5013","similarity","79","538950","0.0-6.0-73.0","7","[""img/0867/5e07b34d-b40f-4b1c-ac10-49975bace45f.jpg"",""img/0866/07c9c966-3c8d-40e7-8128-92b2acbaed5d.jpg""]","",""
"","5187","similarity","80","545150","0.0-6.0-74.0","2","[""img/0903/5c6b1f57-b3a2-40f5-9fb1-82785e24b6a0.jpg"",""img/0758/ddc336e9-a8b6-4bb9-937a-c7e25e0e9250.jpg""]","",""
"","4022","similarity","81","550180","0.0-6.0-75.0","1","[""img/0766/f5f78e4e-d88f-4866-951a-118ba9fec4d0.jpg"",""img/0868/4bd5105a-d2c3-4f82-8c80-57196106ba53.jpg""]","",""
"","5426","similarity","82","556615","0.0-6.0-76.0","2","[""img/0874/8cdb1c07-1c32-46d2-981c-3636560fa6e5.jpg"",""img/0766/f011ef45-fb48-44b8-8224-867ed2ccf786.jpg""]","",""
"","5692","similarity","83","563318","0.0-6.0-77.0","1","[""img/0881/b549bc99-a61c-4450-bab5-9efc3a197bf0.jpg"",""img/0868/293079b8-7e0c-4afd-a390-1e5d35fe3ded.jpg""]","",""
"","4256","similarity","84","568582","0.0-6.0-78.0","1","[""img/0758/eabcd7a8-56ad-4fd2-bc24-90f6b7b33265.jpg"",""img/0901/1e23ffbd-19de-4c4f-aa23-c54aaa3319a3.jpg""]","",""
"","5305","similarity","85","574895","0.0-6.0-79.0","3","[""img/0881/667e2147-d457-4f32-aa5f-6ab86e5848f1.jpg"",""img/0898/b2732712-71c2-45d8-834f-2b2ed5504910.jpg""]","",""
"","3967","similarity","86","579870","0.0-6.0-80.0","2","[""img/0867/bf560d4f-dee3-4f11-a385-705cc1aa5f3c.jpg"",""img/0758/d540bee6-b460-4c32-ac57-bc282742d7d4.jpg""]","",""
"","4447","similarity","87","585327","0.0-6.0-81.0","6","[""img/0769/38a88f69-28fd-4bbd-99f0-f4c02bfd3995.jpg"",""img/0899/5b56dd3e-3f49-47cc-af84-16da6457753b.jpg""]","",""
"","4447","similarity","88","590787","0.0-6.0-82.0","7","[""img/0903/12bd8657-92e6-4c36-a06c-597e7a1d51f3.jpg"",""img/0903/3e9ee8a5-eb66-47f5-8973-8a5af1ddc87e.jpg""]","",""
"","5734","similarity","89","602747","0.0-6.0-83.0","3","[""img/0867/cc72ed48-7704-422c-86d6-467a1145287a.jpg"",""img/0766/2e1cf445-9aef-40e7-92f4-5facf48b64c5.jpg""]","",""
"","3694","similarity","90","607452","0.0-6.0-84.0","2","[""img/0902/40d0b6ec-3907-4573-b227-e7d8e9cad1c3.jpg"",""img/0867/7d1c497b-c1b3-4ed8-abb5-d7f73306015f.jpg""]","",""
"","3571","similarity","91","612027","0.0-6.0-85.0","2","[""img/0901/233a6948-48eb-4b67-8259-222b916b2322.jpg"",""img/0875/cff79b3a-a797-4393-9757-6275f999ec04.jpg""]","",""
"","4886","similarity","92","617920","0.0-6.0-86.0","2","[""img/0764/d7f3ac54-318a-4dac-a06b-62bed34d01a4.jpg"",""img/0866/386235d2-6857-41e7-88a8-25cfc3430025.jpg""]","",""
"","4064","similarity","93","622993","0.0-6.0-87.0","1","[""img/0901/d6d15b1c-4a30-4f74-a3fd-d4c8ee4169ca.jpg"",""img/0894/bd34223a-2f66-4e16-9d18-193a746b69ff.jpg""]","",""
"","4873","similarity","94","628878","0.0-6.0-88.0","5","[""img/0898/661621d4-a14e-487c-8c74-354134a29710.jpg"",""img/0769/db94b61b-a5a7-4861-9d32-7b02ad194fb0.jpg""]","",""
"","5789","similarity","95","635673","0.0-6.0-89.0","7","[""img/0769/14d393ce-e5be-4ca1-86ce-cc27d4b6074c.jpg"",""img/0894/b422d5c6-3c5a-49ae-a53e-7e88ac993f49.jpg""]","",""
"","6485","similarity","96","643172","0.0-6.0-90.0","4","[""img/0862/e8cc3bdf-cc43-4565-bccf-492626c70953.jpg"",""img/0874/7e4f2150-3b59-4a36-b5da-a4e0ba410531.jpg""]","",""
"","6055","similarity","97","650234","0.0-6.0-91.0","3","[""img/0894/7dd6ff43-f8fc-408a-8a41-a2b261871820.jpg"",""img/0766/c23b5a20-e50f-4d85-841f-cf89212a4348.jpg""]","",""
"","3706","similarity","98","654949","0.0-6.0-92.0","1","[""img/0874/3ce41e7c-40c8-4d58-a546-171114521796.jpg"",""img/0867/075e0f95-856b-4cbb-acf5-092393aaf04e.jpg""]","",""
"","4594","similarity","99","660556","0.0-6.0-93.0","1","[""img/0899/93494f3b-d539-4075-b027-d82e344563da.jpg"",""img/0868/4e626425-63c8-484a-8a1d-e66ee4e0bef8.jpg""]","",""
"","3963","similarity","100","665529","0.0-6.0-94.0","4","[""img/0903/f10e9eb5-0c21-4a6a-944c-5f10a6d0fa4d.jpg"",""img/0862/e697469a-ec19-4414-b972-7b9f3564785b.jpg""]","",""
"","3915","similarity","101","670448","0.0-6.0-95.0","5","[""img/0899/57476fed-5962-4272-8fc9-b317bb777b54.jpg"",""img/0766/db750ba0-ce04-46e1-b601-e1b80212bad2.jpg""]","",""
"","5635","similarity","102","677090","0.0-6.0-96.0","6","[""img/0867/179ab87a-8eac-4c52-a41f-2e48e3120f09.jpg"",""img/0868/fd307a36-9a3a-47d7-ab7c-f810d0b35040.jpg""]","",""
"","4080","similarity","103","682177","0.0-6.0-97.0","4","[""img/0862/e0f1a4e9-e1b6-45f7-af67-89f334e6630d.jpg"",""img/0901/d61f267a-c492-4db6-9bfb-61efd49cf072.jpg""]","",""
"","4093","similarity","104","687281","0.0-6.0-98.0","2","[""img/0875/5a716432-c6ca-4b1c-955a-2b8ac25198ee.jpg"",""img/0766/75c3d627-4f3b-40d5-9d9c-10c8a62db644.jpg""]","",""
"","4753","similarity","105","693042","0.0-6.0-99.0","6","[""img/0758/7fba58df-2a7a-4b76-8a8f-62739f97f271.jpg"",""img/0874/a3bc679d-619f-4db6-bb68-116dcb757d9c.jpg""]","",""
"","4308","similarity","106","698358","0.0-6.0-100.0","3","[""img/0904/2c98dc56-88d1-4fb5-a999-b6a7861f65f0.jpg"",""img/0868/d98ca254-b195-477f-b57e-5760a2717db8.jpg""]","",""
"","4180","similarity","107","703546","0.0-6.0-101.0","4","[""img/0903/31b5a5f4-b695-4af1-bad2-a19650a05498.jpg"",""img/0866/d266fece-59b3-46fa-b69f-96f6efb81b59.jpg""]","",""
"","2602","similarity","108","707159","0.0-6.0-102.0","4","[""img/0868/1a62b2b2-18f5-466e-b564-5176a57c565e.jpg"",""img/0769/a1ce8d07-ba37-40de-bade-2778805521e0.jpg""]","",""
"","4072","similarity","109","712243","0.0-6.0-103.0","5","[""img/0902/27b84584-948a-485b-8749-cb09929ef631.jpg"",""img/0899/d8f2dd94-570e-4e8c-a087-d96090fb9e8c.jpg""]","",""
"","3767","similarity","110","717021","0.0-6.0-104.0","2","[""img/0868/d6d1f30d-4323-435a-b194-7892521bc57e.jpg"",""img/0862/d0ca4c78-fc35-46ed-bdcc-8e124283c53e.jpg""]","",""
"","4811","similarity","111","722840","0.0-6.0-105.0","4","[""img/0903/b0a3c45f-467e-412f-a183-c9c1827f2e63.jpg"",""img/0894/3adef67d-7676-4995-80b2-bb31b8aca3ef.jpg""]","",""
"","5547","similarity","112","729395","0.0-6.0-106.0","6","[""img/0864/49150900-7f25-4ce8-8d10-9b47a71d1997.jpg"",""img/0874/85eb9b8a-c4c6-4e5a-b8e7-363a87a82054.jpg""]","",""
"","6182","similarity","113","736589","0.0-6.0-107.0","6","[""img/0862/f23038d4-c366-4f70-979f-66b62362efa4.jpg"",""img/0902/0c760cc9-10ac-429e-8957-a7d51fc99683.jpg""]","",""
"","5133","similarity","114","742732","0.0-6.0-108.0","6","[""img/0904/2f88ce53-02d0-4f95-a082-182c56a0eeb4.jpg"",""img/0903/8f7f9939-b8e6-433f-93dd-b362496c80a7.jpg""]","",""
"","3945","similarity","115","747685","0.0-6.0-109.0","4","[""img/0764/ec2dd087-c471-4370-b570-95a542506a96.jpg"",""img/0864/e8bd659f-aa43-4748-877e-3118e8b4e189.jpg""]","",""
"","6599","similarity","116","755292","0.0-6.0-110.0","5","[""img/0866/d493a2c8-66eb-44b4-be02-2f327b700b7c.jpg"",""img/0894/6b2e9509-8699-42b7-9582-7741df0ba2d7.jpg""]","",""
"","4634","similarity","117","760933","0.0-6.0-111.0","5","[""img/0899/ad8268c5-8199-48d0-ad70-c5b6d6c599ec.jpg"",""img/0903/f67c4ab9-f8c2-4fcd-848a-a54a7b031002.jpg""]","",""
"","4745","similarity","118","766687","0.0-6.0-112.0","7","[""img/0902/418b716e-63e5-4c77-93e9-95b1f5a3ddf0.jpg"",""img/0904/5cceabc9-de1d-4c67-989b-c28a4ef77e79.jpg""]","",""
"","4734","similarity","119","772430","0.0-6.0-113.0","5","[""img/0864/65210d57-1153-4657-886a-32e758f49b4a.jpg"",""img/0860/f44ba3fb-03a2-42f0-8509-2c1ded493086.jpg""]","",""
"","2902","similarity","120","776336","0.0-6.0-114.0","4","[""img/0860/8fdba999-b946-4c7d-9891-336018b563ef.jpg"",""img/0899/7b7380d5-d2be-44e5-a09a-c1756f87ef71.jpg""]","",""
"","3524","similarity","121","780869","0.0-6.0-115.0","4","[""img/0881/dea58fad-b4f1-41d9-bd3f-916eff19a3fd.jpg"",""img/0903/5ea5bbe0-f238-4724-abe7-9ed8dee8c0ba.jpg""]","",""
"","5281","similarity","122","787157","0.0-6.0-116.0","7","[""img/0894/661b9f9f-4bde-487a-b1ed-87085fde6948.jpg"",""img/0874/3f471690-9788-4d03-90c7-f615aecef149.jpg""]","",""
"","3899","similarity","123","792063","0.0-6.0-117.0","4","[""img/0881/44e09805-5a25-4f17-a716-4ad4a331b174.jpg"",""img/0862/847e5208-38ec-4f36-949c-296cdd7424ee.jpg""]","",""
"","4668","similarity","124","797740","0.0-6.0-118.0","5","[""img/0868/4a8a45ed-2c4f-421b-9564-409a33ecd26c.jpg"",""img/0875/d59ff733-eaff-4ee2-9443-06954dd0bcb6.jpg""]","",""
"","3375","similarity","125","802124","0.0-6.0-119.0","4","[""img/0860/4a022222-056d-461c-ab02-39fac9647552.jpg"",""img/0758/b76ceca7-95ac-46e4-ac13-da02c8e93be9.jpg""]","",""
"","3178","similarity","126","806311","0.0-6.0-120.0","4","[""img/0864/6e846d43-94a6-4b37-a268-65eda979f052.jpg"",""img/0875/03c3c331-738b-4446-af92-3d7386b08c2e.jpg""]","",""
"","4121","similarity","127","811441","0.0-6.0-121.0","1","[""img/0898/4184e5a2-84ea-4f36-9b42-ae58646f6f87.jpg"",""img/0866/bf14b5bd-fb55-47db-86b9-4f8aeb9a6dad.jpg""]","",""
"","4987","similarity","128","817433","0.0-6.0-122.0","2","[""img/0874/1016b306-087c-4afc-aa08-fa527b28dc76.jpg"",""img/0904/24fc38fe-842c-4831-ad8a-b1de5c25c0a8.jpg""]","",""
"","6381","similarity","129","824818","0.0-6.0-123.0","4","[""img/0904/b7c2a2c8-df33-4473-b3d4-ff7147c60db3.jpg"",""img/0864/ea327690-500b-4137-bf91-451b309fe6a5.jpg""]","",""
"","4606","similarity","130","830430","0.0-6.0-124.0","2","[""img/0894/5a49e858-2850-4892-9a06-e9f0efb5f94d.jpg"",""img/0902/8af4182a-9af9-4212-a436-9195555112d6.jpg""]","",""
"","4450","similarity","131","839170","0.0-6.0-125.0","1","[""img/0868/8b0b8473-e2c0-4331-aa56-c3a5c29369da.jpg"",""img/0864/6f631579-acf1-415c-a42c-1207f62a8d99.jpg""]","",""
"","6071","similarity","132","846248","0.0-6.0-126.0","2","[""img/0899/66bf4113-ee12-426c-84d2-ea410b6c803e.jpg"",""img/0866/945c6710-d15b-4a5b-a8f6-69af0850357f.jpg""]","",""
"","3347","similarity","133","850604","0.0-6.0-127.0","4","[""img/0875/2e13d160-eea1-416b-aff1-d37ab99ecc1d.jpg"",""img/0904/fe746a3f-8458-48d0-8a13-8cba2a9df9f8.jpg""]","",""
"","3895","similarity","134","855507","0.0-6.0-128.0","1","[""img/0867/12264664-1860-46df-8c21-162b9817cdda.jpg"",""img/0899/a05bea16-2bb4-4cb9-b8fb-4ff975db6971.jpg""]","",""
"","3916","similarity","135","860432","0.0-6.0-129.0","1","[""img/0901/148b747a-7392-437e-8823-33053c5dff3f.jpg"",""img/0867/aa05d113-fc19-4756-a8eb-7878f580bc92.jpg""]","",""
"","5540","similarity","136","866976","0.0-6.0-130.0","3","[""img/0864/ef9cbca0-4be8-435d-ad49-977259e80409.jpg"",""img/0769/8056889f-2b14-4782-bb25-b4e8896ab65b.jpg""]","",""
"","4658","similarity","137","872640","0.0-6.0-131.0","3","[""img/0903/a0673b55-6040-47fe-9040-24bca27ca3c9.jpg"",""img/0868/3a62db2d-97e9-44a3-b8e3-a48c6f0e423b.jpg""]","",""
"","4205","similarity","138","877853","0.0-6.0-132.0","3","[""img/0864/300bb811-8b3c-4c42-8653-6097c3725197.jpg"",""img/0867/50a1b60e-3a29-44bf-b606-d4bd3746fea9.jpg""]","",""
"","6257","similarity","139","885117","0.0-6.0-133.0","3","[""img/0901/6e2957f8-f5ab-46f4-87cc-bb50155a098b.jpg"",""img/0860/87039971-2210-4aab-93c0-8e9b5f1655b2.jpg""]","",""
"","7014","similarity","140","893142","0.0-6.0-134.0","5","[""img/0881/54ea8e77-c7e5-4197-b7fa-00b7020849a7.jpg"",""img/0766/27f54113-8561-4568-9ffe-0a1650ae65ec.jpg""]","",""
"","3132","similarity","141","897281","0.0-6.0-135.0","4","[""img/0903/39365c8e-a733-4801-ac7d-b87e38c3784b.jpg"",""img/0864/1d15626a-2f7c-410f-819c-0fa2c967e95e.jpg""]","",""
"","5166","similarity","142","903460","0.0-6.0-136.0","3","[""img/0758/821c68d3-5cb0-4eae-8659-30e6263fca39.jpg"",""img/0894/4739e06d-c31e-4bf1-bf91-c97fa9afb456.jpg""]","",""
"","5042","similarity","143","909506","0.0-6.0-137.0","5","[""img/0769/e31b3bd8-efcb-413e-aa8c-75fac2b8f2ac.jpg"",""img/0860/d9a0d117-6d1d-41c0-8fec-9aff0fd9e9f2.jpg""]","",""
"","4182","similarity","144","914692","0.0-6.0-138.0","3","[""img/0904/4b8daf2a-13a9-4ea9-9e0b-b265b6e933e7.jpg"",""img/0766/d50d734f-285c-4840-bc7a-c8dd4aff391e.jpg""]","",""
"","4556","similarity","145","920256","0.0-6.0-139.0","3","[""img/0868/0d3abd3a-b6c3-4584-a9f7-e2da63748b3d.jpg"",""img/0860/524b2e98-5767-4d53-942c-ebae6925659b.jpg""]","",""
"","4981","similarity","146","926246","0.0-6.0-140.0","5","[""img/0758/2fa3e613-e676-4e6e-bd12-705327eeb3e1.jpg"",""img/0864/f92649a2-0590-4d31-9a7a-1bfb81666a2d.jpg""]","",""
"","4075","similarity","147","931330","0.0-6.0-141.0","7","[""img/0867/26611f4e-d694-4460-b7e2-43c62753ddc3.jpg"",""img/0867/a498eef3-9fa4-4ab2-9778-4ae82ac40dc5.jpg""]","",""
"","4269","similarity","148","936608","0.0-6.0-142.0","7","[""img/0898/ec565187-2e31-4fdd-9a5c-153d0c789ae0.jpg"",""img/0898/82231d4c-218b-4d0a-b50d-35a49b524e97.jpg""]","",""
"","5750","similarity","149","943360","0.0-6.0-143.0","4","[""img/0866/a04d37f0-99dd-478a-b6c6-58b215138f84.jpg"",""img/0769/76eaa4a3-dfe9-4dc1-9efb-caebe86264e1.jpg""]","",""
"","7048","similarity","150","951418","0.0-6.0-144.0","6","[""img/0860/fd4662f9-4c03-4d79-8593-06735e55a64b.jpg"",""img/0898/993d8f2d-bef7-4251-a193-0f93a32b7763.jpg""]","",""
"","4055","similarity","151","956476","0.0-6.0-145.0","5","[""img/0766/00891401-e4c9-4ce1-bc19-f70740d174bc.jpg"",""img/0864/efcfbb1b-8197-44c9-b723-40d6c608dd3c.jpg""]","",""
"","3656","similarity","152","961140","0.0-6.0-146.0","5","[""img/0860/94ef7afc-e0e6-4a15-98c6-0bfac82bc832.jpg"",""img/0903/36e4ab1f-caa9-40b3-8616-faada076df94.jpg""]","",""
"","6539","similarity","153","968688","0.0-6.0-147.0","3","[""img/0867/a749dddb-69f0-44a6-acdc-2bf295cf6dcc.jpg"",""img/0764/bc3865c9-9004-4582-88a7-048478673f97.jpg""]","",""
"","5500","similarity","154","975196","0.0-6.0-148.0","6","[""img/0769/75f7e514-0548-4329-b1e4-93c05e74f038.jpg"",""img/0904/25365108-e038-4021-aac9-797f2063b337.jpg""]","",""
"","5494","similarity","155","981697","0.0-6.0-149.0","4","[""img/0764/1f95ab5f-fb65-4d70-b5db-d6bd6351a8aa.jpg"",""img/0901/12da1841-e611-435c-9719-109413d536a8.jpg""]","",""
"","4574","similarity","156","987276","0.0-6.0-150.0","7","[""img/0904/4d7d70a3-9477-4921-bda0-f9531d0a5c5b.jpg"",""img/0899/fd9efb43-701f-4cd6-baaa-4c38315f4bdc.jpg""]","",""
"","3575","similarity","157","991861","0.0-6.0-151.0","3","[""img/0862/92f0146c-20c4-482e-aef5-adb693790338.jpg"",""img/0867/ac1797e4-8afc-48fe-b252-86d1defb1cca.jpg""]","",""
"","3881","similarity","158","996746","0.0-6.0-152.0","7","[""img/0766/d14acac4-7db1-4b07-8f8f-302437326fc0.jpg"",""img/0766/5d1b8041-c5a1-4b02-b4fe-3453d98a0d72.jpg""]","",""
"","4474","similarity","159","1002232","0.0-6.0-153.0","3","[""img/0862/92fcd8a4-8193-4a6a-ae09-dd4a6338b0df.jpg"",""img/0894/5ff3c4f6-52e2-4075-8679-be0312e59703.jpg""]","",""
"","4743","similarity","160","1007979","0.0-6.0-154.0","5","[""img/0899/0433d056-aa30-4f8a-9aa1-abbb951e4edd.jpg"",""img/0901/04a53755-6da5-44d4-a7a6-48a6bc0a2280.jpg""]","",""
"","4176","similarity","161","1013164","0.0-6.0-155.0","7","[""img/0874/ca76a855-4e77-4f2f-872a-0a718153e7ed.jpg"",""img/0874/31e22c7c-99aa-40b1-bf03-dd73fa2df4d6.jpg""]","",""
"","4338","similarity","162","1018511","0.0-6.0-156.0","4","[""img/0860/702bd09d-df3a-40aa-a267-5f04474305b5.jpg"",""img/0867/6e19c858-b606-45b2-a4c6-910a73f1d82c.jpg""]","",""
"","3692","similarity","163","1023211","0.0-6.0-157.0","3","[""img/0901/a0d65c84-3f20-476a-92d1-0c01e8019cf4.jpg"",""img/0881/e6746727-7f89-47ec-b939-d98abe78372d.jpg""]","",""
"","4241","similarity","164","1028460","0.0-6.0-158.0","6","[""img/0903/6f343da5-00d9-4d50-89d1-2ed24cdb8319.jpg"",""img/0902/bd89a85f-3853-4786-acd6-98818ee29f1c.jpg""]","",""
"","4341","similarity","165","1033804","0.0-6.0-159.0","3","[""img/0860/8277806e-b684-4474-8f7b-3fca946d7d4f.jpg"",""img/0764/a3226bc4-dcc3-4608-bde8-1414d685ce5c.jpg""]","",""
"","4142","similarity","166","1038949","0.0-6.0-160.0","6","[""img/0902/af40b98b-3d23-4d95-b401-49ba5783ce39.jpg"",""img/0875/fb732ab5-013a-4366-9f65-27811ed157e9.jpg""]","",""
"","5057","similarity","167","1045019","0.0-6.0-161.0","4","[""img/0898/224c1572-56b9-4f16-a9e4-6f3bc9c114bd.jpg"",""img/0862/f43ceabf-acc1-4107-b857-5d1849808f93.jpg""]","",""
"","4589","similarity","168","1050614","0.0-6.0-162.0","5","[""img/0894/6aa5545f-fa7d-4286-bbaa-aaf34dc7ec96.jpg"",""img/0875/a4935837-7d3c-4df6-88c1-36a94d4991ca.jpg""]","",""
"","3440","similarity","169","1055071","0.0-6.0-163.0","4","[""img/0866/93a27239-8317-4e08-98ca-d8b1ff298e07.jpg"",""img/0864/5f33e097-23e3-4002-882d-76e8cb15f451.jpg""]","",""
"","4002","similarity","170","1060086","0.0-6.0-164.0","5","[""img/0766/1bc0dccc-a5b5-4375-87fa-28360ca42b12.jpg"",""img/0862/064818ee-13d5-4618-bb24-21c7368ea278.jpg""]","",""
"","3356","similarity","171","1064452","0.0-6.0-165.0","3","[""img/0866/8efcaa46-83ab-4dee-a35f-850402aa21ae.jpg"",""img/0874/93d1f8dc-acf2-4f03-bd8d-8ec35df276ed.jpg""]","",""
"","5333","similarity","172","1070789","0.0-6.0-166.0","6","[""img/0862/ba89835a-408c-480b-8594-ed4ffa97eb5c.jpg"",""img/0860/5383b320-1518-4095-a58e-5cc1ae30b64c.jpg""]","",""
"","3666","similarity","173","1078785","0.0-6.0-167.0","3","[""img/0766/ea09dd5a-d24d-4e97-a099-7da3db1baef1.jpg"",""img/0901/71e551a2-9ce2-409c-9c7c-dd556a0791e9.jpg""]","",""
"","4254","similarity","174","1084051","0.0-6.0-168.0","7","[""img/0862/4f0a3b4c-afbf-486e-b248-1d54982f54b4.jpg"",""img/0862/ee3b7bff-4a70-4e84-9bea-4a565e456acb.jpg""]","",""
"","4342","similarity","175","1089404","0.0-6.0-169.0","6","[""img/0894/792c83e9-a747-4000-bc72-5663d2439edb.jpg"",""img/0764/62fafeea-6274-48ce-976f-35d3d3484c65.jpg""]","",""
"","3657","similarity","176","1094067","0.0-6.0-170.0","5","[""img/0874/29830da7-be5f-44e5-b141-652a0ccf7269.jpg"",""img/0898/79233891-305a-4a6a-8ddf-5c8604858203.jpg""]","",""
"","4995","similarity","177","1100070","0.0-6.0-171.0","3","[""img/0860/15b24a61-25be-4356-9eac-5ce95d0cb4a4.jpg"",""img/0766/33aa9ebb-c9f5-418f-8c8b-c77861889568.jpg""]","",""
"","3976","similarity","178","1105054","0.0-6.0-172.0","5","[""img/0898/e167334e-cc1d-4986-b3b1-c7bc7da64baa.jpg"",""img/0864/4bd81bc6-c13d-46df-95a9-485886dc7c1b.jpg""]","",""
"","4098","similarity","179","1110161","0.0-6.0-173.0","5","[""img/0881/d373cb9f-a719-4549-a2a4-82def79fb2a5.jpg"",""img/0764/6fbd1902-fa2a-48d8-bc11-705b8ab68d8f.jpg""]","",""
"","4172","similarity","180","1115344","0.0-6.0-174.0","4","[""img/0898/40f99fb2-64d2-4e72-8a7f-a1cf60741e69.jpg"",""img/0868/15dd6fd7-791e-4b53-b203-195d617521a4.jpg""]","",""
"","3684","similarity","181","1120037","0.0-6.0-175.0","7","[""img/0864/da39ad34-04e0-40d4-a724-c08d53e0ea09.jpg"",""img/0864/c3b63e8f-ea39-4d70-a1f2-b3fe4be8eb75.jpg""]","",""
"","3601","similarity","182","1124650","0.0-6.0-176.0","4","[""img/0899/565ccdd9-0933-4536-a625-3c0e25a713dd.jpg"",""img/0862/99a99e39-8355-44ec-b993-e7bcec111e1c.jpg""]","",""
"","3373","similarity","183","1129032","0.0-6.0-177.0","3","[""img/0875/99698b4d-b4a1-44bc-8c83-8ea755bbbf61.jpg"",""img/0758/9fb5b2fe-3f00-4fe6-973c-1ce10d5f4cd5.jpg""]","",""
"","3829","similarity","184","1133874","0.0-6.0-178.0","2","[""img/0866/f756f7d1-9ad8-4a34-9ef6-7a443d705bfe.jpg"",""img/0901/a373612d-67e2-4fec-9764-21d3d6ef6359.jpg""]","",""
"","5701","similarity","185","1140584","0.0-6.0-179.0","7","[""img/0769/96556ef3-7fac-4c9d-8281-1cb0ea5081bc.jpg"",""img/0874/ca23d307-fc00-4d7d-9106-584c6eb21b4d.jpg""]","",""
"","3530","similarity","186","1145124","0.0-6.0-180.0","3","[""img/0875/f87b67d7-c33e-40d1-b281-248c4be1cb6e.jpg"",""img/0881/b1a136f7-8511-4d3a-a0f6-3879acf1e1a1.jpg""]","",""
"","4419","similarity","187","1150551","0.0-6.0-181.0","6","[""img/0866/02f5e6b9-52b7-448c-9708-5b460d0c9a23.jpg"",""img/0868/5fa7f9d0-f0e5-454c-8224-74d964818f56.jpg""]","",""
"","4484","similarity","188","1156044","0.0-6.0-182.0","6","[""img/0899/a048912c-b12c-40e3-90af-46b69b0cc4fe.jpg"",""img/0758/3ddd05d3-557e-4ee7-8b78-9d2d681d8ae2.jpg""]","",""
"","4122","similarity","189","1161174","0.0-6.0-183.0","2","[""img/0874/c0378dac-9370-439a-8b79-db27c96fb390.jpg"",""img/0875/5a1e5100-0d94-4fec-bbe9-ca9894d2cf8e.jpg""]","",""
"","4075","similarity","190","1166258","0.0-6.0-184.0","5","[""img/0904/63dd06dd-dccb-47ba-9740-eb33239e18a7.jpg"",""img/0862/5d887e9f-89e2-4ebc-80a0-6d46fe6480db.jpg""]","",""
"","4569","similarity","191","1171835","0.0-6.0-185.0","5","[""img/0902/2a7ac123-414a-476a-9a96-4757b924baef.jpg"",""img/0766/3c526a07-9e0a-4ae2-8142-00085f0127da.jpg""]","",""
"","3673","similarity","192","1176514","0.0-6.0-186.0","1","[""img/0758/dd559618-7f09-4a07-8018-d311c4a5ea29.jpg"",""img/0769/662ab839-88d1-4ebf-af05-9b2980cad943.jpg""]","",""
"","3861","similarity","193","1181380","0.0-6.0-187.0","7","[""img/0881/db77fe00-aeb0-4d1d-aa66-f3a96fd077e4.jpg"",""img/0881/5fe04dd0-5c74-47b7-99c8-b068db9ca26a.jpg""]","",""
"","4008","similarity","194","1186397","0.0-6.0-188.0","2","[""img/0758/53f35650-e455-4b53-8be4-c3c8271c6466.jpg"",""img/0866/c446214b-a368-4c65-ae39-ea46894256ab.jpg""]","",""
"","4832","similarity","195","1192233","0.0-6.0-189.0","6","[""img/0764/c643e165-df19-459f-8c2b-8357bf432a17.jpg"",""img/0898/b3290bf9-215b-4b45-b21a-65bdf73f142f.jpg""]","",""
"","3743","similarity","196","1196984","0.0-6.0-190.0","4","[""img/0903/4cbdc464-e562-4ec2-9bb6-15f894fdf528.jpg"",""img/0901/50e1d53e-a49f-4806-8610-be6dec5a2475.jpg""]","",""
"","5345","similarity","197","1203338","0.0-6.0-191.0","6","[""img/0902/fbef27fa-ac83-4936-ab78-9d1c20a383e1.jpg"",""img/0898/881e2a85-d5c2-49be-a0c6-8a6ce2c4af08.jpg""]","",""
"","2569","similarity","198","1206916","0.0-6.0-192.0","4","[""img/0864/e02eddb5-f468-499c-91bf-f7be3ffe979b.jpg"",""img/0901/f469cb1d-6d81-4a45-bab5-cd0b650c2b4f.jpg""]","",""
"","3878","similarity","199","1211799","0.0-6.0-193.0","3","[""img/0894/86201968-6e78-4d68-9b3a-d1692e066210.jpg"",""img/0881/f6bd3b96-dc40-4e99-8681-bc3a35cf896d.jpg""]","",""
"","3575","similarity","200","1216381","0.0-6.0-194.0","7","[""img/0868/179a5502-ab5c-478e-8263-5a1fbcc101d2.jpg"",""img/0868/6a28c3b0-3d76-498a-9fb7-ddafc665eca8.jpg""]","",""
"","6342","similarity","201","1223734","0.0-6.0-195.0","6","[""img/0899/00715b3f-851b-420b-a26b-d7f79f7759a9.jpg"",""img/0764/974d52cc-6318-4e7a-b294-2f3e92ff800f.jpg""]","",""
"","4110","similarity","202","1228851","0.0-6.0-196.0","5","[""img/0881/f7a8cc63-8842-40a4-9ff8-fe530310d62c.jpg"",""img/0904/0d17b811-063e-416e-a23c-3b3cfa4fcce5.jpg""]","",""
"","3646","similarity","203","1233506","0.0-6.0-197.0","6","[""img/0864/c22faebd-9c53-47bc-ada3-b9a30c688e75.jpg"",""img/0902/3b243e54-0803-4c29-af42-4037c2118495.jpg""]","",""
"","6162","similarity","204","1240677","0.0-6.0-198.0","6","[""img/0894/9b1333fd-3561-43bf-aee5-99b7b7ca3dc3.jpg"",""img/0904/d23dd7be-7fe8-4435-82f7-bd592c01e6a1.jpg""]","",""
"","4474","similarity","205","1246163","0.0-6.0-199.0","7","[""img/0901/1ede21d9-384f-4150-86b5-e1c57b5dc1d4.jpg"",""img/0901/5b97abf9-f0c8-4fd1-b921-36d574779078.jpg""]","",""
"","6380","similarity","206","1253554","0.0-6.0-200.0","4","[""img/0894/10f22b96-040c-44f4-950b-a4963f3f506c.jpg"",""img/0860/99c589b9-9140-4d17-90c0-b344323edcda.jpg""]","",""
"","4018","similarity","207","1258579","0.0-6.0-201.0","6","[""img/0898/01bfe666-3510-4fc7-964f-d00d28732dc8.jpg"",""img/0903/0fb24af7-9a26-4e9d-aadc-959a36f683e2.jpg""]","",""
"","3082","similarity","208","1262664","0.0-6.0-202.0","4","[""img/0864/3651d070-2fc5-4848-b6a6-088a2d9ac5c9.jpg"",""img/0894/e5edf723-72a5-4673-8441-6c1734a8929b.jpg""]","",""
"","2365","similarity","209","1266039","0.0-6.0-203.0","4","[""img/0874/99f6563c-8a8d-4c1c-a41d-667b618c3fd5.jpg"",""img/0860/e14d67c1-6d92-4f1e-9257-c8607159c19c.jpg""]","",""
"","3452","similarity","210","1270500","0.0-6.0-204.0","5","[""img/0862/47ed5efd-4ec9-4b74-bb4e-a5f5cf0c3e7d.jpg"",""img/0875/ebf7653f-ff45-4e9f-af58-2c042ab3cd2b.jpg""]","",""
"","4061","similarity","211","1275571","0.0-6.0-205.0","2","[""img/0867/8ba0c5a7-c7e4-42cf-a80a-543763b90779.jpg"",""img/0881/344de456-b358-4887-bd0e-e4c3278af887.jpg""]","",""
"","4250","similarity","212","1280831","0.0-6.0-206.0","5","[""img/0901/0f670aef-ac36-496d-8142-ee5fdb21dd82.jpg"",""img/0902/aa6fca32-82b0-4414-b20a-8f6f8aa5a2d2.jpg""]","",""
"","2994","similarity","213","1284829","0.0-6.0-207.0","4","[""img/0899/56a605c3-d0a2-4215-89e1-779279d85a7c.jpg"",""img/0864/3d4de670-b290-4285-9c3d-12a0e3af44e9.jpg""]","",""
"","4337","similarity","214","1290174","0.0-6.0-208.0","3","[""img/0901/875dedb9-24c9-4443-9f8c-85e97d70ee5a.jpg"",""img/0769/da36e3f7-2337-434f-ab57-11822dd7eed7.jpg""]","",""
"","5060","similarity","215","1302095","0.0-6.0-209.0","5","[""img/0902/b56db912-c3c0-4fc2-b325-d640acd7cb58.jpg"",""img/0902/b76efc44-a50f-4dac-b997-ff0222376067.jpg""]","",""
"[{""page_index"":0,""viewing_time"":5887}]","5888","instructions","216","1308985","0.0-7.0","","","",""
"","34752","image-multi-choice","217","1344783","0.0-8.0-0.0","","","{""Q0"":""Orange-crowned Warbler""}","Nashville Warbler"
"","5504","image-multi-choice","218","1351319","0.0-8.0-1.0","","","{""Q0"":""Black-and-white Warbler""}","Black-and-white Warbler"
"","17926","image-multi-choice","219","1370279","0.0-8.0-2.0","","","{""Q0"":""Townsend's Warbler""}","Townsend's Warbler"
"","6574","image-multi-choice","220","1377888","0.0-8.0-3.0","","","{""Q0"":""Lark Sparrow""}","Lark Sparrow"
"","4445","image-multi-choice","221","1383363","0.0-8.0-4.0","","","{""Q0"":""Yellow Warbler""}","Yellow Warbler"
"","6138","image-multi-choice","222","1390544","0.0-8.0-5.0","","","{""Q0"":""Tennessee Warbler""}","Orange-crowned Warbler"
"","5704","image-multi-choice","223","1397280","0.0-8.0-6.0","","","{""Q0"":""White-throated Sparrow""}","White-throated Sparrow"
"","5284","image-multi-choice","224","1403593","0.0-8.0-7.0","","","{""Q0"":""Fox Sparrow""}","Fox Sparrow"
"","25688","image-multi-choice","225","1430297","0.0-8.0-8.0","","","{""Q0"":""Lincoln's Sparrow""}","Song Sparrow"
"","7348","image-multi-choice","226","1438679","0.0-8.0-9.0","","","{""Q0"":""Blackburnian Warbler""}","Blackburnian Warbler"
"","11014","image-multi-choice","227","1450721","0.0-8.0-10.0","","","{""Q0"":""Lincoln's Sparrow""}","Vesper Sparrow"
"","5155","image-multi-choice","228","1456907","0.0-8.0-11.0","","","{""Q0"":""White-crowned Sparrow""}","White-crowned Sparrow"
"","13106","image-multi-choice","229","1471043","0.0-8.0-12.0","","","{""Q0"":""Swamp Sparrow""}","American Tree Sparrow"
"","7304","image-multi-choice","230","1479374","0.0-8.0-13.0","","","{""Q0"":""Tennessee Warbler""}","Tennessee Warbler"
"","10005","image-multi-choice","231","1490414","0.0-8.0-14.0","","","{""Q0"":""Magnolia Warbler""}","Magnolia Warbler"
"","19348","image-multi-choice","232","1510778","0.0-8.0-15.0","","","{""Q0"":""Northern Waterthrush""}","Northern Waterthrush"
"","27852","image-multi-choice","233","1539666","0.0-8.0-16.0","","","{""Q0"":""Chipping Sparrow""}","Chipping Sparrow"
"","17472","image-multi-choice","234","1558164","0.0-8.0-17.0","","","{""Q0"":""Vesper Sparrow""}","Swamp Sparrow"
"","6471","image-multi-choice","235","1565662","0.0-8.0-18.0","","","{""Q0"":""Song Sparrow""}","Lincoln's Sparrow"
"","10416","image-multi-choice","236","1577105","0.0-8.0-19.0","","","{""Q0"":""Ovenbird""}","Ovenbird"
