[{"view_history":"[{\"page_index\":0,\"viewing_time\":30085}]","rt":30085,"trial_type":"instructions","trial_index":0,"time_elapsed":30085,"internal_node_id":"0.0-0.0"},{"sim_score":5,"rt":6579,"stimulus":"[\"img/866.jpg\",\"img/868.jpg\"]","trial_type":"similarity_demo","trial_index":1,"time_elapsed":37678,"internal_node_id":"0.0-1.0"},{"view_history":"[{\"page_index\":0,\"viewing_time\":26304}]","rt":26304,"trial_type":"instructions","trial_index":2,"time_elapsed":64987,"internal_node_id":"0.0-2.0"},{"sim_score":2,"rt":7431,"stimulus":"[\"img/766.jpg\",\"img/867.jpg\"]","trial_type":"similarity_demo","trial_index":3,"time_elapsed":73427,"internal_node_id":"0.0-3.0"},{"view_history":"[{\"page_index\":0,\"viewing_time\":10672}]","rt":10672,"trial_type":"instructions","trial_index":4,"time_elapsed":85109,"internal_node_id":"0.0-4.0"},{"view_history":"[{\"page_index\":0,\"viewing_time\":44575}]","rt":44575,"trial_type":"instructions","trial_index":5,"time_elapsed":130687,"internal_node_id":"0.0-5.0"},{"sim_score":2,"rt":8904,"stimulus":"[\"img/0868/8b0b8473-e2c0-4331-aa56-c3a5c29369da.jpg\",\"img/0901/c6c877e0-dd63-4e00-9657-33af29d55aab.jpg\"]","trial_type":"similarity","trial_index":6,"time_elapsed":140596,"internal_node_id":"0.0-6.0-0.0"},{"sim_score":1,"rt":8185,"stimulus":"[\"img/0769/878531fd-e0e8-4ad1-b9ad-f018bb104ca0.jpg\",\"img/0867/a498eef3-9fa4-4ab2-9778-4ae82ac40dc5.jpg\"]","trial_type":"similarity","trial_index":7,"time_elapsed":149786,"internal_node_id":"0.0-6.0-1.0"},{"sim_score":3,"rt":5847,"stimulus":"[\"img/0766/717fd72f-a281-499b-a5ba-5e2ecc4d4866.jpg\",\"img/0898/881e2a85-d5c2-49be-a0c6-8a6ce2c4af08.jpg\"]","trial_type":"similarity","trial_index":8,"time_elapsed":156643,"internal_node_id":"0.0-6.0-2.0"},{"sim_score":2,"rt":6057,"stimulus":"[\"img/0902/d2c34af0-8c50-437d-8cc3-619195a3e8ba.jpg\",\"img/0881/54ea8e77-c7e5-4197-b7fa-00b7020849a7.jpg\"]","trial_type":"similarity","trial_index":9,"time_elapsed":163702,"internal_node_id":"0.0-6.0-3.0"},{"sim_score":5,"rt":5749,"stimulus":"[\"img/0894/6b2e9509-8699-42b7-9582-7741df0ba2d7.jpg\",\"img/0894/5c7677b0-a4f1-479e-b274-7822c415175a.jpg\"]","trial_type":"similarity","trial_index":10,"time_elapsed":170457,"internal_node_id":"0.0-6.0-4.0"},{"sim_score":2,"rt":5452,"stimulus":"[\"img/0874/7e4f2150-3b59-4a36-b5da-a4e0ba410531.jpg\",\"img/0899/0433d056-aa30-4f8a-9aa1-abbb951e4edd.jpg\"]","trial_type":"similarity","trial_index":11,"time_elapsed":176931,"internal_node_id":"0.0-6.0-5.0"},{"sim_score":6,"rt":5905,"stimulus":"[\"img/0904/09934646-45d2-4147-8fec-64a22a5ac822.jpg\",\"img/0764/56441045-b648-4ede-9632-3e9c0227080b.jpg\"]","trial_type":"similarity","trial_index":12,"time_elapsed":183852,"internal_node_id":"0.0-6.0-6.0"},{"sim_score":4,"rt":5402,"stimulus":"[\"img/0899/1b3457ea-87d4-4946-a01c-aac1863ed46c.jpg\",\"img/0898/8605a25b-6895-476d-8c13-df7a83f96093.jpg\"]","trial_type":"similarity","trial_index":13,"time_elapsed":190262,"internal_node_id":"0.0-6.0-7.0"},{"sim_score":1,"rt":4297,"stimulus":"[\"img/0874/3f471690-9788-4d03-90c7-f615aecef149.jpg\",\"img/0903/d987e220-f3e6-4b6d-a270-fe6757041f6d.jpg\"]","trial_type":"similarity","trial_index":14,"time_elapsed":195564,"internal_node_id":"0.0-6.0-8.0"},{"sim_score":7,"rt":6302,"stimulus":"[\"img/0881/f037e3b0-09cb-4a83-b2d9-6a71fe474e63.jpg\",\"img/0758/7ee8bc8f-c40b-4b3a-84ec-3e83580622d4.jpg\"]","trial_type":"similarity","trial_index":15,"time_elapsed":202873,"internal_node_id":"0.0-6.0-9.0"},{"sim_score":6,"rt":5699,"stimulus":"[\"img/0898/993d8f2d-bef7-4251-a193-0f93a32b7763.jpg\",\"img/0901/77087ed2-6e12-4329-b2a5-605bca6d972d.jpg\"]","trial_type":"similarity","trial_index":16,"time_elapsed":209578,"internal_node_id":"0.0-6.0-10.0"},{"sim_score":6,"rt":5735,"stimulus":"[\"img/0903/12bd8657-92e6-4c36-a06c-597e7a1d51f3.jpg\",\"img/0769/82ab9db6-4578-4e79-874f-f09100439f09.jpg\"]","trial_type":"similarity","trial_index":17,"time_elapsed":216319,"internal_node_id":"0.0-6.0-11.0"},{"sim_score":1,"rt":5316,"stimulus":"[\"img/0764/f990b2e8-ecee-481e-be7c-0239fce350e2.jpg\",\"img/0868/7b212364-ff5f-4e28-9241-7eb6ea00161b.jpg\"]","trial_type":"similarity","trial_index":18,"time_elapsed":222642,"internal_node_id":"0.0-6.0-12.0"},{"sim_score":1,"rt":5313,"stimulus":"[\"img/0867/075e0f95-856b-4cbb-acf5-092393aaf04e.jpg\",\"img/0903/0e5c2854-42aa-48c0-9c3d-6e1ad2a400bd.jpg\"]","trial_type":"similarity","trial_index":19,"time_elapsed":228965,"internal_node_id":"0.0-6.0-13.0"},{"sim_score":1,"rt":5765,"stimulus":"[\"img/0766/006035d8-c736-4daf-bbe4-a9e373af9da6.jpg\",\"img/0758/caa93da2-9edf-49fa-96b9-32dedd8f5078.jpg\"]","trial_type":"similarity","trial_index":20,"time_elapsed":235738,"internal_node_id":"0.0-6.0-14.0"},{"sim_score":1,"rt":5569,"stimulus":"[\"img/0902/2db723b6-130f-454c-8c8d-88829edbcd65.jpg\",\"img/0860/c3379ff7-0763-48fe-a1ec-7ea3d611bc7a.jpg\"]","trial_type":"similarity","trial_index":21,"time_elapsed":242312,"internal_node_id":"0.0-6.0-15.0"},{"sim_score":1,"rt":5031,"stimulus":"[\"img/0769/96556ef3-7fac-4c9d-8281-1cb0ea5081bc.jpg\",\"img/0875/cff79b3a-a797-4393-9757-6275f999ec04.jpg\"]","trial_type":"similarity","trial_index":22,"time_elapsed":248351,"internal_node_id":"0.0-6.0-16.0"},{"sim_score":1,"rt":4565,"stimulus":"[\"img/0904/25365108-e038-4021-aac9-797f2063b337.jpg\",\"img/0866/0207e9a2-7dbb-40b5-9459-b472aaeceb2a.jpg\"]","trial_type":"similarity","trial_index":23,"time_elapsed":253940,"internal_node_id":"0.0-6.0-17.0"},{"sim_score":7,"rt":6301,"stimulus":"[\"img/0875/8521fd58-3b1e-4dc5-97ae-804edfa6734a.jpg\",\"img/0875/5a716432-c6ca-4b1c-955a-2b8ac25198ee.jpg\"]","trial_type":"similarity","trial_index":24,"time_elapsed":261248,"internal_node_id":"0.0-6.0-18.0"},{"sim_score":7,"rt":4501,"stimulus":"[\"img/0758/b76ceca7-95ac-46e4-ac13-da02c8e93be9.jpg\",\"img/0758/e38fd80d-18d0-42f3-b848-f930788e8bd7.jpg\"]","trial_type":"similarity","trial_index":25,"time_elapsed":266753,"internal_node_id":"0.0-6.0-19.0"},{"sim_score":2,"rt":5698,"stimulus":"[\"img/0902/0c760cc9-10ac-429e-8957-a7d51fc99683.jpg\",\"img/0874/3ce41e7c-40c8-4d58-a546-171114521796.jpg\"]","trial_type":"similarity","trial_index":26,"time_elapsed":273458,"internal_node_id":"0.0-6.0-20.0"},{"sim_score":2,"rt":4882,"stimulus":"[\"img/0764/f9f890e6-3c2f-40cd-84e9-85e0b54cb28e.jpg\",\"img/0769/d1be2815-fa79-46e8-b5c3-7d81caaca490.jpg\"]","trial_type":"similarity","trial_index":27,"time_elapsed":279349,"internal_node_id":"0.0-6.0-21.0"},{"sim_score":2,"rt":5167,"stimulus":"[\"img/0901/d61f267a-c492-4db6-9bfb-61efd49cf072.jpg\",\"img/0874/adf9a8f1-c40b-402b-b95b-1e85a54a7b62.jpg\"]","trial_type":"similarity","trial_index":28,"time_elapsed":285521,"internal_node_id":"0.0-6.0-22.0"},{"sim_score":2,"rt":5233,"stimulus":"[\"img/0875/fb732ab5-013a-4366-9f65-27811ed157e9.jpg\",\"img/0903/39365c8e-a733-4801-ac7d-b87e38c3784b.jpg\"]","trial_type":"similarity","trial_index":29,"time_elapsed":291760,"internal_node_id":"0.0-6.0-23.0"},{"sim_score":2,"rt":5517,"stimulus":"[\"img/0769/180213e5-1e50-4b4e-87b6-add77ba04d39.jpg\",\"img/0881/5fe04dd0-5c74-47b7-99c8-b068db9ca26a.jpg\"]","trial_type":"similarity","trial_index":30,"time_elapsed":298284,"internal_node_id":"0.0-6.0-24.0"},{"sim_score":1,"rt":4265,"stimulus":"[\"img/0867/26611f4e-d694-4460-b7e2-43c62753ddc3.jpg\",\"img/0904/6291eb43-c10c-4810-a36a-101d09868b04.jpg\"]","trial_type":"similarity","trial_index":31,"time_elapsed":303555,"internal_node_id":"0.0-6.0-25.0"},{"sim_score":1,"rt":4918,"stimulus":"[\"img/0860/4c530c3c-6aab-492a-94d1-9c01797bde40.jpg\",\"img/0881/405484ae-0d00-4b05-bc57-6420a36adfac.jpg\"]","trial_type":"similarity","trial_index":32,"time_elapsed":309478,"internal_node_id":"0.0-6.0-26.0"},{"sim_score":6,"rt":5666,"stimulus":"[\"img/0866/f756f7d1-9ad8-4a34-9ef6-7a443d705bfe.jpg\",\"img/0866/d266fece-59b3-46fa-b69f-96f6efb81b59.jpg\"]","trial_type":"similarity","trial_index":33,"time_elapsed":316151,"internal_node_id":"0.0-6.0-27.0"},{"sim_score":1,"rt":4764,"stimulus":"[\"img/0764/da207710-e7e4-4f42-b2e6-99b5f357f433.jpg\",\"img/0862/ba89835a-408c-480b-8594-ed4ffa97eb5c.jpg\"]","trial_type":"similarity","trial_index":34,"time_elapsed":321921,"internal_node_id":"0.0-6.0-28.0"},{"sim_score":1,"rt":4632,"stimulus":"[\"img/0904/0d25eb24-bb20-4e8d-9787-8b489558b4cb.jpg\",\"img/0758/67c0be2f-9e91-48b3-8219-70ac0a1802fa.jpg\"]","trial_type":"similarity","trial_index":35,"time_elapsed":327560,"internal_node_id":"0.0-6.0-29.0"},{"sim_score":4,"rt":5480,"stimulus":"[\"img/0894/5a49e858-2850-4892-9a06-e9f0efb5f94d.jpg\",\"img/0899/57476fed-5962-4272-8fc9-b317bb777b54.jpg\"]","trial_type":"similarity","trial_index":36,"time_elapsed":334067,"internal_node_id":"0.0-6.0-30.0"},{"sim_score":2,"rt":4869,"stimulus":"[\"img/0860/f44ba3fb-03a2-42f0-8509-2c1ded493086.jpg\",\"img/0904/09dac84f-3d1c-4445-a68e-d0389fdbf1e9.jpg\"]","trial_type":"similarity","trial_index":37,"time_elapsed":339941,"internal_node_id":"0.0-6.0-31.0"},{"sim_score":6,"rt":5252,"stimulus":"[\"img/0874/ca23d307-fc00-4d7d-9106-584c6eb21b4d.jpg\",\"img/0881/20af39f5-373d-4a55-a437-2dc4c0382c46.jpg\"]","trial_type":"similarity","trial_index":38,"time_elapsed":346215,"internal_node_id":"0.0-6.0-32.0"},{"sim_score":2,"rt":5916,"stimulus":"[\"img/0881/48ed65a5-471f-41af-86ec-3793805c116d.jpg\",\"img/0899/4408c14d-c168-4a7d-96f6-bc87bfb58f83.jpg\"]","trial_type":"similarity","trial_index":39,"time_elapsed":353135,"internal_node_id":"0.0-6.0-33.0"},{"sim_score":3,"rt":4198,"stimulus":"[\"img/0866/9b38d691-1802-4959-ab3f-fc902f0e4ea6.jpg\",\"img/0862/ad593cc7-cabe-4bb7-8e14-8a447a0717b4.jpg\"]","trial_type":"similarity","trial_index":40,"time_elapsed":358342,"internal_node_id":"0.0-6.0-34.0"},{"sim_score":1,"rt":6314,"stimulus":"[\"img/0868/77091fc7-a590-4ebb-b915-fdb2483a2399.jpg\",\"img/0894/792c83e9-a747-4000-bc72-5663d2439edb.jpg\"]","trial_type":"similarity","trial_index":41,"time_elapsed":365664,"internal_node_id":"0.0-6.0-35.0"},{"sim_score":7,"rt":6433,"stimulus":"[\"img/0860/702bd09d-df3a-40aa-a267-5f04474305b5.jpg\",\"img/0860/4f695df5-afac-4da7-9875-fee39b0b24ad.jpg\"]","trial_type":"similarity","trial_index":42,"time_elapsed":373105,"internal_node_id":"0.0-6.0-36.0"},{"sim_score":7,"rt":4918,"stimulus":"[\"img/0862/de9ad88c-b522-430a-8ee9-eb06a9f85df5.jpg\",\"img/0864/300bb811-8b3c-4c42-8653-6097c3725197.jpg\"]","trial_type":"similarity","trial_index":43,"time_elapsed":379030,"internal_node_id":"0.0-6.0-37.0"},{"sim_score":1,"rt":5717,"stimulus":"[\"img/0766/d512b99c-a2dc-40d7-8e86-827323a0cbcf.jpg\",\"img/0866/386235d2-6857-41e7-88a8-25cfc3430025.jpg\"]","trial_type":"similarity","trial_index":44,"time_elapsed":385752,"internal_node_id":"0.0-6.0-38.0"},{"sim_score":5,"rt":5684,"stimulus":"[\"img/0875/3ecb367d-e9eb-4826-8aaa-7aa72fb98019.jpg\",\"img/0898/08c72dac-f8ad-407a-9ce6-8c9a5d679c3a.jpg\"]","trial_type":"similarity","trial_index":45,"time_elapsed":392443,"internal_node_id":"0.0-6.0-39.0"},{"sim_score":7,"rt":4348,"stimulus":"[\"img/0766/989c5c7f-1aff-4442-ac63-9d46acf4a891.jpg\",\"img/0769/6c0bac4c-5f59-43c7-898c-3ca93cf55cfe.jpg\"]","trial_type":"similarity","trial_index":46,"time_elapsed":397812,"internal_node_id":"0.0-6.0-40.0"},{"sim_score":2,"rt":5145,"stimulus":"[\"img/0874/29830da7-be5f-44e5-b141-652a0ccf7269.jpg\",\"img/0764/bc3865c9-9004-4582-88a7-048478673f97.jpg\"]","trial_type":"similarity","trial_index":47,"time_elapsed":430994,"internal_node_id":"0.0-6.0-41.0"},{"sim_score":1,"rt":4814,"stimulus":"[\"img/0868/09a9ef4d-d000-4cfa-a6aa-ebec7c2edeb4.jpg\",\"img/0902/71c03003-03ef-4b0f-8229-e0c857150a5d.jpg\"]","trial_type":"similarity","trial_index":48,"time_elapsed":436817,"internal_node_id":"0.0-6.0-42.0"},{"sim_score":1,"rt":4803,"stimulus":"[\"img/0875/42910c99-5463-450a-a0f8-d4d060a11455.jpg\",\"img/0899/66ab3178-c3fe-4455-ad17-d5952b08e018.jpg\"]","trial_type":"similarity","trial_index":49,"time_elapsed":442643,"internal_node_id":"0.0-6.0-43.0"},{"sim_score":6,"rt":4400,"stimulus":"[\"img/0866/a04d37f0-99dd-478a-b6c6-58b215138f84.jpg\",\"img/0860/d9a0d117-6d1d-41c0-8fec-9aff0fd9e9f2.jpg\"]","trial_type":"similarity","trial_index":50,"time_elapsed":448047,"internal_node_id":"0.0-6.0-44.0"},{"sim_score":6,"rt":5117,"stimulus":"[\"img/0766/79767d11-b612-4e8a-9e4b-a8ac95bb6a54.jpg\",\"img/0903/6a87dbad-9b8d-4ff5-9c41-03c9aa24f0c3.jpg\"]","trial_type":"similarity","trial_index":51,"time_elapsed":454168,"internal_node_id":"0.0-6.0-45.0"},{"sim_score":5,"rt":5045,"stimulus":"[\"img/0901/a6c90438-fa7c-4418-ac7c-16c2e772dd98.jpg\",\"img/0904/73920552-103b-4c9c-9ece-e0b8376b4504.jpg\"]","trial_type":"similarity","trial_index":52,"time_elapsed":460223,"internal_node_id":"0.0-6.0-46.0"},{"sim_score":1,"rt":5572,"stimulus":"[\"img/0758/9fb5b2fe-3f00-4fe6-973c-1ce10d5f4cd5.jpg\",\"img/0902/1f4a4c62-68c1-4993-b213-05652a173ed1.jpg\"]","trial_type":"similarity","trial_index":53,"time_elapsed":466801,"internal_node_id":"0.0-6.0-47.0"},{"sim_score":7,"rt":5082,"stimulus":"[\"img/0764/ec2dd087-c471-4370-b570-95a542506a96.jpg\",\"img/0764/50f1b062-d608-4bc0-ab25-b872dcf2ed93.jpg\"]","trial_type":"similarity","trial_index":54,"time_elapsed":472887,"internal_node_id":"0.0-6.0-48.0"},{"sim_score":1,"rt":4867,"stimulus":"[\"img/0866/945c6710-d15b-4a5b-a8f6-69af0850357f.jpg\",\"img/0902/3b243e54-0803-4c29-af42-4037c2118495.jpg\"]","trial_type":"similarity","trial_index":55,"time_elapsed":478760,"internal_node_id":"0.0-6.0-49.0"},{"sim_score":1,"rt":5150,"stimulus":"[\"img/0764/b328441c-f81c-486c-9eae-b947c70ba7cd.jpg\",\"img/0758/20497cbe-ddae-489e-86e2-ab06985ed07c.jpg\"]","trial_type":"similarity","trial_index":56,"time_elapsed":484931,"internal_node_id":"0.0-6.0-50.0"},{"sim_score":5,"rt":6218,"stimulus":"[\"img/0898/4184e5a2-84ea-4f36-9b42-ae58646f6f87.jpg\",\"img/0894/3adef67d-7676-4995-80b2-bb31b8aca3ef.jpg\"]","trial_type":"similarity","trial_index":57,"time_elapsed":492156,"internal_node_id":"0.0-6.0-51.0"},{"sim_score":3,"rt":6717,"stimulus":"[\"img/0875/ebf7653f-ff45-4e9f-af58-2c042ab3cd2b.jpg\",\"img/0866/620cd1aa-0800-4414-8f6e-90342e7a99ad.jpg\"]","trial_type":"similarity","trial_index":58,"time_elapsed":499880,"internal_node_id":"0.0-6.0-52.0"},{"sim_score":4,"rt":5267,"stimulus":"[\"img/0904/9dd5708f-3f8b-46a9-b49f-2f2fab87b357.jpg\",\"img/0904/e9423a8c-f946-43ad-ab7b-931acef870e2.jpg\"]","trial_type":"similarity","trial_index":59,"time_elapsed":506154,"internal_node_id":"0.0-6.0-53.0"},{"sim_score":4,"rt":4467,"stimulus":"[\"img/0769/35f2dd39-40aa-498e-b401-9f1ef2622d00.jpg\",\"img/0769/9ea27d61-3d55-418c-8d14-82e90f656f01.jpg\"]","trial_type":"similarity","trial_index":60,"time_elapsed":511626,"internal_node_id":"0.0-6.0-54.0"},{"sim_score":1,"rt":6233,"stimulus":"[\"img/0898/b3290bf9-215b-4b45-b21a-65bdf73f142f.jpg\",\"img/0758/eabcd7a8-56ad-4fd2-bc24-90f6b7b33265.jpg\"]","trial_type":"similarity","trial_index":61,"time_elapsed":518864,"internal_node_id":"0.0-6.0-55.0"},{"sim_score":3,"rt":5051,"stimulus":"[\"img/0769/688d0c52-ad73-4065-a5eb-f8c10d076bff.jpg\",\"img/0902/95a36b6b-9601-4fa5-8fd9-606ea62f9425.jpg\"]","trial_type":"similarity","trial_index":62,"time_elapsed":524921,"internal_node_id":"0.0-6.0-56.0"},{"sim_score":6,"rt":4664,"stimulus":"[\"img/0864/e8bd659f-aa43-4748-877e-3118e8b4e189.jpg\",\"img/0881/adc02f34-ce97-4aef-850f-00519df06fd7.jpg\"]","trial_type":"similarity","trial_index":63,"time_elapsed":530592,"internal_node_id":"0.0-6.0-57.0"},{"sim_score":2,"rt":4349,"stimulus":"[\"img/0758/e1ba5e53-addc-436a-b428-d34fc1b130dc.jpg\",\"img/0868/6a28c3b0-3d76-498a-9fb7-ddafc665eca8.jpg\"]","trial_type":"similarity","trial_index":64,"time_elapsed":535949,"internal_node_id":"0.0-6.0-58.0"},{"sim_score":2,"rt":5284,"stimulus":"[\"img/0862/fad1d7c1-8187-43c3-942a-0fc12183e48e.jpg\",\"img/0769/8c7cf147-1780-4d5c-8ddf-5ea23ff03ac9.jpg\"]","trial_type":"similarity","trial_index":65,"time_elapsed":542238,"internal_node_id":"0.0-6.0-59.0"},{"sim_score":6,"rt":5985,"stimulus":"[\"img/0764/d0bef2e0-e16b-4c82-9451-c1d16265eb67.jpg\",\"img/0903/6b5dcc60-3ad3-4962-93e5-e6cf768477af.jpg\"]","trial_type":"similarity","trial_index":66,"time_elapsed":549229,"internal_node_id":"0.0-6.0-60.0"},{"sim_score":7,"rt":5048,"stimulus":"[\"img/0899/fd9efb43-701f-4cd6-baaa-4c38315f4bdc.jpg\",\"img/0899/f58b8d2f-b19d-4b59-8b94-8834be92e4ba.jpg\"]","trial_type":"similarity","trial_index":67,"time_elapsed":555283,"internal_node_id":"0.0-6.0-61.0"},{"sim_score":4,"rt":5068,"stimulus":"[\"img/0860/15b24a61-25be-4356-9eac-5ce95d0cb4a4.jpg\",\"img/0875/f87b67d7-c33e-40d1-b281-248c4be1cb6e.jpg\"]","trial_type":"similarity","trial_index":68,"time_elapsed":561359,"internal_node_id":"0.0-6.0-62.0"},{"sim_score":2,"rt":6117,"stimulus":"[\"img/0868/fd307a36-9a3a-47d7-ab7c-f810d0b35040.jpg\",\"img/0874/31e22c7c-99aa-40b1-bf03-dd73fa2df4d6.jpg\"]","trial_type":"similarity","trial_index":69,"time_elapsed":568480,"internal_node_id":"0.0-6.0-63.0"},{"sim_score":5,"rt":4416,"stimulus":"[\"img/0758/6e95579b-5166-487c-b8cb-e417c6a218e3.jpg\",\"img/0862/47ed5efd-4ec9-4b74-bb4e-a5f5cf0c3e7d.jpg\"]","trial_type":"similarity","trial_index":70,"time_elapsed":573902,"internal_node_id":"0.0-6.0-64.0"},{"sim_score":4,"rt":5851,"stimulus":"[\"img/0904/da170c1b-9651-4f08-b231-2bdd1d9a046f.jpg\",\"img/0898/f3a3f225-1248-4ac7-b93b-f0ff28485bf3.jpg\"]","trial_type":"similarity","trial_index":71,"time_elapsed":580759,"internal_node_id":"0.0-6.0-65.0"},{"sim_score":5,"rt":4480,"stimulus":"[\"img/0881/609a5e93-38b5-4940-8627-2bf8fad7f802.jpg\",\"img/0866/4a87911a-d5be-4d4e-ab8e-3d1f581bf507.jpg\"]","trial_type":"similarity","trial_index":72,"time_elapsed":586247,"internal_node_id":"0.0-6.0-66.0"},{"sim_score":1,"rt":5217,"stimulus":"[\"img/0867/179ab87a-8eac-4c52-a41f-2e48e3120f09.jpg\",\"img/0898/c3cecf20-f7fd-45fa-97d0-dc0a63e8d6c0.jpg\"]","trial_type":"similarity","trial_index":73,"time_elapsed":592471,"internal_node_id":"0.0-6.0-67.0"},{"sim_score":6,"rt":4400,"stimulus":"[\"img/0902/31abfa33-7cdb-44ad-968e-9f7b324d577a.jpg\",\"img/0764/958b8576-3a3b-4acc-96dc-06b74de69f37.jpg\"]","trial_type":"similarity","trial_index":74,"time_elapsed":597877,"internal_node_id":"0.0-6.0-68.0"},{"sim_score":6,"rt":6486,"stimulus":"[\"img/0875/99698b4d-b4a1-44bc-8c83-8ea755bbbf61.jpg\",\"img/0867/12264664-1860-46df-8c21-162b9817cdda.jpg\"]","trial_type":"similarity","trial_index":75,"time_elapsed":605367,"internal_node_id":"0.0-6.0-69.0"},{"sim_score":6,"rt":5114,"stimulus":"[\"img/0766/fd064894-7147-4af5-97e9-2089d5472656.jpg\",\"img/0764/55b3fab1-b809-4d38-a461-3f40ce062f52.jpg\"]","trial_type":"similarity","trial_index":76,"time_elapsed":611488,"internal_node_id":"0.0-6.0-70.0"},{"sim_score":2,"rt":5500,"stimulus":"[\"img/0894/38cf335f-f76f-4349-8d65-e20cd6859565.jpg\",\"img/0867/cc72ed48-7704-422c-86d6-467a1145287a.jpg\"]","trial_type":"similarity","trial_index":77,"time_elapsed":617996,"internal_node_id":"0.0-6.0-71.0"},{"sim_score":1,"rt":4760,"stimulus":"[\"img/0875/527ced51-8e53-4aab-ab05-86df219104c0.jpg\",\"img/0764/8389e74f-e0e0-435d-945f-da1f4c92ccb6.jpg\"]","trial_type":"similarity","trial_index":78,"time_elapsed":623769,"internal_node_id":"0.0-6.0-72.0"},{"sim_score":6,"rt":4648,"stimulus":"[\"img/0867/f8159067-056c-41f1-a136-c529fe5e970a.jpg\",\"img/0866/02f5e6b9-52b7-448c-9708-5b460d0c9a23.jpg\"]","trial_type":"similarity","trial_index":79,"time_elapsed":629424,"internal_node_id":"0.0-6.0-73.0"},{"sim_score":1,"rt":5400,"stimulus":"[\"img/0903/31b5a5f4-b695-4af1-bad2-a19650a05498.jpg\",\"img/0758/d540bee6-b460-4c32-ac57-bc282742d7d4.jpg\"]","trial_type":"similarity","trial_index":80,"time_elapsed":635832,"internal_node_id":"0.0-6.0-74.0"},{"sim_score":1,"rt":4166,"stimulus":"[\"img/0766/dd3e18d0-0c98-4d05-b850-69976ee8cd75.jpg\",\"img/0868/0d3abd3a-b6c3-4584-a9f7-e2da63748b3d.jpg\"]","trial_type":"similarity","trial_index":81,"time_elapsed":641002,"internal_node_id":"0.0-6.0-75.0"},{"sim_score":1,"rt":4332,"stimulus":"[\"img/0874/767f289c-9814-4496-803f-745cc8913d1f.jpg\",\"img/0766/00891401-e4c9-4ce1-bc19-f70740d174bc.jpg\"]","trial_type":"similarity","trial_index":82,"time_elapsed":646341,"internal_node_id":"0.0-6.0-76.0"},{"sim_score":4,"rt":4284,"stimulus":"[\"img/0881/b1a136f7-8511-4d3a-a0f6-3879acf1e1a1.jpg\",\"img/0868/d6d1f30d-4323-435a-b194-7892521bc57e.jpg\"]","trial_type":"similarity","trial_index":83,"time_elapsed":651629,"internal_node_id":"0.0-6.0-77.0"},{"sim_score":1,"rt":5336,"stimulus":"[\"img/0758/d41c06bf-ebaf-454b-91c6-1a17f917b659.jpg\",\"img/0901/2a953e50-d237-405c-a38d-5ed21494c968.jpg\"]","trial_type":"similarity","trial_index":84,"time_elapsed":657970,"internal_node_id":"0.0-6.0-78.0"},{"sim_score":2,"rt":5384,"stimulus":"[\"img/0881/633c6f40-56d9-4b48-bf1c-ecd83116eabb.jpg\",\"img/0898/68476bbb-34a1-42d9-8bc1-deab783d4489.jpg\"]","trial_type":"similarity","trial_index":85,"time_elapsed":664357,"internal_node_id":"0.0-6.0-79.0"},{"sim_score":6,"rt":4516,"stimulus":"[\"img/0867/c71dc569-f49c-4397-8381-68b8d726736d.jpg\",\"img/0758/d57c2592-a317-4f63-91be-91a3a9afd222.jpg\"]","trial_type":"similarity","trial_index":86,"time_elapsed":669880,"internal_node_id":"0.0-6.0-80.0"},{"sim_score":6,"rt":4632,"stimulus":"[\"img/0769/022c7e3b-c3f2-4119-b4bc-f22fa7cae18c.jpg\",\"img/0899/9de5e857-aa9a-4e0c-8ba2-46d79bd069a4.jpg\"]","trial_type":"similarity","trial_index":87,"time_elapsed":675520,"internal_node_id":"0.0-6.0-81.0"},{"sim_score":7,"rt":6820,"stimulus":"[\"img/0903/2c7b4aed-6038-4aac-958a-e3e58341c313.jpg\",\"img/0903/365f176c-25a4-4973-bd3c-279bf1b39476.jpg\"]","trial_type":"similarity","trial_index":88,"time_elapsed":683345,"internal_node_id":"0.0-6.0-82.0"},{"sim_score":2,"rt":4350,"stimulus":"[\"img/0867/6e19c858-b606-45b2-a4c6-910a73f1d82c.jpg\",\"img/0766/af3be95e-e52e-4fae-899b-0ff02ec340aa.jpg\"]","trial_type":"similarity","trial_index":89,"time_elapsed":696291,"internal_node_id":"0.0-6.0-83.0"},{"sim_score":1,"rt":4100,"stimulus":"[\"img/0902/417d8b4a-3c72-4adc-ac78-820e833316f2.jpg\",\"img/0867/2e1a0b58-cdb1-4107-a14e-452530d7b9b0.jpg\"]","trial_type":"similarity","trial_index":90,"time_elapsed":701395,"internal_node_id":"0.0-6.0-84.0"},{"sim_score":1,"rt":4382,"stimulus":"[\"img/0901/d4d09bf5-093e-4050-838e-7c738be8e63c.jpg\",\"img/0875/2c361b79-c3d1-4eda-812e-bf03192407bf.jpg\"]","trial_type":"similarity","trial_index":91,"time_elapsed":706783,"internal_node_id":"0.0-6.0-85.0"},{"sim_score":1,"rt":4466,"stimulus":"[\"img/0764/83c93cce-18d1-4aa7-9e23-2c268afe0a46.jpg\",\"img/0866/c446214b-a368-4c65-ae39-ea46894256ab.jpg\"]","trial_type":"similarity","trial_index":92,"time_elapsed":712256,"internal_node_id":"0.0-6.0-86.0"},{"sim_score":6,"rt":4599,"stimulus":"[\"img/0901/4d1bed7e-3c4e-4f6c-ada9-4beb66ba9e39.jpg\",\"img/0894/3664e04c-c6d3-4c9b-afb6-25d89974b174.jpg\"]","trial_type":"similarity","trial_index":93,"time_elapsed":717862,"internal_node_id":"0.0-6.0-87.0"},{"sim_score":5,"rt":4268,"stimulus":"[\"img/0898/b2732712-71c2-45d8-834f-2b2ed5504910.jpg\",\"img/0769/458d9c77-b844-40b5-bb1b-1e3bbd4da64e.jpg\"]","trial_type":"similarity","trial_index":94,"time_elapsed":723146,"internal_node_id":"0.0-6.0-88.0"},{"sim_score":5,"rt":4416,"stimulus":"[\"img/0769/11518cb3-13ea-4dd0-890c-30cfab728ade.jpg\",\"img/0894/e2446cf5-cd48-486a-badc-76498e087fbe.jpg\"]","trial_type":"similarity","trial_index":95,"time_elapsed":728571,"internal_node_id":"0.0-6.0-89.0"},{"sim_score":4,"rt":4983,"stimulus":"[\"img/0862/f23038d4-c366-4f70-979f-66b62362efa4.jpg\",\"img/0874/bf14b896-e930-4fd9-9c05-2e83317a2773.jpg\"]","trial_type":"similarity","trial_index":96,"time_elapsed":734560,"internal_node_id":"0.0-6.0-90.0"},{"sim_score":6,"rt":5984,"stimulus":"[\"img/0894/492d2f29-d7b9-4422-8be8-47fd58bfaa8b.jpg\",\"img/0766/ea09dd5a-d24d-4e97-a099-7da3db1baef1.jpg\"]","trial_type":"similarity","trial_index":97,"time_elapsed":741549,"internal_node_id":"0.0-6.0-91.0"},{"sim_score":2,"rt":4846,"stimulus":"[\"img/0874/c0378dac-9370-439a-8b79-db27c96fb390.jpg\",\"img/0867/5e07b34d-b40f-4b1c-ac10-49975bace45f.jpg\"]","trial_type":"similarity","trial_index":98,"time_elapsed":747405,"internal_node_id":"0.0-6.0-92.0"},{"sim_score":1,"rt":4217,"stimulus":"[\"img/0899/06b0fc99-0581-461a-9913-d1a5a941ac61.jpg\",\"img/0868/83b4350a-3b70-4cea-b7f5-b5b56f3050a8.jpg\"]","trial_type":"similarity","trial_index":99,"time_elapsed":752630,"internal_node_id":"0.0-6.0-93.0"},{"sim_score":1,"rt":4365,"stimulus":"[\"img/0903/f1fa0f8d-e62b-4b4a-a174-31a0fabfe61b.jpg\",\"img/0862/57b6f83f-c763-4858-830d-102f97bfefbf.jpg\"]","trial_type":"similarity","trial_index":100,"time_elapsed":758000,"internal_node_id":"0.0-6.0-94.0"},{"sim_score":3,"rt":4404,"stimulus":"[\"img/0899/00715b3f-851b-420b-a26b-d7f79f7759a9.jpg\",\"img/0766/5d6e0d1d-4369-41f0-a64c-91f3503055c7.jpg\"]","trial_type":"similarity","trial_index":101,"time_elapsed":763405,"internal_node_id":"0.0-6.0-95.0"},{"sim_score":7,"rt":4350,"stimulus":"[\"img/0867/bf560d4f-dee3-4f11-a385-705cc1aa5f3c.jpg\",\"img/0868/179a5502-ab5c-478e-8263-5a1fbcc101d2.jpg\"]","trial_type":"similarity","trial_index":102,"time_elapsed":768761,"internal_node_id":"0.0-6.0-96.0"},{"sim_score":1,"rt":5887,"stimulus":"[\"img/0862/eefa5588-9efd-4591-aa5f-a2e17c7d7bcc.jpg\",\"img/0901/fb0a8e69-7f19-4e6e-a6bb-a48f97f9b4f3.jpg\"]","trial_type":"similarity","trial_index":103,"time_elapsed":775653,"internal_node_id":"0.0-6.0-97.0"},{"sim_score":1,"rt":4084,"stimulus":"[\"img/0875/34132396-d896-4c2d-8087-646dd867e769.jpg\",\"img/0766/2da002a4-05c9-4f5c-9ed7-433b4183e273.jpg\"]","trial_type":"similarity","trial_index":104,"time_elapsed":780742,"internal_node_id":"0.0-6.0-98.0"},{"sim_score":6,"rt":4714,"stimulus":"[\"img/0758/6cd8c362-ae2a-41eb-80a3-3a4f7ace1530.jpg\",\"img/0874/93d1f8dc-acf2-4f03-bd8d-8ec35df276ed.jpg\"]","trial_type":"similarity","trial_index":105,"time_elapsed":786460,"internal_node_id":"0.0-6.0-99.0"},{"sim_score":2,"rt":4002,"stimulus":"[\"img/0904/60d1a521-edf7-4696-9263-f21ac0e62a01.jpg\",\"img/0868/4e626425-63c8-484a-8a1d-e66ee4e0bef8.jpg\"]","trial_type":"similarity","trial_index":106,"time_elapsed":791469,"internal_node_id":"0.0-6.0-100.0"},{"sim_score":1,"rt":4083,"stimulus":"[\"img/0903/8f7f9939-b8e6-433f-93dd-b362496c80a7.jpg\",\"img/0866/be24ab58-230e-4db8-9f45-ff04c9aec6bb.jpg\"]","trial_type":"similarity","trial_index":107,"time_elapsed":796571,"internal_node_id":"0.0-6.0-101.0"},{"sim_score":1,"rt":6820,"stimulus":"[\"img/0868/4a8a45ed-2c4f-421b-9564-409a33ecd26c.jpg\",\"img/0769/a3cfbdeb-acb3-4eac-87fb-4b117f42d4f8.jpg\"]","trial_type":"similarity","trial_index":108,"time_elapsed":804396,"internal_node_id":"0.0-6.0-102.0"},{"sim_score":4,"rt":4745,"stimulus":"[\"img/0902/97022122-01e4-46c3-a34f-c6260ad28428.jpg\",\"img/0899/5b56dd3e-3f49-47cc-af84-16da6457753b.jpg\"]","trial_type":"similarity","trial_index":109,"time_elapsed":810149,"internal_node_id":"0.0-6.0-103.0"},{"sim_score":6,"rt":6068,"stimulus":"[\"img/0868/e0aff734-077f-40dd-9781-74821abd3621.jpg\",\"img/0862/f188d4f0-76a4-4102-818c-a209969d73a5.jpg\"]","trial_type":"similarity","trial_index":110,"time_elapsed":817225,"internal_node_id":"0.0-6.0-104.0"},{"sim_score":6,"rt":4917,"stimulus":"[\"img/0903/b0df4094-a3be-4b5b-81bd-8d260f13f61b.jpg\",\"img/0894/151063aa-6472-4745-837b-36603aba5966.jpg\"]","trial_type":"similarity","trial_index":111,"time_elapsed":823147,"internal_node_id":"0.0-6.0-105.0"},{"sim_score":7,"rt":6120,"stimulus":"[\"img/0864/ea327690-500b-4137-bf91-451b309fe6a5.jpg\",\"img/0874/a3bc679d-619f-4db6-bb68-116dcb757d9c.jpg\"]","trial_type":"similarity","trial_index":112,"time_elapsed":830272,"internal_node_id":"0.0-6.0-106.0"},{"sim_score":2,"rt":4923,"stimulus":"[\"img/0862/92f0146c-20c4-482e-aef5-adb693790338.jpg\",\"img/0902/af40b98b-3d23-4d95-b401-49ba5783ce39.jpg\"]","trial_type":"similarity","trial_index":113,"time_elapsed":836202,"internal_node_id":"0.0-6.0-107.0"},{"sim_score":6,"rt":5001,"stimulus":"[\"img/0904/5cceabc9-de1d-4c67-989b-c28a4ef77e79.jpg\",\"img/0903/5ea5bbe0-f238-4724-abe7-9ed8dee8c0ba.jpg\"]","trial_type":"similarity","trial_index":114,"time_elapsed":842216,"internal_node_id":"0.0-6.0-108.0"},{"sim_score":1,"rt":3935,"stimulus":"[\"img/0764/5d83b9db-3b2b-4dc8-9bd1-2b515b19c858.jpg\",\"img/0864/9b2490c5-a282-400a-9736-e1a0ecbf1cb7.jpg\"]","trial_type":"similarity","trial_index":115,"time_elapsed":847157,"internal_node_id":"0.0-6.0-109.0"},{"sim_score":1,"rt":4165,"stimulus":"[\"img/0866/8efcaa46-83ab-4dee-a35f-850402aa21ae.jpg\",\"img/0894/133a1636-d123-4893-873c-1718050f832a.jpg\"]","trial_type":"similarity","trial_index":116,"time_elapsed":852326,"internal_node_id":"0.0-6.0-110.0"},{"sim_score":6,"rt":4466,"stimulus":"[\"img/0899/ddf96ade-692e-4602-bd22-dedbb46401bc.jpg\",\"img/0903/5995f4a8-fa82-46f8-8760-fd7800a5ca34.jpg\"]","trial_type":"similarity","trial_index":117,"time_elapsed":857798,"internal_node_id":"0.0-6.0-111.0"},{"sim_score":7,"rt":5165,"stimulus":"[\"img/0902/40d0b6ec-3907-4573-b227-e7d8e9cad1c3.jpg\",\"img/0904/2f88ce53-02d0-4f95-a082-182c56a0eeb4.jpg\"]","trial_type":"similarity","trial_index":118,"time_elapsed":863970,"internal_node_id":"0.0-6.0-112.0"},{"sim_score":5,"rt":4545,"stimulus":"[\"img/0864/f92649a2-0590-4d31-9a7a-1bfb81666a2d.jpg\",\"img/0860/8fdba999-b946-4c7d-9891-336018b563ef.jpg\"]","trial_type":"similarity","trial_index":119,"time_elapsed":869524,"internal_node_id":"0.0-6.0-113.0"},{"sim_score":1,"rt":5079,"stimulus":"[\"img/0860/e14d67c1-6d92-4f1e-9257-c8607159c19c.jpg\",\"img/0899/76ad07e2-ca25-45eb-84f2-8d80b8ca3e26.jpg\"]","trial_type":"similarity","trial_index":120,"time_elapsed":875616,"internal_node_id":"0.0-6.0-114.0"},{"sim_score":1,"rt":4215,"stimulus":"[\"img/0881/dea58fad-b4f1-41d9-bd3f-916eff19a3fd.jpg\",\"img/0903/59defeb8-98bd-4570-a2f8-9bd189e68ef4.jpg\"]","trial_type":"similarity","trial_index":121,"time_elapsed":880839,"internal_node_id":"0.0-6.0-115.0"},{"sim_score":1,"rt":4350,"stimulus":"[\"img/0894/8cadb87a-7001-4e47-99fb-1867bebf1668.jpg\",\"img/0874/ca76a855-4e77-4f2f-872a-0a718153e7ed.jpg\"]","trial_type":"similarity","trial_index":122,"time_elapsed":886193,"internal_node_id":"0.0-6.0-116.0"},{"sim_score":4,"rt":5182,"stimulus":"[\"img/0881/33d65d80-8a8e-4ecf-852d-0ad7725c17a2.jpg\",\"img/0862/ee3b7bff-4a70-4e84-9bea-4a565e456acb.jpg\"]","trial_type":"similarity","trial_index":123,"time_elapsed":892381,"internal_node_id":"0.0-6.0-117.0"},{"sim_score":6,"rt":4150,"stimulus":"[\"img/0868/3a62db2d-97e9-44a3-b8e3-a48c6f0e423b.jpg\",\"img/0875/90da8d75-108a-44ad-b999-e21fee3860d3.jpg\"]","trial_type":"similarity","trial_index":124,"time_elapsed":897537,"internal_node_id":"0.0-6.0-118.0"},{"sim_score":5,"rt":4572,"stimulus":"[\"img/0860/94ef7afc-e0e6-4a15-98c6-0bfac82bc832.jpg\",\"img/0758/53f35650-e455-4b53-8be4-c3c8271c6466.jpg\"]","trial_type":"similarity","trial_index":125,"time_elapsed":903110,"internal_node_id":"0.0-6.0-119.0"},{"sim_score":6,"rt":4131,"stimulus":"[\"img/0864/afcba0a3-7e27-4757-b254-e9f05fad27e2.jpg\",\"img/0875/e7e66b13-b573-431e-b85e-288ce04a35a3.jpg\"]","trial_type":"similarity","trial_index":126,"time_elapsed":908247,"internal_node_id":"0.0-6.0-120.0"},{"sim_score":1,"rt":5217,"stimulus":"[\"img/0898/224c1572-56b9-4f16-a9e4-6f3bc9c114bd.jpg\",\"img/0866/93a27239-8317-4e08-98ca-d8b1ff298e07.jpg\"]","trial_type":"similarity","trial_index":127,"time_elapsed":914471,"internal_node_id":"0.0-6.0-121.0"},{"sim_score":2,"rt":4070,"stimulus":"[\"img/0874/995f0332-0439-4eb4-add3-957335dbf6d9.jpg\",\"img/0904/fe746a3f-8458-48d0-8a13-8cba2a9df9f8.jpg\"]","trial_type":"similarity","trial_index":128,"time_elapsed":919548,"internal_node_id":"0.0-6.0-122.0"},{"sim_score":1,"rt":4816,"stimulus":"[\"img/0904/b7c2a2c8-df33-4473-b3d4-ff7147c60db3.jpg\",\"img/0864/da39ad34-04e0-40d4-a724-c08d53e0ea09.jpg\"]","trial_type":"similarity","trial_index":129,"time_elapsed":925364,"internal_node_id":"0.0-6.0-123.0"},{"sim_score":6,"rt":4247,"stimulus":"[\"img/0894/4739e06d-c31e-4bf1-bf91-c97fa9afb456.jpg\",\"img/0902/cf9dee9c-2bdf-4d64-9302-97f1660fe52c.jpg\"]","trial_type":"similarity","trial_index":130,"time_elapsed":930635,"internal_node_id":"0.0-6.0-124.0"},{"sim_score":5,"rt":4092,"stimulus":"[\"img/0868/4bd5105a-d2c3-4f82-8c80-57196106ba53.jpg\",\"img/0864/0f537697-a314-47c3-a8cc-8df23b7e536c.jpg\"]","trial_type":"similarity","trial_index":131,"time_elapsed":939478,"internal_node_id":"0.0-6.0-125.0"},{"sim_score":1,"rt":4233,"stimulus":"[\"img/0899/56a605c3-d0a2-4215-89e1-779279d85a7c.jpg\",\"img/0866/07c9c966-3c8d-40e7-8128-92b2acbaed5d.jpg\"]","trial_type":"similarity","trial_index":132,"time_elapsed":944717,"internal_node_id":"0.0-6.0-126.0"},{"sim_score":1,"rt":4264,"stimulus":"[\"img/0875/5a1e5100-0d94-4fec-bbe9-ca9894d2cf8e.jpg\",\"img/0904/4d7d70a3-9477-4921-bda0-f9531d0a5c5b.jpg\"]","trial_type":"similarity","trial_index":133,"time_elapsed":949988,"internal_node_id":"0.0-6.0-127.0"},{"sim_score":1,"rt":4317,"stimulus":"[\"img/0867/aa05d113-fc19-4756-a8eb-7878f580bc92.jpg\",\"img/0899/0e1d936a-dbe2-4afc-9f19-7b7a1ae6c9ed.jpg\"]","trial_type":"similarity","trial_index":134,"time_elapsed":955310,"internal_node_id":"0.0-6.0-128.0"},{"sim_score":1,"rt":4100,"stimulus":"[\"img/0901/148b747a-7392-437e-8823-33053c5dff3f.jpg\",\"img/0867/db7e032f-162b-46f5-ae67-2b29679adee4.jpg\"]","trial_type":"similarity","trial_index":135,"time_elapsed":960415,"internal_node_id":"0.0-6.0-129.0"},{"sim_score":1,"rt":4984,"stimulus":"[\"img/0864/e02eddb5-f468-499c-91bf-f7be3ffe979b.jpg\",\"img/0769/38a88f69-28fd-4bbd-99f0-f4c02bfd3995.jpg\"]","trial_type":"similarity","trial_index":136,"time_elapsed":966405,"internal_node_id":"0.0-6.0-130.0"},{"sim_score":1,"rt":4199,"stimulus":"[\"img/0903/0fb24af7-9a26-4e9d-aadc-959a36f683e2.jpg\",\"img/0868/5fa7f9d0-f0e5-454c-8224-74d964818f56.jpg\"]","trial_type":"similarity","trial_index":137,"time_elapsed":971609,"internal_node_id":"0.0-6.0-131.0"},{"sim_score":4,"rt":5756,"stimulus":"[\"img/0864/0116ca98-293d-4fa6-a93b-5a6144ef64cc.jpg\",\"img/0867/c66898ba-b71b-4d50-84f9-f7f84853a98d.jpg\"]","trial_type":"similarity","trial_index":138,"time_elapsed":978369,"internal_node_id":"0.0-6.0-132.0"},{"sim_score":1,"rt":4503,"stimulus":"[\"img/0901/693e0535-ef7e-4d60-af9d-fac2f38e8307.jpg\",\"img/0860/29a21a9f-54bb-4093-ad3f-04823ceaa89f.jpg\"]","trial_type":"similarity","trial_index":139,"time_elapsed":983887,"internal_node_id":"0.0-6.0-133.0"},{"sim_score":1,"rt":5351,"stimulus":"[\"img/0881/f62bdcd1-a4b7-4d48-83da-d9c9e01c8727.jpg\",\"img/0766/d8221e53-2300-4d99-ae1b-0bfb0eabe579.jpg\"]","trial_type":"similarity","trial_index":140,"time_elapsed":990246,"internal_node_id":"0.0-6.0-134.0"},{"sim_score":1,"rt":4535,"stimulus":"[\"img/0903/81368973-de81-46f4-844f-b901f3bfd66d.jpg\",\"img/0864/efcfbb1b-8197-44c9-b723-40d6c608dd3c.jpg\"]","trial_type":"similarity","trial_index":141,"time_elapsed":995785,"internal_node_id":"0.0-6.0-135.0"},{"sim_score":1,"rt":4048,"stimulus":"[\"img/0758/7ffbc76b-1fc1-432c-8f7e-9ec8d1b3f643.jpg\",\"img/0894/767a0eec-1064-46b1-b1aa-dfa02b0cd74e.jpg\"]","trial_type":"similarity","trial_index":142,"time_elapsed":1000840,"internal_node_id":"0.0-6.0-136.0"},{"sim_score":1,"rt":4101,"stimulus":"[\"img/0769/1ca58b80-2365-446d-9616-6c1719e6c46f.jpg\",\"img/0860/17b44a7d-c5ca-479f-9e87-f65a64f5c80e.jpg\"]","trial_type":"similarity","trial_index":143,"time_elapsed":1005946,"internal_node_id":"0.0-6.0-137.0"},{"sim_score":6,"rt":4265,"stimulus":"[\"img/0904/2c98dc56-88d1-4fb5-a999-b6a7861f65f0.jpg\",\"img/0766/d50d734f-285c-4840-bc7a-c8dd4aff391e.jpg\"]","trial_type":"similarity","trial_index":144,"time_elapsed":1011216,"internal_node_id":"0.0-6.0-138.0"},{"sim_score":5,"rt":4331,"stimulus":"[\"img/0868/c8ac40c7-6904-4e13-8d61-c75d3052dc4e.jpg\",\"img/0860/99c589b9-9140-4d17-90c0-b344323edcda.jpg\"]","trial_type":"similarity","trial_index":145,"time_elapsed":1016554,"internal_node_id":"0.0-6.0-139.0"},{"sim_score":6,"rt":4248,"stimulus":"[\"img/0758/7fba58df-2a7a-4b76-8a8f-62739f97f271.jpg\",\"img/0864/3d4de670-b290-4285-9c3d-12a0e3af44e9.jpg\"]","trial_type":"similarity","trial_index":146,"time_elapsed":1021811,"internal_node_id":"0.0-6.0-140.0"},{"sim_score":7,"rt":4547,"stimulus":"[\"img/0867/a749dddb-69f0-44a6-acdc-2bf295cf6dcc.jpg\",\"img/0867/f26f6b60-f772-4f4c-95a4-addc62cfd692.jpg\"]","trial_type":"similarity","trial_index":147,"time_elapsed":1027381,"internal_node_id":"0.0-6.0-141.0"},{"sim_score":7,"rt":4668,"stimulus":"[\"img/0898/79233891-305a-4a6a-8ddf-5c8604858203.jpg\",\"img/0898/e167334e-cc1d-4986-b3b1-c7bc7da64baa.jpg\"]","trial_type":"similarity","trial_index":148,"time_elapsed":1033055,"internal_node_id":"0.0-6.0-142.0"},{"sim_score":3,"rt":4101,"stimulus":"[\"img/0866/11a1d141-be5e-443c-98c1-a9d4d9e3dec0.jpg\",\"img/0769/1d8734c4-77ab-4165-9e71-5cfe672ff01c.jpg\"]","trial_type":"similarity","trial_index":149,"time_elapsed":1038160,"internal_node_id":"0.0-6.0-143.0"},{"sim_score":2,"rt":4185,"stimulus":"[\"img/0860/5bff793e-cbd5-4d7e-b628-0ac2b0e30b64.jpg\",\"img/0898/04e39a7a-fcf6-4156-ab0e-f5871f335e1c.jpg\"]","trial_type":"similarity","trial_index":150,"time_elapsed":1043345,"internal_node_id":"0.0-6.0-144.0"},{"sim_score":1,"rt":4983,"stimulus":"[\"img/0766/0bf3793e-c353-45e5-ac6f-753f5f484e10.jpg\",\"img/0864/1ebbc554-99fa-49f9-8799-317375a79820.jpg\"]","trial_type":"similarity","trial_index":151,"time_elapsed":1049336,"internal_node_id":"0.0-6.0-145.0"},{"sim_score":2,"rt":4867,"stimulus":"[\"img/0860/71e1aad0-2cdf-43bb-94a4-a8c016997c30.jpg\",\"img/0903/45e2d600-57ff-4d69-b22c-0c7896cd38f0.jpg\"]","trial_type":"similarity","trial_index":152,"time_elapsed":1055209,"internal_node_id":"0.0-6.0-146.0"},{"sim_score":1,"rt":4508,"stimulus":"[\"img/0867/f8488a47-94ee-4166-952c-44e16cf172f6.jpg\",\"img/0764/06ea144f-f4f3-4a14-ba47-f20f35c561e0.jpg\"]","trial_type":"similarity","trial_index":153,"time_elapsed":1060729,"internal_node_id":"0.0-6.0-147.0"},{"sim_score":6,"rt":4819,"stimulus":"[\"img/0769/50985283-d353-4abc-9abe-14a91d56ebe6.jpg\",\"img/0904/5aec2708-cf14-4a58-aa30-9a8a61c1be0e.jpg\"]","trial_type":"similarity","trial_index":154,"time_elapsed":1066555,"internal_node_id":"0.0-6.0-148.0"},{"sim_score":5,"rt":4168,"stimulus":"[\"img/0764/4bec8d92-75aa-475a-954d-8215dbe538f5.jpg\",\"img/0901/31c032fd-3c3d-4882-a226-da9a80198937.jpg\"]","trial_type":"similarity","trial_index":155,"time_elapsed":1071727,"internal_node_id":"0.0-6.0-149.0"},{"sim_score":5,"rt":4082,"stimulus":"[\"img/0904/a8c3c7d2-9bcf-4347-9e03-8203adfc1fc5.jpg\",\"img/0899/b45c550b-96c3-4255-ad59-48a2b4db1c1e.jpg\"]","trial_type":"similarity","trial_index":156,"time_elapsed":1076813,"internal_node_id":"0.0-6.0-150.0"},{"sim_score":5,"rt":4203,"stimulus":"[\"img/0862/f43ceabf-acc1-4107-b857-5d1849808f93.jpg\",\"img/0867/98d8cd96-1476-4fe0-a3a3-04f875500a1b.jpg\"]","trial_type":"similarity","trial_index":157,"time_elapsed":1082021,"internal_node_id":"0.0-6.0-151.0"},{"sim_score":7,"rt":4632,"stimulus":"[\"img/0766/1bc0dccc-a5b5-4375-87fa-28360ca42b12.jpg\",\"img/0766/f5f78e4e-d88f-4866-951a-118ba9fec4d0.jpg\"]","trial_type":"similarity","trial_index":158,"time_elapsed":1087656,"internal_node_id":"0.0-6.0-152.0"},{"sim_score":2,"rt":4134,"stimulus":"[\"img/0862/e0f1a4e9-e1b6-45f7-af67-89f334e6630d.jpg\",\"img/0894/6aa5545f-fa7d-4286-bbaa-aaf34dc7ec96.jpg\"]","trial_type":"similarity","trial_index":159,"time_elapsed":1092811,"internal_node_id":"0.0-6.0-153.0"},{"sim_score":5,"rt":4169,"stimulus":"[\"img/0899/8de08897-b430-42fe-9d42-840670b80f94.jpg\",\"img/0901/bc47e078-bda4-40ed-b89a-bbd819164b95.jpg\"]","trial_type":"similarity","trial_index":160,"time_elapsed":1097985,"internal_node_id":"0.0-6.0-154.0"},{"sim_score":6,"rt":4682,"stimulus":"[\"img/0874/a82926a3-0b43-4add-803c-d5f9ea7798ee.jpg\",\"img/0874/8cdb1c07-1c32-46d2-981c-3636560fa6e5.jpg\"]","trial_type":"similarity","trial_index":161,"time_elapsed":1103672,"internal_node_id":"0.0-6.0-155.0"},{"sim_score":6,"rt":4061,"stimulus":"[\"img/0860/c47fdead-eb02-4989-b078-26f4852f44fe.jpg\",\"img/0867/ac1797e4-8afc-48fe-b252-86d1defb1cca.jpg\"]","trial_type":"similarity","trial_index":162,"time_elapsed":1108744,"internal_node_id":"0.0-6.0-156.0"},{"sim_score":1,"rt":5151,"stimulus":"[\"img/0901/a2d7b2f6-396b-4d91-8403-de5361c74af7.jpg\",\"img/0881/6b1189e6-232d-4042-8885-16dc7b10e0d4.jpg\"]","trial_type":"similarity","trial_index":163,"time_elapsed":1114901,"internal_node_id":"0.0-6.0-157.0"},{"sim_score":6,"rt":4466,"stimulus":"[\"img/0903/f10e9eb5-0c21-4a6a-944c-5f10a6d0fa4d.jpg\",\"img/0902/5b45a7a0-81c8-4a71-aaa2-2ce09adb5a29.jpg\"]","trial_type":"similarity","trial_index":164,"time_elapsed":1120372,"internal_node_id":"0.0-6.0-158.0"},{"sim_score":2,"rt":4467,"stimulus":"[\"img/0860/5383b320-1518-4095-a58e-5cc1ae30b64c.jpg\",\"img/0764/ef0e64c6-d0dd-4dc6-87b6-ce5c0665f421.jpg\"]","trial_type":"similarity","trial_index":165,"time_elapsed":1125844,"internal_node_id":"0.0-6.0-159.0"},{"sim_score":1,"rt":5167,"stimulus":"[\"img/0902/d49743d6-67ae-4c2e-a939-8fd895a0f18e.jpg\",\"img/0875/a4935837-7d3c-4df6-88c1-36a94d4991ca.jpg\"]","trial_type":"similarity","trial_index":166,"time_elapsed":1132016,"internal_node_id":"0.0-6.0-160.0"},{"sim_score":1,"rt":4402,"stimulus":"[\"img/0898/a114b375-cb89-44ba-9498-74213f1ecdee.jpg\",\"img/0862/24cdc752-c2e5-4a17-86a6-6f2045d8553b.jpg\"]","trial_type":"similarity","trial_index":167,"time_elapsed":1137422,"internal_node_id":"0.0-6.0-161.0"},{"sim_score":1,"rt":4281,"stimulus":"[\"img/0894/1a010553-d598-4b06-a772-81f1e7b3addb.jpg\",\"img/0875/03c3c331-738b-4446-af92-3d7386b08c2e.jpg\"]","trial_type":"similarity","trial_index":168,"time_elapsed":1142708,"internal_node_id":"0.0-6.0-162.0"},{"sim_score":6,"rt":4217,"stimulus":"[\"img/0866/6f2a90d7-14f1-4f1b-bd64-fc0af6b9fe44.jpg\",\"img/0864/6e846d43-94a6-4b37-a268-65eda979f052.jpg\"]","trial_type":"similarity","trial_index":169,"time_elapsed":1147932,"internal_node_id":"0.0-6.0-163.0"},{"sim_score":1,"rt":4478,"stimulus":"[\"img/0766/c23b5a20-e50f-4d85-841f-cf89212a4348.jpg\",\"img/0862/cdaed51d-9e2f-4807-801a-4663c40077e2.jpg\"]","trial_type":"similarity","trial_index":170,"time_elapsed":1153421,"internal_node_id":"0.0-6.0-164.0"},{"sim_score":6,"rt":4389,"stimulus":"[\"img/0866/bf14b5bd-fb55-47db-86b9-4f8aeb9a6dad.jpg\",\"img/0874/99f6563c-8a8d-4c1c-a41d-667b618c3fd5.jpg\"]","trial_type":"similarity","trial_index":171,"time_elapsed":1158819,"internal_node_id":"0.0-6.0-165.0"},{"sim_score":4,"rt":4873,"stimulus":"[\"img/0862/e8cc3bdf-cc43-4565-bccf-492626c70953.jpg\",\"img/0860/87039971-2210-4aab-93c0-8e9b5f1655b2.jpg\"]","trial_type":"similarity","trial_index":172,"time_elapsed":1164715,"internal_node_id":"0.0-6.0-166.0"},{"sim_score":6,"rt":4134,"stimulus":"[\"img/0766/27f54113-8561-4568-9ffe-0a1650ae65ec.jpg\",\"img/0901/b13fa50f-dbe0-4d0f-8647-6ac0fd8f40bd.jpg\"]","trial_type":"similarity","trial_index":173,"time_elapsed":1174709,"internal_node_id":"0.0-6.0-167.0"},{"sim_score":7,"rt":4618,"stimulus":"[\"img/0862/99a99e39-8355-44ec-b993-e7bcec111e1c.jpg\",\"img/0862/a0a3a7ba-7798-46a3-b4ca-05e1f6e581d0.jpg\"]","trial_type":"similarity","trial_index":174,"time_elapsed":1180332,"internal_node_id":"0.0-6.0-168.0"},{"sim_score":6,"rt":4264,"stimulus":"[\"img/0894/10f22b96-040c-44f4-950b-a4963f3f506c.jpg\",\"img/0764/e0788029-9d7f-414c-b747-46d2a99f7c86.jpg\"]","trial_type":"similarity","trial_index":175,"time_elapsed":1185618,"internal_node_id":"0.0-6.0-169.0"},{"sim_score":1,"rt":4381,"stimulus":"[\"img/0874/2c9464dd-8a23-4baa-ac94-1ba3af5c15cc.jpg\",\"img/0898/a8f16b02-e19f-423b-86c3-a36562ae1f9b.jpg\"]","trial_type":"similarity","trial_index":176,"time_elapsed":1191006,"internal_node_id":"0.0-6.0-170.0"},{"sim_score":1,"rt":4367,"stimulus":"[\"img/0860/8a92e21b-6a32-4e4a-a445-2d5a487ed0a4.jpg\",\"img/0766/d3bab2fc-ddcc-40a0-bb72-c0d0ebe19978.jpg\"]","trial_type":"similarity","trial_index":177,"time_elapsed":1196380,"internal_node_id":"0.0-6.0-171.0"},{"sim_score":1,"rt":4216,"stimulus":"[\"img/0898/cd3aaa3f-efa9-4ab3-8d6f-a6a9273ddf42.jpg\",\"img/0864/a248adb3-c70b-4652-b7a3-776d2a1e904b.jpg\"]","trial_type":"similarity","trial_index":178,"time_elapsed":1201601,"internal_node_id":"0.0-6.0-172.0"},{"sim_score":1,"rt":4601,"stimulus":"[\"img/0881/62a64f90-7a72-4aee-a1a1-0c548ac9bdda.jpg\",\"img/0764/1f95ab5f-fb65-4d70-b5db-d6bd6351a8aa.jpg\"]","trial_type":"similarity","trial_index":179,"time_elapsed":1207207,"internal_node_id":"0.0-6.0-173.0"},{"sim_score":2,"rt":6101,"stimulus":"[\"img/0898/0af304a2-6a7a-4082-ab7c-4450cd08cc58.jpg\",\"img/0868/d98ca254-b195-477f-b57e-5760a2717db8.jpg\"]","trial_type":"similarity","trial_index":180,"time_elapsed":1214315,"internal_node_id":"0.0-6.0-174.0"},{"sim_score":6,"rt":3848,"stimulus":"[\"img/0864/87c467d3-abca-482f-ad80-3766c21b1bb3.jpg\",\"img/0864/3651d070-2fc5-4848-b6a6-088a2d9ac5c9.jpg\"]","trial_type":"similarity","trial_index":181,"time_elapsed":1219167,"internal_node_id":"0.0-6.0-175.0"},{"sim_score":1,"rt":5302,"stimulus":"[\"img/0899/d8f2dd94-570e-4e8c-a087-d96090fb9e8c.jpg\",\"img/0862/847e5208-38ec-4f36-949c-296cdd7424ee.jpg\"]","trial_type":"similarity","trial_index":182,"time_elapsed":1225476,"internal_node_id":"0.0-6.0-176.0"},{"sim_score":6,"rt":5266,"stimulus":"[\"img/0875/2e13d160-eea1-416b-aff1-d37ab99ecc1d.jpg\",\"img/0758/f61ecdf8-a7d4-4db0-b84d-be46f7cfaffc.jpg\"]","trial_type":"similarity","trial_index":183,"time_elapsed":1231749,"internal_node_id":"0.0-6.0-177.0"},{"sim_score":4,"rt":4196,"stimulus":"[\"img/0866/d493a2c8-66eb-44b4-be02-2f327b700b7c.jpg\",\"img/0901/b453df0b-4c39-49bb-8ced-6127efffa898.jpg\"]","trial_type":"similarity","trial_index":184,"time_elapsed":1236951,"internal_node_id":"0.0-6.0-178.0"},{"sim_score":1,"rt":5301,"stimulus":"[\"img/0769/3c1203c5-2ce7-466e-957a-8d77b5905460.jpg\",\"img/0874/85eb9b8a-c4c6-4e5a-b8e7-363a87a82054.jpg\"]","trial_type":"similarity","trial_index":185,"time_elapsed":1243274,"internal_node_id":"0.0-6.0-179.0"},{"sim_score":6,"rt":3946,"stimulus":"[\"img/0875/dbdd643e-6d0e-4a5c-ab57-b9c29b9c981a.jpg\",\"img/0881/ee44e27f-d662-4608-b265-e7ffa19b216f.jpg\"]","trial_type":"similarity","trial_index":186,"time_elapsed":1248228,"internal_node_id":"0.0-6.0-180.0"},{"sim_score":6,"rt":4331,"stimulus":"[\"img/0866/a15b02be-11bb-43e3-b0e0-ecc3bd7dfc49.jpg\",\"img/0868/293079b8-7e0c-4afd-a390-1e5d35fe3ded.jpg\"]","trial_type":"similarity","trial_index":187,"time_elapsed":1253567,"internal_node_id":"0.0-6.0-181.0"},{"sim_score":1,"rt":6001,"stimulus":"[\"img/0899/7b7380d5-d2be-44e5-a09a-c1756f87ef71.jpg\",\"img/0758/a709631e-3705-4725-ac40-f0d916924f08.jpg\"]","trial_type":"similarity","trial_index":188,"time_elapsed":1260576,"internal_node_id":"0.0-6.0-182.0"},{"sim_score":6,"rt":3797,"stimulus":"[\"img/0874/eba003b4-cdab-4eee-8bc3-f064c7d94165.jpg\",\"img/0875/d59ff733-eaff-4ee2-9443-06954dd0bcb6.jpg\"]","trial_type":"similarity","trial_index":189,"time_elapsed":1265380,"internal_node_id":"0.0-6.0-183.0"},{"sim_score":2,"rt":4266,"stimulus":"[\"img/0904/ba8e689e-9ca6-4608-a2a1-3b0940666ae6.jpg\",\"img/0862/1c20f772-3a51-4a80-aac0-f57dc9f86c28.jpg\"]","trial_type":"similarity","trial_index":190,"time_elapsed":1270652,"internal_node_id":"0.0-6.0-184.0"},{"sim_score":6,"rt":4198,"stimulus":"[\"img/0902/07437a16-3d0f-4a5c-89ec-36d0efa4b3b8.jpg\",\"img/0766/1865bfc9-2410-4765-a804-3ae4ba2393d0.jpg\"]","trial_type":"similarity","trial_index":191,"time_elapsed":1275857,"internal_node_id":"0.0-6.0-185.0"},{"sim_score":2,"rt":4700,"stimulus":"[\"img/0758/dd559618-7f09-4a07-8018-d311c4a5ea29.jpg\",\"img/0769/14d393ce-e5be-4ca1-86ce-cc27d4b6074c.jpg\"]","trial_type":"similarity","trial_index":192,"time_elapsed":1281563,"internal_node_id":"0.0-6.0-186.0"},{"sim_score":7,"rt":5036,"stimulus":"[\"img/0881/566f45f8-5fed-4479-a60f-26377e60a62d.jpg\",\"img/0881/f4e3e181-b3c9-4af2-a5a4-fc135ab70d2e.jpg\"]","trial_type":"similarity","trial_index":193,"time_elapsed":1287604,"internal_node_id":"0.0-6.0-187.0"},{"sim_score":4,"rt":4798,"stimulus":"[\"img/0758/2fa3e613-e676-4e6e-bd12-705327eeb3e1.jpg\",\"img/0866/23a224f3-2012-4fc8-8e0f-3c36f8de27fd.jpg\"]","trial_type":"similarity","trial_index":194,"time_elapsed":1293407,"internal_node_id":"0.0-6.0-188.0"},{"sim_score":5,"rt":4066,"stimulus":"[\"img/0764/6ef77040-1fae-4afa-bfe7-eda98e6d0376.jpg\",\"img/0898/01bfe666-3510-4fc7-964f-d00d28732dc8.jpg\"]","trial_type":"similarity","trial_index":195,"time_elapsed":1298479,"internal_node_id":"0.0-6.0-189.0"},{"sim_score":6,"rt":4351,"stimulus":"[\"img/0903/97a42b34-5462-4665-88c7-83c014b33d24.jpg\",\"img/0901/b9141736-3041-4385-a586-b1fe911c76a5.jpg\"]","trial_type":"similarity","trial_index":196,"time_elapsed":1303835,"internal_node_id":"0.0-6.0-190.0"},{"sim_score":7,"rt":5081,"stimulus":"[\"img/0902/27b84584-948a-485b-8749-cb09929ef631.jpg\",\"img/0898/6cd3830b-d44e-4915-be2b-88d31424b91c.jpg\"]","trial_type":"similarity","trial_index":197,"time_elapsed":1309924,"internal_node_id":"0.0-6.0-191.0"},{"sim_score":1,"rt":4817,"stimulus":"[\"img/0864/6f631579-acf1-415c-a42c-1207f62a8d99.jpg\",\"img/0901/4ca4f962-40c0-4c59-b14a-3cd7b8c9029b.jpg\"]","trial_type":"similarity","trial_index":198,"time_elapsed":1315746,"internal_node_id":"0.0-6.0-192.0"},{"sim_score":6,"rt":4033,"stimulus":"[\"img/0894/43216a7f-27bc-4b5a-8841-d122a30da9d9.jpg\",\"img/0881/c843e210-bdfe-4a7c-8bbe-fcea1f90fe1c.jpg\"]","trial_type":"similarity","trial_index":199,"time_elapsed":1320785,"internal_node_id":"0.0-6.0-193.0"},{"sim_score":7,"rt":4551,"stimulus":"[\"img/0868/15dd6fd7-791e-4b53-b203-195d617521a4.jpg\",\"img/0868/1a62b2b2-18f5-466e-b564-5176a57c565e.jpg\"]","trial_type":"similarity","trial_index":200,"time_elapsed":1326341,"internal_node_id":"0.0-6.0-194.0"},{"sim_score":4,"rt":6566,"stimulus":"[\"img/0899/25ae6ec8-9565-49fe-a8bb-8d0666f52716.jpg\",\"img/0764/ca9829fe-aaf8-45b8-b98a-6bae751c63dd.jpg\"]","trial_type":"similarity","trial_index":201,"time_elapsed":1333914,"internal_node_id":"0.0-6.0-195.0"},{"sim_score":3,"rt":4300,"stimulus":"[\"img/0881/db77fe00-aeb0-4d1d-aa66-f3a96fd077e4.jpg\",\"img/0904/9b3568cc-3cf7-42be-9df3-fdafde7a58b8.jpg\"]","trial_type":"similarity","trial_index":202,"time_elapsed":1339219,"internal_node_id":"0.0-6.0-196.0"},{"sim_score":2,"rt":4233,"stimulus":"[\"img/0864/5f74a653-3bdc-4308-8cca-ac667dc22e1f.jpg\",\"img/0902/10d99c89-71f7-4c81-a31e-dfc7c59f5232.jpg\"]","trial_type":"similarity","trial_index":203,"time_elapsed":1344458,"internal_node_id":"0.0-6.0-197.0"},{"sim_score":6,"rt":4266,"stimulus":"[\"img/0894/2d2db7b3-e8a3-499b-b63a-14f51bf73882.jpg\",\"img/0904/56e73f28-7e64-489b-a161-e6b1a063878d.jpg\"]","trial_type":"similarity","trial_index":204,"time_elapsed":1349729,"internal_node_id":"0.0-6.0-198.0"},{"sim_score":7,"rt":4284,"stimulus":"[\"img/0901/62315ff5-ed95-46b4-b099-92552079659b.jpg\",\"img/0901/7d4a3388-488d-4e9b-9d32-9d0def7aae8d.jpg\"]","trial_type":"similarity","trial_index":205,"time_elapsed":1355018,"internal_node_id":"0.0-6.0-199.0"},{"sim_score":1,"rt":5515,"stimulus":"[\"img/0894/a98416c0-51e2-4960-85da-d81d8688b9d5.jpg\",\"img/0860/c7047cd2-7cc1-41b6-8a34-c0986774975f.jpg\"]","trial_type":"similarity","trial_index":206,"time_elapsed":1361539,"internal_node_id":"0.0-6.0-200.0"},{"sim_score":6,"rt":4034,"stimulus":"[\"img/0898/0c7dde4f-efce-4b7a-9387-6921635b7890.jpg\",\"img/0903/6138142e-c84e-45fc-9487-c974f3d4968a.jpg\"]","trial_type":"similarity","trial_index":207,"time_elapsed":1366579,"internal_node_id":"0.0-6.0-201.0"},{"sim_score":1,"rt":4762,"stimulus":"[\"img/0864/66091c27-e588-4476-8af9-265dc6be4156.jpg\",\"img/0894/38f5931f-926d-414e-b498-66b188978b7a.jpg\"]","trial_type":"similarity","trial_index":208,"time_elapsed":1372352,"internal_node_id":"0.0-6.0-202.0"},{"sim_score":6,"rt":4846,"stimulus":"[\"img/0874/1016b306-087c-4afc-aa08-fa527b28dc76.jpg\",\"img/0860/524b2e98-5767-4d53-942c-ebae6925659b.jpg\"]","trial_type":"similarity","trial_index":209,"time_elapsed":1378207,"internal_node_id":"0.0-6.0-203.0"},{"sim_score":6,"rt":3645,"stimulus":"[\"img/0862/4f0a3b4c-afbf-486e-b248-1d54982f54b4.jpg\",\"img/0875/5a7c4e35-6514-4e12-8879-d16071da4cd6.jpg\"]","trial_type":"similarity","trial_index":210,"time_elapsed":1382863,"internal_node_id":"0.0-6.0-204.0"},{"sim_score":6,"rt":3479,"stimulus":"[\"img/0867/50a1b60e-3a29-44bf-b606-d4bd3746fea9.jpg\",\"img/0881/f8bd891e-aa09-4782-89db-33e7cb2b0cf1.jpg\"]","trial_type":"similarity","trial_index":211,"time_elapsed":1387349,"internal_node_id":"0.0-6.0-205.0"},{"sim_score":6,"rt":3698,"stimulus":"[\"img/0901/12da1841-e611-435c-9719-109413d536a8.jpg\",\"img/0902/9f543501-3cf1-45a7-a2f1-eeca87cc15b9.jpg\"]","trial_type":"similarity","trial_index":212,"time_elapsed":1392053,"internal_node_id":"0.0-6.0-206.0"},{"sim_score":2,"rt":5384,"stimulus":"[\"img/0899/66bf4113-ee12-426c-84d2-ea410b6c803e.jpg\",\"img/0864/49150900-7f25-4ce8-8d10-9b47a71d1997.jpg\"]","trial_type":"similarity","trial_index":213,"time_elapsed":1398444,"internal_node_id":"0.0-6.0-207.0"},{"sim_score":6,"rt":3973,"stimulus":"[\"img/0901/1e23ffbd-19de-4c4f-aa23-c54aaa3319a3.jpg\",\"img/0769/387a9744-d6a7-42b8-bab8-33007ec434aa.jpg\"]","trial_type":"similarity","trial_index":214,"time_elapsed":1403431,"internal_node_id":"0.0-6.0-208.0"},{"sim_score":6,"rt":4752,"stimulus":"[\"img/0902/8af4182a-9af9-4212-a436-9195555112d6.jpg\",\"img/0902/01b41522-de46-4c3a-b0af-a61b2682b40e.jpg\"]","trial_type":"similarity","trial_index":215,"time_elapsed":1415563,"internal_node_id":"0.0-6.0-209.0"},{"view_history":"[{\"page_index\":0,\"viewing_time\":10540}]","rt":10556,"trial_type":"instructions","trial_index":216,"time_elapsed":1427122,"internal_node_id":"0.0-7.0"},{"rt":48061,"responses":"{\"Q0\":\"Orange-crowned Warbler\"}","answer":["Nashville Warbler"],"trial_type":"image-multi-choice","trial_index":217,"time_elapsed":1476204,"internal_node_id":"0.0-8.0-0.0"},{"rt":9694,"responses":"{\"Q0\":\"Black-and-white Warbler\"}","answer":["Black-and-white Warbler"],"trial_type":"image-multi-choice","trial_index":218,"time_elapsed":1486914,"internal_node_id":"0.0-8.0-1.0"},{"rt":10707,"responses":"{\"Q0\":\"Blackburnian Warbler\"}","answer":["Townsend's Warbler"],"trial_type":"image-multi-choice","trial_index":219,"time_elapsed":1498627,"internal_node_id":"0.0-8.0-2.0"},{"rt":22439,"responses":"{\"Q0\":\"Lark Sparrow\"}","answer":["Lark Sparrow"],"trial_type":"image-multi-choice","trial_index":220,"time_elapsed":1522080,"internal_node_id":"0.0-8.0-3.0"},{"rt":7552,"responses":"{\"Q0\":\"Yellow Warbler\"}","answer":["Yellow Warbler"],"trial_type":"image-multi-choice","trial_index":221,"time_elapsed":1530640,"internal_node_id":"0.0-8.0-4.0"},{"rt":12141,"responses":"{\"Q0\":\"Orange-crowned Warbler\"}","answer":["Orange-crowned Warbler"],"trial_type":"image-multi-choice","trial_index":222,"time_elapsed":1543787,"internal_node_id":"0.0-8.0-5.0"},{"rt":7403,"responses":"{\"Q0\":\"White-throated Sparrow\"}","answer":["White-throated Sparrow"],"trial_type":"image-multi-choice","trial_index":223,"time_elapsed":1552211,"internal_node_id":"0.0-8.0-6.0"},{"rt":27655,"responses":"{\"Q0\":\"Fox Sparrow\"}","answer":["Fox Sparrow"],"trial_type":"image-multi-choice","trial_index":224,"time_elapsed":1580871,"internal_node_id":"0.0-8.0-7.0"},{"rt":52316,"responses":"{\"Q0\":\"Lincoln's Sparrow\"}","answer":["Song Sparrow"],"trial_type":"image-multi-choice","trial_index":225,"time_elapsed":1634193,"internal_node_id":"0.0-8.0-8.0"},{"rt":24654,"responses":"{\"Q0\":\"Magnolia Warbler\"}","answer":["Blackburnian Warbler"],"trial_type":"image-multi-choice","trial_index":226,"time_elapsed":1659867,"internal_node_id":"0.0-8.0-9.0"},{"rt":26124,"responses":"{\"Q0\":\"Vesper Sparrow\"}","answer":["Vesper Sparrow"],"trial_type":"image-multi-choice","trial_index":227,"time_elapsed":1686994,"internal_node_id":"0.0-8.0-10.0"},{"rt":6818,"responses":"{\"Q0\":\"White-crowned Sparrow\"}","answer":["White-crowned Sparrow"],"trial_type":"image-multi-choice","trial_index":228,"time_elapsed":1694817,"internal_node_id":"0.0-8.0-11.0"},{"rt":27751,"responses":"{\"Q0\":\"Chipping Sparrow\"}","answer":["American Tree Sparrow"],"trial_type":"image-multi-choice","trial_index":229,"time_elapsed":1723577,"internal_node_id":"0.0-8.0-12.0"},{"rt":22183,"responses":"{\"Q0\":\"Nashville Warbler\"}","answer":["Tennessee Warbler"],"trial_type":"image-multi-choice","trial_index":230,"time_elapsed":1746767,"internal_node_id":"0.0-8.0-13.0"},{"rt":10888,"responses":"{\"Q0\":\"Magnolia Warbler\"}","answer":["Magnolia Warbler"],"trial_type":"image-multi-choice","trial_index":231,"time_elapsed":1758661,"internal_node_id":"0.0-8.0-14.0"},{"rt":7284,"responses":"{\"Q0\":\"Northern Waterthrush\"}","answer":["Northern Waterthrush"],"trial_type":"image-multi-choice","trial_index":232,"time_elapsed":1766956,"internal_node_id":"0.0-8.0-15.0"},{"rt":33928,"responses":"{\"Q0\":\"Lincoln's Sparrow\"}","answer":["Chipping Sparrow"],"trial_type":"image-multi-choice","trial_index":233,"time_elapsed":1801888,"internal_node_id":"0.0-8.0-16.0"},{"rt":20766,"responses":"{\"Q0\":\"Swamp Sparrow\"}","answer":["Swamp Sparrow"],"trial_type":"image-multi-choice","trial_index":234,"time_elapsed":1823662,"internal_node_id":"0.0-8.0-17.0"},{"rt":8972,"responses":"{\"Q0\":\"Ovenbird\"}","answer":["Lincoln's Sparrow"],"trial_type":"image-multi-choice","trial_index":235,"time_elapsed":1833671,"internal_node_id":"0.0-8.0-18.0"},{"rt":3584,"responses":"{\"Q0\":\"Ovenbird\"}","answer":["Ovenbird"],"trial_type":"image-multi-choice","trial_index":236,"time_elapsed":1838259,"internal_node_id":"0.0-8.0-19.0"}]