[{"view_history":"[{\"page_index\":0,\"viewing_time\":11655}]","rt":11656,"trial_type":"instructions","trial_index":0,"time_elapsed":11657,"internal_node_id":"0.0-0.0"},{"sim_score":1,"rt":5172,"stimulus":"[\"img/866.jpg\",\"img/868.jpg\"]","trial_type":"similarity_demo","trial_index":1,"time_elapsed":17847,"internal_node_id":"0.0-1.0"},{"view_history":"[{\"page_index\":0,\"viewing_time\":15147}]","rt":15147,"trial_type":"instructions","trial_index":2,"time_elapsed":34001,"internal_node_id":"0.0-2.0"},{"sim_score":1,"rt":4772,"stimulus":"[\"img/766.jpg\",\"img/867.jpg\"]","trial_type":"similarity_demo","trial_index":3,"time_elapsed":39778,"internal_node_id":"0.0-3.0"},{"view_history":"[{\"page_index\":0,\"viewing_time\":6583}]","rt":6584,"trial_type":"instructions","trial_index":4,"time_elapsed":47363,"internal_node_id":"0.0-4.0"},{"view_history":"[{\"page_index\":0,\"viewing_time\":21563}]","rt":21564,"trial_type":"instructions","trial_index":5,"time_elapsed":69929,"internal_node_id":"0.0-5.0"},{"sim_score":1,"rt":6318,"stimulus":"[\"img/0868/6a28c3b0-3d76-498a-9fb7-ddafc665eca8.jpg\",\"img/0901/443f2e59-199b-4f7b-9de9-c44ad97326a5.jpg\"]","trial_type":"similarity","trial_index":6,"time_elapsed":77257,"internal_node_id":"0.0-6.0-0.0"},{"sim_score":2,"rt":5852,"stimulus":"[\"img/0769/c7cfacc3-7f07-46ff-9f5d-8073f4c4679b.jpg\",\"img/0867/de92135f-5b65-4ed9-b245-188292c7c2f8.jpg\"]","trial_type":"similarity","trial_index":7,"time_elapsed":84118,"internal_node_id":"0.0-6.0-1.0"},{"sim_score":2,"rt":5394,"stimulus":"[\"img/0766/2746b119-4bba-463e-acf0-88136dc6600c.jpg\",\"img/0898/82231d4c-218b-4d0a-b50d-35a49b524e97.jpg\"]","trial_type":"similarity","trial_index":8,"time_elapsed":90529,"internal_node_id":"0.0-6.0-2.0"},{"sim_score":1,"rt":4536,"stimulus":"[\"img/0902/95a36b6b-9601-4fa5-8fd9-606ea62f9425.jpg\",\"img/0881/6b1189e6-232d-4042-8885-16dc7b10e0d4.jpg\"]","trial_type":"similarity","trial_index":9,"time_elapsed":96085,"internal_node_id":"0.0-6.0-3.0"},{"sim_score":6,"rt":6499,"stimulus":"[\"img/0894/7fb082e0-ce79-485c-9109-04367fb32275.jpg\",\"img/0894/2217bdcd-23a7-42d3-823b-23f2488d7e87.jpg\"]","trial_type":"similarity","trial_index":10,"time_elapsed":103587,"internal_node_id":"0.0-6.0-4.0"},{"sim_score":5,"rt":4829,"stimulus":"[\"img/0874/31e22c7c-99aa-40b1-bf03-dd73fa2df4d6.jpg\",\"img/0899/f95cbdb4-f804-4f5d-ad76-373ad343e658.jpg\"]","trial_type":"similarity","trial_index":11,"time_elapsed":109425,"internal_node_id":"0.0-6.0-5.0"},{"sim_score":7,"rt":5109,"stimulus":"[\"img/0904/b7c2a2c8-df33-4473-b3d4-ff7147c60db3.jpg\",\"img/0764/f64dfa83-333d-494c-87b5-73e942f1766e.jpg\"]","trial_type":"similarity","trial_index":12,"time_elapsed":115554,"internal_node_id":"0.0-6.0-6.0"},{"sim_score":2,"rt":5835,"stimulus":"[\"img/0899/fef567a2-c121-4481-9af0-ff108d199bbf.jpg\",\"img/0898/01bfe666-3510-4fc7-964f-d00d28732dc8.jpg\"]","trial_type":"similarity","trial_index":13,"time_elapsed":122396,"internal_node_id":"0.0-6.0-7.0"},{"sim_score":1,"rt":4439,"stimulus":"[\"img/0874/3ce41e7c-40c8-4d58-a546-171114521796.jpg\",\"img/0903/39365c8e-a733-4801-ac7d-b87e38c3784b.jpg\"]","trial_type":"similarity","trial_index":14,"time_elapsed":127849,"internal_node_id":"0.0-6.0-8.0"},{"sim_score":5,"rt":5728,"stimulus":"[\"img/0881/7e31e5dc-2240-4b1b-b5a0-3acd980099ef.jpg\",\"img/0758/9fb5b2fe-3f00-4fe6-973c-1ce10d5f4cd5.jpg\"]","trial_type":"similarity","trial_index":15,"time_elapsed":134597,"internal_node_id":"0.0-6.0-9.0"},{"sim_score":3,"rt":6817,"stimulus":"[\"img/0898/224c1572-56b9-4f16-a9e4-6f3bc9c114bd.jpg\",\"img/0901/233a6948-48eb-4b67-8259-222b916b2322.jpg\"]","trial_type":"similarity","trial_index":16,"time_elapsed":142419,"internal_node_id":"0.0-6.0-10.0"},{"sim_score":3,"rt":4888,"stimulus":"[\"img/0903/5ea5bbe0-f238-4724-abe7-9ed8dee8c0ba.jpg\",\"img/0769/38a88f69-28fd-4bbd-99f0-f4c02bfd3995.jpg\"]","trial_type":"similarity","trial_index":17,"time_elapsed":148317,"internal_node_id":"0.0-6.0-11.0"},{"sim_score":1,"rt":4032,"stimulus":"[\"img/0764/06ea144f-f4f3-4a14-ba47-f20f35c561e0.jpg\",\"img/0868/7b212364-ff5f-4e28-9241-7eb6ea00161b.jpg\"]","trial_type":"similarity","trial_index":18,"time_elapsed":153360,"internal_node_id":"0.0-6.0-12.0"},{"sim_score":1,"rt":4819,"stimulus":"[\"img/0867/98d8cd96-1476-4fe0-a3a3-04f875500a1b.jpg\",\"img/0903/647ce311-8c71-479a-8361-961db1457139.jpg\"]","trial_type":"similarity","trial_index":19,"time_elapsed":159199,"internal_node_id":"0.0-6.0-13.0"},{"sim_score":2,"rt":6514,"stimulus":"[\"img/0766/2e1cf445-9aef-40e7-92f4-5facf48b64c5.jpg\",\"img/0758/2fa3e613-e676-4e6e-bd12-705327eeb3e1.jpg\"]","trial_type":"similarity","trial_index":20,"time_elapsed":166723,"internal_node_id":"0.0-6.0-14.0"},{"sim_score":6,"rt":3916,"stimulus":"[\"img/0902/0eb85fbc-27c8-41df-9d0b-a5f9efd417d1.jpg\",\"img/0860/e8b8c51e-1834-4875-8b61-6c5bc9b178bd.jpg\"]","trial_type":"similarity","trial_index":21,"time_elapsed":171646,"internal_node_id":"0.0-6.0-15.0"},{"sim_score":2,"rt":4948,"stimulus":"[\"img/0769/35364db7-e0d5-40ef-93dc-faf9dfb95136.jpg\",\"img/0875/03c3c331-738b-4446-af92-3d7386b08c2e.jpg\"]","trial_type":"similarity","trial_index":22,"time_elapsed":177604,"internal_node_id":"0.0-6.0-16.0"},{"sim_score":4,"rt":4819,"stimulus":"[\"img/0904/9dd5708f-3f8b-46a9-b49f-2f2fab87b357.jpg\",\"img/0866/4a87911a-d5be-4d4e-ab8e-3d1f581bf507.jpg\"]","trial_type":"similarity","trial_index":23,"time_elapsed":183443,"internal_node_id":"0.0-6.0-17.0"},{"sim_score":6,"rt":4551,"stimulus":"[\"img/0875/527ced51-8e53-4aab-ab05-86df219104c0.jpg\",\"img/0875/5a1e5100-0d94-4fec-bbe9-ca9894d2cf8e.jpg\"]","trial_type":"similarity","trial_index":24,"time_elapsed":189006,"internal_node_id":"0.0-6.0-18.0"},{"sim_score":6,"rt":6334,"stimulus":"[\"img/0758/61d64021-9214-4951-bdf8-f871f9827cf9.jpg\",\"img/0758/a709631e-3705-4725-ac40-f0d916924f08.jpg\"]","trial_type":"similarity","trial_index":25,"time_elapsed":196351,"internal_node_id":"0.0-6.0-19.0"},{"sim_score":2,"rt":5549,"stimulus":"[\"img/0902/eb3e7e71-8ff1-4b88-a6a7-47e2c1ce1683.jpg\",\"img/0874/7e4f2150-3b59-4a36-b5da-a4e0ba410531.jpg\"]","trial_type":"similarity","trial_index":26,"time_elapsed":202927,"internal_node_id":"0.0-6.0-20.0"},{"sim_score":3,"rt":4912,"stimulus":"[\"img/0764/b328441c-f81c-486c-9eae-b947c70ba7cd.jpg\",\"img/0769/11518cb3-13ea-4dd0-890c-30cfab728ade.jpg\"]","trial_type":"similarity","trial_index":27,"time_elapsed":208845,"internal_node_id":"0.0-6.0-21.0"},{"sim_score":1,"rt":5322,"stimulus":"[\"img/0901/2a953e50-d237-405c-a38d-5ed21494c968.jpg\",\"img/0874/1016b306-087c-4afc-aa08-fa527b28dc76.jpg\"]","trial_type":"similarity","trial_index":28,"time_elapsed":215181,"internal_node_id":"0.0-6.0-22.0"},{"sim_score":2,"rt":5731,"stimulus":"[\"img/0875/34132396-d896-4c2d-8087-646dd867e769.jpg\",\"img/0903/31b5a5f4-b695-4af1-bad2-a19650a05498.jpg\"]","trial_type":"similarity","trial_index":29,"time_elapsed":221920,"internal_node_id":"0.0-6.0-23.0"},{"sim_score":4,"rt":5111,"stimulus":"[\"img/0769/50985283-d353-4abc-9abe-14a91d56ebe6.jpg\",\"img/0881/d373cb9f-a719-4549-a2a4-82def79fb2a5.jpg\"]","trial_type":"similarity","trial_index":30,"time_elapsed":228045,"internal_node_id":"0.0-6.0-24.0"},{"sim_score":1,"rt":4679,"stimulus":"[\"img/0867/5e07b34d-b40f-4b1c-ac10-49975bace45f.jpg\",\"img/0904/da170c1b-9651-4f08-b231-2bdd1d9a046f.jpg\"]","trial_type":"similarity","trial_index":31,"time_elapsed":233741,"internal_node_id":"0.0-6.0-25.0"},{"sim_score":2,"rt":5375,"stimulus":"[\"img/0860/5383b320-1518-4095-a58e-5cc1ae30b64c.jpg\",\"img/0881/0c7068da-d0d9-4103-bda1-74ef7a2b32c3.jpg\"]","trial_type":"similarity","trial_index":32,"time_elapsed":240120,"internal_node_id":"0.0-6.0-26.0"},{"sim_score":7,"rt":4800,"stimulus":"[\"img/0866/d493a2c8-66eb-44b4-be02-2f327b700b7c.jpg\",\"img/0866/a04d37f0-99dd-478a-b6c6-58b215138f84.jpg\"]","trial_type":"similarity","trial_index":33,"time_elapsed":245927,"internal_node_id":"0.0-6.0-27.0"},{"sim_score":1,"rt":4427,"stimulus":"[\"img/0764/56441045-b648-4ede-9632-3e9c0227080b.jpg\",\"img/0862/de9ad88c-b522-430a-8ee9-eb06a9f85df5.jpg\"]","trial_type":"similarity","trial_index":34,"time_elapsed":251381,"internal_node_id":"0.0-6.0-28.0"},{"sim_score":1,"rt":4736,"stimulus":"[\"img/0904/65e2b70a-b184-4da3-b5c0-5038bdf9469a.jpg\",\"img/0758/335851a0-a55b-46d8-ab05-8463eda48349.jpg\"]","trial_type":"similarity","trial_index":35,"time_elapsed":257120,"internal_node_id":"0.0-6.0-29.0"},{"sim_score":1,"rt":6695,"stimulus":"[\"img/0894/1b3888e6-cf36-4c4a-a039-187aa5cb71ac.jpg\",\"img/0899/a048912c-b12c-40e3-90af-46b69b0cc4fe.jpg\"]","trial_type":"similarity","trial_index":36,"time_elapsed":264827,"internal_node_id":"0.0-6.0-30.0"},{"sim_score":3,"rt":5549,"stimulus":"[\"img/0860/71e1aad0-2cdf-43bb-94a4-a8c016997c30.jpg\",\"img/0904/2f88ce53-02d0-4f95-a082-182c56a0eeb4.jpg\"]","trial_type":"similarity","trial_index":37,"time_elapsed":271386,"internal_node_id":"0.0-6.0-31.0"},{"sim_score":7,"rt":5868,"stimulus":"[\"img/0874/995f0332-0439-4eb4-add3-957335dbf6d9.jpg\",\"img/0881/7e822106-76f7-4b10-a805-14dc68b2cfaf.jpg\"]","trial_type":"similarity","trial_index":38,"time_elapsed":278264,"internal_node_id":"0.0-6.0-32.0"},{"sim_score":5,"rt":4662,"stimulus":"[\"img/0881/20af39f5-373d-4a55-a437-2dc4c0382c46.jpg\",\"img/0899/ad8268c5-8199-48d0-ad70-c5b6d6c599ec.jpg\"]","trial_type":"similarity","trial_index":39,"time_elapsed":283940,"internal_node_id":"0.0-6.0-33.0"},{"sim_score":1,"rt":4669,"stimulus":"[\"img/0866/bf14b5bd-fb55-47db-86b9-4f8aeb9a6dad.jpg\",\"img/0862/53a9cf7c-93c4-41b9-952f-07d17f7a17b2.jpg\"]","trial_type":"similarity","trial_index":40,"time_elapsed":289619,"internal_node_id":"0.0-6.0-34.0"},{"sim_score":1,"rt":3549,"stimulus":"[\"img/0868/77091fc7-a590-4ebb-b915-fdb2483a2399.jpg\",\"img/0894/43216a7f-27bc-4b5a-8841-d122a30da9d9.jpg\"]","trial_type":"similarity","trial_index":41,"time_elapsed":294181,"internal_node_id":"0.0-6.0-35.0"},{"sim_score":7,"rt":3512,"stimulus":"[\"img/0860/e14d67c1-6d92-4f1e-9257-c8607159c19c.jpg\",\"img/0860/c5ccd1a4-4bb7-48e1-9b25-72cfaf06909b.jpg\"]","trial_type":"similarity","trial_index":42,"time_elapsed":298703,"internal_node_id":"0.0-6.0-36.0"},{"sim_score":6,"rt":4533,"stimulus":"[\"img/0862/7918ca67-5bd3-4606-a5ea-c39fb11a9297.jpg\",\"img/0864/4bd81bc6-c13d-46df-95a9-485886dc7c1b.jpg\"]","trial_type":"similarity","trial_index":43,"time_elapsed":304245,"internal_node_id":"0.0-6.0-37.0"},{"sim_score":1,"rt":4869,"stimulus":"[\"img/0766/75c3d627-4f3b-40d5-9d9c-10c8a62db644.jpg\",\"img/0866/6f2a90d7-14f1-4f1b-bd64-fc0af6b9fe44.jpg\"]","trial_type":"similarity","trial_index":44,"time_elapsed":310135,"internal_node_id":"0.0-6.0-38.0"},{"sim_score":2,"rt":4273,"stimulus":"[\"img/0875/a4935837-7d3c-4df6-88c1-36a94d4991ca.jpg\",\"img/0898/79233891-305a-4a6a-8ddf-5c8604858203.jpg\"]","trial_type":"similarity","trial_index":45,"time_elapsed":315417,"internal_node_id":"0.0-6.0-39.0"},{"sim_score":3,"rt":9309,"stimulus":"[\"img/0766/a1ed3f0f-e338-4a26-8fe4-4370f0c9fa6e.jpg\",\"img/0769/3c1203c5-2ce7-466e-957a-8d77b5905460.jpg\"]","trial_type":"similarity","trial_index":46,"time_elapsed":325736,"internal_node_id":"0.0-6.0-40.0"},{"sim_score":5,"rt":3819,"stimulus":"[\"img/0874/ca23d307-fc00-4d7d-9106-584c6eb21b4d.jpg\",\"img/0764/713cc27e-2338-4486-bfe9-5f5725fbd7a0.jpg\"]","trial_type":"similarity","trial_index":47,"time_elapsed":344584,"internal_node_id":"0.0-6.0-41.0"},{"sim_score":1,"rt":4399,"stimulus":"[\"img/0868/8b0b8473-e2c0-4331-aa56-c3a5c29369da.jpg\",\"img/0902/cdec1bc6-7f90-4f72-9e01-f5a4111bac1d.jpg\"]","trial_type":"similarity","trial_index":48,"time_elapsed":350003,"internal_node_id":"0.0-6.0-42.0"},{"sim_score":1,"rt":3814,"stimulus":"[\"img/0875/5a7c4e35-6514-4e12-8879-d16071da4cd6.jpg\",\"img/0899/0e1d936a-dbe2-4afc-9f19-7b7a1ae6c9ed.jpg\"]","trial_type":"similarity","trial_index":49,"time_elapsed":354825,"internal_node_id":"0.0-6.0-43.0"},{"sim_score":1,"rt":3224,"stimulus":"[\"img/0866/620cd1aa-0800-4414-8f6e-90342e7a99ad.jpg\",\"img/0860/c3379ff7-0763-48fe-a1ec-7ea3d611bc7a.jpg\"]","trial_type":"similarity","trial_index":50,"time_elapsed":359071,"internal_node_id":"0.0-6.0-44.0"},{"sim_score":1,"rt":4078,"stimulus":"[\"img/0766/d50d734f-285c-4840-bc7a-c8dd4aff391e.jpg\",\"img/0903/0a92ec52-4e87-410a-857a-4455cde56a70.jpg\"]","trial_type":"similarity","trial_index":51,"time_elapsed":364156,"internal_node_id":"0.0-6.0-45.0"},{"sim_score":2,"rt":3970,"stimulus":"[\"img/0901/effc03f6-8f9d-46db-a66c-16fc83891c5c.jpg\",\"img/0904/4d7d70a3-9477-4921-bda0-f9531d0a5c5b.jpg\"]","trial_type":"similarity","trial_index":52,"time_elapsed":369136,"internal_node_id":"0.0-6.0-46.0"},{"sim_score":2,"rt":5540,"stimulus":"[\"img/0758/53f35650-e455-4b53-8be4-c3c8271c6466.jpg\",\"img/0902/94ee9c53-a9a2-4f95-b9b7-794a5fc62bb6.jpg\"]","trial_type":"similarity","trial_index":53,"time_elapsed":375691,"internal_node_id":"0.0-6.0-47.0"},{"sim_score":6,"rt":5015,"stimulus":"[\"img/0764/f990b2e8-ecee-481e-be7c-0239fce350e2.jpg\",\"img/0764/17b088f8-3053-4140-b544-d15654cc79ef.jpg\"]","trial_type":"similarity","trial_index":54,"time_elapsed":381722,"internal_node_id":"0.0-6.0-48.0"},{"sim_score":1,"rt":4995,"stimulus":"[\"img/0866/c446214b-a368-4c65-ae39-ea46894256ab.jpg\",\"img/0902/bd89a85f-3853-4786-acd6-98818ee29f1c.jpg\"]","trial_type":"similarity","trial_index":55,"time_elapsed":387734,"internal_node_id":"0.0-6.0-49.0"},{"sim_score":2,"rt":6592,"stimulus":"[\"img/0764/974d52cc-6318-4e7a-b294-2f3e92ff800f.jpg\",\"img/0758/e38fd80d-18d0-42f3-b848-f930788e8bd7.jpg\"]","trial_type":"similarity","trial_index":56,"time_elapsed":395346,"internal_node_id":"0.0-6.0-50.0"},{"sim_score":1,"rt":4588,"stimulus":"[\"img/0898/40f99fb2-64d2-4e72-8a7f-a1cf60741e69.jpg\",\"img/0894/e2446cf5-cd48-486a-badc-76498e087fbe.jpg\"]","trial_type":"similarity","trial_index":57,"time_elapsed":400938,"internal_node_id":"0.0-6.0-51.0"},{"sim_score":4,"rt":4093,"stimulus":"[\"img/0875/2e13d160-eea1-416b-aff1-d37ab99ecc1d.jpg\",\"img/0866/07c9c966-3c8d-40e7-8128-92b2acbaed5d.jpg\"]","trial_type":"similarity","trial_index":58,"time_elapsed":406047,"internal_node_id":"0.0-6.0-52.0"},{"sim_score":7,"rt":3787,"stimulus":"[\"img/0904/96e503ea-6630-4996-85f2-0237688ce441.jpg\",\"img/0904/5aec2708-cf14-4a58-aa30-9a8a61c1be0e.jpg\"]","trial_type":"similarity","trial_index":59,"time_elapsed":410836,"internal_node_id":"0.0-6.0-53.0"},{"sim_score":7,"rt":4922,"stimulus":"[\"img/0769/7c50e5f5-cc38-4d48-b009-fbe17bcea61c.jpg\",\"img/0769/d1be2815-fa79-46e8-b5c3-7d81caaca490.jpg\"]","trial_type":"similarity","trial_index":60,"time_elapsed":416772,"internal_node_id":"0.0-6.0-54.0"},{"sim_score":2,"rt":4318,"stimulus":"[\"img/0898/e167334e-cc1d-4986-b3b1-c7bc7da64baa.jpg\",\"img/0758/caa93da2-9edf-49fa-96b9-32dedd8f5078.jpg\"]","trial_type":"similarity","trial_index":61,"time_elapsed":422117,"internal_node_id":"0.0-6.0-55.0"},{"sim_score":4,"rt":2446766,"stimulus":"[\"img/0769/b664b502-a86c-46c1-ad6f-5ebffc2e1bd3.jpg\",\"img/0902/511abb54-0094-4f4d-b6dc-3f2c97050521.jpg\"]","trial_type":"similarity","trial_index":62,"time_elapsed":2869897,"internal_node_id":"0.0-6.0-56.0"},{"sim_score":5,"rt":5302,"stimulus":"[\"img/0864/5f33e097-23e3-4002-882d-76e8cb15f451.jpg\",\"img/0881/ee44e27f-d662-4608-b265-e7ffa19b216f.jpg\"]","trial_type":"similarity","trial_index":63,"time_elapsed":2876206,"internal_node_id":"0.0-6.0-57.0"},{"sim_score":1,"rt":4186,"stimulus":"[\"img/0758/7ffbc76b-1fc1-432c-8f7e-9ec8d1b3f643.jpg\",\"img/0868/09a9ef4d-d000-4cfa-a6aa-ebec7c2edeb4.jpg\"]","trial_type":"similarity","trial_index":64,"time_elapsed":2881405,"internal_node_id":"0.0-6.0-58.0"},{"sim_score":6,"rt":6872,"stimulus":"[\"img/0862/f23038d4-c366-4f70-979f-66b62362efa4.jpg\",\"img/0769/a3cfbdeb-acb3-4eac-87fb-4b117f42d4f8.jpg\"]","trial_type":"similarity","trial_index":65,"time_elapsed":2889280,"internal_node_id":"0.0-6.0-59.0"},{"sim_score":5,"rt":4972,"stimulus":"[\"img/0764/da207710-e7e4-4f42-b2e6-99b5f357f433.jpg\",\"img/0903/8f7f9939-b8e6-433f-93dd-b362496c80a7.jpg\"]","trial_type":"similarity","trial_index":66,"time_elapsed":2895266,"internal_node_id":"0.0-6.0-60.0"},{"sim_score":5,"rt":4978,"stimulus":"[\"img/0899/93494f3b-d539-4075-b027-d82e344563da.jpg\",\"img/0899/66ab3178-c3fe-4455-ad17-d5952b08e018.jpg\"]","trial_type":"similarity","trial_index":67,"time_elapsed":2901260,"internal_node_id":"0.0-6.0-61.0"},{"sim_score":5,"rt":6442,"stimulus":"[\"img/0860/4c530c3c-6aab-492a-94d1-9c01797bde40.jpg\",\"img/0875/42910c99-5463-450a-a0f8-d4d060a11455.jpg\"]","trial_type":"similarity","trial_index":68,"time_elapsed":2908712,"internal_node_id":"0.0-6.0-62.0"},{"sim_score":1,"rt":4839,"stimulus":"[\"img/0868/c8ac40c7-6904-4e13-8d61-c75d3052dc4e.jpg\",\"img/0874/29830da7-be5f-44e5-b141-652a0ccf7269.jpg\"]","trial_type":"similarity","trial_index":69,"time_elapsed":2914561,"internal_node_id":"0.0-6.0-63.0"},{"sim_score":5,"rt":5959,"stimulus":"[\"img/0758/821c68d3-5cb0-4eae-8659-30e6263fca39.jpg\",\"img/0862/57b6f83f-c763-4858-830d-102f97bfefbf.jpg\"]","trial_type":"similarity","trial_index":70,"time_elapsed":2921547,"internal_node_id":"0.0-6.0-64.0"},{"sim_score":6,"rt":4092,"stimulus":"[\"img/0904/b5855d6a-7ef9-46ca-9215-6e9fa046e543.jpg\",\"img/0898/b2732712-71c2-45d8-834f-2b2ed5504910.jpg\"]","trial_type":"similarity","trial_index":71,"time_elapsed":2926643,"internal_node_id":"0.0-6.0-65.0"},{"sim_score":1,"rt":5390,"stimulus":"[\"img/0881/344de456-b358-4887-bd0e-e4c3278af887.jpg\",\"img/0866/8efcaa46-83ab-4dee-a35f-850402aa21ae.jpg\"]","trial_type":"similarity","trial_index":72,"time_elapsed":2933053,"internal_node_id":"0.0-6.0-66.0"},{"sim_score":2,"rt":4247,"stimulus":"[\"img/0867/ac1797e4-8afc-48fe-b252-86d1defb1cca.jpg\",\"img/0898/cd3aaa3f-efa9-4ab3-8d6f-a6a9273ddf42.jpg\"]","trial_type":"similarity","trial_index":73,"time_elapsed":2938308,"internal_node_id":"0.0-6.0-67.0"},{"sim_score":6,"rt":5755,"stimulus":"[\"img/0902/d49743d6-67ae-4c2e-a939-8fd895a0f18e.jpg\",\"img/0764/5d83b9db-3b2b-4dc8-9bd1-2b515b19c858.jpg\"]","trial_type":"similarity","trial_index":74,"time_elapsed":2945073,"internal_node_id":"0.0-6.0-68.0"},{"sim_score":6,"rt":3773,"stimulus":"[\"img/0875/8521fd58-3b1e-4dc5-97ae-804edfa6734a.jpg\",\"img/0867/a498eef3-9fa4-4ab2-9778-4ae82ac40dc5.jpg\"]","trial_type":"similarity","trial_index":75,"time_elapsed":2949852,"internal_node_id":"0.0-6.0-69.0"},{"sim_score":5,"rt":4769,"stimulus":"[\"img/0766/db750ba0-ce04-46e1-b601-e1b80212bad2.jpg\",\"img/0764/4952d0a0-c9be-471a-8ec7-94a37bf4051d.jpg\"]","trial_type":"similarity","trial_index":76,"time_elapsed":2955634,"internal_node_id":"0.0-6.0-70.0"},{"sim_score":5,"rt":4446,"stimulus":"[\"img/0894/c505c65a-cde2-4f2c-8cde-f8676f7c894d.jpg\",\"img/0867/f26f6b60-f772-4f4c-95a4-addc62cfd692.jpg\"]","trial_type":"similarity","trial_index":77,"time_elapsed":2961087,"internal_node_id":"0.0-6.0-71.0"},{"sim_score":1,"rt":4571,"stimulus":"[\"img/0875/dbdd643e-6d0e-4a5c-ab57-b9c29b9c981a.jpg\",\"img/0764/b8e23f4f-ff19-4472-ad9b-2f85548ebca0.jpg\"]","trial_type":"similarity","trial_index":78,"time_elapsed":2966675,"internal_node_id":"0.0-6.0-72.0"},{"sim_score":7,"rt":4223,"stimulus":"[\"img/0867/50a1b60e-3a29-44bf-b606-d4bd3746fea9.jpg\",\"img/0866/be24ab58-230e-4db8-9f45-ff04c9aec6bb.jpg\"]","trial_type":"similarity","trial_index":79,"time_elapsed":2971908,"internal_node_id":"0.0-6.0-73.0"},{"sim_score":1,"rt":4905,"stimulus":"[\"img/0903/8fcafe03-43df-4c45-9da5-0df3a1eeccc5.jpg\",\"img/0758/d57c2592-a317-4f63-91be-91a3a9afd222.jpg\"]","trial_type":"similarity","trial_index":80,"time_elapsed":2977833,"internal_node_id":"0.0-6.0-74.0"},{"sim_score":1,"rt":4269,"stimulus":"[\"img/0766/33aa9ebb-c9f5-418f-8c8b-c77861889568.jpg\",\"img/0868/293079b8-7e0c-4afd-a390-1e5d35fe3ded.jpg\"]","trial_type":"similarity","trial_index":81,"time_elapsed":2983112,"internal_node_id":"0.0-6.0-75.0"},{"sim_score":2,"rt":5288,"stimulus":"[\"img/0874/ca76a855-4e77-4f2f-872a-0a718153e7ed.jpg\",\"img/0766/d8221e53-2300-4d99-ae1b-0bfb0eabe579.jpg\"]","trial_type":"similarity","trial_index":82,"time_elapsed":2989417,"internal_node_id":"0.0-6.0-76.0"},{"sim_score":1,"rt":4690,"stimulus":"[\"img/0881/84397291-bc14-4fbf-90e8-241e486ab0fe.jpg\",\"img/0868/15dd6fd7-791e-4b53-b203-195d617521a4.jpg\"]","trial_type":"similarity","trial_index":83,"time_elapsed":2995123,"internal_node_id":"0.0-6.0-77.0"},{"sim_score":2,"rt":4372,"stimulus":"[\"img/0758/7fba58df-2a7a-4b76-8a8f-62739f97f271.jpg\",\"img/0901/62315ff5-ed95-46b4-b099-92552079659b.jpg\"]","trial_type":"similarity","trial_index":84,"time_elapsed":3000502,"internal_node_id":"0.0-6.0-78.0"},{"sim_score":3,"rt":5240,"stimulus":"[\"img/0881/c843e210-bdfe-4a7c-8bbe-fcea1f90fe1c.jpg\",\"img/0898/a114b375-cb89-44ba-9498-74213f1ecdee.jpg\"]","trial_type":"similarity","trial_index":85,"time_elapsed":3006752,"internal_node_id":"0.0-6.0-79.0"},{"sim_score":1,"rt":3812,"stimulus":"[\"img/0867/179ab87a-8eac-4c52-a41f-2e48e3120f09.jpg\",\"img/0758/67c0be2f-9e91-48b3-8219-70ac0a1802fa.jpg\"]","trial_type":"similarity","trial_index":86,"time_elapsed":3011574,"internal_node_id":"0.0-6.0-80.0"},{"sim_score":3,"rt":4702,"stimulus":"[\"img/0769/ecda2fb3-556b-43ba-8a67-e87dd75ff2b4.jpg\",\"img/0899/0adc0bc3-6fca-4078-be6f-d45ddf1653d5.jpg\"]","trial_type":"similarity","trial_index":87,"time_elapsed":3017290,"internal_node_id":"0.0-6.0-81.0"},{"sim_score":7,"rt":4682,"stimulus":"[\"img/0903/b7e3723f-fd03-4f3d-8820-f19496463a34.jpg\",\"img/0903/b4a0f61e-a964-4b79-a9a7-f767a8f92f34.jpg\"]","trial_type":"similarity","trial_index":88,"time_elapsed":3022985,"internal_node_id":"0.0-6.0-82.0"},{"sim_score":1,"rt":3939,"stimulus":"[\"img/0867/2e1a0b58-cdb1-4107-a14e-452530d7b9b0.jpg\",\"img/0766/006035d8-c736-4daf-bbe4-a9e373af9da6.jpg\"]","trial_type":"similarity","trial_index":89,"time_elapsed":3030755,"internal_node_id":"0.0-6.0-83.0"},{"sim_score":1,"rt":4360,"stimulus":"[\"img/0902/27b84584-948a-485b-8749-cb09929ef631.jpg\",\"img/0867/c71dc569-f49c-4397-8381-68b8d726736d.jpg\"]","trial_type":"similarity","trial_index":90,"time_elapsed":3036129,"internal_node_id":"0.0-6.0-84.0"},{"sim_score":2,"rt":4279,"stimulus":"[\"img/0901/5657dd86-0ff9-4753-ba2b-9dfb223e5c89.jpg\",\"img/0875/fb732ab5-013a-4366-9f65-27811ed157e9.jpg\"]","trial_type":"similarity","trial_index":91,"time_elapsed":3041421,"internal_node_id":"0.0-6.0-85.0"},{"sim_score":1,"rt":3862,"stimulus":"[\"img/0764/c80b3e06-2ee3-4326-9678-340607eb5348.jpg\",\"img/0866/02f5e6b9-52b7-448c-9708-5b460d0c9a23.jpg\"]","trial_type":"similarity","trial_index":92,"time_elapsed":3046290,"internal_node_id":"0.0-6.0-86.0"},{"sim_score":1,"rt":4609,"stimulus":"[\"img/0901/148b747a-7392-437e-8823-33053c5dff3f.jpg\",\"img/0894/5f15154e-e72e-4ce5-aafb-bce6f0564006.jpg\"]","trial_type":"similarity","trial_index":93,"time_elapsed":3051923,"internal_node_id":"0.0-6.0-87.0"},{"sim_score":1,"rt":4445,"stimulus":"[\"img/0898/661621d4-a14e-487c-8c74-354134a29710.jpg\",\"img/0769/14d393ce-e5be-4ca1-86ce-cc27d4b6074c.jpg\"]","trial_type":"similarity","trial_index":94,"time_elapsed":3057371,"internal_node_id":"0.0-6.0-88.0"},{"sim_score":5,"rt":4598,"stimulus":"[\"img/0769/da36e3f7-2337-434f-ab57-11822dd7eed7.jpg\",\"img/0894/5ff3c4f6-52e2-4075-8679-be0312e59703.jpg\"]","trial_type":"similarity","trial_index":95,"time_elapsed":3062983,"internal_node_id":"0.0-6.0-89.0"},{"sim_score":6,"rt":4379,"stimulus":"[\"img/0862/92f0146c-20c4-482e-aef5-adb693790338.jpg\",\"img/0874/bf14b896-e930-4fd9-9c05-2e83317a2773.jpg\"]","trial_type":"similarity","trial_index":96,"time_elapsed":3068379,"internal_node_id":"0.0-6.0-90.0"},{"sim_score":1,"rt":5021,"stimulus":"[\"img/0894/bd34223a-2f66-4e16-9d18-193a746b69ff.jpg\",\"img/0766/717fd72f-a281-499b-a5ba-5e2ecc4d4866.jpg\"]","trial_type":"similarity","trial_index":97,"time_elapsed":3074411,"internal_node_id":"0.0-6.0-91.0"},{"sim_score":1,"rt":4073,"stimulus":"[\"img/0874/85eb9b8a-c4c6-4e5a-b8e7-363a87a82054.jpg\",\"img/0867/6e19c858-b606-45b2-a4c6-910a73f1d82c.jpg\"]","trial_type":"similarity","trial_index":98,"time_elapsed":3079493,"internal_node_id":"0.0-6.0-92.0"},{"sim_score":1,"rt":3185,"stimulus":"[\"img/0899/66bf4113-ee12-426c-84d2-ea410b6c803e.jpg\",\"img/0868/3a62db2d-97e9-44a3-b8e3-a48c6f0e423b.jpg\"]","trial_type":"similarity","trial_index":99,"time_elapsed":3083692,"internal_node_id":"0.0-6.0-93.0"},{"sim_score":6,"rt":4269,"stimulus":"[\"img/0903/36e4ab1f-caa9-40b3-8616-faada076df94.jpg\",\"img/0862/e8cc3bdf-cc43-4565-bccf-492626c70953.jpg\"]","trial_type":"similarity","trial_index":100,"time_elapsed":3088975,"internal_node_id":"0.0-6.0-94.0"},{"sim_score":5,"rt":3952,"stimulus":"[\"img/0899/565ccdd9-0933-4536-a625-3c0e25a713dd.jpg\",\"img/0766/d5d38751-8fa5-476f-93e9-86ed2d9045ef.jpg\"]","trial_type":"similarity","trial_index":101,"time_elapsed":3093940,"internal_node_id":"0.0-6.0-95.0"},{"sim_score":7,"rt":4227,"stimulus":"[\"img/0867/26611f4e-d694-4460-b7e2-43c62753ddc3.jpg\",\"img/0868/d6d1f30d-4323-435a-b194-7892521bc57e.jpg\"]","trial_type":"similarity","trial_index":102,"time_elapsed":3099176,"internal_node_id":"0.0-6.0-96.0"},{"sim_score":5,"rt":5805,"stimulus":"[\"img/0862/d0ca4c78-fc35-46ed-bdcc-8e124283c53e.jpg\",\"img/0901/da4fe30f-d12a-491e-96a2-5ab8ebaadd09.jpg\"]","trial_type":"similarity","trial_index":103,"time_elapsed":3105991,"internal_node_id":"0.0-6.0-97.0"},{"sim_score":1,"rt":2896,"stimulus":"[\"img/0875/99698b4d-b4a1-44bc-8c83-8ea755bbbf61.jpg\",\"img/0766/fd74fdbb-ea40-4f3a-a091-38d08dfd636e.jpg\"]","trial_type":"similarity","trial_index":104,"time_elapsed":3109904,"internal_node_id":"0.0-6.0-98.0"},{"sim_score":6,"rt":4199,"stimulus":"[\"img/0758/b76ceca7-95ac-46e4-ac13-da02c8e93be9.jpg\",\"img/0874/adf9a8f1-c40b-402b-b95b-1e85a54a7b62.jpg\"]","trial_type":"similarity","trial_index":105,"time_elapsed":3115126,"internal_node_id":"0.0-6.0-99.0"},{"sim_score":2,"rt":4485,"stimulus":"[\"img/0904/e9423a8c-f946-43ad-ab7b-931acef870e2.jpg\",\"img/0868/179a5502-ab5c-478e-8263-5a1fbcc101d2.jpg\"]","trial_type":"similarity","trial_index":106,"time_elapsed":3120628,"internal_node_id":"0.0-6.0-100.0"},{"sim_score":1,"rt":3481,"stimulus":"[\"img/0903/d987e220-f3e6-4b6d-a270-fe6757041f6d.jpg\",\"img/0866/945c6710-d15b-4a5b-a8f6-69af0850357f.jpg\"]","trial_type":"similarity","trial_index":107,"time_elapsed":3125120,"internal_node_id":"0.0-6.0-101.0"},{"sim_score":1,"rt":2870,"stimulus":"[\"img/0868/fd307a36-9a3a-47d7-ab7c-f810d0b35040.jpg\",\"img/0769/48a1144d-fbda-4809-991b-fc8424a32ee4.jpg\"]","trial_type":"similarity","trial_index":108,"time_elapsed":3129013,"internal_node_id":"0.0-6.0-102.0"},{"sim_score":5,"rt":5732,"stimulus":"[\"img/0902/d3e55000-c839-4bf9-9b9b-4af0a9925af1.jpg\",\"img/0899/00715b3f-851b-420b-a26b-d7f79f7759a9.jpg\"]","trial_type":"similarity","trial_index":109,"time_elapsed":3135762,"internal_node_id":"0.0-6.0-103.0"},{"sim_score":1,"rt":3020,"stimulus":"[\"img/0868/4e626425-63c8-484a-8a1d-e66ee4e0bef8.jpg\",\"img/0862/ba89835a-408c-480b-8594-ed4ffa97eb5c.jpg\"]","trial_type":"similarity","trial_index":110,"time_elapsed":3139788,"internal_node_id":"0.0-6.0-104.0"},{"sim_score":4,"rt":5385,"stimulus":"[\"img/0903/8931c67c-a43d-47d3-a4c9-42aa2f81d344.jpg\",\"img/0894/151063aa-6472-4745-837b-36603aba5966.jpg\"]","trial_type":"similarity","trial_index":111,"time_elapsed":3146186,"internal_node_id":"0.0-6.0-105.0"},{"sim_score":5,"rt":4546,"stimulus":"[\"img/0864/65210d57-1153-4657-886a-32e758f49b4a.jpg\",\"img/0874/93d1f8dc-acf2-4f03-bd8d-8ec35df276ed.jpg\"]","trial_type":"similarity","trial_index":112,"time_elapsed":3151748,"internal_node_id":"0.0-6.0-106.0"},{"sim_score":5,"rt":3778,"stimulus":"[\"img/0862/eefa5588-9efd-4591-aa5f-a2e17c7d7bcc.jpg\",\"img/0902/b56db912-c3c0-4fc2-b325-d640acd7cb58.jpg\"]","trial_type":"similarity","trial_index":113,"time_elapsed":3156527,"internal_node_id":"0.0-6.0-107.0"},{"sim_score":7,"rt":5108,"stimulus":"[\"img/0904/696ebb60-8891-417a-91fd-c53218907a95.jpg\",\"img/0903/f67c4ab9-f8c2-4fcd-848a-a54a7b031002.jpg\"]","trial_type":"similarity","trial_index":114,"time_elapsed":3162649,"internal_node_id":"0.0-6.0-108.0"},{"sim_score":6,"rt":3503,"stimulus":"[\"img/0764/f713847b-4832-42d1-8fb3-e17e37fd745c.jpg\",\"img/0864/1ebbc554-99fa-49f9-8799-317375a79820.jpg\"]","trial_type":"similarity","trial_index":115,"time_elapsed":3167156,"internal_node_id":"0.0-6.0-109.0"},{"sim_score":1,"rt":5536,"stimulus":"[\"img/0866/a15b02be-11bb-43e3-b0e0-ecc3bd7dfc49.jpg\",\"img/0894/5c7677b0-a4f1-479e-b274-7822c415175a.jpg\"]","trial_type":"similarity","trial_index":116,"time_elapsed":3173702,"internal_node_id":"0.0-6.0-110.0"},{"sim_score":5,"rt":4403,"stimulus":"[\"img/0899/4f7bc593-8ddd-4da3-a0b9-84da730d3370.jpg\",\"img/0903/5995f4a8-fa82-46f8-8760-fd7800a5ca34.jpg\"]","trial_type":"similarity","trial_index":117,"time_elapsed":3179124,"internal_node_id":"0.0-6.0-111.0"},{"sim_score":5,"rt":5727,"stimulus":"[\"img/0902/794606a0-d8a8-4e58-8bf8-9d114ed5a548.jpg\",\"img/0904/73920552-103b-4c9c-9ece-e0b8376b4504.jpg\"]","trial_type":"similarity","trial_index":118,"time_elapsed":3185854,"internal_node_id":"0.0-6.0-112.0"},{"sim_score":5,"rt":6142,"stimulus":"[\"img/0864/efcfbb1b-8197-44c9-b723-40d6c608dd3c.jpg\",\"img/0860/15b24a61-25be-4356-9eac-5ce95d0cb4a4.jpg\"]","trial_type":"similarity","trial_index":119,"time_elapsed":3193020,"internal_node_id":"0.0-6.0-113.0"},{"sim_score":2,"rt":4912,"stimulus":"[\"img/0860/29a21a9f-54bb-4093-ad3f-04823ceaa89f.jpg\",\"img/0899/8abe6c69-822c-436c-9bf2-96c818b49ba5.jpg\"]","trial_type":"similarity","trial_index":120,"time_elapsed":3198935,"internal_node_id":"0.0-6.0-114.0"},{"sim_score":2,"rt":5057,"stimulus":"[\"img/0881/f7a8cc63-8842-40a4-9ff8-fe530310d62c.jpg\",\"img/0903/5248eedd-7e6a-4d39-91b0-06ec227f3ed0.jpg\"]","trial_type":"similarity","trial_index":121,"time_elapsed":3205003,"internal_node_id":"0.0-6.0-115.0"},{"sim_score":5,"rt":4572,"stimulus":"[\"img/0894/3adef67d-7676-4995-80b2-bb31b8aca3ef.jpg\",\"img/0874/c0378dac-9370-439a-8b79-db27c96fb390.jpg\"]","trial_type":"similarity","trial_index":122,"time_elapsed":3210592,"internal_node_id":"0.0-6.0-116.0"},{"sim_score":3,"rt":4635,"stimulus":"[\"img/0881/f037e3b0-09cb-4a83-b2d9-6a71fe474e63.jpg\",\"img/0862/1c20f772-3a51-4a80-aac0-f57dc9f86c28.jpg\"]","trial_type":"similarity","trial_index":123,"time_elapsed":3216237,"internal_node_id":"0.0-6.0-117.0"},{"sim_score":1,"rt":3522,"stimulus":"[\"img/0868/83b4350a-3b70-4cea-b7f5-b5b56f3050a8.jpg\",\"img/0875/2c361b79-c3d1-4eda-812e-bf03192407bf.jpg\"]","trial_type":"similarity","trial_index":124,"time_elapsed":3220783,"internal_node_id":"0.0-6.0-118.0"},{"sim_score":3,"rt":4999,"stimulus":"[\"img/0860/fd4662f9-4c03-4d79-8593-06735e55a64b.jpg\",\"img/0758/3ddd05d3-557e-4ee7-8b78-9d2d681d8ae2.jpg\"]","trial_type":"similarity","trial_index":125,"time_elapsed":3226792,"internal_node_id":"0.0-6.0-119.0"},{"sim_score":1,"rt":4506,"stimulus":"[\"img/0864/1d15626a-2f7c-410f-819c-0fa2c967e95e.jpg\",\"img/0875/f87b67d7-c33e-40d1-b281-248c4be1cb6e.jpg\"]","trial_type":"similarity","trial_index":126,"time_elapsed":3232314,"internal_node_id":"0.0-6.0-120.0"},{"sim_score":1,"rt":3425,"stimulus":"[\"img/0898/b3290bf9-215b-4b45-b21a-65bdf73f142f.jpg\",\"img/0866/d266fece-59b3-46fa-b69f-96f6efb81b59.jpg\"]","trial_type":"similarity","trial_index":127,"time_elapsed":3236747,"internal_node_id":"0.0-6.0-121.0"},{"sim_score":2,"rt":5195,"stimulus":"[\"img/0874/a3bc679d-619f-4db6-bb68-116dcb757d9c.jpg\",\"img/0904/09934646-45d2-4147-8fec-64a22a5ac822.jpg\"]","trial_type":"similarity","trial_index":128,"time_elapsed":3242952,"internal_node_id":"0.0-6.0-122.0"},{"sim_score":1,"rt":3314,"stimulus":"[\"img/0904/fe746a3f-8458-48d0-8a13-8cba2a9df9f8.jpg\",\"img/0864/c22faebd-9c53-47bc-ada3-b9a30c688e75.jpg\"]","trial_type":"similarity","trial_index":129,"time_elapsed":3247275,"internal_node_id":"0.0-6.0-123.0"},{"sim_score":5,"rt":5220,"stimulus":"[\"img/0894/a3d4170b-b7d8-40e3-955f-87e76ed745fc.jpg\",\"img/0902/fbef27fa-ac83-4936-ab78-9d1c20a383e1.jpg\"]","trial_type":"similarity","trial_index":130,"time_elapsed":3253509,"internal_node_id":"0.0-6.0-124.0"},{"sim_score":1,"rt":3632,"stimulus":"[\"img/0868/1a62b2b2-18f5-466e-b564-5176a57c565e.jpg\",\"img/0864/c3b63e8f-ea39-4d70-a1f2-b3fe4be8eb75.jpg\"]","trial_type":"similarity","trial_index":131,"time_elapsed":3261104,"internal_node_id":"0.0-6.0-125.0"},{"sim_score":1,"rt":4009,"stimulus":"[\"img/0899/d8f2dd94-570e-4e8c-a087-d96090fb9e8c.jpg\",\"img/0866/f756f7d1-9ad8-4a34-9ef6-7a443d705bfe.jpg\"]","trial_type":"similarity","trial_index":132,"time_elapsed":3266126,"internal_node_id":"0.0-6.0-126.0"},{"sim_score":1,"rt":3590,"stimulus":"[\"img/0875/ebf7653f-ff45-4e9f-af58-2c042ab3cd2b.jpg\",\"img/0904/9d30eff1-46ef-4453-b11e-124ef8145c00.jpg\"]","trial_type":"similarity","trial_index":133,"time_elapsed":3270731,"internal_node_id":"0.0-6.0-127.0"},{"sim_score":1,"rt":3186,"stimulus":"[\"img/0867/bf560d4f-dee3-4f11-a385-705cc1aa5f3c.jpg\",\"img/0899/5b56dd3e-3f49-47cc-af84-16da6457753b.jpg\"]","trial_type":"similarity","trial_index":134,"time_elapsed":3274940,"internal_node_id":"0.0-6.0-128.0"},{"sim_score":2,"rt":4629,"stimulus":"[\"img/0901/4d1bed7e-3c4e-4f6c-ada9-4beb66ba9e39.jpg\",\"img/0867/cc72ed48-7704-422c-86d6-467a1145287a.jpg\"]","trial_type":"similarity","trial_index":135,"time_elapsed":3280589,"internal_node_id":"0.0-6.0-129.0"},{"sim_score":4,"rt":7095,"stimulus":"[\"img/0864/f92649a2-0590-4d31-9a7a-1bfb81666a2d.jpg\",\"img/0769/f6396414-6788-4d59-9683-de153298d89c.jpg\"]","trial_type":"similarity","trial_index":136,"time_elapsed":3288701,"internal_node_id":"0.0-6.0-130.0"},{"sim_score":1,"rt":4970,"stimulus":"[\"img/0903/c708d08f-a108-4e04-8288-c3fcf6375db4.jpg\",\"img/0868/d98ca254-b195-477f-b57e-5760a2717db8.jpg\"]","trial_type":"similarity","trial_index":137,"time_elapsed":3294694,"internal_node_id":"0.0-6.0-131.0"},{"sim_score":1,"rt":3256,"stimulus":"[\"img/0864/66091c27-e588-4476-8af9-265dc6be4156.jpg\",\"img/0867/12264664-1860-46df-8c21-162b9817cdda.jpg\"]","trial_type":"similarity","trial_index":138,"time_elapsed":3298959,"internal_node_id":"0.0-6.0-132.0"},{"sim_score":5,"rt":4622,"stimulus":"[\"img/0901/50e1d53e-a49f-4806-8610-be6dec5a2475.jpg\",\"img/0860/4f695df5-afac-4da7-9875-fee39b0b24ad.jpg\"]","trial_type":"similarity","trial_index":139,"time_elapsed":3304591,"internal_node_id":"0.0-6.0-133.0"},{"sim_score":5,"rt":3911,"stimulus":"[\"img/0881/c24f3051-eefa-42de-aba6-fccb56d93c70.jpg\",\"img/0766/aaec5f42-7f0a-4a16-aeca-488d757acbcc.jpg\"]","trial_type":"similarity","trial_index":140,"time_elapsed":3309522,"internal_node_id":"0.0-6.0-134.0"},{"sim_score":4,"rt":4689,"stimulus":"[\"img/0903/71dbc325-b588-4297-a5cf-7f268a722ad9.jpg\",\"img/0864/afcba0a3-7e27-4757-b254-e9f05fad27e2.jpg\"]","trial_type":"similarity","trial_index":141,"time_elapsed":3315221,"internal_node_id":"0.0-6.0-135.0"},{"sim_score":4,"rt":3436,"stimulus":"[\"img/0758/eabcd7a8-56ad-4fd2-bc24-90f6b7b33265.jpg\",\"img/0894/5a49e858-2850-4892-9a06-e9f0efb5f94d.jpg\"]","trial_type":"similarity","trial_index":142,"time_elapsed":3319667,"internal_node_id":"0.0-6.0-136.0"},{"sim_score":1,"rt":4536,"stimulus":"[\"img/0769/91acb237-65a3-4d0b-9748-af5c7b83d3c7.jpg\",\"img/0860/5bff793e-cbd5-4d7e-b628-0ac2b0e30b64.jpg\"]","trial_type":"similarity","trial_index":143,"time_elapsed":3325216,"internal_node_id":"0.0-6.0-137.0"},{"sim_score":2,"rt":8095,"stimulus":"[\"img/0904/2c98dc56-88d1-4fb5-a999-b6a7861f65f0.jpg\",\"img/0766/51d3aab4-3d09-4dda-b99d-3dc7aaabc6f2.jpg\"]","trial_type":"similarity","trial_index":144,"time_elapsed":3334324,"internal_node_id":"0.0-6.0-138.0"},{"sim_score":1,"rt":3852,"stimulus":"[\"img/0868/0d3abd3a-b6c3-4584-a9f7-e2da63748b3d.jpg\",\"img/0860/b03b963d-949b-4d8d-b19c-4950c89eeca2.jpg\"]","trial_type":"similarity","trial_index":145,"time_elapsed":3339189,"internal_node_id":"0.0-6.0-139.0"},{"sim_score":6,"rt":4389,"stimulus":"[\"img/0758/65d426d6-3ff6-415d-8654-a43b83ecc4fe.jpg\",\"img/0864/300bb811-8b3c-4c42-8653-6097c3725197.jpg\"]","trial_type":"similarity","trial_index":146,"time_elapsed":3344592,"internal_node_id":"0.0-6.0-140.0"},{"sim_score":7,"rt":4562,"stimulus":"[\"img/0867/f8488a47-94ee-4166-952c-44e16cf172f6.jpg\",\"img/0867/f8159067-056c-41f1-a136-c529fe5e970a.jpg\"]","trial_type":"similarity","trial_index":147,"time_elapsed":3350161,"internal_node_id":"0.0-6.0-141.0"},{"sim_score":5,"rt":4056,"stimulus":"[\"img/0898/26c41340-15bd-4ead-8fe4-c0d0ddca09c2.jpg\",\"img/0898/881e2a85-d5c2-49be-a0c6-8a6ce2c4af08.jpg\"]","trial_type":"similarity","trial_index":148,"time_elapsed":3355230,"internal_node_id":"0.0-6.0-142.0"},{"sim_score":5,"rt":4803,"stimulus":"[\"img/0866/93a27239-8317-4e08-98ca-d8b1ff298e07.jpg\",\"img/0769/75f7e514-0548-4329-b1e4-93c05e74f038.jpg\"]","trial_type":"similarity","trial_index":149,"time_elapsed":3361038,"internal_node_id":"0.0-6.0-143.0"},{"sim_score":5,"rt":4897,"stimulus":"[\"img/0860/d9a0d117-6d1d-41c0-8fec-9aff0fd9e9f2.jpg\",\"img/0898/6cd3830b-d44e-4915-be2b-88d31424b91c.jpg\"]","trial_type":"similarity","trial_index":150,"time_elapsed":3366947,"internal_node_id":"0.0-6.0-144.0"},{"sim_score":7,"rt":4678,"stimulus":"[\"img/0766/1865bfc9-2410-4765-a804-3ae4ba2393d0.jpg\",\"img/0864/6e846d43-94a6-4b37-a268-65eda979f052.jpg\"]","trial_type":"similarity","trial_index":151,"time_elapsed":3372632,"internal_node_id":"0.0-6.0-145.0"},{"sim_score":5,"rt":4104,"stimulus":"[\"img/0860/61fb959d-d4d9-4de4-9e4e-4fa62b4cfcd5.jpg\",\"img/0903/776b74ee-a8ab-4ab8-a78d-097c0747538d.jpg\"]","trial_type":"similarity","trial_index":152,"time_elapsed":3377762,"internal_node_id":"0.0-6.0-146.0"},{"sim_score":4,"rt":3799,"stimulus":"[\"img/0867/c66898ba-b71b-4d50-84f9-f7f84853a98d.jpg\",\"img/0764/50f1b062-d608-4bc0-ab25-b872dcf2ed93.jpg\"]","trial_type":"similarity","trial_index":153,"time_elapsed":3382567,"internal_node_id":"0.0-6.0-147.0"},{"sim_score":3,"rt":4226,"stimulus":"[\"img/0769/1d8734c4-77ab-4165-9e71-5cfe672ff01c.jpg\",\"img/0904/06dacdc5-2206-4fb8-92b7-88042d22833c.jpg\"]","trial_type":"similarity","trial_index":154,"time_elapsed":3387803,"internal_node_id":"0.0-6.0-148.0"},{"sim_score":2,"rt":4289,"stimulus":"[\"img/0764/5d6fa3ce-9083-410c-bbdb-336a49b94cfc.jpg\",\"img/0901/b453df0b-4c39-49bb-8ced-6127efffa898.jpg\"]","trial_type":"similarity","trial_index":155,"time_elapsed":3393105,"internal_node_id":"0.0-6.0-149.0"},{"sim_score":3,"rt":3862,"stimulus":"[\"img/0904/0d25eb24-bb20-4e8d-9787-8b489558b4cb.jpg\",\"img/0899/b45c550b-96c3-4255-ad59-48a2b4db1c1e.jpg\"]","trial_type":"similarity","trial_index":156,"time_elapsed":3397977,"internal_node_id":"0.0-6.0-150.0"},{"sim_score":1,"rt":4028,"stimulus":"[\"img/0862/847e5208-38ec-4f36-949c-296cdd7424ee.jpg\",\"img/0867/a749dddb-69f0-44a6-acdc-2bf295cf6dcc.jpg\"]","trial_type":"similarity","trial_index":157,"time_elapsed":3403009,"internal_node_id":"0.0-6.0-151.0"},{"sim_score":7,"rt":3339,"stimulus":"[\"img/0766/ea09dd5a-d24d-4e97-a099-7da3db1baef1.jpg\",\"img/0766/ba35c0fc-4d5b-490d-959e-c94b279cdd02.jpg\"]","trial_type":"similarity","trial_index":158,"time_elapsed":3407358,"internal_node_id":"0.0-6.0-152.0"},{"sim_score":5,"rt":7115,"stimulus":"[\"img/0862/e697469a-ec19-4414-b972-7b9f3564785b.jpg\",\"img/0894/6b2e9509-8699-42b7-9582-7741df0ba2d7.jpg\"]","trial_type":"similarity","trial_index":159,"time_elapsed":3415487,"internal_node_id":"0.0-6.0-153.0"},{"sim_score":1,"rt":4673,"stimulus":"[\"img/0899/0433d056-aa30-4f8a-9aa1-abbb951e4edd.jpg\",\"img/0901/0adb3bd6-d758-4ba7-9723-3ad6cac05bd5.jpg\"]","trial_type":"similarity","trial_index":160,"time_elapsed":3421173,"internal_node_id":"0.0-6.0-154.0"},{"sim_score":1,"rt":3549,"stimulus":"[\"img/0874/3f471690-9788-4d03-90c7-f615aecef149.jpg\",\"img/0874/2c9464dd-8a23-4baa-ac94-1ba3af5c15cc.jpg\"]","trial_type":"similarity","trial_index":161,"time_elapsed":3425726,"internal_node_id":"0.0-6.0-155.0"},{"sim_score":1,"rt":5747,"stimulus":"[\"img/0860/524b2e98-5767-4d53-942c-ebae6925659b.jpg\",\"img/0867/1719a35d-f085-48c0-9099-16c94fe418b4.jpg\"]","trial_type":"similarity","trial_index":162,"time_elapsed":3432483,"internal_node_id":"0.0-6.0-156.0"},{"sim_score":1,"rt":3749,"stimulus":"[\"img/0901/8bb79e82-9c43-4b6f-a655-40655519598b.jpg\",\"img/0881/445edb15-bd7f-4af3-8bd5-c6ad9677bb31.jpg\"]","trial_type":"similarity","trial_index":163,"time_elapsed":3437239,"internal_node_id":"0.0-6.0-157.0"},{"sim_score":6,"rt":4389,"stimulus":"[\"img/0903/a0673b55-6040-47fe-9040-24bca27ca3c9.jpg\",\"img/0902/c920f0e1-1c81-480f-a164-c77f2dc6ce9a.jpg\"]","trial_type":"similarity","trial_index":164,"time_elapsed":3442641,"internal_node_id":"0.0-6.0-158.0"},{"sim_score":6,"rt":3343,"stimulus":"[\"img/0860/c47fdead-eb02-4989-b078-26f4852f44fe.jpg\",\"img/0764/3297a811-ea8b-4d74-9547-59cecab7293a.jpg\"]","trial_type":"similarity","trial_index":165,"time_elapsed":3446991,"internal_node_id":"0.0-6.0-159.0"},{"sim_score":1,"rt":4332,"stimulus":"[\"img/0902/0db94c50-f1fb-4091-953c-29ca0466bee2.jpg\",\"img/0875/cff79b3a-a797-4393-9757-6275f999ec04.jpg\"]","trial_type":"similarity","trial_index":166,"time_elapsed":3452336,"internal_node_id":"0.0-6.0-160.0"},{"sim_score":6,"rt":3752,"stimulus":"[\"img/0898/993d8f2d-bef7-4251-a193-0f93a32b7763.jpg\",\"img/0862/24cdc752-c2e5-4a17-86a6-6f2045d8553b.jpg\"]","trial_type":"similarity","trial_index":167,"time_elapsed":3457098,"internal_node_id":"0.0-6.0-161.0"},{"sim_score":5,"rt":4635,"stimulus":"[\"img/0894/10f22b96-040c-44f4-950b-a4963f3f506c.jpg\",\"img/0875/e7e66b13-b573-431e-b85e-288ce04a35a3.jpg\"]","trial_type":"similarity","trial_index":168,"time_elapsed":3462747,"internal_node_id":"0.0-6.0-162.0"},{"sim_score":2,"rt":4756,"stimulus":"[\"img/0866/9b38d691-1802-4959-ab3f-fc902f0e4ea6.jpg\",\"img/0864/e8bd659f-aa43-4748-877e-3118e8b4e189.jpg\"]","trial_type":"similarity","trial_index":169,"time_elapsed":3468513,"internal_node_id":"0.0-6.0-163.0"},{"sim_score":5,"rt":4185,"stimulus":"[\"img/0766/27f54113-8561-4568-9ffe-0a1650ae65ec.jpg\",\"img/0862/f188d4f0-76a4-4102-818c-a209969d73a5.jpg\"]","trial_type":"similarity","trial_index":170,"time_elapsed":3473711,"internal_node_id":"0.0-6.0-164.0"},{"sim_score":1,"rt":4050,"stimulus":"[\"img/0866/386235d2-6857-41e7-88a8-25cfc3430025.jpg\",\"img/0874/99f6563c-8a8d-4c1c-a41d-667b618c3fd5.jpg\"]","trial_type":"similarity","trial_index":171,"time_elapsed":3478770,"internal_node_id":"0.0-6.0-165.0"},{"sim_score":7,"rt":4086,"stimulus":"[\"img/0862/ad593cc7-cabe-4bb7-8e14-8a447a0717b4.jpg\",\"img/0860/94ef7afc-e0e6-4a15-98c6-0bfac82bc832.jpg\"]","trial_type":"similarity","trial_index":172,"time_elapsed":3483866,"internal_node_id":"0.0-6.0-166.0"},{"sim_score":1,"rt":3903,"stimulus":"[\"img/0766/989c5c7f-1aff-4442-ac63-9d46acf4a891.jpg\",\"img/0901/04a53755-6da5-44d4-a7a6-48a6bc0a2280.jpg\"]","trial_type":"similarity","trial_index":173,"time_elapsed":3493474,"internal_node_id":"0.0-6.0-167.0"},{"sim_score":7,"rt":4169,"stimulus":"[\"img/0862/fb26cb07-d5a9-4653-813c-f41609f26cd5.jpg\",\"img/0862/47ed5efd-4ec9-4b74-bb4e-a5f5cf0c3e7d.jpg\"]","trial_type":"similarity","trial_index":174,"time_elapsed":3498647,"internal_node_id":"0.0-6.0-168.0"},{"sim_score":5,"rt":3607,"stimulus":"[\"img/0894/b422d5c6-3c5a-49ae-a53e-7e88ac993f49.jpg\",\"img/0764/c84fbfa8-521c-407a-9bd3-24f7308d896c.jpg\"]","trial_type":"similarity","trial_index":175,"time_elapsed":3503267,"internal_node_id":"0.0-6.0-169.0"},{"sim_score":3,"rt":5089,"stimulus":"[\"img/0874/eba003b4-cdab-4eee-8bc3-f064c7d94165.jpg\",\"img/0898/0af304a2-6a7a-4082-ab7c-4450cd08cc58.jpg\"]","trial_type":"similarity","trial_index":176,"time_elapsed":3509372,"internal_node_id":"0.0-6.0-170.0"},{"sim_score":1,"rt":2853,"stimulus":"[\"img/0860/8a92e21b-6a32-4e4a-a445-2d5a487ed0a4.jpg\",\"img/0766/c23b5a20-e50f-4d85-841f-cf89212a4348.jpg\"]","trial_type":"similarity","trial_index":177,"time_elapsed":3513238,"internal_node_id":"0.0-6.0-171.0"},{"sim_score":5,"rt":4272,"stimulus":"[\"img/0898/08c72dac-f8ad-407a-9ce6-8c9a5d679c3a.jpg\",\"img/0864/6f631579-acf1-415c-a42c-1207f62a8d99.jpg\"]","trial_type":"similarity","trial_index":178,"time_elapsed":3518520,"internal_node_id":"0.0-6.0-172.0"},{"sim_score":5,"rt":3630,"stimulus":"[\"img/0881/f6bd3b96-dc40-4e99-8681-bc3a35cf896d.jpg\",\"img/0764/952d7adc-dc40-4aee-acce-18c2a1d02ea1.jpg\"]","trial_type":"similarity","trial_index":179,"time_elapsed":3523163,"internal_node_id":"0.0-6.0-173.0"},{"sim_score":5,"rt":3551,"stimulus":"[\"img/0898/a8f16b02-e19f-423b-86c3-a36562ae1f9b.jpg\",\"img/0868/4a8a45ed-2c4f-421b-9564-409a33ecd26c.jpg\"]","trial_type":"similarity","trial_index":180,"time_elapsed":3527725,"internal_node_id":"0.0-6.0-174.0"},{"sim_score":5,"rt":3957,"stimulus":"[\"img/0864/ea327690-500b-4137-bf91-451b309fe6a5.jpg\",\"img/0864/e336a4c5-6648-4fd7-b2f6-93a3fb83f8c6.jpg\"]","trial_type":"similarity","trial_index":181,"time_elapsed":3532690,"internal_node_id":"0.0-6.0-175.0"},{"sim_score":6,"rt":4359,"stimulus":"[\"img/0899/9de5e857-aa9a-4e0c-8ba2-46d79bd069a4.jpg\",\"img/0862/99a99e39-8355-44ec-b993-e7bcec111e1c.jpg\"]","trial_type":"similarity","trial_index":182,"time_elapsed":3538063,"internal_node_id":"0.0-6.0-176.0"},{"sim_score":1,"rt":3785,"stimulus":"[\"img/0875/d59ff733-eaff-4ee2-9443-06954dd0bcb6.jpg\",\"img/0758/6e95579b-5166-487c-b8cb-e417c6a218e3.jpg\"]","trial_type":"similarity","trial_index":183,"time_elapsed":3542855,"internal_node_id":"0.0-6.0-177.0"},{"sim_score":1,"rt":3172,"stimulus":"[\"img/0866/11a1d141-be5e-443c-98c1-a9d4d9e3dec0.jpg\",\"img/0901/5b97abf9-f0c8-4fd1-b921-36d574779078.jpg\"]","trial_type":"similarity","trial_index":184,"time_elapsed":3547040,"internal_node_id":"0.0-6.0-178.0"},{"sim_score":5,"rt":4073,"stimulus":"[\"img/0769/aad494cc-674d-4a08-9bfa-24a88ebe3c79.jpg\",\"img/0874/8cdb1c07-1c32-46d2-981c-3636560fa6e5.jpg\"]","trial_type":"similarity","trial_index":185,"time_elapsed":3552123,"internal_node_id":"0.0-6.0-179.0"},{"sim_score":1,"rt":4004,"stimulus":"[\"img/0875/90da8d75-108a-44ad-b999-e21fee3860d3.jpg\",\"img/0881/4da99fdd-1f40-4bbb-8e21-8833eef313f5.jpg\"]","trial_type":"similarity","trial_index":186,"time_elapsed":3557133,"internal_node_id":"0.0-6.0-180.0"},{"sim_score":7,"rt":3343,"stimulus":"[\"img/0866/0207e9a2-7dbb-40b5-9459-b472aaeceb2a.jpg\",\"img/0868/5fa7f9d0-f0e5-454c-8224-74d964818f56.jpg\"]","trial_type":"similarity","trial_index":187,"time_elapsed":3561493,"internal_node_id":"0.0-6.0-181.0"},{"sim_score":6,"rt":6177,"stimulus":"[\"img/0899/a05bea16-2bb4-4cb9-b8fb-4ff975db6971.jpg\",\"img/0758/d540bee6-b460-4c32-ac57-bc282742d7d4.jpg\"]","trial_type":"similarity","trial_index":188,"time_elapsed":3568690,"internal_node_id":"0.0-6.0-182.0"},{"sim_score":1,"rt":3529,"stimulus":"[\"img/0874/a82926a3-0b43-4add-803c-d5f9ea7798ee.jpg\",\"img/0875/5a716432-c6ca-4b1c-955a-2b8ac25198ee.jpg\"]","trial_type":"similarity","trial_index":189,"time_elapsed":3573223,"internal_node_id":"0.0-6.0-183.0"},{"sim_score":5,"rt":4136,"stimulus":"[\"img/0904/0d17b811-063e-416e-a23c-3b3cfa4fcce5.jpg\",\"img/0862/cdaed51d-9e2f-4807-801a-4663c40077e2.jpg\"]","trial_type":"similarity","trial_index":190,"time_elapsed":3578373,"internal_node_id":"0.0-6.0-184.0"},{"sim_score":3,"rt":4939,"stimulus":"[\"img/0902/a6fb6dd5-696c-47ec-be7d-d7b88f1544f1.jpg\",\"img/0766/2da002a4-05c9-4f5c-9ed7-433b4183e273.jpg\"]","trial_type":"similarity","trial_index":191,"time_elapsed":3584321,"internal_node_id":"0.0-6.0-185.0"},{"sim_score":2,"rt":5172,"stimulus":"[\"img/0758/e1ba5e53-addc-436a-b428-d34fc1b130dc.jpg\",\"img/0769/f2740c58-7c02-433f-920b-746b0b75435b.jpg\"]","trial_type":"similarity","trial_index":192,"time_elapsed":3590503,"internal_node_id":"0.0-6.0-186.0"},{"sim_score":6,"rt":4142,"stimulus":"[\"img/0881/44e09805-5a25-4f17-a716-4ad4a331b174.jpg\",\"img/0881/19e82c47-8e4b-45d2-a6c8-74181eb4155e.jpg\"]","trial_type":"similarity","trial_index":193,"time_elapsed":3595669,"internal_node_id":"0.0-6.0-187.0"},{"sim_score":1,"rt":3319,"stimulus":"[\"img/0758/7ee8bc8f-c40b-4b3a-84ec-3e83580622d4.jpg\",\"img/0866/23a224f3-2012-4fc8-8e0f-3c36f8de27fd.jpg\"]","trial_type":"similarity","trial_index":194,"time_elapsed":3599991,"internal_node_id":"0.0-6.0-188.0"},{"sim_score":2,"rt":4358,"stimulus":"[\"img/0764/fb7d4a20-a475-465e-a74f-aa39a0d33d16.jpg\",\"img/0898/0c7dde4f-efce-4b7a-9387-6921635b7890.jpg\"]","trial_type":"similarity","trial_index":195,"time_elapsed":3605363,"internal_node_id":"0.0-6.0-189.0"},{"sim_score":2,"rt":4126,"stimulus":"[\"img/0903/6378ee1e-3d2b-48d2-87be-bebda32c8268.jpg\",\"img/0901/693e0535-ef7e-4d60-af9d-fac2f38e8307.jpg\"]","trial_type":"similarity","trial_index":196,"time_elapsed":3610506,"internal_node_id":"0.0-6.0-190.0"},{"sim_score":6,"rt":4929,"stimulus":"[\"img/0902/12452bb1-b8c0-4e4d-ad4d-47e279e5933c.jpg\",\"img/0898/81b08535-2020-4c15-9ce4-2f1e460755ae.jpg\"]","trial_type":"similarity","trial_index":197,"time_elapsed":3616458,"internal_node_id":"0.0-6.0-191.0"},{"sim_score":1,"rt":4409,"stimulus":"[\"img/0864/b3c4e378-28f0-4699-9338-2a257b4bca04.jpg\",\"img/0901/1e23ffbd-19de-4c4f-aa23-c54aaa3319a3.jpg\"]","trial_type":"similarity","trial_index":198,"time_elapsed":3621876,"internal_node_id":"0.0-6.0-192.0"},{"sim_score":1,"rt":4173,"stimulus":"[\"img/0894/9b1333fd-3561-43bf-aee5-99b7b7ca3dc3.jpg\",\"img/0881/5fe04dd0-5c74-47b7-99c8-b068db9ca26a.jpg\"]","trial_type":"similarity","trial_index":199,"time_elapsed":3627055,"internal_node_id":"0.0-6.0-193.0"},{"sim_score":7,"rt":2609,"stimulus":"[\"img/0868/4bd5105a-d2c3-4f82-8c80-57196106ba53.jpg\",\"img/0868/e0aff734-077f-40dd-9781-74821abd3621.jpg\"]","trial_type":"similarity","trial_index":200,"time_elapsed":3630674,"internal_node_id":"0.0-6.0-194.0"},{"sim_score":6,"rt":5800,"stimulus":"[\"img/0899/06b0fc99-0581-461a-9913-d1a5a941ac61.jpg\",\"img/0764/6fbd1902-fa2a-48d8-bc11-705b8ab68d8f.jpg\"]","trial_type":"similarity","trial_index":201,"time_elapsed":3637480,"internal_node_id":"0.0-6.0-195.0"},{"sim_score":6,"rt":4489,"stimulus":"[\"img/0881/14236cf2-6b95-48b8-9368-78af09d2d27f.jpg\",\"img/0904/24fc38fe-842c-4831-ad8a-b1de5c25c0a8.jpg\"]","trial_type":"similarity","trial_index":202,"time_elapsed":3642975,"internal_node_id":"0.0-6.0-196.0"},{"sim_score":7,"rt":5172,"stimulus":"[\"img/0864/0116ca98-293d-4fa6-a93b-5a6144ef64cc.jpg\",\"img/0902/82d20e8c-2162-47a6-925b-52906558c046.jpg\"]","trial_type":"similarity","trial_index":203,"time_elapsed":3649157,"internal_node_id":"0.0-6.0-197.0"},{"sim_score":6,"rt":3906,"stimulus":"[\"img/0894/661b9f9f-4bde-487a-b1ed-87085fde6948.jpg\",\"img/0904/6291eb43-c10c-4810-a36a-101d09868b04.jpg\"]","trial_type":"similarity","trial_index":204,"time_elapsed":3654073,"internal_node_id":"0.0-6.0-198.0"},{"sim_score":7,"rt":2823,"stimulus":"[\"img/0901/a0d65c84-3f20-476a-92d1-0c01e8019cf4.jpg\",\"img/0901/d61f267a-c492-4db6-9bfb-61efd49cf072.jpg\"]","trial_type":"similarity","trial_index":205,"time_elapsed":3657919,"internal_node_id":"0.0-6.0-199.0"},{"sim_score":1,"rt":4424,"stimulus":"[\"img/0894/7dd6ff43-f8fc-408a-8a41-a2b261871820.jpg\",\"img/0860/c7047cd2-7cc1-41b6-8a34-c0986774975f.jpg\"]","trial_type":"similarity","trial_index":206,"time_elapsed":3663361,"internal_node_id":"0.0-6.0-200.0"},{"sim_score":7,"rt":3069,"stimulus":"[\"img/0898/4184e5a2-84ea-4f36-9b42-ae58646f6f87.jpg\",\"img/0903/f45a103c-9bfe-49fd-ad96-bdd8d2589195.jpg\"]","trial_type":"similarity","trial_index":207,"time_elapsed":3667444,"internal_node_id":"0.0-6.0-201.0"},{"sim_score":5,"rt":4405,"stimulus":"[\"img/0864/0f537697-a314-47c3-a8cc-8df23b7e536c.jpg\",\"img/0894/a98416c0-51e2-4960-85da-d81d8688b9d5.jpg\"]","trial_type":"similarity","trial_index":208,"time_elapsed":3672862,"internal_node_id":"0.0-6.0-202.0"},{"sim_score":2,"rt":4476,"stimulus":"[\"img/0874/767f289c-9814-4496-803f-745cc8913d1f.jpg\",\"img/0860/f44ba3fb-03a2-42f0-8509-2c1ded493086.jpg\"]","trial_type":"similarity","trial_index":209,"time_elapsed":3678359,"internal_node_id":"0.0-6.0-203.0"},{"sim_score":1,"rt":2745,"stimulus":"[\"img/0862/ee3b7bff-4a70-4e84-9bea-4a565e456acb.jpg\",\"img/0875/3ecb367d-e9eb-4826-8aaa-7aa72fb98019.jpg\"]","trial_type":"similarity","trial_index":210,"time_elapsed":3682115,"internal_node_id":"0.0-6.0-204.0"},{"sim_score":1,"rt":2311,"stimulus":"[\"img/0867/db7e032f-162b-46f5-ae67-2b29679adee4.jpg\",\"img/0881/dea58fad-b4f1-41d9-bd3f-916eff19a3fd.jpg\"]","trial_type":"similarity","trial_index":211,"time_elapsed":3685441,"internal_node_id":"0.0-6.0-205.0"},{"sim_score":5,"rt":3979,"stimulus":"[\"img/0901/3db47171-0139-4235-82cd-0b1787b6775f.jpg\",\"img/0902/e5a46bda-30d1-41ca-b36d-b8529b5a63d1.jpg\"]","trial_type":"similarity","trial_index":212,"time_elapsed":3690430,"internal_node_id":"0.0-6.0-206.0"},{"sim_score":5,"rt":3915,"stimulus":"[\"img/0899/7f9d45d0-b2c6-40d3-aa41-c207db2c411b.jpg\",\"img/0864/a248adb3-c70b-4652-b7a3-776d2a1e904b.jpg\"]","trial_type":"similarity","trial_index":213,"time_elapsed":3695350,"internal_node_id":"0.0-6.0-207.0"},{"sim_score":1,"rt":4751,"stimulus":"[\"img/0901/71e551a2-9ce2-409c-9c7c-dd556a0791e9.jpg\",\"img/0769/82ab9db6-4578-4e79-874f-f09100439f09.jpg\"]","trial_type":"similarity","trial_index":214,"time_elapsed":3701104,"internal_node_id":"0.0-6.0-208.0"},{"sim_score":6,"rt":5682,"stimulus":"[\"img/0902/30c420f5-c714-4681-ae5a-c0ba8f636a26.jpg\",\"img/0902/0c760cc9-10ac-429e-8957-a7d51fc99683.jpg\"]","trial_type":"similarity","trial_index":215,"time_elapsed":3710091,"internal_node_id":"0.0-6.0-209.0"},{"view_history":"[{\"page_index\":0,\"viewing_time\":4803}]","rt":4804,"trial_type":"instructions","trial_index":216,"time_elapsed":3715898,"internal_node_id":"0.0-7.0"},{"rt":35217,"responses":"{\"Q0\":\"Nashville Warbler\"}","answer":["Nashville Warbler"],"trial_type":"image-multi-choice","trial_index":217,"time_elapsed":3752143,"internal_node_id":"0.0-8.0-0.0"},{"rt":14718,"responses":"{\"Q0\":\"Black-and-white Warbler\"}","answer":["Black-and-white Warbler"],"trial_type":"image-multi-choice","trial_index":218,"time_elapsed":3767882,"internal_node_id":"0.0-8.0-1.0"},{"rt":10911,"responses":"{\"Q0\":\"Magnolia Warbler\"}","answer":["Townsend's Warbler"],"trial_type":"image-multi-choice","trial_index":219,"time_elapsed":3779810,"internal_node_id":"0.0-8.0-2.0"},{"rt":16956,"responses":"{\"Q0\":\"Vesper Sparrow\"}","answer":["Lark Sparrow"],"trial_type":"image-multi-choice","trial_index":220,"time_elapsed":3797789,"internal_node_id":"0.0-8.0-3.0"},{"rt":2333,"responses":"{\"Q0\":\"Yellow Warbler\"}","answer":["Yellow Warbler"],"trial_type":"image-multi-choice","trial_index":221,"time_elapsed":3801145,"internal_node_id":"0.0-8.0-4.0"},{"rt":7207,"responses":"{\"Q0\":\"Nashville Warbler\"}","answer":["Orange-crowned Warbler"],"trial_type":"image-multi-choice","trial_index":222,"time_elapsed":3809393,"internal_node_id":"0.0-8.0-5.0"},{"rt":4747,"responses":"{\"Q0\":\"White-throated Sparrow\"}","answer":["White-throated Sparrow"],"trial_type":"image-multi-choice","trial_index":223,"time_elapsed":3815167,"internal_node_id":"0.0-8.0-6.0"},{"rt":3534,"responses":"{\"Q0\":\"Fox Sparrow\"}","answer":["Fox Sparrow"],"trial_type":"image-multi-choice","trial_index":224,"time_elapsed":3819727,"internal_node_id":"0.0-8.0-7.0"},{"rt":18109,"responses":"{\"Q0\":\"Song Sparrow\"}","answer":["Song Sparrow"],"trial_type":"image-multi-choice","trial_index":225,"time_elapsed":3838849,"internal_node_id":"0.0-8.0-8.0"},{"rt":14763,"responses":"{\"Q0\":\"Blackburnian Warbler\"}","answer":["Blackburnian Warbler"],"trial_type":"image-multi-choice","trial_index":226,"time_elapsed":3854635,"internal_node_id":"0.0-8.0-9.0"},{"rt":14303,"responses":"{\"Q0\":\"Swamp Sparrow\"}","answer":["Vesper Sparrow"],"trial_type":"image-multi-choice","trial_index":227,"time_elapsed":3869962,"internal_node_id":"0.0-8.0-10.0"},{"rt":4718,"responses":"{\"Q0\":\"White-crowned Sparrow\"}","answer":["White-crowned Sparrow"],"trial_type":"image-multi-choice","trial_index":228,"time_elapsed":3875692,"internal_node_id":"0.0-8.0-11.0"},{"rt":11734,"responses":"{\"Q0\":\"American Tree Sparrow\"}","answer":["American Tree Sparrow"],"trial_type":"image-multi-choice","trial_index":229,"time_elapsed":3888443,"internal_node_id":"0.0-8.0-12.0"},{"rt":13754,"responses":"{\"Q0\":\"Orange-crowned Warbler\"}","answer":["Tennessee Warbler"],"trial_type":"image-multi-choice","trial_index":230,"time_elapsed":3903230,"internal_node_id":"0.0-8.0-13.0"},{"rt":17373,"responses":"{\"Q0\":\"Magnolia Warbler\"}","answer":["Magnolia Warbler"],"trial_type":"image-multi-choice","trial_index":231,"time_elapsed":3921630,"internal_node_id":"0.0-8.0-14.0"},{"rt":10778,"responses":"{\"Q0\":\"Northern Waterthrush\"}","answer":["Northern Waterthrush"],"trial_type":"image-multi-choice","trial_index":232,"time_elapsed":3933431,"internal_node_id":"0.0-8.0-15.0"},{"rt":9151,"responses":"{\"Q0\":\"Chipping Sparrow\"}","answer":["Chipping Sparrow"],"trial_type":"image-multi-choice","trial_index":233,"time_elapsed":3943612,"internal_node_id":"0.0-8.0-16.0"},{"rt":7931,"responses":"{\"Q0\":\"Lark Sparrow\"}","answer":["Swamp Sparrow"],"trial_type":"image-multi-choice","trial_index":234,"time_elapsed":3952563,"internal_node_id":"0.0-8.0-17.0"},{"rt":6431,"responses":"{\"Q0\":\"Song Sparrow\"}","answer":["Lincoln's Sparrow"],"trial_type":"image-multi-choice","trial_index":235,"time_elapsed":3960029,"internal_node_id":"0.0-8.0-18.0"},{"rt":6974,"responses":"{\"Q0\":\"Ovenbird\"}","answer":["Ovenbird"],"trial_type":"image-multi-choice","trial_index":236,"time_elapsed":3968030,"internal_node_id":"0.0-8.0-19.0"}]