[{"view_history":"[{\"page_index\":0,\"viewing_time\":17874}]","rt":17874,"trial_type":"instructions","trial_index":0,"time_elapsed":17874,"internal_node_id":"0.0-0.0"},{"sim_score":5,"rt":6928,"stimulus":"[\"img/866.jpg\",\"img/868.jpg\"]","trial_type":"similarity_demo","trial_index":1,"time_elapsed":25827,"internal_node_id":"0.0-1.0"},{"view_history":"[{\"page_index\":0,\"viewing_time\":6776}]","rt":6776,"trial_type":"instructions","trial_index":2,"time_elapsed":33617,"internal_node_id":"0.0-2.0"},{"sim_score":3,"rt":5047,"stimulus":"[\"img/766.jpg\",\"img/867.jpg\"]","trial_type":"similarity_demo","trial_index":3,"time_elapsed":39674,"internal_node_id":"0.0-3.0"},{"view_history":"[{\"page_index\":0,\"viewing_time\":5054}]","rt":5054,"trial_type":"instructions","trial_index":4,"time_elapsed":45734,"internal_node_id":"0.0-4.0"},{"view_history":"[{\"page_index\":0,\"viewing_time\":12775}]","rt":12775,"trial_type":"instructions","trial_index":5,"time_elapsed":59537,"internal_node_id":"0.0-5.0"},{"sim_score":2,"rt":3719,"stimulus":"[\"img/0868/15dd6fd7-791e-4b53-b203-195d617521a4.jpg\",\"img/0901/deff6cfb-0072-4490-bc3e-206bbcd3e8bf.jpg\"]","trial_type":"similarity","trial_index":6,"time_elapsed":64274,"internal_node_id":"0.0-6.0-0.0"},{"sim_score":3,"rt":4080,"stimulus":"[\"img/0769/11518cb3-13ea-4dd0-890c-30cfab728ade.jpg\",\"img/0867/26611f4e-d694-4460-b7e2-43c62753ddc3.jpg\"]","trial_type":"similarity","trial_index":7,"time_elapsed":69369,"internal_node_id":"0.0-6.0-1.0"},{"sim_score":3,"rt":4161,"stimulus":"[\"img/0766/d50d734f-285c-4840-bc7a-c8dd4aff391e.jpg\",\"img/0898/b3290bf9-215b-4b45-b21a-65bdf73f142f.jpg\"]","trial_type":"similarity","trial_index":8,"time_elapsed":74553,"internal_node_id":"0.0-6.0-2.0"},{"sim_score":3,"rt":3119,"stimulus":"[\"img/0902/d5e25767-e8ec-45f3-ac0a-7b4a6f7a9edc.jpg\",\"img/0881/4da99fdd-1f40-4bbb-8e21-8833eef313f5.jpg\"]","trial_type":"similarity","trial_index":9,"time_elapsed":78690,"internal_node_id":"0.0-6.0-3.0"},{"sim_score":6,"rt":3992,"stimulus":"[\"img/0894/5ff3c4f6-52e2-4075-8679-be0312e59703.jpg\",\"img/0894/3664e04c-c6d3-4c9b-afb6-25d89974b174.jpg\"]","trial_type":"similarity","trial_index":10,"time_elapsed":83698,"internal_node_id":"0.0-6.0-4.0"},{"sim_score":3,"rt":3054,"stimulus":"[\"img/0874/1016b306-087c-4afc-aa08-fa527b28dc76.jpg\",\"img/0899/7f9d45d0-b2c6-40d3-aa41-c207db2c411b.jpg\"]","trial_type":"similarity","trial_index":11,"time_elapsed":87793,"internal_node_id":"0.0-6.0-5.0"},{"sim_score":5,"rt":2995,"stimulus":"[\"img/0904/2c98dc56-88d1-4fb5-a999-b6a7861f65f0.jpg\",\"img/0764/f713847b-4832-42d1-8fb3-e17e37fd745c.jpg\"]","trial_type":"similarity","trial_index":12,"time_elapsed":91801,"internal_node_id":"0.0-6.0-6.0"},{"sim_score":4,"rt":3000,"stimulus":"[\"img/0899/d8f2dd94-570e-4e8c-a087-d96090fb9e8c.jpg\",\"img/0898/82231d4c-218b-4d0a-b50d-35a49b524e97.jpg\"]","trial_type":"similarity","trial_index":13,"time_elapsed":95817,"internal_node_id":"0.0-6.0-7.0"},{"sim_score":3,"rt":4119,"stimulus":"[\"img/0874/adf9a8f1-c40b-402b-b95b-1e85a54a7b62.jpg\",\"img/0903/e2e55a9e-0397-4dc0-8adf-4a54cfefe1fe.jpg\"]","trial_type":"similarity","trial_index":14,"time_elapsed":100946,"internal_node_id":"0.0-6.0-8.0"},{"sim_score":3,"rt":3299,"stimulus":"[\"img/0881/62a64f90-7a72-4aee-a1a1-0c548ac9bdda.jpg\",\"img/0758/d540bee6-b460-4c32-ac57-bc282742d7d4.jpg\"]","trial_type":"similarity","trial_index":15,"time_elapsed":105267,"internal_node_id":"0.0-6.0-9.0"},{"sim_score":6,"rt":3255,"stimulus":"[\"img/0898/a8f16b02-e19f-423b-86c3-a36562ae1f9b.jpg\",\"img/0901/0adb3bd6-d758-4ba7-9723-3ad6cac05bd5.jpg\"]","trial_type":"similarity","trial_index":16,"time_elapsed":109538,"internal_node_id":"0.0-6.0-10.0"},{"sim_score":5,"rt":3183,"stimulus":"[\"img/0903/5c6b1f57-b3a2-40f5-9fb1-82785e24b6a0.jpg\",\"img/0769/82ab9db6-4578-4e79-874f-f09100439f09.jpg\"]","trial_type":"similarity","trial_index":17,"time_elapsed":113741,"internal_node_id":"0.0-6.0-11.0"},{"sim_score":3,"rt":3081,"stimulus":"[\"img/0764/d0bef2e0-e16b-4c82-9451-c1d16265eb67.jpg\",\"img/0868/4a8a45ed-2c4f-421b-9564-409a33ecd26c.jpg\"]","trial_type":"similarity","trial_index":18,"time_elapsed":117826,"internal_node_id":"0.0-6.0-12.0"},{"sim_score":1,"rt":3462,"stimulus":"[\"img/0867/179ab87a-8eac-4c52-a41f-2e48e3120f09.jpg\",\"img/0903/8c358e9e-a4f4-466e-8b93-7aec0d2358e8.jpg\"]","trial_type":"similarity","trial_index":19,"time_elapsed":122298,"internal_node_id":"0.0-6.0-13.0"},{"sim_score":1,"rt":2856,"stimulus":"[\"img/0766/0b48f9e0-7d37-4161-8adb-4e3f5b6b7583.jpg\",\"img/0758/e38fd80d-18d0-42f3-b848-f930788e8bd7.jpg\"]","trial_type":"similarity","trial_index":20,"time_elapsed":126162,"internal_node_id":"0.0-6.0-14.0"},{"sim_score":3,"rt":3164,"stimulus":"[\"img/0902/22ed3536-288b-452e-9777-0fa0ab94deb0.jpg\",\"img/0860/e14d67c1-6d92-4f1e-9257-c8607159c19c.jpg\"]","trial_type":"similarity","trial_index":21,"time_elapsed":130338,"internal_node_id":"0.0-6.0-15.0"},{"sim_score":2,"rt":2664,"stimulus":"[\"img/0769/a3cfbdeb-acb3-4eac-87fb-4b117f42d4f8.jpg\",\"img/0875/a4935837-7d3c-4df6-88c1-36a94d4991ca.jpg\"]","trial_type":"similarity","trial_index":22,"time_elapsed":134018,"internal_node_id":"0.0-6.0-16.0"},{"sim_score":2,"rt":2419,"stimulus":"[\"img/0904/6291eb43-c10c-4810-a36a-101d09868b04.jpg\",\"img/0866/c446214b-a368-4c65-ae39-ea46894256ab.jpg\"]","trial_type":"similarity","trial_index":23,"time_elapsed":137458,"internal_node_id":"0.0-6.0-17.0"},{"sim_score":6,"rt":3658,"stimulus":"[\"img/0875/527ced51-8e53-4aab-ab05-86df219104c0.jpg\",\"img/0875/5a1e5100-0d94-4fec-bbe9-ca9894d2cf8e.jpg\"]","trial_type":"similarity","trial_index":24,"time_elapsed":142139,"internal_node_id":"0.0-6.0-18.0"},{"sim_score":5,"rt":3333,"stimulus":"[\"img/0758/a085b443-b5d7-4cb2-9ad4-b9dab0fc23f1.jpg\",\"img/0758/53f35650-e455-4b53-8be4-c3c8271c6466.jpg\"]","trial_type":"similarity","trial_index":25,"time_elapsed":146490,"internal_node_id":"0.0-6.0-19.0"},{"sim_score":2,"rt":2772,"stimulus":"[\"img/0902/94ee9c53-a9a2-4f95-b9b7-794a5fc62bb6.jpg\",\"img/0874/8cdb1c07-1c32-46d2-981c-3636560fa6e5.jpg\"]","trial_type":"similarity","trial_index":26,"time_elapsed":150274,"internal_node_id":"0.0-6.0-20.0"},{"sim_score":5,"rt":3235,"stimulus":"[\"img/0764/1f95ab5f-fb65-4d70-b5db-d6bd6351a8aa.jpg\",\"img/0769/3c1efec9-f8fd-487d-8955-4be88e48c832.jpg\"]","trial_type":"similarity","trial_index":27,"time_elapsed":154530,"internal_node_id":"0.0-6.0-21.0"},{"sim_score":1,"rt":2574,"stimulus":"[\"img/0901/6e2957f8-f5ab-46f4-87cc-bb50155a098b.jpg\",\"img/0874/3f471690-9788-4d03-90c7-f615aecef149.jpg\"]","trial_type":"similarity","trial_index":28,"time_elapsed":158113,"internal_node_id":"0.0-6.0-22.0"},{"sim_score":1,"rt":2453,"stimulus":"[\"img/0875/d59ff733-eaff-4ee2-9443-06954dd0bcb6.jpg\",\"img/0903/c708d08f-a108-4e04-8288-c3fcf6375db4.jpg\"]","trial_type":"similarity","trial_index":29,"time_elapsed":161577,"internal_node_id":"0.0-6.0-23.0"},{"sim_score":3,"rt":3447,"stimulus":"[\"img/0769/965c3c44-d9e5-47c5-b61a-2bbdf4215d9a.jpg\",\"img/0881/84397291-bc14-4fbf-90e8-241e486ab0fe.jpg\"]","trial_type":"similarity","trial_index":30,"time_elapsed":166033,"internal_node_id":"0.0-6.0-24.0"},{"sim_score":2,"rt":2578,"stimulus":"[\"img/0867/f8159067-056c-41f1-a136-c529fe5e970a.jpg\",\"img/0904/60d1a521-edf7-4696-9263-f21ac0e62a01.jpg\"]","trial_type":"similarity","trial_index":31,"time_elapsed":169625,"internal_node_id":"0.0-6.0-25.0"},{"sim_score":5,"rt":3094,"stimulus":"[\"img/0860/29a21a9f-54bb-4093-ad3f-04823ceaa89f.jpg\",\"img/0881/f037e3b0-09cb-4a83-b2d9-6a71fe474e63.jpg\"]","trial_type":"similarity","trial_index":32,"time_elapsed":173731,"internal_node_id":"0.0-6.0-26.0"},{"sim_score":5,"rt":3206,"stimulus":"[\"img/0866/620cd1aa-0800-4414-8f6e-90342e7a99ad.jpg\",\"img/0866/07c9c966-3c8d-40e7-8128-92b2acbaed5d.jpg\"]","trial_type":"similarity","trial_index":33,"time_elapsed":177945,"internal_node_id":"0.0-6.0-27.0"},{"sim_score":2,"rt":2405,"stimulus":"[\"img/0764/ba0c0955-acbb-457d-b1c2-f006b88121d5.jpg\",\"img/0862/fad1d7c1-8187-43c3-942a-0fc12183e48e.jpg\"]","trial_type":"similarity","trial_index":34,"time_elapsed":181369,"internal_node_id":"0.0-6.0-28.0"},{"sim_score":2,"rt":2627,"stimulus":"[\"img/0904/5aec2708-cf14-4a58-aa30-9a8a61c1be0e.jpg\",\"img/0758/2fa3e613-e676-4e6e-bd12-705327eeb3e1.jpg\"]","trial_type":"similarity","trial_index":35,"time_elapsed":185009,"internal_node_id":"0.0-6.0-29.0"},{"sim_score":5,"rt":2673,"stimulus":"[\"img/0894/86201968-6e78-4d68-9b3a-d1692e066210.jpg\",\"img/0899/ddf96ade-692e-4602-bd22-dedbb46401bc.jpg\"]","trial_type":"similarity","trial_index":36,"time_elapsed":188689,"internal_node_id":"0.0-6.0-30.0"},{"sim_score":4,"rt":3135,"stimulus":"[\"img/0860/c47fdead-eb02-4989-b078-26f4852f44fe.jpg\",\"img/0904/4b8daf2a-13a9-4ea9-9e0b-b265b6e933e7.jpg\"]","trial_type":"similarity","trial_index":37,"time_elapsed":192833,"internal_node_id":"0.0-6.0-31.0"},{"sim_score":7,"rt":3223,"stimulus":"[\"img/0874/31e22c7c-99aa-40b1-bf03-dd73fa2df4d6.jpg\",\"img/0881/dea58fad-b4f1-41d9-bd3f-916eff19a3fd.jpg\"]","trial_type":"similarity","trial_index":38,"time_elapsed":197073,"internal_node_id":"0.0-6.0-32.0"},{"sim_score":3,"rt":2769,"stimulus":"[\"img/0881/c24f3051-eefa-42de-aba6-fccb56d93c70.jpg\",\"img/0899/a048912c-b12c-40e3-90af-46b69b0cc4fe.jpg\"]","trial_type":"similarity","trial_index":39,"time_elapsed":200857,"internal_node_id":"0.0-6.0-33.0"},{"sim_score":4,"rt":3571,"stimulus":"[\"img/0866/9b38d691-1802-4959-ab3f-fc902f0e4ea6.jpg\",\"img/0862/ba89835a-408c-480b-8594-ed4ffa97eb5c.jpg\"]","trial_type":"similarity","trial_index":40,"time_elapsed":205440,"internal_node_id":"0.0-6.0-34.0"},{"sim_score":2,"rt":2816,"stimulus":"[\"img/0868/e0aff734-077f-40dd-9781-74821abd3621.jpg\",\"img/0894/1a010553-d598-4b06-a772-81f1e7b3addb.jpg\"]","trial_type":"similarity","trial_index":41,"time_elapsed":209265,"internal_node_id":"0.0-6.0-35.0"},{"sim_score":7,"rt":3006,"stimulus":"[\"img/0860/4c530c3c-6aab-492a-94d1-9c01797bde40.jpg\",\"img/0860/fd4662f9-4c03-4d79-8593-06735e55a64b.jpg\"]","trial_type":"similarity","trial_index":42,"time_elapsed":213289,"internal_node_id":"0.0-6.0-36.0"},{"sim_score":4,"rt":3808,"stimulus":"[\"img/0862/1c20f772-3a51-4a80-aac0-f57dc9f86c28.jpg\",\"img/0864/1d15626a-2f7c-410f-819c-0fa2c967e95e.jpg\"]","trial_type":"similarity","trial_index":43,"time_elapsed":218105,"internal_node_id":"0.0-6.0-37.0"},{"sim_score":2,"rt":2991,"stimulus":"[\"img/0766/00891401-e4c9-4ce1-bc19-f70740d174bc.jpg\",\"img/0866/8efcaa46-83ab-4dee-a35f-850402aa21ae.jpg\"]","trial_type":"similarity","trial_index":44,"time_elapsed":222105,"internal_node_id":"0.0-6.0-38.0"},{"sim_score":2,"rt":2240,"stimulus":"[\"img/0875/90da8d75-108a-44ad-b999-e21fee3860d3.jpg\",\"img/0898/79233891-305a-4a6a-8ddf-5c8604858203.jpg\"]","trial_type":"similarity","trial_index":45,"time_elapsed":225353,"internal_node_id":"0.0-6.0-39.0"},{"sim_score":5,"rt":2901,"stimulus":"[\"img/0766/2746b119-4bba-463e-acf0-88136dc6600c.jpg\",\"img/0769/6c0bac4c-5f59-43c7-898c-3ca93cf55cfe.jpg\"]","trial_type":"similarity","trial_index":46,"time_elapsed":229265,"internal_node_id":"0.0-6.0-40.0"},{"sim_score":3,"rt":2888,"stimulus":"[\"img/0874/29830da7-be5f-44e5-b141-652a0ccf7269.jpg\",\"img/0764/cffc80b0-4a90-4acb-a530-6f480f3ca303.jpg\"]","trial_type":"similarity","trial_index":47,"time_elapsed":238936,"internal_node_id":"0.0-6.0-41.0"},{"sim_score":2,"rt":2318,"stimulus":"[\"img/0868/77091fc7-a590-4ebb-b915-fdb2483a2399.jpg\",\"img/0902/418b716e-63e5-4c77-93e9-95b1f5a3ddf0.jpg\"]","trial_type":"similarity","trial_index":48,"time_elapsed":242264,"internal_node_id":"0.0-6.0-42.0"},{"sim_score":2,"rt":2424,"stimulus":"[\"img/0875/fb732ab5-013a-4366-9f65-27811ed157e9.jpg\",\"img/0899/d60714ae-98d7-4564-8c98-94dba1351135.jpg\"]","trial_type":"similarity","trial_index":49,"time_elapsed":245704,"internal_node_id":"0.0-6.0-43.0"},{"sim_score":2,"rt":2415,"stimulus":"[\"img/0866/945c6710-d15b-4a5b-a8f6-69af0850357f.jpg\",\"img/0860/4a022222-056d-461c-ab02-39fac9647552.jpg\"]","trial_type":"similarity","trial_index":50,"time_elapsed":249152,"internal_node_id":"0.0-6.0-44.0"},{"sim_score":5,"rt":2478,"stimulus":"[\"img/0766/c23b5a20-e50f-4d85-841f-cf89212a4348.jpg\",\"img/0903/bf0a7d60-eca5-44b0-bafd-baf21db9904b.jpg\"]","trial_type":"similarity","trial_index":51,"time_elapsed":252641,"internal_node_id":"0.0-6.0-45.0"},{"sim_score":5,"rt":2697,"stimulus":"[\"img/0901/0f670aef-ac36-496d-8142-ee5fdb21dd82.jpg\",\"img/0904/ba8e689e-9ca6-4608-a2a1-3b0940666ae6.jpg\"]","trial_type":"similarity","trial_index":52,"time_elapsed":256344,"internal_node_id":"0.0-6.0-46.0"},{"sim_score":2,"rt":3113,"stimulus":"[\"img/0758/a709631e-3705-4725-ac40-f0d916924f08.jpg\",\"img/0902/71c03003-03ef-4b0f-8229-e0c857150a5d.jpg\"]","trial_type":"similarity","trial_index":53,"time_elapsed":260473,"internal_node_id":"0.0-6.0-47.0"},{"sim_score":6,"rt":3800,"stimulus":"[\"img/0764/a3226bc4-dcc3-4608-bde8-1414d685ce5c.jpg\",\"img/0764/bd2eaa3e-95a9-4a59-a78e-3f81c766eea9.jpg\"]","trial_type":"similarity","trial_index":54,"time_elapsed":265288,"internal_node_id":"0.0-6.0-48.0"},{"sim_score":2,"rt":2268,"stimulus":"[\"img/0866/d493a2c8-66eb-44b4-be02-2f327b700b7c.jpg\",\"img/0902/04a6ad4a-afc6-4871-8225-56b299af7b6b.jpg\"]","trial_type":"similarity","trial_index":55,"time_elapsed":268568,"internal_node_id":"0.0-6.0-49.0"},{"sim_score":2,"rt":2407,"stimulus":"[\"img/0764/4bec8d92-75aa-475a-954d-8215dbe538f5.jpg\",\"img/0758/d41c06bf-ebaf-454b-91c6-1a17f917b659.jpg\"]","trial_type":"similarity","trial_index":56,"time_elapsed":271984,"internal_node_id":"0.0-6.0-50.0"},{"sim_score":5,"rt":2776,"stimulus":"[\"img/0898/81b08535-2020-4c15-9ce4-2f1e460755ae.jpg\",\"img/0894/792c83e9-a747-4000-bc72-5663d2439edb.jpg\"]","trial_type":"similarity","trial_index":57,"time_elapsed":275768,"internal_node_id":"0.0-6.0-51.0"},{"sim_score":5,"rt":2518,"stimulus":"[\"img/0875/dbdd643e-6d0e-4a5c-ab57-b9c29b9c981a.jpg\",\"img/0866/bf14b5bd-fb55-47db-86b9-4f8aeb9a6dad.jpg\"]","trial_type":"similarity","trial_index":58,"time_elapsed":279289,"internal_node_id":"0.0-6.0-52.0"},{"sim_score":7,"rt":3137,"stimulus":"[\"img/0904/9dd5708f-3f8b-46a9-b49f-2f2fab87b357.jpg\",\"img/0904/09dac84f-3d1c-4445-a68e-d0389fdbf1e9.jpg\"]","trial_type":"similarity","trial_index":59,"time_elapsed":283441,"internal_node_id":"0.0-6.0-53.0"},{"sim_score":6,"rt":2786,"stimulus":"[\"img/0769/db94b61b-a5a7-4861-9d32-7b02ad194fb0.jpg\",\"img/0769/8598a429-c671-4d2f-842c-32f681f5e412.jpg\"]","trial_type":"similarity","trial_index":60,"time_elapsed":287241,"internal_node_id":"0.0-6.0-54.0"},{"sim_score":1,"rt":2328,"stimulus":"[\"img/0898/b2732712-71c2-45d8-834f-2b2ed5504910.jpg\",\"img/0758/eabcd7a8-56ad-4fd2-bc24-90f6b7b33265.jpg\"]","trial_type":"similarity","trial_index":61,"time_elapsed":290579,"internal_node_id":"0.0-6.0-55.0"},{"sim_score":4,"rt":2913,"stimulus":"[\"img/0769/022c7e3b-c3f2-4119-b4bc-f22fa7cae18c.jpg\",\"img/0902/d49743d6-67ae-4c2e-a939-8fd895a0f18e.jpg\"]","trial_type":"similarity","trial_index":62,"time_elapsed":294505,"internal_node_id":"0.0-6.0-56.0"},{"sim_score":5,"rt":3810,"stimulus":"[\"img/0864/1ebbc554-99fa-49f9-8799-317375a79820.jpg\",\"img/0881/f8bd891e-aa09-4782-89db-33e7cb2b0cf1.jpg\"]","trial_type":"similarity","trial_index":63,"time_elapsed":299329,"internal_node_id":"0.0-6.0-57.0"},{"sim_score":4,"rt":2403,"stimulus":"[\"img/0758/20497cbe-ddae-489e-86e2-ab06985ed07c.jpg\",\"img/0868/c8ac40c7-6904-4e13-8d61-c75d3052dc4e.jpg\"]","trial_type":"similarity","trial_index":64,"time_elapsed":302745,"internal_node_id":"0.0-6.0-58.0"},{"sim_score":3,"rt":2509,"stimulus":"[\"img/0862/847e5208-38ec-4f36-949c-296cdd7424ee.jpg\",\"img/0769/35f2dd39-40aa-498e-b401-9f1ef2622d00.jpg\"]","trial_type":"similarity","trial_index":65,"time_elapsed":306257,"internal_node_id":"0.0-6.0-59.0"},{"sim_score":5,"rt":3431,"stimulus":"[\"img/0764/e30dba15-e68a-4659-89db-e1654b52fe02.jpg\",\"img/0903/b0df4094-a3be-4b5b-81bd-8d260f13f61b.jpg\"]","trial_type":"similarity","trial_index":66,"time_elapsed":310698,"internal_node_id":"0.0-6.0-60.0"},{"sim_score":7,"rt":2683,"stimulus":"[\"img/0899/1b3457ea-87d4-4946-a01c-aac1863ed46c.jpg\",\"img/0899/0adc0bc3-6fca-4078-be6f-d45ddf1653d5.jpg\"]","trial_type":"similarity","trial_index":67,"time_elapsed":314433,"internal_node_id":"0.0-6.0-61.0"},{"sim_score":3,"rt":3417,"stimulus":"[\"img/0860/f44ba3fb-03a2-42f0-8509-2c1ded493086.jpg\",\"img/0875/5a716432-c6ca-4b1c-955a-2b8ac25198ee.jpg\"]","trial_type":"similarity","trial_index":68,"time_elapsed":318858,"internal_node_id":"0.0-6.0-62.0"},{"sim_score":2,"rt":2365,"stimulus":"[\"img/0868/83b4350a-3b70-4cea-b7f5-b5b56f3050a8.jpg\",\"img/0874/995f0332-0439-4eb4-add3-957335dbf6d9.jpg\"]","trial_type":"similarity","trial_index":69,"time_elapsed":322241,"internal_node_id":"0.0-6.0-63.0"},{"sim_score":3,"rt":2832,"stimulus":"[\"img/0758/61d64021-9214-4951-bdf8-f871f9827cf9.jpg\",\"img/0862/7918ca67-5bd3-4606-a5ea-c39fb11a9297.jpg\"]","trial_type":"similarity","trial_index":70,"time_elapsed":326098,"internal_node_id":"0.0-6.0-64.0"},{"sim_score":5,"rt":2925,"stimulus":"[\"img/0904/da170c1b-9651-4f08-b231-2bdd1d9a046f.jpg\",\"img/0898/c3cecf20-f7fd-45fa-97d0-dc0a63e8d6c0.jpg\"]","trial_type":"similarity","trial_index":71,"time_elapsed":330033,"internal_node_id":"0.0-6.0-65.0"},{"sim_score":3,"rt":2956,"stimulus":"[\"img/0881/b549bc99-a61c-4450-bab5-9efc3a197bf0.jpg\",\"img/0866/4a87911a-d5be-4d4e-ab8e-3d1f581bf507.jpg\"]","trial_type":"similarity","trial_index":72,"time_elapsed":334009,"internal_node_id":"0.0-6.0-66.0"},{"sim_score":2,"rt":2641,"stimulus":"[\"img/0867/bf560d4f-dee3-4f11-a385-705cc1aa5f3c.jpg\",\"img/0898/224c1572-56b9-4f16-a9e4-6f3bc9c114bd.jpg\"]","trial_type":"similarity","trial_index":73,"time_elapsed":337665,"internal_node_id":"0.0-6.0-67.0"},{"sim_score":5,"rt":2739,"stimulus":"[\"img/0902/82d20e8c-2162-47a6-925b-52906558c046.jpg\",\"img/0764/c84fbfa8-521c-407a-9bd3-24f7308d896c.jpg\"]","trial_type":"similarity","trial_index":74,"time_elapsed":341418,"internal_node_id":"0.0-6.0-68.0"},{"sim_score":5,"rt":2751,"stimulus":"[\"img/0875/ebf7653f-ff45-4e9f-af58-2c042ab3cd2b.jpg\",\"img/0867/85a96c62-548f-4994-9553-819e03c3135a.jpg\"]","trial_type":"similarity","trial_index":75,"time_elapsed":345177,"internal_node_id":"0.0-6.0-69.0"},{"sim_score":5,"rt":3101,"stimulus":"[\"img/0766/989c5c7f-1aff-4442-ac63-9d46acf4a891.jpg\",\"img/0764/21e3292f-01ad-4238-828b-61b817857d16.jpg\"]","trial_type":"similarity","trial_index":76,"time_elapsed":349289,"internal_node_id":"0.0-6.0-70.0"},{"sim_score":3,"rt":2816,"stimulus":"[\"img/0894/5a49e858-2850-4892-9a06-e9f0efb5f94d.jpg\",\"img/0867/075e0f95-856b-4cbb-acf5-092393aaf04e.jpg\"]","trial_type":"similarity","trial_index":77,"time_elapsed":353121,"internal_node_id":"0.0-6.0-71.0"},{"sim_score":2,"rt":2257,"stimulus":"[\"img/0875/cff79b3a-a797-4393-9757-6275f999ec04.jpg\",\"img/0764/b328441c-f81c-486c-9eae-b947c70ba7cd.jpg\"]","trial_type":"similarity","trial_index":78,"time_elapsed":356385,"internal_node_id":"0.0-6.0-72.0"},{"sim_score":6,"rt":3731,"stimulus":"[\"img/0867/c66898ba-b71b-4d50-84f9-f7f84853a98d.jpg\",\"img/0866/d266fece-59b3-46fa-b69f-96f6efb81b59.jpg\"]","trial_type":"similarity","trial_index":79,"time_elapsed":361137,"internal_node_id":"0.0-6.0-73.0"},{"sim_score":1,"rt":2427,"stimulus":"[\"img/0903/07b445ee-0cdb-4d2c-a23b-d727613f4059.jpg\",\"img/0758/e1ba5e53-addc-436a-b428-d34fc1b130dc.jpg\"]","trial_type":"similarity","trial_index":80,"time_elapsed":364585,"internal_node_id":"0.0-6.0-74.0"},{"sim_score":1,"rt":2380,"stimulus":"[\"img/0766/a1ed3f0f-e338-4a26-8fe4-4370f0c9fa6e.jpg\",\"img/0868/0d3abd3a-b6c3-4584-a9f7-e2da63748b3d.jpg\"]","trial_type":"similarity","trial_index":81,"time_elapsed":367977,"internal_node_id":"0.0-6.0-75.0"},{"sim_score":1,"rt":2353,"stimulus":"[\"img/0874/a82926a3-0b43-4add-803c-d5f9ea7798ee.jpg\",\"img/0766/0bf3793e-c353-45e5-ac6f-753f5f484e10.jpg\"]","trial_type":"similarity","trial_index":82,"time_elapsed":371345,"internal_node_id":"0.0-6.0-76.0"},{"sim_score":3,"rt":3185,"stimulus":"[\"img/0881/7e31e5dc-2240-4b1b-b5a0-3acd980099ef.jpg\",\"img/0868/3a62db2d-97e9-44a3-b8e3-a48c6f0e423b.jpg\"]","trial_type":"similarity","trial_index":83,"time_elapsed":375545,"internal_node_id":"0.0-6.0-77.0"},{"sim_score":2,"rt":2742,"stimulus":"[\"img/0758/335851a0-a55b-46d8-ab05-8463eda48349.jpg\",\"img/0901/443f2e59-199b-4f7b-9de9-c44ad97326a5.jpg\"]","trial_type":"similarity","trial_index":84,"time_elapsed":379297,"internal_node_id":"0.0-6.0-78.0"},{"sim_score":2,"rt":2350,"stimulus":"[\"img/0881/f7a8cc63-8842-40a4-9ff8-fe530310d62c.jpg\",\"img/0898/a114b375-cb89-44ba-9498-74213f1ecdee.jpg\"]","trial_type":"similarity","trial_index":85,"time_elapsed":382657,"internal_node_id":"0.0-6.0-79.0"},{"sim_score":4,"rt":2697,"stimulus":"[\"img/0867/a498eef3-9fa4-4ab2-9778-4ae82ac40dc5.jpg\",\"img/0758/67c0be2f-9e91-48b3-8219-70ac0a1802fa.jpg\"]","trial_type":"similarity","trial_index":86,"time_elapsed":386369,"internal_node_id":"0.0-6.0-80.0"},{"sim_score":4,"rt":2813,"stimulus":"[\"img/0769/50985283-d353-4abc-9abe-14a91d56ebe6.jpg\",\"img/0899/66bf4113-ee12-426c-84d2-ea410b6c803e.jpg\"]","trial_type":"similarity","trial_index":87,"time_elapsed":390201,"internal_node_id":"0.0-6.0-81.0"},{"sim_score":6,"rt":2913,"stimulus":"[\"img/0903/005ad0de-4f52-433c-b515-dbe8d46184a3.jpg\",\"img/0903/470acfd5-5571-4a7b-b3a4-28d87e098138.jpg\"]","trial_type":"similarity","trial_index":88,"time_elapsed":394129,"internal_node_id":"0.0-6.0-82.0"},{"sim_score":2,"rt":2367,"stimulus":"[\"img/0867/f26f6b60-f772-4f4c-95a4-addc62cfd692.jpg\",\"img/0766/e8052e17-9dae-4139-802b-6e590cb2d526.jpg\"]","trial_type":"similarity","trial_index":89,"time_elapsed":403088,"internal_node_id":"0.0-6.0-83.0"},{"sim_score":2,"rt":3149,"stimulus":"[\"img/0902/8065aa6b-4aef-4368-afa2-02c6465ca582.jpg\",\"img/0867/7d1c497b-c1b3-4ed8-abb5-d7f73306015f.jpg\"]","trial_type":"similarity","trial_index":90,"time_elapsed":407249,"internal_node_id":"0.0-6.0-84.0"},{"sim_score":1,"rt":3594,"stimulus":"[\"img/0901/1e23ffbd-19de-4c4f-aa23-c54aaa3319a3.jpg\",\"img/0875/e7e66b13-b573-431e-b85e-288ce04a35a3.jpg\"]","trial_type":"similarity","trial_index":91,"time_elapsed":411865,"internal_node_id":"0.0-6.0-85.0"},{"sim_score":1,"rt":2295,"stimulus":"[\"img/0764/b8e23f4f-ff19-4472-ad9b-2f85548ebca0.jpg\",\"img/0866/6f2a90d7-14f1-4f1b-bd64-fc0af6b9fe44.jpg\"]","trial_type":"similarity","trial_index":92,"time_elapsed":415169,"internal_node_id":"0.0-6.0-86.0"},{"sim_score":3,"rt":3383,"stimulus":"[\"img/0901/b453df0b-4c39-49bb-8ced-6127efffa898.jpg\",\"img/0894/2217bdcd-23a7-42d3-823b-23f2488d7e87.jpg\"]","trial_type":"similarity","trial_index":93,"time_elapsed":419560,"internal_node_id":"0.0-6.0-87.0"},{"sim_score":4,"rt":3287,"stimulus":"[\"img/0898/8605a25b-6895-476d-8c13-df7a83f96093.jpg\",\"img/0769/35364db7-e0d5-40ef-93dc-faf9dfb95136.jpg\"]","trial_type":"similarity","trial_index":94,"time_elapsed":423857,"internal_node_id":"0.0-6.0-88.0"},{"sim_score":6,"rt":3625,"stimulus":"[\"img/0769/1d8734c4-77ab-4165-9e71-5cfe672ff01c.jpg\",\"img/0894/b422d5c6-3c5a-49ae-a53e-7e88ac993f49.jpg\"]","trial_type":"similarity","trial_index":95,"time_elapsed":428497,"internal_node_id":"0.0-6.0-89.0"},{"sim_score":5,"rt":3528,"stimulus":"[\"img/0862/00c06b00-3b73-44e9-bc1e-c5aafb438321.jpg\",\"img/0874/93d1f8dc-acf2-4f03-bd8d-8ec35df276ed.jpg\"]","trial_type":"similarity","trial_index":96,"time_elapsed":433049,"internal_node_id":"0.0-6.0-90.0"},{"sim_score":4,"rt":3908,"stimulus":"[\"img/0894/e2446cf5-cd48-486a-badc-76498e087fbe.jpg\",\"img/0766/db750ba0-ce04-46e1-b601-e1b80212bad2.jpg\"]","trial_type":"similarity","trial_index":97,"time_elapsed":437969,"internal_node_id":"0.0-6.0-91.0"},{"sim_score":5,"rt":2702,"stimulus":"[\"img/0874/2c9464dd-8a23-4baa-ac94-1ba3af5c15cc.jpg\",\"img/0867/f8488a47-94ee-4166-952c-44e16cf172f6.jpg\"]","trial_type":"similarity","trial_index":98,"time_elapsed":441681,"internal_node_id":"0.0-6.0-92.0"},{"sim_score":2,"rt":2347,"stimulus":"[\"img/0899/565ccdd9-0933-4536-a625-3c0e25a713dd.jpg\",\"img/0868/6a28c3b0-3d76-498a-9fb7-ddafc665eca8.jpg\"]","trial_type":"similarity","trial_index":99,"time_elapsed":445049,"internal_node_id":"0.0-6.0-93.0"},{"sim_score":2,"rt":2447,"stimulus":"[\"img/0903/24477210-856c-4550-9de0-9f85a32762eb.jpg\",\"img/0862/5d887e9f-89e2-4ebc-80a0-6d46fe6480db.jpg\"]","trial_type":"similarity","trial_index":100,"time_elapsed":448520,"internal_node_id":"0.0-6.0-94.0"},{"sim_score":5,"rt":3914,"stimulus":"[\"img/0899/7b7380d5-d2be-44e5-a09a-c1756f87ef71.jpg\",\"img/0766/aaec5f42-7f0a-4a16-aeca-488d757acbcc.jpg\"]","trial_type":"similarity","trial_index":101,"time_elapsed":453441,"internal_node_id":"0.0-6.0-95.0"},{"sim_score":5,"rt":3876,"stimulus":"[\"img/0867/8ba0c5a7-c7e4-42cf-a80a-543763b90779.jpg\",\"img/0868/d98ca254-b195-477f-b57e-5760a2717db8.jpg\"]","trial_type":"similarity","trial_index":102,"time_elapsed":458328,"internal_node_id":"0.0-6.0-96.0"},{"sim_score":1,"rt":2887,"stimulus":"[\"img/0862/de9ad88c-b522-430a-8ee9-eb06a9f85df5.jpg\",\"img/0901/7d4a3388-488d-4e9b-9d32-9d0def7aae8d.jpg\"]","trial_type":"similarity","trial_index":103,"time_elapsed":462231,"internal_node_id":"0.0-6.0-97.0"},{"sim_score":2,"rt":2182,"stimulus":"[\"img/0875/f87b67d7-c33e-40d1-b281-248c4be1cb6e.jpg\",\"img/0766/717fd72f-a281-499b-a5ba-5e2ecc4d4866.jpg\"]","trial_type":"similarity","trial_index":104,"time_elapsed":465431,"internal_node_id":"0.0-6.0-98.0"},{"sim_score":5,"rt":3375,"stimulus":"[\"img/0758/6e95579b-5166-487c-b8cb-e417c6a218e3.jpg\",\"img/0874/7e4f2150-3b59-4a36-b5da-a4e0ba410531.jpg\"]","trial_type":"similarity","trial_index":105,"time_elapsed":469823,"internal_node_id":"0.0-6.0-99.0"},{"sim_score":1,"rt":2229,"stimulus":"[\"img/0904/9d30eff1-46ef-4453-b11e-124ef8145c00.jpg\",\"img/0868/4e626425-63c8-484a-8a1d-e66ee4e0bef8.jpg\"]","trial_type":"similarity","trial_index":106,"time_elapsed":473064,"internal_node_id":"0.0-6.0-100.0"},{"sim_score":2,"rt":3704,"stimulus":"[\"img/0903/647ce311-8c71-479a-8361-961db1457139.jpg\",\"img/0866/93a27239-8317-4e08-98ca-d8b1ff298e07.jpg\"]","trial_type":"similarity","trial_index":107,"time_elapsed":477775,"internal_node_id":"0.0-6.0-101.0"},{"sim_score":2,"rt":2774,"stimulus":"[\"img/0868/8b0b8473-e2c0-4331-aa56-c3a5c29369da.jpg\",\"img/0769/aad494cc-674d-4a08-9bfa-24a88ebe3c79.jpg\"]","trial_type":"similarity","trial_index":108,"time_elapsed":481552,"internal_node_id":"0.0-6.0-102.0"},{"sim_score":5,"rt":2966,"stimulus":"[\"img/0902/fbef27fa-ac83-4936-ab78-9d1c20a383e1.jpg\",\"img/0899/fef567a2-c121-4481-9af0-ff108d199bbf.jpg\"]","trial_type":"similarity","trial_index":109,"time_elapsed":485535,"internal_node_id":"0.0-6.0-103.0"},{"sim_score":3,"rt":3329,"stimulus":"[\"img/0868/d6d1f30d-4323-435a-b194-7892521bc57e.jpg\",\"img/0862/eefa5588-9efd-4591-aa5f-a2e17c7d7bcc.jpg\"]","trial_type":"similarity","trial_index":110,"time_elapsed":489871,"internal_node_id":"0.0-6.0-104.0"},{"sim_score":5,"rt":2790,"stimulus":"[\"img/0903/365f176c-25a4-4973-bd3c-279bf1b39476.jpg\",\"img/0894/e5edf723-72a5-4673-8441-6c1734a8929b.jpg\"]","trial_type":"similarity","trial_index":111,"time_elapsed":493671,"internal_node_id":"0.0-6.0-105.0"},{"sim_score":5,"rt":3225,"stimulus":"[\"img/0864/8ddd2e30-a1d0-479f-9cbe-591213023893.jpg\",\"img/0874/eba003b4-cdab-4eee-8bc3-f064c7d94165.jpg\"]","trial_type":"similarity","trial_index":112,"time_elapsed":497911,"internal_node_id":"0.0-6.0-106.0"},{"sim_score":3,"rt":2738,"stimulus":"[\"img/0862/e0f1a4e9-e1b6-45f7-af67-89f334e6630d.jpg\",\"img/0902/eb3e7e71-8ff1-4b88-a6a7-47e2c1ce1683.jpg\"]","trial_type":"similarity","trial_index":113,"time_elapsed":501655,"internal_node_id":"0.0-6.0-107.0"},{"sim_score":4,"rt":3825,"stimulus":"[\"img/0904/b7c2a2c8-df33-4473-b3d4-ff7147c60db3.jpg\",\"img/0903/3e9ee8a5-eb66-47f5-8973-8a5af1ddc87e.jpg\"]","trial_type":"similarity","trial_index":114,"time_elapsed":506488,"internal_node_id":"0.0-6.0-108.0"},{"sim_score":1,"rt":2398,"stimulus":"[\"img/0764/6ef77040-1fae-4afa-bfe7-eda98e6d0376.jpg\",\"img/0864/afcba0a3-7e27-4757-b254-e9f05fad27e2.jpg\"]","trial_type":"similarity","trial_index":115,"time_elapsed":509904,"internal_node_id":"0.0-6.0-109.0"},{"sim_score":2,"rt":2950,"stimulus":"[\"img/0866/0207e9a2-7dbb-40b5-9459-b472aaeceb2a.jpg\",\"img/0894/b2d2f66e-e480-46da-a02a-6d0c6b285d78.jpg\"]","trial_type":"similarity","trial_index":116,"time_elapsed":513863,"internal_node_id":"0.0-6.0-110.0"},{"sim_score":5,"rt":3579,"stimulus":"[\"img/0899/ad8268c5-8199-48d0-ad70-c5b6d6c599ec.jpg\",\"img/0903/31b5a5f4-b695-4af1-bad2-a19650a05498.jpg\"]","trial_type":"similarity","trial_index":117,"time_elapsed":518471,"internal_node_id":"0.0-6.0-111.0"},{"sim_score":5,"rt":3016,"stimulus":"[\"img/0902/cf9dee9c-2bdf-4d64-9302-97f1660fe52c.jpg\",\"img/0904/9b3568cc-3cf7-42be-9df3-fdafde7a58b8.jpg\"]","trial_type":"similarity","trial_index":118,"time_elapsed":522504,"internal_node_id":"0.0-6.0-112.0"},{"sim_score":4,"rt":3733,"stimulus":"[\"img/0864/ea327690-500b-4137-bf91-451b309fe6a5.jpg\",\"img/0860/9593362c-9fe5-4d12-9735-6000a11f6aa5.jpg\"]","trial_type":"similarity","trial_index":119,"time_elapsed":527247,"internal_node_id":"0.0-6.0-113.0"},{"sim_score":2,"rt":3001,"stimulus":"[\"img/0860/18dfed73-e36b-4487-a8bd-0b8cff8e3668.jpg\",\"img/0899/06b0fc99-0581-461a-9913-d1a5a941ac61.jpg\"]","trial_type":"similarity","trial_index":120,"time_elapsed":531271,"internal_node_id":"0.0-6.0-114.0"},{"sim_score":2,"rt":2331,"stimulus":"[\"img/0881/6b1189e6-232d-4042-8885-16dc7b10e0d4.jpg\",\"img/0903/71dbc325-b588-4297-a5cf-7f268a722ad9.jpg\"]","trial_type":"similarity","trial_index":121,"time_elapsed":534624,"internal_node_id":"0.0-6.0-115.0"},{"sim_score":2,"rt":2611,"stimulus":"[\"img/0894/767a0eec-1064-46b1-b1aa-dfa02b0cd74e.jpg\",\"img/0874/ca23d307-fc00-4d7d-9106-584c6eb21b4d.jpg\"]","trial_type":"similarity","trial_index":122,"time_elapsed":538255,"internal_node_id":"0.0-6.0-116.0"},{"sim_score":5,"rt":2750,"stimulus":"[\"img/0881/405484ae-0d00-4b05-bc57-6420a36adfac.jpg\",\"img/0862/f23038d4-c366-4f70-979f-66b62362efa4.jpg\"]","trial_type":"similarity","trial_index":123,"time_elapsed":542023,"internal_node_id":"0.0-6.0-117.0"},{"sim_score":5,"rt":3751,"stimulus":"[\"img/0868/fd307a36-9a3a-47d7-ab7c-f810d0b35040.jpg\",\"img/0875/42910c99-5463-450a-a0f8-d4d060a11455.jpg\"]","trial_type":"similarity","trial_index":124,"time_elapsed":546791,"internal_node_id":"0.0-6.0-118.0"},{"sim_score":3,"rt":4081,"stimulus":"[\"img/0860/5bff793e-cbd5-4d7e-b628-0ac2b0e30b64.jpg\",\"img/0758/7fba58df-2a7a-4b76-8a8f-62739f97f271.jpg\"]","trial_type":"similarity","trial_index":125,"time_elapsed":551879,"internal_node_id":"0.0-6.0-119.0"},{"sim_score":4,"rt":2599,"stimulus":"[\"img/0864/e336a4c5-6648-4fd7-b2f6-93a3fb83f8c6.jpg\",\"img/0875/2e13d160-eea1-416b-aff1-d37ab99ecc1d.jpg\"]","trial_type":"similarity","trial_index":126,"time_elapsed":555495,"internal_node_id":"0.0-6.0-120.0"},{"sim_score":2,"rt":2600,"stimulus":"[\"img/0898/881e2a85-d5c2-49be-a0c6-8a6ce2c4af08.jpg\",\"img/0866/11a1d141-be5e-443c-98c1-a9d4d9e3dec0.jpg\"]","trial_type":"similarity","trial_index":127,"time_elapsed":559103,"internal_node_id":"0.0-6.0-121.0"},{"sim_score":2,"rt":2576,"stimulus":"[\"img/0874/85eb9b8a-c4c6-4e5a-b8e7-363a87a82054.jpg\",\"img/0904/96e503ea-6630-4996-85f2-0237688ce441.jpg\"]","trial_type":"similarity","trial_index":128,"time_elapsed":562687,"internal_node_id":"0.0-6.0-122.0"},{"sim_score":2,"rt":2681,"stimulus":"[\"img/0904/25365108-e038-4021-aac9-797f2063b337.jpg\",\"img/0864/efcfbb1b-8197-44c9-b723-40d6c608dd3c.jpg\"]","trial_type":"similarity","trial_index":129,"time_elapsed":566375,"internal_node_id":"0.0-6.0-123.0"},{"sim_score":5,"rt":2760,"stimulus":"[\"img/0894/661b9f9f-4bde-487a-b1ed-87085fde6948.jpg\",\"img/0902/c018bd7a-d91a-4192-aea4-7259cfcdb6c4.jpg\"]","trial_type":"similarity","trial_index":130,"time_elapsed":570143,"internal_node_id":"0.0-6.0-124.0"},{"sim_score":5,"rt":3595,"stimulus":"[\"img/0868/1a62b2b2-18f5-466e-b564-5176a57c565e.jpg\",\"img/0864/c22faebd-9c53-47bc-ada3-b9a30c688e75.jpg\"]","trial_type":"similarity","trial_index":131,"time_elapsed":585119,"internal_node_id":"0.0-6.0-125.0"},{"sim_score":2,"rt":2888,"stimulus":"[\"img/0899/66ab3178-c3fe-4455-ad17-d5952b08e018.jpg\",\"img/0866/be24ab58-230e-4db8-9f45-ff04c9aec6bb.jpg\"]","trial_type":"similarity","trial_index":132,"time_elapsed":589015,"internal_node_id":"0.0-6.0-126.0"},{"sim_score":2,"rt":2778,"stimulus":"[\"img/0875/03c3c331-738b-4446-af92-3d7386b08c2e.jpg\",\"img/0904/2f88ce53-02d0-4f95-a082-182c56a0eeb4.jpg\"]","trial_type":"similarity","trial_index":133,"time_elapsed":592807,"internal_node_id":"0.0-6.0-127.0"},{"sim_score":1,"rt":3227,"stimulus":"[\"img/0867/a749dddb-69f0-44a6-acdc-2bf295cf6dcc.jpg\",\"img/0899/93494f3b-d539-4075-b027-d82e344563da.jpg\"]","trial_type":"similarity","trial_index":134,"time_elapsed":597047,"internal_node_id":"0.0-6.0-128.0"},{"sim_score":3,"rt":2563,"stimulus":"[\"img/0901/233a6948-48eb-4b67-8259-222b916b2322.jpg\",\"img/0867/12264664-1860-46df-8c21-162b9817cdda.jpg\"]","trial_type":"similarity","trial_index":135,"time_elapsed":600632,"internal_node_id":"0.0-6.0-129.0"},{"sim_score":2,"rt":2917,"stimulus":"[\"img/0864/49150900-7f25-4ce8-8d10-9b47a71d1997.jpg\",\"img/0769/688d0c52-ad73-4065-a5eb-f8c10d076bff.jpg\"]","trial_type":"similarity","trial_index":136,"time_elapsed":604567,"internal_node_id":"0.0-6.0-130.0"},{"sim_score":4,"rt":3337,"stimulus":"[\"img/0903/45e2d600-57ff-4d69-b22c-0c7896cd38f0.jpg\",\"img/0868/7b212364-ff5f-4e28-9241-7eb6ea00161b.jpg\"]","trial_type":"similarity","trial_index":137,"time_elapsed":608919,"internal_node_id":"0.0-6.0-131.0"},{"sim_score":4,"rt":2393,"stimulus":"[\"img/0864/e02eddb5-f468-499c-91bf-f7be3ffe979b.jpg\",\"img/0867/db7e032f-162b-46f5-ae67-2b29679adee4.jpg\"]","trial_type":"similarity","trial_index":138,"time_elapsed":612327,"internal_node_id":"0.0-6.0-132.0"},{"sim_score":3,"rt":2872,"stimulus":"[\"img/0901/00acf6c1-b66e-4060-bb04-4caf29b5a8b0.jpg\",\"img/0860/4f695df5-afac-4da7-9875-fee39b0b24ad.jpg\"]","trial_type":"similarity","trial_index":139,"time_elapsed":616215,"internal_node_id":"0.0-6.0-133.0"},{"sim_score":2,"rt":2522,"stimulus":"[\"img/0881/ed4c971f-0873-4fc8-b6d6-e8bbd82f0bcc.jpg\",\"img/0766/f3276cc4-65de-4c2d-88d5-6cfebce14b8f.jpg\"]","trial_type":"similarity","trial_index":140,"time_elapsed":619745,"internal_node_id":"0.0-6.0-134.0"},{"sim_score":1,"rt":2860,"stimulus":"[\"img/0903/5995f4a8-fa82-46f8-8760-fd7800a5ca34.jpg\",\"img/0864/66091c27-e588-4476-8af9-265dc6be4156.jpg\"]","trial_type":"similarity","trial_index":141,"time_elapsed":623607,"internal_node_id":"0.0-6.0-135.0"},{"sim_score":2,"rt":2463,"stimulus":"[\"img/0758/f61ecdf8-a7d4-4db0-b84d-be46f7cfaffc.jpg\",\"img/0894/38cf335f-f76f-4349-8d65-e20cd6859565.jpg\"]","trial_type":"similarity","trial_index":142,"time_elapsed":627087,"internal_node_id":"0.0-6.0-136.0"},{"sim_score":2,"rt":2839,"stimulus":"[\"img/0769/48a1144d-fbda-4809-991b-fc8424a32ee4.jpg\",\"img/0860/15b24a61-25be-4356-9eac-5ce95d0cb4a4.jpg\"]","trial_type":"similarity","trial_index":143,"time_elapsed":630935,"internal_node_id":"0.0-6.0-137.0"},{"sim_score":5,"rt":3832,"stimulus":"[\"img/0904/b5855d6a-7ef9-46ca-9215-6e9fa046e543.jpg\",\"img/0766/f5f78e4e-d88f-4866-951a-118ba9fec4d0.jpg\"]","trial_type":"similarity","trial_index":144,"time_elapsed":635775,"internal_node_id":"0.0-6.0-138.0"},{"sim_score":5,"rt":2727,"stimulus":"[\"img/0868/4bd5105a-d2c3-4f82-8c80-57196106ba53.jpg\",\"img/0860/17b44a7d-c5ca-479f-9e87-f65a64f5c80e.jpg\"]","trial_type":"similarity","trial_index":145,"time_elapsed":639519,"internal_node_id":"0.0-6.0-139.0"},{"sim_score":5,"rt":2505,"stimulus":"[\"img/0758/7ee8bc8f-c40b-4b3a-84ec-3e83580622d4.jpg\",\"img/0864/0f537697-a314-47c3-a8cc-8df23b7e536c.jpg\"]","trial_type":"similarity","trial_index":146,"time_elapsed":643031,"internal_node_id":"0.0-6.0-140.0"},{"sim_score":7,"rt":2723,"stimulus":"[\"img/0867/cc72ed48-7704-422c-86d6-467a1145287a.jpg\",\"img/0867/de92135f-5b65-4ed9-b245-188292c7c2f8.jpg\"]","trial_type":"similarity","trial_index":147,"time_elapsed":646766,"internal_node_id":"0.0-6.0-141.0"},{"sim_score":7,"rt":4686,"stimulus":"[\"img/0898/68476bbb-34a1-42d9-8bc1-deab783d4489.jpg\",\"img/0898/0af304a2-6a7a-4082-ab7c-4450cd08cc58.jpg\"]","trial_type":"similarity","trial_index":148,"time_elapsed":652455,"internal_node_id":"0.0-6.0-142.0"},{"sim_score":3,"rt":3098,"stimulus":"[\"img/0866/386235d2-6857-41e7-88a8-25cfc3430025.jpg\",\"img/0769/9ea27d61-3d55-418c-8d14-82e90f656f01.jpg\"]","trial_type":"similarity","trial_index":149,"time_elapsed":656567,"internal_node_id":"0.0-6.0-143.0"},{"sim_score":3,"rt":3002,"stimulus":"[\"img/0860/71e1aad0-2cdf-43bb-94a4-a8c016997c30.jpg\",\"img/0898/f3a3f225-1248-4ac7-b93b-f0ff28485bf3.jpg\"]","trial_type":"similarity","trial_index":150,"time_elapsed":660583,"internal_node_id":"0.0-6.0-144.0"},{"sim_score":1,"rt":2563,"stimulus":"[\"img/0766/69e486f7-dbef-456b-9d48-53d814248a28.jpg\",\"img/0864/b3c4e378-28f0-4699-9338-2a257b4bca04.jpg\"]","trial_type":"similarity","trial_index":151,"time_elapsed":664158,"internal_node_id":"0.0-6.0-145.0"},{"sim_score":3,"rt":3446,"stimulus":"[\"img/0860/94ef7afc-e0e6-4a15-98c6-0bfac82bc832.jpg\",\"img/0903/2c7b4aed-6038-4aac-958a-e3e58341c313.jpg\"]","trial_type":"similarity","trial_index":152,"time_elapsed":668623,"internal_node_id":"0.0-6.0-146.0"},{"sim_score":2,"rt":2913,"stimulus":"[\"img/0867/98d8cd96-1476-4fe0-a3a3-04f875500a1b.jpg\",\"img/0764/fb7d4a20-a475-465e-a74f-aa39a0d33d16.jpg\"]","trial_type":"similarity","trial_index":153,"time_elapsed":672543,"internal_node_id":"0.0-6.0-147.0"},{"sim_score":6,"rt":3954,"stimulus":"[\"img/0769/1ca58b80-2365-446d-9616-6c1719e6c46f.jpg\",\"img/0904/0d17b811-063e-416e-a23c-3b3cfa4fcce5.jpg\"]","trial_type":"similarity","trial_index":154,"time_elapsed":677518,"internal_node_id":"0.0-6.0-148.0"},{"sim_score":5,"rt":3044,"stimulus":"[\"img/0764/4eff630a-6426-4f8d-b2ba-b4d9842a0962.jpg\",\"img/0901/1b86f2fc-7a1d-4aa8-9252-114f92edef3b.jpg\"]","trial_type":"similarity","trial_index":155,"time_elapsed":681567,"internal_node_id":"0.0-6.0-149.0"},{"sim_score":5,"rt":3089,"stimulus":"[\"img/0904/06dacdc5-2206-4fb8-92b7-88042d22833c.jpg\",\"img/0899/25ae6ec8-9565-49fe-a8bb-8d0666f52716.jpg\"]","trial_type":"similarity","trial_index":156,"time_elapsed":685662,"internal_node_id":"0.0-6.0-150.0"},{"sim_score":4,"rt":3447,"stimulus":"[\"img/0862/fb26cb07-d5a9-4653-813c-f41609f26cd5.jpg\",\"img/0867/6e19c858-b606-45b2-a4c6-910a73f1d82c.jpg\"]","trial_type":"similarity","trial_index":157,"time_elapsed":690119,"internal_node_id":"0.0-6.0-151.0"},{"sim_score":7,"rt":3039,"stimulus":"[\"img/0766/535849cc-ff5d-4df9-8f31-0ce94a97d571.jpg\",\"img/0766/79767d11-b612-4e8a-9e4b-a8ac95bb6a54.jpg\"]","trial_type":"similarity","trial_index":158,"time_elapsed":694174,"internal_node_id":"0.0-6.0-152.0"},{"sim_score":3,"rt":2429,"stimulus":"[\"img/0862/53a9cf7c-93c4-41b9-952f-07d17f7a17b2.jpg\",\"img/0894/3adef67d-7676-4995-80b2-bb31b8aca3ef.jpg\"]","trial_type":"similarity","trial_index":159,"time_elapsed":697622,"internal_node_id":"0.0-6.0-153.0"},{"sim_score":5,"rt":2720,"stimulus":"[\"img/0899/9de5e857-aa9a-4e0c-8ba2-46d79bd069a4.jpg\",\"img/0901/c6c877e0-dd63-4e00-9657-33af29d55aab.jpg\"]","trial_type":"similarity","trial_index":160,"time_elapsed":701350,"internal_node_id":"0.0-6.0-154.0"},{"sim_score":6,"rt":5468,"stimulus":"[\"img/0874/767f289c-9814-4496-803f-745cc8913d1f.jpg\",\"img/0874/ca76a855-4e77-4f2f-872a-0a718153e7ed.jpg\"]","trial_type":"similarity","trial_index":161,"time_elapsed":707838,"internal_node_id":"0.0-6.0-155.0"},{"sim_score":2,"rt":2990,"stimulus":"[\"img/0860/b03b963d-949b-4d8d-b19c-4950c89eeca2.jpg\",\"img/0867/c71dc569-f49c-4397-8381-68b8d726736d.jpg\"]","trial_type":"similarity","trial_index":162,"time_elapsed":711838,"internal_node_id":"0.0-6.0-156.0"},{"sim_score":2,"rt":2680,"stimulus":"[\"img/0901/2a953e50-d237-405c-a38d-5ed21494c968.jpg\",\"img/0881/c843e210-bdfe-4a7c-8bbe-fcea1f90fe1c.jpg\"]","trial_type":"similarity","trial_index":163,"time_elapsed":715534,"internal_node_id":"0.0-6.0-157.0"},{"sim_score":5,"rt":2990,"stimulus":"[\"img/0903/72197c2b-403e-4a26-b391-f1aa8dea4b76.jpg\",\"img/0902/8af4182a-9af9-4212-a436-9195555112d6.jpg\"]","trial_type":"similarity","trial_index":164,"time_elapsed":719542,"internal_node_id":"0.0-6.0-158.0"},{"sim_score":2,"rt":2760,"stimulus":"[\"img/0860/c7047cd2-7cc1-41b6-8a34-c0986774975f.jpg\",\"img/0764/c01e2d65-6586-441b-bef5-3c96fcd85380.jpg\"]","trial_type":"similarity","trial_index":165,"time_elapsed":723327,"internal_node_id":"0.0-6.0-159.0"},{"sim_score":2,"rt":2469,"stimulus":"[\"img/0902/af45fe42-178c-4c1a-99ef-256e87e3b092.jpg\",\"img/0875/99698b4d-b4a1-44bc-8c83-8ea755bbbf61.jpg\"]","trial_type":"similarity","trial_index":166,"time_elapsed":726814,"internal_node_id":"0.0-6.0-160.0"},{"sim_score":2,"rt":2881,"stimulus":"[\"img/0898/04e39a7a-fcf6-4156-ab0e-f5871f335e1c.jpg\",\"img/0862/cdaed51d-9e2f-4807-801a-4663c40077e2.jpg\"]","trial_type":"similarity","trial_index":167,"time_elapsed":730702,"internal_node_id":"0.0-6.0-161.0"},{"sim_score":3,"rt":4284,"stimulus":"[\"img/0894/8cadb87a-7001-4e47-99fb-1867bebf1668.jpg\",\"img/0875/8521fd58-3b1e-4dc5-97ae-804edfa6734a.jpg\"]","trial_type":"similarity","trial_index":168,"time_elapsed":736031,"internal_node_id":"0.0-6.0-162.0"},{"sim_score":5,"rt":3513,"stimulus":"[\"img/0866/a15b02be-11bb-43e3-b0e0-ecc3bd7dfc49.jpg\",\"img/0864/f92649a2-0590-4d31-9a7a-1bfb81666a2d.jpg\"]","trial_type":"similarity","trial_index":169,"time_elapsed":740550,"internal_node_id":"0.0-6.0-163.0"},{"sim_score":1,"rt":2851,"stimulus":"[\"img/0766/26d3ae14-8275-4e08-99b2-a6598c193ddf.jpg\",\"img/0862/4f0a3b4c-afbf-486e-b248-1d54982f54b4.jpg\"]","trial_type":"similarity","trial_index":170,"time_elapsed":744414,"internal_node_id":"0.0-6.0-164.0"},{"sim_score":5,"rt":2816,"stimulus":"[\"img/0866/f756f7d1-9ad8-4a34-9ef6-7a443d705bfe.jpg\",\"img/0874/99f6563c-8a8d-4c1c-a41d-667b618c3fd5.jpg\"]","trial_type":"similarity","trial_index":171,"time_elapsed":748238,"internal_node_id":"0.0-6.0-165.0"},{"sim_score":5,"rt":3000,"stimulus":"[\"img/0862/24cdc752-c2e5-4a17-86a6-6f2045d8553b.jpg\",\"img/0860/524b2e98-5767-4d53-942c-ebae6925659b.jpg\"]","trial_type":"similarity","trial_index":172,"time_elapsed":752254,"internal_node_id":"0.0-6.0-166.0"},{"sim_score":5,"rt":3111,"stimulus":"[\"img/0766/51d3aab4-3d09-4dda-b99d-3dc7aaabc6f2.jpg\",\"img/0901/bc47e078-bda4-40ed-b89a-bbd819164b95.jpg\"]","trial_type":"similarity","trial_index":173,"time_elapsed":761677,"internal_node_id":"0.0-6.0-167.0"},{"sim_score":7,"rt":2933,"stimulus":"[\"img/0862/064818ee-13d5-4618-bb24-21c7368ea278.jpg\",\"img/0862/92fcd8a4-8193-4a6a-ae09-dd4a6338b0df.jpg\"]","trial_type":"similarity","trial_index":174,"time_elapsed":765622,"internal_node_id":"0.0-6.0-168.0"},{"sim_score":6,"rt":2893,"stimulus":"[\"img/0894/7f2f31fd-6618-41c6-b65a-0fd8b2851bc9.jpg\",\"img/0764/978aede9-4590-4ad0-b234-135c83e5d669.jpg\"]","trial_type":"similarity","trial_index":175,"time_elapsed":769526,"internal_node_id":"0.0-6.0-169.0"},{"sim_score":3,"rt":3591,"stimulus":"[\"img/0874/3ce41e7c-40c8-4d58-a546-171114521796.jpg\",\"img/0898/e167334e-cc1d-4986-b3b1-c7bc7da64baa.jpg\"]","trial_type":"similarity","trial_index":176,"time_elapsed":774132,"internal_node_id":"0.0-6.0-170.0"},{"sim_score":3,"rt":2712,"stimulus":"[\"img/0860/702bd09d-df3a-40aa-a267-5f04474305b5.jpg\",\"img/0766/33519c22-aaa4-49d7-8d49-ab551db1945e.jpg\"]","trial_type":"similarity","trial_index":177,"time_elapsed":777862,"internal_node_id":"0.0-6.0-171.0"},{"sim_score":3,"rt":2940,"stimulus":"[\"img/0898/4184e5a2-84ea-4f36-9b42-ae58646f6f87.jpg\",\"img/0864/ef9cbca0-4be8-435d-ad49-977259e80409.jpg\"]","trial_type":"similarity","trial_index":178,"time_elapsed":781822,"internal_node_id":"0.0-6.0-172.0"},{"sim_score":2,"rt":2701,"stimulus":"[\"img/0881/667e2147-d457-4f32-aa5f-6ab86e5848f1.jpg\",\"img/0764/23ea9375-f801-4a96-9925-7d453da887c7.jpg\"]","trial_type":"similarity","trial_index":179,"time_elapsed":785542,"internal_node_id":"0.0-6.0-173.0"},{"sim_score":1,"rt":2384,"stimulus":"[\"img/0898/01bfe666-3510-4fc7-964f-d00d28732dc8.jpg\",\"img/0868/179a5502-ab5c-478e-8263-5a1fbcc101d2.jpg\"]","trial_type":"similarity","trial_index":180,"time_elapsed":788934,"internal_node_id":"0.0-6.0-174.0"},{"sim_score":7,"rt":2625,"stimulus":"[\"img/0864/a248adb3-c70b-4652-b7a3-776d2a1e904b.jpg\",\"img/0864/4bd81bc6-c13d-46df-95a9-485886dc7c1b.jpg\"]","trial_type":"similarity","trial_index":181,"time_elapsed":792574,"internal_node_id":"0.0-6.0-175.0"},{"sim_score":3,"rt":2738,"stimulus":"[\"img/0899/4f7bc593-8ddd-4da3-a0b9-84da730d3370.jpg\",\"img/0862/e697469a-ec19-4414-b972-7b9f3564785b.jpg\"]","trial_type":"similarity","trial_index":182,"time_elapsed":796326,"internal_node_id":"0.0-6.0-176.0"},{"sim_score":5,"rt":2991,"stimulus":"[\"img/0875/3ecb367d-e9eb-4826-8aaa-7aa72fb98019.jpg\",\"img/0758/6cd8c362-ae2a-41eb-80a3-3a4f7ace1530.jpg\"]","trial_type":"similarity","trial_index":183,"time_elapsed":800326,"internal_node_id":"0.0-6.0-177.0"},{"sim_score":3,"rt":3031,"stimulus":"[\"img/0866/23a224f3-2012-4fc8-8e0f-3c36f8de27fd.jpg\",\"img/0901/04a53755-6da5-44d4-a7a6-48a6bc0a2280.jpg\"]","trial_type":"similarity","trial_index":184,"time_elapsed":804374,"internal_node_id":"0.0-6.0-178.0"},{"sim_score":3,"rt":2993,"stimulus":"[\"img/0769/7c50e5f5-cc38-4d48-b009-fbe17bcea61c.jpg\",\"img/0874/bf14b896-e930-4fd9-9c05-2e83317a2773.jpg\"]","trial_type":"similarity","trial_index":185,"time_elapsed":808374,"internal_node_id":"0.0-6.0-179.0"},{"sim_score":6,"rt":2965,"stimulus":"[\"img/0875/5a7c4e35-6514-4e12-8879-d16071da4cd6.jpg\",\"img/0881/d373cb9f-a719-4549-a2a4-82def79fb2a5.jpg\"]","trial_type":"similarity","trial_index":186,"time_elapsed":812350,"internal_node_id":"0.0-6.0-180.0"},{"sim_score":6,"rt":2554,"stimulus":"[\"img/0866/a04d37f0-99dd-478a-b6c6-58b215138f84.jpg\",\"img/0868/5fa7f9d0-f0e5-454c-8224-74d964818f56.jpg\"]","trial_type":"similarity","trial_index":187,"time_elapsed":815918,"internal_node_id":"0.0-6.0-181.0"},{"sim_score":3,"rt":2878,"stimulus":"[\"img/0899/0e1d936a-dbe2-4afc-9f19-7b7a1ae6c9ed.jpg\",\"img/0758/65d426d6-3ff6-415d-8654-a43b83ecc4fe.jpg\"]","trial_type":"similarity","trial_index":188,"time_elapsed":819806,"internal_node_id":"0.0-6.0-182.0"},{"sim_score":5,"rt":2565,"stimulus":"[\"img/0874/c0378dac-9370-439a-8b79-db27c96fb390.jpg\",\"img/0875/2c361b79-c3d1-4eda-812e-bf03192407bf.jpg\"]","trial_type":"similarity","trial_index":189,"time_elapsed":823374,"internal_node_id":"0.0-6.0-183.0"},{"sim_score":3,"rt":2454,"stimulus":"[\"img/0904/d23dd7be-7fe8-4435-82f7-bd592c01e6a1.jpg\",\"img/0862/57b6f83f-c763-4858-830d-102f97bfefbf.jpg\"]","trial_type":"similarity","trial_index":190,"time_elapsed":826846,"internal_node_id":"0.0-6.0-184.0"},{"sim_score":5,"rt":2821,"stimulus":"[\"img/0902/d3e55000-c839-4bf9-9b9b-4af0a9925af1.jpg\",\"img/0766/a0270213-fa0e-4972-8b56-228c3e01ff90.jpg\"]","trial_type":"similarity","trial_index":191,"time_elapsed":830678,"internal_node_id":"0.0-6.0-185.0"},{"sim_score":3,"rt":2601,"stimulus":"[\"img/0758/b76ceca7-95ac-46e4-ac13-da02c8e93be9.jpg\",\"img/0769/e31b3bd8-efcb-413e-aa8c-75fac2b8f2ac.jpg\"]","trial_type":"similarity","trial_index":192,"time_elapsed":834286,"internal_node_id":"0.0-6.0-186.0"},{"sim_score":5,"rt":2640,"stimulus":"[\"img/0881/d1982897-8d8d-4704-a940-1ee5d07a1f15.jpg\",\"img/0881/445edb15-bd7f-4af3-8bd5-c6ad9677bb31.jpg\"]","trial_type":"similarity","trial_index":193,"time_elapsed":837934,"internal_node_id":"0.0-6.0-187.0"},{"sim_score":5,"rt":2414,"stimulus":"[\"img/0758/ddc336e9-a8b6-4bb9-937a-c7e25e0e9250.jpg\",\"img/0866/02f5e6b9-52b7-448c-9708-5b460d0c9a23.jpg\"]","trial_type":"similarity","trial_index":194,"time_elapsed":841366,"internal_node_id":"0.0-6.0-188.0"},{"sim_score":5,"rt":2645,"stimulus":"[\"img/0764/e42c1dc9-7831-4995-be19-7ca7b4d141fc.jpg\",\"img/0898/ec565187-2e31-4fdd-9a5c-153d0c789ae0.jpg\"]","trial_type":"similarity","trial_index":195,"time_elapsed":845030,"internal_node_id":"0.0-6.0-189.0"},{"sim_score":5,"rt":3207,"stimulus":"[\"img/0903/43ffd882-077a-40dd-a264-e58d519420a1.jpg\",\"img/0901/effc03f6-8f9d-46db-a66c-16fc83891c5c.jpg\"]","trial_type":"similarity","trial_index":196,"time_elapsed":849254,"internal_node_id":"0.0-6.0-190.0"},{"sim_score":5,"rt":2754,"stimulus":"[\"img/0902/27b84584-948a-485b-8749-cb09929ef631.jpg\",\"img/0898/661621d4-a14e-487c-8c74-354134a29710.jpg\"]","trial_type":"similarity","trial_index":197,"time_elapsed":853014,"internal_node_id":"0.0-6.0-191.0"},{"sim_score":1,"rt":2871,"stimulus":"[\"img/0864/e8bd659f-aa43-4748-877e-3118e8b4e189.jpg\",\"img/0901/f1116359-1ff1-4638-b3b3-700918d36d18.jpg\"]","trial_type":"similarity","trial_index":198,"time_elapsed":856894,"internal_node_id":"0.0-6.0-192.0"},{"sim_score":1,"rt":2485,"stimulus":"[\"img/0894/492d2f29-d7b9-4422-8be8-47fd58bfaa8b.jpg\",\"img/0881/566f45f8-5fed-4479-a60f-26377e60a62d.jpg\"]","trial_type":"similarity","trial_index":199,"time_elapsed":860390,"internal_node_id":"0.0-6.0-193.0"},{"sim_score":6,"rt":2567,"stimulus":"[\"img/0868/293079b8-7e0c-4afd-a390-1e5d35fe3ded.jpg\",\"img/0868/09a9ef4d-d000-4cfa-a6aa-ebec7c2edeb4.jpg\"]","trial_type":"similarity","trial_index":200,"time_elapsed":863966,"internal_node_id":"0.0-6.0-194.0"},{"sim_score":5,"rt":2469,"stimulus":"[\"img/0899/51a7a498-98c7-42d7-bca8-bc2d8f0b5831.jpg\",\"img/0764/39a9fc7e-b863-432c-9374-de43983f31a5.jpg\"]","trial_type":"similarity","trial_index":201,"time_elapsed":867454,"internal_node_id":"0.0-6.0-195.0"},{"sim_score":2,"rt":2640,"stimulus":"[\"img/0881/19e82c47-8e4b-45d2-a6c8-74181eb4155e.jpg\",\"img/0904/0d25eb24-bb20-4e8d-9787-8b489558b4cb.jpg\"]","trial_type":"similarity","trial_index":202,"time_elapsed":871110,"internal_node_id":"0.0-6.0-196.0"},{"sim_score":3,"rt":2564,"stimulus":"[\"img/0864/5f33e097-23e3-4002-882d-76e8cb15f451.jpg\",\"img/0902/af40b98b-3d23-4d95-b401-49ba5783ce39.jpg\"]","trial_type":"similarity","trial_index":203,"time_elapsed":874694,"internal_node_id":"0.0-6.0-197.0"},{"sim_score":5,"rt":2567,"stimulus":"[\"img/0894/151063aa-6472-4745-837b-36603aba5966.jpg\",\"img/0904/696ebb60-8891-417a-91fd-c53218907a95.jpg\"]","trial_type":"similarity","trial_index":204,"time_elapsed":878270,"internal_node_id":"0.0-6.0-198.0"},{"sim_score":7,"rt":2581,"stimulus":"[\"img/0901/b123d109-47b4-4f9a-80c9-9bb16da42efa.jpg\",\"img/0901/58978a6d-a3e2-4c59-8d62-f60693ecc0f6.jpg\"]","trial_type":"similarity","trial_index":205,"time_elapsed":881870,"internal_node_id":"0.0-6.0-199.0"},{"sim_score":3,"rt":2366,"stimulus":"[\"img/0894/a98416c0-51e2-4960-85da-d81d8688b9d5.jpg\",\"img/0860/99c589b9-9140-4d17-90c0-b344323edcda.jpg\"]","trial_type":"similarity","trial_index":206,"time_elapsed":885246,"internal_node_id":"0.0-6.0-200.0"},{"sim_score":5,"rt":2712,"stimulus":"[\"img/0898/cd3aaa3f-efa9-4ab3-8d6f-a6a9273ddf42.jpg\",\"img/0903/70d764d9-1f35-4da7-a35d-4cc39834d270.jpg\"]","trial_type":"similarity","trial_index":207,"time_elapsed":888973,"internal_node_id":"0.0-6.0-201.0"},{"sim_score":3,"rt":2369,"stimulus":"[\"img/0864/300bb811-8b3c-4c42-8653-6097c3725197.jpg\",\"img/0894/2d2db7b3-e8a3-499b-b63a-14f51bf73882.jpg\"]","trial_type":"similarity","trial_index":208,"time_elapsed":892357,"internal_node_id":"0.0-6.0-202.0"},{"sim_score":5,"rt":2396,"stimulus":"[\"img/0874/a3bc679d-619f-4db6-bb68-116dcb757d9c.jpg\",\"img/0860/d9a0d117-6d1d-41c0-8fec-9aff0fd9e9f2.jpg\"]","trial_type":"similarity","trial_index":209,"time_elapsed":895773,"internal_node_id":"0.0-6.0-203.0"},{"sim_score":5,"rt":2609,"stimulus":"[\"img/0862/e8cc3bdf-cc43-4565-bccf-492626c70953.jpg\",\"img/0875/34132396-d896-4c2d-8087-646dd867e769.jpg\"]","trial_type":"similarity","trial_index":210,"time_elapsed":899390,"internal_node_id":"0.0-6.0-204.0"},{"sim_score":5,"rt":2158,"stimulus":"[\"img/0867/50a1b60e-3a29-44bf-b606-d4bd3746fea9.jpg\",\"img/0881/f62bdcd1-a4b7-4d48-83da-d9c9e01c8727.jpg\"]","trial_type":"similarity","trial_index":211,"time_elapsed":902558,"internal_node_id":"0.0-6.0-205.0"},{"sim_score":5,"rt":2940,"stimulus":"[\"img/0901/31c032fd-3c3d-4882-a226-da9a80198937.jpg\",\"img/0902/1a120fb9-dbd6-443e-ba91-b4aceab963da.jpg\"]","trial_type":"similarity","trial_index":212,"time_elapsed":906518,"internal_node_id":"0.0-6.0-206.0"},{"sim_score":3,"rt":2553,"stimulus":"[\"img/0899/00715b3f-851b-420b-a26b-d7f79f7759a9.jpg\",\"img/0864/da39ad34-04e0-40d4-a724-c08d53e0ea09.jpg\"]","trial_type":"similarity","trial_index":213,"time_elapsed":910077,"internal_node_id":"0.0-6.0-207.0"},{"sim_score":5,"rt":3135,"stimulus":"[\"img/0901/5657dd86-0ff9-4753-ba2b-9dfb223e5c89.jpg\",\"img/0769/0fe124d3-bcad-45f6-b64d-8f6eb8ee5251.jpg\"]","trial_type":"similarity","trial_index":214,"time_elapsed":914221,"internal_node_id":"0.0-6.0-208.0"},{"sim_score":6,"rt":2756,"stimulus":"[\"img/0902/5b45a7a0-81c8-4a71-aaa2-2ce09adb5a29.jpg\",\"img/0902/95a36b6b-9601-4fa5-8fd9-606ea62f9425.jpg\"]","trial_type":"similarity","trial_index":215,"time_elapsed":925085,"internal_node_id":"0.0-6.0-209.0"},{"view_history":"[{\"page_index\":0,\"viewing_time\":4191}]","rt":4191,"trial_type":"instructions","trial_index":216,"time_elapsed":930277,"internal_node_id":"0.0-7.0"},{"rt":8670,"responses":"{\"Q0\":\"Orange-crowned Warbler\"}","answer":["Nashville Warbler"],"trial_type":"image-multi-choice","trial_index":217,"time_elapsed":939999,"internal_node_id":"0.0-8.0-0.0"},{"rt":4048,"responses":"{\"Q0\":\"Black-and-white Warbler\"}","answer":["Black-and-white Warbler"],"trial_type":"image-multi-choice","trial_index":218,"time_elapsed":945069,"internal_node_id":"0.0-8.0-1.0"},{"rt":18151,"responses":"{\"Q0\":\"Townsend's Warbler\"}","answer":["Townsend's Warbler"],"trial_type":"image-multi-choice","trial_index":219,"time_elapsed":964254,"internal_node_id":"0.0-8.0-2.0"},{"rt":4936,"responses":"{\"Q0\":\"Lark Sparrow\"}","answer":["Lark Sparrow"],"trial_type":"image-multi-choice","trial_index":220,"time_elapsed":970213,"internal_node_id":"0.0-8.0-3.0"},{"rt":3244,"responses":"{\"Q0\":\"Yellow Warbler\"}","answer":["Yellow Warbler"],"trial_type":"image-multi-choice","trial_index":221,"time_elapsed":974486,"internal_node_id":"0.0-8.0-4.0"},{"rt":8182,"responses":"{\"Q0\":\"Orange-crowned Warbler\"}","answer":["Orange-crowned Warbler"],"trial_type":"image-multi-choice","trial_index":222,"time_elapsed":983693,"internal_node_id":"0.0-8.0-5.0"},{"rt":4065,"responses":"{\"Q0\":\"White-throated Sparrow\"}","answer":["White-throated Sparrow"],"trial_type":"image-multi-choice","trial_index":223,"time_elapsed":988798,"internal_node_id":"0.0-8.0-6.0"},{"rt":3588,"responses":"{\"Q0\":\"Fox Sparrow\"}","answer":["Fox Sparrow"],"trial_type":"image-multi-choice","trial_index":224,"time_elapsed":993414,"internal_node_id":"0.0-8.0-7.0"},{"rt":13056,"responses":"{\"Q0\":\"Song Sparrow\"}","answer":["Song Sparrow"],"trial_type":"image-multi-choice","trial_index":225,"time_elapsed":1007495,"internal_node_id":"0.0-8.0-8.0"},{"rt":3635,"responses":"{\"Q0\":\"Blackburnian Warbler\"}","answer":["Blackburnian Warbler"],"trial_type":"image-multi-choice","trial_index":226,"time_elapsed":1012158,"internal_node_id":"0.0-8.0-9.0"},{"rt":6114,"responses":"{\"Q0\":\"Vesper Sparrow\"}","answer":["Vesper Sparrow"],"trial_type":"image-multi-choice","trial_index":227,"time_elapsed":1019310,"internal_node_id":"0.0-8.0-10.0"},{"rt":3567,"responses":"{\"Q0\":\"White-crowned Sparrow\"}","answer":["White-crowned Sparrow"],"trial_type":"image-multi-choice","trial_index":228,"time_elapsed":1023910,"internal_node_id":"0.0-8.0-11.0"},{"rt":5396,"responses":"{\"Q0\":\"American Tree Sparrow\"}","answer":["American Tree Sparrow"],"trial_type":"image-multi-choice","trial_index":229,"time_elapsed":1030335,"internal_node_id":"0.0-8.0-12.0"},{"rt":10498,"responses":"{\"Q0\":\"Tennessee Warbler\"}","answer":["Tennessee Warbler"],"trial_type":"image-multi-choice","trial_index":230,"time_elapsed":1041855,"internal_node_id":"0.0-8.0-13.0"},{"rt":6932,"responses":"{\"Q0\":\"Magnolia Warbler\"}","answer":["Magnolia Warbler"],"trial_type":"image-multi-choice","trial_index":231,"time_elapsed":1049822,"internal_node_id":"0.0-8.0-14.0"},{"rt":4623,"responses":"{\"Q0\":\"Northern Waterthrush\"}","answer":["Northern Waterthrush"],"trial_type":"image-multi-choice","trial_index":232,"time_elapsed":1055478,"internal_node_id":"0.0-8.0-15.0"},{"rt":3864,"responses":"{\"Q0\":\"Chipping Sparrow\"}","answer":["Chipping Sparrow"],"trial_type":"image-multi-choice","trial_index":233,"time_elapsed":1060375,"internal_node_id":"0.0-8.0-16.0"},{"rt":3799,"responses":"{\"Q0\":\"Lincoln's Sparrow\"}","answer":["Swamp Sparrow"],"trial_type":"image-multi-choice","trial_index":234,"time_elapsed":1065205,"internal_node_id":"0.0-8.0-17.0"},{"rt":14795,"responses":"{\"Q0\":\"Lincoln's Sparrow\"}","answer":["Lincoln's Sparrow"],"trial_type":"image-multi-choice","trial_index":235,"time_elapsed":1081037,"internal_node_id":"0.0-8.0-18.0"},{"rt":3275,"responses":"{\"Q0\":\"Ovenbird\"}","answer":["Ovenbird"],"trial_type":"image-multi-choice","trial_index":236,"time_elapsed":1085357,"internal_node_id":"0.0-8.0-19.0"}]