"view_history","rt","trial_type","trial_index","time_elapsed","internal_node_id","sim_score","stimulus","responses","answer"
"[{""page_index"":0,""viewing_time"":35234}]","35247","instructions","0","35257","0.0-0.0","","","",""
"","15313","similarity_demo","1","51695","0.0-1.0","6","[""img/866.jpg"",""img/868.jpg""]","",""
"[{""page_index"":0,""viewing_time"":22112}]","22118","instructions","2","74819","0.0-2.0","","","",""
"","8113","similarity_demo","3","84046","0.0-3.0","2","[""img/766.jpg"",""img/867.jpg""]","",""
"[{""page_index"":0,""viewing_time"":17513}]","17517","instructions","4","102578","0.0-4.0","","","",""
"[{""page_index"":0,""viewing_time"":53432}]","53446","instructions","5","157043","0.0-5.0","","","",""
"","11385","similarity","6","169597","0.0-6.0-0.0","2","[""img/0868/8b0b8473-e2c0-4331-aa56-c3a5c29369da.jpg"",""img/0901/0adb3bd6-d758-4ba7-9723-3ad6cac05bd5.jpg""]","",""
"","5418","similarity","7","176103","0.0-6.0-1.0","2","[""img/0769/8056889f-2b14-4782-bb25-b4e8896ab65b.jpg"",""img/0867/a498eef3-9fa4-4ab2-9778-4ae82ac40dc5.jpg""]","",""
"","5989","similarity","8","183153","0.0-6.0-2.0","6","[""img/0766/2da002a4-05c9-4f5c-9ed7-433b4183e273.jpg"",""img/0898/f3a3f225-1248-4ac7-b93b-f0ff28485bf3.jpg""]","",""
"","8570","similarity","9","192769","0.0-6.0-3.0","5","[""img/0902/6730b12a-f0a7-4587-8c10-a32fae16565b.jpg"",""img/0881/609a5e93-38b5-4940-8627-2bf8fad7f802.jpg""]","",""
"","7507","similarity","10","201325","0.0-6.0-4.0","7","[""img/0894/b2d2f66e-e480-46da-a02a-6d0c6b285d78.jpg"",""img/0894/2217bdcd-23a7-42d3-823b-23f2488d7e87.jpg""]","",""
"","7077","similarity","11","209465","0.0-6.0-5.0","2","[""img/0874/a3bc679d-619f-4db6-bb68-116dcb757d9c.jpg"",""img/0899/d8f2dd94-570e-4e8c-a087-d96090fb9e8c.jpg""]","",""
"","9950","similarity","12","220475","0.0-6.0-6.0","5","[""img/0904/09dac84f-3d1c-4445-a68e-d0389fdbf1e9.jpg"",""img/0764/cbdc4f20-3a9a-4211-9b40-090699e0abcc.jpg""]","",""
"","6874","similarity","13","228414","0.0-6.0-7.0","5","[""img/0899/8de08897-b430-42fe-9d42-840670b80f94.jpg"",""img/0898/224c1572-56b9-4f16-a9e4-6f3bc9c114bd.jpg""]","",""
"","7593","similarity","14","237302","0.0-6.0-8.0","5","[""img/0874/99f6563c-8a8d-4c1c-a41d-667b618c3fd5.jpg"",""img/0903/36e4ab1f-caa9-40b3-8616-faada076df94.jpg""]","",""
"","14860","similarity","15","253213","0.0-6.0-9.0","6","[""img/0881/405484ae-0d00-4b05-bc57-6420a36adfac.jpg"",""img/0758/61d64021-9214-4951-bdf8-f871f9827cf9.jpg""]","",""
"","6668","similarity","16","260955","0.0-6.0-10.0","5","[""img/0898/c3cecf20-f7fd-45fa-97d0-dc0a63e8d6c0.jpg"",""img/0901/2a953e50-d237-405c-a38d-5ed21494c968.jpg""]","",""
"","7515","similarity","17","269527","0.0-6.0-11.0","3","[""img/0903/43ffd882-077a-40dd-a264-e58d519420a1.jpg"",""img/0769/7c50e5f5-cc38-4d48-b009-fbe17bcea61c.jpg""]","",""
"","6592","similarity","18","277179","0.0-6.0-12.0","1","[""img/0764/e0788029-9d7f-414c-b747-46d2a99f7c86.jpg"",""img/0868/4e626425-63c8-484a-8a1d-e66ee4e0bef8.jpg""]","",""
"","6782","similarity","19","285008","0.0-6.0-13.0","3","[""img/0867/db7e032f-162b-46f5-ae67-2b29679adee4.jpg"",""img/0903/f10e9eb5-0c21-4a6a-944c-5f10a6d0fa4d.jpg""]","",""
"","7028","similarity","20","293127","0.0-6.0-14.0","1","[""img/0766/fd064894-7147-4af5-97e9-2089d5472656.jpg"",""img/0758/7ffbc76b-1fc1-432c-8f7e-9ec8d1b3f643.jpg""]","",""
"","8281","similarity","21","302503","0.0-6.0-15.0","3","[""img/0902/794606a0-d8a8-4e58-8bf8-9d114ed5a548.jpg"",""img/0860/18dfed73-e36b-4487-a8bd-0b8cff8e3668.jpg""]","",""
"","7331","similarity","22","310887","0.0-6.0-16.0","1","[""img/0769/db94b61b-a5a7-4861-9d32-7b02ad194fb0.jpg"",""img/0875/42910c99-5463-450a-a0f8-d4d060a11455.jpg""]","",""
"","6963","similarity","23","318901","0.0-6.0-17.0","4","[""img/0904/96e503ea-6630-4996-85f2-0237688ce441.jpg"",""img/0866/02f5e6b9-52b7-448c-9708-5b460d0c9a23.jpg""]","",""
"","6753","similarity","24","326707","0.0-6.0-18.0","6","[""img/0875/2e13d160-eea1-416b-aff1-d37ab99ecc1d.jpg"",""img/0875/2c361b79-c3d1-4eda-812e-bf03192407bf.jpg""]","",""
"","6233","similarity","25","333991","0.0-6.0-19.0","7","[""img/0758/a085b443-b5d7-4cb2-9ad4-b9dab0fc23f1.jpg"",""img/0758/65d426d6-3ff6-415d-8654-a43b83ecc4fe.jpg""]","",""
"","8179","similarity","26","343225","0.0-6.0-20.0","2","[""img/0902/8af4182a-9af9-4212-a436-9195555112d6.jpg"",""img/0874/31e22c7c-99aa-40b1-bf03-dd73fa2df4d6.jpg""]","",""
"","7156","similarity","27","351437","0.0-6.0-21.0","7","[""img/0764/d0bef2e0-e16b-4c82-9451-c1d16265eb67.jpg"",""img/0769/3c1203c5-2ce7-466e-957a-8d77b5905460.jpg""]","",""
"","7651","similarity","28","360146","0.0-6.0-22.0","2","[""img/0901/c6df1a21-44ed-47c2-960e-7c52220e329e.jpg"",""img/0874/995f0332-0439-4eb4-add3-957335dbf6d9.jpg""]","",""
"","6099","similarity","29","367300","0.0-6.0-23.0","1","[""img/0875/8521fd58-3b1e-4dc5-97ae-804edfa6734a.jpg"",""img/0903/c3cb4a01-2797-43ca-b216-88c67b323fbb.jpg""]","",""
"","5948","similarity","30","374327","0.0-6.0-24.0","1","[""img/0769/82ab9db6-4578-4e79-874f-f09100439f09.jpg"",""img/0881/633c6f40-56d9-4b48-bf1c-ecd83116eabb.jpg""]","",""
"","4753","similarity","31","380116","0.0-6.0-25.0","1","[""img/0867/1719a35d-f085-48c0-9099-16c94fe418b4.jpg"",""img/0904/5cceabc9-de1d-4c67-989b-c28a4ef77e79.jpg""]","",""
"","5809","similarity","32","386992","0.0-6.0-26.0","5","[""img/0860/c47fdead-eb02-4989-b078-26f4852f44fe.jpg"",""img/0881/d1982897-8d8d-4704-a940-1ee5d07a1f15.jpg""]","",""
"","7219","similarity","33","395261","0.0-6.0-27.0","6","[""img/0866/07c9c966-3c8d-40e7-8128-92b2acbaed5d.jpg"",""img/0866/8efcaa46-83ab-4dee-a35f-850402aa21ae.jpg""]","",""
"","8987","similarity","34","405385","0.0-6.0-28.0","3","[""img/0764/c80b3e06-2ee3-4326-9678-340607eb5348.jpg"",""img/0862/064818ee-13d5-4618-bb24-21c7368ea278.jpg""]","",""
"","1772","similarity","35","408208","0.0-6.0-29.0","4","[""img/0904/0d25eb24-bb20-4e8d-9787-8b489558b4cb.jpg"",""img/0758/67c0be2f-9e91-48b3-8219-70ac0a1802fa.jpg""]","",""
"","10020","similarity","36","419273","0.0-6.0-30.0","4","[""img/0894/1b3888e6-cf36-4c4a-a039-187aa5cb71ac.jpg"",""img/0899/b45c550b-96c3-4255-ad59-48a2b4db1c1e.jpg""]","",""
"","7705","similarity","37","428026","0.0-6.0-31.0","2","[""img/0860/29a21a9f-54bb-4093-ad3f-04823ceaa89f.jpg"",""img/0904/2f88ce53-02d0-4f95-a082-182c56a0eeb4.jpg""]","",""
"","10942","similarity","38","440010","0.0-6.0-32.0","5","[""img/0874/2c9464dd-8a23-4baa-ac94-1ba3af5c15cc.jpg"",""img/0881/f7a8cc63-8842-40a4-9ff8-fe530310d62c.jpg""]","",""
"","8253","similarity","39","449306","0.0-6.0-33.0","1","[""img/0881/b1a136f7-8511-4d3a-a0f6-3879acf1e1a1.jpg"",""img/0899/9de5e857-aa9a-4e0c-8ba2-46d79bd069a4.jpg""]","",""
"","7893","similarity","40","458244","0.0-6.0-34.0","5","[""img/0866/d493a2c8-66eb-44b4-be02-2f327b700b7c.jpg"",""img/0862/53a9cf7c-93c4-41b9-952f-07d17f7a17b2.jpg""]","",""
"","6469","similarity","41","465760","0.0-6.0-35.0","1","[""img/0868/6a28c3b0-3d76-498a-9fb7-ddafc665eca8.jpg"",""img/0894/767a0eec-1064-46b1-b1aa-dfa02b0cd74e.jpg""]","",""
"","6532","similarity","42","473329","0.0-6.0-36.0","7","[""img/0860/c3379ff7-0763-48fe-a1ec-7ea3d611bc7a.jpg"",""img/0860/524b2e98-5767-4d53-942c-ebae6925659b.jpg""]","",""
"","5449","similarity","43","479826","0.0-6.0-37.0","5","[""img/0862/fad1d7c1-8187-43c3-942a-0fc12183e48e.jpg"",""img/0864/b3c4e378-28f0-4699-9338-2a257b4bca04.jpg""]","",""
"","6448","similarity","44","487311","0.0-6.0-38.0","1","[""img/0766/79767d11-b612-4e8a-9e4b-a8ac95bb6a54.jpg"",""img/0866/9b38d691-1802-4959-ab3f-fc902f0e4ea6.jpg""]","",""
"","7599","similarity","45","495949","0.0-6.0-39.0","1","[""img/0875/90da8d75-108a-44ad-b999-e21fee3860d3.jpg"",""img/0898/a114b375-cb89-44ba-9498-74213f1ecdee.jpg""]","",""
"","6894","similarity","46","503878","0.0-6.0-40.0","6","[""img/0766/f5f78e4e-d88f-4866-951a-118ba9fec4d0.jpg"",""img/0769/c34b7763-8ff2-46d5-9e92-f1d8f3bedbd8.jpg""]","",""
"","5384","similarity","47","533607","0.0-6.0-41.0","1","[""img/0874/7e4f2150-3b59-4a36-b5da-a4e0ba410531.jpg"",""img/0764/fb7d4a20-a475-465e-a74f-aa39a0d33d16.jpg""]","",""
"","6139","similarity","48","540820","0.0-6.0-42.0","1","[""img/0868/3a62db2d-97e9-44a3-b8e3-a48c6f0e423b.jpg"",""img/0902/5b45a7a0-81c8-4a71-aaa2-2ce09adb5a29.jpg""]","",""
"","5350","similarity","49","547231","0.0-6.0-43.0","1","[""img/0875/5a7c4e35-6514-4e12-8879-d16071da4cd6.jpg"",""img/0899/d60714ae-98d7-4564-8c98-94dba1351135.jpg""]","",""
"","6757","similarity","50","555033","0.0-6.0-44.0","5","[""img/0866/93a27239-8317-4e08-98ca-d8b1ff298e07.jpg"",""img/0860/8277806e-b684-4474-8f7b-3fca946d7d4f.jpg""]","",""
"","5908","similarity","51","561975","0.0-6.0-45.0","6","[""img/0766/af3be95e-e52e-4fae-899b-0ff02ec340aa.jpg"",""img/0903/6138142e-c84e-45fc-9487-c974f3d4968a.jpg""]","",""
"","4873","similarity","52","567871","0.0-6.0-46.0","6","[""img/0901/443f2e59-199b-4f7b-9de9-c44ad97326a5.jpg"",""img/0904/06dacdc5-2206-4fb8-92b7-88042d22833c.jpg""]","",""
"","6788","similarity","53","575691","0.0-6.0-47.0","6","[""img/0758/7fba58df-2a7a-4b76-8a8f-62739f97f271.jpg"",""img/0902/6c2c243a-f663-45db-baf5-038d3d58c589.jpg""]","",""
"","6279","similarity","54","583024","0.0-6.0-48.0","7","[""img/0764/06ea144f-f4f3-4a14-ba47-f20f35c561e0.jpg"",""img/0764/c84fbfa8-521c-407a-9bd3-24f7308d896c.jpg""]","",""
"","6892","similarity","55","590996","0.0-6.0-49.0","4","[""img/0866/0207e9a2-7dbb-40b5-9459-b472aaeceb2a.jpg"",""img/0902/1f4a4c62-68c1-4993-b213-05652a173ed1.jpg""]","",""
"","6366","similarity","56","598406","0.0-6.0-50.0","2","[""img/0764/4eff630a-6426-4f8d-b2ba-b4d9842a0962.jpg"",""img/0758/6cd8c362-ae2a-41eb-80a3-3a4f7ace1530.jpg""]","",""
"","5962","similarity","57","605426","0.0-6.0-51.0","6","[""img/0898/68476bbb-34a1-42d9-8bc1-deab783d4489.jpg"",""img/0894/e5edf723-72a5-4673-8441-6c1734a8929b.jpg""]","",""
"","6765","similarity","58","613235","0.0-6.0-52.0","6","[""img/0875/dbdd643e-6d0e-4a5c-ab57-b9c29b9c981a.jpg"",""img/0866/a04d37f0-99dd-478a-b6c6-58b215138f84.jpg""]","",""
"","6188","similarity","59","620463","0.0-6.0-53.0","7","[""img/0904/0d17b811-063e-416e-a23c-3b3cfa4fcce5.jpg"",""img/0904/4d7d70a3-9477-4921-bda0-f9531d0a5c5b.jpg""]","",""
"","10734","similarity","60","632245","0.0-6.0-54.0","7","[""img/0769/e31b3bd8-efcb-413e-aa8c-75fac2b8f2ac.jpg"",""img/0769/180213e5-1e50-4b4e-87b6-add77ba04d39.jpg""]","",""
"","6189","similarity","61","639551","0.0-6.0-55.0","1","[""img/0898/26c41340-15bd-4ead-8fe4-c0d0ddca09c2.jpg"",""img/0758/53f35650-e455-4b53-8be4-c3c8271c6466.jpg""]","",""
"","10930","similarity","62","651525","0.0-6.0-56.0","6","[""img/0769/50985283-d353-4abc-9abe-14a91d56ebe6.jpg"",""img/0902/40d0b6ec-3907-4573-b227-e7d8e9cad1c3.jpg""]","",""
"","7953","similarity","63","660519","0.0-6.0-57.0","5","[""img/0864/300bb811-8b3c-4c42-8653-6097c3725197.jpg"",""img/0881/2a8413be-fec2-4de6-88ad-614dd4cccc9d.jpg""]","",""
"","6750","similarity","64","668317","0.0-6.0-58.0","6","[""img/0758/d540bee6-b460-4c32-ac57-bc282742d7d4.jpg"",""img/0868/c8ac40c7-6904-4e13-8d61-c75d3052dc4e.jpg""]","",""
"","13508","similarity","65","682866","0.0-6.0-59.0","5","[""img/0862/57b6f83f-c763-4858-830d-102f97bfefbf.jpg"",""img/0769/f73c5138-2f4c-4354-981c-129dff9cc734.jpg""]","",""
"","8958","similarity","66","692866","0.0-6.0-60.0","5","[""img/0764/f713847b-4832-42d1-8fb3-e17e37fd745c.jpg"",""img/0903/45e2d600-57ff-4d69-b22c-0c7896cd38f0.jpg""]","",""
"","7304","similarity","67","701206","0.0-6.0-61.0","7","[""img/0899/56a605c3-d0a2-4215-89e1-779279d85a7c.jpg"",""img/0899/5b56dd3e-3f49-47cc-af84-16da6457753b.jpg""]","",""
"","6874","similarity","68","709121","0.0-6.0-62.0","6","[""img/0860/94ef7afc-e0e6-4a15-98c6-0bfac82bc832.jpg"",""img/0875/03c3c331-738b-4446-af92-3d7386b08c2e.jpg""]","",""
"","7080","similarity","69","717239","0.0-6.0-63.0","5","[""img/0868/1a62b2b2-18f5-466e-b564-5176a57c565e.jpg"",""img/0874/3f471690-9788-4d03-90c7-f615aecef149.jpg""]","",""
"","8834","similarity","70","727113","0.0-6.0-64.0","4","[""img/0758/a709631e-3705-4725-ac40-f0d916924f08.jpg"",""img/0862/e697469a-ec19-4414-b972-7b9f3564785b.jpg""]","",""
"","6785","similarity","71","734946","0.0-6.0-65.0","5","[""img/0904/696ebb60-8891-417a-91fd-c53218907a95.jpg"",""img/0898/40f99fb2-64d2-4e72-8a7f-a1cf60741e69.jpg""]","",""
"","6479","similarity","72","742473","0.0-6.0-66.0","4","[""img/0881/c843e210-bdfe-4a7c-8bbe-fcea1f90fe1c.jpg"",""img/0866/bf14b5bd-fb55-47db-86b9-4f8aeb9a6dad.jpg""]","",""
"","6385","similarity","73","749920","0.0-6.0-67.0","1","[""img/0867/f8488a47-94ee-4166-952c-44e16cf172f6.jpg"",""img/0898/0c7dde4f-efce-4b7a-9387-6921635b7890.jpg""]","",""
"","8730","similarity","74","759700","0.0-6.0-68.0","6","[""img/0902/d1083f2c-5520-44ec-81a8-3f856fbf0e80.jpg"",""img/0764/cffc80b0-4a90-4acb-a530-6f480f3ca303.jpg""]","",""
"","6639","similarity","75","767374","0.0-6.0-69.0","5","[""img/0875/527ced51-8e53-4aab-ab05-86df219104c0.jpg"",""img/0867/f8159067-056c-41f1-a136-c529fe5e970a.jpg""]","",""
"","7361","similarity","76","775767","0.0-6.0-70.0","6","[""img/0766/3c526a07-9e0a-4ae2-8142-00085f0127da.jpg"",""img/0764/438c0217-036f-43c9-9b87-f43144e46011.jpg""]","",""
"","6928","similarity","77","783737","0.0-6.0-71.0","2","[""img/0894/a98416c0-51e2-4960-85da-d81d8688b9d5.jpg"",""img/0867/179ab87a-8eac-4c52-a41f-2e48e3120f09.jpg""]","",""
"","8436","similarity","78","793220","0.0-6.0-72.0","1","[""img/0875/3ecb367d-e9eb-4826-8aaa-7aa72fb98019.jpg"",""img/0764/4bec8d92-75aa-475a-954d-8215dbe538f5.jpg""]","",""
"","6799","similarity","79","801066","0.0-6.0-73.0","7","[""img/0867/7d1c497b-c1b3-4ed8-abb5-d7f73306015f.jpg"",""img/0866/6f2a90d7-14f1-4f1b-bd64-fc0af6b9fe44.jpg""]","",""
"","7071","similarity","80","809174","0.0-6.0-74.0","1","[""img/0903/150cf64c-0bd2-4674-abbb-a1387cf1f3e9.jpg"",""img/0758/f61ecdf8-a7d4-4db0-b84d-be46f7cfaffc.jpg""]","",""
"","5985","similarity","81","816199","0.0-6.0-75.0","1","[""img/0766/908bc45b-7c9e-4f95-806e-86b196ebcb2c.jpg"",""img/0868/83b4350a-3b70-4cea-b7f5-b5b56f3050a8.jpg""]","",""
"","7534","similarity","82","824776","0.0-6.0-76.0","2","[""img/0874/eba003b4-cdab-4eee-8bc3-f064c7d94165.jpg"",""img/0766/69e486f7-dbef-456b-9d48-53d814248a28.jpg""]","",""
"","6161","similarity","83","831974","0.0-6.0-77.0","5","[""img/0881/54ea8e77-c7e5-4197-b7fa-00b7020849a7.jpg"",""img/0868/09a9ef4d-d000-4cfa-a6aa-ebec7c2edeb4.jpg""]","",""
"","6471","similarity","84","839493","0.0-6.0-78.0","4","[""img/0758/335851a0-a55b-46d8-ab05-8463eda48349.jpg"",""img/0901/148b747a-7392-437e-8823-33053c5dff3f.jpg""]","",""
"","7420","similarity","85","847959","0.0-6.0-79.0","2","[""img/0881/62a64f90-7a72-4aee-a1a1-0c548ac9bdda.jpg"",""img/0898/cd3aaa3f-efa9-4ab3-8d6f-a6a9273ddf42.jpg""]","",""
"","6912","similarity","86","855903","0.0-6.0-80.0","5","[""img/0867/ac1797e4-8afc-48fe-b252-86d1defb1cca.jpg"",""img/0758/d41c06bf-ebaf-454b-91c6-1a17f917b659.jpg""]","",""
"","9727","similarity","87","867444","0.0-6.0-81.0","6","[""img/0769/8c7cf147-1780-4d5c-8ddf-5ea23ff03ac9.jpg"",""img/0899/00715b3f-851b-420b-a26b-d7f79f7759a9.jpg""]","",""
"","6562","similarity","88","875042","0.0-6.0-82.0","7","[""img/0903/f45a103c-9bfe-49fd-ad96-bdd8d2589195.jpg"",""img/0903/07b445ee-0cdb-4d2c-a23b-d727613f4059.jpg""]","",""
"","5805","similarity","89","1079013","0.0-6.0-83.0","1","[""img/0867/cc72ed48-7704-422c-86d6-467a1145287a.jpg"",""img/0766/d3bab2fc-ddcc-40a0-bb72-c0d0ebe19978.jpg""]","",""
"","5020","similarity","90","1085077","0.0-6.0-84.0","1","[""img/0902/94ee9c53-a9a2-4f95-b9b7-794a5fc62bb6.jpg"",""img/0867/50a1b60e-3a29-44bf-b606-d4bd3746fea9.jpg""]","",""
"","6873","similarity","91","1092983","0.0-6.0-85.0","4","[""img/0901/6e2957f8-f5ab-46f4-87cc-bb50155a098b.jpg"",""img/0875/34132396-d896-4c2d-8087-646dd867e769.jpg""]","",""
"","5176","similarity","92","1099200","0.0-6.0-86.0","1","[""img/0764/1def7b22-b054-4ec2-860b-73d25691823b.jpg"",""img/0866/c446214b-a368-4c65-ae39-ea46894256ab.jpg""]","",""
"","7627","similarity","93","1108091","0.0-6.0-87.0","5","[""img/0901/33b51a81-06d9-46d9-9d4f-5a2d6d6b8058.jpg"",""img/0894/3adef67d-7676-4995-80b2-bb31b8aca3ef.jpg""]","",""
"","6209","similarity","94","1115333","0.0-6.0-88.0","6","[""img/0898/881e2a85-d5c2-49be-a0c6-8a6ce2c4af08.jpg"",""img/0769/9ea27d61-3d55-418c-8d14-82e90f656f01.jpg""]","",""
"","7070","similarity","95","1123434","0.0-6.0-89.0","7","[""img/0769/3c1efec9-f8fd-487d-8955-4be88e48c832.jpg"",""img/0894/86201968-6e78-4d68-9b3a-d1692e066210.jpg""]","",""
"","7438","similarity","96","1131920","0.0-6.0-90.0","5","[""img/0862/d0ca4c78-fc35-46ed-bdcc-8e124283c53e.jpg"",""img/0874/29830da7-be5f-44e5-b141-652a0ccf7269.jpg""]","",""
"","6791","similarity","97","1139744","0.0-6.0-91.0","6","[""img/0894/492d2f29-d7b9-4422-8be8-47fd58bfaa8b.jpg"",""img/0766/ae0fce93-fe8d-4aa1-87ca-4c3e4b889f2f.jpg""]","",""
"","7075","similarity","98","1147859","0.0-6.0-92.0","5","[""img/0874/ca76a855-4e77-4f2f-872a-0a718153e7ed.jpg"",""img/0867/98d8cd96-1476-4fe0-a3a3-04f875500a1b.jpg""]","",""
"","5588","similarity","99","1154479","0.0-6.0-93.0","1","[""img/0899/f95cbdb4-f804-4f5d-ad76-373ad343e658.jpg"",""img/0868/293079b8-7e0c-4afd-a390-1e5d35fe3ded.jpg""]","",""
"","5994","similarity","100","1161511","0.0-6.0-94.0","2","[""img/0903/b0a3c45f-467e-412f-a183-c9c1827f2e63.jpg"",""img/0862/de9ad88c-b522-430a-8ee9-eb06a9f85df5.jpg""]","",""
"","7723","similarity","101","1170267","0.0-6.0-95.0","6","[""img/0899/a048912c-b12c-40e3-90af-46b69b0cc4fe.jpg"",""img/0766/71b81ebd-0937-4d7f-b8bf-c4e46a4728fd.jpg""]","",""
"","5841","similarity","102","1177142","0.0-6.0-96.0","7","[""img/0867/85a96c62-548f-4994-9553-819e03c3135a.jpg"",""img/0868/4a8a45ed-2c4f-421b-9564-409a33ecd26c.jpg""]","",""
"","6454","similarity","103","1184635","0.0-6.0-97.0","6","[""img/0862/e0f1a4e9-e1b6-45f7-af67-89f334e6630d.jpg"",""img/0901/deff6cfb-0072-4490-bc3e-206bbcd3e8bf.jpg""]","",""
"","4645","similarity","104","1190345","0.0-6.0-98.0","1","[""img/0875/cff79b3a-a797-4393-9757-6275f999ec04.jpg"",""img/0766/717fd72f-a281-499b-a5ba-5e2ecc4d4866.jpg""]","",""
"","6424","similarity","105","1197814","0.0-6.0-99.0","7","[""img/0758/20497cbe-ddae-489e-86e2-ab06985ed07c.jpg"",""img/0874/8cdb1c07-1c32-46d2-981c-3636560fa6e5.jpg""]","",""
"","4985","similarity","106","1203845","0.0-6.0-100.0","1","[""img/0904/09934646-45d2-4147-8fec-64a22a5ac822.jpg"",""img/0868/d98ca254-b195-477f-b57e-5760a2717db8.jpg""]","",""
"","6712","similarity","107","1211591","0.0-6.0-101.0","2","[""img/0903/f1fa0f8d-e62b-4b4a-a174-31a0fabfe61b.jpg"",""img/0866/f756f7d1-9ad8-4a34-9ef6-7a443d705bfe.jpg""]","",""
"","4744","similarity","108","1217374","0.0-6.0-102.0","1","[""img/0868/4bd5105a-d2c3-4f82-8c80-57196106ba53.jpg"",""img/0769/1d8734c4-77ab-4165-9e71-5cfe672ff01c.jpg""]","",""
"","6463","similarity","109","1224885","0.0-6.0-103.0","5","[""img/0902/eb3e7e71-8ff1-4b88-a6a7-47e2c1ce1683.jpg"",""img/0899/51a7a498-98c7-42d7-bca8-bc2d8f0b5831.jpg""]","",""
"","6692","similarity","110","1232619","0.0-6.0-104.0","5","[""img/0868/179a5502-ab5c-478e-8263-5a1fbcc101d2.jpg"",""img/0862/fb26cb07-d5a9-4653-813c-f41609f26cd5.jpg""]","",""
"","6172","similarity","111","1239836","0.0-6.0-105.0","4","[""img/0903/9b60ef5b-234f-4239-892b-3d4c412accc2.jpg"",""img/0894/bd34223a-2f66-4e16-9d18-193a746b69ff.jpg""]","",""
"","6745","similarity","112","1247672","0.0-6.0-106.0","6","[""img/0864/c3b63e8f-ea39-4d70-a1f2-b3fe4be8eb75.jpg"",""img/0874/85eb9b8a-c4c6-4e5a-b8e7-363a87a82054.jpg""]","",""
"","6906","similarity","113","1255615","0.0-6.0-107.0","2","[""img/0862/92f0146c-20c4-482e-aef5-adb693790338.jpg"",""img/0902/12452bb1-b8c0-4e4d-ad4d-47e279e5933c.jpg""]","",""
"","6625","similarity","114","1263272","0.0-6.0-108.0","7","[""img/0904/4b8daf2a-13a9-4ea9-9e0b-b265b6e933e7.jpg"",""img/0903/8931c67c-a43d-47d3-a4c9-42aa2f81d344.jpg""]","",""
"","6497","similarity","115","1270802","0.0-6.0-109.0","2","[""img/0764/713cc27e-2338-4486-bfe9-5f5725fbd7a0.jpg"",""img/0864/66091c27-e588-4476-8af9-265dc6be4156.jpg""]","",""
"","8606","similarity","116","1280448","0.0-6.0-110.0","2","[""img/0866/945c6710-d15b-4a5b-a8f6-69af0850357f.jpg"",""img/0894/11674fa4-285d-44e2-939f-2228c6a64080.jpg""]","",""
"","6770","similarity","117","1288253","0.0-6.0-111.0","6","[""img/0899/1b3457ea-87d4-4946-a01c-aac1863ed46c.jpg"",""img/0903/6378ee1e-3d2b-48d2-87be-bebda32c8268.jpg""]","",""
"","232880","similarity","118","1522175","0.0-6.0-112.0","5","[""img/0902/a6fb6dd5-696c-47ec-be7d-d7b88f1544f1.jpg"",""img/0904/1d10df11-b5c8-4370-9a6b-097a7f965895.jpg""]","",""
"","6079","similarity","119","1529294","0.0-6.0-113.0","6","[""img/0864/4bd81bc6-c13d-46df-95a9-485886dc7c1b.jpg"",""img/0860/4f695df5-afac-4da7-9875-fee39b0b24ad.jpg""]","",""
"","5794","similarity","120","1536130","0.0-6.0-114.0","1","[""img/0860/5bff793e-cbd5-4d7e-b628-0ac2b0e30b64.jpg"",""img/0899/0e1d936a-dbe2-4afc-9f19-7b7a1ae6c9ed.jpg""]","",""
"","5008","similarity","121","1542205","0.0-6.0-115.0","1","[""img/0881/48ed65a5-471f-41af-86ec-3793805c116d.jpg"",""img/0903/e2e55a9e-0397-4dc0-8adf-4a54cfefe1fe.jpg""]","",""
"","6184","similarity","122","1549417","0.0-6.0-116.0","1","[""img/0894/e6385e52-6c35-43bd-b0af-bc803d107b11.jpg"",""img/0874/adf9a8f1-c40b-402b-b95b-1e85a54a7b62.jpg""]","",""
"","6539","similarity","123","1556987","0.0-6.0-117.0","5","[""img/0881/db77fe00-aeb0-4d1d-aa66-f3a96fd077e4.jpg"",""img/0862/a0a3a7ba-7798-46a3-b4ca-05e1f6e581d0.jpg""]","",""
"","5751","similarity","124","1563775","0.0-6.0-118.0","5","[""img/0868/7b212364-ff5f-4e28-9241-7eb6ea00161b.jpg"",""img/0875/ebf7653f-ff45-4e9f-af58-2c042ab3cd2b.jpg""]","",""
"","5645","similarity","125","1570456","0.0-6.0-119.0","5","[""img/0860/15b24a61-25be-4356-9eac-5ce95d0cb4a4.jpg"",""img/0758/3ddd05d3-557e-4ee7-8b78-9d2d681d8ae2.jpg""]","",""
"","5151","similarity","126","1576637","0.0-6.0-120.0","5","[""img/0864/da39ad34-04e0-40d4-a724-c08d53e0ea09.jpg"",""img/0875/e7e66b13-b573-431e-b85e-288ce04a35a3.jpg""]","",""
"","8307","similarity","127","1585967","0.0-6.0-121.0","2","[""img/0898/04e39a7a-fcf6-4156-ab0e-f5871f335e1c.jpg"",""img/0866/23a224f3-2012-4fc8-8e0f-3c36f8de27fd.jpg""]","",""
"","4964","similarity","128","1591967","0.0-6.0-122.0","2","[""img/0874/3ce41e7c-40c8-4d58-a546-171114521796.jpg"",""img/0904/fe746a3f-8458-48d0-8a13-8cba2a9df9f8.jpg""]","",""
"","6525","similarity","129","1599531","0.0-6.0-123.0","1","[""img/0904/60d1a521-edf7-4696-9263-f21ac0e62a01.jpg"",""img/0864/8ddd2e30-a1d0-479f-9cbe-591213023893.jpg""]","",""
"","7040","similarity","130","1607607","0.0-6.0-124.0","6","[""img/0894/661b9f9f-4bde-487a-b1ed-87085fde6948.jpg"",""img/0902/bd89a85f-3853-4786-acd6-98818ee29f1c.jpg""]","",""
"","5211","similarity","131","1626010","0.0-6.0-125.0","5","[""img/0868/0d3abd3a-b6c3-4584-a9f7-e2da63748b3d.jpg"",""img/0864/e8bd659f-aa43-4748-877e-3118e8b4e189.jpg""]","",""
"","5606","similarity","132","1632650","0.0-6.0-126.0","1","[""img/0899/a05bea16-2bb4-4cb9-b8fb-4ff975db6971.jpg"",""img/0866/11a1d141-be5e-443c-98c1-a9d4d9e3dec0.jpg""]","",""
"","6657","similarity","133","1640351","0.0-6.0-127.0","2","[""img/0875/d59ff733-eaff-4ee2-9443-06954dd0bcb6.jpg"",""img/0904/a8c3c7d2-9bcf-4347-9e03-8203adfc1fc5.jpg""]","",""
"","5484","similarity","134","1646873","0.0-6.0-128.0","1","[""img/0867/12264664-1860-46df-8c21-162b9817cdda.jpg"",""img/0899/93494f3b-d539-4075-b027-d82e344563da.jpg""]","",""
"","7306","similarity","135","1655211","0.0-6.0-129.0","3","[""img/0901/00acf6c1-b66e-4060-bb04-4caf29b5a8b0.jpg"",""img/0867/8ba0c5a7-c7e4-42cf-a80a-543763b90779.jpg""]","",""
"","8985","similarity","136","1665234","0.0-6.0-130.0","2","[""img/0864/0116ca98-293d-4fa6-a93b-5a6144ef64cc.jpg"",""img/0769/bb8c4e53-6f32-4814-97ee-392d4decfb2e.jpg""]","",""
"","6147","similarity","137","1672421","0.0-6.0-131.0","1","[""img/0903/f67c4ab9-f8c2-4fcd-848a-a54a7b031002.jpg"",""img/0868/77091fc7-a590-4ebb-b915-fdb2483a2399.jpg""]","",""
"","6295","similarity","138","1679763","0.0-6.0-132.0","5","[""img/0864/5f33e097-23e3-4002-882d-76e8cb15f451.jpg"",""img/0867/f26f6b60-f772-4f4c-95a4-addc62cfd692.jpg""]","",""
"","6993","similarity","139","1687787","0.0-6.0-133.0","3","[""img/0901/0f670aef-ac36-496d-8142-ee5fdb21dd82.jpg"",""img/0860/17b44a7d-c5ca-479f-9e87-f65a64f5c80e.jpg""]","",""
"","6612","similarity","140","1695440","0.0-6.0-134.0","2","[""img/0881/19e82c47-8e4b-45d2-a6c8-74181eb4155e.jpg"",""img/0766/a0270213-fa0e-4972-8b56-228c3e01ff90.jpg""]","",""
"","5624","similarity","141","1702097","0.0-6.0-135.0","2","[""img/0903/8fcafe03-43df-4c45-9da5-0df3a1eeccc5.jpg"",""img/0864/6f631579-acf1-415c-a42c-1207f62a8d99.jpg""]","",""
"","9004","similarity","142","1712132","0.0-6.0-136.0","1","[""img/0758/2fa3e613-e676-4e6e-bd12-705327eeb3e1.jpg"",""img/0894/4739e06d-c31e-4bf1-bf91-c97fa9afb456.jpg""]","",""
"","6236","similarity","143","1719408","0.0-6.0-137.0","3","[""img/0769/f229321f-04dd-42d7-b14a-ffad6b509862.jpg"",""img/0860/9593362c-9fe5-4d12-9735-6000a11f6aa5.jpg""]","",""
"","6431","similarity","144","1726879","0.0-6.0-138.0","6","[""img/0904/b7c2a2c8-df33-4473-b3d4-ff7147c60db3.jpg"",""img/0766/a754e4b6-5019-4cf4-8f58-34c20547a1f5.jpg""]","",""
"","6402","similarity","145","1734324","0.0-6.0-139.0","5","[""img/0868/e0aff734-077f-40dd-9781-74821abd3621.jpg"",""img/0860/31ff6436-98bf-4652-bed2-40f627229568.jpg""]","",""
"","6065","similarity","146","1741423","0.0-6.0-140.0","6","[""img/0758/821c68d3-5cb0-4eae-8659-30e6263fca39.jpg"",""img/0864/efcfbb1b-8197-44c9-b723-40d6c608dd3c.jpg""]","",""
"","7135","similarity","147","1749583","0.0-6.0-141.0","7","[""img/0867/de92135f-5b65-4ed9-b245-188292c7c2f8.jpg"",""img/0867/bf560d4f-dee3-4f11-a385-705cc1aa5f3c.jpg""]","",""
"","10675","similarity","148","1761291","0.0-6.0-142.0","7","[""img/0898/0af304a2-6a7a-4082-ab7c-4450cd08cc58.jpg"",""img/0898/b3290bf9-215b-4b45-b21a-65bdf73f142f.jpg""]","",""
"","10673","similarity","149","1773000","0.0-6.0-143.0","2","[""img/0866/620cd1aa-0800-4414-8f6e-90342e7a99ad.jpg"",""img/0769/38a88f69-28fd-4bbd-99f0-f4c02bfd3995.jpg""]","",""
"","6641","similarity","150","1780722","0.0-6.0-144.0","2","[""img/0860/71e1aad0-2cdf-43bb-94a4-a8c016997c30.jpg"",""img/0898/e167334e-cc1d-4986-b3b1-c7bc7da64baa.jpg""]","",""
"","8133","similarity","151","1790030","0.0-6.0-145.0","3","[""img/0766/33519c22-aaa4-49d7-8d49-ab551db1945e.jpg"",""img/0864/c22faebd-9c53-47bc-ada3-b9a30c688e75.jpg""]","",""
"","6515","similarity","152","1797688","0.0-6.0-146.0","4","[""img/0860/5383b320-1518-4095-a58e-5cc1ae30b64c.jpg"",""img/0903/c708d08f-a108-4e04-8288-c3fcf6375db4.jpg""]","",""
"","9283","similarity","153","1808075","0.0-6.0-147.0","1","[""img/0867/c66898ba-b71b-4d50-84f9-f7f84853a98d.jpg"",""img/0764/bc3865c9-9004-4582-88a7-048478673f97.jpg""]","",""
"","6878","similarity","154","1816029","0.0-6.0-148.0","6","[""img/0769/4a1d0b52-3fe8-40fb-bb1c-c814fe49a68c.jpg"",""img/0904/56e73f28-7e64-489b-a161-e6b1a063878d.jpg""]","",""
"","10844","similarity","155","1827952","0.0-6.0-149.0","5","[""img/0764/6fbd1902-fa2a-48d8-bc11-705b8ab68d8f.jpg"",""img/0901/b123d109-47b4-4f9a-80c9-9bb16da42efa.jpg""]","",""
"","5380","similarity","156","1834395","0.0-6.0-150.0","6","[""img/0904/9b3568cc-3cf7-42be-9df3-fdafde7a58b8.jpg"",""img/0899/8abe6c69-822c-436c-9bf2-96c818b49ba5.jpg""]","",""
"","7037","similarity","157","1842518","0.0-6.0-151.0","6","[""img/0862/5d887e9f-89e2-4ebc-80a0-6d46fe6480db.jpg"",""img/0867/c71dc569-f49c-4397-8381-68b8d726736d.jpg""]","",""
"","446947","similarity","158","2290597","0.0-6.0-152.0","7","[""img/0766/33aa9ebb-c9f5-418f-8c8b-c77861889568.jpg"",""img/0766/6d32752d-aa05-40dc-9541-640b6e9d6fa1.jpg""]","",""
"","5531","similarity","159","2297267","0.0-6.0-153.0","1","[""img/0862/00c06b00-3b73-44e9-bc1e-c5aafb438321.jpg"",""img/0894/b422d5c6-3c5a-49ae-a53e-7e88ac993f49.jpg""]","",""
"","4678","similarity","160","2303017","0.0-6.0-154.0","6","[""img/0899/76ad07e2-ca25-45eb-84f2-8d80b8ca3e26.jpg"",""img/0901/8bb79e82-9c43-4b6f-a655-40655519598b.jpg""]","",""
"","6906","similarity","161","2310996","0.0-6.0-155.0","6","[""img/0874/c0378dac-9370-439a-8b79-db27c96fb390.jpg"",""img/0874/1016b306-087c-4afc-aa08-fa527b28dc76.jpg""]","",""
"","7592","similarity","162","2319658","0.0-6.0-156.0","5","[""img/0860/61fb959d-d4d9-4de4-9e4e-4fa62b4cfcd5.jpg"",""img/0867/075e0f95-856b-4cbb-acf5-092393aaf04e.jpg""]","",""
"","6204","similarity","163","2326923","0.0-6.0-157.0","1","[""img/0901/62315ff5-ed95-46b4-b099-92552079659b.jpg"",""img/0881/667e2147-d457-4f32-aa5f-6ab86e5848f1.jpg""]","",""
"","5315","similarity","164","2333300","0.0-6.0-158.0","6","[""img/0903/81368973-de81-46f4-844f-b901f3bfd66d.jpg"",""img/0902/62f11694-7ed7-4cb7-8a73-9e95c43824e7.jpg""]","",""
"","7084","similarity","165","2341444","0.0-6.0-159.0","2","[""img/0860/4a022222-056d-461c-ab02-39fac9647552.jpg"",""img/0764/d7f3ac54-318a-4dac-a06b-62bed34d01a4.jpg""]","",""
"","8147","similarity","166","2350653","0.0-6.0-160.0","1","[""img/0902/71c03003-03ef-4b0f-8229-e0c857150a5d.jpg"",""img/0875/5a1e5100-0d94-4fec-bbe9-ca9894d2cf8e.jpg""]","",""
"","8306","similarity","167","2360021","0.0-6.0-161.0","2","[""img/0898/993d8f2d-bef7-4251-a193-0f93a32b7763.jpg"",""img/0862/f188d4f0-76a4-4102-818c-a209969d73a5.jpg""]","",""
"","5955","similarity","168","2367041","0.0-6.0-162.0","1","[""img/0894/c505c65a-cde2-4f2c-8cde-f8676f7c894d.jpg"",""img/0875/f87b67d7-c33e-40d1-b281-248c4be1cb6e.jpg""]","",""
"","6137","similarity","169","2374244","0.0-6.0-163.0","5","[""img/0866/a15b02be-11bb-43e3-b0e0-ecc3bd7dfc49.jpg"",""img/0864/e336a4c5-6648-4fd7-b2f6-93a3fb83f8c6.jpg""]","",""
"","6574","similarity","170","2381860","0.0-6.0-164.0","1","[""img/0766/27f54113-8561-4568-9ffe-0a1650ae65ec.jpg"",""img/0862/e8cc3bdf-cc43-4565-bccf-492626c70953.jpg""]","",""
"","4682","similarity","171","2387592","0.0-6.0-165.0","6","[""img/0866/be24ab58-230e-4db8-9f45-ff04c9aec6bb.jpg"",""img/0874/bf14b896-e930-4fd9-9c05-2e83317a2773.jpg""]","",""
"","6885","similarity","172","2395561","0.0-6.0-166.0","6","[""img/0862/99a99e39-8355-44ec-b993-e7bcec111e1c.jpg"",""img/0860/87039971-2210-4aab-93c0-8e9b5f1655b2.jpg""]","",""
"","6893","similarity","173","2424417","0.0-6.0-167.0","6","[""img/0766/d14acac4-7db1-4b07-8f8f-302437326fc0.jpg"",""img/0901/693e0535-ef7e-4d60-af9d-fac2f38e8307.jpg""]","",""
"","5554","similarity","174","2431026","0.0-6.0-168.0","7","[""img/0862/1c20f772-3a51-4a80-aac0-f57dc9f86c28.jpg"",""img/0862/92fcd8a4-8193-4a6a-ae09-dd4a6338b0df.jpg""]","",""
"","6465","similarity","175","2438533","0.0-6.0-169.0","1","[""img/0894/6b2e9509-8699-42b7-9582-7741df0ba2d7.jpg"",""img/0764/ca9829fe-aaf8-45b8-b98a-6bae751c63dd.jpg""]","",""
"","7607","similarity","176","2447193","0.0-6.0-170.0","1","[""img/0874/ca23d307-fc00-4d7d-9106-584c6eb21b4d.jpg"",""img/0898/b2732712-71c2-45d8-834f-2b2ed5504910.jpg""]","",""
"","5533","similarity","177","2453780","0.0-6.0-171.0","6","[""img/0860/fd4662f9-4c03-4d79-8593-06735e55a64b.jpg"",""img/0766/d919cedb-f9b7-4f30-83bb-3e9c65001ceb.jpg""]","",""
"","6236","similarity","178","2461072","0.0-6.0-172.0","1","[""img/0898/5f699581-3853-4547-856c-12f419ba5af7.jpg"",""img/0864/87c467d3-abca-482f-ad80-3766c21b1bb3.jpg""]","",""
"","7125","similarity","179","2469252","0.0-6.0-173.0","1","[""img/0881/e046471a-35b4-4159-bbf7-3cfd201bef66.jpg"",""img/0764/bd2eaa3e-95a9-4a59-a78e-3f81c766eea9.jpg""]","",""
"","5621","similarity","180","2475924","0.0-6.0-174.0","1","[""img/0898/661621d4-a14e-487c-8c74-354134a29710.jpg"",""img/0868/d6d1f30d-4323-435a-b194-7892521bc57e.jpg""]","",""
"","4993","similarity","181","2481970","0.0-6.0-175.0","7","[""img/0864/3651d070-2fc5-4848-b6a6-088a2d9ac5c9.jpg"",""img/0864/6e846d43-94a6-4b37-a268-65eda979f052.jpg""]","",""
"","7899","similarity","182","2490908","0.0-6.0-176.0","2","[""img/0899/66ab3178-c3fe-4455-ad17-d5952b08e018.jpg"",""img/0862/847e5208-38ec-4f36-949c-296cdd7424ee.jpg""]","",""
"","7177","similarity","183","2499150","0.0-6.0-177.0","4","[""img/0875/99698b4d-b4a1-44bc-8c83-8ea755bbbf61.jpg"",""img/0758/d57c2592-a317-4f63-91be-91a3a9afd222.jpg""]","",""
"","5443","similarity","184","2505637","0.0-6.0-178.0","1","[""img/0866/4a87911a-d5be-4d4e-ab8e-3d1f581bf507.jpg"",""img/0901/5657dd86-0ff9-4753-ba2b-9dfb223e5c89.jpg""]","",""
"","6333","similarity","185","2513012","0.0-6.0-179.0","3","[""img/0769/47700831-0ca2-4fdd-a498-a3bc5a528f43.jpg"",""img/0874/93d1f8dc-acf2-4f03-bd8d-8ec35df276ed.jpg""]","",""
"","6046","similarity","186","2520123","0.0-6.0-180.0","5","[""img/0875/5a716432-c6ca-4b1c-955a-2b8ac25198ee.jpg"",""img/0881/14236cf2-6b95-48b8-9368-78af09d2d27f.jpg""]","",""
"","5620","similarity","187","2526878","0.0-6.0-181.0","6","[""img/0866/386235d2-6857-41e7-88a8-25cfc3430025.jpg"",""img/0868/15dd6fd7-791e-4b53-b203-195d617521a4.jpg""]","",""
"","9720","similarity","188","2537641","0.0-6.0-182.0","3","[""img/0899/ad8268c5-8199-48d0-ad70-c5b6d6c599ec.jpg"",""img/0758/eabcd7a8-56ad-4fd2-bc24-90f6b7b33265.jpg""]","",""
"","5767","similarity","189","2544465","0.0-6.0-183.0","6","[""img/0874/a82926a3-0b43-4add-803c-d5f9ea7798ee.jpg"",""img/0875/fb732ab5-013a-4366-9f65-27811ed157e9.jpg""]","",""
"","2476","similarity","190","2547983","0.0-6.0-184.0","4","[""img/0904/25365108-e038-4021-aac9-797f2063b337.jpg"",""img/0862/47ed5efd-4ec9-4b74-bb4e-a5f5cf0c3e7d.jpg""]","",""
"","5766","similarity","191","2554789","0.0-6.0-185.0","7","[""img/0902/cf9dee9c-2bdf-4d64-9302-97f1660fe52c.jpg"",""img/0766/26d3ae14-8275-4e08-99b2-a6598c193ddf.jpg""]","",""
"","6295","similarity","192","2562123","0.0-6.0-186.0","1","[""img/0758/caa93da2-9edf-49fa-96b9-32dedd8f5078.jpg"",""img/0769/a1ce8d07-ba37-40de-bade-2778805521e0.jpg""]","",""
"","6852","similarity","193","2570014","0.0-6.0-187.0","6","[""img/0881/f8bd891e-aa09-4782-89db-33e7cb2b0cf1.jpg"",""img/0881/44e09805-5a25-4f17-a716-4ad4a331b174.jpg""]","",""
"","5628","similarity","194","2576684","0.0-6.0-188.0","6","[""img/0758/6e95579b-5166-487c-b8cb-e417c6a218e3.jpg"",""img/0866/d266fece-59b3-46fa-b69f-96f6efb81b59.jpg""]","",""
"","6246","similarity","195","2583968","0.0-6.0-189.0","5","[""img/0764/6c7fe363-2d37-418f-9e5e-a3273af5d4fb.jpg"",""img/0898/82231d4c-218b-4d0a-b50d-35a49b524e97.jpg""]","",""
"","5530","similarity","196","2590537","0.0-6.0-190.0","6","[""img/0903/b7e3723f-fd03-4f3d-8820-f19496463a34.jpg"",""img/0901/4ca4f962-40c0-4c59-b14a-3cd7b8c9029b.jpg""]","",""
"","6052","similarity","197","2597632","0.0-6.0-191.0","7","[""img/0902/511abb54-0094-4f4d-b6dc-3f2c97050521.jpg"",""img/0898/79233891-305a-4a6a-8ddf-5c8604858203.jpg""]","",""
"","6795","similarity","198","2605507","0.0-6.0-192.0","3","[""img/0864/a248adb3-c70b-4652-b7a3-776d2a1e904b.jpg"",""img/0901/d4d09bf5-093e-4050-838e-7c738be8e63c.jpg""]","",""
"","6532","similarity","199","2613116","0.0-6.0-193.0","1","[""img/0894/7fb082e0-ce79-485c-9109-04367fb32275.jpg"",""img/0881/f4e3e181-b3c9-4af2-a5a4-fc135ab70d2e.jpg""]","",""
"","6250","similarity","200","2620439","0.0-6.0-194.0","7","[""img/0868/5fa7f9d0-f0e5-454c-8224-74d964818f56.jpg"",""img/0868/fd307a36-9a3a-47d7-ab7c-f810d0b35040.jpg""]","",""
"","6128","similarity","201","2627642","0.0-6.0-195.0","6","[""img/0899/0adc0bc3-6fca-4078-be6f-d45ddf1653d5.jpg"",""img/0764/da207710-e7e4-4f42-b2e6-99b5f357f433.jpg""]","",""
"","7391","similarity","202","2636078","0.0-6.0-196.0","4","[""img/0881/1407b85b-a1c6-45b1-9884-3b24203efadb.jpg"",""img/0904/65e2b70a-b184-4da3-b5c0-5038bdf9469a.jpg""]","",""
"","4945","similarity","203","2642078","0.0-6.0-197.0","1","[""img/0864/afcba0a3-7e27-4757-b254-e9f05fad27e2.jpg"",""img/0902/b03129ba-b087-4558-af37-e8399d6217d6.jpg""]","",""
"","5958","similarity","204","2649085","0.0-6.0-198.0","5","[""img/0894/8cadb87a-7001-4e47-99fb-1867bebf1668.jpg"",""img/0904/24fc38fe-842c-4831-ad8a-b1de5c25c0a8.jpg""]","",""
"","6028","similarity","205","2656156","0.0-6.0-199.0","7","[""img/0901/a9b9c0a0-8aed-4888-a78a-65fb7e764d13.jpg"",""img/0901/04a53755-6da5-44d4-a7a6-48a6bc0a2280.jpg""]","",""
"","6087","similarity","206","2663327","0.0-6.0-200.0","1","[""img/0894/5a49e858-2850-4892-9a06-e9f0efb5f94d.jpg"",""img/0860/4c530c3c-6aab-492a-94d1-9c01797bde40.jpg""]","",""
"","5931","similarity","207","2670419","0.0-6.0-201.0","7","[""img/0898/a8f16b02-e19f-423b-86c3-a36562ae1f9b.jpg"",""img/0903/6f343da5-00d9-4d50-89d1-2ed24cdb8319.jpg""]","",""
"","6658","similarity","208","2678232","0.0-6.0-202.0","1","[""img/0864/3d4de670-b290-4285-9c3d-12a0e3af44e9.jpg"",""img/0894/e2446cf5-cd48-486a-badc-76498e087fbe.jpg""]","",""
"","5369","similarity","209","2684684","0.0-6.0-203.0","5","[""img/0874/767f289c-9814-4496-803f-745cc8913d1f.jpg"",""img/0860/702bd09d-df3a-40aa-a267-5f04474305b5.jpg""]","",""
"","5521","similarity","210","2691277","0.0-6.0-204.0","5","[""img/0862/f23038d4-c366-4f70-979f-66b62362efa4.jpg"",""img/0875/a4935837-7d3c-4df6-88c1-36a94d4991ca.jpg""]","",""
"","6698","similarity","211","2699035","0.0-6.0-205.0","5","[""img/0867/6e19c858-b606-45b2-a4c6-910a73f1d82c.jpg"",""img/0881/f037e3b0-09cb-4a83-b2d9-6a71fe474e63.jpg""]","",""
"","6813","similarity","212","2706925","0.0-6.0-206.0","3","[""img/0901/f469cb1d-6d81-4a45-bab5-cd0b650c2b4f.jpg"",""img/0902/c018bd7a-d91a-4192-aea4-7259cfcdb6c4.jpg""]","",""
"","6158","similarity","213","2714142","0.0-6.0-207.0","3","[""img/0899/66bf4113-ee12-426c-84d2-ea410b6c803e.jpg"",""img/0864/1d15626a-2f7c-410f-819c-0fa2c967e95e.jpg""]","",""
"","7087","similarity","214","2722288","0.0-6.0-208.0","5","[""img/0901/b13fa50f-dbe0-4d0f-8647-6ac0fd8f40bd.jpg"",""img/0769/f6396414-6788-4d59-9683-de153298d89c.jpg""]","",""
"","7075","similarity","215","2741526","0.0-6.0-209.0","7","[""img/0902/d2c34af0-8c50-437d-8cc3-619195a3e8ba.jpg"",""img/0902/94198618-7047-4dc9-ad04-85f4ba913067.jpg""]","",""
"[{""page_index"":0,""viewing_time"":13688}]","13701","instructions","216","2756239","0.0-7.0","","","",""
"","11267","image-multi-choice","217","2768876","0.0-8.0-0.0","","","{""Q0"":""Orange-crowned Warbler""}","Nashville Warbler"
"","14264","image-multi-choice","218","2784397","0.0-8.0-1.0","","","{""Q0"":""Black-and-white Warbler""}","Black-and-white Warbler"
"","94791","image-multi-choice","219","2880478","0.0-8.0-2.0","","","{""Q0"":""Townsend's Warbler""}","Townsend's Warbler"
"","59606","image-multi-choice","220","2941306","0.0-8.0-3.0","","","{""Q0"":""Lark Sparrow""}","Lark Sparrow"
"","9847","image-multi-choice","221","2952419","0.0-8.0-4.0","","","{""Q0"":""Yellow Warbler""}","Yellow Warbler"
"","105123","image-multi-choice","222","3058743","0.0-8.0-5.0","","","{""Q0"":""Orange-crowned Warbler""}","Orange-crowned Warbler"
"","43341","image-multi-choice","223","3103313","0.0-8.0-6.0","","","{""Q0"":""White-throated Sparrow""}","White-throated Sparrow"
"","36785","image-multi-choice","224","3141320","0.0-8.0-7.0","","","{""Q0"":""Fox Sparrow""}","Fox Sparrow"
"","81670","image-multi-choice","225","3224162","0.0-8.0-8.0","","","{""Q0"":""Lincoln's Sparrow""}","Song Sparrow"
"","65180","image-multi-choice","226","3290511","0.0-8.0-9.0","","","{""Q0"":""Blackburnian Warbler""}","Blackburnian Warbler"
"","188080","image-multi-choice","227","3479767","0.0-8.0-10.0","","","{""Q0"":""Lincoln's Sparrow""}","Vesper Sparrow"
"","51572","image-multi-choice","228","3532499","0.0-8.0-11.0","","","{""Q0"":""White-crowned Sparrow""}","White-crowned Sparrow"
"","45932","image-multi-choice","229","3579612","0.0-8.0-12.0","","","{""Q0"":""Swamp Sparrow""}","American Tree Sparrow"
"","38536","image-multi-choice","230","3619295","0.0-8.0-13.0","","","{""Q0"":""Tennessee Warbler""}","Tennessee Warbler"
"","52455","image-multi-choice","231","3672900","0.0-8.0-14.0","","","{""Q0"":""Magnolia Warbler""}","Magnolia Warbler"
"","25290","image-multi-choice","232","3699342","0.0-8.0-15.0","","","{""Q0"":""Northern Waterthrush""}","Northern Waterthrush"
"","69973","image-multi-choice","233","3770469","0.0-8.0-16.0","","","{""Q0"":""Chipping Sparrow""}","Chipping Sparrow"
"","114536","image-multi-choice","234","3886162","0.0-8.0-17.0","","","{""Q0"":""White-throated Sparrow""}","Swamp Sparrow"
"","39407","image-multi-choice","235","3926739","0.0-8.0-18.0","","","{""Q0"":""Lincoln's Sparrow""}","Lincoln's Sparrow"
"","7173","image-multi-choice","236","3935055","0.0-8.0-19.0","","","{""Q0"":""Ovenbird""}","Ovenbird"
