[{"view_history":"[{\"page_index\":0,\"viewing_time\":15893}]","rt":15893,"trial_type":"instructions","trial_index":0,"time_elapsed":15894,"internal_node_id":"0.0-0.0"},{"sim_score":3,"rt":16218,"stimulus":"[\"img/866.jpg\",\"img/868.jpg\"]","trial_type":"similarity_demo","trial_index":1,"time_elapsed":33117,"internal_node_id":"0.0-1.0"},{"view_history":"[{\"page_index\":0,\"viewing_time\":22257}]","rt":22257,"trial_type":"instructions","trial_index":2,"time_elapsed":56374,"internal_node_id":"0.0-2.0"},{"sim_score":2,"rt":5825,"stimulus":"[\"img/766.jpg\",\"img/867.jpg\"]","trial_type":"similarity_demo","trial_index":3,"time_elapsed":63203,"internal_node_id":"0.0-3.0"},{"view_history":"[{\"page_index\":0,\"viewing_time\":7098}]","rt":7099,"trial_type":"instructions","trial_index":4,"time_elapsed":71302,"internal_node_id":"0.0-4.0"},{"view_history":"[{\"page_index\":0,\"viewing_time\":157360}]","rt":157360,"trial_type":"instructions","trial_index":5,"time_elapsed":229663,"internal_node_id":"0.0-5.0"},{"sim_score":3,"rt":6636,"stimulus":"[\"img/0868/0d3abd3a-b6c3-4584-a9f7-e2da63748b3d.jpg\",\"img/0901/6e2957f8-f5ab-46f4-87cc-bb50155a098b.jpg\"]","trial_type":"similarity","trial_index":6,"time_elapsed":237304,"internal_node_id":"0.0-6.0-0.0"},{"sim_score":1,"rt":6753,"stimulus":"[\"img/0769/f2740c58-7c02-433f-920b-746b0b75435b.jpg\",\"img/0867/1719a35d-f085-48c0-9099-16c94fe418b4.jpg\"]","trial_type":"similarity","trial_index":7,"time_elapsed":245059,"internal_node_id":"0.0-6.0-1.0"},{"sim_score":2,"rt":4582,"stimulus":"[\"img/0766/af3be95e-e52e-4fae-899b-0ff02ec340aa.jpg\",\"img/0898/4184e5a2-84ea-4f36-9b42-ae58646f6f87.jpg\"]","trial_type":"similarity","trial_index":8,"time_elapsed":250642,"internal_node_id":"0.0-6.0-2.0"},{"sim_score":2,"rt":5371,"stimulus":"[\"img/0902/27b84584-948a-485b-8749-cb09929ef631.jpg\",\"img/0881/344de456-b358-4887-bd0e-e4c3278af887.jpg\"]","trial_type":"similarity","trial_index":9,"time_elapsed":257018,"internal_node_id":"0.0-6.0-3.0"},{"sim_score":5,"rt":14137,"stimulus":"[\"img/0894/6b2e9509-8699-42b7-9582-7741df0ba2d7.jpg\",\"img/0894/11674fa4-285d-44e2-939f-2228c6a64080.jpg\"]","trial_type":"similarity","trial_index":10,"time_elapsed":272157,"internal_node_id":"0.0-6.0-4.0"},{"sim_score":3,"rt":6096,"stimulus":"[\"img/0874/31e22c7c-99aa-40b1-bf03-dd73fa2df4d6.jpg\",\"img/0899/ad8268c5-8199-48d0-ad70-c5b6d6c599ec.jpg\"]","trial_type":"similarity","trial_index":11,"time_elapsed":279257,"internal_node_id":"0.0-6.0-5.0"},{"sim_score":2,"rt":5421,"stimulus":"[\"img/0904/696ebb60-8891-417a-91fd-c53218907a95.jpg\",\"img/0764/438c0217-036f-43c9-9b87-f43144e46011.jpg\"]","trial_type":"similarity","trial_index":12,"time_elapsed":285681,"internal_node_id":"0.0-6.0-6.0"},{"sim_score":1,"rt":5145,"stimulus":"[\"img/0899/a05bea16-2bb4-4cb9-b8fb-4ff975db6971.jpg\",\"img/0898/0c7dde4f-efce-4b7a-9387-6921635b7890.jpg\"]","trial_type":"similarity","trial_index":13,"time_elapsed":291829,"internal_node_id":"0.0-6.0-7.0"},{"sim_score":1,"rt":5557,"stimulus":"[\"img/0874/99f6563c-8a8d-4c1c-a41d-667b618c3fd5.jpg\",\"img/0903/d987e220-f3e6-4b6d-a270-fe6757041f6d.jpg\"]","trial_type":"similarity","trial_index":14,"time_elapsed":298388,"internal_node_id":"0.0-6.0-8.0"},{"sim_score":2,"rt":4412,"stimulus":"[\"img/0881/84397291-bc14-4fbf-90e8-241e486ab0fe.jpg\",\"img/0758/20497cbe-ddae-489e-86e2-ab06985ed07c.jpg\"]","trial_type":"similarity","trial_index":15,"time_elapsed":303804,"internal_node_id":"0.0-6.0-9.0"},{"sim_score":1,"rt":6041,"stimulus":"[\"img/0898/08c72dac-f8ad-407a-9ce6-8c9a5d679c3a.jpg\",\"img/0901/77087ed2-6e12-4329-b2a5-605bca6d972d.jpg\"]","trial_type":"similarity","trial_index":16,"time_elapsed":310848,"internal_node_id":"0.0-6.0-10.0"},{"sim_score":2,"rt":5565,"stimulus":"[\"img/0903/b0df4094-a3be-4b5b-81bd-8d260f13f61b.jpg\",\"img/0769/d1be2815-fa79-46e8-b5c3-7d81caaca490.jpg\"]","trial_type":"similarity","trial_index":17,"time_elapsed":317415,"internal_node_id":"0.0-6.0-11.0"},{"sim_score":1,"rt":4773,"stimulus":"[\"img/0764/974d52cc-6318-4e7a-b294-2f3e92ff800f.jpg\",\"img/0868/293079b8-7e0c-4afd-a390-1e5d35fe3ded.jpg\"]","trial_type":"similarity","trial_index":18,"time_elapsed":323191,"internal_node_id":"0.0-6.0-12.0"},{"sim_score":1,"rt":4320,"stimulus":"[\"img/0867/98d8cd96-1476-4fe0-a3a3-04f875500a1b.jpg\",\"img/0903/e2e55a9e-0397-4dc0-8adf-4a54cfefe1fe.jpg\"]","trial_type":"similarity","trial_index":19,"time_elapsed":328515,"internal_node_id":"0.0-6.0-13.0"},{"sim_score":3,"rt":6972,"stimulus":"[\"img/0766/ea09dd5a-d24d-4e97-a099-7da3db1baef1.jpg\",\"img/0758/335851a0-a55b-46d8-ab05-8463eda48349.jpg\"]","trial_type":"similarity","trial_index":20,"time_elapsed":336491,"internal_node_id":"0.0-6.0-14.0"},{"sim_score":2,"rt":4682,"stimulus":"[\"img/0902/eb3e7e71-8ff1-4b88-a6a7-47e2c1ce1683.jpg\",\"img/0860/17b44a7d-c5ca-479f-9e87-f65a64f5c80e.jpg\"]","trial_type":"similarity","trial_index":21,"time_elapsed":342174,"internal_node_id":"0.0-6.0-15.0"},{"sim_score":1,"rt":7196,"stimulus":"[\"img/0769/1d8734c4-77ab-4165-9e71-5cfe672ff01c.jpg\",\"img/0875/5a7c4e35-6514-4e12-8879-d16071da4cd6.jpg\"]","trial_type":"similarity","trial_index":22,"time_elapsed":350374,"internal_node_id":"0.0-6.0-16.0"},{"sim_score":5,"rt":6629,"stimulus":"[\"img/0904/2f88ce53-02d0-4f95-a082-182c56a0eeb4.jpg\",\"img/0866/02f5e6b9-52b7-448c-9708-5b460d0c9a23.jpg\"]","trial_type":"similarity","trial_index":23,"time_elapsed":358007,"internal_node_id":"0.0-6.0-17.0"},{"sim_score":3,"rt":5709,"stimulus":"[\"img/0875/fb732ab5-013a-4366-9f65-27811ed157e9.jpg\",\"img/0875/2e13d160-eea1-416b-aff1-d37ab99ecc1d.jpg\"]","trial_type":"similarity","trial_index":24,"time_elapsed":364717,"internal_node_id":"0.0-6.0-18.0"},{"sim_score":5,"rt":6125,"stimulus":"[\"img/0758/6cd8c362-ae2a-41eb-80a3-3a4f7ace1530.jpg\",\"img/0758/d41c06bf-ebaf-454b-91c6-1a17f917b659.jpg\"]","trial_type":"similarity","trial_index":25,"time_elapsed":371845,"internal_node_id":"0.0-6.0-19.0"},{"sim_score":6,"rt":5986,"stimulus":"[\"img/0902/a323b62d-2fd5-4ac8-acc6-35b768f3c3f2.jpg\",\"img/0874/767f289c-9814-4496-803f-745cc8913d1f.jpg\"]","trial_type":"similarity","trial_index":26,"time_elapsed":378833,"internal_node_id":"0.0-6.0-20.0"},{"sim_score":3,"rt":5393,"stimulus":"[\"img/0764/f713847b-4832-42d1-8fb3-e17e37fd745c.jpg\",\"img/0769/e31b3bd8-efcb-413e-aa8c-75fac2b8f2ac.jpg\"]","trial_type":"similarity","trial_index":27,"time_elapsed":385228,"internal_node_id":"0.0-6.0-21.0"},{"sim_score":1,"rt":4209,"stimulus":"[\"img/0901/2a953e50-d237-405c-a38d-5ed21494c968.jpg\",\"img/0874/7e4f2150-3b59-4a36-b5da-a4e0ba410531.jpg\"]","trial_type":"similarity","trial_index":28,"time_elapsed":390440,"internal_node_id":"0.0-6.0-22.0"},{"sim_score":1,"rt":5704,"stimulus":"[\"img/0875/d59ff733-eaff-4ee2-9443-06954dd0bcb6.jpg\",\"img/0903/b0a3c45f-467e-412f-a183-c9c1827f2e63.jpg\"]","trial_type":"similarity","trial_index":29,"time_elapsed":397148,"internal_node_id":"0.0-6.0-23.0"},{"sim_score":5,"rt":5566,"stimulus":"[\"img/0769/022c7e3b-c3f2-4119-b4bc-f22fa7cae18c.jpg\",\"img/0881/405484ae-0d00-4b05-bc57-6420a36adfac.jpg\"]","trial_type":"similarity","trial_index":30,"time_elapsed":403716,"internal_node_id":"0.0-6.0-24.0"},{"sim_score":1,"rt":4269,"stimulus":"[\"img/0867/85a96c62-548f-4994-9553-819e03c3135a.jpg\",\"img/0904/b7c2a2c8-df33-4473-b3d4-ff7147c60db3.jpg\"]","trial_type":"similarity","trial_index":31,"time_elapsed":408987,"internal_node_id":"0.0-6.0-25.0"},{"sim_score":1,"rt":4898,"stimulus":"[\"img/0860/c47fdead-eb02-4989-b078-26f4852f44fe.jpg\",\"img/0881/f4e3e181-b3c9-4af2-a5a4-fc135ab70d2e.jpg\"]","trial_type":"similarity","trial_index":32,"time_elapsed":414887,"internal_node_id":"0.0-6.0-26.0"},{"sim_score":7,"rt":10429,"stimulus":"[\"img/0866/0207e9a2-7dbb-40b5-9459-b472aaeceb2a.jpg\",\"img/0866/9b38d691-1802-4959-ab3f-fc902f0e4ea6.jpg\"]","trial_type":"similarity","trial_index":33,"time_elapsed":426319,"internal_node_id":"0.0-6.0-27.0"},{"sim_score":3,"rt":7421,"stimulus":"[\"img/0764/e30dba15-e68a-4659-89db-e1654b52fe02.jpg\",\"img/0862/e697469a-ec19-4414-b972-7b9f3564785b.jpg\"]","trial_type":"similarity","trial_index":34,"time_elapsed":434742,"internal_node_id":"0.0-6.0-28.0"},{"sim_score":1,"rt":4976,"stimulus":"[\"img/0904/4b8daf2a-13a9-4ea9-9e0b-b265b6e933e7.jpg\",\"img/0758/821c68d3-5cb0-4eae-8659-30e6263fca39.jpg\"]","trial_type":"similarity","trial_index":35,"time_elapsed":440722,"internal_node_id":"0.0-6.0-29.0"},{"sim_score":3,"rt":6948,"stimulus":"[\"img/0894/86201968-6e78-4d68-9b3a-d1692e066210.jpg\",\"img/0899/d60714ae-98d7-4564-8c98-94dba1351135.jpg\"]","trial_type":"similarity","trial_index":36,"time_elapsed":448674,"internal_node_id":"0.0-6.0-30.0"},{"sim_score":1,"rt":3393,"stimulus":"[\"img/0860/e14d67c1-6d92-4f1e-9257-c8607159c19c.jpg\",\"img/0904/5aec2708-cf14-4a58-aa30-9a8a61c1be0e.jpg\"]","trial_type":"similarity","trial_index":37,"time_elapsed":453070,"internal_node_id":"0.0-6.0-31.0"},{"sim_score":6,"rt":5585,"stimulus":"[\"img/0874/2c9464dd-8a23-4baa-ac94-1ba3af5c15cc.jpg\",\"img/0881/ee44e27f-d662-4608-b265-e7ffa19b216f.jpg\"]","trial_type":"similarity","trial_index":38,"time_elapsed":459657,"internal_node_id":"0.0-6.0-32.0"},{"sim_score":2,"rt":4949,"stimulus":"[\"img/0881/7e31e5dc-2240-4b1b-b5a0-3acd980099ef.jpg\",\"img/0899/66bf4113-ee12-426c-84d2-ea410b6c803e.jpg\"]","trial_type":"similarity","trial_index":39,"time_elapsed":465609,"internal_node_id":"0.0-6.0-33.0"},{"sim_score":1,"rt":3840,"stimulus":"[\"img/0866/be24ab58-230e-4db8-9f45-ff04c9aec6bb.jpg\",\"img/0862/064818ee-13d5-4618-bb24-21c7368ea278.jpg\"]","trial_type":"similarity","trial_index":40,"time_elapsed":470453,"internal_node_id":"0.0-6.0-34.0"},{"sim_score":1,"rt":4998,"stimulus":"[\"img/0868/77091fc7-a590-4ebb-b915-fdb2483a2399.jpg\",\"img/0894/133a1636-d123-4893-873c-1718050f832a.jpg\"]","trial_type":"similarity","trial_index":41,"time_elapsed":476453,"internal_node_id":"0.0-6.0-35.0"},{"sim_score":7,"rt":7423,"stimulus":"[\"img/0860/18dfed73-e36b-4487-a8bd-0b8cff8e3668.jpg\",\"img/0860/8a92e21b-6a32-4e4a-a445-2d5a487ed0a4.jpg\"]","trial_type":"similarity","trial_index":42,"time_elapsed":484880,"internal_node_id":"0.0-6.0-36.0"},{"sim_score":6,"rt":6310,"stimulus":"[\"img/0862/92f0146c-20c4-482e-aef5-adb693790338.jpg\",\"img/0864/9b2490c5-a282-400a-9736-e1a0ecbf1cb7.jpg\"]","trial_type":"similarity","trial_index":43,"time_elapsed":492192,"internal_node_id":"0.0-6.0-37.0"},{"sim_score":1,"rt":4118,"stimulus":"[\"img/0766/69e486f7-dbef-456b-9d48-53d814248a28.jpg\",\"img/0866/6f2a90d7-14f1-4f1b-bd64-fc0af6b9fe44.jpg\"]","trial_type":"similarity","trial_index":44,"time_elapsed":497312,"internal_node_id":"0.0-6.0-38.0"},{"sim_score":1,"rt":4781,"stimulus":"[\"img/0875/8521fd58-3b1e-4dc5-97ae-804edfa6734a.jpg\",\"img/0898/82231d4c-218b-4d0a-b50d-35a49b524e97.jpg\"]","trial_type":"similarity","trial_index":45,"time_elapsed":503095,"internal_node_id":"0.0-6.0-39.0"},{"sim_score":6,"rt":9120,"stimulus":"[\"img/0766/d50d734f-285c-4840-bc7a-c8dd4aff391e.jpg\",\"img/0769/c7cfacc3-7f07-46ff-9f5d-8073f4c4679b.jpg\"]","trial_type":"similarity","trial_index":46,"time_elapsed":513219,"internal_node_id":"0.0-6.0-40.0"},{"sim_score":2,"rt":5136,"stimulus":"[\"img/0874/3f471690-9788-4d03-90c7-f615aecef149.jpg\",\"img/0764/a3226bc4-dcc3-4608-bde8-1414d685ce5c.jpg\"]","trial_type":"similarity","trial_index":47,"time_elapsed":547905,"internal_node_id":"0.0-6.0-41.0"},{"sim_score":2,"rt":6048,"stimulus":"[\"img/0868/e0aff734-077f-40dd-9781-74821abd3621.jpg\",\"img/0902/bd89a85f-3853-4786-acd6-98818ee29f1c.jpg\"]","trial_type":"similarity","trial_index":48,"time_elapsed":554957,"internal_node_id":"0.0-6.0-42.0"},{"sim_score":1,"rt":4133,"stimulus":"[\"img/0875/f87b67d7-c33e-40d1-b281-248c4be1cb6e.jpg\",\"img/0899/f58b8d2f-b19d-4b59-8b94-8834be92e4ba.jpg\"]","trial_type":"similarity","trial_index":49,"time_elapsed":560093,"internal_node_id":"0.0-6.0-43.0"},{"sim_score":1,"rt":4750,"stimulus":"[\"img/0866/07c9c966-3c8d-40e7-8128-92b2acbaed5d.jpg\",\"img/0860/94ef7afc-e0e6-4a15-98c6-0bfac82bc832.jpg\"]","trial_type":"similarity","trial_index":50,"time_elapsed":565845,"internal_node_id":"0.0-6.0-44.0"},{"sim_score":3,"rt":4897,"stimulus":"[\"img/0766/2da002a4-05c9-4f5c-9ed7-433b4183e273.jpg\",\"img/0903/31b5a5f4-b695-4af1-bad2-a19650a05498.jpg\"]","trial_type":"similarity","trial_index":51,"time_elapsed":571744,"internal_node_id":"0.0-6.0-45.0"},{"sim_score":4,"rt":5997,"stimulus":"[\"img/0901/f469cb1d-6d81-4a45-bab5-cd0b650c2b4f.jpg\",\"img/0904/6291eb43-c10c-4810-a36a-101d09868b04.jpg\"]","trial_type":"similarity","trial_index":52,"time_elapsed":578744,"internal_node_id":"0.0-6.0-46.0"},{"sim_score":3,"rt":4365,"stimulus":"[\"img/0758/a709631e-3705-4725-ac40-f0d916924f08.jpg\",\"img/0902/01b41522-de46-4c3a-b0af-a61b2682b40e.jpg\"]","trial_type":"similarity","trial_index":53,"time_elapsed":584112,"internal_node_id":"0.0-6.0-47.0"},{"sim_score":7,"rt":5793,"stimulus":"[\"img/0764/e0788029-9d7f-414c-b747-46d2a99f7c86.jpg\",\"img/0764/62fafeea-6274-48ce-976f-35d3d3484c65.jpg\"]","trial_type":"similarity","trial_index":54,"time_elapsed":590907,"internal_node_id":"0.0-6.0-48.0"},{"sim_score":1,"rt":5425,"stimulus":"[\"img/0866/8efcaa46-83ab-4dee-a35f-850402aa21ae.jpg\",\"img/0902/a6fb6dd5-696c-47ec-be7d-d7b88f1544f1.jpg\"]","trial_type":"similarity","trial_index":55,"time_elapsed":597335,"internal_node_id":"0.0-6.0-49.0"},{"sim_score":5,"rt":7025,"stimulus":"[\"img/0764/b887d7c6-aa81-4637-af8e-05135757ac59.jpg\",\"img/0758/2fa3e613-e676-4e6e-bd12-705327eeb3e1.jpg\"]","trial_type":"similarity","trial_index":56,"time_elapsed":605363,"internal_node_id":"0.0-6.0-50.0"},{"sim_score":5,"rt":5710,"stimulus":"[\"img/0898/e167334e-cc1d-4986-b3b1-c7bc7da64baa.jpg\",\"img/0894/b2d2f66e-e480-46da-a02a-6d0c6b285d78.jpg\"]","trial_type":"similarity","trial_index":57,"time_elapsed":612074,"internal_node_id":"0.0-6.0-51.0"},{"sim_score":6,"rt":7240,"stimulus":"[\"img/0875/03c3c331-738b-4446-af92-3d7386b08c2e.jpg\",\"img/0866/a15b02be-11bb-43e3-b0e0-ecc3bd7dfc49.jpg\"]","trial_type":"similarity","trial_index":58,"time_elapsed":620318,"internal_node_id":"0.0-6.0-52.0"},{"sim_score":7,"rt":4309,"stimulus":"[\"img/0904/4e58005d-a2ec-4aaa-b199-445343561396.jpg\",\"img/0904/d23dd7be-7fe8-4435-82f7-bd592c01e6a1.jpg\"]","trial_type":"similarity","trial_index":59,"time_elapsed":625630,"internal_node_id":"0.0-6.0-53.0"},{"sim_score":7,"rt":4996,"stimulus":"[\"img/0769/8c7cf147-1780-4d5c-8ddf-5ea23ff03ac9.jpg\",\"img/0769/4680bcc3-8fbc-4643-8f9a-12aa0e780b64.jpg\"]","trial_type":"similarity","trial_index":60,"time_elapsed":631630,"internal_node_id":"0.0-6.0-54.0"},{"sim_score":3,"rt":5990,"stimulus":"[\"img/0898/b3290bf9-215b-4b45-b21a-65bdf73f142f.jpg\",\"img/0758/3ddd05d3-557e-4ee7-8b78-9d2d681d8ae2.jpg\"]","trial_type":"similarity","trial_index":61,"time_elapsed":638621,"internal_node_id":"0.0-6.0-55.0"},{"sim_score":6,"rt":4617,"stimulus":"[\"img/0769/da36e3f7-2337-434f-ab57-11822dd7eed7.jpg\",\"img/0902/0c760cc9-10ac-429e-8957-a7d51fc99683.jpg\"]","trial_type":"similarity","trial_index":62,"time_elapsed":644241,"internal_node_id":"0.0-6.0-56.0"},{"sim_score":4,"rt":8197,"stimulus":"[\"img/0864/0116ca98-293d-4fa6-a93b-5a6144ef64cc.jpg\",\"img/0881/4da99fdd-1f40-4bbb-8e21-8833eef313f5.jpg\"]","trial_type":"similarity","trial_index":63,"time_elapsed":653441,"internal_node_id":"0.0-6.0-57.0"},{"sim_score":1,"rt":4446,"stimulus":"[\"img/0758/ddc336e9-a8b6-4bb9-937a-c7e25e0e9250.jpg\",\"img/0868/5fa7f9d0-f0e5-454c-8224-74d964818f56.jpg\"]","trial_type":"similarity","trial_index":64,"time_elapsed":658888,"internal_node_id":"0.0-6.0-58.0"},{"sim_score":5,"rt":5386,"stimulus":"[\"img/0862/47ed5efd-4ec9-4b74-bb4e-a5f5cf0c3e7d.jpg\",\"img/0769/db94b61b-a5a7-4861-9d32-7b02ad194fb0.jpg\"]","trial_type":"similarity","trial_index":65,"time_elapsed":665276,"internal_node_id":"0.0-6.0-59.0"},{"sim_score":5,"rt":4799,"stimulus":"[\"img/0764/ca9829fe-aaf8-45b8-b98a-6bae751c63dd.jpg\",\"img/0903/8c358e9e-a4f4-466e-8b93-7aec0d2358e8.jpg\"]","trial_type":"similarity","trial_index":66,"time_elapsed":671076,"internal_node_id":"0.0-6.0-60.0"},{"sim_score":6,"rt":4042,"stimulus":"[\"img/0899/06b0fc99-0581-461a-9913-d1a5a941ac61.jpg\",\"img/0899/565ccdd9-0933-4536-a625-3c0e25a713dd.jpg\"]","trial_type":"similarity","trial_index":67,"time_elapsed":676120,"internal_node_id":"0.0-6.0-61.0"},{"sim_score":1,"rt":3382,"stimulus":"[\"img/0860/524b2e98-5767-4d53-942c-ebae6925659b.jpg\",\"img/0875/90da8d75-108a-44ad-b999-e21fee3860d3.jpg\"]","trial_type":"similarity","trial_index":68,"time_elapsed":680504,"internal_node_id":"0.0-6.0-62.0"},{"sim_score":1,"rt":7006,"stimulus":"[\"img/0868/09a9ef4d-d000-4cfa-a6aa-ebec7c2edeb4.jpg\",\"img/0874/eba003b4-cdab-4eee-8bc3-f064c7d94165.jpg\"]","trial_type":"similarity","trial_index":69,"time_elapsed":688511,"internal_node_id":"0.0-6.0-63.0"},{"sim_score":2,"rt":3209,"stimulus":"[\"img/0758/caa93da2-9edf-49fa-96b9-32dedd8f5078.jpg\",\"img/0862/fb26cb07-d5a9-4653-813c-f41609f26cd5.jpg\"]","trial_type":"similarity","trial_index":70,"time_elapsed":692723,"internal_node_id":"0.0-6.0-64.0"},{"sim_score":6,"rt":4296,"stimulus":"[\"img/0904/ba8e689e-9ca6-4608-a2a1-3b0940666ae6.jpg\",\"img/0898/0af304a2-6a7a-4082-ab7c-4450cd08cc58.jpg\"]","trial_type":"similarity","trial_index":71,"time_elapsed":698023,"internal_node_id":"0.0-6.0-65.0"},{"sim_score":6,"rt":4502,"stimulus":"[\"img/0881/445edb15-bd7f-4af3-8bd5-c6ad9677bb31.jpg\",\"img/0866/c446214b-a368-4c65-ae39-ea46894256ab.jpg\"]","trial_type":"similarity","trial_index":72,"time_elapsed":703527,"internal_node_id":"0.0-6.0-66.0"},{"sim_score":3,"rt":4541,"stimulus":"[\"img/0867/db7e032f-162b-46f5-ae67-2b29679adee4.jpg\",\"img/0898/26c41340-15bd-4ead-8fe4-c0d0ddca09c2.jpg\"]","trial_type":"similarity","trial_index":73,"time_elapsed":709070,"internal_node_id":"0.0-6.0-67.0"},{"sim_score":5,"rt":6082,"stimulus":"[\"img/0902/6c2c243a-f663-45db-baf5-038d3d58c589.jpg\",\"img/0764/da207710-e7e4-4f42-b2e6-99b5f357f433.jpg\"]","trial_type":"similarity","trial_index":74,"time_elapsed":716154,"internal_node_id":"0.0-6.0-68.0"},{"sim_score":7,"rt":4666,"stimulus":"[\"img/0875/dbdd643e-6d0e-4a5c-ab57-b9c29b9c981a.jpg\",\"img/0867/f8159067-056c-41f1-a136-c529fe5e970a.jpg\"]","trial_type":"similarity","trial_index":75,"time_elapsed":721822,"internal_node_id":"0.0-6.0-69.0"},{"sim_score":7,"rt":4958,"stimulus":"[\"img/0766/535849cc-ff5d-4df9-8f31-0ce94a97d571.jpg\",\"img/0764/5d6fa3ce-9083-410c-bbdb-336a49b94cfc.jpg\"]","trial_type":"similarity","trial_index":76,"time_elapsed":727782,"internal_node_id":"0.0-6.0-70.0"},{"sim_score":5,"rt":5273,"stimulus":"[\"img/0894/2d2db7b3-e8a3-499b-b63a-14f51bf73882.jpg\",\"img/0867/8ba0c5a7-c7e4-42cf-a80a-543763b90779.jpg\"]","trial_type":"similarity","trial_index":77,"time_elapsed":734057,"internal_node_id":"0.0-6.0-71.0"},{"sim_score":2,"rt":7001,"stimulus":"[\"img/0875/5a1e5100-0d94-4fec-bbe9-ca9894d2cf8e.jpg\",\"img/0764/978aede9-4590-4ad0-b234-135c83e5d669.jpg\"]","trial_type":"similarity","trial_index":78,"time_elapsed":742061,"internal_node_id":"0.0-6.0-72.0"},{"sim_score":7,"rt":5192,"stimulus":"[\"img/0867/a498eef3-9fa4-4ab2-9778-4ae82ac40dc5.jpg\",\"img/0866/a04d37f0-99dd-478a-b6c6-58b215138f84.jpg\"]","trial_type":"similarity","trial_index":79,"time_elapsed":748257,"internal_node_id":"0.0-6.0-73.0"},{"sim_score":2,"rt":4161,"stimulus":"[\"img/0903/0a92ec52-4e87-410a-857a-4455cde56a70.jpg\",\"img/0758/f61ecdf8-a7d4-4db0-b84d-be46f7cfaffc.jpg\"]","trial_type":"similarity","trial_index":80,"time_elapsed":753420,"internal_node_id":"0.0-6.0-74.0"},{"sim_score":1,"rt":6037,"stimulus":"[\"img/0766/71b81ebd-0937-4d7f-b8bf-c4e46a4728fd.jpg\",\"img/0868/fd307a36-9a3a-47d7-ab7c-f810d0b35040.jpg\"]","trial_type":"similarity","trial_index":81,"time_elapsed":760460,"internal_node_id":"0.0-6.0-75.0"},{"sim_score":6,"rt":5318,"stimulus":"[\"img/0874/ca23d307-fc00-4d7d-9106-584c6eb21b4d.jpg\",\"img/0766/26d3ae14-8275-4e08-99b2-a6598c193ddf.jpg\"]","trial_type":"similarity","trial_index":82,"time_elapsed":766780,"internal_node_id":"0.0-6.0-76.0"},{"sim_score":1,"rt":3466,"stimulus":"[\"img/0881/566f45f8-5fed-4479-a60f-26377e60a62d.jpg\",\"img/0868/4a8a45ed-2c4f-421b-9564-409a33ecd26c.jpg\"]","trial_type":"similarity","trial_index":83,"time_elapsed":771248,"internal_node_id":"0.0-6.0-77.0"},{"sim_score":2,"rt":4778,"stimulus":"[\"img/0758/67c0be2f-9e91-48b3-8219-70ac0a1802fa.jpg\",\"img/0901/a373612d-67e2-4fec-9764-21d3d6ef6359.jpg\"]","trial_type":"similarity","trial_index":84,"time_elapsed":777027,"internal_node_id":"0.0-6.0-78.0"},{"sim_score":2,"rt":4583,"stimulus":"[\"img/0881/f62bdcd1-a4b7-4d48-83da-d9c9e01c8727.jpg\",\"img/0898/ec565187-2e31-4fdd-9a5c-153d0c789ae0.jpg\"]","trial_type":"similarity","trial_index":85,"time_elapsed":782611,"internal_node_id":"0.0-6.0-79.0"},{"sim_score":1,"rt":2945,"stimulus":"[\"img/0867/7d1c497b-c1b3-4ed8-abb5-d7f73306015f.jpg\",\"img/0758/d540bee6-b460-4c32-ac57-bc282742d7d4.jpg\"]","trial_type":"similarity","trial_index":86,"time_elapsed":786559,"internal_node_id":"0.0-6.0-80.0"},{"sim_score":6,"rt":4026,"stimulus":"[\"img/0769/11518cb3-13ea-4dd0-890c-30cfab728ade.jpg\",\"img/0899/4408c14d-c168-4a7d-96f6-bc87bfb58f83.jpg\"]","trial_type":"similarity","trial_index":87,"time_elapsed":791587,"internal_node_id":"0.0-6.0-81.0"},{"sim_score":7,"rt":3358,"stimulus":"[\"img/0903/f10e9eb5-0c21-4a6a-944c-5f10a6d0fa4d.jpg\",\"img/0903/b4a0f61e-a964-4b79-a9a7-f767a8f92f34.jpg\"]","trial_type":"similarity","trial_index":88,"time_elapsed":795946,"internal_node_id":"0.0-6.0-82.0"},{"sim_score":1,"rt":3113,"stimulus":"[\"img/0867/aa05d113-fc19-4756-a8eb-7878f580bc92.jpg\",\"img/0766/ba35c0fc-4d5b-490d-959e-c94b279cdd02.jpg\"]","trial_type":"similarity","trial_index":89,"time_elapsed":816561,"internal_node_id":"0.0-6.0-83.0"},{"sim_score":4,"rt":5174,"stimulus":"[\"img/0902/97022122-01e4-46c3-a34f-c6260ad28428.jpg\",\"img/0867/a749dddb-69f0-44a6-acdc-2bf295cf6dcc.jpg\"]","trial_type":"similarity","trial_index":90,"time_elapsed":822737,"internal_node_id":"0.0-6.0-84.0"},{"sim_score":3,"rt":4699,"stimulus":"[\"img/0901/31c032fd-3c3d-4882-a226-da9a80198937.jpg\",\"img/0875/42910c99-5463-450a-a0f8-d4d060a11455.jpg\"]","trial_type":"similarity","trial_index":91,"time_elapsed":828437,"internal_node_id":"0.0-6.0-85.0"},{"sim_score":2,"rt":4128,"stimulus":"[\"img/0764/06ea144f-f4f3-4a14-ba47-f20f35c561e0.jpg\",\"img/0866/d266fece-59b3-46fa-b69f-96f6efb81b59.jpg\"]","trial_type":"similarity","trial_index":92,"time_elapsed":833569,"internal_node_id":"0.0-6.0-86.0"},{"sim_score":2,"rt":4294,"stimulus":"[\"img/0901/148b747a-7392-437e-8823-33053c5dff3f.jpg\",\"img/0894/4739e06d-c31e-4bf1-bf91-c97fa9afb456.jpg\"]","trial_type":"similarity","trial_index":93,"time_elapsed":838865,"internal_node_id":"0.0-6.0-87.0"},{"sim_score":7,"rt":4849,"stimulus":"[\"img/0898/6cd3830b-d44e-4915-be2b-88d31424b91c.jpg\",\"img/0769/82ab9db6-4578-4e79-874f-f09100439f09.jpg\"]","trial_type":"similarity","trial_index":94,"time_elapsed":844717,"internal_node_id":"0.0-6.0-88.0"},{"sim_score":6,"rt":5089,"stimulus":"[\"img/0769/688d0c52-ad73-4065-a5eb-f8c10d076bff.jpg\",\"img/0894/10f22b96-040c-44f4-950b-a4963f3f506c.jpg\"]","trial_type":"similarity","trial_index":95,"time_elapsed":850808,"internal_node_id":"0.0-6.0-89.0"},{"sim_score":5,"rt":4281,"stimulus":"[\"img/0862/fad1d7c1-8187-43c3-942a-0fc12183e48e.jpg\",\"img/0874/8cdb1c07-1c32-46d2-981c-3636560fa6e5.jpg\"]","trial_type":"similarity","trial_index":96,"time_elapsed":856092,"internal_node_id":"0.0-6.0-90.0"},{"sim_score":7,"rt":4741,"stimulus":"[\"img/0894/792c83e9-a747-4000-bc72-5663d2439edb.jpg\",\"img/0766/3c526a07-9e0a-4ae2-8142-00085f0127da.jpg\"]","trial_type":"similarity","trial_index":97,"time_elapsed":861836,"internal_node_id":"0.0-6.0-91.0"},{"sim_score":1,"rt":3850,"stimulus":"[\"img/0874/ca76a855-4e77-4f2f-872a-0a718153e7ed.jpg\",\"img/0867/c71dc569-f49c-4397-8381-68b8d726736d.jpg\"]","trial_type":"similarity","trial_index":98,"time_elapsed":866688,"internal_node_id":"0.0-6.0-92.0"},{"sim_score":2,"rt":3177,"stimulus":"[\"img/0899/00715b3f-851b-420b-a26b-d7f79f7759a9.jpg\",\"img/0868/7b212364-ff5f-4e28-9241-7eb6ea00161b.jpg\"]","trial_type":"similarity","trial_index":99,"time_elapsed":870867,"internal_node_id":"0.0-6.0-93.0"},{"sim_score":5,"rt":4198,"stimulus":"[\"img/0903/81368973-de81-46f4-844f-b901f3bfd66d.jpg\",\"img/0862/7918ca67-5bd3-4606-a5ea-c39fb11a9297.jpg\"]","trial_type":"similarity","trial_index":100,"time_elapsed":876067,"internal_node_id":"0.0-6.0-94.0"},{"sim_score":4,"rt":3962,"stimulus":"[\"img/0899/7f9d45d0-b2c6-40d3-aa41-c207db2c411b.jpg\",\"img/0766/0b48f9e0-7d37-4161-8adb-4e3f5b6b7583.jpg\"]","trial_type":"similarity","trial_index":101,"time_elapsed":881031,"internal_node_id":"0.0-6.0-95.0"},{"sim_score":7,"rt":3084,"stimulus":"[\"img/0867/5e07b34d-b40f-4b1c-ac10-49975bace45f.jpg\",\"img/0868/c8ac40c7-6904-4e13-8d61-c75d3052dc4e.jpg\"]","trial_type":"similarity","trial_index":102,"time_elapsed":885119,"internal_node_id":"0.0-6.0-96.0"},{"sim_score":6,"rt":4193,"stimulus":"[\"img/0862/53a9cf7c-93c4-41b9-952f-07d17f7a17b2.jpg\",\"img/0901/f1116359-1ff1-4638-b3b3-700918d36d18.jpg\"]","trial_type":"similarity","trial_index":103,"time_elapsed":890314,"internal_node_id":"0.0-6.0-97.0"},{"sim_score":5,"rt":3961,"stimulus":"[\"img/0875/5a716432-c6ca-4b1c-955a-2b8ac25198ee.jpg\",\"img/0766/5d1b8041-c5a1-4b02-b4fe-3453d98a0d72.jpg\"]","trial_type":"similarity","trial_index":104,"time_elapsed":895278,"internal_node_id":"0.0-6.0-98.0"},{"sim_score":6,"rt":6194,"stimulus":"[\"img/0758/a085b443-b5d7-4cb2-9ad4-b9dab0fc23f1.jpg\",\"img/0874/bf14b896-e930-4fd9-9c05-2e83317a2773.jpg\"]","trial_type":"similarity","trial_index":105,"time_elapsed":902474,"internal_node_id":"0.0-6.0-99.0"},{"sim_score":3,"rt":4922,"stimulus":"[\"img/0904/0d25eb24-bb20-4e8d-9787-8b489558b4cb.jpg\",\"img/0868/d98ca254-b195-477f-b57e-5760a2717db8.jpg\"]","trial_type":"similarity","trial_index":106,"time_elapsed":908398,"internal_node_id":"0.0-6.0-100.0"},{"sim_score":2,"rt":4794,"stimulus":"[\"img/0903/97a42b34-5462-4665-88c7-83c014b33d24.jpg\",\"img/0866/945c6710-d15b-4a5b-a8f6-69af0850357f.jpg\"]","trial_type":"similarity","trial_index":107,"time_elapsed":914194,"internal_node_id":"0.0-6.0-101.0"},{"sim_score":6,"rt":5443,"stimulus":"[\"img/0868/1a62b2b2-18f5-466e-b564-5176a57c565e.jpg\",\"img/0769/3adfa417-3b90-4aab-b437-5eaa474189cb.jpg\"]","trial_type":"similarity","trial_index":108,"time_elapsed":920637,"internal_node_id":"0.0-6.0-102.0"},{"sim_score":2,"rt":6022,"stimulus":"[\"img/0902/4e0baa32-988e-46f6-989d-f669225ab645.jpg\",\"img/0899/9de5e857-aa9a-4e0c-8ba2-46d79bd069a4.jpg\"]","trial_type":"similarity","trial_index":109,"time_elapsed":927661,"internal_node_id":"0.0-6.0-103.0"},{"sim_score":2,"rt":6306,"stimulus":"[\"img/0868/8b0b8473-e2c0-4331-aa56-c3a5c29369da.jpg\",\"img/0862/f43ceabf-acc1-4107-b857-5d1849808f93.jpg\"]","trial_type":"similarity","trial_index":110,"time_elapsed":934969,"internal_node_id":"0.0-6.0-104.0"},{"sim_score":6,"rt":4797,"stimulus":"[\"img/0903/07b445ee-0cdb-4d2c-a23b-d727613f4059.jpg\",\"img/0894/a3d4170b-b7d8-40e3-955f-87e76ed745fc.jpg\"]","trial_type":"similarity","trial_index":111,"time_elapsed":940769,"internal_node_id":"0.0-6.0-105.0"},{"sim_score":6,"rt":4820,"stimulus":"[\"img/0864/b3c4e378-28f0-4699-9338-2a257b4bca04.jpg\",\"img/0874/85eb9b8a-c4c6-4e5a-b8e7-363a87a82054.jpg\"]","trial_type":"similarity","trial_index":112,"time_elapsed":946592,"internal_node_id":"0.0-6.0-106.0"},{"sim_score":7,"rt":3893,"stimulus":"[\"img/0862/eefa5588-9efd-4591-aa5f-a2e17c7d7bcc.jpg\",\"img/0902/c920f0e1-1c81-480f-a164-c77f2dc6ce9a.jpg\"]","trial_type":"similarity","trial_index":113,"time_elapsed":951488,"internal_node_id":"0.0-6.0-107.0"},{"sim_score":6,"rt":4422,"stimulus":"[\"img/0904/fe746a3f-8458-48d0-8a13-8cba2a9df9f8.jpg\",\"img/0903/5ea5bbe0-f238-4724-abe7-9ed8dee8c0ba.jpg\"]","trial_type":"similarity","trial_index":114,"time_elapsed":956912,"internal_node_id":"0.0-6.0-108.0"},{"sim_score":3,"rt":7169,"stimulus":"[\"img/0764/7f4ee8e3-9315-4a57-be7d-db8454b33766.jpg\",\"img/0864/1d15626a-2f7c-410f-819c-0fa2c967e95e.jpg\"]","trial_type":"similarity","trial_index":115,"time_elapsed":965083,"internal_node_id":"0.0-6.0-109.0"},{"sim_score":4,"rt":5169,"stimulus":"[\"img/0866/23a224f3-2012-4fc8-8e0f-3c36f8de27fd.jpg\",\"img/0894/7dd6ff43-f8fc-408a-8a41-a2b261871820.jpg\"]","trial_type":"similarity","trial_index":116,"time_elapsed":971255,"internal_node_id":"0.0-6.0-110.0"},{"sim_score":3,"rt":4975,"stimulus":"[\"img/0899/fef567a2-c121-4481-9af0-ff108d199bbf.jpg\",\"img/0903/bf0a7d60-eca5-44b0-bafd-baf21db9904b.jpg\"]","trial_type":"similarity","trial_index":117,"time_elapsed":977231,"internal_node_id":"0.0-6.0-111.0"},{"sim_score":5,"rt":6321,"stimulus":"[\"img/0902/10d99c89-71f7-4c81-a31e-dfc7c59f5232.jpg\",\"img/0904/a8c3c7d2-9bcf-4347-9e03-8203adfc1fc5.jpg\"]","trial_type":"similarity","trial_index":118,"time_elapsed":984555,"internal_node_id":"0.0-6.0-112.0"},{"sim_score":4,"rt":4309,"stimulus":"[\"img/0864/efcfbb1b-8197-44c9-b723-40d6c608dd3c.jpg\",\"img/0860/99c589b9-9140-4d17-90c0-b344323edcda.jpg\"]","trial_type":"similarity","trial_index":119,"time_elapsed":989866,"internal_node_id":"0.0-6.0-113.0"},{"sim_score":4,"rt":3982,"stimulus":"[\"img/0860/5bff793e-cbd5-4d7e-b628-0ac2b0e30b64.jpg\",\"img/0899/5b56dd3e-3f49-47cc-af84-16da6457753b.jpg\"]","trial_type":"similarity","trial_index":120,"time_elapsed":994850,"internal_node_id":"0.0-6.0-114.0"},{"sim_score":3,"rt":3581,"stimulus":"[\"img/0881/f7a8cc63-8842-40a4-9ff8-fe530310d62c.jpg\",\"img/0903/2a9c8033-3e70-47fa-816d-97ee1813a3a3.jpg\"]","trial_type":"similarity","trial_index":121,"time_elapsed":999434,"internal_node_id":"0.0-6.0-115.0"},{"sim_score":5,"rt":3930,"stimulus":"[\"img/0894/6aa5545f-fa7d-4286-bbaa-aaf34dc7ec96.jpg\",\"img/0874/adf9a8f1-c40b-402b-b95b-1e85a54a7b62.jpg\"]","trial_type":"similarity","trial_index":122,"time_elapsed":1004366,"internal_node_id":"0.0-6.0-116.0"},{"sim_score":4,"rt":5853,"stimulus":"[\"img/0881/1407b85b-a1c6-45b1-9884-3b24203efadb.jpg\",\"img/0862/99a99e39-8355-44ec-b993-e7bcec111e1c.jpg\"]","trial_type":"similarity","trial_index":123,"time_elapsed":1011221,"internal_node_id":"0.0-6.0-117.0"},{"sim_score":7,"rt":3248,"stimulus":"[\"img/0868/4bd5105a-d2c3-4f82-8c80-57196106ba53.jpg\",\"img/0875/cff79b3a-a797-4393-9757-6275f999ec04.jpg\"]","trial_type":"similarity","trial_index":124,"time_elapsed":1015470,"internal_node_id":"0.0-6.0-118.0"},{"sim_score":2,"rt":4896,"stimulus":"[\"img/0860/5383b320-1518-4095-a58e-5cc1ae30b64c.jpg\",\"img/0758/53f35650-e455-4b53-8be4-c3c8271c6466.jpg\"]","trial_type":"similarity","trial_index":125,"time_elapsed":1021369,"internal_node_id":"0.0-6.0-119.0"},{"sim_score":1,"rt":4485,"stimulus":"[\"img/0864/c3b63e8f-ea39-4d70-a1f2-b3fe4be8eb75.jpg\",\"img/0875/3ecb367d-e9eb-4826-8aaa-7aa72fb98019.jpg\"]","trial_type":"similarity","trial_index":126,"time_elapsed":1026857,"internal_node_id":"0.0-6.0-120.0"},{"sim_score":4,"rt":4885,"stimulus":"[\"img/0898/c3cecf20-f7fd-45fa-97d0-dc0a63e8d6c0.jpg\",\"img/0866/bf14b5bd-fb55-47db-86b9-4f8aeb9a6dad.jpg\"]","trial_type":"similarity","trial_index":127,"time_elapsed":1032745,"internal_node_id":"0.0-6.0-121.0"},{"sim_score":3,"rt":4974,"stimulus":"[\"img/0874/995f0332-0439-4eb4-add3-957335dbf6d9.jpg\",\"img/0904/73920552-103b-4c9c-9ece-e0b8376b4504.jpg\"]","trial_type":"similarity","trial_index":128,"time_elapsed":1038720,"internal_node_id":"0.0-6.0-122.0"},{"sim_score":2,"rt":3766,"stimulus":"[\"img/0904/06dacdc5-2206-4fb8-92b7-88042d22833c.jpg\",\"img/0864/300bb811-8b3c-4c42-8653-6097c3725197.jpg\"]","trial_type":"similarity","trial_index":129,"time_elapsed":1043488,"internal_node_id":"0.0-6.0-123.0"},{"sim_score":5,"rt":3518,"stimulus":"[\"img/0894/3adef67d-7676-4995-80b2-bb31b8aca3ef.jpg\",\"img/0902/d2c34af0-8c50-437d-8cc3-619195a3e8ba.jpg\"]","trial_type":"similarity","trial_index":130,"time_elapsed":1048008,"internal_node_id":"0.0-6.0-124.0"},{"sim_score":1,"rt":3774,"stimulus":"[\"img/0868/4e626425-63c8-484a-8a1d-e66ee4e0bef8.jpg\",\"img/0864/5f33e097-23e3-4002-882d-76e8cb15f451.jpg\"]","trial_type":"similarity","trial_index":131,"time_elapsed":1061602,"internal_node_id":"0.0-6.0-125.0"},{"sim_score":3,"rt":5461,"stimulus":"[\"img/0899/76ad07e2-ca25-45eb-84f2-8d80b8ca3e26.jpg\",\"img/0866/620cd1aa-0800-4414-8f6e-90342e7a99ad.jpg\"]","trial_type":"similarity","trial_index":132,"time_elapsed":1068067,"internal_node_id":"0.0-6.0-126.0"},{"sim_score":3,"rt":4210,"stimulus":"[\"img/0875/e7e66b13-b573-431e-b85e-288ce04a35a3.jpg\",\"img/0904/9b3568cc-3cf7-42be-9df3-fdafde7a58b8.jpg\"]","trial_type":"similarity","trial_index":133,"time_elapsed":1073278,"internal_node_id":"0.0-6.0-127.0"},{"sim_score":2,"rt":3885,"stimulus":"[\"img/0867/c66898ba-b71b-4d50-84f9-f7f84853a98d.jpg\",\"img/0899/ddf96ade-692e-4602-bd22-dedbb46401bc.jpg\"]","trial_type":"similarity","trial_index":134,"time_elapsed":1078167,"internal_node_id":"0.0-6.0-128.0"},{"sim_score":6,"rt":3949,"stimulus":"[\"img/0901/b9141736-3041-4385-a586-b1fe911c76a5.jpg\",\"img/0867/cc72ed48-7704-422c-86d6-467a1145287a.jpg\"]","trial_type":"similarity","trial_index":135,"time_elapsed":1083118,"internal_node_id":"0.0-6.0-129.0"},{"sim_score":3,"rt":6257,"stimulus":"[\"img/0864/0f537697-a314-47c3-a8cc-8df23b7e536c.jpg\",\"img/0769/14d393ce-e5be-4ca1-86ce-cc27d4b6074c.jpg\"]","trial_type":"similarity","trial_index":136,"time_elapsed":1090379,"internal_node_id":"0.0-6.0-130.0"},{"sim_score":4,"rt":3605,"stimulus":"[\"img/0903/8fcafe03-43df-4c45-9da5-0df3a1eeccc5.jpg\",\"img/0868/3a62db2d-97e9-44a3-b8e3-a48c6f0e423b.jpg\"]","trial_type":"similarity","trial_index":137,"time_elapsed":1094985,"internal_node_id":"0.0-6.0-131.0"},{"sim_score":2,"rt":4033,"stimulus":"[\"img/0864/49150900-7f25-4ce8-8d10-9b47a71d1997.jpg\",\"img/0867/26611f4e-d694-4460-b7e2-43c62753ddc3.jpg\"]","trial_type":"similarity","trial_index":138,"time_elapsed":1100021,"internal_node_id":"0.0-6.0-132.0"},{"sim_score":7,"rt":5077,"stimulus":"[\"img/0901/0adb3bd6-d758-4ba7-9723-3ad6cac05bd5.jpg\",\"img/0860/c3379ff7-0763-48fe-a1ec-7ea3d611bc7a.jpg\"]","trial_type":"similarity","trial_index":139,"time_elapsed":1106101,"internal_node_id":"0.0-6.0-133.0"},{"sim_score":5,"rt":4242,"stimulus":"[\"img/0881/7e822106-76f7-4b10-a805-14dc68b2cfaf.jpg\",\"img/0766/d919cedb-f9b7-4f30-83bb-3e9c65001ceb.jpg\"]","trial_type":"similarity","trial_index":140,"time_elapsed":1111345,"internal_node_id":"0.0-6.0-134.0"},{"sim_score":5,"rt":4506,"stimulus":"[\"img/0903/8635cf25-2648-4fe9-8c42-79d2598e999c.jpg\",\"img/0864/66091c27-e588-4476-8af9-265dc6be4156.jpg\"]","trial_type":"similarity","trial_index":141,"time_elapsed":1116852,"internal_node_id":"0.0-6.0-135.0"},{"sim_score":2,"rt":5486,"stimulus":"[\"img/0758/7ffbc76b-1fc1-432c-8f7e-9ec8d1b3f643.jpg\",\"img/0894/492d2f29-d7b9-4422-8be8-47fd58bfaa8b.jpg\"]","trial_type":"similarity","trial_index":142,"time_elapsed":1123340,"internal_node_id":"0.0-6.0-136.0"},{"sim_score":2,"rt":4294,"stimulus":"[\"img/0769/9ea9ceb6-049e-4ad9-be8f-00645cd35803.jpg\",\"img/0860/9593362c-9fe5-4d12-9735-6000a11f6aa5.jpg\"]","trial_type":"similarity","trial_index":143,"time_elapsed":1128636,"internal_node_id":"0.0-6.0-137.0"},{"sim_score":5,"rt":3293,"stimulus":"[\"img/0904/65e2b70a-b184-4da3-b5c0-5038bdf9469a.jpg\",\"img/0766/fd064894-7147-4af5-97e9-2089d5472656.jpg\"]","trial_type":"similarity","trial_index":144,"time_elapsed":1132932,"internal_node_id":"0.0-6.0-138.0"},{"sim_score":2,"rt":6110,"stimulus":"[\"img/0868/d6d1f30d-4323-435a-b194-7892521bc57e.jpg\",\"img/0860/4f695df5-afac-4da7-9875-fee39b0b24ad.jpg\"]","trial_type":"similarity","trial_index":145,"time_elapsed":1140044,"internal_node_id":"0.0-6.0-139.0"},{"sim_score":6,"rt":4174,"stimulus":"[\"img/0758/9fb5b2fe-3f00-4fe6-973c-1ce10d5f4cd5.jpg\",\"img/0864/3651d070-2fc5-4848-b6a6-088a2d9ac5c9.jpg\"]","trial_type":"similarity","trial_index":146,"time_elapsed":1145219,"internal_node_id":"0.0-6.0-140.0"},{"sim_score":7,"rt":3158,"stimulus":"[\"img/0867/f8488a47-94ee-4166-952c-44e16cf172f6.jpg\",\"img/0867/2e1a0b58-cdb1-4107-a14e-452530d7b9b0.jpg\"]","trial_type":"similarity","trial_index":147,"time_elapsed":1149379,"internal_node_id":"0.0-6.0-141.0"},{"sim_score":7,"rt":4889,"stimulus":"[\"img/0898/40f99fb2-64d2-4e72-8a7f-a1cf60741e69.jpg\",\"img/0898/68476bbb-34a1-42d9-8bc1-deab783d4489.jpg\"]","trial_type":"similarity","trial_index":148,"time_elapsed":1155271,"internal_node_id":"0.0-6.0-142.0"},{"sim_score":3,"rt":4895,"stimulus":"[\"img/0866/386235d2-6857-41e7-88a8-25cfc3430025.jpg\",\"img/0769/47700831-0ca2-4fdd-a498-a3bc5a528f43.jpg\"]","trial_type":"similarity","trial_index":149,"time_elapsed":1161168,"internal_node_id":"0.0-6.0-143.0"},{"sim_score":4,"rt":3269,"stimulus":"[\"img/0860/15b24a61-25be-4356-9eac-5ce95d0cb4a4.jpg\",\"img/0898/01bfe666-3510-4fc7-964f-d00d28732dc8.jpg\"]","trial_type":"similarity","trial_index":150,"time_elapsed":1165439,"internal_node_id":"0.0-6.0-144.0"},{"sim_score":5,"rt":5145,"stimulus":"[\"img/0766/c23b5a20-e50f-4d85-841f-cf89212a4348.jpg\",\"img/0864/e8bd659f-aa43-4748-877e-3118e8b4e189.jpg\"]","trial_type":"similarity","trial_index":151,"time_elapsed":1171586,"internal_node_id":"0.0-6.0-145.0"},{"sim_score":4,"rt":5193,"stimulus":"[\"img/0860/e8b8c51e-1834-4875-8b61-6c5bc9b178bd.jpg\",\"img/0903/470acfd5-5571-4a7b-b3a4-28d87e098138.jpg\"]","trial_type":"similarity","trial_index":152,"time_elapsed":1177782,"internal_node_id":"0.0-6.0-146.0"},{"sim_score":5,"rt":4409,"stimulus":"[\"img/0867/6e19c858-b606-45b2-a4c6-910a73f1d82c.jpg\",\"img/0764/ec2dd087-c471-4370-b570-95a542506a96.jpg\"]","trial_type":"similarity","trial_index":153,"time_elapsed":1183194,"internal_node_id":"0.0-6.0-147.0"},{"sim_score":6,"rt":5025,"stimulus":"[\"img/0769/878531fd-e0e8-4ad1-b9ad-f018bb104ca0.jpg\",\"img/0904/4d7d70a3-9477-4921-bda0-f9531d0a5c5b.jpg\"]","trial_type":"similarity","trial_index":154,"time_elapsed":1189221,"internal_node_id":"0.0-6.0-148.0"},{"sim_score":5,"rt":4034,"stimulus":"[\"img/0764/ef0e64c6-d0dd-4dc6-87b6-ce5c0665f421.jpg\",\"img/0901/443f2e59-199b-4f7b-9de9-c44ad97326a5.jpg\"]","trial_type":"similarity","trial_index":155,"time_elapsed":1194257,"internal_node_id":"0.0-6.0-149.0"},{"sim_score":4,"rt":4521,"stimulus":"[\"img/0904/b5855d6a-7ef9-46ca-9215-6e9fa046e543.jpg\",\"img/0899/8de08897-b430-42fe-9d42-840670b80f94.jpg\"]","trial_type":"similarity","trial_index":156,"time_elapsed":1199781,"internal_node_id":"0.0-6.0-150.0"},{"sim_score":1,"rt":3621,"stimulus":"[\"img/0862/d0ca4c78-fc35-46ed-bdcc-8e124283c53e.jpg\",\"img/0867/179ab87a-8eac-4c52-a41f-2e48e3120f09.jpg\"]","trial_type":"similarity","trial_index":157,"time_elapsed":1204405,"internal_node_id":"0.0-6.0-151.0"},{"sim_score":7,"rt":5133,"stimulus":"[\"img/0766/908bc45b-7c9e-4f95-806e-86b196ebcb2c.jpg\",\"img/0766/91fc8c4d-862f-4d2b-b1a1-2db8d729b6b7.jpg\"]","trial_type":"similarity","trial_index":158,"time_elapsed":1210540,"internal_node_id":"0.0-6.0-152.0"},{"sim_score":2,"rt":5087,"stimulus":"[\"img/0862/e8cc3bdf-cc43-4565-bccf-492626c70953.jpg\",\"img/0894/e6385e52-6c35-43bd-b0af-bc803d107b11.jpg\"]","trial_type":"similarity","trial_index":159,"time_elapsed":1216628,"internal_node_id":"0.0-6.0-153.0"},{"sim_score":2,"rt":4664,"stimulus":"[\"img/0899/25ae6ec8-9565-49fe-a8bb-8d0666f52716.jpg\",\"img/0901/12da1841-e611-435c-9719-109413d536a8.jpg\"]","trial_type":"similarity","trial_index":160,"time_elapsed":1222296,"internal_node_id":"0.0-6.0-154.0"},{"sim_score":7,"rt":4953,"stimulus":"[\"img/0874/a82926a3-0b43-4add-803c-d5f9ea7798ee.jpg\",\"img/0874/a3bc679d-619f-4db6-bb68-116dcb757d9c.jpg\"]","trial_type":"similarity","trial_index":161,"time_elapsed":1228252,"internal_node_id":"0.0-6.0-155.0"},{"sim_score":6,"rt":3698,"stimulus":"[\"img/0860/d9a0d117-6d1d-41c0-8fec-9aff0fd9e9f2.jpg\",\"img/0867/f26f6b60-f772-4f4c-95a4-addc62cfd692.jpg\"]","trial_type":"similarity","trial_index":162,"time_elapsed":1232952,"internal_node_id":"0.0-6.0-156.0"},{"sim_score":5,"rt":4658,"stimulus":"[\"img/0901/ae1e6ce4-2e10-4ca9-b1e7-21628637ab74.jpg\",\"img/0881/f8bd891e-aa09-4782-89db-33e7cb2b0cf1.jpg\"]","trial_type":"similarity","trial_index":163,"time_elapsed":1238611,"internal_node_id":"0.0-6.0-157.0"},{"sim_score":6,"rt":5588,"stimulus":"[\"img/0903/150cf64c-0bd2-4674-abbb-a1387cf1f3e9.jpg\",\"img/0902/3b243e54-0803-4c29-af42-4037c2118495.jpg\"]","trial_type":"similarity","trial_index":164,"time_elapsed":1245203,"internal_node_id":"0.0-6.0-158.0"},{"sim_score":4,"rt":3480,"stimulus":"[\"img/0860/61fb959d-d4d9-4de4-9e4e-4fa62b4cfcd5.jpg\",\"img/0764/f990b2e8-ecee-481e-be7c-0239fce350e2.jpg\"]","trial_type":"similarity","trial_index":165,"time_elapsed":1249687,"internal_node_id":"0.0-6.0-159.0"},{"sim_score":3,"rt":3388,"stimulus":"[\"img/0902/94ee9c53-a9a2-4f95-b9b7-794a5fc62bb6.jpg\",\"img/0875/527ced51-8e53-4aab-ab05-86df219104c0.jpg\"]","trial_type":"similarity","trial_index":166,"time_elapsed":1254079,"internal_node_id":"0.0-6.0-160.0"},{"sim_score":3,"rt":5113,"stimulus":"[\"img/0898/881e2a85-d5c2-49be-a0c6-8a6ce2c4af08.jpg\",\"img/0862/00c06b00-3b73-44e9-bc1e-c5aafb438321.jpg\"]","trial_type":"similarity","trial_index":167,"time_elapsed":1260194,"internal_node_id":"0.0-6.0-161.0"},{"sim_score":5,"rt":4577,"stimulus":"[\"img/0894/76c1201f-8524-4865-85e6-dda8cb4ac986.jpg\",\"img/0875/2c361b79-c3d1-4eda-812e-bf03192407bf.jpg\"]","trial_type":"similarity","trial_index":168,"time_elapsed":1265774,"internal_node_id":"0.0-6.0-162.0"},{"sim_score":1,"rt":4158,"stimulus":"[\"img/0866/d493a2c8-66eb-44b4-be02-2f327b700b7c.jpg\",\"img/0864/6e846d43-94a6-4b37-a268-65eda979f052.jpg\"]","trial_type":"similarity","trial_index":169,"time_elapsed":1270934,"internal_node_id":"0.0-6.0-163.0"},{"sim_score":7,"rt":5197,"stimulus":"[\"img/0766/e8052e17-9dae-4139-802b-6e590cb2d526.jpg\",\"img/0862/f23038d4-c366-4f70-979f-66b62362efa4.jpg\"]","trial_type":"similarity","trial_index":170,"time_elapsed":1277134,"internal_node_id":"0.0-6.0-164.0"},{"sim_score":1,"rt":4769,"stimulus":"[\"img/0866/f756f7d1-9ad8-4a34-9ef6-7a443d705bfe.jpg\",\"img/0874/3ce41e7c-40c8-4d58-a546-171114521796.jpg\"]","trial_type":"similarity","trial_index":171,"time_elapsed":1282905,"internal_node_id":"0.0-6.0-165.0"},{"sim_score":4,"rt":4687,"stimulus":"[\"img/0862/f188d4f0-76a4-4102-818c-a209969d73a5.jpg\",\"img/0860/31ff6436-98bf-4652-bed2-40f627229568.jpg\"]","trial_type":"similarity","trial_index":172,"time_elapsed":1288593,"internal_node_id":"0.0-6.0-166.0"},{"sim_score":3,"rt":3901,"stimulus":"[\"img/0766/fd74fdbb-ea40-4f3a-a091-38d08dfd636e.jpg\",\"img/0901/7d4a3388-488d-4e9b-9d32-9d0def7aae8d.jpg\"]","trial_type":"similarity","trial_index":173,"time_elapsed":1302320,"internal_node_id":"0.0-6.0-167.0"},{"sim_score":7,"rt":5990,"stimulus":"[\"img/0862/de9ad88c-b522-430a-8ee9-eb06a9f85df5.jpg\",\"img/0862/57b6f83f-c763-4858-830d-102f97bfefbf.jpg\"]","trial_type":"similarity","trial_index":174,"time_elapsed":1309312,"internal_node_id":"0.0-6.0-168.0"},{"sim_score":6,"rt":6538,"stimulus":"[\"img/0894/9b1333fd-3561-43bf-aee5-99b7b7ca3dc3.jpg\",\"img/0764/c643e165-df19-459f-8c2b-8357bf432a17.jpg\"]","trial_type":"similarity","trial_index":175,"time_elapsed":1316852,"internal_node_id":"0.0-6.0-169.0"},{"sim_score":3,"rt":4485,"stimulus":"[\"img/0874/93d1f8dc-acf2-4f03-bd8d-8ec35df276ed.jpg\",\"img/0898/8605a25b-6895-476d-8c13-df7a83f96093.jpg\"]","trial_type":"similarity","trial_index":176,"time_elapsed":1322339,"internal_node_id":"0.0-6.0-170.0"},{"sim_score":1,"rt":4377,"stimulus":"[\"img/0860/87039971-2210-4aab-93c0-8e9b5f1655b2.jpg\",\"img/0766/60033a74-9919-47e5-913c-71d0d483e7e5.jpg\"]","trial_type":"similarity","trial_index":177,"time_elapsed":1327719,"internal_node_id":"0.0-6.0-171.0"},{"sim_score":5,"rt":4878,"stimulus":"[\"img/0898/81b08535-2020-4c15-9ce4-2f1e460755ae.jpg\",\"img/0864/8ddd2e30-a1d0-479f-9cbe-591213023893.jpg\"]","trial_type":"similarity","trial_index":178,"time_elapsed":1333599,"internal_node_id":"0.0-6.0-172.0"},{"sim_score":5,"rt":4477,"stimulus":"[\"img/0881/33d65d80-8a8e-4ecf-852d-0ad7725c17a2.jpg\",\"img/0764/c80b3e06-2ee3-4326-9678-340607eb5348.jpg\"]","trial_type":"similarity","trial_index":179,"time_elapsed":1339079,"internal_node_id":"0.0-6.0-173.0"},{"sim_score":3,"rt":4458,"stimulus":"[\"img/0898/f3a3f225-1248-4ac7-b93b-f0ff28485bf3.jpg\",\"img/0868/83b4350a-3b70-4cea-b7f5-b5b56f3050a8.jpg\"]","trial_type":"similarity","trial_index":180,"time_elapsed":1344539,"internal_node_id":"0.0-6.0-174.0"},{"sim_score":6,"rt":4074,"stimulus":"[\"img/0864/c22faebd-9c53-47bc-ada3-b9a30c688e75.jpg\",\"img/0864/1ebbc554-99fa-49f9-8799-317375a79820.jpg\"]","trial_type":"similarity","trial_index":181,"time_elapsed":1349614,"internal_node_id":"0.0-6.0-175.0"},{"sim_score":6,"rt":7343,"stimulus":"[\"img/0899/d8f2dd94-570e-4e8c-a087-d96090fb9e8c.jpg\",\"img/0862/ad593cc7-cabe-4bb7-8e14-8a447a0717b4.jpg\"]","trial_type":"similarity","trial_index":182,"time_elapsed":1357958,"internal_node_id":"0.0-6.0-176.0"},{"sim_score":2,"rt":5520,"stimulus":"[\"img/0875/a4935837-7d3c-4df6-88c1-36a94d4991ca.jpg\",\"img/0758/dd559618-7f09-4a07-8018-d311c4a5ea29.jpg\"]","trial_type":"similarity","trial_index":183,"time_elapsed":1364482,"internal_node_id":"0.0-6.0-177.0"},{"sim_score":1,"rt":4018,"stimulus":"[\"img/0866/4a87911a-d5be-4d4e-ab8e-3d1f581bf507.jpg\",\"img/0901/8bb79e82-9c43-4b6f-a655-40655519598b.jpg\"]","trial_type":"similarity","trial_index":184,"time_elapsed":1369502,"internal_node_id":"0.0-6.0-178.0"},{"sim_score":6,"rt":5169,"stimulus":"[\"img/0769/ebef2ddc-ba59-4e0e-97f8-927864eb5081.jpg\",\"img/0874/29830da7-be5f-44e5-b141-652a0ccf7269.jpg\"]","trial_type":"similarity","trial_index":185,"time_elapsed":1375673,"internal_node_id":"0.0-6.0-179.0"},{"sim_score":5,"rt":4834,"stimulus":"[\"img/0875/34132396-d896-4c2d-8087-646dd867e769.jpg\",\"img/0881/633c6f40-56d9-4b48-bf1c-ecd83116eabb.jpg\"]","trial_type":"similarity","trial_index":186,"time_elapsed":1381509,"internal_node_id":"0.0-6.0-180.0"},{"sim_score":6,"rt":4422,"stimulus":"[\"img/0866/11a1d141-be5e-443c-98c1-a9d4d9e3dec0.jpg\",\"img/0868/179a5502-ab5c-478e-8263-5a1fbcc101d2.jpg\"]","trial_type":"similarity","trial_index":187,"time_elapsed":1386933,"internal_node_id":"0.0-6.0-181.0"},{"sim_score":6,"rt":5365,"stimulus":"[\"img/0899/0adc0bc3-6fca-4078-be6f-d45ddf1653d5.jpg\",\"img/0758/61d64021-9214-4951-bdf8-f871f9827cf9.jpg\"]","trial_type":"similarity","trial_index":188,"time_elapsed":1393301,"internal_node_id":"0.0-6.0-182.0"},{"sim_score":1,"rt":2918,"stimulus":"[\"img/0874/1016b306-087c-4afc-aa08-fa527b28dc76.jpg\",\"img/0875/99698b4d-b4a1-44bc-8c83-8ea755bbbf61.jpg\"]","trial_type":"similarity","trial_index":189,"time_elapsed":1397220,"internal_node_id":"0.0-6.0-183.0"},{"sim_score":3,"rt":3902,"stimulus":"[\"img/0904/0d17b811-063e-416e-a23c-3b3cfa4fcce5.jpg\",\"img/0862/24cdc752-c2e5-4a17-86a6-6f2045d8553b.jpg\"]","trial_type":"similarity","trial_index":190,"time_elapsed":1402124,"internal_node_id":"0.0-6.0-184.0"},{"sim_score":2,"rt":3612,"stimulus":"[\"img/0902/d5e25767-e8ec-45f3-ac0a-7b4a6f7a9edc.jpg\",\"img/0766/09f646c8-a69e-4ed3-879c-8d29b04ad7f9.jpg\"]","trial_type":"similarity","trial_index":191,"time_elapsed":1406740,"internal_node_id":"0.0-6.0-185.0"},{"sim_score":5,"rt":5713,"stimulus":"[\"img/0758/6e95579b-5166-487c-b8cb-e417c6a218e3.jpg\",\"img/0769/387a9744-d6a7-42b8-bab8-33007ec434aa.jpg\"]","trial_type":"similarity","trial_index":192,"time_elapsed":1413456,"internal_node_id":"0.0-6.0-186.0"},{"sim_score":4,"rt":4450,"stimulus":"[\"img/0881/e046471a-35b4-4159-bbf7-3cfd201bef66.jpg\",\"img/0881/b1a136f7-8511-4d3a-a0f6-3879acf1e1a1.jpg\"]","trial_type":"similarity","trial_index":193,"time_elapsed":1418907,"internal_node_id":"0.0-6.0-187.0"},{"sim_score":5,"rt":5346,"stimulus":"[\"img/0758/65d426d6-3ff6-415d-8654-a43b83ecc4fe.jpg\",\"img/0866/93a27239-8317-4e08-98ca-d8b1ff298e07.jpg\"]","trial_type":"similarity","trial_index":194,"time_elapsed":1425257,"internal_node_id":"0.0-6.0-188.0"},{"sim_score":2,"rt":3692,"stimulus":"[\"img/0764/b8e23f4f-ff19-4472-ad9b-2f85548ebca0.jpg\",\"img/0898/cd3aaa3f-efa9-4ab3-8d6f-a6a9273ddf42.jpg\"]","trial_type":"similarity","trial_index":195,"time_elapsed":1429951,"internal_node_id":"0.0-6.0-189.0"},{"sim_score":6,"rt":6981,"stimulus":"[\"img/0903/8931c67c-a43d-47d3-a4c9-42aa2f81d344.jpg\",\"img/0901/5657dd86-0ff9-4753-ba2b-9dfb223e5c89.jpg\"]","trial_type":"similarity","trial_index":196,"time_elapsed":1437934,"internal_node_id":"0.0-6.0-190.0"},{"sim_score":6,"rt":5202,"stimulus":"[\"img/0902/6730b12a-f0a7-4587-8c10-a32fae16565b.jpg\",\"img/0898/224c1572-56b9-4f16-a9e4-6f3bc9c114bd.jpg\"]","trial_type":"similarity","trial_index":197,"time_elapsed":1444139,"internal_node_id":"0.0-6.0-191.0"},{"sim_score":5,"rt":5192,"stimulus":"[\"img/0864/6f631579-acf1-415c-a42c-1207f62a8d99.jpg\",\"img/0901/d6d15b1c-4a30-4f74-a3fd-d4c8ee4169ca.jpg\"]","trial_type":"similarity","trial_index":198,"time_elapsed":1450334,"internal_node_id":"0.0-6.0-192.0"},{"sim_score":3,"rt":4989,"stimulus":"[\"img/0894/b422d5c6-3c5a-49ae-a53e-7e88ac993f49.jpg\",\"img/0881/292e9b4b-fca0-4ba8-87f1-4048f9e37b7d.jpg\"]","trial_type":"similarity","trial_index":199,"time_elapsed":1456326,"internal_node_id":"0.0-6.0-193.0"},{"sim_score":7,"rt":4894,"stimulus":"[\"img/0868/15dd6fd7-791e-4b53-b203-195d617521a4.jpg\",\"img/0868/6a28c3b0-3d76-498a-9fb7-ddafc665eca8.jpg\"]","trial_type":"similarity","trial_index":200,"time_elapsed":1462222,"internal_node_id":"0.0-6.0-194.0"},{"sim_score":4,"rt":4581,"stimulus":"[\"img/0899/51a7a498-98c7-42d7-bca8-bc2d8f0b5831.jpg\",\"img/0764/cbdc4f20-3a9a-4211-9b40-090699e0abcc.jpg\"]","trial_type":"similarity","trial_index":201,"time_elapsed":1467805,"internal_node_id":"0.0-6.0-195.0"},{"sim_score":5,"rt":6725,"stimulus":"[\"img/0881/2a8413be-fec2-4de6-88ad-614dd4cccc9d.jpg\",\"img/0904/24fc38fe-842c-4831-ad8a-b1de5c25c0a8.jpg\"]","trial_type":"similarity","trial_index":202,"time_elapsed":1475533,"internal_node_id":"0.0-6.0-196.0"},{"sim_score":6,"rt":5524,"stimulus":"[\"img/0864/5f74a653-3bdc-4308-8cca-ac667dc22e1f.jpg\",\"img/0902/2a7ac123-414a-476a-9a96-4757b924baef.jpg\"]","trial_type":"similarity","trial_index":203,"time_elapsed":1482061,"internal_node_id":"0.0-6.0-197.0"},{"sim_score":6,"rt":4858,"stimulus":"[\"img/0894/38cf335f-f76f-4349-8d65-e20cd6859565.jpg\",\"img/0904/09dac84f-3d1c-4445-a68e-d0389fdbf1e9.jpg\"]","trial_type":"similarity","trial_index":204,"time_elapsed":1487920,"internal_node_id":"0.0-6.0-198.0"},{"sim_score":7,"rt":4189,"stimulus":"[\"img/0901/875dedb9-24c9-4443-9f8c-85e97d70ee5a.jpg\",\"img/0901/1e23ffbd-19de-4c4f-aa23-c54aaa3319a3.jpg\"]","trial_type":"similarity","trial_index":205,"time_elapsed":1493112,"internal_node_id":"0.0-6.0-199.0"},{"sim_score":5,"rt":3386,"stimulus":"[\"img/0894/a98416c0-51e2-4960-85da-d81d8688b9d5.jpg\",\"img/0860/b03b963d-949b-4d8d-b19c-4950c89eeca2.jpg\"]","trial_type":"similarity","trial_index":206,"time_elapsed":1497500,"internal_node_id":"0.0-6.0-200.0"},{"sim_score":5,"rt":5017,"stimulus":"[\"img/0898/04e39a7a-fcf6-4156-ab0e-f5871f335e1c.jpg\",\"img/0903/9b60ef5b-234f-4239-892b-3d4c412accc2.jpg\"]","trial_type":"similarity","trial_index":207,"time_elapsed":1503520,"internal_node_id":"0.0-6.0-201.0"},{"sim_score":5,"rt":5725,"stimulus":"[\"img/0864/da39ad34-04e0-40d4-a724-c08d53e0ea09.jpg\",\"img/0894/e5edf723-72a5-4673-8441-6c1734a8929b.jpg\"]","trial_type":"similarity","trial_index":208,"time_elapsed":1510248,"internal_node_id":"0.0-6.0-202.0"},{"sim_score":4,"rt":4340,"stimulus":"[\"img/0874/c0378dac-9370-439a-8b79-db27c96fb390.jpg\",\"img/0860/f44ba3fb-03a2-42f0-8509-2c1ded493086.jpg\"]","trial_type":"similarity","trial_index":209,"time_elapsed":1515591,"internal_node_id":"0.0-6.0-203.0"},{"sim_score":4,"rt":4515,"stimulus":"[\"img/0862/1c20f772-3a51-4a80-aac0-f57dc9f86c28.jpg\",\"img/0875/ebf7653f-ff45-4e9f-af58-2c042ab3cd2b.jpg\"]","trial_type":"similarity","trial_index":210,"time_elapsed":1521107,"internal_node_id":"0.0-6.0-204.0"},{"sim_score":1,"rt":4248,"stimulus":"[\"img/0867/ac1797e4-8afc-48fe-b252-86d1defb1cca.jpg\",\"img/0881/c843e210-bdfe-4a7c-8bbe-fcea1f90fe1c.jpg\"]","trial_type":"similarity","trial_index":211,"time_elapsed":1526359,"internal_node_id":"0.0-6.0-205.0"},{"sim_score":3,"rt":6593,"stimulus":"[\"img/0901/a0d65c84-3f20-476a-92d1-0c01e8019cf4.jpg\",\"img/0902/b76efc44-a50f-4dac-b997-ff0222376067.jpg\"]","trial_type":"similarity","trial_index":212,"time_elapsed":1533954,"internal_node_id":"0.0-6.0-206.0"},{"sim_score":5,"rt":6046,"stimulus":"[\"img/0899/93494f3b-d539-4075-b027-d82e344563da.jpg\",\"img/0864/afcba0a3-7e27-4757-b254-e9f05fad27e2.jpg\"]","trial_type":"similarity","trial_index":213,"time_elapsed":1541002,"internal_node_id":"0.0-6.0-207.0"},{"sim_score":1,"rt":3694,"stimulus":"[\"img/0901/4ca4f962-40c0-4c59-b14a-3cd7b8c9029b.jpg\",\"img/0769/f6396414-6788-4d59-9683-de153298d89c.jpg\"]","trial_type":"similarity","trial_index":214,"time_elapsed":1545698,"internal_node_id":"0.0-6.0-208.0"},{"sim_score":7,"rt":5646,"stimulus":"[\"img/0902/511abb54-0094-4f4d-b6dc-3f2c97050521.jpg\",\"img/0902/8af4182a-9af9-4212-a436-9195555112d6.jpg\"]","trial_type":"similarity","trial_index":215,"time_elapsed":1563409,"internal_node_id":"0.0-6.0-209.0"},{"view_history":"[{\"page_index\":0,\"viewing_time\":10932}]","rt":10932,"trial_type":"instructions","trial_index":216,"time_elapsed":1575341,"internal_node_id":"0.0-7.0"},{"rt":43090,"responses":"{\"Q0\":\"Nashville Warbler\"}","answer":["Nashville Warbler"],"trial_type":"image-multi-choice","trial_index":217,"time_elapsed":1619438,"internal_node_id":"0.0-8.0-0.0"},{"rt":6604,"responses":"{\"Q0\":\"Black-and-white Warbler\"}","answer":["Black-and-white Warbler"],"trial_type":"image-multi-choice","trial_index":218,"time_elapsed":1627049,"internal_node_id":"0.0-8.0-1.0"},{"rt":69075,"responses":"{\"Q0\":\"Blackburnian Warbler\"}","answer":["Townsend's Warbler"],"trial_type":"image-multi-choice","trial_index":219,"time_elapsed":1697133,"internal_node_id":"0.0-8.0-2.0"},{"rt":40732,"responses":"{\"Q0\":\"White-throated Sparrow\"}","answer":["Lark Sparrow"],"trial_type":"image-multi-choice","trial_index":220,"time_elapsed":1738870,"internal_node_id":"0.0-8.0-3.0"},{"rt":13877,"responses":"{\"Q0\":\"Yellow Warbler\"}","answer":["Yellow Warbler"],"trial_type":"image-multi-choice","trial_index":221,"time_elapsed":1753754,"internal_node_id":"0.0-8.0-4.0"},{"rt":9706,"responses":"{\"Q0\":\"Orange-crowned Warbler\"}","answer":["Orange-crowned Warbler"],"trial_type":"image-multi-choice","trial_index":222,"time_elapsed":1764465,"internal_node_id":"0.0-8.0-5.0"},{"rt":28045,"responses":"{\"Q0\":\"White-crowned Sparrow\"}","answer":["White-throated Sparrow"],"trial_type":"image-multi-choice","trial_index":223,"time_elapsed":1793516,"internal_node_id":"0.0-8.0-6.0"},{"rt":57383,"responses":"{\"Q0\":\"Fox Sparrow\"}","answer":["Fox Sparrow"],"trial_type":"image-multi-choice","trial_index":224,"time_elapsed":1851906,"internal_node_id":"0.0-8.0-7.0"},{"rt":14132,"responses":"{\"Q0\":\"Lincoln's Sparrow\"}","answer":["Song Sparrow"],"trial_type":"image-multi-choice","trial_index":225,"time_elapsed":1867045,"internal_node_id":"0.0-8.0-8.0"},{"rt":28834,"responses":"{\"Q0\":\"Blackburnian Warbler\"}","answer":["Blackburnian Warbler"],"trial_type":"image-multi-choice","trial_index":226,"time_elapsed":1896884,"internal_node_id":"0.0-8.0-9.0"},{"rt":17006,"responses":"{\"Q0\":\"Vesper Sparrow\"}","answer":["Vesper Sparrow"],"trial_type":"image-multi-choice","trial_index":227,"time_elapsed":1914895,"internal_node_id":"0.0-8.0-10.0"},{"rt":14438,"responses":"{\"Q0\":\"White-crowned Sparrow\"}","answer":["White-crowned Sparrow"],"trial_type":"image-multi-choice","trial_index":228,"time_elapsed":1930338,"internal_node_id":"0.0-8.0-11.0"},{"rt":25453,"responses":"{\"Q0\":\"American Tree Sparrow\"}","answer":["American Tree Sparrow"],"trial_type":"image-multi-choice","trial_index":229,"time_elapsed":1956797,"internal_node_id":"0.0-8.0-12.0"},{"rt":19744,"responses":"{\"Q0\":\"Tennessee Warbler\"}","answer":["Tennessee Warbler"],"trial_type":"image-multi-choice","trial_index":230,"time_elapsed":1977544,"internal_node_id":"0.0-8.0-13.0"},{"rt":12822,"responses":"{\"Q0\":\"Magnolia Warbler\"}","answer":["Magnolia Warbler"],"trial_type":"image-multi-choice","trial_index":231,"time_elapsed":1991371,"internal_node_id":"0.0-8.0-14.0"},{"rt":10468,"responses":"{\"Q0\":\"Northern Waterthrush\"}","answer":["Northern Waterthrush"],"trial_type":"image-multi-choice","trial_index":232,"time_elapsed":2002847,"internal_node_id":"0.0-8.0-15.0"},{"rt":84789,"responses":"{\"Q0\":\"Chipping Sparrow\"}","answer":["Chipping Sparrow"],"trial_type":"image-multi-choice","trial_index":233,"time_elapsed":2088643,"internal_node_id":"0.0-8.0-16.0"},{"rt":13165,"responses":"{\"Q0\":\"Song Sparrow\"}","answer":["Swamp Sparrow"],"trial_type":"image-multi-choice","trial_index":234,"time_elapsed":2102814,"internal_node_id":"0.0-8.0-17.0"},{"rt":57551,"responses":"{\"Q0\":\"Ovenbird\"}","answer":["Lincoln's Sparrow"],"trial_type":"image-multi-choice","trial_index":235,"time_elapsed":2161372,"internal_node_id":"0.0-8.0-18.0"},{"rt":8171,"responses":"{\"Q0\":\"Ovenbird\"}","answer":["Ovenbird"],"trial_type":"image-multi-choice","trial_index":236,"time_elapsed":2170548,"internal_node_id":"0.0-8.0-19.0"}]