"view_history","rt","trial_type","trial_index","time_elapsed","internal_node_id","sim_score","stimulus","responses","answer"
"[{""page_index"":0,""viewing_time"":15204}]","15205","instructions","0","15207","0.0-0.0","","","",""
"","7782","similarity_demo","1","24007","0.0-1.0","5","[""img/866.jpg"",""img/868.jpg""]","",""
"[{""page_index"":0,""viewing_time"":11572}]","11572","instructions","2","36579","0.0-2.0","","","",""
"","4540","similarity_demo","3","42142","0.0-3.0","2","[""img/766.jpg"",""img/867.jpg""]","",""
"[{""page_index"":0,""viewing_time"":6454}]","6455","instructions","4","49612","0.0-4.0","","","",""
"[{""page_index"":0,""viewing_time"":30339}]","30340","instructions","5","80957","0.0-5.0","","","",""
"","4982","similarity","6","86958","0.0-6.0-0.0","2","[""img/0868/7b212364-ff5f-4e28-9241-7eb6ea00161b.jpg"",""img/0901/a373612d-67e2-4fec-9764-21d3d6ef6359.jpg""]","",""
"","4683","similarity","7","92653","0.0-6.0-1.0","1","[""img/0769/4a1d0b52-3fe8-40fb-bb1c-c814fe49a68c.jpg"",""img/0867/26611f4e-d694-4460-b7e2-43c62753ddc3.jpg""]","",""
"","5529","similarity","8","99190","0.0-6.0-2.0","2","[""img/0766/ea09dd5a-d24d-4e97-a099-7da3db1baef1.jpg"",""img/0898/4184e5a2-84ea-4f36-9b42-ae58646f6f87.jpg""]","",""
"","5545","similarity","9","105741","0.0-6.0-3.0","2","[""img/0902/01b41522-de46-4c3a-b0af-a61b2682b40e.jpg"",""img/0881/f037e3b0-09cb-4a83-b2d9-6a71fe474e63.jpg""]","",""
"","6215","similarity","10","112966","0.0-6.0-4.0","6","[""img/0894/bd34223a-2f66-4e16-9d18-193a746b69ff.jpg"",""img/0894/1b3888e6-cf36-4c4a-a039-187aa5cb71ac.jpg""]","",""
"","6914","similarity","11","120884","0.0-6.0-5.0","2","[""img/0874/c0378dac-9370-439a-8b79-db27c96fb390.jpg"",""img/0899/1b3457ea-87d4-4946-a01c-aac1863ed46c.jpg""]","",""
"","6712","similarity","12","128604","0.0-6.0-6.0","5","[""img/0904/0d17b811-063e-416e-a23c-3b3cfa4fcce5.jpg"",""img/0764/3297a811-ea8b-4d74-9547-59cecab7293a.jpg""]","",""
"","8163","similarity","13","137773","0.0-6.0-7.0","2","[""img/0899/76ad07e2-ca25-45eb-84f2-8d80b8ca3e26.jpg"",""img/0898/cd3aaa3f-efa9-4ab3-8d6f-a6a9273ddf42.jpg""]","",""
"","5889","similarity","14","144669","0.0-6.0-8.0","1","[""img/0874/eba003b4-cdab-4eee-8bc3-f064c7d94165.jpg"",""img/0903/470acfd5-5571-4a7b-b3a4-28d87e098138.jpg""]","",""
"","6946","similarity","15","152621","0.0-6.0-9.0","3","[""img/0881/609a5e93-38b5-4940-8627-2bf8fad7f802.jpg"",""img/0758/335851a0-a55b-46d8-ab05-8463eda48349.jpg""]","",""
"","7088","similarity","16","160717","0.0-6.0-10.0","2","[""img/0898/0af304a2-6a7a-4082-ab7c-4450cd08cc58.jpg"",""img/0901/443f2e59-199b-4f7b-9de9-c44ad97326a5.jpg""]","",""
"","6203","similarity","17","167927","0.0-6.0-11.0","6","[""img/0903/6a87dbad-9b8d-4ff5-9c41-03c9aa24f0c3.jpg"",""img/0769/47700831-0ca2-4fdd-a498-a3bc5a528f43.jpg""]","",""
"","4329","similarity","18","173261","0.0-6.0-12.0","1","[""img/0764/1def7b22-b054-4ec2-860b-73d25691823b.jpg"",""img/0868/5fa7f9d0-f0e5-454c-8224-74d964818f56.jpg""]","",""
"","7251","similarity","19","181517","0.0-6.0-13.0","2","[""img/0867/db7e032f-162b-46f5-ae67-2b29679adee4.jpg"",""img/0903/aa842abe-6fa3-448a-bf71-88d3ad28663b.jpg""]","",""
"","5275","similarity","20","187797","0.0-6.0-14.0","1","[""img/0766/fd064894-7147-4af5-97e9-2089d5472656.jpg"",""img/0758/a085b443-b5d7-4cb2-9ad4-b9dab0fc23f1.jpg""]","",""
"","5914","similarity","21","194717","0.0-6.0-15.0","2","[""img/0902/a6fb6dd5-696c-47ec-be7d-d7b88f1544f1.jpg"",""img/0860/71e1aad0-2cdf-43bb-94a4-a8c016997c30.jpg""]","",""
"","4523","similarity","22","200245","0.0-6.0-16.0","2","[""img/0769/82ab9db6-4578-4e79-874f-f09100439f09.jpg"",""img/0875/527ced51-8e53-4aab-ab05-86df219104c0.jpg""]","",""
"","5232","similarity","23","206485","0.0-6.0-17.0","2","[""img/0904/5cceabc9-de1d-4c67-989b-c28a4ef77e79.jpg"",""img/0866/8efcaa46-83ab-4dee-a35f-850402aa21ae.jpg""]","",""
"","5188","similarity","24","212676","0.0-6.0-18.0","7","[""img/0875/cff79b3a-a797-4393-9757-6275f999ec04.jpg"",""img/0875/e7e66b13-b573-431e-b85e-288ce04a35a3.jpg""]","",""
"","5689","similarity","25","219374","0.0-6.0-19.0","7","[""img/0758/67c0be2f-9e91-48b3-8219-70ac0a1802fa.jpg"",""img/0758/53f35650-e455-4b53-8be4-c3c8271c6466.jpg""]","",""
"","5671","similarity","26","226053","0.0-6.0-20.0","2","[""img/0902/7499db23-3a41-41ea-ab5b-6ab4d4c3ed35.jpg"",""img/0874/adf9a8f1-c40b-402b-b95b-1e85a54a7b62.jpg""]","",""
"","8495","similarity","27","235557","0.0-6.0-21.0","5","[""img/0764/958b8576-3a3b-4acc-96dc-06b74de69f37.jpg"",""img/0769/f73c5138-2f4c-4354-981c-129dff9cc734.jpg""]","",""
"","4419","similarity","28","240981","0.0-6.0-22.0","1","[""img/0901/c6df1a21-44ed-47c2-960e-7c52220e329e.jpg"",""img/0874/1016b306-087c-4afc-aa08-fa527b28dc76.jpg""]","",""
"","4249","similarity","29","246236","0.0-6.0-23.0","1","[""img/0875/2c361b79-c3d1-4eda-812e-bf03192407bf.jpg"",""img/0903/8635cf25-2648-4fe9-8c42-79d2598e999c.jpg""]","",""
"","9684","similarity","30","256925","0.0-6.0-24.0","3","[""img/0769/9ea9ceb6-049e-4ad9-be8f-00645cd35803.jpg"",""img/0881/62a64f90-7a72-4aee-a1a1-0c548ac9bdda.jpg""]","",""
"","9696","similarity","31","267629","0.0-6.0-25.0","2","[""img/0867/1719a35d-f085-48c0-9099-16c94fe418b4.jpg"",""img/0904/9dd5708f-3f8b-46a9-b49f-2f2fab87b357.jpg""]","",""
"","4771","similarity","32","273405","0.0-6.0-26.0","1","[""img/0860/f44ba3fb-03a2-42f0-8509-2c1ded493086.jpg"",""img/0881/c24f3051-eefa-42de-aba6-fccb56d93c70.jpg""]","",""
"","6090","similarity","33","280502","0.0-6.0-27.0","6","[""img/0866/02f5e6b9-52b7-448c-9708-5b460d0c9a23.jpg"",""img/0866/386235d2-6857-41e7-88a8-25cfc3430025.jpg""]","",""
"","4704","similarity","34","286213","0.0-6.0-28.0","1","[""img/0764/c01e2d65-6586-441b-bef5-3c96fcd85380.jpg"",""img/0862/ad593cc7-cabe-4bb7-8e14-8a447a0717b4.jpg""]","",""
"","6345","similarity","35","293565","0.0-6.0-29.0","1","[""img/0904/5aec2708-cf14-4a58-aa30-9a8a61c1be0e.jpg"",""img/0758/7ffbc76b-1fc1-432c-8f7e-9ec8d1b3f643.jpg""]","",""
"","6815","similarity","36","301388","0.0-6.0-30.0","3","[""img/0894/8cadb87a-7001-4e47-99fb-1867bebf1668.jpg"",""img/0899/7f9d45d0-b2c6-40d3-aa41-c207db2c411b.jpg""]","",""
"","6467","similarity","37","308860","0.0-6.0-31.0","2","[""img/0860/e8b8c51e-1834-4875-8b61-6c5bc9b178bd.jpg"",""img/0904/60d1a521-edf7-4696-9263-f21ac0e62a01.jpg""]","",""
"","6372","similarity","38","316236","0.0-6.0-32.0","6","[""img/0874/3ce41e7c-40c8-4d58-a546-171114521796.jpg"",""img/0881/19e82c47-8e4b-45d2-a6c8-74181eb4155e.jpg""]","",""
"","7403","similarity","39","324644","0.0-6.0-33.0","3","[""img/0881/4bd34581-94d8-4e88-8c89-5cef864ca3be.jpg"",""img/0899/a05bea16-2bb4-4cb9-b8fb-4ff975db6971.jpg""]","",""
"","5211","similarity","40","330860","0.0-6.0-34.0","1","[""img/0866/4a87911a-d5be-4d4e-ab8e-3d1f581bf507.jpg"",""img/0862/5d887e9f-89e2-4ebc-80a0-6d46fe6480db.jpg""]","",""
"","5234","similarity","41","337100","0.0-6.0-35.0","1","[""img/0868/e0aff734-077f-40dd-9781-74821abd3621.jpg"",""img/0894/11674fa4-285d-44e2-939f-2228c6a64080.jpg""]","",""
"","6646","similarity","42","344756","0.0-6.0-36.0","5","[""img/0860/b03b963d-949b-4d8d-b19c-4950c89eeca2.jpg"",""img/0860/c5ccd1a4-4bb7-48e1-9b25-72cfaf06909b.jpg""]","",""
"","6011","similarity","43","351772","0.0-6.0-37.0","5","[""img/0862/f43ceabf-acc1-4107-b857-5d1849808f93.jpg"",""img/0864/e336a4c5-6648-4fd7-b2f6-93a3fb83f8c6.jpg""]","",""
"","6133","similarity","44","358910","0.0-6.0-38.0","2","[""img/0766/2da002a4-05c9-4f5c-9ed7-433b4183e273.jpg"",""img/0866/be24ab58-230e-4db8-9f45-ff04c9aec6bb.jpg""]","",""
"","8240","similarity","45","368157","0.0-6.0-39.0","3","[""img/0875/5a1e5100-0d94-4fec-bbe9-ca9894d2cf8e.jpg"",""img/0898/08c72dac-f8ad-407a-9ce6-8c9a5d679c3a.jpg""]","",""
"","5776","similarity","46","374941","0.0-6.0-40.0","6","[""img/0766/33aa9ebb-c9f5-418f-8c8b-c77861889568.jpg"",""img/0769/ecda2fb3-556b-43ba-8a67-e87dd75ff2b4.jpg""]","",""
"","6274","similarity","47","403765","0.0-6.0-41.0","2","[""img/0874/ca23d307-fc00-4d7d-9106-584c6eb21b4d.jpg"",""img/0764/7f4ee8e3-9315-4a57-be7d-db8454b33766.jpg""]","",""
"","7995","similarity","48","412765","0.0-6.0-42.0","1","[""img/0868/4a8a45ed-2c4f-421b-9564-409a33ecd26c.jpg"",""img/0902/12452bb1-b8c0-4e4d-ad4d-47e279e5933c.jpg""]","",""
"","9392","similarity","49","423165","0.0-6.0-43.0","1","[""img/0875/f87b67d7-c33e-40d1-b281-248c4be1cb6e.jpg"",""img/0899/00715b3f-851b-420b-a26b-d7f79f7759a9.jpg""]","",""
"","6010","similarity","50","430181","0.0-6.0-44.0","1","[""img/0866/945c6710-d15b-4a5b-a8f6-69af0850357f.jpg"",""img/0860/8fdba999-b946-4c7d-9891-336018b563ef.jpg""]","",""
"","4825","similarity","51","436013","0.0-6.0-45.0","1","[""img/0766/27f54113-8561-4568-9ffe-0a1650ae65ec.jpg"",""img/0903/f67c4ab9-f8c2-4fcd-848a-a54a7b031002.jpg""]","",""
"","5402","similarity","52","442421","0.0-6.0-46.0","1","[""img/0901/deff6cfb-0072-4490-bc3e-206bbcd3e8bf.jpg"",""img/0904/d23dd7be-7fe8-4435-82f7-bd592c01e6a1.jpg""]","",""
"","4920","similarity","53","448350","0.0-6.0-47.0","1","[""img/0758/f61ecdf8-a7d4-4db0-b84d-be46f7cfaffc.jpg"",""img/0902/24d10fe7-314f-4d5a-8c7b-b43121bba0a4.jpg""]","",""
"","7554","similarity","54","456909","0.0-6.0-48.0","7","[""img/0764/bc3865c9-9004-4582-88a7-048478673f97.jpg"",""img/0764/a86eed5b-d0af-4c3f-8c7a-26e98e98cf1a.jpg""]","",""
"","7721","similarity","55","465637","0.0-6.0-49.0","1","[""img/0866/d266fece-59b3-46fa-b69f-96f6efb81b59.jpg"",""img/0902/bd89a85f-3853-4786-acd6-98818ee29f1c.jpg""]","",""
"","5370","similarity","56","472013","0.0-6.0-50.0","1","[""img/0764/ca957454-126a-4bd3-b29c-7174a24c25dc.jpg"",""img/0758/20497cbe-ddae-489e-86e2-ab06985ed07c.jpg""]","",""
"","6984","similarity","57","480005","0.0-6.0-51.0","3","[""img/0898/b2732712-71c2-45d8-834f-2b2ed5504910.jpg"",""img/0894/b2d2f66e-e480-46da-a02a-6d0c6b285d78.jpg""]","",""
"","6283","similarity","58","487293","0.0-6.0-52.0","5","[""img/0875/ebf7653f-ff45-4e9f-af58-2c042ab3cd2b.jpg"",""img/0866/c446214b-a368-4c65-ae39-ea46894256ab.jpg""]","",""
"","6122","similarity","59","494420","0.0-6.0-53.0","6","[""img/0904/56e73f28-7e64-489b-a161-e6b1a063878d.jpg"",""img/0904/ba8e689e-9ca6-4608-a2a1-3b0940666ae6.jpg""]","",""
"","6139","similarity","60","501564","0.0-6.0-54.0","6","[""img/0769/35364db7-e0d5-40ef-93dc-faf9dfb95136.jpg"",""img/0769/5bd04f55-d091-4f57-85db-38426f26bd1a.jpg""]","",""
"","5107","similarity","61","507676","0.0-6.0-55.0","1","[""img/0898/993d8f2d-bef7-4251-a193-0f93a32b7763.jpg"",""img/0758/6cd8c362-ae2a-41eb-80a3-3a4f7ace1530.jpg""]","",""
"","7360","similarity","62","516044","0.0-6.0-56.0","2","[""img/0769/1d8734c4-77ab-4165-9e71-5cfe672ff01c.jpg"",""img/0902/b03fee99-d5ca-4bf8-871c-a4a743a39842.jpg""]","",""
"","6569","similarity","63","523620","0.0-6.0-57.0","6","[""img/0864/3651d070-2fc5-4848-b6a6-088a2d9ac5c9.jpg"",""img/0881/f62bdcd1-a4b7-4d48-83da-d9c9e01c8727.jpg""]","",""
"","6099","similarity","64","530725","0.0-6.0-58.0","1","[""img/0758/eabcd7a8-56ad-4fd2-bc24-90f6b7b33265.jpg"",""img/0868/0d3abd3a-b6c3-4584-a9f7-e2da63748b3d.jpg""]","",""
"","4577","similarity","65","536308","0.0-6.0-59.0","1","[""img/0862/4f0a3b4c-afbf-486e-b248-1d54982f54b4.jpg"",""img/0769/aad494cc-674d-4a08-9bfa-24a88ebe3c79.jpg""]","",""
"","6641","similarity","66","543958","0.0-6.0-60.0","5","[""img/0764/f2f23359-8e82-41d3-8900-5b9f4433991d.jpg"",""img/0903/4cbdc464-e562-4ec2-9bb6-15f894fdf528.jpg""]","",""
"","6201","similarity","67","551164","0.0-6.0-61.0","5","[""img/0899/d8f2dd94-570e-4e8c-a087-d96090fb9e8c.jpg"",""img/0899/b45c550b-96c3-4255-ad59-48a2b4db1c1e.jpg""]","",""
"","5595","similarity","68","557764","0.0-6.0-62.0","1","[""img/0860/17b44a7d-c5ca-479f-9e87-f65a64f5c80e.jpg"",""img/0875/5a7c4e35-6514-4e12-8879-d16071da4cd6.jpg""]","",""
"","3866","similarity","69","562636","0.0-6.0-63.0","1","[""img/0868/4e626425-63c8-484a-8a1d-e66ee4e0bef8.jpg"",""img/0874/99f6563c-8a8d-4c1c-a41d-667b618c3fd5.jpg""]","",""
"","6962","similarity","70","570604","0.0-6.0-64.0","1","[""img/0758/ddc336e9-a8b6-4bb9-937a-c7e25e0e9250.jpg"",""img/0862/57b6f83f-c763-4858-830d-102f97bfefbf.jpg""]","",""
"","8521","similarity","71","580132","0.0-6.0-65.0","5","[""img/0904/96e503ea-6630-4996-85f2-0237688ce441.jpg"",""img/0898/e167334e-cc1d-4986-b3b1-c7bc7da64baa.jpg""]","",""
"","3445","similarity","72","584582","0.0-6.0-66.0","1","[""img/0881/f4e3e181-b3c9-4af2-a5a4-fc135ab70d2e.jpg"",""img/0866/6f2a90d7-14f1-4f1b-bd64-fc0af6b9fe44.jpg""]","",""
"","4701","similarity","73","590292","0.0-6.0-67.0","1","[""img/0867/de92135f-5b65-4ed9-b245-188292c7c2f8.jpg"",""img/0898/ec565187-2e31-4fdd-9a5c-153d0c789ae0.jpg""]","",""
"","6490","similarity","74","597788","0.0-6.0-68.0","3","[""img/0902/97022122-01e4-46c3-a34f-c6260ad28428.jpg"",""img/0764/5d6fa3ce-9083-410c-bbdb-336a49b94cfc.jpg""]","",""
"","5988","similarity","75","604780","0.0-6.0-69.0","6","[""img/0875/03c3c331-738b-4446-af92-3d7386b08c2e.jpg"",""img/0867/98d8cd96-1476-4fe0-a3a3-04f875500a1b.jpg""]","",""
"","4436","similarity","76","610221","0.0-6.0-70.0","6","[""img/0766/f3276cc4-65de-4c2d-88d5-6cfebce14b8f.jpg"",""img/0764/8740679b-b56f-4292-aece-14063457113a.jpg""]","",""
"","5747","similarity","77","616972","0.0-6.0-71.0","1","[""img/0894/7dd6ff43-f8fc-408a-8a41-a2b261871820.jpg"",""img/0867/aa05d113-fc19-4756-a8eb-7878f580bc92.jpg""]","",""
"","7147","similarity","78","625125","0.0-6.0-72.0","1","[""img/0875/34132396-d896-4c2d-8087-646dd867e769.jpg"",""img/0764/56441045-b648-4ede-9632-3e9c0227080b.jpg""]","",""
"","4275","similarity","79","630405","0.0-6.0-73.0","6","[""img/0867/f8159067-056c-41f1-a136-c529fe5e970a.jpg"",""img/0866/620cd1aa-0800-4414-8f6e-90342e7a99ad.jpg""]","",""
"","5980","similarity","80","637389","0.0-6.0-74.0","2","[""img/0903/5995f4a8-fa82-46f8-8760-fd7800a5ca34.jpg"",""img/0758/b76ceca7-95ac-46e4-ac13-da02c8e93be9.jpg""]","",""
"","4018","similarity","81","642413","0.0-6.0-75.0","1","[""img/0766/aaec5f42-7f0a-4a16-aeca-488d757acbcc.jpg"",""img/0868/77091fc7-a590-4ebb-b915-fdb2483a2399.jpg""]","",""
"","5524","similarity","82","648941","0.0-6.0-76.0","3","[""img/0874/29830da7-be5f-44e5-b141-652a0ccf7269.jpg"",""img/0766/c23b5a20-e50f-4d85-841f-cf89212a4348.jpg""]","",""
"","4634","similarity","83","654581","0.0-6.0-77.0","1","[""img/0881/dea58fad-b4f1-41d9-bd3f-916eff19a3fd.jpg"",""img/0868/fd307a36-9a3a-47d7-ab7c-f810d0b35040.jpg""]","",""
"","3891","similarity","84","659477","0.0-6.0-78.0","1","[""img/0758/6e95579b-5166-487c-b8cb-e417c6a218e3.jpg"",""img/0901/d6d15b1c-4a30-4f74-a3fd-d4c8ee4169ca.jpg""]","",""
"","4435","similarity","85","664917","0.0-6.0-79.0","1","[""img/0881/7e822106-76f7-4b10-a805-14dc68b2cfaf.jpg"",""img/0898/68476bbb-34a1-42d9-8bc1-deab783d4489.jpg""]","",""
"","5794","similarity","86","671717","0.0-6.0-80.0","1","[""img/0867/85a96c62-548f-4994-9553-819e03c3135a.jpg"",""img/0758/7ee8bc8f-c40b-4b3a-84ec-3e83580622d4.jpg""]","",""
"","4904","similarity","87","677629","0.0-6.0-81.0","6","[""img/0769/50985283-d353-4abc-9abe-14a91d56ebe6.jpg"",""img/0899/d60714ae-98d7-4564-8c98-94dba1351135.jpg""]","",""
"","8228","similarity","88","686861","0.0-6.0-82.0","4","[""img/0903/43ffd882-077a-40dd-a264-e58d519420a1.jpg"",""img/0903/6138142e-c84e-45fc-9487-c974f3d4968a.jpg""]","",""
"","5274","similarity","89","715020","0.0-6.0-83.0","1","[""img/0867/cc72ed48-7704-422c-86d6-467a1145287a.jpg"",""img/0766/af3be95e-e52e-4fae-899b-0ff02ec340aa.jpg""]","",""
"","5892","similarity","90","721917","0.0-6.0-84.0","1","[""img/0902/5b45a7a0-81c8-4a71-aaa2-2ce09adb5a29.jpg"",""img/0867/2e1a0b58-cdb1-4107-a14e-452530d7b9b0.jpg""]","",""
"","5042","similarity","91","727965","0.0-6.0-85.0","1","[""img/0901/f469cb1d-6d81-4a45-bab5-cd0b650c2b4f.jpg"",""img/0875/42910c99-5463-450a-a0f8-d4d060a11455.jpg""]","",""
"","9170","similarity","92","738141","0.0-6.0-86.0","3","[""img/0764/c0b03adb-bd0a-4b96-a915-a827c2fd5211.jpg"",""img/0866/07c9c966-3c8d-40e7-8128-92b2acbaed5d.jpg""]","",""
"","5305","similarity","93","744453","0.0-6.0-87.0","1","[""img/0901/58ec7fa9-b466-4651-90aa-c082df0972de.jpg"",""img/0894/e6385e52-6c35-43bd-b0af-bc803d107b11.jpg""]","",""
"","6123","similarity","94","751581","0.0-6.0-88.0","2","[""img/0898/01bfe666-3510-4fc7-964f-d00d28732dc8.jpg"",""img/0769/057eb0a0-aa5b-40c7-9852-21444f68d767.jpg""]","",""
"","4579","similarity","95","757165","0.0-6.0-89.0","5","[""img/0769/c7cfacc3-7f07-46ff-9f5d-8073f4c4679b.jpg"",""img/0894/05161000-f476-499b-a878-c13c7f347fd9.jpg""]","",""
"","5507","similarity","96","763677","0.0-6.0-90.0","3","[""img/0862/d0ca4c78-fc35-46ed-bdcc-8e124283c53e.jpg"",""img/0874/8cdb1c07-1c32-46d2-981c-3636560fa6e5.jpg""]","",""
"","7760","similarity","97","772445","0.0-6.0-91.0","5","[""img/0894/3adef67d-7676-4995-80b2-bb31b8aca3ef.jpg"",""img/0766/ae0fce93-fe8d-4aa1-87ca-4c3e4b889f2f.jpg""]","",""
"","3875","similarity","98","777325","0.0-6.0-92.0","1","[""img/0874/a3bc679d-619f-4db6-bb68-116dcb757d9c.jpg"",""img/0867/a498eef3-9fa4-4ab2-9778-4ae82ac40dc5.jpg""]","",""
"","4256","similarity","99","782589","0.0-6.0-93.0","1","[""img/0899/66ab3178-c3fe-4455-ad17-d5952b08e018.jpg"",""img/0868/c8ac40c7-6904-4e13-8d61-c75d3052dc4e.jpg""]","",""
"","4315","similarity","100","787909","0.0-6.0-94.0","1","[""img/0903/776b74ee-a8ab-4ab8-a78d-097c0747538d.jpg"",""img/0862/92f0146c-20c4-482e-aef5-adb693790338.jpg""]","",""
"","4271","similarity","101","793189","0.0-6.0-95.0","5","[""img/0899/93494f3b-d539-4075-b027-d82e344563da.jpg"",""img/0766/908bc45b-7c9e-4f95-806e-86b196ebcb2c.jpg""]","",""
"","5875","similarity","102","800069","0.0-6.0-96.0","7","[""img/0867/075e0f95-856b-4cbb-acf5-092393aaf04e.jpg"",""img/0868/6a28c3b0-3d76-498a-9fb7-ddafc665eca8.jpg""]","",""
"","4731","similarity","103","805805","0.0-6.0-97.0","2","[""img/0862/eefa5588-9efd-4591-aa5f-a2e17c7d7bcc.jpg"",""img/0901/2a953e50-d237-405c-a38d-5ed21494c968.jpg""]","",""
"","3340","similarity","104","810149","0.0-6.0-98.0","1","[""img/0875/90da8d75-108a-44ad-b999-e21fee3860d3.jpg"",""img/0766/214866ee-423d-4629-9bb9-41572bdc7dac.jpg""]","",""
"","4907","similarity","105","816062","0.0-6.0-99.0","5","[""img/0758/65d426d6-3ff6-415d-8654-a43b83ecc4fe.jpg"",""img/0874/767f289c-9814-4496-803f-745cc8913d1f.jpg""]","",""
"","4299","similarity","106","821366","0.0-6.0-100.0","1","[""img/0904/9d30eff1-46ef-4453-b11e-124ef8145c00.jpg"",""img/0868/4bd5105a-d2c3-4f82-8c80-57196106ba53.jpg""]","",""
"","4096","similarity","107","826469","0.0-6.0-101.0","1","[""img/0903/59defeb8-98bd-4570-a2f8-9bd189e68ef4.jpg"",""img/0866/23a224f3-2012-4fc8-8e0f-3c36f8de27fd.jpg""]","",""
"","5793","similarity","108","833269","0.0-6.0-102.0","5","[""img/0868/d98ca254-b195-477f-b57e-5760a2717db8.jpg"",""img/0769/3adfa417-3b90-4aab-b437-5eaa474189cb.jpg""]","",""
"","6090","similarity","109","840365","0.0-6.0-103.0","3","[""img/0902/d2c34af0-8c50-437d-8cc3-619195a3e8ba.jpg"",""img/0899/4f7bc593-8ddd-4da3-a0b9-84da730d3370.jpg""]","",""
"","4368","similarity","110","845741","0.0-6.0-104.0","1","[""img/0868/d6d1f30d-4323-435a-b194-7892521bc57e.jpg"",""img/0862/e0f1a4e9-e1b6-45f7-af67-89f334e6630d.jpg""]","",""
"","4802","similarity","111","851549","0.0-6.0-105.0","5","[""img/0903/b0a3c45f-467e-412f-a183-c9c1827f2e63.jpg"",""img/0894/2217bdcd-23a7-42d3-823b-23f2488d7e87.jpg""]","",""
"","4467","similarity","112","857022","0.0-6.0-106.0","5","[""img/0864/1d15626a-2f7c-410f-819c-0fa2c967e95e.jpg"",""img/0874/85eb9b8a-c4c6-4e5a-b8e7-363a87a82054.jpg""]","",""
"","4983","similarity","113","863013","0.0-6.0-107.0","1","[""img/0862/a0a3a7ba-7798-46a3-b4ca-05e1f6e581d0.jpg"",""img/0902/d49743d6-67ae-4c2e-a939-8fd895a0f18e.jpg""]","",""
"","6226","similarity","114","870245","0.0-6.0-108.0","5","[""img/0904/4d7d70a3-9477-4921-bda0-f9531d0a5c5b.jpg"",""img/0903/f45a103c-9bfe-49fd-ad96-bdd8d2589195.jpg""]","",""
"","4164","similarity","115","875413","0.0-6.0-109.0","5","[""img/0764/c80b3e06-2ee3-4326-9678-340607eb5348.jpg"",""img/0864/0f537697-a314-47c3-a8cc-8df23b7e536c.jpg""]","",""
"","4034","similarity","116","880454","0.0-6.0-110.0","3","[""img/0866/bf14b5bd-fb55-47db-86b9-4f8aeb9a6dad.jpg"",""img/0894/9b1333fd-3561-43bf-aee5-99b7b7ca3dc3.jpg""]","",""
"","5043","similarity","117","886501","0.0-6.0-111.0","3","[""img/0899/fd9efb43-701f-4cd6-baaa-4c38315f4bdc.jpg"",""img/0903/2a9c8033-3e70-47fa-816d-97ee1813a3a3.jpg""]","",""
"","6788","similarity","118","894294","0.0-6.0-112.0","5","[""img/0902/511abb54-0094-4f4d-b6dc-3f2c97050521.jpg"",""img/0904/4e58005d-a2ec-4aaa-b199-445343561396.jpg""]","",""
"","4818","similarity","119","900118","0.0-6.0-113.0","3","[""img/0864/1ebbc554-99fa-49f9-8799-317375a79820.jpg"",""img/0860/702bd09d-df3a-40aa-a267-5f04474305b5.jpg""]","",""
"","4683","similarity","120","905805","0.0-6.0-114.0","1","[""img/0860/fd4662f9-4c03-4d79-8593-06735e55a64b.jpg"",""img/0899/06b0fc99-0581-461a-9913-d1a5a941ac61.jpg""]","",""
"","4762","similarity","121","911574","0.0-6.0-115.0","1","[""img/0881/f7a8cc63-8842-40a4-9ff8-fe530310d62c.jpg"",""img/0903/e2e55a9e-0397-4dc0-8adf-4a54cfefe1fe.jpg""]","",""
"","4545","similarity","122","917125","0.0-6.0-116.0","2","[""img/0894/e5edf723-72a5-4673-8441-6c1734a8929b.jpg"",""img/0874/7e4f2150-3b59-4a36-b5da-a4e0ba410531.jpg""]","",""
"","4794","similarity","123","922925","0.0-6.0-117.0","1","[""img/0881/e046471a-35b4-4159-bbf7-3cfd201bef66.jpg"",""img/0862/92fcd8a4-8193-4a6a-ae09-dd4a6338b0df.jpg""]","",""
"","8362","similarity","124","932293","0.0-6.0-118.0","5","[""img/0868/8b0b8473-e2c0-4331-aa56-c3a5c29369da.jpg"",""img/0875/a4935837-7d3c-4df6-88c1-36a94d4991ca.jpg""]","",""
"","3771","similarity","125","937069","0.0-6.0-119.0","2","[""img/0860/15b24a61-25be-4356-9eac-5ce95d0cb4a4.jpg"",""img/0758/e38fd80d-18d0-42f3-b848-f930788e8bd7.jpg""]","",""
"","3678","similarity","126","941757","0.0-6.0-120.0","1","[""img/0864/6e846d43-94a6-4b37-a268-65eda979f052.jpg"",""img/0875/d59ff733-eaff-4ee2-9443-06954dd0bcb6.jpg""]","",""
"","4479","similarity","127","947245","0.0-6.0-121.0","1","[""img/0898/0c7dde4f-efce-4b7a-9387-6921635b7890.jpg"",""img/0866/a15b02be-11bb-43e3-b0e0-ecc3bd7dfc49.jpg""]","",""
"","7177","similarity","128","955429","0.0-6.0-122.0","1","[""img/0874/93d1f8dc-acf2-4f03-bd8d-8ec35df276ed.jpg"",""img/0904/6291eb43-c10c-4810-a36a-101d09868b04.jpg""]","",""
"","4432","similarity","129","960869","0.0-6.0-123.0","1","[""img/0904/e9423a8c-f946-43ad-ab7b-931acef870e2.jpg"",""img/0864/b3c4e378-28f0-4699-9338-2a257b4bca04.jpg""]","",""
"","4727","similarity","130","966605","0.0-6.0-124.0","6","[""img/0894/10f22b96-040c-44f4-950b-a4963f3f506c.jpg"",""img/0902/962f645e-9b55-4628-9b50-c703422bfe1a.jpg""]","",""
"","3484","similarity","131","996693","0.0-6.0-125.0","1","[""img/0868/15dd6fd7-791e-4b53-b203-195d617521a4.jpg"",""img/0864/5f74a653-3bdc-4308-8cca-ac667dc22e1f.jpg""]","",""
"","5508","similarity","132","1003205","0.0-6.0-126.0","2","[""img/0899/4408c14d-c168-4a7d-96f6-bc87bfb58f83.jpg"",""img/0866/a04d37f0-99dd-478a-b6c6-58b215138f84.jpg""]","",""
"","4356","similarity","133","1008566","0.0-6.0-127.0","2","[""img/0875/fb732ab5-013a-4366-9f65-27811ed157e9.jpg"",""img/0904/09dac84f-3d1c-4445-a68e-d0389fdbf1e9.jpg""]","",""
"","5098","similarity","134","1014670","0.0-6.0-128.0","2","[""img/0867/f8488a47-94ee-4166-952c-44e16cf172f6.jpg"",""img/0899/66bf4113-ee12-426c-84d2-ea410b6c803e.jpg""]","",""
"","4075","similarity","135","1019756","0.0-6.0-129.0","1","[""img/0901/3db47171-0139-4235-82cd-0b1787b6775f.jpg"",""img/0867/179ab87a-8eac-4c52-a41f-2e48e3120f09.jpg""]","",""
"","5694","similarity","136","1026454","0.0-6.0-130.0","5","[""img/0864/f92649a2-0590-4d31-9a7a-1bfb81666a2d.jpg"",""img/0769/f229321f-04dd-42d7-b14a-ffad6b509862.jpg""]","",""
"","3306","similarity","137","1030765","0.0-6.0-131.0","2","[""img/0903/b4a0f61e-a964-4b79-a9a7-f767a8f92f34.jpg"",""img/0868/179a5502-ab5c-478e-8263-5a1fbcc101d2.jpg""]","",""
"","4759","similarity","138","1036534","0.0-6.0-132.0","3","[""img/0864/6f631579-acf1-415c-a42c-1207f62a8d99.jpg"",""img/0867/12264664-1860-46df-8c21-162b9817cdda.jpg""]","",""
"","3940","similarity","139","1041478","0.0-6.0-133.0","5","[""img/0901/a6776381-91fe-43f8-ab73-261d318f95fd.jpg"",""img/0860/94ef7afc-e0e6-4a15-98c6-0bfac82bc832.jpg""]","",""
"","3888","similarity","140","1046374","0.0-6.0-134.0","5","[""img/0881/e6746727-7f89-47ec-b939-d98abe78372d.jpg"",""img/0766/26d3ae14-8275-4e08-99b2-a6598c193ddf.jpg""]","",""
"","7195","similarity","141","1054573","0.0-6.0-135.0","2","[""img/0903/2c7b4aed-6038-4aac-958a-e3e58341c313.jpg"",""img/0864/87c467d3-abca-482f-ad80-3766c21b1bb3.jpg""]","",""
"","4400","similarity","142","1059981","0.0-6.0-136.0","1","[""img/0758/9fb5b2fe-3f00-4fe6-973c-1ce10d5f4cd5.jpg"",""img/0894/133a1636-d123-4893-873c-1718050f832a.jpg""]","",""
"","6396","similarity","143","1067382","0.0-6.0-137.0","2","[""img/0769/96556ef3-7fac-4c9d-8281-1cb0ea5081bc.jpg"",""img/0860/c47fdead-eb02-4989-b078-26f4852f44fe.jpg""]","",""
"","5707","similarity","144","1074094","0.0-6.0-138.0","5","[""img/0904/65e2b70a-b184-4da3-b5c0-5038bdf9469a.jpg"",""img/0766/d14acac4-7db1-4b07-8f8f-302437326fc0.jpg""]","",""
"","4282","similarity","145","1079381","0.0-6.0-139.0","3","[""img/0868/1a62b2b2-18f5-466e-b564-5176a57c565e.jpg"",""img/0860/87039971-2210-4aab-93c0-8e9b5f1655b2.jpg""]","",""
"","3899","similarity","146","1084285","0.0-6.0-140.0","5","[""img/0758/61d64021-9214-4951-bdf8-f871f9827cf9.jpg"",""img/0864/3d4de670-b290-4285-9c3d-12a0e3af44e9.jpg""]","",""
"","4690","similarity","147","1089982","0.0-6.0-141.0","7","[""img/0867/f26f6b60-f772-4f4c-95a4-addc62cfd692.jpg"",""img/0867/a749dddb-69f0-44a6-acdc-2bf295cf6dcc.jpg""]","",""
"","6090","similarity","148","1097077","0.0-6.0-142.0","5","[""img/0898/b3290bf9-215b-4b45-b21a-65bdf73f142f.jpg"",""img/0898/c3cecf20-f7fd-45fa-97d0-dc0a63e8d6c0.jpg""]","",""
"","3986","similarity","149","1102069","0.0-6.0-143.0","2","[""img/0866/9b38d691-1802-4959-ab3f-fc902f0e4ea6.jpg"",""img/0769/f2740c58-7c02-433f-920b-746b0b75435b.jpg""]","",""
"","5658","similarity","150","1108734","0.0-6.0-144.0","3","[""img/0860/d9a0d117-6d1d-41c0-8fec-9aff0fd9e9f2.jpg"",""img/0898/6cd3830b-d44e-4915-be2b-88d31424b91c.jpg""]","",""
"","4043","similarity","151","1113781","0.0-6.0-145.0","5","[""img/0766/a0270213-fa0e-4972-8b56-228c3e01ff90.jpg"",""img/0864/8ddd2e30-a1d0-479f-9cbe-591213023893.jpg""]","",""
"","4044","similarity","152","1118830","0.0-6.0-146.0","2","[""img/0860/8a92e21b-6a32-4e4a-a445-2d5a487ed0a4.jpg"",""img/0903/d987e220-f3e6-4b6d-a270-fe6757041f6d.jpg""]","",""
"","3098","similarity","153","1122933","0.0-6.0-147.0","1","[""img/0867/7d1c497b-c1b3-4ed8-abb5-d7f73306015f.jpg"",""img/0764/da207710-e7e4-4f42-b2e6-99b5f357f433.jpg""]","",""
"","5713","similarity","154","1129653","0.0-6.0-148.0","3","[""img/0769/e8ed913b-8a88-44f6-9327-d34afec3116b.jpg"",""img/0904/73920552-103b-4c9c-9ece-e0b8376b4504.jpg""]","",""
"","5306","similarity","155","1135965","0.0-6.0-149.0","3","[""img/0764/f713847b-4832-42d1-8fb3-e17e37fd745c.jpg"",""img/0901/b123d109-47b4-4f9a-80c9-9bb16da42efa.jpg""]","",""
"","5434","similarity","156","1142405","0.0-6.0-150.0","3","[""img/0904/2c98dc56-88d1-4fb5-a999-b6a7861f65f0.jpg"",""img/0899/0adc0bc3-6fca-4078-be6f-d45ddf1653d5.jpg""]","",""
"","3095","similarity","157","1146509","0.0-6.0-151.0","1","[""img/0862/47ed5efd-4ec9-4b74-bb4e-a5f5cf0c3e7d.jpg"",""img/0867/bf560d4f-dee3-4f11-a385-705cc1aa5f3c.jpg""]","",""
"","5945","similarity","158","1153461","0.0-6.0-152.0","7","[""img/0766/60033a74-9919-47e5-913c-71d0d483e7e5.jpg"",""img/0766/535849cc-ff5d-4df9-8f31-0ce94a97d571.jpg""]","",""
"","5747","similarity","159","1160213","0.0-6.0-153.0","2","[""img/0862/f188d4f0-76a4-4102-818c-a209969d73a5.jpg"",""img/0894/5ff3c4f6-52e2-4075-8679-be0312e59703.jpg""]","",""
"","4855","similarity","160","1166077","0.0-6.0-154.0","2","[""img/0899/f58b8d2f-b19d-4b59-8b94-8834be92e4ba.jpg"",""img/0901/168eb52c-c415-43f1-b5c8-e76e1a1ec247.jpg""]","",""
"","6729","similarity","161","1173813","0.0-6.0-155.0","3","[""img/0874/a82926a3-0b43-4add-803c-d5f9ea7798ee.jpg"",""img/0874/3f471690-9788-4d03-90c7-f615aecef149.jpg""]","",""
"","3380","similarity","162","1178198","0.0-6.0-156.0","1","[""img/0860/4c530c3c-6aab-492a-94d1-9c01797bde40.jpg"",""img/0867/ac1797e4-8afc-48fe-b252-86d1defb1cca.jpg""]","",""
"","4409","similarity","163","1183613","0.0-6.0-157.0","1","[""img/0901/0adb3bd6-d758-4ba7-9723-3ad6cac05bd5.jpg"",""img/0881/44e09805-5a25-4f17-a716-4ad4a331b174.jpg""]","",""
"","4156","similarity","164","1188773","0.0-6.0-158.0","5","[""img/0903/f1fa0f8d-e62b-4b4a-a174-31a0fabfe61b.jpg"",""img/0902/22ed3536-288b-452e-9777-0fa0ab94deb0.jpg""]","",""
"","5371","similarity","165","1195149","0.0-6.0-159.0","1","[""img/0860/31ff6436-98bf-4652-bed2-40f627229568.jpg"",""img/0764/21e3292f-01ad-4238-828b-61b817857d16.jpg""]","",""
"","5573","similarity","166","1201725","0.0-6.0-160.0","2","[""img/0902/c920f0e1-1c81-480f-a164-c77f2dc6ce9a.jpg"",""img/0875/5a716432-c6ca-4b1c-955a-2b8ac25198ee.jpg""]","",""
"","4737","similarity","167","1207470","0.0-6.0-161.0","5","[""img/0898/8605a25b-6895-476d-8c13-df7a83f96093.jpg"",""img/0862/ee3b7bff-4a70-4e84-9bea-4a565e456acb.jpg""]","",""
"","5772","similarity","168","1214245","0.0-6.0-162.0","3","[""img/0894/2d2db7b3-e8a3-499b-b63a-14f51bf73882.jpg"",""img/0875/dbdd643e-6d0e-4a5c-ab57-b9c29b9c981a.jpg""]","",""
"","4168","similarity","169","1219421","0.0-6.0-163.0","2","[""img/0866/d493a2c8-66eb-44b4-be02-2f327b700b7c.jpg"",""img/0864/4bd81bc6-c13d-46df-95a9-485886dc7c1b.jpg""]","",""
"","5992","similarity","170","1226421","0.0-6.0-164.0","3","[""img/0766/f011ef45-fb48-44b8-8224-867ed2ccf786.jpg"",""img/0862/00c06b00-3b73-44e9-bc1e-c5aafb438321.jpg""]","",""
"","4955","similarity","171","1232382","0.0-6.0-165.0","1","[""img/0866/93a27239-8317-4e08-98ca-d8b1ff298e07.jpg"",""img/0874/995f0332-0439-4eb4-add3-957335dbf6d9.jpg""]","",""
"","4139","similarity","172","1237525","0.0-6.0-166.0","6","[""img/0862/53a9cf7c-93c4-41b9-952f-07d17f7a17b2.jpg"",""img/0860/61fb959d-d4d9-4de4-9e4e-4fa62b4cfcd5.jpg""]","",""
"","4460","similarity","173","1247420","0.0-6.0-167.0","3","[""img/0766/3c526a07-9e0a-4ae2-8142-00085f0127da.jpg"",""img/0901/12da1841-e611-435c-9719-109413d536a8.jpg""]","",""
"","4610","similarity","174","1253037","0.0-6.0-168.0","7","[""img/0862/fad1d7c1-8187-43c3-942a-0fc12183e48e.jpg"",""img/0862/f23038d4-c366-4f70-979f-66b62362efa4.jpg""]","",""
"","5458","similarity","175","1259502","0.0-6.0-169.0","2","[""img/0894/76c1201f-8524-4865-85e6-dda8cb4ac986.jpg"",""img/0764/b887d7c6-aa81-4637-af8e-05135757ac59.jpg""]","",""
"","4099","similarity","176","1264605","0.0-6.0-170.0","1","[""img/0874/31e22c7c-99aa-40b1-bf03-dd73fa2df4d6.jpg"",""img/0898/82231d4c-218b-4d0a-b50d-35a49b524e97.jpg""]","",""
"","3656","similarity","177","1269269","0.0-6.0-171.0","1","[""img/0860/9593362c-9fe5-4d12-9735-6000a11f6aa5.jpg"",""img/0766/fd74fdbb-ea40-4f3a-a091-38d08dfd636e.jpg""]","",""
"","4994","similarity","178","1275269","0.0-6.0-172.0","1","[""img/0898/04e39a7a-fcf6-4156-ab0e-f5871f335e1c.jpg"",""img/0864/da39ad34-04e0-40d4-a724-c08d53e0ea09.jpg""]","",""
"","5403","similarity","179","1281677","0.0-6.0-173.0","2","[""img/0881/48ed65a5-471f-41af-86ec-3793805c116d.jpg"",""img/0764/ec2dd087-c471-4370-b570-95a542506a96.jpg""]","",""
"","4148","similarity","180","1286829","0.0-6.0-174.0","3","[""img/0898/881e2a85-d5c2-49be-a0c6-8a6ce2c4af08.jpg"",""img/0868/09a9ef4d-d000-4cfa-a6aa-ebec7c2edeb4.jpg""]","",""
"","3861","similarity","181","1291693","0.0-6.0-175.0","5","[""img/0864/e02eddb5-f468-499c-91bf-f7be3ffe979b.jpg"",""img/0864/a248adb3-c70b-4652-b7a3-776d2a1e904b.jpg""]","",""
"","5345","similarity","182","1298045","0.0-6.0-176.0","3","[""img/0899/25ae6ec8-9565-49fe-a8bb-8d0666f52716.jpg"",""img/0862/7918ca67-5bd3-4606-a5ea-c39fb11a9297.jpg""]","",""
"","4610","similarity","183","1303661","0.0-6.0-177.0","5","[""img/0875/8521fd58-3b1e-4dc5-97ae-804edfa6734a.jpg"",""img/0758/d540bee6-b460-4c32-ac57-bc282742d7d4.jpg""]","",""
"","3692","similarity","184","1308357","0.0-6.0-178.0","1","[""img/0866/f756f7d1-9ad8-4a34-9ef6-7a443d705bfe.jpg"",""img/0901/1e23ffbd-19de-4c4f-aa23-c54aaa3319a3.jpg""]","",""
"","4385","similarity","185","1313749","0.0-6.0-179.0","1","[""img/0769/bb8c4e53-6f32-4814-97ee-392d4decfb2e.jpg"",""img/0874/ca76a855-4e77-4f2f-872a-0a718153e7ed.jpg""]","",""
"","3746","similarity","186","1318501","0.0-6.0-180.0","1","[""img/0875/99698b4d-b4a1-44bc-8c83-8ea755bbbf61.jpg"",""img/0881/ee44e27f-d662-4608-b265-e7ffa19b216f.jpg""]","",""
"","4186","similarity","187","1323694","0.0-6.0-181.0","6","[""img/0866/11a1d141-be5e-443c-98c1-a9d4d9e3dec0.jpg"",""img/0868/83b4350a-3b70-4cea-b7f5-b5b56f3050a8.jpg""]","",""
"","5141","similarity","188","1329838","0.0-6.0-182.0","5","[""img/0899/a048912c-b12c-40e3-90af-46b69b0cc4fe.jpg"",""img/0758/d57c2592-a317-4f63-91be-91a3a9afd222.jpg""]","",""
"","4835","similarity","189","1335678","0.0-6.0-183.0","3","[""img/0874/2c9464dd-8a23-4baa-ac94-1ba3af5c15cc.jpg"",""img/0875/2e13d160-eea1-416b-aff1-d37ab99ecc1d.jpg""]","",""
"","3891","similarity","190","1340574","0.0-6.0-184.0","2","[""img/0904/696ebb60-8891-417a-91fd-c53218907a95.jpg"",""img/0862/fb26cb07-d5a9-4653-813c-f41609f26cd5.jpg""]","",""
"","5721","similarity","191","1347301","0.0-6.0-185.0","4","[""img/0902/40d0b6ec-3907-4573-b227-e7d8e9cad1c3.jpg"",""img/0766/79767d11-b612-4e8a-9e4b-a8ac95bb6a54.jpg""]","",""
"","6803","similarity","192","1355110","0.0-6.0-186.0","5","[""img/0758/a709631e-3705-4725-ac40-f0d916924f08.jpg"",""img/0769/688d0c52-ad73-4065-a5eb-f8c10d076bff.jpg""]","",""
"","6284","similarity","193","1362397","0.0-6.0-187.0","6","[""img/0881/667e2147-d457-4f32-aa5f-6ab86e5848f1.jpg"",""img/0881/b1a136f7-8511-4d3a-a0f6-3879acf1e1a1.jpg""]","",""
"","4892","similarity","194","1368293","0.0-6.0-188.0","1","[""img/0758/7fba58df-2a7a-4b76-8a8f-62739f97f271.jpg"",""img/0866/0207e9a2-7dbb-40b5-9459-b472aaeceb2a.jpg""]","",""
"","5779","similarity","195","1375077","0.0-6.0-189.0","3","[""img/0764/1f95ab5f-fb65-4d70-b5db-d6bd6351a8aa.jpg"",""img/0898/a114b375-cb89-44ba-9498-74213f1ecdee.jpg""]","",""
"","7456","similarity","196","1383541","0.0-6.0-190.0","2","[""img/0903/5ea5bbe0-f238-4724-abe7-9ed8dee8c0ba.jpg"",""img/0901/b9141736-3041-4385-a586-b1fe911c76a5.jpg""]","",""
"","5866","similarity","197","1390413","0.0-6.0-191.0","5","[""img/0902/c9c74d2d-9b82-42d7-a9d0-3b8ff67ff81e.jpg"",""img/0898/224c1572-56b9-4f16-a9e4-6f3bc9c114bd.jpg""]","",""
"","4955","similarity","198","1396374","0.0-6.0-192.0","1","[""img/0864/e8bd659f-aa43-4748-877e-3118e8b4e189.jpg"",""img/0901/a9b9c0a0-8aed-4888-a78a-65fb7e764d13.jpg""]","",""
"","5354","similarity","199","1402733","0.0-6.0-193.0","1","[""img/0894/661b9f9f-4bde-487a-b1ed-87085fde6948.jpg"",""img/0881/292e9b4b-fca0-4ba8-87f1-4048f9e37b7d.jpg""]","",""
"","4451","similarity","200","1408190","0.0-6.0-194.0","6","[""img/0868/3a62db2d-97e9-44a3-b8e3-a48c6f0e423b.jpg"",""img/0868/293079b8-7e0c-4afd-a390-1e5d35fe3ded.jpg""]","",""
"","4164","similarity","201","1413359","0.0-6.0-195.0","5","[""img/0899/ddf96ade-692e-4602-bd22-dedbb46401bc.jpg"",""img/0764/f990b2e8-ecee-481e-be7c-0239fce350e2.jpg""]","",""
"","4970","similarity","202","1419333","0.0-6.0-196.0","3","[""img/0881/20af39f5-373d-4a55-a437-2dc4c0382c46.jpg"",""img/0904/fe746a3f-8458-48d0-8a13-8cba2a9df9f8.jpg""]","",""
"","5100","similarity","203","1425438","0.0-6.0-197.0","2","[""img/0864/ef9cbca0-4be8-435d-ad49-977259e80409.jpg"",""img/0902/2db723b6-130f-454c-8c8d-88829edbcd65.jpg""]","",""
"","5649","similarity","204","1432092","0.0-6.0-198.0","6","[""img/0894/1a010553-d598-4b06-a772-81f1e7b3addb.jpg"",""img/0904/a8c3c7d2-9bcf-4347-9e03-8203adfc1fc5.jpg""]","",""
"","3708","similarity","205","1436804","0.0-6.0-199.0","7","[""img/0901/da4fe30f-d12a-491e-96a2-5ab8ebaadd09.jpg"",""img/0901/693e0535-ef7e-4d60-af9d-fac2f38e8307.jpg""]","",""
"","5080","similarity","206","1442893","0.0-6.0-200.0","2","[""img/0894/c505c65a-cde2-4f2c-8cde-f8676f7c894d.jpg"",""img/0860/5bff793e-cbd5-4d7e-b628-0ac2b0e30b64.jpg""]","",""
"","3939","similarity","207","1447837","0.0-6.0-201.0","6","[""img/0898/40f99fb2-64d2-4e72-8a7f-a1cf60741e69.jpg"",""img/0903/c3cb4a01-2797-43ca-b216-88c67b323fbb.jpg""]","",""
"","4992","similarity","208","1453836","0.0-6.0-202.0","4","[""img/0864/ea327690-500b-4137-bf91-451b309fe6a5.jpg"",""img/0894/a3d4170b-b7d8-40e3-955f-87e76ed745fc.jpg""]","",""
"","4012","similarity","209","1458852","0.0-6.0-203.0","3","[""img/0874/bf14b896-e930-4fd9-9c05-2e83317a2773.jpg"",""img/0860/29a21a9f-54bb-4093-ad3f-04823ceaa89f.jpg""]","",""
"","3720","similarity","210","1463581","0.0-6.0-204.0","2","[""img/0862/847e5208-38ec-4f36-949c-296cdd7424ee.jpg"",""img/0875/3ecb367d-e9eb-4826-8aaa-7aa72fb98019.jpg""]","",""
"","3232","similarity","211","1467820","0.0-6.0-205.0","1","[""img/0867/c71dc569-f49c-4397-8381-68b8d726736d.jpg"",""img/0881/54ea8e77-c7e5-4197-b7fa-00b7020849a7.jpg""]","",""
"","3807","similarity","212","1472636","0.0-6.0-206.0","6","[""img/0901/875dedb9-24c9-4443-9f8c-85e97d70ee5a.jpg"",""img/0902/0db94c50-f1fb-4091-953c-29ca0466bee2.jpg""]","",""
"","5896","similarity","213","1479540","0.0-6.0-207.0","5","[""img/0899/ad8268c5-8199-48d0-ad70-c5b6d6c599ec.jpg"",""img/0864/9b2490c5-a282-400a-9736-e1a0ecbf1cb7.jpg""]","",""
"","4476","similarity","214","1485021","0.0-6.0-208.0","2","[""img/0901/f1116359-1ff1-4638-b3b3-700918d36d18.jpg"",""img/0769/3c1203c5-2ce7-466e-957a-8d77b5905460.jpg""]","",""
"","4531","similarity","215","1496468","0.0-6.0-209.0","6","[""img/0902/1a120fb9-dbd6-443e-ba91-b4aceab963da.jpg"",""img/0902/6c2c243a-f663-45db-baf5-038d3d58c589.jpg""]","",""
"[{""page_index"":0,""viewing_time"":6799}]","6800","instructions","216","1504269","0.0-7.0","","","",""
"","20967","image-multi-choice","217","1526280","0.0-8.0-0.0","","","{""Q0"":""Nashville Warbler""}","Nashville Warbler"
"","7773","image-multi-choice","218","1535070","0.0-8.0-1.0","","","{""Q0"":""Black-and-white Warbler""}","Black-and-white Warbler"
"","20529","image-multi-choice","219","1556614","0.0-8.0-2.0","","","{""Q0"":""Blackburnian Warbler""}","Townsend's Warbler"
"","8001","image-multi-choice","220","1565630","0.0-8.0-3.0","","","{""Q0"":""Lark Sparrow""}","Lark Sparrow"
"","4719","image-multi-choice","221","1571366","0.0-8.0-4.0","","","{""Q0"":""Yellow Warbler""}","Yellow Warbler"
"","11991","image-multi-choice","222","1584376","0.0-8.0-5.0","","","{""Q0"":""Orange-crowned Warbler""}","Orange-crowned Warbler"
"","8871","image-multi-choice","223","1594262","0.0-8.0-6.0","","","{""Q0"":""White-throated Sparrow""}","White-throated Sparrow"
"","5913","image-multi-choice","224","1601191","0.0-8.0-7.0","","","{""Q0"":""Fox Sparrow""}","Fox Sparrow"
"","8560","image-multi-choice","225","1610766","0.0-8.0-8.0","","","{""Q0"":""Vesper Sparrow""}","Song Sparrow"
"","26534","image-multi-choice","226","1638319","0.0-8.0-9.0","","","{""Q0"":""Townsend's Warbler""}","Blackburnian Warbler"
"","12110","image-multi-choice","227","1651446","0.0-8.0-10.0","","","{""Q0"":""Lincoln's Sparrow""}","Vesper Sparrow"
"","4926","image-multi-choice","228","1657390","0.0-8.0-11.0","","","{""Q0"":""White-crowned Sparrow""}","White-crowned Sparrow"
"","8720","image-multi-choice","229","1667126","0.0-8.0-12.0","","","{""Q0"":""American Tree Sparrow""}","American Tree Sparrow"
"","44567","image-multi-choice","230","1712710","0.0-8.0-13.0","","","{""Q0"":""Nashville Warbler""}","Tennessee Warbler"
"","7865","image-multi-choice","231","1721590","0.0-8.0-14.0","","","{""Q0"":""Magnolia Warbler""}","Magnolia Warbler"
"","9817","image-multi-choice","232","1732422","0.0-8.0-15.0","","","{""Q0"":""Northern Waterthrush""}","Northern Waterthrush"
"","18135","image-multi-choice","233","1751574","0.0-8.0-16.0","","","{""Q0"":""Chipping Sparrow""}","Chipping Sparrow"
"","31598","image-multi-choice","234","1784190","0.0-8.0-17.0","","","{""Q0"":""Swamp Sparrow""}","Swamp Sparrow"
"","13512","image-multi-choice","235","1798718","0.0-8.0-18.0","","","{""Q0"":""Song Sparrow""}","Lincoln's Sparrow"
"","5233","image-multi-choice","236","1804966","0.0-8.0-19.0","","","{""Q0"":""Ovenbird""}","Ovenbird"
