[{"view_history":"[{\"page_index\":0,\"viewing_time\":27927}]","rt":27928,"trial_type":"instructions","trial_index":0,"time_elapsed":27930,"internal_node_id":"0.0-0.0"},{"sim_score":3,"rt":6646,"stimulus":"[\"img/866.jpg\",\"img/868.jpg\"]","trial_type":"similarity_demo","trial_index":1,"time_elapsed":35585,"internal_node_id":"0.0-1.0"},{"view_history":"[{\"page_index\":0,\"viewing_time\":15659}]","rt":15659,"trial_type":"instructions","trial_index":2,"time_elapsed":52246,"internal_node_id":"0.0-2.0"},{"sim_score":3,"rt":7671,"stimulus":"[\"img/766.jpg\",\"img/867.jpg\"]","trial_type":"similarity_demo","trial_index":3,"time_elapsed":60924,"internal_node_id":"0.0-3.0"},{"view_history":"[{\"page_index\":0,\"viewing_time\":8648}]","rt":8649,"trial_type":"instructions","trial_index":4,"time_elapsed":70575,"internal_node_id":"0.0-4.0"},{"view_history":"[{\"page_index\":0,\"viewing_time\":28919}]","rt":28919,"trial_type":"instructions","trial_index":5,"time_elapsed":100495,"internal_node_id":"0.0-5.0"},{"sim_score":3,"rt":5046,"stimulus":"[\"img/0868/5fa7f9d0-f0e5-454c-8224-74d964818f56.jpg\",\"img/0901/4ca4f962-40c0-4c59-b14a-3cd7b8c9029b.jpg\"]","trial_type":"similarity","trial_index":6,"time_elapsed":106548,"internal_node_id":"0.0-6.0-0.0"},{"sim_score":3,"rt":3342,"stimulus":"[\"img/0769/662ab839-88d1-4ebf-af05-9b2980cad943.jpg\",\"img/0867/a749dddb-69f0-44a6-acdc-2bf295cf6dcc.jpg\"]","trial_type":"similarity","trial_index":7,"time_elapsed":110896,"internal_node_id":"0.0-6.0-1.0"},{"sim_score":3,"rt":7390,"stimulus":"[\"img/0766/91fc8c4d-862f-4d2b-b1a1-2db8d729b6b7.jpg\",\"img/0898/6cd3830b-d44e-4915-be2b-88d31424b91c.jpg\"]","trial_type":"similarity","trial_index":8,"time_elapsed":119291,"internal_node_id":"0.0-6.0-2.0"},{"sim_score":2,"rt":4518,"stimulus":"[\"img/0902/94ee9c53-a9a2-4f95-b9b7-794a5fc62bb6.jpg\",\"img/0881/667e2147-d457-4f32-aa5f-6ab86e5848f1.jpg\"]","trial_type":"similarity","trial_index":9,"time_elapsed":124815,"internal_node_id":"0.0-6.0-3.0"},{"sim_score":6,"rt":4649,"stimulus":"[\"img/0894/4739e06d-c31e-4bf1-bf91-c97fa9afb456.jpg\",\"img/0894/e2446cf5-cd48-486a-badc-76498e087fbe.jpg\"]","trial_type":"similarity","trial_index":10,"time_elapsed":130469,"internal_node_id":"0.0-6.0-4.0"},{"sim_score":4,"rt":4597,"stimulus":"[\"img/0874/bf14b896-e930-4fd9-9c05-2e83317a2773.jpg\",\"img/0899/51a7a498-98c7-42d7-bca8-bc2d8f0b5831.jpg\"]","trial_type":"similarity","trial_index":11,"time_elapsed":136070,"internal_node_id":"0.0-6.0-5.0"},{"sim_score":6,"rt":4227,"stimulus":"[\"img/0904/e9423a8c-f946-43ad-ab7b-931acef870e2.jpg\",\"img/0764/39a9fc7e-b863-432c-9374-de43983f31a5.jpg\"]","trial_type":"similarity","trial_index":12,"time_elapsed":141302,"internal_node_id":"0.0-6.0-6.0"},{"sim_score":7,"rt":4013,"stimulus":"[\"img/0899/f58b8d2f-b19d-4b59-8b94-8834be92e4ba.jpg\",\"img/0898/26c41340-15bd-4ead-8fe4-c0d0ddca09c2.jpg\"]","trial_type":"similarity","trial_index":13,"time_elapsed":146320,"internal_node_id":"0.0-6.0-7.0"},{"sim_score":2,"rt":4348,"stimulus":"[\"img/0874/767f289c-9814-4496-803f-745cc8913d1f.jpg\",\"img/0903/150cf64c-0bd2-4674-abbb-a1387cf1f3e9.jpg\"]","trial_type":"similarity","trial_index":14,"time_elapsed":151672,"internal_node_id":"0.0-6.0-8.0"},{"sim_score":6,"rt":4336,"stimulus":"[\"img/0881/1407b85b-a1c6-45b1-9884-3b24203efadb.jpg\",\"img/0758/caa93da2-9edf-49fa-96b9-32dedd8f5078.jpg\"]","trial_type":"similarity","trial_index":15,"time_elapsed":157013,"internal_node_id":"0.0-6.0-9.0"},{"sim_score":5,"rt":3742,"stimulus":"[\"img/0898/68476bbb-34a1-42d9-8bc1-deab783d4489.jpg\",\"img/0901/c6df1a21-44ed-47c2-960e-7c52220e329e.jpg\"]","trial_type":"similarity","trial_index":16,"time_elapsed":161761,"internal_node_id":"0.0-6.0-10.0"},{"sim_score":6,"rt":4268,"stimulus":"[\"img/0903/b4a0f61e-a964-4b79-a9a7-f767a8f92f34.jpg\",\"img/0769/38a88f69-28fd-4bbd-99f0-f4c02bfd3995.jpg\"]","trial_type":"similarity","trial_index":17,"time_elapsed":167033,"internal_node_id":"0.0-6.0-11.0"},{"sim_score":1,"rt":4942,"stimulus":"[\"img/0764/ec2dd087-c471-4370-b570-95a542506a96.jpg\",\"img/0868/179a5502-ab5c-478e-8263-5a1fbcc101d2.jpg\"]","trial_type":"similarity","trial_index":18,"time_elapsed":172979,"internal_node_id":"0.0-6.0-12.0"},{"sim_score":3,"rt":4308,"stimulus":"[\"img/0867/179ab87a-8eac-4c52-a41f-2e48e3120f09.jpg\",\"img/0903/31b5a5f4-b695-4af1-bad2-a19650a05498.jpg\"]","trial_type":"similarity","trial_index":19,"time_elapsed":178293,"internal_node_id":"0.0-6.0-13.0"},{"sim_score":1,"rt":3717,"stimulus":"[\"img/0766/908bc45b-7c9e-4f95-806e-86b196ebcb2c.jpg\",\"img/0758/53f35650-e455-4b53-8be4-c3c8271c6466.jpg\"]","trial_type":"similarity","trial_index":20,"time_elapsed":183015,"internal_node_id":"0.0-6.0-14.0"},{"sim_score":5,"rt":7243,"stimulus":"[\"img/0902/418b716e-63e5-4c77-93e9-95b1f5a3ddf0.jpg\",\"img/0860/c47fdead-eb02-4989-b078-26f4852f44fe.jpg\"]","trial_type":"similarity","trial_index":21,"time_elapsed":191263,"internal_node_id":"0.0-6.0-15.0"},{"sim_score":1,"rt":3829,"stimulus":"[\"img/0769/f2740c58-7c02-433f-920b-746b0b75435b.jpg\",\"img/0875/99698b4d-b4a1-44bc-8c83-8ea755bbbf61.jpg\"]","trial_type":"similarity","trial_index":22,"time_elapsed":196097,"internal_node_id":"0.0-6.0-16.0"},{"sim_score":1,"rt":4294,"stimulus":"[\"img/0904/0d17b811-063e-416e-a23c-3b3cfa4fcce5.jpg\",\"img/0866/bf14b5bd-fb55-47db-86b9-4f8aeb9a6dad.jpg\"]","trial_type":"similarity","trial_index":23,"time_elapsed":201395,"internal_node_id":"0.0-6.0-17.0"},{"sim_score":7,"rt":8007,"stimulus":"[\"img/0875/5a1e5100-0d94-4fec-bbe9-ca9894d2cf8e.jpg\",\"img/0875/f87b67d7-c33e-40d1-b281-248c4be1cb6e.jpg\"]","trial_type":"similarity","trial_index":24,"time_elapsed":210407,"internal_node_id":"0.0-6.0-18.0"},{"sim_score":7,"rt":5336,"stimulus":"[\"img/0758/821c68d3-5cb0-4eae-8659-30e6263fca39.jpg\",\"img/0758/d57c2592-a317-4f63-91be-91a3a9afd222.jpg\"]","trial_type":"similarity","trial_index":25,"time_elapsed":216746,"internal_node_id":"0.0-6.0-19.0"},{"sim_score":3,"rt":4217,"stimulus":"[\"img/0902/9f543501-3cf1-45a7-a2f1-eeca87cc15b9.jpg\",\"img/0874/29830da7-be5f-44e5-b141-652a0ccf7269.jpg\"]","trial_type":"similarity","trial_index":26,"time_elapsed":221968,"internal_node_id":"0.0-6.0-20.0"},{"sim_score":6,"rt":6745,"stimulus":"[\"img/0764/ef0e64c6-d0dd-4dc6-87b6-ce5c0665f421.jpg\",\"img/0769/82ab9db6-4578-4e79-874f-f09100439f09.jpg\"]","trial_type":"similarity","trial_index":27,"time_elapsed":229717,"internal_node_id":"0.0-6.0-21.0"},{"sim_score":1,"rt":3401,"stimulus":"[\"img/0901/5b97abf9-f0c8-4fd1-b921-36d574779078.jpg\",\"img/0874/2c9464dd-8a23-4baa-ac94-1ba3af5c15cc.jpg\"]","trial_type":"similarity","trial_index":28,"time_elapsed":234123,"internal_node_id":"0.0-6.0-22.0"},{"sim_score":1,"rt":4822,"stimulus":"[\"img/0875/dbdd643e-6d0e-4a5c-ab57-b9c29b9c981a.jpg\",\"img/0903/07b445ee-0cdb-4d2c-a23b-d727613f4059.jpg\"]","trial_type":"similarity","trial_index":29,"time_elapsed":239950,"internal_node_id":"0.0-6.0-23.0"},{"sim_score":2,"rt":7927,"stimulus":"[\"img/0769/f6396414-6788-4d59-9683-de153298d89c.jpg\",\"img/0881/48ed65a5-471f-41af-86ec-3793805c116d.jpg\"]","trial_type":"similarity","trial_index":30,"time_elapsed":248881,"internal_node_id":"0.0-6.0-24.0"},{"sim_score":1,"rt":3851,"stimulus":"[\"img/0867/2e1a0b58-cdb1-4107-a14e-452530d7b9b0.jpg\",\"img/0904/0d25eb24-bb20-4e8d-9787-8b489558b4cb.jpg\"]","trial_type":"similarity","trial_index":31,"time_elapsed":253737,"internal_node_id":"0.0-6.0-25.0"},{"sim_score":2,"rt":5548,"stimulus":"[\"img/0860/5383b320-1518-4095-a58e-5cc1ae30b64c.jpg\",\"img/0881/292e9b4b-fca0-4ba8-87f1-4048f9e37b7d.jpg\"]","trial_type":"similarity","trial_index":32,"time_elapsed":260288,"internal_node_id":"0.0-6.0-26.0"},{"sim_score":3,"rt":3164,"stimulus":"[\"img/0866/386235d2-6857-41e7-88a8-25cfc3430025.jpg\",\"img/0866/f756f7d1-9ad8-4a34-9ef6-7a443d705bfe.jpg\"]","trial_type":"similarity","trial_index":33,"time_elapsed":264457,"internal_node_id":"0.0-6.0-27.0"},{"sim_score":3,"rt":4246,"stimulus":"[\"img/0764/83c93cce-18d1-4aa7-9e23-2c268afe0a46.jpg\",\"img/0862/f23038d4-c366-4f70-979f-66b62362efa4.jpg\"]","trial_type":"similarity","trial_index":34,"time_elapsed":269708,"internal_node_id":"0.0-6.0-28.0"},{"sim_score":1,"rt":4472,"stimulus":"[\"img/0904/60d1a521-edf7-4696-9263-f21ac0e62a01.jpg\",\"img/0758/7ffbc76b-1fc1-432c-8f7e-9ec8d1b3f643.jpg\"]","trial_type":"similarity","trial_index":35,"time_elapsed":275185,"internal_node_id":"0.0-6.0-29.0"},{"sim_score":7,"rt":4433,"stimulus":"[\"img/0894/e5edf723-72a5-4673-8441-6c1734a8929b.jpg\",\"img/0899/56a605c3-d0a2-4215-89e1-779279d85a7c.jpg\"]","trial_type":"similarity","trial_index":36,"time_elapsed":280622,"internal_node_id":"0.0-6.0-30.0"},{"sim_score":3,"rt":3900,"stimulus":"[\"img/0860/17b44a7d-c5ca-479f-9e87-f65a64f5c80e.jpg\",\"img/0904/9dd5708f-3f8b-46a9-b49f-2f2fab87b357.jpg\"]","trial_type":"similarity","trial_index":37,"time_elapsed":285526,"internal_node_id":"0.0-6.0-31.0"},{"sim_score":7,"rt":5406,"stimulus":"[\"img/0874/7e4f2150-3b59-4a36-b5da-a4e0ba410531.jpg\",\"img/0881/f62bdcd1-a4b7-4d48-83da-d9c9e01c8727.jpg\"]","trial_type":"similarity","trial_index":38,"time_elapsed":291937,"internal_node_id":"0.0-6.0-32.0"},{"sim_score":5,"rt":4204,"stimulus":"[\"img/0881/44e09805-5a25-4f17-a716-4ad4a331b174.jpg\",\"img/0899/93494f3b-d539-4075-b027-d82e344563da.jpg\"]","trial_type":"similarity","trial_index":39,"time_elapsed":297146,"internal_node_id":"0.0-6.0-33.0"},{"sim_score":2,"rt":3474,"stimulus":"[\"img/0866/93a27239-8317-4e08-98ca-d8b1ff298e07.jpg\",\"img/0862/de9ad88c-b522-430a-8ee9-eb06a9f85df5.jpg\"]","trial_type":"similarity","trial_index":40,"time_elapsed":301624,"internal_node_id":"0.0-6.0-34.0"},{"sim_score":1,"rt":3539,"stimulus":"[\"img/0868/83b4350a-3b70-4cea-b7f5-b5b56f3050a8.jpg\",\"img/0894/38f5931f-926d-414e-b498-66b188978b7a.jpg\"]","trial_type":"similarity","trial_index":41,"time_elapsed":306167,"internal_node_id":"0.0-6.0-35.0"},{"sim_score":6,"rt":4028,"stimulus":"[\"img/0860/99c589b9-9140-4d17-90c0-b344323edcda.jpg\",\"img/0860/15b24a61-25be-4356-9eac-5ce95d0cb4a4.jpg\"]","trial_type":"similarity","trial_index":42,"time_elapsed":311200,"internal_node_id":"0.0-6.0-36.0"},{"sim_score":5,"rt":4269,"stimulus":"[\"img/0862/92f0146c-20c4-482e-aef5-adb693790338.jpg\",\"img/0864/ef9cbca0-4be8-435d-ad49-977259e80409.jpg\"]","trial_type":"similarity","trial_index":43,"time_elapsed":324079,"internal_node_id":"0.0-6.0-37.0"},{"sim_score":1,"rt":3571,"stimulus":"[\"img/0766/1bc0dccc-a5b5-4375-87fa-28360ca42b12.jpg\",\"img/0866/945c6710-d15b-4a5b-a8f6-69af0850357f.jpg\"]","trial_type":"similarity","trial_index":44,"time_elapsed":328655,"internal_node_id":"0.0-6.0-38.0"},{"sim_score":2,"rt":3417,"stimulus":"[\"img/0875/8521fd58-3b1e-4dc5-97ae-804edfa6734a.jpg\",\"img/0898/81b08535-2020-4c15-9ce4-2f1e460755ae.jpg\"]","trial_type":"similarity","trial_index":45,"time_elapsed":333078,"internal_node_id":"0.0-6.0-39.0"},{"sim_score":5,"rt":4700,"stimulus":"[\"img/0766/60033a74-9919-47e5-913c-71d0d483e7e5.jpg\",\"img/0769/6c0bac4c-5f59-43c7-898c-3ca93cf55cfe.jpg\"]","trial_type":"similarity","trial_index":46,"time_elapsed":338782,"internal_node_id":"0.0-6.0-40.0"},{"sim_score":1,"rt":4925,"stimulus":"[\"img/0874/31e22c7c-99aa-40b1-bf03-dd73fa2df4d6.jpg\",\"img/0764/b328441c-f81c-486c-9eae-b947c70ba7cd.jpg\"]","trial_type":"similarity","trial_index":47,"time_elapsed":344711,"internal_node_id":"0.0-6.0-41.0"},{"sim_score":1,"rt":4466,"stimulus":"[\"img/0868/293079b8-7e0c-4afd-a390-1e5d35fe3ded.jpg\",\"img/0902/a6fb6dd5-696c-47ec-be7d-d7b88f1544f1.jpg\"]","trial_type":"similarity","trial_index":48,"time_elapsed":350181,"internal_node_id":"0.0-6.0-42.0"},{"sim_score":2,"rt":3037,"stimulus":"[\"img/0875/cff79b3a-a797-4393-9757-6275f999ec04.jpg\",\"img/0899/565ccdd9-0933-4536-a625-3c0e25a713dd.jpg\"]","trial_type":"similarity","trial_index":49,"time_elapsed":354223,"internal_node_id":"0.0-6.0-43.0"},{"sim_score":2,"rt":4525,"stimulus":"[\"img/0866/11a1d141-be5e-443c-98c1-a9d4d9e3dec0.jpg\",\"img/0860/87039971-2210-4aab-93c0-8e9b5f1655b2.jpg\"]","trial_type":"similarity","trial_index":50,"time_elapsed":359752,"internal_node_id":"0.0-6.0-44.0"},{"sim_score":2,"rt":5558,"stimulus":"[\"img/0766/a0270213-fa0e-4972-8b56-228c3e01ff90.jpg\",\"img/0903/43ffd882-077a-40dd-a264-e58d519420a1.jpg\"]","trial_type":"similarity","trial_index":51,"time_elapsed":366314,"internal_node_id":"0.0-6.0-45.0"},{"sim_score":5,"rt":4080,"stimulus":"[\"img/0901/ae1e6ce4-2e10-4ca9-b1e7-21628637ab74.jpg\",\"img/0904/65e2b70a-b184-4da3-b5c0-5038bdf9469a.jpg\"]","trial_type":"similarity","trial_index":52,"time_elapsed":371398,"internal_node_id":"0.0-6.0-46.0"},{"sim_score":3,"rt":5393,"stimulus":"[\"img/0758/20497cbe-ddae-489e-86e2-ab06985ed07c.jpg\",\"img/0902/0eb85fbc-27c8-41df-9d0b-a5f9efd417d1.jpg\"]","trial_type":"similarity","trial_index":53,"time_elapsed":377796,"internal_node_id":"0.0-6.0-47.0"},{"sim_score":7,"rt":6024,"stimulus":"[\"img/0764/fb92924f-5cfe-4b89-b130-0cce8cc5636b.jpg\",\"img/0764/e48e6c6f-9e28-420f-836a-8043b2319bb4.jpg\"]","trial_type":"similarity","trial_index":54,"time_elapsed":384824,"internal_node_id":"0.0-6.0-48.0"},{"sim_score":1,"rt":4095,"stimulus":"[\"img/0866/620cd1aa-0800-4414-8f6e-90342e7a99ad.jpg\",\"img/0902/8af4182a-9af9-4212-a436-9195555112d6.jpg\"]","trial_type":"similarity","trial_index":55,"time_elapsed":389923,"internal_node_id":"0.0-6.0-49.0"},{"sim_score":5,"rt":5746,"stimulus":"[\"img/0764/f713847b-4832-42d1-8fb3-e17e37fd745c.jpg\",\"img/0758/a709631e-3705-4725-ac40-f0d916924f08.jpg\"]","trial_type":"similarity","trial_index":56,"time_elapsed":396673,"internal_node_id":"0.0-6.0-50.0"},{"sim_score":3,"rt":5654,"stimulus":"[\"img/0898/b2732712-71c2-45d8-834f-2b2ed5504910.jpg\",\"img/0894/c505c65a-cde2-4f2c-8cde-f8676f7c894d.jpg\"]","trial_type":"similarity","trial_index":57,"time_elapsed":403331,"internal_node_id":"0.0-6.0-51.0"},{"sim_score":5,"rt":3753,"stimulus":"[\"img/0875/3ecb367d-e9eb-4826-8aaa-7aa72fb98019.jpg\",\"img/0866/d493a2c8-66eb-44b4-be02-2f327b700b7c.jpg\"]","trial_type":"similarity","trial_index":58,"time_elapsed":408088,"internal_node_id":"0.0-6.0-52.0"},{"sim_score":6,"rt":4403,"stimulus":"[\"img/0904/2c98dc56-88d1-4fb5-a999-b6a7861f65f0.jpg\",\"img/0904/1d10df11-b5c8-4370-9a6b-097a7f965895.jpg\"]","trial_type":"similarity","trial_index":59,"time_elapsed":413505,"internal_node_id":"0.0-6.0-53.0"},{"sim_score":6,"rt":4781,"stimulus":"[\"img/0769/c34b7763-8ff2-46d5-9e92-f1d8f3bedbd8.jpg\",\"img/0769/022c7e3b-c3f2-4119-b4bc-f22fa7cae18c.jpg\"]","trial_type":"similarity","trial_index":60,"time_elapsed":419290,"internal_node_id":"0.0-6.0-54.0"},{"sim_score":3,"rt":6240,"stimulus":"[\"img/0898/224c1572-56b9-4f16-a9e4-6f3bc9c114bd.jpg\",\"img/0758/d41c06bf-ebaf-454b-91c6-1a17f917b659.jpg\"]","trial_type":"similarity","trial_index":61,"time_elapsed":426534,"internal_node_id":"0.0-6.0-55.0"},{"sim_score":6,"rt":4905,"stimulus":"[\"img/0769/a1ce8d07-ba37-40de-bade-2778805521e0.jpg\",\"img/0902/82d20e8c-2162-47a6-925b-52906558c046.jpg\"]","trial_type":"similarity","trial_index":62,"time_elapsed":432443,"internal_node_id":"0.0-6.0-56.0"},{"sim_score":6,"rt":7660,"stimulus":"[\"img/0864/efcfbb1b-8197-44c9-b723-40d6c608dd3c.jpg\",\"img/0881/2a8413be-fec2-4de6-88ad-614dd4cccc9d.jpg\"]","trial_type":"similarity","trial_index":63,"time_elapsed":441107,"internal_node_id":"0.0-6.0-57.0"},{"sim_score":3,"rt":6278,"stimulus":"[\"img/0758/335851a0-a55b-46d8-ab05-8463eda48349.jpg\",\"img/0868/8b0b8473-e2c0-4331-aa56-c3a5c29369da.jpg\"]","trial_type":"similarity","trial_index":64,"time_elapsed":448390,"internal_node_id":"0.0-6.0-58.0"},{"sim_score":3,"rt":6721,"stimulus":"[\"img/0862/7918ca67-5bd3-4606-a5ea-c39fb11a9297.jpg\",\"img/0769/3c1efec9-f8fd-487d-8955-4be88e48c832.jpg\"]","trial_type":"similarity","trial_index":65,"time_elapsed":456114,"internal_node_id":"0.0-6.0-59.0"},{"sim_score":5,"rt":4691,"stimulus":"[\"img/0764/f64dfa83-333d-494c-87b5-73e942f1766e.jpg\",\"img/0903/5ea5bbe0-f238-4724-abe7-9ed8dee8c0ba.jpg\"]","trial_type":"similarity","trial_index":66,"time_elapsed":461808,"internal_node_id":"0.0-6.0-60.0"},{"sim_score":6,"rt":5163,"stimulus":"[\"img/0899/4f7bc593-8ddd-4da3-a0b9-84da730d3370.jpg\",\"img/0899/f95cbdb4-f804-4f5d-ad76-373ad343e658.jpg\"]","trial_type":"similarity","trial_index":67,"time_elapsed":467975,"internal_node_id":"0.0-6.0-61.0"},{"sim_score":5,"rt":6279,"stimulus":"[\"img/0860/4a022222-056d-461c-ab02-39fac9647552.jpg\",\"img/0875/90da8d75-108a-44ad-b999-e21fee3860d3.jpg\"]","trial_type":"similarity","trial_index":68,"time_elapsed":475258,"internal_node_id":"0.0-6.0-62.0"},{"sim_score":2,"rt":5271,"stimulus":"[\"img/0868/6a28c3b0-3d76-498a-9fb7-ddafc665eca8.jpg\",\"img/0874/eba003b4-cdab-4eee-8bc3-f064c7d94165.jpg\"]","trial_type":"similarity","trial_index":69,"time_elapsed":481533,"internal_node_id":"0.0-6.0-63.0"},{"sim_score":2,"rt":4031,"stimulus":"[\"img/0758/7ee8bc8f-c40b-4b3a-84ec-3e83580622d4.jpg\",\"img/0862/47ed5efd-4ec9-4b74-bb4e-a5f5cf0c3e7d.jpg\"]","trial_type":"similarity","trial_index":70,"time_elapsed":486568,"internal_node_id":"0.0-6.0-64.0"},{"sim_score":6,"rt":4418,"stimulus":"[\"img/0904/4e58005d-a2ec-4aaa-b199-445343561396.jpg\",\"img/0898/0af304a2-6a7a-4082-ab7c-4450cd08cc58.jpg\"]","trial_type":"similarity","trial_index":71,"time_elapsed":491990,"internal_node_id":"0.0-6.0-65.0"},{"sim_score":2,"rt":4706,"stimulus":"[\"img/0881/0c7068da-d0d9-4103-bda1-74ef7a2b32c3.jpg\",\"img/0866/0207e9a2-7dbb-40b5-9459-b472aaeceb2a.jpg\"]","trial_type":"similarity","trial_index":72,"time_elapsed":497700,"internal_node_id":"0.0-6.0-66.0"},{"sim_score":2,"rt":5647,"stimulus":"[\"img/0867/075e0f95-856b-4cbb-acf5-092393aaf04e.jpg\",\"img/0898/ec565187-2e31-4fdd-9a5c-153d0c789ae0.jpg\"]","trial_type":"similarity","trial_index":73,"time_elapsed":504351,"internal_node_id":"0.0-6.0-67.0"},{"sim_score":3,"rt":6219,"stimulus":"[\"img/0902/1f4a4c62-68c1-4993-b213-05652a173ed1.jpg\",\"img/0764/c01e2d65-6586-441b-bef5-3c96fcd85380.jpg\"]","trial_type":"similarity","trial_index":74,"time_elapsed":511574,"internal_node_id":"0.0-6.0-68.0"},{"sim_score":5,"rt":6066,"stimulus":"[\"img/0875/fb732ab5-013a-4366-9f65-27811ed157e9.jpg\",\"img/0867/bf560d4f-dee3-4f11-a385-705cc1aa5f3c.jpg\"]","trial_type":"similarity","trial_index":75,"time_elapsed":518644,"internal_node_id":"0.0-6.0-69.0"},{"sim_score":7,"rt":3698,"stimulus":"[\"img/0766/f011ef45-fb48-44b8-8224-867ed2ccf786.jpg\",\"img/0764/974d52cc-6318-4e7a-b294-2f3e92ff800f.jpg\"]","trial_type":"similarity","trial_index":76,"time_elapsed":523346,"internal_node_id":"0.0-6.0-70.0"},{"sim_score":2,"rt":3587,"stimulus":"[\"img/0894/3adef67d-7676-4995-80b2-bb31b8aca3ef.jpg\",\"img/0867/ac1797e4-8afc-48fe-b252-86d1defb1cca.jpg\"]","trial_type":"similarity","trial_index":77,"time_elapsed":527937,"internal_node_id":"0.0-6.0-71.0"},{"sim_score":1,"rt":6697,"stimulus":"[\"img/0875/e7e66b13-b573-431e-b85e-288ce04a35a3.jpg\",\"img/0764/5d83b9db-3b2b-4dc8-9bd1-2b515b19c858.jpg\"]","trial_type":"similarity","trial_index":78,"time_elapsed":535637,"internal_node_id":"0.0-6.0-72.0"},{"sim_score":4,"rt":4925,"stimulus":"[\"img/0867/f8488a47-94ee-4166-952c-44e16cf172f6.jpg\",\"img/0866/02f5e6b9-52b7-448c-9708-5b460d0c9a23.jpg\"]","trial_type":"similarity","trial_index":79,"time_elapsed":541566,"internal_node_id":"0.0-6.0-73.0"},{"sim_score":3,"rt":3155,"stimulus":"[\"img/0903/b0df4094-a3be-4b5b-81bd-8d260f13f61b.jpg\",\"img/0758/f61ecdf8-a7d4-4db0-b84d-be46f7cfaffc.jpg\"]","trial_type":"similarity","trial_index":80,"time_elapsed":545724,"internal_node_id":"0.0-6.0-74.0"},{"sim_score":2,"rt":4325,"stimulus":"[\"img/0766/69e486f7-dbef-456b-9d48-53d814248a28.jpg\",\"img/0868/1a62b2b2-18f5-466e-b564-5176a57c565e.jpg\"]","trial_type":"similarity","trial_index":81,"time_elapsed":554280,"internal_node_id":"0.0-6.0-75.0"},{"sim_score":5,"rt":4303,"stimulus":"[\"img/0874/3ce41e7c-40c8-4d58-a546-171114521796.jpg\",\"img/0766/ea09dd5a-d24d-4e97-a099-7da3db1baef1.jpg\"]","trial_type":"similarity","trial_index":82,"time_elapsed":559586,"internal_node_id":"0.0-6.0-76.0"},{"sim_score":2,"rt":4838,"stimulus":"[\"img/0881/b1a136f7-8511-4d3a-a0f6-3879acf1e1a1.jpg\",\"img/0868/4a8a45ed-2c4f-421b-9564-409a33ecd26c.jpg\"]","trial_type":"similarity","trial_index":83,"time_elapsed":565428,"internal_node_id":"0.0-6.0-77.0"},{"sim_score":5,"rt":6344,"stimulus":"[\"img/0758/61d64021-9214-4951-bdf8-f871f9827cf9.jpg\",\"img/0901/875dedb9-24c9-4443-9f8c-85e97d70ee5a.jpg\"]","trial_type":"similarity","trial_index":84,"time_elapsed":572776,"internal_node_id":"0.0-6.0-78.0"},{"sim_score":1,"rt":4989,"stimulus":"[\"img/0881/c24f3051-eefa-42de-aba6-fccb56d93c70.jpg\",\"img/0898/a114b375-cb89-44ba-9498-74213f1ecdee.jpg\"]","trial_type":"similarity","trial_index":85,"time_elapsed":578769,"internal_node_id":"0.0-6.0-79.0"},{"sim_score":5,"rt":4679,"stimulus":"[\"img/0867/c71dc569-f49c-4397-8381-68b8d726736d.jpg\",\"img/0758/6e95579b-5166-487c-b8cb-e417c6a218e3.jpg\"]","trial_type":"similarity","trial_index":86,"time_elapsed":584452,"internal_node_id":"0.0-6.0-80.0"},{"sim_score":5,"rt":5598,"stimulus":"[\"img/0769/76eaa4a3-dfe9-4dc1-9efb-caebe86264e1.jpg\",\"img/0899/0adc0bc3-6fca-4078-be6f-d45ddf1653d5.jpg\"]","trial_type":"similarity","trial_index":87,"time_elapsed":591054,"internal_node_id":"0.0-6.0-81.0"},{"sim_score":6,"rt":4431,"stimulus":"[\"img/0903/b7e3723f-fd03-4f3d-8820-f19496463a34.jpg\",\"img/0903/45e2d600-57ff-4d69-b22c-0c7896cd38f0.jpg\"]","trial_type":"similarity","trial_index":88,"time_elapsed":596489,"internal_node_id":"0.0-6.0-82.0"},{"sim_score":1,"rt":5512,"stimulus":"[\"img/0867/cc72ed48-7704-422c-86d6-467a1145287a.jpg\",\"img/0766/989c5c7f-1aff-4442-ac63-9d46acf4a891.jpg\"]","trial_type":"similarity","trial_index":89,"time_elapsed":603005,"internal_node_id":"0.0-6.0-83.0"},{"sim_score":2,"rt":3966,"stimulus":"[\"img/0902/7f1dcd35-237a-4995-9e42-7f63f3f434d4.jpg\",\"img/0867/98d8cd96-1476-4fe0-a3a3-04f875500a1b.jpg\"]","trial_type":"similarity","trial_index":90,"time_elapsed":607976,"internal_node_id":"0.0-6.0-84.0"},{"sim_score":2,"rt":4473,"stimulus":"[\"img/0901/bc47e078-bda4-40ed-b89a-bbd819164b95.jpg\",\"img/0875/527ced51-8e53-4aab-ab05-86df219104c0.jpg\"]","trial_type":"similarity","trial_index":91,"time_elapsed":613452,"internal_node_id":"0.0-6.0-85.0"},{"sim_score":1,"rt":3256,"stimulus":"[\"img/0764/978aede9-4590-4ad0-b234-135c83e5d669.jpg\",\"img/0866/a04d37f0-99dd-478a-b6c6-58b215138f84.jpg\"]","trial_type":"similarity","trial_index":92,"time_elapsed":617712,"internal_node_id":"0.0-6.0-86.0"},{"sim_score":5,"rt":3546,"stimulus":"[\"img/0901/b123d109-47b4-4f9a-80c9-9bb16da42efa.jpg\",\"img/0894/3664e04c-c6d3-4c9b-afb6-25d89974b174.jpg\"]","trial_type":"similarity","trial_index":93,"time_elapsed":622263,"internal_node_id":"0.0-6.0-87.0"},{"sim_score":6,"rt":3927,"stimulus":"[\"img/0898/0c7dde4f-efce-4b7a-9387-6921635b7890.jpg\",\"img/0769/e31b3bd8-efcb-413e-aa8c-75fac2b8f2ac.jpg\"]","trial_type":"similarity","trial_index":94,"time_elapsed":627193,"internal_node_id":"0.0-6.0-88.0"},{"sim_score":6,"rt":4390,"stimulus":"[\"img/0769/48a1144d-fbda-4809-991b-fc8424a32ee4.jpg\",\"img/0894/5c7677b0-a4f1-479e-b274-7822c415175a.jpg\"]","trial_type":"similarity","trial_index":95,"time_elapsed":632588,"internal_node_id":"0.0-6.0-89.0"},{"sim_score":1,"rt":3804,"stimulus":"[\"img/0862/a0a3a7ba-7798-46a3-b4ca-05e1f6e581d0.jpg\",\"img/0874/8cdb1c07-1c32-46d2-981c-3636560fa6e5.jpg\"]","trial_type":"similarity","trial_index":96,"time_elapsed":637395,"internal_node_id":"0.0-6.0-90.0"},{"sim_score":5,"rt":5800,"stimulus":"[\"img/0894/a3d4170b-b7d8-40e3-955f-87e76ed745fc.jpg\",\"img/0766/f5f78e4e-d88f-4866-951a-118ba9fec4d0.jpg\"]","trial_type":"similarity","trial_index":97,"time_elapsed":644199,"internal_node_id":"0.0-6.0-91.0"},{"sim_score":2,"rt":3623,"stimulus":"[\"img/0874/a82926a3-0b43-4add-803c-d5f9ea7798ee.jpg\",\"img/0867/85a96c62-548f-4994-9553-819e03c3135a.jpg\"]","trial_type":"similarity","trial_index":98,"time_elapsed":648826,"internal_node_id":"0.0-6.0-92.0"},{"sim_score":1,"rt":4260,"stimulus":"[\"img/0899/00715b3f-851b-420b-a26b-d7f79f7759a9.jpg\",\"img/0868/4bd5105a-d2c3-4f82-8c80-57196106ba53.jpg\"]","trial_type":"similarity","trial_index":99,"time_elapsed":654090,"internal_node_id":"0.0-6.0-93.0"},{"sim_score":2,"rt":3055,"stimulus":"[\"img/0903/6a87dbad-9b8d-4ff5-9c41-03c9aa24f0c3.jpg\",\"img/0862/064818ee-13d5-4618-bb24-21c7368ea278.jpg\"]","trial_type":"similarity","trial_index":100,"time_elapsed":658149,"internal_node_id":"0.0-6.0-94.0"},{"sim_score":5,"rt":3301,"stimulus":"[\"img/0899/7b7380d5-d2be-44e5-a09a-c1756f87ef71.jpg\",\"img/0766/ae0fce93-fe8d-4aa1-87ca-4c3e4b889f2f.jpg\"]","trial_type":"similarity","trial_index":101,"time_elapsed":662455,"internal_node_id":"0.0-6.0-95.0"},{"sim_score":6,"rt":5663,"stimulus":"[\"img/0867/1719a35d-f085-48c0-9099-16c94fe418b4.jpg\",\"img/0868/15dd6fd7-791e-4b53-b203-195d617521a4.jpg\"]","trial_type":"similarity","trial_index":102,"time_elapsed":669122,"internal_node_id":"0.0-6.0-96.0"},{"sim_score":4,"rt":3392,"stimulus":"[\"img/0862/cdaed51d-9e2f-4807-801a-4663c40077e2.jpg\",\"img/0901/b13fa50f-dbe0-4d0f-8647-6ac0fd8f40bd.jpg\"]","trial_type":"similarity","trial_index":103,"time_elapsed":673517,"internal_node_id":"0.0-6.0-97.0"},{"sim_score":1,"rt":5215,"stimulus":"[\"img/0875/42910c99-5463-450a-a0f8-d4d060a11455.jpg\",\"img/0766/d50d734f-285c-4840-bc7a-c8dd4aff391e.jpg\"]","trial_type":"similarity","trial_index":104,"time_elapsed":679736,"internal_node_id":"0.0-6.0-98.0"},{"sim_score":6,"rt":4721,"stimulus":"[\"img/0758/a085b443-b5d7-4cb2-9ad4-b9dab0fc23f1.jpg\",\"img/0874/995f0332-0439-4eb4-add3-957335dbf6d9.jpg\"]","trial_type":"similarity","trial_index":105,"time_elapsed":685461,"internal_node_id":"0.0-6.0-99.0"},{"sim_score":1,"rt":6620,"stimulus":"[\"img/0904/b7c2a2c8-df33-4473-b3d4-ff7147c60db3.jpg\",\"img/0868/3a62db2d-97e9-44a3-b8e3-a48c6f0e423b.jpg\"]","trial_type":"similarity","trial_index":106,"time_elapsed":693085,"internal_node_id":"0.0-6.0-100.0"},{"sim_score":1,"rt":4937,"stimulus":"[\"img/0903/0a92ec52-4e87-410a-857a-4455cde56a70.jpg\",\"img/0866/23a224f3-2012-4fc8-8e0f-3c36f8de27fd.jpg\"]","trial_type":"similarity","trial_index":107,"time_elapsed":699027,"internal_node_id":"0.0-6.0-101.0"},{"sim_score":1,"rt":4944,"stimulus":"[\"img/0868/e0aff734-077f-40dd-9781-74821abd3621.jpg\",\"img/0769/f229321f-04dd-42d7-b14a-ffad6b509862.jpg\"]","trial_type":"similarity","trial_index":108,"time_elapsed":704975,"internal_node_id":"0.0-6.0-102.0"},{"sim_score":6,"rt":4742,"stimulus":"[\"img/0902/07437a16-3d0f-4a5c-89ec-36d0efa4b3b8.jpg\",\"img/0899/ad8268c5-8199-48d0-ad70-c5b6d6c599ec.jpg\"]","trial_type":"similarity","trial_index":109,"time_elapsed":710721,"internal_node_id":"0.0-6.0-103.0"},{"sim_score":2,"rt":6550,"stimulus":"[\"img/0868/09a9ef4d-d000-4cfa-a6aa-ebec7c2edeb4.jpg\",\"img/0862/5d887e9f-89e2-4ebc-80a0-6d46fe6480db.jpg\"]","trial_type":"similarity","trial_index":110,"time_elapsed":718275,"internal_node_id":"0.0-6.0-104.0"},{"sim_score":5,"rt":4123,"stimulus":"[\"img/0903/5248eedd-7e6a-4d39-91b0-06ec227f3ed0.jpg\",\"img/0894/7dd6ff43-f8fc-408a-8a41-a2b261871820.jpg\"]","trial_type":"similarity","trial_index":111,"time_elapsed":723402,"internal_node_id":"0.0-6.0-105.0"},{"sim_score":3,"rt":3815,"stimulus":"[\"img/0864/4bd81bc6-c13d-46df-95a9-485886dc7c1b.jpg\",\"img/0874/3f471690-9788-4d03-90c7-f615aecef149.jpg\"]","trial_type":"similarity","trial_index":112,"time_elapsed":728221,"internal_node_id":"0.0-6.0-106.0"},{"sim_score":4,"rt":4598,"stimulus":"[\"img/0862/fad1d7c1-8187-43c3-942a-0fc12183e48e.jpg\",\"img/0902/a323b62d-2fd5-4ac8-acc6-35b768f3c3f2.jpg\"]","trial_type":"similarity","trial_index":113,"time_elapsed":733823,"internal_node_id":"0.0-6.0-107.0"},{"sim_score":5,"rt":4262,"stimulus":"[\"img/0904/09dac84f-3d1c-4445-a68e-d0389fdbf1e9.jpg\",\"img/0903/4cbdc464-e562-4ec2-9bb6-15f894fdf528.jpg\"]","trial_type":"similarity","trial_index":114,"time_elapsed":739089,"internal_node_id":"0.0-6.0-108.0"},{"sim_score":2,"rt":3296,"stimulus":"[\"img/0764/f990b2e8-ecee-481e-be7c-0239fce350e2.jpg\",\"img/0864/e02eddb5-f468-499c-91bf-f7be3ffe979b.jpg\"]","trial_type":"similarity","trial_index":115,"time_elapsed":743389,"internal_node_id":"0.0-6.0-109.0"},{"sim_score":1,"rt":4519,"stimulus":"[\"img/0866/07c9c966-3c8d-40e7-8128-92b2acbaed5d.jpg\",\"img/0894/6aa5545f-fa7d-4286-bbaa-aaf34dc7ec96.jpg\"]","trial_type":"similarity","trial_index":116,"time_elapsed":748911,"internal_node_id":"0.0-6.0-110.0"},{"sim_score":6,"rt":3259,"stimulus":"[\"img/0899/06b0fc99-0581-461a-9913-d1a5a941ac61.jpg\",\"img/0903/14f179a2-8786-48a2-8377-88d1d404341b.jpg\"]","trial_type":"similarity","trial_index":117,"time_elapsed":753175,"internal_node_id":"0.0-6.0-111.0"},{"sim_score":6,"rt":4918,"stimulus":"[\"img/0902/b03fee99-d5ca-4bf8-871c-a4a743a39842.jpg\",\"img/0904/ba8e689e-9ca6-4608-a2a1-3b0940666ae6.jpg\"]","trial_type":"similarity","trial_index":118,"time_elapsed":759096,"internal_node_id":"0.0-6.0-112.0"},{"sim_score":5,"rt":4191,"stimulus":"[\"img/0864/8ddd2e30-a1d0-479f-9cbe-591213023893.jpg\",\"img/0860/94ef7afc-e0e6-4a15-98c6-0bfac82bc832.jpg\"]","trial_type":"similarity","trial_index":119,"time_elapsed":767221,"internal_node_id":"0.0-6.0-113.0"},{"sim_score":3,"rt":5336,"stimulus":"[\"img/0860/4f695df5-afac-4da7-9875-fee39b0b24ad.jpg\",\"img/0899/d8f2dd94-570e-4e8c-a087-d96090fb9e8c.jpg\"]","trial_type":"similarity","trial_index":120,"time_elapsed":773561,"internal_node_id":"0.0-6.0-114.0"},{"sim_score":2,"rt":3869,"stimulus":"[\"img/0881/f6bd3b96-dc40-4e99-8681-bc3a35cf896d.jpg\",\"img/0903/f45a103c-9bfe-49fd-ad96-bdd8d2589195.jpg\"]","trial_type":"similarity","trial_index":121,"time_elapsed":778434,"internal_node_id":"0.0-6.0-115.0"},{"sim_score":2,"rt":5273,"stimulus":"[\"img/0894/5f15154e-e72e-4ce5-aafb-bce6f0564006.jpg\",\"img/0874/93d1f8dc-acf2-4f03-bd8d-8ec35df276ed.jpg\"]","trial_type":"similarity","trial_index":122,"time_elapsed":784712,"internal_node_id":"0.0-6.0-116.0"},{"sim_score":2,"rt":7170,"stimulus":"[\"img/0881/7e822106-76f7-4b10-a805-14dc68b2cfaf.jpg\",\"img/0862/847e5208-38ec-4f36-949c-296cdd7424ee.jpg\"]","trial_type":"similarity","trial_index":123,"time_elapsed":792886,"internal_node_id":"0.0-6.0-117.0"},{"sim_score":5,"rt":6071,"stimulus":"[\"img/0868/fd307a36-9a3a-47d7-ab7c-f810d0b35040.jpg\",\"img/0875/03c3c331-738b-4446-af92-3d7386b08c2e.jpg\"]","trial_type":"similarity","trial_index":124,"time_elapsed":799961,"internal_node_id":"0.0-6.0-118.0"},{"sim_score":1,"rt":4549,"stimulus":"[\"img/0860/71e1aad0-2cdf-43bb-94a4-a8c016997c30.jpg\",\"img/0758/d540bee6-b460-4c32-ac57-bc282742d7d4.jpg\"]","trial_type":"similarity","trial_index":125,"time_elapsed":805515,"internal_node_id":"0.0-6.0-119.0"},{"sim_score":4,"rt":7111,"stimulus":"[\"img/0864/3651d070-2fc5-4848-b6a6-088a2d9ac5c9.jpg\",\"img/0875/5a716432-c6ca-4b1c-955a-2b8ac25198ee.jpg\"]","trial_type":"similarity","trial_index":126,"time_elapsed":813630,"internal_node_id":"0.0-6.0-120.0"},{"sim_score":1,"rt":4097,"stimulus":"[\"img/0898/04e39a7a-fcf6-4156-ab0e-f5871f335e1c.jpg\",\"img/0866/c446214b-a368-4c65-ae39-ea46894256ab.jpg\"]","trial_type":"similarity","trial_index":127,"time_elapsed":818731,"internal_node_id":"0.0-6.0-121.0"},{"sim_score":3,"rt":4021,"stimulus":"[\"img/0874/adf9a8f1-c40b-402b-b95b-1e85a54a7b62.jpg\",\"img/0904/25365108-e038-4021-aac9-797f2063b337.jpg\"]","trial_type":"similarity","trial_index":128,"time_elapsed":823756,"internal_node_id":"0.0-6.0-122.0"},{"sim_score":5,"rt":5558,"stimulus":"[\"img/0904/09934646-45d2-4147-8fec-64a22a5ac822.jpg\",\"img/0864/f92649a2-0590-4d31-9a7a-1bfb81666a2d.jpg\"]","trial_type":"similarity","trial_index":129,"time_elapsed":830318,"internal_node_id":"0.0-6.0-123.0"},{"sim_score":5,"rt":6448,"stimulus":"[\"img/0894/e6385e52-6c35-43bd-b0af-bc803d107b11.jpg\",\"img/0902/3b243e54-0803-4c29-af42-4037c2118495.jpg\"]","trial_type":"similarity","trial_index":130,"time_elapsed":837769,"internal_node_id":"0.0-6.0-124.0"},{"sim_score":3,"rt":7000,"stimulus":"[\"img/0868/7b212364-ff5f-4e28-9241-7eb6ea00161b.jpg\",\"img/0864/49150900-7f25-4ce8-8d10-9b47a71d1997.jpg\"]","trial_type":"similarity","trial_index":131,"time_elapsed":845772,"internal_node_id":"0.0-6.0-125.0"},{"sim_score":1,"rt":2883,"stimulus":"[\"img/0899/8de08897-b430-42fe-9d42-840670b80f94.jpg\",\"img/0866/d266fece-59b3-46fa-b69f-96f6efb81b59.jpg\"]","trial_type":"similarity","trial_index":132,"time_elapsed":849659,"internal_node_id":"0.0-6.0-126.0"},{"sim_score":2,"rt":7349,"stimulus":"[\"img/0875/d59ff733-eaff-4ee2-9443-06954dd0bcb6.jpg\",\"img/0904/5cceabc9-de1d-4c67-989b-c28a4ef77e79.jpg\"]","trial_type":"similarity","trial_index":133,"time_elapsed":858012,"internal_node_id":"0.0-6.0-127.0"},{"sim_score":1,"rt":3765,"stimulus":"[\"img/0867/7d1c497b-c1b3-4ed8-abb5-d7f73306015f.jpg\",\"img/0899/8abe6c69-822c-436c-9bf2-96c818b49ba5.jpg\"]","trial_type":"similarity","trial_index":134,"time_elapsed":862781,"internal_node_id":"0.0-6.0-128.0"},{"sim_score":2,"rt":4805,"stimulus":"[\"img/0901/d6d15b1c-4a30-4f74-a3fd-d4c8ee4169ca.jpg\",\"img/0867/a498eef3-9fa4-4ab2-9778-4ae82ac40dc5.jpg\"]","trial_type":"similarity","trial_index":135,"time_elapsed":868590,"internal_node_id":"0.0-6.0-129.0"},{"sim_score":4,"rt":4128,"stimulus":"[\"img/0864/e336a4c5-6648-4fd7-b2f6-93a3fb83f8c6.jpg\",\"img/0769/4a1d0b52-3fe8-40fb-bb1c-c814fe49a68c.jpg\"]","trial_type":"similarity","trial_index":136,"time_elapsed":873722,"internal_node_id":"0.0-6.0-130.0"},{"sim_score":1,"rt":3964,"stimulus":"[\"img/0903/365f176c-25a4-4973-bd3c-279bf1b39476.jpg\",\"img/0868/d6d1f30d-4323-435a-b194-7892521bc57e.jpg\"]","trial_type":"similarity","trial_index":137,"time_elapsed":878690,"internal_node_id":"0.0-6.0-131.0"},{"sim_score":1,"rt":4119,"stimulus":"[\"img/0864/1ebbc554-99fa-49f9-8799-317375a79820.jpg\",\"img/0867/50a1b60e-3a29-44bf-b606-d4bd3746fea9.jpg\"]","trial_type":"similarity","trial_index":138,"time_elapsed":883812,"internal_node_id":"0.0-6.0-132.0"},{"sim_score":6,"rt":5985,"stimulus":"[\"img/0901/3db47171-0139-4235-82cd-0b1787b6775f.jpg\",\"img/0860/8277806e-b684-4474-8f7b-3fca946d7d4f.jpg\"]","trial_type":"similarity","trial_index":139,"time_elapsed":890801,"internal_node_id":"0.0-6.0-133.0"},{"sim_score":4,"rt":7433,"stimulus":"[\"img/0881/566f45f8-5fed-4479-a60f-26377e60a62d.jpg\",\"img/0766/5d6e0d1d-4369-41f0-a64c-91f3503055c7.jpg\"]","trial_type":"similarity","trial_index":140,"time_elapsed":899239,"internal_node_id":"0.0-6.0-134.0"},{"sim_score":3,"rt":7824,"stimulus":"[\"img/0903/f10e9eb5-0c21-4a6a-944c-5f10a6d0fa4d.jpg\",\"img/0864/3d4de670-b290-4285-9c3d-12a0e3af44e9.jpg\"]","trial_type":"similarity","trial_index":141,"time_elapsed":908067,"internal_node_id":"0.0-6.0-135.0"},{"sim_score":2,"rt":5534,"stimulus":"[\"img/0758/3ddd05d3-557e-4ee7-8b78-9d2d681d8ae2.jpg\",\"img/0894/43216a7f-27bc-4b5a-8841-d122a30da9d9.jpg\"]","trial_type":"similarity","trial_index":142,"time_elapsed":914607,"internal_node_id":"0.0-6.0-136.0"},{"sim_score":3,"rt":9364,"stimulus":"[\"img/0769/8c7cf147-1780-4d5c-8ddf-5ea23ff03ac9.jpg\",\"img/0860/31ff6436-98bf-4652-bed2-40f627229568.jpg\"]","trial_type":"similarity","trial_index":143,"time_elapsed":924975,"internal_node_id":"0.0-6.0-137.0"},{"sim_score":5,"rt":3949,"stimulus":"[\"img/0904/56e73f28-7e64-489b-a161-e6b1a063878d.jpg\",\"img/0766/535849cc-ff5d-4df9-8f31-0ce94a97d571.jpg\"]","trial_type":"similarity","trial_index":144,"time_elapsed":929929,"internal_node_id":"0.0-6.0-138.0"},{"sim_score":2,"rt":4366,"stimulus":"[\"img/0868/d98ca254-b195-477f-b57e-5760a2717db8.jpg\",\"img/0860/f44ba3fb-03a2-42f0-8509-2c1ded493086.jpg\"]","trial_type":"similarity","trial_index":145,"time_elapsed":935298,"internal_node_id":"0.0-6.0-139.0"},{"sim_score":6,"rt":4234,"stimulus":"[\"img/0758/b76ceca7-95ac-46e4-ac13-da02c8e93be9.jpg\",\"img/0864/c22faebd-9c53-47bc-ada3-b9a30c688e75.jpg\"]","trial_type":"similarity","trial_index":146,"time_elapsed":940536,"internal_node_id":"0.0-6.0-140.0"},{"sim_score":4,"rt":5022,"stimulus":"[\"img/0867/c66898ba-b71b-4d50-84f9-f7f84853a98d.jpg\",\"img/0867/f26f6b60-f772-4f4c-95a4-addc62cfd692.jpg\"]","trial_type":"similarity","trial_index":147,"time_elapsed":946562,"internal_node_id":"0.0-6.0-141.0"},{"sim_score":5,"rt":5108,"stimulus":"[\"img/0898/5f699581-3853-4547-856c-12f419ba5af7.jpg\",\"img/0898/01bfe666-3510-4fc7-964f-d00d28732dc8.jpg\"]","trial_type":"similarity","trial_index":148,"time_elapsed":952673,"internal_node_id":"0.0-6.0-142.0"},{"sim_score":2,"rt":5182,"stimulus":"[\"img/0866/a15b02be-11bb-43e3-b0e0-ecc3bd7dfc49.jpg\",\"img/0769/1afb527f-9887-428c-bd26-a12c2f9efb68.jpg\"]","trial_type":"similarity","trial_index":149,"time_elapsed":958859,"internal_node_id":"0.0-6.0-143.0"},{"sim_score":4,"rt":6244,"stimulus":"[\"img/0860/18dfed73-e36b-4487-a8bd-0b8cff8e3668.jpg\",\"img/0898/82231d4c-218b-4d0a-b50d-35a49b524e97.jpg\"]","trial_type":"similarity","trial_index":150,"time_elapsed":966108,"internal_node_id":"0.0-6.0-144.0"},{"sim_score":4,"rt":7414,"stimulus":"[\"img/0766/a754e4b6-5019-4cf4-8f58-34c20547a1f5.jpg\",\"img/0864/5f74a653-3bdc-4308-8cca-ac667dc22e1f.jpg\"]","trial_type":"similarity","trial_index":151,"time_elapsed":974525,"internal_node_id":"0.0-6.0-145.0"},{"sim_score":4,"rt":4586,"stimulus":"[\"img/0860/c3379ff7-0763-48fe-a1ec-7ea3d611bc7a.jpg\",\"img/0903/6f343da5-00d9-4d50-89d1-2ed24cdb8319.jpg\"]","trial_type":"similarity","trial_index":152,"time_elapsed":980115,"internal_node_id":"0.0-6.0-146.0"},{"sim_score":2,"rt":4558,"stimulus":"[\"img/0867/de92135f-5b65-4ed9-b245-188292c7c2f8.jpg\",\"img/0764/d7c215ab-ea9a-45be-8d5f-417d5b9a8a17.jpg\"]","trial_type":"similarity","trial_index":153,"time_elapsed":985677,"internal_node_id":"0.0-6.0-147.0"},{"sim_score":5,"rt":4632,"stimulus":"[\"img/0769/ebef2ddc-ba59-4e0e-97f8-927864eb5081.jpg\",\"img/0904/63dd06dd-dccb-47ba-9740-eb33239e18a7.jpg\"]","trial_type":"similarity","trial_index":154,"time_elapsed":991313,"internal_node_id":"0.0-6.0-148.0"},{"sim_score":4,"rt":5881,"stimulus":"[\"img/0764/56441045-b648-4ede-9632-3e9c0227080b.jpg\",\"img/0901/7d4a3388-488d-4e9b-9d32-9d0def7aae8d.jpg\"]","trial_type":"similarity","trial_index":155,"time_elapsed":998198,"internal_node_id":"0.0-6.0-149.0"},{"sim_score":3,"rt":5120,"stimulus":"[\"img/0904/5aec2708-cf14-4a58-aa30-9a8a61c1be0e.jpg\",\"img/0899/4408c14d-c168-4a7d-96f6-bc87bfb58f83.jpg\"]","trial_type":"similarity","trial_index":156,"time_elapsed":1004321,"internal_node_id":"0.0-6.0-150.0"},{"sim_score":2,"rt":6467,"stimulus":"[\"img/0862/ba89835a-408c-480b-8594-ed4ffa97eb5c.jpg\",\"img/0867/aa05d113-fc19-4756-a8eb-7878f580bc92.jpg\"]","trial_type":"similarity","trial_index":157,"time_elapsed":1015561,"internal_node_id":"0.0-6.0-151.0"},{"sim_score":7,"rt":3349,"stimulus":"[\"img/0766/5d1b8041-c5a1-4b02-b4fe-3453d98a0d72.jpg\",\"img/0766/b84598d0-5b41-4841-88b0-b441b48289f5.jpg\"]","trial_type":"similarity","trial_index":158,"time_elapsed":1019914,"internal_node_id":"0.0-6.0-152.0"},{"sim_score":3,"rt":2922,"stimulus":"[\"img/0862/57b6f83f-c763-4858-830d-102f97bfefbf.jpg\",\"img/0894/bd34223a-2f66-4e16-9d18-193a746b69ff.jpg\"]","trial_type":"similarity","trial_index":159,"time_elapsed":1023840,"internal_node_id":"0.0-6.0-153.0"},{"sim_score":3,"rt":5772,"stimulus":"[\"img/0899/fef567a2-c121-4481-9af0-ff108d199bbf.jpg\",\"img/0901/a9b9c0a0-8aed-4888-a78a-65fb7e764d13.jpg\"]","trial_type":"similarity","trial_index":160,"time_elapsed":1030616,"internal_node_id":"0.0-6.0-154.0"},{"sim_score":6,"rt":4517,"stimulus":"[\"img/0874/ca76a855-4e77-4f2f-872a-0a718153e7ed.jpg\",\"img/0874/85eb9b8a-c4c6-4e5a-b8e7-363a87a82054.jpg\"]","trial_type":"similarity","trial_index":161,"time_elapsed":1036136,"internal_node_id":"0.0-6.0-155.0"},{"sim_score":5,"rt":3640,"stimulus":"[\"img/0860/8fdba999-b946-4c7d-9891-336018b563ef.jpg\",\"img/0867/26611f4e-d694-4460-b7e2-43c62753ddc3.jpg\"]","trial_type":"similarity","trial_index":162,"time_elapsed":1040780,"internal_node_id":"0.0-6.0-156.0"},{"sim_score":3,"rt":2966,"stimulus":"[\"img/0901/a6776381-91fe-43f8-ab73-261d318f95fd.jpg\",\"img/0881/db77fe00-aeb0-4d1d-aa66-f3a96fd077e4.jpg\"]","trial_type":"similarity","trial_index":163,"time_elapsed":1044750,"internal_node_id":"0.0-6.0-157.0"},{"sim_score":6,"rt":4161,"stimulus":"[\"img/0903/9b60ef5b-234f-4239-892b-3d4c412accc2.jpg\",\"img/0902/62f11694-7ed7-4cb7-8a73-9e95c43824e7.jpg\"]","trial_type":"similarity","trial_index":164,"time_elapsed":1049916,"internal_node_id":"0.0-6.0-158.0"},{"sim_score":3,"rt":3618,"stimulus":"[\"img/0860/b03b963d-949b-4d8d-b19c-4950c89eeca2.jpg\",\"img/0764/ca9829fe-aaf8-45b8-b98a-6bae751c63dd.jpg\"]","trial_type":"similarity","trial_index":165,"time_elapsed":1054538,"internal_node_id":"0.0-6.0-159.0"},{"sim_score":1,"rt":4789,"stimulus":"[\"img/0902/b03129ba-b087-4558-af37-e8399d6217d6.jpg\",\"img/0875/2c361b79-c3d1-4eda-812e-bf03192407bf.jpg\"]","trial_type":"similarity","trial_index":166,"time_elapsed":1060331,"internal_node_id":"0.0-6.0-160.0"},{"sim_score":2,"rt":3323,"stimulus":"[\"img/0898/e167334e-cc1d-4986-b3b1-c7bc7da64baa.jpg\",\"img/0862/92fcd8a4-8193-4a6a-ae09-dd4a6338b0df.jpg\"]","trial_type":"similarity","trial_index":167,"time_elapsed":1064657,"internal_node_id":"0.0-6.0-161.0"},{"sim_score":1,"rt":3774,"stimulus":"[\"img/0894/76c1201f-8524-4865-85e6-dda8cb4ac986.jpg\",\"img/0875/a4935837-7d3c-4df6-88c1-36a94d4991ca.jpg\"]","trial_type":"similarity","trial_index":168,"time_elapsed":1069435,"internal_node_id":"0.0-6.0-162.0"},{"sim_score":3,"rt":5315,"stimulus":"[\"img/0866/9b38d691-1802-4959-ab3f-fc902f0e4ea6.jpg\",\"img/0864/0116ca98-293d-4fa6-a93b-5a6144ef64cc.jpg\"]","trial_type":"similarity","trial_index":169,"time_elapsed":1075754,"internal_node_id":"0.0-6.0-163.0"},{"sim_score":2,"rt":4915,"stimulus":"[\"img/0766/214866ee-423d-4629-9bb9-41572bdc7dac.jpg\",\"img/0862/ad593cc7-cabe-4bb7-8e14-8a447a0717b4.jpg\"]","trial_type":"similarity","trial_index":170,"time_elapsed":1081673,"internal_node_id":"0.0-6.0-164.0"},{"sim_score":3,"rt":4368,"stimulus":"[\"img/0866/6f2a90d7-14f1-4f1b-bd64-fc0af6b9fe44.jpg\",\"img/0874/99f6563c-8a8d-4c1c-a41d-667b618c3fd5.jpg\"]","trial_type":"similarity","trial_index":171,"time_elapsed":1087045,"internal_node_id":"0.0-6.0-165.0"},{"sim_score":4,"rt":4877,"stimulus":"[\"img/0862/e0f1a4e9-e1b6-45f7-af67-89f334e6630d.jpg\",\"img/0860/61fb959d-d4d9-4de4-9e4e-4fa62b4cfcd5.jpg\"]","trial_type":"similarity","trial_index":172,"time_elapsed":1092926,"internal_node_id":"0.0-6.0-166.0"},{"sim_score":3,"rt":5065,"stimulus":"[\"img/0766/26d3ae14-8275-4e08-99b2-a6598c193ddf.jpg\",\"img/0901/a2d7b2f6-396b-4d91-8403-de5361c74af7.jpg\"]","trial_type":"similarity","trial_index":173,"time_elapsed":1098995,"internal_node_id":"0.0-6.0-167.0"},{"sim_score":7,"rt":4127,"stimulus":"[\"img/0862/53a9cf7c-93c4-41b9-952f-07d17f7a17b2.jpg\",\"img/0862/d0ca4c78-fc35-46ed-bdcc-8e124283c53e.jpg\"]","trial_type":"similarity","trial_index":174,"time_elapsed":1104127,"internal_node_id":"0.0-6.0-168.0"},{"sim_score":6,"rt":5364,"stimulus":"[\"img/0894/661b9f9f-4bde-487a-b1ed-87085fde6948.jpg\",\"img/0764/17b088f8-3053-4140-b544-d15654cc79ef.jpg\"]","trial_type":"similarity","trial_index":175,"time_elapsed":1110494,"internal_node_id":"0.0-6.0-169.0"},{"sim_score":4,"rt":5226,"stimulus":"[\"img/0874/ca23d307-fc00-4d7d-9106-584c6eb21b4d.jpg\",\"img/0898/79233891-305a-4a6a-8ddf-5c8604858203.jpg\"]","trial_type":"similarity","trial_index":176,"time_elapsed":1116724,"internal_node_id":"0.0-6.0-170.0"},{"sim_score":2,"rt":4593,"stimulus":"[\"img/0860/29a21a9f-54bb-4093-ad3f-04823ceaa89f.jpg\",\"img/0766/0025de5e-f620-4079-8a0f-00326ff3a6b0.jpg\"]","trial_type":"similarity","trial_index":177,"time_elapsed":1122321,"internal_node_id":"0.0-6.0-171.0"},{"sim_score":3,"rt":6817,"stimulus":"[\"img/0898/661621d4-a14e-487c-8c74-354134a29710.jpg\",\"img/0864/300bb811-8b3c-4c42-8653-6097c3725197.jpg\"]","trial_type":"similarity","trial_index":178,"time_elapsed":1130142,"internal_node_id":"0.0-6.0-172.0"},{"sim_score":3,"rt":5503,"stimulus":"[\"img/0881/ed4c971f-0873-4fc8-b6d6-e8bbd82f0bcc.jpg\",\"img/0764/21e3292f-01ad-4238-828b-61b817857d16.jpg\"]","trial_type":"similarity","trial_index":179,"time_elapsed":1136649,"internal_node_id":"0.0-6.0-173.0"},{"sim_score":1,"rt":4227,"stimulus":"[\"img/0898/40f99fb2-64d2-4e72-8a7f-a1cf60741e69.jpg\",\"img/0868/c8ac40c7-6904-4e13-8d61-c75d3052dc4e.jpg\"]","trial_type":"similarity","trial_index":180,"time_elapsed":1141880,"internal_node_id":"0.0-6.0-174.0"},{"sim_score":7,"rt":5435,"stimulus":"[\"img/0864/0f537697-a314-47c3-a8cc-8df23b7e536c.jpg\",\"img/0864/1d15626a-2f7c-410f-819c-0fa2c967e95e.jpg\"]","trial_type":"similarity","trial_index":181,"time_elapsed":1148320,"internal_node_id":"0.0-6.0-175.0"},{"sim_score":4,"rt":3266,"stimulus":"[\"img/0899/66ab3178-c3fe-4455-ad17-d5952b08e018.jpg\",\"img/0862/00c06b00-3b73-44e9-bc1e-c5aafb438321.jpg\"]","trial_type":"similarity","trial_index":182,"time_elapsed":1152589,"internal_node_id":"0.0-6.0-176.0"},{"sim_score":5,"rt":5381,"stimulus":"[\"img/0875/ebf7653f-ff45-4e9f-af58-2c042ab3cd2b.jpg\",\"img/0758/e38fd80d-18d0-42f3-b848-f930788e8bd7.jpg\"]","trial_type":"similarity","trial_index":183,"time_elapsed":1158974,"internal_node_id":"0.0-6.0-177.0"},{"sim_score":1,"rt":4533,"stimulus":"[\"img/0866/be24ab58-230e-4db8-9f45-ff04c9aec6bb.jpg\",\"img/0901/168eb52c-c415-43f1-b5c8-e76e1a1ec247.jpg\"]","trial_type":"similarity","trial_index":184,"time_elapsed":1164511,"internal_node_id":"0.0-6.0-178.0"},{"sim_score":2,"rt":3723,"stimulus":"[\"img/0769/ecda2fb3-556b-43ba-8a67-e87dd75ff2b4.jpg\",\"img/0874/a3bc679d-619f-4db6-bb68-116dcb757d9c.jpg\"]","trial_type":"similarity","trial_index":185,"time_elapsed":1169238,"internal_node_id":"0.0-6.0-179.0"},{"sim_score":2,"rt":6090,"stimulus":"[\"img/0875/34132396-d896-4c2d-8087-646dd867e769.jpg\",\"img/0881/405484ae-0d00-4b05-bc57-6420a36adfac.jpg\"]","trial_type":"similarity","trial_index":186,"time_elapsed":1176331,"internal_node_id":"0.0-6.0-180.0"},{"sim_score":7,"rt":5136,"stimulus":"[\"img/0866/8efcaa46-83ab-4dee-a35f-850402aa21ae.jpg\",\"img/0868/77091fc7-a590-4ebb-b915-fdb2483a2399.jpg\"]","trial_type":"similarity","trial_index":187,"time_elapsed":1182472,"internal_node_id":"0.0-6.0-181.0"},{"sim_score":1,"rt":4396,"stimulus":"[\"img/0899/7f9d45d0-b2c6-40d3-aa41-c207db2c411b.jpg\",\"img/0758/2fa3e613-e676-4e6e-bd12-705327eeb3e1.jpg\"]","trial_type":"similarity","trial_index":188,"time_elapsed":1187871,"internal_node_id":"0.0-6.0-182.0"},{"sim_score":4,"rt":7315,"stimulus":"[\"img/0874/1016b306-087c-4afc-aa08-fa527b28dc76.jpg\",\"img/0875/5a7c4e35-6514-4e12-8879-d16071da4cd6.jpg\"]","trial_type":"similarity","trial_index":189,"time_elapsed":1196190,"internal_node_id":"0.0-6.0-183.0"},{"sim_score":3,"rt":5040,"stimulus":"[\"img/0904/9b3568cc-3cf7-42be-9df3-fdafde7a58b8.jpg\",\"img/0862/24cdc752-c2e5-4a17-86a6-6f2045d8553b.jpg\"]","trial_type":"similarity","trial_index":190,"time_elapsed":1202234,"internal_node_id":"0.0-6.0-184.0"},{"sim_score":5,"rt":3640,"stimulus":"[\"img/0902/3f0eeac5-c996-4026-a376-563ce8f28521.jpg\",\"img/0766/2e1cf445-9aef-40e7-92f4-5facf48b64c5.jpg\"]","trial_type":"similarity","trial_index":191,"time_elapsed":1206878,"internal_node_id":"0.0-6.0-185.0"},{"sim_score":3,"rt":6855,"stimulus":"[\"img/0758/eabcd7a8-56ad-4fd2-bc24-90f6b7b33265.jpg\",\"img/0769/a3cfbdeb-acb3-4eac-87fb-4b117f42d4f8.jpg\"]","trial_type":"similarity","trial_index":192,"time_elapsed":1214737,"internal_node_id":"0.0-6.0-186.0"},{"sim_score":7,"rt":4924,"stimulus":"[\"img/0881/e046471a-35b4-4159-bbf7-3cfd201bef66.jpg\",\"img/0881/33d65d80-8a8e-4ecf-852d-0ad7725c17a2.jpg\"]","trial_type":"similarity","trial_index":193,"time_elapsed":1220665,"internal_node_id":"0.0-6.0-187.0"},{"sim_score":5,"rt":8967,"stimulus":"[\"img/0758/65d426d6-3ff6-415d-8654-a43b83ecc4fe.jpg\",\"img/0866/4a87911a-d5be-4d4e-ab8e-3d1f581bf507.jpg\"]","trial_type":"similarity","trial_index":194,"time_elapsed":1230636,"internal_node_id":"0.0-6.0-188.0"},{"sim_score":5,"rt":5118,"stimulus":"[\"img/0764/713cc27e-2338-4486-bfe9-5f5725fbd7a0.jpg\",\"img/0898/f3a3f225-1248-4ac7-b93b-f0ff28485bf3.jpg\"]","trial_type":"similarity","trial_index":195,"time_elapsed":1238742,"internal_node_id":"0.0-6.0-189.0"},{"sim_score":6,"rt":5861,"stimulus":"[\"img/0903/ea75f240-fb62-4edb-a709-83e858b202c0.jpg\",\"img/0901/b9141736-3041-4385-a586-b1fe911c76a5.jpg\"]","trial_type":"similarity","trial_index":196,"time_elapsed":1245606,"internal_node_id":"0.0-6.0-190.0"},{"sim_score":6,"rt":4959,"stimulus":"[\"img/0902/2a7ac123-414a-476a-9a96-4757b924baef.jpg\",\"img/0898/08c72dac-f8ad-407a-9ce6-8c9a5d679c3a.jpg\"]","trial_type":"similarity","trial_index":197,"time_elapsed":1251569,"internal_node_id":"0.0-6.0-191.0"},{"sim_score":3,"rt":4773,"stimulus":"[\"img/0864/6f631579-acf1-415c-a42c-1207f62a8d99.jpg\",\"img/0901/da4fe30f-d12a-491e-96a2-5ab8ebaadd09.jpg\"]","trial_type":"similarity","trial_index":198,"time_elapsed":1257346,"internal_node_id":"0.0-6.0-192.0"},{"sim_score":3,"rt":3519,"stimulus":"[\"img/0894/38cf335f-f76f-4349-8d65-e20cd6859565.jpg\",\"img/0881/d373cb9f-a719-4549-a2a4-82def79fb2a5.jpg\"]","trial_type":"similarity","trial_index":199,"time_elapsed":1261869,"internal_node_id":"0.0-6.0-193.0"},{"sim_score":6,"rt":4037,"stimulus":"[\"img/0868/4e626425-63c8-484a-8a1d-e66ee4e0bef8.jpg\",\"img/0868/0d3abd3a-b6c3-4584-a9f7-e2da63748b3d.jpg\"]","trial_type":"similarity","trial_index":200,"time_elapsed":1266909,"internal_node_id":"0.0-6.0-194.0"},{"sim_score":5,"rt":6079,"stimulus":"[\"img/0899/0433d056-aa30-4f8a-9aa1-abbb951e4edd.jpg\",\"img/0764/4eff630a-6426-4f8d-b2ba-b4d9842a0962.jpg\"]","trial_type":"similarity","trial_index":201,"time_elapsed":1273993,"internal_node_id":"0.0-6.0-195.0"},{"sim_score":2,"rt":7516,"stimulus":"[\"img/0881/f037e3b0-09cb-4a83-b2d9-6a71fe474e63.jpg\",\"img/0904/4d7d70a3-9477-4921-bda0-f9531d0a5c5b.jpg\"]","trial_type":"similarity","trial_index":202,"time_elapsed":1282513,"internal_node_id":"0.0-6.0-196.0"},{"sim_score":3,"rt":5704,"stimulus":"[\"img/0864/e8bd659f-aa43-4748-877e-3118e8b4e189.jpg\",\"img/0902/d3e55000-c839-4bf9-9b9b-4af0a9925af1.jpg\"]","trial_type":"similarity","trial_index":203,"time_elapsed":1289220,"internal_node_id":"0.0-6.0-197.0"},{"sim_score":6,"rt":6360,"stimulus":"[\"img/0894/767a0eec-1064-46b1-b1aa-dfa02b0cd74e.jpg\",\"img/0904/4b8daf2a-13a9-4ea9-9e0b-b265b6e933e7.jpg\"]","trial_type":"similarity","trial_index":204,"time_elapsed":1296584,"internal_node_id":"0.0-6.0-198.0"},{"sim_score":7,"rt":2991,"stimulus":"[\"img/0901/f469cb1d-6d81-4a45-bab5-cd0b650c2b4f.jpg\",\"img/0901/5657dd86-0ff9-4753-ba2b-9dfb223e5c89.jpg\"]","trial_type":"similarity","trial_index":205,"time_elapsed":1300579,"internal_node_id":"0.0-6.0-199.0"},{"sim_score":2,"rt":4517,"stimulus":"[\"img/0894/8cadb87a-7001-4e47-99fb-1867bebf1668.jpg\",\"img/0860/e14d67c1-6d92-4f1e-9257-c8607159c19c.jpg\"]","trial_type":"similarity","trial_index":206,"time_elapsed":1306100,"internal_node_id":"0.0-6.0-200.0"},{"sim_score":6,"rt":3619,"stimulus":"[\"img/0898/c3cecf20-f7fd-45fa-97d0-dc0a63e8d6c0.jpg\",\"img/0903/72197c2b-403e-4a26-b391-f1aa8dea4b76.jpg\"]","trial_type":"similarity","trial_index":207,"time_elapsed":1310723,"internal_node_id":"0.0-6.0-201.0"},{"sim_score":2,"rt":2915,"stimulus":"[\"img/0864/5f33e097-23e3-4002-882d-76e8cb15f451.jpg\",\"img/0894/b422d5c6-3c5a-49ae-a53e-7e88ac993f49.jpg\"]","trial_type":"similarity","trial_index":208,"time_elapsed":1314642,"internal_node_id":"0.0-6.0-202.0"},{"sim_score":5,"rt":4830,"stimulus":"[\"img/0874/c0378dac-9370-439a-8b79-db27c96fb390.jpg\",\"img/0860/c7047cd2-7cc1-41b6-8a34-c0986774975f.jpg\"]","trial_type":"similarity","trial_index":209,"time_elapsed":1320476,"internal_node_id":"0.0-6.0-203.0"},{"sim_score":4,"rt":4873,"stimulus":"[\"img/0862/f43ceabf-acc1-4107-b857-5d1849808f93.jpg\",\"img/0875/2e13d160-eea1-416b-aff1-d37ab99ecc1d.jpg\"]","trial_type":"similarity","trial_index":210,"time_elapsed":1326352,"internal_node_id":"0.0-6.0-204.0"},{"sim_score":4,"rt":4741,"stimulus":"[\"img/0867/5e07b34d-b40f-4b1c-ac10-49975bace45f.jpg\",\"img/0881/609a5e93-38b5-4940-8627-2bf8fad7f802.jpg\"]","trial_type":"similarity","trial_index":211,"time_elapsed":1332097,"internal_node_id":"0.0-6.0-205.0"},{"sim_score":6,"rt":6085,"stimulus":"[\"img/0901/1ede21d9-384f-4150-86b5-e1c57b5dc1d4.jpg\",\"img/0902/31abfa33-7cdb-44ad-968e-9f7b324d577a.jpg\"]","trial_type":"similarity","trial_index":212,"time_elapsed":1339186,"internal_node_id":"0.0-6.0-206.0"},{"sim_score":3,"rt":5023,"stimulus":"[\"img/0899/0e1d936a-dbe2-4afc-9f19-7b7a1ae6c9ed.jpg\",\"img/0864/b3c4e378-28f0-4699-9338-2a257b4bca04.jpg\"]","trial_type":"similarity","trial_index":213,"time_elapsed":1345213,"internal_node_id":"0.0-6.0-207.0"},{"sim_score":6,"rt":3163,"stimulus":"[\"img/0901/58978a6d-a3e2-4c59-8d62-f60693ecc0f6.jpg\",\"img/0769/3adfa417-3b90-4aab-b437-5eaa474189cb.jpg\"]","trial_type":"similarity","trial_index":214,"time_elapsed":1349380,"internal_node_id":"0.0-6.0-208.0"},{"sim_score":7,"rt":6075,"stimulus":"[\"img/0902/1a120fb9-dbd6-443e-ba91-b4aceab963da.jpg\",\"img/0902/27b84584-948a-485b-8749-cb09929ef631.jpg\"]","trial_type":"similarity","trial_index":215,"time_elapsed":1356459,"internal_node_id":"0.0-6.0-209.0"},{"view_history":"[{\"page_index\":0,\"viewing_time\":5382}]","rt":5382,"trial_type":"instructions","trial_index":216,"time_elapsed":1362842,"internal_node_id":"0.0-7.0"},{"rt":21772,"responses":"{\"Q0\":\"Nashville Warbler\"}","answer":["Nashville Warbler"],"trial_type":"image-multi-choice","trial_index":217,"time_elapsed":1385629,"internal_node_id":"0.0-8.0-0.0"},{"rt":7960,"responses":"{\"Q0\":\"Black-and-white Warbler\"}","answer":["Black-and-white Warbler"],"trial_type":"image-multi-choice","trial_index":218,"time_elapsed":1394600,"internal_node_id":"0.0-8.0-1.0"},{"rt":14139,"responses":"{\"Q0\":\"Townsend's Warbler\"}","answer":["Townsend's Warbler"],"trial_type":"image-multi-choice","trial_index":219,"time_elapsed":1409752,"internal_node_id":"0.0-8.0-2.0"},{"rt":5758,"responses":"{\"Q0\":\"Lark Sparrow\"}","answer":["Lark Sparrow"],"trial_type":"image-multi-choice","trial_index":220,"time_elapsed":1416522,"internal_node_id":"0.0-8.0-3.0"},{"rt":3922,"responses":"{\"Q0\":\"Yellow Warbler\"}","answer":["Yellow Warbler"],"trial_type":"image-multi-choice","trial_index":221,"time_elapsed":1421455,"internal_node_id":"0.0-8.0-4.0"},{"rt":5938,"responses":"{\"Q0\":\"Orange-crowned Warbler\"}","answer":["Orange-crowned Warbler"],"trial_type":"image-multi-choice","trial_index":222,"time_elapsed":1428403,"internal_node_id":"0.0-8.0-5.0"},{"rt":4619,"responses":"{\"Q0\":\"White-throated Sparrow\"}","answer":["White-throated Sparrow"],"trial_type":"image-multi-choice","trial_index":223,"time_elapsed":1434035,"internal_node_id":"0.0-8.0-6.0"},{"rt":4919,"responses":"{\"Q0\":\"Fox Sparrow\"}","answer":["Fox Sparrow"],"trial_type":"image-multi-choice","trial_index":224,"time_elapsed":1439965,"internal_node_id":"0.0-8.0-7.0"},{"rt":5508,"responses":"{\"Q0\":\"Vesper Sparrow\"}","answer":["Song Sparrow"],"trial_type":"image-multi-choice","trial_index":225,"time_elapsed":1446484,"internal_node_id":"0.0-8.0-8.0"},{"rt":30890,"responses":"{\"Q0\":\"Blackburnian Warbler\"}","answer":["Blackburnian Warbler"],"trial_type":"image-multi-choice","trial_index":226,"time_elapsed":1478385,"internal_node_id":"0.0-8.0-9.0"},{"rt":19374,"responses":"{\"Q0\":\"Lincoln's Sparrow\"}","answer":["Vesper Sparrow"],"trial_type":"image-multi-choice","trial_index":227,"time_elapsed":1498768,"internal_node_id":"0.0-8.0-10.0"},{"rt":3499,"responses":"{\"Q0\":\"White-crowned Sparrow\"}","answer":["White-crowned Sparrow"],"trial_type":"image-multi-choice","trial_index":228,"time_elapsed":1503279,"internal_node_id":"0.0-8.0-11.0"},{"rt":14358,"responses":"{\"Q0\":\"American Tree Sparrow\"}","answer":["American Tree Sparrow"],"trial_type":"image-multi-choice","trial_index":229,"time_elapsed":1518648,"internal_node_id":"0.0-8.0-12.0"},{"rt":21885,"responses":"{\"Q0\":\"Tennessee Warbler\"}","answer":["Tennessee Warbler"],"trial_type":"image-multi-choice","trial_index":230,"time_elapsed":1541543,"internal_node_id":"0.0-8.0-13.0"},{"rt":5132,"responses":"{\"Q0\":\"Magnolia Warbler\"}","answer":["Magnolia Warbler"],"trial_type":"image-multi-choice","trial_index":231,"time_elapsed":1547685,"internal_node_id":"0.0-8.0-14.0"},{"rt":9230,"responses":"{\"Q0\":\"Northern Waterthrush\"}","answer":["Northern Waterthrush"],"trial_type":"image-multi-choice","trial_index":232,"time_elapsed":1557926,"internal_node_id":"0.0-8.0-15.0"},{"rt":11327,"responses":"{\"Q0\":\"Chipping Sparrow\"}","answer":["Chipping Sparrow"],"trial_type":"image-multi-choice","trial_index":233,"time_elapsed":1570264,"internal_node_id":"0.0-8.0-16.0"},{"rt":5839,"responses":"{\"Q0\":\"Swamp Sparrow\"}","answer":["Swamp Sparrow"],"trial_type":"image-multi-choice","trial_index":234,"time_elapsed":1577115,"internal_node_id":"0.0-8.0-17.0"},{"rt":46661,"responses":"{\"Q0\":\"Song Sparrow\"}","answer":["Lincoln's Sparrow"],"trial_type":"image-multi-choice","trial_index":235,"time_elapsed":1624788,"internal_node_id":"0.0-8.0-18.0"},{"rt":4096,"responses":"{\"Q0\":\"Ovenbird\"}","answer":["Ovenbird"],"trial_type":"image-multi-choice","trial_index":236,"time_elapsed":1629896,"internal_node_id":"0.0-8.0-19.0"}]