[{"view_history":"[{\"page_index\":0,\"viewing_time\":20104}]","rt":20104,"trial_type":"instructions","trial_index":0,"time_elapsed":20105,"internal_node_id":"0.0-0.0"},{"sim_score":3,"rt":8879,"stimulus":"[\"img/866.jpg\",\"img/868.jpg\"]","trial_type":"similarity_demo","trial_index":1,"time_elapsed":29992,"internal_node_id":"0.0-1.0"},{"view_history":"[{\"page_index\":0,\"viewing_time\":18526}]","rt":18527,"trial_type":"instructions","trial_index":2,"time_elapsed":49521,"internal_node_id":"0.0-2.0"},{"sim_score":2,"rt":5667,"stimulus":"[\"img/766.jpg\",\"img/867.jpg\"]","trial_type":"similarity_demo","trial_index":3,"time_elapsed":56194,"internal_node_id":"0.0-3.0"},{"view_history":"[{\"page_index\":0,\"viewing_time\":8728}]","rt":8728,"trial_type":"instructions","trial_index":4,"time_elapsed":65923,"internal_node_id":"0.0-4.0"},{"view_history":"[{\"page_index\":0,\"viewing_time\":23129}]","rt":23130,"trial_type":"instructions","trial_index":5,"time_elapsed":90055,"internal_node_id":"0.0-5.0"},{"sim_score":2,"rt":4339,"stimulus":"[\"img/0868/0d3abd3a-b6c3-4584-a9f7-e2da63748b3d.jpg\",\"img/0901/0adb3bd6-d758-4ba7-9723-3ad6cac05bd5.jpg\"]","trial_type":"similarity","trial_index":6,"time_elapsed":95401,"internal_node_id":"0.0-6.0-0.0"},{"sim_score":2,"rt":4168,"stimulus":"[\"img/0769/387a9744-d6a7-42b8-bab8-33007ec434aa.jpg\",\"img/0867/a749dddb-69f0-44a6-acdc-2bf295cf6dcc.jpg\"]","trial_type":"similarity","trial_index":7,"time_elapsed":100574,"internal_node_id":"0.0-6.0-1.0"},{"sim_score":2,"rt":2956,"stimulus":"[\"img/0766/75c3d627-4f3b-40d5-9d9c-10c8a62db644.jpg\",\"img/0898/82231d4c-218b-4d0a-b50d-35a49b524e97.jpg\"]","trial_type":"similarity","trial_index":8,"time_elapsed":104534,"internal_node_id":"0.0-6.0-2.0"},{"sim_score":3,"rt":3080,"stimulus":"[\"img/0902/ca3160ba-ad5d-459f-a1b6-8b4f3c85ecd5.jpg\",\"img/0881/b1a136f7-8511-4d3a-a0f6-3879acf1e1a1.jpg\"]","trial_type":"similarity","trial_index":9,"time_elapsed":108619,"internal_node_id":"0.0-6.0-3.0"},{"sim_score":5,"rt":4765,"stimulus":"[\"img/0894/792c83e9-a747-4000-bc72-5663d2439edb.jpg\",\"img/0894/b2d2f66e-e480-46da-a02a-6d0c6b285d78.jpg\"]","trial_type":"similarity","trial_index":10,"time_elapsed":114390,"internal_node_id":"0.0-6.0-4.0"},{"sim_score":3,"rt":5587,"stimulus":"[\"img/0874/8cdb1c07-1c32-46d2-981c-3636560fa6e5.jpg\",\"img/0899/d60714ae-98d7-4564-8c98-94dba1351135.jpg\"]","trial_type":"similarity","trial_index":11,"time_elapsed":120983,"internal_node_id":"0.0-6.0-5.0"},{"sim_score":2,"rt":5227,"stimulus":"[\"img/0904/a8c3c7d2-9bcf-4347-9e03-8203adfc1fc5.jpg\",\"img/0764/b328441c-f81c-486c-9eae-b947c70ba7cd.jpg\"]","trial_type":"similarity","trial_index":12,"time_elapsed":127214,"internal_node_id":"0.0-6.0-6.0"},{"sim_score":3,"rt":4589,"stimulus":"[\"img/0899/b45c550b-96c3-4255-ad59-48a2b4db1c1e.jpg\",\"img/0898/0af304a2-6a7a-4082-ab7c-4450cd08cc58.jpg\"]","trial_type":"similarity","trial_index":13,"time_elapsed":132806,"internal_node_id":"0.0-6.0-7.0"},{"sim_score":3,"rt":3519,"stimulus":"[\"img/0874/eba003b4-cdab-4eee-8bc3-f064c7d94165.jpg\",\"img/0903/2c7b4aed-6038-4aac-958a-e3e58341c313.jpg\"]","trial_type":"similarity","trial_index":14,"time_elapsed":137329,"internal_node_id":"0.0-6.0-8.0"},{"sim_score":2,"rt":3911,"stimulus":"[\"img/0881/f7a8cc63-8842-40a4-9ff8-fe530310d62c.jpg\",\"img/0758/a709631e-3705-4725-ac40-f0d916924f08.jpg\"]","trial_type":"similarity","trial_index":15,"time_elapsed":142245,"internal_node_id":"0.0-6.0-9.0"},{"sim_score":2,"rt":3855,"stimulus":"[\"img/0898/79233891-305a-4a6a-8ddf-5c8604858203.jpg\",\"img/0901/233a6948-48eb-4b67-8259-222b916b2322.jpg\"]","trial_type":"similarity","trial_index":16,"time_elapsed":147105,"internal_node_id":"0.0-6.0-10.0"},{"sim_score":2,"rt":3227,"stimulus":"[\"img/0903/97a42b34-5462-4665-88c7-83c014b33d24.jpg\",\"img/0769/9ea27d61-3d55-418c-8d14-82e90f656f01.jpg\"]","trial_type":"similarity","trial_index":17,"time_elapsed":151336,"internal_node_id":"0.0-6.0-11.0"},{"sim_score":2,"rt":4080,"stimulus":"[\"img/0764/713cc27e-2338-4486-bfe9-5f5725fbd7a0.jpg\",\"img/0868/c8ac40c7-6904-4e13-8d61-c75d3052dc4e.jpg\"]","trial_type":"similarity","trial_index":18,"time_elapsed":156419,"internal_node_id":"0.0-6.0-12.0"},{"sim_score":2,"rt":3192,"stimulus":"[\"img/0867/2e1a0b58-cdb1-4107-a14e-452530d7b9b0.jpg\",\"img/0903/5248eedd-7e6a-4d39-91b0-06ec227f3ed0.jpg\"]","trial_type":"similarity","trial_index":19,"time_elapsed":160615,"internal_node_id":"0.0-6.0-13.0"},{"sim_score":2,"rt":3690,"stimulus":"[\"img/0766/fd064894-7147-4af5-97e9-2089d5472656.jpg\",\"img/0758/e1ba5e53-addc-436a-b428-d34fc1b130dc.jpg\"]","trial_type":"similarity","trial_index":20,"time_elapsed":165308,"internal_node_id":"0.0-6.0-14.0"},{"sim_score":3,"rt":3764,"stimulus":"[\"img/0902/af45fe42-178c-4c1a-99ef-256e87e3b092.jpg\",\"img/0860/8277806e-b684-4474-8f7b-3fca946d7d4f.jpg\"]","trial_type":"similarity","trial_index":21,"time_elapsed":170077,"internal_node_id":"0.0-6.0-15.0"},{"sim_score":2,"rt":3812,"stimulus":"[\"img/0769/d1be2815-fa79-46e8-b5c3-7d81caaca490.jpg\",\"img/0875/a4935837-7d3c-4df6-88c1-36a94d4991ca.jpg\"]","trial_type":"similarity","trial_index":22,"time_elapsed":174892,"internal_node_id":"0.0-6.0-16.0"},{"sim_score":2,"rt":3440,"stimulus":"[\"img/0904/b7c2a2c8-df33-4473-b3d4-ff7147c60db3.jpg\",\"img/0866/0207e9a2-7dbb-40b5-9459-b472aaeceb2a.jpg\"]","trial_type":"similarity","trial_index":23,"time_elapsed":179337,"internal_node_id":"0.0-6.0-17.0"},{"sim_score":6,"rt":5497,"stimulus":"[\"img/0875/99698b4d-b4a1-44bc-8c83-8ea755bbbf61.jpg\",\"img/0875/42910c99-5463-450a-a0f8-d4d060a11455.jpg\"]","trial_type":"similarity","trial_index":24,"time_elapsed":185838,"internal_node_id":"0.0-6.0-18.0"},{"sim_score":6,"rt":5163,"stimulus":"[\"img/0758/f61ecdf8-a7d4-4db0-b84d-be46f7cfaffc.jpg\",\"img/0758/eabcd7a8-56ad-4fd2-bc24-90f6b7b33265.jpg\"]","trial_type":"similarity","trial_index":25,"time_elapsed":192004,"internal_node_id":"0.0-6.0-19.0"},{"sim_score":2,"rt":3405,"stimulus":"[\"img/0902/c018bd7a-d91a-4192-aea4-7259cfcdb6c4.jpg\",\"img/0874/ca76a855-4e77-4f2f-872a-0a718153e7ed.jpg\"]","trial_type":"similarity","trial_index":26,"time_elapsed":196414,"internal_node_id":"0.0-6.0-20.0"},{"sim_score":6,"rt":8052,"stimulus":"[\"img/0764/952d7adc-dc40-4aee-acce-18c2a1d02ea1.jpg\",\"img/0769/4680bcc3-8fbc-4643-8f9a-12aa0e780b64.jpg\"]","trial_type":"similarity","trial_index":27,"time_elapsed":205469,"internal_node_id":"0.0-6.0-21.0"},{"sim_score":2,"rt":3611,"stimulus":"[\"img/0901/7d4a3388-488d-4e9b-9d32-9d0def7aae8d.jpg\",\"img/0874/767f289c-9814-4496-803f-745cc8913d1f.jpg\"]","trial_type":"similarity","trial_index":28,"time_elapsed":210082,"internal_node_id":"0.0-6.0-22.0"},{"sim_score":2,"rt":4069,"stimulus":"[\"img/0875/2e13d160-eea1-416b-aff1-d37ab99ecc1d.jpg\",\"img/0903/470acfd5-5571-4a7b-b3a4-28d87e098138.jpg\"]","trial_type":"similarity","trial_index":29,"time_elapsed":215156,"internal_node_id":"0.0-6.0-23.0"},{"sim_score":2,"rt":4069,"stimulus":"[\"img/0769/3c1203c5-2ce7-466e-957a-8d77b5905460.jpg\",\"img/0881/62a64f90-7a72-4aee-a1a1-0c548ac9bdda.jpg\"]","trial_type":"similarity","trial_index":30,"time_elapsed":220230,"internal_node_id":"0.0-6.0-24.0"},{"sim_score":2,"rt":3159,"stimulus":"[\"img/0867/8ba0c5a7-c7e4-42cf-a80a-543763b90779.jpg\",\"img/0904/b5855d6a-7ef9-46ca-9215-6e9fa046e543.jpg\"]","trial_type":"similarity","trial_index":31,"time_elapsed":224393,"internal_node_id":"0.0-6.0-25.0"},{"sim_score":2,"rt":3315,"stimulus":"[\"img/0860/99c589b9-9140-4d17-90c0-b344323edcda.jpg\",\"img/0881/0c7068da-d0d9-4103-bda1-74ef7a2b32c3.jpg\"]","trial_type":"similarity","trial_index":32,"time_elapsed":228713,"internal_node_id":"0.0-6.0-26.0"},{"sim_score":2,"rt":7758,"stimulus":"[\"img/0866/386235d2-6857-41e7-88a8-25cfc3430025.jpg\",\"img/0866/93a27239-8317-4e08-98ca-d8b1ff298e07.jpg\"]","trial_type":"similarity","trial_index":33,"time_elapsed":237476,"internal_node_id":"0.0-6.0-27.0"},{"sim_score":2,"rt":3294,"stimulus":"[\"img/0764/17b088f8-3053-4140-b544-d15654cc79ef.jpg\",\"img/0862/f23038d4-c366-4f70-979f-66b62362efa4.jpg\"]","trial_type":"similarity","trial_index":34,"time_elapsed":241773,"internal_node_id":"0.0-6.0-28.0"},{"sim_score":2,"rt":2900,"stimulus":"[\"img/0904/696ebb60-8891-417a-91fd-c53218907a95.jpg\",\"img/0758/d41c06bf-ebaf-454b-91c6-1a17f917b659.jpg\"]","trial_type":"similarity","trial_index":35,"time_elapsed":245677,"internal_node_id":"0.0-6.0-29.0"},{"sim_score":5,"rt":5780,"stimulus":"[\"img/0894/6b2e9509-8699-42b7-9582-7741df0ba2d7.jpg\",\"img/0899/66bf4113-ee12-426c-84d2-ea410b6c803e.jpg\"]","trial_type":"similarity","trial_index":36,"time_elapsed":252461,"internal_node_id":"0.0-6.0-30.0"},{"sim_score":2,"rt":3800,"stimulus":"[\"img/0860/61fb959d-d4d9-4de4-9e4e-4fa62b4cfcd5.jpg\",\"img/0904/d23dd7be-7fe8-4435-82f7-bd592c01e6a1.jpg\"]","trial_type":"similarity","trial_index":37,"time_elapsed":257265,"internal_node_id":"0.0-6.0-31.0"},{"sim_score":6,"rt":4969,"stimulus":"[\"img/0874/99f6563c-8a8d-4c1c-a41d-667b618c3fd5.jpg\",\"img/0881/1407b85b-a1c6-45b1-9884-3b24203efadb.jpg\"]","trial_type":"similarity","trial_index":38,"time_elapsed":263239,"internal_node_id":"0.0-6.0-32.0"},{"sim_score":2,"rt":4136,"stimulus":"[\"img/0881/566f45f8-5fed-4479-a60f-26377e60a62d.jpg\",\"img/0899/0433d056-aa30-4f8a-9aa1-abbb951e4edd.jpg\"]","trial_type":"similarity","trial_index":39,"time_elapsed":268380,"internal_node_id":"0.0-6.0-33.0"},{"sim_score":3,"rt":7851,"stimulus":"[\"img/0866/a15b02be-11bb-43e3-b0e0-ecc3bd7dfc49.jpg\",\"img/0862/eefa5588-9efd-4591-aa5f-a2e17c7d7bcc.jpg\"]","trial_type":"similarity","trial_index":40,"time_elapsed":277234,"internal_node_id":"0.0-6.0-34.0"},{"sim_score":2,"rt":4316,"stimulus":"[\"img/0868/e0aff734-077f-40dd-9781-74821abd3621.jpg\",\"img/0894/661b9f9f-4bde-487a-b1ed-87085fde6948.jpg\"]","trial_type":"similarity","trial_index":41,"time_elapsed":282555,"internal_node_id":"0.0-6.0-35.0"},{"sim_score":6,"rt":5408,"stimulus":"[\"img/0860/71e1aad0-2cdf-43bb-94a4-a8c016997c30.jpg\",\"img/0860/c3379ff7-0763-48fe-a1ec-7ea3d611bc7a.jpg\"]","trial_type":"similarity","trial_index":42,"time_elapsed":288968,"internal_node_id":"0.0-6.0-36.0"},{"sim_score":2,"rt":5217,"stimulus":"[\"img/0862/e0f1a4e9-e1b6-45f7-af67-89f334e6630d.jpg\",\"img/0864/6f631579-acf1-415c-a42c-1207f62a8d99.jpg\"]","trial_type":"similarity","trial_index":43,"time_elapsed":295189,"internal_node_id":"0.0-6.0-37.0"},{"sim_score":2,"rt":5217,"stimulus":"[\"img/0766/91fc8c4d-862f-4d2b-b1a1-2db8d729b6b7.jpg\",\"img/0866/11a1d141-be5e-443c-98c1-a9d4d9e3dec0.jpg\"]","trial_type":"similarity","trial_index":44,"time_elapsed":301411,"internal_node_id":"0.0-6.0-38.0"},{"sim_score":2,"rt":3788,"stimulus":"[\"img/0875/2c361b79-c3d1-4eda-812e-bf03192407bf.jpg\",\"img/0898/993d8f2d-bef7-4251-a193-0f93a32b7763.jpg\"]","trial_type":"similarity","trial_index":45,"time_elapsed":306203,"internal_node_id":"0.0-6.0-39.0"},{"sim_score":6,"rt":3642,"stimulus":"[\"img/0766/2e1cf445-9aef-40e7-92f4-5facf48b64c5.jpg\",\"img/0769/35f2dd39-40aa-498e-b401-9f1ef2622d00.jpg\"]","trial_type":"similarity","trial_index":46,"time_elapsed":310849,"internal_node_id":"0.0-6.0-40.0"},{"sim_score":6,"rt":5632,"stimulus":"[\"img/0874/adf9a8f1-c40b-402b-b95b-1e85a54a7b62.jpg\",\"img/0764/5d6fa3ce-9083-410c-bbdb-336a49b94cfc.jpg\"]","trial_type":"similarity","trial_index":47,"time_elapsed":336847,"internal_node_id":"0.0-6.0-41.0"},{"sim_score":2,"rt":4341,"stimulus":"[\"img/0868/d6d1f30d-4323-435a-b194-7892521bc57e.jpg\",\"img/0902/aa6fca32-82b0-4414-b20a-8f6f8aa5a2d2.jpg\"]","trial_type":"similarity","trial_index":48,"time_elapsed":342192,"internal_node_id":"0.0-6.0-42.0"},{"sim_score":2,"rt":3720,"stimulus":"[\"img/0875/34132396-d896-4c2d-8087-646dd867e769.jpg\",\"img/0899/76ad07e2-ca25-45eb-84f2-8d80b8ca3e26.jpg\"]","trial_type":"similarity","trial_index":49,"time_elapsed":346917,"internal_node_id":"0.0-6.0-43.0"},{"sim_score":2,"rt":3967,"stimulus":"[\"img/0866/be24ab58-230e-4db8-9f45-ff04c9aec6bb.jpg\",\"img/0860/524b2e98-5767-4d53-942c-ebae6925659b.jpg\"]","trial_type":"similarity","trial_index":50,"time_elapsed":351889,"internal_node_id":"0.0-6.0-44.0"},{"sim_score":6,"rt":3564,"stimulus":"[\"img/0766/989c5c7f-1aff-4442-ac63-9d46acf4a891.jpg\",\"img/0903/ea75f240-fb62-4edb-a709-83e858b202c0.jpg\"]","trial_type":"similarity","trial_index":51,"time_elapsed":356456,"internal_node_id":"0.0-6.0-45.0"},{"sim_score":6,"rt":3778,"stimulus":"[\"img/0901/08d6d1d1-c043-43c4-bb08-d45e062822b9.jpg\",\"img/0904/5aec2708-cf14-4a58-aa30-9a8a61c1be0e.jpg\"]","trial_type":"similarity","trial_index":52,"time_elapsed":361238,"internal_node_id":"0.0-6.0-46.0"},{"sim_score":6,"rt":3809,"stimulus":"[\"img/0758/ddc336e9-a8b6-4bb9-937a-c7e25e0e9250.jpg\",\"img/0902/40d0b6ec-3907-4573-b227-e7d8e9cad1c3.jpg\"]","trial_type":"similarity","trial_index":53,"time_elapsed":366053,"internal_node_id":"0.0-6.0-47.0"},{"sim_score":6,"rt":4788,"stimulus":"[\"img/0764/8389e74f-e0e0-435d-945f-da1f4c92ccb6.jpg\",\"img/0764/4bec8d92-75aa-475a-954d-8215dbe538f5.jpg\"]","trial_type":"similarity","trial_index":54,"time_elapsed":371847,"internal_node_id":"0.0-6.0-48.0"},{"sim_score":2,"rt":3653,"stimulus":"[\"img/0866/6f2a90d7-14f1-4f1b-bd64-fc0af6b9fe44.jpg\",\"img/0902/27b84584-948a-485b-8749-cb09929ef631.jpg\"]","trial_type":"similarity","trial_index":55,"time_elapsed":376504,"internal_node_id":"0.0-6.0-49.0"},{"sim_score":2,"rt":4711,"stimulus":"[\"img/0764/1f95ab5f-fb65-4d70-b5db-d6bd6351a8aa.jpg\",\"img/0758/53f35650-e455-4b53-8be4-c3c8271c6466.jpg\"]","trial_type":"similarity","trial_index":56,"time_elapsed":382219,"internal_node_id":"0.0-6.0-50.0"},{"sim_score":5,"rt":4779,"stimulus":"[\"img/0898/40f99fb2-64d2-4e72-8a7f-a1cf60741e69.jpg\",\"img/0894/38cf335f-f76f-4349-8d65-e20cd6859565.jpg\"]","trial_type":"similarity","trial_index":57,"time_elapsed":388002,"internal_node_id":"0.0-6.0-51.0"},{"sim_score":6,"rt":4373,"stimulus":"[\"img/0875/ebf7653f-ff45-4e9f-af58-2c042ab3cd2b.jpg\",\"img/0866/bf14b5bd-fb55-47db-86b9-4f8aeb9a6dad.jpg\"]","trial_type":"similarity","trial_index":58,"time_elapsed":393379,"internal_node_id":"0.0-6.0-52.0"},{"sim_score":6,"rt":3845,"stimulus":"[\"img/0904/2fd488e9-960f-41f7-8a44-33375f7d5051.jpg\",\"img/0904/0d17b811-063e-416e-a23c-3b3cfa4fcce5.jpg\"]","trial_type":"similarity","trial_index":59,"time_elapsed":398229,"internal_node_id":"0.0-6.0-53.0"},{"sim_score":6,"rt":3719,"stimulus":"[\"img/0769/50985283-d353-4abc-9abe-14a91d56ebe6.jpg\",\"img/0769/04347740-f8f6-48bb-887a-f68babd0a0d4.jpg\"]","trial_type":"similarity","trial_index":60,"time_elapsed":402953,"internal_node_id":"0.0-6.0-54.0"},{"sim_score":2,"rt":4948,"stimulus":"[\"img/0898/224c1572-56b9-4f16-a9e4-6f3bc9c114bd.jpg\",\"img/0758/d540bee6-b460-4c32-ac57-bc282742d7d4.jpg\"]","trial_type":"similarity","trial_index":61,"time_elapsed":408905,"internal_node_id":"0.0-6.0-55.0"},{"sim_score":5,"rt":5644,"stimulus":"[\"img/0769/c7cfacc3-7f07-46ff-9f5d-8073f4c4679b.jpg\",\"img/0902/6730b12a-f0a7-4587-8c10-a32fae16565b.jpg\"]","trial_type":"similarity","trial_index":62,"time_elapsed":415554,"internal_node_id":"0.0-6.0-56.0"},{"sim_score":2,"rt":5880,"stimulus":"[\"img/0864/1ebbc554-99fa-49f9-8799-317375a79820.jpg\",\"img/0881/d1982897-8d8d-4704-a940-1ee5d07a1f15.jpg\"]","trial_type":"similarity","trial_index":63,"time_elapsed":422438,"internal_node_id":"0.0-6.0-57.0"},{"sim_score":2,"rt":4396,"stimulus":"[\"img/0758/335851a0-a55b-46d8-ab05-8463eda48349.jpg\",\"img/0868/7b212364-ff5f-4e28-9241-7eb6ea00161b.jpg\"]","trial_type":"similarity","trial_index":64,"time_elapsed":427838,"internal_node_id":"0.0-6.0-58.0"},{"sim_score":2,"rt":3891,"stimulus":"[\"img/0862/4f0a3b4c-afbf-486e-b248-1d54982f54b4.jpg\",\"img/0769/3c1efec9-f8fd-487d-8955-4be88e48c832.jpg\"]","trial_type":"similarity","trial_index":65,"time_elapsed":432734,"internal_node_id":"0.0-6.0-59.0"},{"sim_score":6,"rt":4551,"stimulus":"[\"img/0764/03c07b98-3f18-4b71-bb70-ecff564a78d1.jpg\",\"img/0903/8f7f9939-b8e6-433f-93dd-b362496c80a7.jpg\"]","trial_type":"similarity","trial_index":66,"time_elapsed":438290,"internal_node_id":"0.0-6.0-60.0"},{"sim_score":6,"rt":4508,"stimulus":"[\"img/0899/a048912c-b12c-40e3-90af-46b69b0cc4fe.jpg\",\"img/0899/8abe6c69-822c-436c-9bf2-96c818b49ba5.jpg\"]","trial_type":"similarity","trial_index":67,"time_elapsed":443803,"internal_node_id":"0.0-6.0-61.0"},{"sim_score":5,"rt":5755,"stimulus":"[\"img/0860/9593362c-9fe5-4d12-9735-6000a11f6aa5.jpg\",\"img/0875/d59ff733-eaff-4ee2-9443-06954dd0bcb6.jpg\"]","trial_type":"similarity","trial_index":68,"time_elapsed":450563,"internal_node_id":"0.0-6.0-62.0"},{"sim_score":5,"rt":4959,"stimulus":"[\"img/0868/293079b8-7e0c-4afd-a390-1e5d35fe3ded.jpg\",\"img/0874/2c9464dd-8a23-4baa-ac94-1ba3af5c15cc.jpg\"]","trial_type":"similarity","trial_index":69,"time_elapsed":456528,"internal_node_id":"0.0-6.0-63.0"},{"sim_score":5,"rt":5687,"stimulus":"[\"img/0758/61d64021-9214-4951-bdf8-f871f9827cf9.jpg\",\"img/0862/ba89835a-408c-480b-8594-ed4ffa97eb5c.jpg\"]","trial_type":"similarity","trial_index":70,"time_elapsed":463220,"internal_node_id":"0.0-6.0-64.0"},{"sim_score":6,"rt":5656,"stimulus":"[\"img/0904/96e503ea-6630-4996-85f2-0237688ce441.jpg\",\"img/0898/5f699581-3853-4547-856c-12f419ba5af7.jpg\"]","trial_type":"similarity","trial_index":71,"time_elapsed":469880,"internal_node_id":"0.0-6.0-65.0"},{"sim_score":2,"rt":5250,"stimulus":"[\"img/0881/2a8413be-fec2-4de6-88ad-614dd4cccc9d.jpg\",\"img/0866/945c6710-d15b-4a5b-a8f6-69af0850357f.jpg\"]","trial_type":"similarity","trial_index":72,"time_elapsed":476134,"internal_node_id":"0.0-6.0-66.0"},{"sim_score":2,"rt":3565,"stimulus":"[\"img/0867/a498eef3-9fa4-4ab2-9778-4ae82ac40dc5.jpg\",\"img/0898/b2732712-71c2-45d8-834f-2b2ed5504910.jpg\"]","trial_type":"similarity","trial_index":73,"time_elapsed":480702,"internal_node_id":"0.0-6.0-67.0"},{"sim_score":5,"rt":3823,"stimulus":"[\"img/0902/8af4182a-9af9-4212-a436-9195555112d6.jpg\",\"img/0764/bd2eaa3e-95a9-4a59-a78e-3f81c766eea9.jpg\"]","trial_type":"similarity","trial_index":74,"time_elapsed":485529,"internal_node_id":"0.0-6.0-68.0"},{"sim_score":5,"rt":4959,"stimulus":"[\"img/0875/f87b67d7-c33e-40d1-b281-248c4be1cb6e.jpg\",\"img/0867/26611f4e-d694-4460-b7e2-43c62753ddc3.jpg\"]","trial_type":"similarity","trial_index":75,"time_elapsed":491491,"internal_node_id":"0.0-6.0-69.0"},{"sim_score":6,"rt":5689,"stimulus":"[\"img/0766/c23b5a20-e50f-4d85-841f-cf89212a4348.jpg\",\"img/0764/f990b2e8-ecee-481e-be7c-0239fce350e2.jpg\"]","trial_type":"similarity","trial_index":76,"time_elapsed":498185,"internal_node_id":"0.0-6.0-70.0"},{"sim_score":2,"rt":5443,"stimulus":"[\"img/0894/e5edf723-72a5-4673-8441-6c1734a8929b.jpg\",\"img/0867/ac1797e4-8afc-48fe-b252-86d1defb1cca.jpg\"]","trial_type":"similarity","trial_index":77,"time_elapsed":504632,"internal_node_id":"0.0-6.0-71.0"},{"sim_score":2,"rt":3879,"stimulus":"[\"img/0875/5a7c4e35-6514-4e12-8879-d16071da4cd6.jpg\",\"img/0764/7f4ee8e3-9315-4a57-be7d-db8454b33766.jpg\"]","trial_type":"similarity","trial_index":78,"time_elapsed":509514,"internal_node_id":"0.0-6.0-72.0"},{"sim_score":6,"rt":4093,"stimulus":"[\"img/0867/aa05d113-fc19-4756-a8eb-7878f580bc92.jpg\",\"img/0866/620cd1aa-0800-4414-8f6e-90342e7a99ad.jpg\"]","trial_type":"similarity","trial_index":79,"time_elapsed":514611,"internal_node_id":"0.0-6.0-73.0"},{"sim_score":2,"rt":4744,"stimulus":"[\"img/0903/bf0a7d60-eca5-44b0-bafd-baf21db9904b.jpg\",\"img/0758/20497cbe-ddae-489e-86e2-ab06985ed07c.jpg\"]","trial_type":"similarity","trial_index":80,"time_elapsed":520359,"internal_node_id":"0.0-6.0-74.0"},{"sim_score":2,"rt":3518,"stimulus":"[\"img/0766/d5d38751-8fa5-476f-93e9-86ed2d9045ef.jpg\",\"img/0868/1a62b2b2-18f5-466e-b564-5176a57c565e.jpg\"]","trial_type":"similarity","trial_index":81,"time_elapsed":524881,"internal_node_id":"0.0-6.0-75.0"},{"sim_score":3,"rt":5870,"stimulus":"[\"img/0874/31e22c7c-99aa-40b1-bf03-dd73fa2df4d6.jpg\",\"img/0766/006035d8-c736-4daf-bbe4-a9e373af9da6.jpg\"]","trial_type":"similarity","trial_index":82,"time_elapsed":531754,"internal_node_id":"0.0-6.0-76.0"},{"sim_score":5,"rt":5882,"stimulus":"[\"img/0881/f8bd891e-aa09-4782-89db-33e7cb2b0cf1.jpg\",\"img/0868/8b0b8473-e2c0-4331-aa56-c3a5c29369da.jpg\"]","trial_type":"similarity","trial_index":83,"time_elapsed":538640,"internal_node_id":"0.0-6.0-77.0"},{"sim_score":2,"rt":6106,"stimulus":"[\"img/0758/d57c2592-a317-4f63-91be-91a3a9afd222.jpg\",\"img/0901/5657dd86-0ff9-4753-ba2b-9dfb223e5c89.jpg\"]","trial_type":"similarity","trial_index":84,"time_elapsed":545750,"internal_node_id":"0.0-6.0-78.0"},{"sim_score":3,"rt":5151,"stimulus":"[\"img/0881/6b1189e6-232d-4042-8885-16dc7b10e0d4.jpg\",\"img/0898/cd3aaa3f-efa9-4ab3-8d6f-a6a9273ddf42.jpg\"]","trial_type":"similarity","trial_index":85,"time_elapsed":551904,"internal_node_id":"0.0-6.0-79.0"},{"sim_score":3,"rt":5239,"stimulus":"[\"img/0867/c71dc569-f49c-4397-8381-68b8d726736d.jpg\",\"img/0758/821c68d3-5cb0-4eae-8659-30e6263fca39.jpg\"]","trial_type":"similarity","trial_index":86,"time_elapsed":558148,"internal_node_id":"0.0-6.0-80.0"},{"sim_score":3,"rt":3790,"stimulus":"[\"img/0769/e31b3bd8-efcb-413e-aa8c-75fac2b8f2ac.jpg\",\"img/0899/5b56dd3e-3f49-47cc-af84-16da6457753b.jpg\"]","trial_type":"similarity","trial_index":87,"time_elapsed":562940,"internal_node_id":"0.0-6.0-81.0"},{"sim_score":6,"rt":4078,"stimulus":"[\"img/0903/647ce311-8c71-479a-8361-961db1457139.jpg\",\"img/0903/b548d383-2a95-4575-8c13-647873751ff1.jpg\"]","trial_type":"similarity","trial_index":88,"time_elapsed":568025,"internal_node_id":"0.0-6.0-82.0"},{"sim_score":2,"rt":4408,"stimulus":"[\"img/0867/179ab87a-8eac-4c52-a41f-2e48e3120f09.jpg\",\"img/0766/fd74fdbb-ea40-4f3a-a091-38d08dfd636e.jpg\"]","trial_type":"similarity","trial_index":89,"time_elapsed":582380,"internal_node_id":"0.0-6.0-83.0"},{"sim_score":2,"rt":3225,"stimulus":"[\"img/0902/5b45a7a0-81c8-4a71-aaa2-2ce09adb5a29.jpg\",\"img/0867/85a96c62-548f-4994-9553-819e03c3135a.jpg\"]","trial_type":"similarity","trial_index":90,"time_elapsed":586610,"internal_node_id":"0.0-6.0-84.0"},{"sim_score":2,"rt":4464,"stimulus":"[\"img/0901/b123d109-47b4-4f9a-80c9-9bb16da42efa.jpg\",\"img/0875/fb732ab5-013a-4366-9f65-27811ed157e9.jpg\"]","trial_type":"similarity","trial_index":91,"time_elapsed":592078,"internal_node_id":"0.0-6.0-85.0"},{"sim_score":2,"rt":3260,"stimulus":"[\"img/0764/0e7ed062-f798-4366-8a24-6f430926f919.jpg\",\"img/0866/9b38d691-1802-4959-ab3f-fc902f0e4ea6.jpg\"]","trial_type":"similarity","trial_index":92,"time_elapsed":596342,"internal_node_id":"0.0-6.0-86.0"},{"sim_score":5,"rt":4361,"stimulus":"[\"img/0901/da4fe30f-d12a-491e-96a2-5ab8ebaadd09.jpg\",\"img/0894/5f15154e-e72e-4ce5-aafb-bce6f0564006.jpg\"]","trial_type":"similarity","trial_index":93,"time_elapsed":601708,"internal_node_id":"0.0-6.0-87.0"},{"sim_score":3,"rt":11878,"stimulus":"[\"img/0898/6cd3830b-d44e-4915-be2b-88d31424b91c.jpg\",\"img/0769/e8ed913b-8a88-44f6-9327-d34afec3116b.jpg\"]","trial_type":"similarity","trial_index":94,"time_elapsed":614589,"internal_node_id":"0.0-6.0-88.0"},{"sim_score":3,"rt":7603,"stimulus":"[\"img/0769/458d9c77-b844-40b5-bb1b-1e3bbd4da64e.jpg\",\"img/0894/3adef67d-7676-4995-80b2-bb31b8aca3ef.jpg\"]","trial_type":"similarity","trial_index":95,"time_elapsed":623195,"internal_node_id":"0.0-6.0-89.0"},{"sim_score":6,"rt":5813,"stimulus":"[\"img/0862/7918ca67-5bd3-4606-a5ea-c39fb11a9297.jpg\",\"img/0874/3ce41e7c-40c8-4d58-a546-171114521796.jpg\"]","trial_type":"similarity","trial_index":96,"time_elapsed":630013,"internal_node_id":"0.0-6.0-90.0"},{"sim_score":5,"rt":3518,"stimulus":"[\"img/0894/a98416c0-51e2-4960-85da-d81d8688b9d5.jpg\",\"img/0766/110832e5-2646-4bd0-a94e-5df8cc314269.jpg\"]","trial_type":"similarity","trial_index":97,"time_elapsed":634536,"internal_node_id":"0.0-6.0-91.0"},{"sim_score":3,"rt":6206,"stimulus":"[\"img/0874/7e4f2150-3b59-4a36-b5da-a4e0ba410531.jpg\",\"img/0867/f8488a47-94ee-4166-952c-44e16cf172f6.jpg\"]","trial_type":"similarity","trial_index":98,"time_elapsed":641747,"internal_node_id":"0.0-6.0-92.0"},{"sim_score":2,"rt":4181,"stimulus":"[\"img/0899/fef567a2-c121-4481-9af0-ff108d199bbf.jpg\",\"img/0868/3a62db2d-97e9-44a3-b8e3-a48c6f0e423b.jpg\"]","trial_type":"similarity","trial_index":99,"time_elapsed":646933,"internal_node_id":"0.0-6.0-93.0"},{"sim_score":2,"rt":5073,"stimulus":"[\"img/0903/680ed18e-b311-4ecf-9b00-7dea32128334.jpg\",\"img/0862/92fcd8a4-8193-4a6a-ae09-dd4a6338b0df.jpg\"]","trial_type":"similarity","trial_index":100,"time_elapsed":653009,"internal_node_id":"0.0-6.0-94.0"},{"sim_score":3,"rt":3541,"stimulus":"[\"img/0899/57476fed-5962-4272-8fc9-b317bb777b54.jpg\",\"img/0766/ba35c0fc-4d5b-490d-959e-c94b279cdd02.jpg\"]","trial_type":"similarity","trial_index":101,"time_elapsed":657553,"internal_node_id":"0.0-6.0-95.0"},{"sim_score":5,"rt":5681,"stimulus":"[\"img/0867/6e19c858-b606-45b2-a4c6-910a73f1d82c.jpg\",\"img/0868/4bd5105a-d2c3-4f82-8c80-57196106ba53.jpg\"]","trial_type":"similarity","trial_index":102,"time_elapsed":664236,"internal_node_id":"0.0-6.0-96.0"},{"sim_score":2,"rt":3924,"stimulus":"[\"img/0862/fad1d7c1-8187-43c3-942a-0fc12183e48e.jpg\",\"img/0901/b453df0b-4c39-49bb-8ced-6127efffa898.jpg\"]","trial_type":"similarity","trial_index":103,"time_elapsed":669163,"internal_node_id":"0.0-6.0-97.0"},{"sim_score":2,"rt":3677,"stimulus":"[\"img/0875/8521fd58-3b1e-4dc5-97ae-804edfa6734a.jpg\",\"img/0766/d3bab2fc-ddcc-40a0-bb72-c0d0ebe19978.jpg\"]","trial_type":"similarity","trial_index":104,"time_elapsed":673844,"internal_node_id":"0.0-6.0-98.0"},{"sim_score":3,"rt":6512,"stimulus":"[\"img/0758/9fb5b2fe-3f00-4fe6-973c-1ce10d5f4cd5.jpg\",\"img/0874/29830da7-be5f-44e5-b141-652a0ccf7269.jpg\"]","trial_type":"similarity","trial_index":105,"time_elapsed":681358,"internal_node_id":"0.0-6.0-99.0"},{"sim_score":2,"rt":3361,"stimulus":"[\"img/0904/2c98dc56-88d1-4fb5-a999-b6a7861f65f0.jpg\",\"img/0868/4a8a45ed-2c4f-421b-9564-409a33ecd26c.jpg\"]","trial_type":"similarity","trial_index":106,"time_elapsed":685724,"internal_node_id":"0.0-6.0-100.0"},{"sim_score":2,"rt":4194,"stimulus":"[\"img/0903/70d764d9-1f35-4da7-a35d-4cc39834d270.jpg\",\"img/0866/d493a2c8-66eb-44b4-be02-2f327b700b7c.jpg\"]","trial_type":"similarity","trial_index":107,"time_elapsed":690921,"internal_node_id":"0.0-6.0-101.0"},{"sim_score":2,"rt":4318,"stimulus":"[\"img/0868/d98ca254-b195-477f-b57e-5760a2717db8.jpg\",\"img/0769/022c7e3b-c3f2-4119-b4bc-f22fa7cae18c.jpg\"]","trial_type":"similarity","trial_index":108,"time_elapsed":696242,"internal_node_id":"0.0-6.0-102.0"},{"sim_score":5,"rt":4734,"stimulus":"[\"img/0902/b03129ba-b087-4558-af37-e8399d6217d6.jpg\",\"img/0899/4f7bc593-8ddd-4da3-a0b9-84da730d3370.jpg\"]","trial_type":"similarity","trial_index":109,"time_elapsed":701979,"internal_node_id":"0.0-6.0-103.0"},{"sim_score":3,"rt":5781,"stimulus":"[\"img/0868/09a9ef4d-d000-4cfa-a6aa-ebec7c2edeb4.jpg\",\"img/0862/064818ee-13d5-4618-bb24-21c7368ea278.jpg\"]","trial_type":"similarity","trial_index":110,"time_elapsed":708764,"internal_node_id":"0.0-6.0-104.0"},{"sim_score":2,"rt":5218,"stimulus":"[\"img/0903/4cbdc464-e562-4ec2-9bb6-15f894fdf528.jpg\",\"img/0894/767a0eec-1064-46b1-b1aa-dfa02b0cd74e.jpg\"]","trial_type":"similarity","trial_index":111,"time_elapsed":714985,"internal_node_id":"0.0-6.0-105.0"},{"sim_score":6,"rt":6355,"stimulus":"[\"img/0864/9b2490c5-a282-400a-9736-e1a0ecbf1cb7.jpg\",\"img/0874/1016b306-087c-4afc-aa08-fa527b28dc76.jpg\"]","trial_type":"similarity","trial_index":112,"time_elapsed":722342,"internal_node_id":"0.0-6.0-106.0"},{"sim_score":2,"rt":5049,"stimulus":"[\"img/0862/e8cc3bdf-cc43-4565-bccf-492626c70953.jpg\",\"img/0902/6c2c243a-f663-45db-baf5-038d3d58c589.jpg\"]","trial_type":"similarity","trial_index":113,"time_elapsed":728395,"internal_node_id":"0.0-6.0-107.0"},{"sim_score":6,"rt":4238,"stimulus":"[\"img/0904/06dacdc5-2206-4fb8-92b7-88042d22833c.jpg\",\"img/0903/8c358e9e-a4f4-466e-8b93-7aec0d2358e8.jpg\"]","trial_type":"similarity","trial_index":114,"time_elapsed":733637,"internal_node_id":"0.0-6.0-108.0"},{"sim_score":2,"rt":4825,"stimulus":"[\"img/0764/d7f3ac54-318a-4dac-a06b-62bed34d01a4.jpg\",\"img/0864/ef9cbca0-4be8-435d-ad49-977259e80409.jpg\"]","trial_type":"similarity","trial_index":115,"time_elapsed":739465,"internal_node_id":"0.0-6.0-109.0"},{"sim_score":2,"rt":3888,"stimulus":"[\"img/0866/c446214b-a368-4c65-ae39-ea46894256ab.jpg\",\"img/0894/1a010553-d598-4b06-a772-81f1e7b3addb.jpg\"]","trial_type":"similarity","trial_index":116,"time_elapsed":744359,"internal_node_id":"0.0-6.0-110.0"},{"sim_score":5,"rt":3484,"stimulus":"[\"img/0899/9de5e857-aa9a-4e0c-8ba2-46d79bd069a4.jpg\",\"img/0903/005ad0de-4f52-433c-b515-dbe8d46184a3.jpg\"]","trial_type":"similarity","trial_index":117,"time_elapsed":748847,"internal_node_id":"0.0-6.0-111.0"},{"sim_score":5,"rt":4553,"stimulus":"[\"img/0902/9f543501-3cf1-45a7-a2f1-eeca87cc15b9.jpg\",\"img/0904/09934646-45d2-4147-8fec-64a22a5ac822.jpg\"]","trial_type":"similarity","trial_index":118,"time_elapsed":754405,"internal_node_id":"0.0-6.0-112.0"},{"sim_score":5,"rt":6904,"stimulus":"[\"img/0864/f92649a2-0590-4d31-9a7a-1bfb81666a2d.jpg\",\"img/0860/94ef7afc-e0e6-4a15-98c6-0bfac82bc832.jpg\"]","trial_type":"similarity","trial_index":119,"time_elapsed":762314,"internal_node_id":"0.0-6.0-113.0"},{"sim_score":2,"rt":3925,"stimulus":"[\"img/0860/e14d67c1-6d92-4f1e-9257-c8607159c19c.jpg\",\"img/0899/51a7a498-98c7-42d7-bca8-bc2d8f0b5831.jpg\"]","trial_type":"similarity","trial_index":120,"time_elapsed":767241,"internal_node_id":"0.0-6.0-114.0"},{"sim_score":2,"rt":3901,"stimulus":"[\"img/0881/b549bc99-a61c-4450-bab5-9efc3a197bf0.jpg\",\"img/0903/0e5c2854-42aa-48c0-9c3d-6e1ad2a400bd.jpg\"]","trial_type":"similarity","trial_index":121,"time_elapsed":772146,"internal_node_id":"0.0-6.0-115.0"},{"sim_score":2,"rt":4554,"stimulus":"[\"img/0894/1b3888e6-cf36-4c4a-a039-187aa5cb71ac.jpg\",\"img/0874/93d1f8dc-acf2-4f03-bd8d-8ec35df276ed.jpg\"]","trial_type":"similarity","trial_index":122,"time_elapsed":777703,"internal_node_id":"0.0-6.0-116.0"},{"sim_score":5,"rt":3901,"stimulus":"[\"img/0881/f037e3b0-09cb-4a83-b2d9-6a71fe474e63.jpg\",\"img/0862/47ed5efd-4ec9-4b74-bb4e-a5f5cf0c3e7d.jpg\"]","trial_type":"similarity","trial_index":123,"time_elapsed":782608,"internal_node_id":"0.0-6.0-117.0"},{"sim_score":5,"rt":3541,"stimulus":"[\"img/0868/6a28c3b0-3d76-498a-9fb7-ddafc665eca8.jpg\",\"img/0875/03c3c331-738b-4446-af92-3d7386b08c2e.jpg\"]","trial_type":"similarity","trial_index":124,"time_elapsed":787153,"internal_node_id":"0.0-6.0-118.0"},{"sim_score":5,"rt":4037,"stimulus":"[\"img/0860/b03b963d-949b-4d8d-b19c-4950c89eeca2.jpg\",\"img/0758/2fa3e613-e676-4e6e-bd12-705327eeb3e1.jpg\"]","trial_type":"similarity","trial_index":125,"time_elapsed":792194,"internal_node_id":"0.0-6.0-119.0"},{"sim_score":5,"rt":3687,"stimulus":"[\"img/0864/87c467d3-abca-482f-ad80-3766c21b1bb3.jpg\",\"img/0875/dbdd643e-6d0e-4a5c-ab57-b9c29b9c981a.jpg\"]","trial_type":"similarity","trial_index":126,"time_elapsed":796885,"internal_node_id":"0.0-6.0-120.0"},{"sim_score":2,"rt":5172,"stimulus":"[\"img/0898/661621d4-a14e-487c-8c74-354134a29710.jpg\",\"img/0866/02f5e6b9-52b7-448c-9708-5b460d0c9a23.jpg\"]","trial_type":"similarity","trial_index":127,"time_elapsed":803062,"internal_node_id":"0.0-6.0-121.0"},{"sim_score":2,"rt":5849,"stimulus":"[\"img/0874/ca23d307-fc00-4d7d-9106-584c6eb21b4d.jpg\",\"img/0904/9d30eff1-46ef-4453-b11e-124ef8145c00.jpg\"]","trial_type":"similarity","trial_index":128,"time_elapsed":809913,"internal_node_id":"0.0-6.0-122.0"},{"sim_score":2,"rt":4440,"stimulus":"[\"img/0904/6291eb43-c10c-4810-a36a-101d09868b04.jpg\",\"img/0864/e02eddb5-f468-499c-91bf-f7be3ffe979b.jpg\"]","trial_type":"similarity","trial_index":129,"time_elapsed":815358,"internal_node_id":"0.0-6.0-123.0"},{"sim_score":6,"rt":3935,"stimulus":"[\"img/0894/05161000-f476-499b-a878-c13c7f347fd9.jpg\",\"img/0902/cdec1bc6-7f90-4f72-9e01-f5a4111bac1d.jpg\"]","trial_type":"similarity","trial_index":130,"time_elapsed":820297,"internal_node_id":"0.0-6.0-124.0"},{"sim_score":5,"rt":4430,"stimulus":"[\"img/0868/5fa7f9d0-f0e5-454c-8224-74d964818f56.jpg\",\"img/0864/6e846d43-94a6-4b37-a268-65eda979f052.jpg\"]","trial_type":"similarity","trial_index":131,"time_elapsed":833740,"internal_node_id":"0.0-6.0-125.0"},{"sim_score":2,"rt":4047,"stimulus":"[\"img/0899/ddf96ade-692e-4602-bd22-dedbb46401bc.jpg\",\"img/0866/8efcaa46-83ab-4dee-a35f-850402aa21ae.jpg\"]","trial_type":"similarity","trial_index":132,"time_elapsed":838792,"internal_node_id":"0.0-6.0-126.0"},{"sim_score":2,"rt":3180,"stimulus":"[\"img/0875/527ced51-8e53-4aab-ab05-86df219104c0.jpg\",\"img/0904/24fc38fe-842c-4831-ad8a-b1de5c25c0a8.jpg\"]","trial_type":"similarity","trial_index":133,"time_elapsed":842977,"internal_node_id":"0.0-6.0-127.0"},{"sim_score":2,"rt":2955,"stimulus":"[\"img/0867/98d8cd96-1476-4fe0-a3a3-04f875500a1b.jpg\",\"img/0899/66ab3178-c3fe-4455-ad17-d5952b08e018.jpg\"]","trial_type":"similarity","trial_index":134,"time_elapsed":846937,"internal_node_id":"0.0-6.0-128.0"},{"sim_score":2,"rt":3283,"stimulus":"[\"img/0901/1ede21d9-384f-4150-86b5-e1c57b5dc1d4.jpg\",\"img/0867/cc72ed48-7704-422c-86d6-467a1145287a.jpg\"]","trial_type":"similarity","trial_index":135,"time_elapsed":851225,"internal_node_id":"0.0-6.0-129.0"},{"sim_score":2,"rt":4787,"stimulus":"[\"img/0864/49150900-7f25-4ce8-8d10-9b47a71d1997.jpg\",\"img/0769/11518cb3-13ea-4dd0-890c-30cfab728ade.jpg\"]","trial_type":"similarity","trial_index":136,"time_elapsed":857017,"internal_node_id":"0.0-6.0-130.0"},{"sim_score":2,"rt":5150,"stimulus":"[\"img/0903/12bd8657-92e6-4c36-a06c-597e7a1d51f3.jpg\",\"img/0868/15dd6fd7-791e-4b53-b203-195d617521a4.jpg\"]","trial_type":"similarity","trial_index":137,"time_elapsed":863171,"internal_node_id":"0.0-6.0-131.0"},{"sim_score":5,"rt":4082,"stimulus":"[\"img/0864/5f74a653-3bdc-4308-8cca-ac667dc22e1f.jpg\",\"img/0867/c66898ba-b71b-4d50-84f9-f7f84853a98d.jpg\"]","trial_type":"similarity","trial_index":138,"time_elapsed":868256,"internal_node_id":"0.0-6.0-132.0"},{"sim_score":2,"rt":3890,"stimulus":"[\"img/0901/a2d7b2f6-396b-4d91-8403-de5361c74af7.jpg\",\"img/0860/8a92e21b-6a32-4e4a-a445-2d5a487ed0a4.jpg\"]","trial_type":"similarity","trial_index":139,"time_elapsed":873149,"internal_node_id":"0.0-6.0-133.0"},{"sim_score":2,"rt":5981,"stimulus":"[\"img/0881/e046471a-35b4-4159-bbf7-3cfd201bef66.jpg\",\"img/0766/26d3ae14-8275-4e08-99b2-a6598c193ddf.jpg\"]","trial_type":"similarity","trial_index":140,"time_elapsed":880135,"internal_node_id":"0.0-6.0-134.0"},{"sim_score":2,"rt":3542,"stimulus":"[\"img/0903/e2e55a9e-0397-4dc0-8adf-4a54cfefe1fe.jpg\",\"img/0864/5f33e097-23e3-4002-882d-76e8cb15f451.jpg\"]","trial_type":"similarity","trial_index":141,"time_elapsed":884680,"internal_node_id":"0.0-6.0-135.0"},{"sim_score":2,"rt":4464,"stimulus":"[\"img/0758/3ddd05d3-557e-4ee7-8b78-9d2d681d8ae2.jpg\",\"img/0894/5ff3c4f6-52e2-4075-8679-be0312e59703.jpg\"]","trial_type":"similarity","trial_index":142,"time_elapsed":890147,"internal_node_id":"0.0-6.0-136.0"},{"sim_score":2,"rt":3980,"stimulus":"[\"img/0769/1afb527f-9887-428c-bd26-a12c2f9efb68.jpg\",\"img/0860/f44ba3fb-03a2-42f0-8509-2c1ded493086.jpg\"]","trial_type":"similarity","trial_index":143,"time_elapsed":895132,"internal_node_id":"0.0-6.0-137.0"},{"sim_score":6,"rt":4530,"stimulus":"[\"img/0904/09dac84f-3d1c-4445-a68e-d0389fdbf1e9.jpg\",\"img/0766/535849cc-ff5d-4df9-8f31-0ce94a97d571.jpg\"]","trial_type":"similarity","trial_index":144,"time_elapsed":900666,"internal_node_id":"0.0-6.0-138.0"},{"sim_score":6,"rt":4070,"stimulus":"[\"img/0868/4e626425-63c8-484a-8a1d-e66ee4e0bef8.jpg\",\"img/0860/fd4662f9-4c03-4d79-8593-06735e55a64b.jpg\"]","trial_type":"similarity","trial_index":145,"time_elapsed":905741,"internal_node_id":"0.0-6.0-139.0"},{"sim_score":6,"rt":3124,"stimulus":"[\"img/0758/a085b443-b5d7-4cb2-9ad4-b9dab0fc23f1.jpg\",\"img/0864/e336a4c5-6648-4fd7-b2f6-93a3fb83f8c6.jpg\"]","trial_type":"similarity","trial_index":146,"time_elapsed":909870,"internal_node_id":"0.0-6.0-140.0"},{"sim_score":3,"rt":6838,"stimulus":"[\"img/0867/075e0f95-856b-4cbb-acf5-092393aaf04e.jpg\",\"img/0867/1719a35d-f085-48c0-9099-16c94fe418b4.jpg\"]","trial_type":"similarity","trial_index":147,"time_elapsed":917711,"internal_node_id":"0.0-6.0-141.0"},{"sim_score":6,"rt":4070,"stimulus":"[\"img/0898/81b08535-2020-4c15-9ce4-2f1e460755ae.jpg\",\"img/0898/ec565187-2e31-4fdd-9a5c-153d0c789ae0.jpg\"]","trial_type":"similarity","trial_index":148,"time_elapsed":922785,"internal_node_id":"0.0-6.0-142.0"},{"sim_score":2,"rt":4125,"stimulus":"[\"img/0866/d266fece-59b3-46fa-b69f-96f6efb81b59.jpg\",\"img/0769/5bd04f55-d091-4f57-85db-38426f26bd1a.jpg\"]","trial_type":"similarity","trial_index":149,"time_elapsed":927915,"internal_node_id":"0.0-6.0-143.0"},{"sim_score":2,"rt":3731,"stimulus":"[\"img/0860/c5ccd1a4-4bb7-48e1-9b25-72cfaf06909b.jpg\",\"img/0898/f3a3f225-1248-4ac7-b93b-f0ff28485bf3.jpg\"]","trial_type":"similarity","trial_index":150,"time_elapsed":932650,"internal_node_id":"0.0-6.0-144.0"},{"sim_score":2,"rt":4520,"stimulus":"[\"img/0766/ef3b15ce-abb7-4292-ad93-aec8e8b50520.jpg\",\"img/0864/e8bd659f-aa43-4748-877e-3118e8b4e189.jpg\"]","trial_type":"similarity","trial_index":151,"time_elapsed":938175,"internal_node_id":"0.0-6.0-145.0"},{"sim_score":2,"rt":3834,"stimulus":"[\"img/0860/29a21a9f-54bb-4093-ad3f-04823ceaa89f.jpg\",\"img/0903/f67c4ab9-f8c2-4fcd-848a-a54a7b031002.jpg\"]","trial_type":"similarity","trial_index":152,"time_elapsed":943012,"internal_node_id":"0.0-6.0-146.0"},{"sim_score":2,"rt":4633,"stimulus":"[\"img/0867/12264664-1860-46df-8c21-162b9817cdda.jpg\",\"img/0764/50f1b062-d608-4bc0-ab25-b872dcf2ed93.jpg\"]","trial_type":"similarity","trial_index":153,"time_elapsed":948648,"internal_node_id":"0.0-6.0-147.0"},{"sim_score":6,"rt":5195,"stimulus":"[\"img/0769/965c3c44-d9e5-47c5-b61a-2bbdf4215d9a.jpg\",\"img/0904/73920552-103b-4c9c-9ece-e0b8376b4504.jpg\"]","trial_type":"similarity","trial_index":154,"time_elapsed":954847,"internal_node_id":"0.0-6.0-148.0"},{"sim_score":6,"rt":3192,"stimulus":"[\"img/0764/6ef77040-1fae-4afa-bfe7-eda98e6d0376.jpg\",\"img/0901/2a953e50-d237-405c-a38d-5ed21494c968.jpg\"]","trial_type":"similarity","trial_index":155,"time_elapsed":959044,"internal_node_id":"0.0-6.0-149.0"},{"sim_score":6,"rt":6061,"stimulus":"[\"img/0904/ba8e689e-9ca6-4608-a2a1-3b0940666ae6.jpg\",\"img/0899/7b7380d5-d2be-44e5-a09a-c1756f87ef71.jpg\"]","trial_type":"similarity","trial_index":156,"time_elapsed":966109,"internal_node_id":"0.0-6.0-150.0"},{"sim_score":5,"rt":4744,"stimulus":"[\"img/0862/ee3b7bff-4a70-4e84-9bea-4a565e456acb.jpg\",\"img/0867/de92135f-5b65-4ed9-b245-188292c7c2f8.jpg\"]","trial_type":"similarity","trial_index":157,"time_elapsed":971858,"internal_node_id":"0.0-6.0-151.0"},{"sim_score":6,"rt":3022,"stimulus":"[\"img/0766/0bf3793e-c353-45e5-ac6f-753f5f484e10.jpg\",\"img/0766/33519c22-aaa4-49d7-8d49-ab551db1945e.jpg\"]","trial_type":"similarity","trial_index":158,"time_elapsed":975884,"internal_node_id":"0.0-6.0-152.0"},{"sim_score":2,"rt":4352,"stimulus":"[\"img/0862/5d887e9f-89e2-4ebc-80a0-6d46fe6480db.jpg\",\"img/0894/9b1333fd-3561-43bf-aee5-99b7b7ca3dc3.jpg\"]","trial_type":"similarity","trial_index":159,"time_elapsed":981240,"internal_node_id":"0.0-6.0-153.0"},{"sim_score":5,"rt":4385,"stimulus":"[\"img/0899/0adc0bc3-6fca-4078-be6f-d45ddf1653d5.jpg\",\"img/0901/a9b9c0a0-8aed-4888-a78a-65fb7e764d13.jpg\"]","trial_type":"similarity","trial_index":160,"time_elapsed":986628,"internal_node_id":"0.0-6.0-154.0"},{"sim_score":6,"rt":4037,"stimulus":"[\"img/0874/a3bc679d-619f-4db6-bb68-116dcb757d9c.jpg\",\"img/0874/85eb9b8a-c4c6-4e5a-b8e7-363a87a82054.jpg\"]","trial_type":"similarity","trial_index":161,"time_elapsed":991669,"internal_node_id":"0.0-6.0-155.0"},{"sim_score":5,"rt":4115,"stimulus":"[\"img/0860/4a022222-056d-461c-ab02-39fac9647552.jpg\",\"img/0867/50a1b60e-3a29-44bf-b606-d4bd3746fea9.jpg\"]","trial_type":"similarity","trial_index":162,"time_elapsed":996787,"internal_node_id":"0.0-6.0-156.0"},{"sim_score":2,"rt":3823,"stimulus":"[\"img/0901/d61f267a-c492-4db6-9bfb-61efd49cf072.jpg\",\"img/0881/dea58fad-b4f1-41d9-bd3f-916eff19a3fd.jpg\"]","trial_type":"similarity","trial_index":163,"time_elapsed":1001614,"internal_node_id":"0.0-6.0-157.0"},{"sim_score":6,"rt":5520,"stimulus":"[\"img/0903/6f343da5-00d9-4d50-89d1-2ed24cdb8319.jpg\",\"img/0902/0c760cc9-10ac-429e-8957-a7d51fc99683.jpg\"]","trial_type":"similarity","trial_index":164,"time_elapsed":1008139,"internal_node_id":"0.0-6.0-158.0"},{"sim_score":2,"rt":3833,"stimulus":"[\"img/0860/87039971-2210-4aab-93c0-8e9b5f1655b2.jpg\",\"img/0764/5c8fbafc-e62e-43ed-9b37-f73e8e45147d.jpg\"]","trial_type":"similarity","trial_index":165,"time_elapsed":1012976,"internal_node_id":"0.0-6.0-159.0"},{"sim_score":2,"rt":3788,"stimulus":"[\"img/0902/eb3e7e71-8ff1-4b88-a6a7-47e2c1ce1683.jpg\",\"img/0875/e7e66b13-b573-431e-b85e-288ce04a35a3.jpg\"]","trial_type":"similarity","trial_index":166,"time_elapsed":1017769,"internal_node_id":"0.0-6.0-160.0"},{"sim_score":2,"rt":3158,"stimulus":"[\"img/0898/26c41340-15bd-4ead-8fe4-c0d0ddca09c2.jpg\",\"img/0862/00c06b00-3b73-44e9-bc1e-c5aafb438321.jpg\"]","trial_type":"similarity","trial_index":167,"time_elapsed":1021931,"internal_node_id":"0.0-6.0-161.0"},{"sim_score":2,"rt":3046,"stimulus":"[\"img/0894/2217bdcd-23a7-42d3-823b-23f2488d7e87.jpg\",\"img/0875/5a1e5100-0d94-4fec-bbe9-ca9894d2cf8e.jpg\"]","trial_type":"similarity","trial_index":168,"time_elapsed":1025982,"internal_node_id":"0.0-6.0-162.0"},{"sim_score":5,"rt":3776,"stimulus":"[\"img/0866/23a224f3-2012-4fc8-8e0f-3c36f8de27fd.jpg\",\"img/0864/300bb811-8b3c-4c42-8653-6097c3725197.jpg\"]","trial_type":"similarity","trial_index":169,"time_elapsed":1030762,"internal_node_id":"0.0-6.0-163.0"},{"sim_score":2,"rt":4115,"stimulus":"[\"img/0766/5d6e0d1d-4369-41f0-a64c-91f3503055c7.jpg\",\"img/0862/fb26cb07-d5a9-4653-813c-f41609f26cd5.jpg\"]","trial_type":"similarity","trial_index":170,"time_elapsed":1035881,"internal_node_id":"0.0-6.0-164.0"},{"sim_score":6,"rt":5026,"stimulus":"[\"img/0866/07c9c966-3c8d-40e7-8128-92b2acbaed5d.jpg\",\"img/0874/3f471690-9788-4d03-90c7-f615aecef149.jpg\"]","trial_type":"similarity","trial_index":171,"time_elapsed":1041912,"internal_node_id":"0.0-6.0-165.0"},{"sim_score":5,"rt":4802,"stimulus":"[\"img/0862/f188d4f0-76a4-4102-818c-a209969d73a5.jpg\",\"img/0860/d9a0d117-6d1d-41c0-8fec-9aff0fd9e9f2.jpg\"]","trial_type":"similarity","trial_index":172,"time_elapsed":1047716,"internal_node_id":"0.0-6.0-166.0"},{"sim_score":3,"rt":4047,"stimulus":"[\"img/0766/33aa9ebb-c9f5-418f-8c8b-c77861889568.jpg\",\"img/0901/6e2957f8-f5ab-46f4-87cc-bb50155a098b.jpg\"]","trial_type":"similarity","trial_index":173,"time_elapsed":1061880,"internal_node_id":"0.0-6.0-167.0"},{"sim_score":6,"rt":4048,"stimulus":"[\"img/0862/57b6f83f-c763-4858-830d-102f97bfefbf.jpg\",\"img/0862/24cdc752-c2e5-4a17-86a6-6f2045d8553b.jpg\"]","trial_type":"similarity","trial_index":174,"time_elapsed":1066931,"internal_node_id":"0.0-6.0-168.0"},{"sim_score":5,"rt":4217,"stimulus":"[\"img/0894/5c7677b0-a4f1-479e-b274-7822c415175a.jpg\",\"img/0764/da207710-e7e4-4f42-b2e6-99b5f357f433.jpg\"]","trial_type":"similarity","trial_index":175,"time_elapsed":1072152,"internal_node_id":"0.0-6.0-169.0"},{"sim_score":5,"rt":4216,"stimulus":"[\"img/0874/c0378dac-9370-439a-8b79-db27c96fb390.jpg\",\"img/0898/08c72dac-f8ad-407a-9ce6-8c9a5d679c3a.jpg\"]","trial_type":"similarity","trial_index":176,"time_elapsed":1077372,"internal_node_id":"0.0-6.0-170.0"},{"sim_score":2,"rt":3732,"stimulus":"[\"img/0860/4c530c3c-6aab-492a-94d1-9c01797bde40.jpg\",\"img/0766/6d32752d-aa05-40dc-9541-640b6e9d6fa1.jpg\"]","trial_type":"similarity","trial_index":177,"time_elapsed":1082107,"internal_node_id":"0.0-6.0-171.0"},{"sim_score":2,"rt":3981,"stimulus":"[\"img/0898/a8f16b02-e19f-423b-86c3-a36562ae1f9b.jpg\",\"img/0864/3d4de670-b290-4285-9c3d-12a0e3af44e9.jpg\"]","trial_type":"similarity","trial_index":178,"time_elapsed":1087091,"internal_node_id":"0.0-6.0-172.0"},{"sim_score":2,"rt":3777,"stimulus":"[\"img/0881/adc02f34-ce97-4aef-850f-00519df06fd7.jpg\",\"img/0764/23ea9375-f801-4a96-9925-7d453da887c7.jpg\"]","trial_type":"similarity","trial_index":179,"time_elapsed":1091872,"internal_node_id":"0.0-6.0-173.0"},{"sim_score":2,"rt":3564,"stimulus":"[\"img/0898/b3290bf9-215b-4b45-b21a-65bdf73f142f.jpg\",\"img/0868/fd307a36-9a3a-47d7-ab7c-f810d0b35040.jpg\"]","trial_type":"similarity","trial_index":180,"time_elapsed":1096440,"internal_node_id":"0.0-6.0-174.0"},{"sim_score":6,"rt":4070,"stimulus":"[\"img/0864/c3b63e8f-ea39-4d70-a1f2-b3fe4be8eb75.jpg\",\"img/0864/1d15626a-2f7c-410f-819c-0fa2c967e95e.jpg\"]","trial_type":"similarity","trial_index":181,"time_elapsed":1101514,"internal_node_id":"0.0-6.0-175.0"},{"sim_score":2,"rt":5825,"stimulus":"[\"img/0899/7f9d45d0-b2c6-40d3-aa41-c207db2c411b.jpg\",\"img/0862/53a9cf7c-93c4-41b9-952f-07d17f7a17b2.jpg\"]","trial_type":"similarity","trial_index":182,"time_elapsed":1108343,"internal_node_id":"0.0-6.0-176.0"},{"sim_score":5,"rt":4126,"stimulus":"[\"img/0875/3ecb367d-e9eb-4826-8aaa-7aa72fb98019.jpg\",\"img/0758/dd559618-7f09-4a07-8018-d311c4a5ea29.jpg\"]","trial_type":"similarity","trial_index":183,"time_elapsed":1113473,"internal_node_id":"0.0-6.0-177.0"},{"sim_score":2,"rt":3732,"stimulus":"[\"img/0866/a04d37f0-99dd-478a-b6c6-58b215138f84.jpg\",\"img/0901/8bb79e82-9c43-4b6f-a655-40655519598b.jpg\"]","trial_type":"similarity","trial_index":184,"time_elapsed":1118209,"internal_node_id":"0.0-6.0-178.0"},{"sim_score":2,"rt":3743,"stimulus":"[\"img/0769/db94b61b-a5a7-4861-9d32-7b02ad194fb0.jpg\",\"img/0874/a82926a3-0b43-4add-803c-d5f9ea7798ee.jpg\"]","trial_type":"similarity","trial_index":185,"time_elapsed":1122956,"internal_node_id":"0.0-6.0-179.0"},{"sim_score":5,"rt":4284,"stimulus":"[\"img/0875/90da8d75-108a-44ad-b999-e21fee3860d3.jpg\",\"img/0881/4bd34581-94d8-4e88-8c89-5cef864ca3be.jpg\"]","trial_type":"similarity","trial_index":186,"time_elapsed":1128244,"internal_node_id":"0.0-6.0-180.0"},{"sim_score":2,"rt":7872,"stimulus":"[\"img/0866/f756f7d1-9ad8-4a34-9ef6-7a443d705bfe.jpg\",\"img/0868/83b4350a-3b70-4cea-b7f5-b5b56f3050a8.jpg\"]","trial_type":"similarity","trial_index":187,"time_elapsed":1137121,"internal_node_id":"0.0-6.0-181.0"},{"sim_score":2,"rt":5475,"stimulus":"[\"img/0899/93494f3b-d539-4075-b027-d82e344563da.jpg\",\"img/0758/caa93da2-9edf-49fa-96b9-32dedd8f5078.jpg\"]","trial_type":"similarity","trial_index":188,"time_elapsed":1143600,"internal_node_id":"0.0-6.0-182.0"},{"sim_score":5,"rt":4048,"stimulus":"[\"img/0874/bf14b896-e930-4fd9-9c05-2e83317a2773.jpg\",\"img/0875/cff79b3a-a797-4393-9757-6275f999ec04.jpg\"]","trial_type":"similarity","trial_index":189,"time_elapsed":1148651,"internal_node_id":"0.0-6.0-183.0"},{"sim_score":2,"rt":4577,"stimulus":"[\"img/0904/9b3568cc-3cf7-42be-9df3-fdafde7a58b8.jpg\",\"img/0862/92f0146c-20c4-482e-aef5-adb693790338.jpg\"]","trial_type":"similarity","trial_index":190,"time_elapsed":1154232,"internal_node_id":"0.0-6.0-184.0"},{"sim_score":5,"rt":3563,"stimulus":"[\"img/0902/e5a46bda-30d1-41ca-b36d-b8529b5a63d1.jpg\",\"img/0766/69e486f7-dbef-456b-9d48-53d814248a28.jpg\"]","trial_type":"similarity","trial_index":191,"time_elapsed":1158800,"internal_node_id":"0.0-6.0-185.0"},{"sim_score":2,"rt":4608,"stimulus":"[\"img/0758/7fba58df-2a7a-4b76-8a8f-62739f97f271.jpg\",\"img/0769/38a88f69-28fd-4bbd-99f0-f4c02bfd3995.jpg\"]","trial_type":"similarity","trial_index":192,"time_elapsed":1164413,"internal_node_id":"0.0-6.0-186.0"},{"sim_score":6,"rt":3689,"stimulus":"[\"img/0881/20af39f5-373d-4a55-a437-2dc4c0382c46.jpg\",\"img/0881/48ed65a5-471f-41af-86ec-3793805c116d.jpg\"]","trial_type":"similarity","trial_index":193,"time_elapsed":1169105,"internal_node_id":"0.0-6.0-187.0"},{"sim_score":5,"rt":3046,"stimulus":"[\"img/0758/7ffbc76b-1fc1-432c-8f7e-9ec8d1b3f643.jpg\",\"img/0866/4a87911a-d5be-4d4e-ab8e-3d1f581bf507.jpg\"]","trial_type":"similarity","trial_index":194,"time_elapsed":1173154,"internal_node_id":"0.0-6.0-188.0"},{"sim_score":5,"rt":4532,"stimulus":"[\"img/0764/cffc80b0-4a90-4acb-a530-6f480f3ca303.jpg\",\"img/0898/a114b375-cb89-44ba-9498-74213f1ecdee.jpg\"]","trial_type":"similarity","trial_index":195,"time_elapsed":1178690,"internal_node_id":"0.0-6.0-189.0"},{"sim_score":5,"rt":3846,"stimulus":"[\"img/0903/3e9ee8a5-eb66-47f5-8973-8a5af1ddc87e.jpg\",\"img/0901/3db47171-0139-4235-82cd-0b1787b6775f.jpg\"]","trial_type":"similarity","trial_index":196,"time_elapsed":1183539,"internal_node_id":"0.0-6.0-190.0"},{"sim_score":5,"rt":5453,"stimulus":"[\"img/0902/22ed3536-288b-452e-9777-0fa0ab94deb0.jpg\",\"img/0898/68476bbb-34a1-42d9-8bc1-deab783d4489.jpg\"]","trial_type":"similarity","trial_index":197,"time_elapsed":1189996,"internal_node_id":"0.0-6.0-191.0"},{"sim_score":2,"rt":5283,"stimulus":"[\"img/0864/c22faebd-9c53-47bc-ada3-b9a30c688e75.jpg\",\"img/0901/7c16dd9c-44ad-4d5b-990c-6a0b9b48b1b1.jpg\"]","trial_type":"similarity","trial_index":198,"time_elapsed":1196285,"internal_node_id":"0.0-6.0-192.0"},{"sim_score":5,"rt":4644,"stimulus":"[\"img/0894/2d2db7b3-e8a3-499b-b63a-14f51bf73882.jpg\",\"img/0881/14236cf2-6b95-48b8-9368-78af09d2d27f.jpg\"]","trial_type":"similarity","trial_index":199,"time_elapsed":1201932,"internal_node_id":"0.0-6.0-193.0"},{"sim_score":6,"rt":5071,"stimulus":"[\"img/0868/179a5502-ab5c-478e-8263-5a1fbcc101d2.jpg\",\"img/0868/77091fc7-a590-4ebb-b915-fdb2483a2399.jpg\"]","trial_type":"similarity","trial_index":200,"time_elapsed":1208008,"internal_node_id":"0.0-6.0-194.0"},{"sim_score":5,"rt":4294,"stimulus":"[\"img/0899/565ccdd9-0933-4536-a625-3c0e25a713dd.jpg\",\"img/0764/fb7d4a20-a475-465e-a74f-aa39a0d33d16.jpg\"]","trial_type":"similarity","trial_index":201,"time_elapsed":1213306,"internal_node_id":"0.0-6.0-195.0"},{"sim_score":2,"rt":4757,"stimulus":"[\"img/0881/f62bdcd1-a4b7-4d48-83da-d9c9e01c8727.jpg\",\"img/0904/56e73f28-7e64-489b-a161-e6b1a063878d.jpg\"]","trial_type":"similarity","trial_index":202,"time_elapsed":1219066,"internal_node_id":"0.0-6.0-196.0"},{"sim_score":2,"rt":4678,"stimulus":"[\"img/0864/0116ca98-293d-4fa6-a93b-5a6144ef64cc.jpg\",\"img/0902/fbef27fa-ac83-4936-ab78-9d1c20a383e1.jpg\"]","trial_type":"similarity","trial_index":203,"time_elapsed":1224747,"internal_node_id":"0.0-6.0-197.0"},{"sim_score":6,"rt":4251,"stimulus":"[\"img/0894/43216a7f-27bc-4b5a-8841-d122a30da9d9.jpg\",\"img/0904/4e58005d-a2ec-4aaa-b199-445343561396.jpg\"]","trial_type":"similarity","trial_index":204,"time_elapsed":1230001,"internal_node_id":"0.0-6.0-198.0"},{"sim_score":6,"rt":3204,"stimulus":"[\"img/0901/5b97abf9-f0c8-4fd1-b921-36d574779078.jpg\",\"img/0901/77087ed2-6e12-4329-b2a5-605bca6d972d.jpg\"]","trial_type":"similarity","trial_index":205,"time_elapsed":1234208,"internal_node_id":"0.0-6.0-199.0"},{"sim_score":2,"rt":5354,"stimulus":"[\"img/0894/e2446cf5-cd48-486a-badc-76498e087fbe.jpg\",\"img/0860/15b24a61-25be-4356-9eac-5ce95d0cb4a4.jpg\"]","trial_type":"similarity","trial_index":206,"time_elapsed":1240564,"internal_node_id":"0.0-6.0-200.0"},{"sim_score":6,"rt":5790,"stimulus":"[\"img/0898/0c7dde4f-efce-4b7a-9387-6921635b7890.jpg\",\"img/0903/81368973-de81-46f4-844f-b901f3bfd66d.jpg\"]","trial_type":"similarity","trial_index":207,"time_elapsed":1247360,"internal_node_id":"0.0-6.0-201.0"},{"sim_score":2,"rt":4452,"stimulus":"[\"img/0864/da39ad34-04e0-40d4-a724-c08d53e0ea09.jpg\",\"img/0894/b422d5c6-3c5a-49ae-a53e-7e88ac993f49.jpg\"]","trial_type":"similarity","trial_index":208,"time_elapsed":1252816,"internal_node_id":"0.0-6.0-202.0"},{"sim_score":2,"rt":3181,"stimulus":"[\"img/0874/995f0332-0439-4eb4-add3-957335dbf6d9.jpg\",\"img/0860/17b44a7d-c5ca-479f-9e87-f65a64f5c80e.jpg\"]","trial_type":"similarity","trial_index":209,"time_elapsed":1257001,"internal_node_id":"0.0-6.0-203.0"},{"sim_score":5,"rt":5273,"stimulus":"[\"img/0862/ad593cc7-cabe-4bb7-8e14-8a447a0717b4.jpg\",\"img/0875/5a716432-c6ca-4b1c-955a-2b8ac25198ee.jpg\"]","trial_type":"similarity","trial_index":210,"time_elapsed":1263278,"internal_node_id":"0.0-6.0-204.0"},{"sim_score":5,"rt":4869,"stimulus":"[\"img/0867/f8159067-056c-41f1-a136-c529fe5e970a.jpg\",\"img/0881/ee44e27f-d662-4608-b265-e7ffa19b216f.jpg\"]","trial_type":"similarity","trial_index":211,"time_elapsed":1269151,"internal_node_id":"0.0-6.0-205.0"},{"sim_score":6,"rt":3180,"stimulus":"[\"img/0901/4f9cffe0-c0be-4d7f-bacd-9d51efd19b4a.jpg\",\"img/0902/7f1dcd35-237a-4995-9e42-7f63f3f434d4.jpg\"]","trial_type":"similarity","trial_index":212,"time_elapsed":1273336,"internal_node_id":"0.0-6.0-206.0"},{"sim_score":2,"rt":3698,"stimulus":"[\"img/0899/25ae6ec8-9565-49fe-a8bb-8d0666f52716.jpg\",\"img/0864/65210d57-1153-4657-886a-32e758f49b4a.jpg\"]","trial_type":"similarity","trial_index":213,"time_elapsed":1278039,"internal_node_id":"0.0-6.0-207.0"},{"sim_score":5,"rt":4881,"stimulus":"[\"img/0901/a373612d-67e2-4fec-9764-21d3d6ef6359.jpg\",\"img/0769/75f7e514-0548-4329-b1e4-93c05e74f038.jpg\"]","trial_type":"similarity","trial_index":214,"time_elapsed":1283922,"internal_node_id":"0.0-6.0-208.0"},{"sim_score":6,"rt":5129,"stimulus":"[\"img/0902/168ebd47-9e82-4ab7-a18b-c3da85072db8.jpg\",\"img/0902/94198618-7047-4dc9-ad04-85f4ba913067.jpg\"]","trial_type":"similarity","trial_index":215,"time_elapsed":1296127,"internal_node_id":"0.0-6.0-209.0"},{"view_history":"[{\"page_index\":0,\"viewing_time\":7875}]","rt":7876,"trial_type":"instructions","trial_index":216,"time_elapsed":1305005,"internal_node_id":"0.0-7.0"},{"rt":73441,"responses":"{\"Q0\":\"Nashville Warbler\"}","answer":["Nashville Warbler"],"trial_type":"image-multi-choice","trial_index":217,"time_elapsed":1379459,"internal_node_id":"0.0-8.0-0.0"},{"rt":57770,"responses":"{\"Q0\":\"Black-and-white Warbler\"}","answer":["Black-and-white Warbler"],"trial_type":"image-multi-choice","trial_index":218,"time_elapsed":1438239,"internal_node_id":"0.0-8.0-1.0"},{"rt":8385,"responses":"{\"Q0\":\"Townsend's Warbler\"}","answer":["Townsend's Warbler"],"trial_type":"image-multi-choice","trial_index":219,"time_elapsed":1447633,"internal_node_id":"0.0-8.0-2.0"},{"rt":7194,"responses":"{\"Q0\":\"Lark Sparrow\"}","answer":["Lark Sparrow"],"trial_type":"image-multi-choice","trial_index":220,"time_elapsed":1455835,"internal_node_id":"0.0-8.0-3.0"},{"rt":6877,"responses":"{\"Q0\":\"Yellow Warbler\"}","answer":["Yellow Warbler"],"trial_type":"image-multi-choice","trial_index":221,"time_elapsed":1463721,"internal_node_id":"0.0-8.0-4.0"},{"rt":15438,"responses":"{\"Q0\":\"Orange-crowned Warbler\"}","answer":["Orange-crowned Warbler"],"trial_type":"image-multi-choice","trial_index":222,"time_elapsed":1480168,"internal_node_id":"0.0-8.0-5.0"},{"rt":14302,"responses":"{\"Q0\":\"White-throated Sparrow\"}","answer":["White-throated Sparrow"],"trial_type":"image-multi-choice","trial_index":223,"time_elapsed":1495480,"internal_node_id":"0.0-8.0-6.0"},{"rt":13041,"responses":"{\"Q0\":\"Fox Sparrow\"}","answer":["Fox Sparrow"],"trial_type":"image-multi-choice","trial_index":224,"time_elapsed":1509532,"internal_node_id":"0.0-8.0-7.0"},{"rt":36948,"responses":"{\"Q0\":\"Vesper Sparrow\"}","answer":["Song Sparrow"],"trial_type":"image-multi-choice","trial_index":225,"time_elapsed":1547489,"internal_node_id":"0.0-8.0-8.0"},{"rt":15999,"responses":"{\"Q0\":\"Magnolia Warbler\"}","answer":["Blackburnian Warbler"],"trial_type":"image-multi-choice","trial_index":226,"time_elapsed":1564499,"internal_node_id":"0.0-8.0-9.0"},{"rt":22322,"responses":"{\"Q0\":\"Vesper Sparrow\"}","answer":["Vesper Sparrow"],"trial_type":"image-multi-choice","trial_index":227,"time_elapsed":1587831,"internal_node_id":"0.0-8.0-10.0"},{"rt":6258,"responses":"{\"Q0\":\"White-crowned Sparrow\"}","answer":["White-crowned Sparrow"],"trial_type":"image-multi-choice","trial_index":228,"time_elapsed":1595099,"internal_node_id":"0.0-8.0-11.0"},{"rt":37546,"responses":"{\"Q0\":\"Chipping Sparrow\"}","answer":["American Tree Sparrow"],"trial_type":"image-multi-choice","trial_index":229,"time_elapsed":1633653,"internal_node_id":"0.0-8.0-12.0"},{"rt":56187,"responses":"{\"Q0\":\"Tennessee Warbler\"}","answer":["Tennessee Warbler"],"trial_type":"image-multi-choice","trial_index":230,"time_elapsed":1690848,"internal_node_id":"0.0-8.0-13.0"},{"rt":39267,"responses":"{\"Q0\":\"Blackburnian Warbler\"}","answer":["Magnolia Warbler"],"trial_type":"image-multi-choice","trial_index":231,"time_elapsed":1731123,"internal_node_id":"0.0-8.0-14.0"},{"rt":19117,"responses":"{\"Q0\":\"Northern Waterthrush\"}","answer":["Northern Waterthrush"],"trial_type":"image-multi-choice","trial_index":232,"time_elapsed":1751251,"internal_node_id":"0.0-8.0-15.0"},{"rt":12084,"responses":"{\"Q0\":\"Chipping Sparrow\"}","answer":["Chipping Sparrow"],"trial_type":"image-multi-choice","trial_index":233,"time_elapsed":1764345,"internal_node_id":"0.0-8.0-16.0"},{"rt":29498,"responses":"{\"Q0\":\"Song Sparrow\"}","answer":["Swamp Sparrow"],"trial_type":"image-multi-choice","trial_index":234,"time_elapsed":1794855,"internal_node_id":"0.0-8.0-17.0"},{"rt":11209,"responses":"{\"Q0\":\"Song Sparrow\"}","answer":["Lincoln's Sparrow"],"trial_type":"image-multi-choice","trial_index":235,"time_elapsed":1807073,"internal_node_id":"0.0-8.0-18.0"},{"rt":7606,"responses":"{\"Q0\":\"Ovenbird\"}","answer":["Ovenbird"],"trial_type":"image-multi-choice","trial_index":236,"time_elapsed":1815691,"internal_node_id":"0.0-8.0-19.0"}]