"view_history","rt","trial_type","trial_index","time_elapsed","internal_node_id","sim_score","stimulus","responses","answer"
"[{""page_index"":0,""viewing_time"":21082}]","21085","instructions","0","21087","0.0-0.0","","","",""
"","7231","similarity_demo","1","29335","0.0-1.0","3","[""img/866.jpg"",""img/868.jpg""]","",""
"[{""page_index"":0,""viewing_time"":7361}]","7363","instructions","2","37699","0.0-2.0","","","",""
"","4411","similarity_demo","3","43123","0.0-3.0","1","[""img/766.jpg"",""img/867.jpg""]","",""
"[{""page_index"":0,""viewing_time"":5327}]","5328","instructions","4","49453","0.0-4.0","","","",""
"[{""page_index"":0,""viewing_time"":107046}]","107048","instructions","5","157502","0.0-5.0","","","",""
"","5755","similarity","6","164272","0.0-6.0-0.0","2","[""img/0868/5fa7f9d0-f0e5-454c-8224-74d964818f56.jpg"",""img/0901/77087ed2-6e12-4329-b2a5-605bca6d972d.jpg""]","",""
"","5669","similarity","7","170955","0.0-6.0-1.0","2","[""img/0769/1ca58b80-2365-446d-9616-6c1719e6c46f.jpg"",""img/0867/179ab87a-8eac-4c52-a41f-2e48e3120f09.jpg""]","",""
"","3961","similarity","8","175933","0.0-6.0-2.0","1","[""img/0766/26d3ae14-8275-4e08-99b2-a6598c193ddf.jpg"",""img/0898/4184e5a2-84ea-4f36-9b42-ae58646f6f87.jpg""]","",""
"","5441","similarity","9","182385","0.0-6.0-3.0","4","[""img/0902/8065aa6b-4aef-4368-afa2-02c6465ca582.jpg"",""img/0881/f8bd891e-aa09-4782-89db-33e7cb2b0cf1.jpg""]","",""
"","5486","similarity","10","188883","0.0-6.0-4.0","4","[""img/0894/5f15154e-e72e-4ce5-aafb-bce6f0564006.jpg"",""img/0894/2d2db7b3-e8a3-499b-b63a-14f51bf73882.jpg""]","",""
"","4219","similarity","11","194114","0.0-6.0-5.0","2","[""img/0874/3f471690-9788-4d03-90c7-f615aecef149.jpg"",""img/0899/51a7a498-98c7-42d7-bca8-bc2d8f0b5831.jpg""]","",""
"","4653","similarity","12","199782","0.0-6.0-6.0","5","[""img/0904/0d17b811-063e-416e-a23c-3b3cfa4fcce5.jpg"",""img/0764/f2f23359-8e82-41d3-8900-5b9f4433991d.jpg""]","",""
"","4786","similarity","13","205579","0.0-6.0-7.0","3","[""img/0899/ad8268c5-8199-48d0-ad70-c5b6d6c599ec.jpg"",""img/0898/e167334e-cc1d-4986-b3b1-c7bc7da64baa.jpg""]","",""
"","5490","similarity","14","212080","0.0-6.0-8.0","3","[""img/0874/ca23d307-fc00-4d7d-9106-584c6eb21b4d.jpg"",""img/0903/f1fa0f8d-e62b-4b4a-a174-31a0fabfe61b.jpg""]","",""
"","6320","similarity","15","219411","0.0-6.0-9.0","3","[""img/0881/445edb15-bd7f-4af3-8bd5-c6ad9677bb31.jpg"",""img/0758/7ffbc76b-1fc1-432c-8f7e-9ec8d1b3f643.jpg""]","",""
"","4934","similarity","16","225356","0.0-6.0-10.0","3","[""img/0898/04e39a7a-fcf6-4156-ab0e-f5871f335e1c.jpg"",""img/0901/00acf6c1-b66e-4060-bb04-4caf29b5a8b0.jpg""]","",""
"","4409","similarity","17","230776","0.0-6.0-11.0","5","[""img/0903/4cbdc464-e562-4ec2-9bb6-15f894fdf528.jpg"",""img/0769/9ea9ceb6-049e-4ad9-be8f-00645cd35803.jpg""]","",""
"","3076","similarity","18","234865","0.0-6.0-12.0","1","[""img/0764/c84fbfa8-521c-407a-9bd3-24f7308d896c.jpg"",""img/0868/09a9ef4d-d000-4cfa-a6aa-ebec7c2edeb4.jpg""]","",""
"","3679","similarity","19","239554","0.0-6.0-13.0","2","[""img/0867/f8488a47-94ee-4166-952c-44e16cf172f6.jpg"",""img/0903/5248eedd-7e6a-4d39-91b0-06ec227f3ed0.jpg""]","",""
"","3627","similarity","20","244191","0.0-6.0-14.0","1","[""img/0766/d50d734f-285c-4840-bc7a-c8dd4aff391e.jpg"",""img/0758/20497cbe-ddae-489e-86e2-ab06985ed07c.jpg""]","",""
"","4578","similarity","21","249779","0.0-6.0-15.0","6","[""img/0902/af45fe42-178c-4c1a-99ef-256e87e3b092.jpg"",""img/0860/5383b320-1518-4095-a58e-5cc1ae30b64c.jpg""]","",""
"","3673","similarity","22","254463","0.0-6.0-16.0","3","[""img/0769/47700831-0ca2-4fdd-a498-a3bc5a528f43.jpg"",""img/0875/527ced51-8e53-4aab-ab05-86df219104c0.jpg""]","",""
"","3038","similarity","23","258511","0.0-6.0-17.0","3","[""img/0904/6291eb43-c10c-4810-a36a-101d09868b04.jpg"",""img/0866/386235d2-6857-41e7-88a8-25cfc3430025.jpg""]","",""
"","3622","similarity","24","263147","0.0-6.0-18.0","7","[""img/0875/5a7c4e35-6514-4e12-8879-d16071da4cd6.jpg"",""img/0875/42910c99-5463-450a-a0f8-d4d060a11455.jpg""]","",""
"","3843","similarity","25","268000","0.0-6.0-19.0","7","[""img/0758/61d64021-9214-4951-bdf8-f871f9827cf9.jpg"",""img/0758/dd559618-7f09-4a07-8018-d311c4a5ea29.jpg""]","",""
"","3843","similarity","26","272853","0.0-6.0-20.0","5","[""img/0902/07437a16-3d0f-4a5c-89ec-36d0efa4b3b8.jpg"",""img/0874/1016b306-087c-4afc-aa08-fa527b28dc76.jpg""]","",""
"","4633","similarity","27","278493","0.0-6.0-21.0","7","[""img/0764/ca9829fe-aaf8-45b8-b98a-6bae751c63dd.jpg"",""img/0769/35f2dd39-40aa-498e-b401-9f1ef2622d00.jpg""]","",""
"","4977","similarity","28","284480","0.0-6.0-22.0","5","[""img/0901/c6c877e0-dd63-4e00-9657-33af29d55aab.jpg"",""img/0874/2c9464dd-8a23-4baa-ac94-1ba3af5c15cc.jpg""]","",""
"","4803","similarity","29","290295","0.0-6.0-23.0","5","[""img/0875/a4935837-7d3c-4df6-88c1-36a94d4991ca.jpg"",""img/0903/b4a0f61e-a964-4b79-a9a7-f767a8f92f34.jpg""]","",""
"","3838","similarity","30","295147","0.0-6.0-24.0","5","[""img/0769/057eb0a0-aa5b-40c7-9852-21444f68d767.jpg"",""img/0881/c24f3051-eefa-42de-aba6-fccb56d93c70.jpg""]","",""
"","4363","similarity","31","300519","0.0-6.0-25.0","3","[""img/0867/50a1b60e-3a29-44bf-b606-d4bd3746fea9.jpg"",""img/0904/56e73f28-7e64-489b-a161-e6b1a063878d.jpg""]","",""
"","3849","similarity","32","305378","0.0-6.0-26.0","5","[""img/0860/61fb959d-d4d9-4de4-9e4e-4fa62b4cfcd5.jpg"",""img/0881/f62bdcd1-a4b7-4d48-83da-d9c9e01c8727.jpg""]","",""
"","3571","similarity","33","309957","0.0-6.0-27.0","7","[""img/0866/d266fece-59b3-46fa-b69f-96f6efb81b59.jpg"",""img/0866/02f5e6b9-52b7-448c-9708-5b460d0c9a23.jpg""]","",""
"","4380","similarity","34","315348","0.0-6.0-28.0","5","[""img/0764/958b8576-3a3b-4acc-96dc-06b74de69f37.jpg"",""img/0862/847e5208-38ec-4f36-949c-296cdd7424ee.jpg""]","",""
"","4288","similarity","35","320646","0.0-6.0-29.0","5","[""img/0904/5aec2708-cf14-4a58-aa30-9a8a61c1be0e.jpg"",""img/0758/eabcd7a8-56ad-4fd2-bc24-90f6b7b33265.jpg""]","",""
"","3739","similarity","36","325394","0.0-6.0-30.0","7","[""img/0894/43216a7f-27bc-4b5a-8841-d122a30da9d9.jpg"",""img/0899/565ccdd9-0933-4536-a625-3c0e25a713dd.jpg""]","",""
"","4843","similarity","37","331247","0.0-6.0-31.0","5","[""img/0860/d9a0d117-6d1d-41c0-8fec-9aff0fd9e9f2.jpg"",""img/0904/2f88ce53-02d0-4f95-a082-182c56a0eeb4.jpg""]","",""
"","3274","similarity","38","335535","0.0-6.0-32.0","7","[""img/0874/99f6563c-8a8d-4c1c-a41d-667b618c3fd5.jpg"",""img/0881/44e09805-5a25-4f17-a716-4ad4a331b174.jpg""]","",""
"","4558","similarity","39","341104","0.0-6.0-33.0","6","[""img/0881/6b1189e6-232d-4042-8885-16dc7b10e0d4.jpg"",""img/0899/a048912c-b12c-40e3-90af-46b69b0cc4fe.jpg""]","",""
"","4703","similarity","40","346816","0.0-6.0-34.0","2","[""img/0866/9b38d691-1802-4959-ab3f-fc902f0e4ea6.jpg"",""img/0862/fb26cb07-d5a9-4653-813c-f41609f26cd5.jpg""]","",""
"","4578","similarity","41","352404","0.0-6.0-35.0","5","[""img/0868/0d3abd3a-b6c3-4584-a9f7-e2da63748b3d.jpg"",""img/0894/e6385e52-6c35-43bd-b0af-bc803d107b11.jpg""]","",""
"","3603","similarity","42","357018","0.0-6.0-36.0","7","[""img/0860/94ef7afc-e0e6-4a15-98c6-0bfac82bc832.jpg"",""img/0860/87039971-2210-4aab-93c0-8e9b5f1655b2.jpg""]","",""
"","4124","similarity","43","362152","0.0-6.0-37.0","7","[""img/0862/cdaed51d-9e2f-4807-801a-4663c40077e2.jpg"",""img/0864/ef9cbca0-4be8-435d-ad49-977259e80409.jpg""]","",""
"","3797","similarity","44","366959","0.0-6.0-38.0","5","[""img/0766/0025de5e-f620-4079-8a0f-00326ff3a6b0.jpg"",""img/0866/d493a2c8-66eb-44b4-be02-2f327b700b7c.jpg""]","",""
"","4075","similarity","45","372045","0.0-6.0-39.0","5","[""img/0875/8521fd58-3b1e-4dc5-97ae-804edfa6734a.jpg"",""img/0898/08c72dac-f8ad-407a-9ce6-8c9a5d679c3a.jpg""]","",""
"","4439","similarity","46","377494","0.0-6.0-40.0","6","[""img/0766/2da002a4-05c9-4f5c-9ed7-433b4183e273.jpg"",""img/0769/022c7e3b-c3f2-4119-b4bc-f22fa7cae18c.jpg""]","",""
"","4007","similarity","47","406742","0.0-6.0-41.0","5","[""img/0874/8cdb1c07-1c32-46d2-981c-3636560fa6e5.jpg"",""img/0764/23ea9375-f801-4a96-9925-7d453da887c7.jpg""]","",""
"","3835","similarity","48","411586","0.0-6.0-42.0","2","[""img/0868/4bd5105a-d2c3-4f82-8c80-57196106ba53.jpg"",""img/0902/d5e25767-e8ec-45f3-ac0a-7b4a6f7a9edc.jpg""]","",""
"","3528","similarity","49","416124","0.0-6.0-43.0","1","[""img/0875/34132396-d896-4c2d-8087-646dd867e769.jpg"",""img/0899/a05bea16-2bb4-4cb9-b8fb-4ff975db6971.jpg""]","",""
"","4280","similarity","50","421418","0.0-6.0-44.0","3","[""img/0866/bf14b5bd-fb55-47db-86b9-4f8aeb9a6dad.jpg"",""img/0860/31ff6436-98bf-4652-bed2-40f627229568.jpg""]","",""
"","3751","similarity","51","426179","0.0-6.0-45.0","3","[""img/0766/d8221e53-2300-4d99-ae1b-0bfb0eabe579.jpg"",""img/0903/6a87dbad-9b8d-4ff5-9c41-03c9aa24f0c3.jpg""]","",""
"","3906","similarity","52","431096","0.0-6.0-46.0","5","[""img/0901/0adb3bd6-d758-4ba7-9723-3ad6cac05bd5.jpg"",""img/0904/25365108-e038-4021-aac9-797f2063b337.jpg""]","",""
"","4587","similarity","53","436694","0.0-6.0-47.0","5","[""img/0758/b76ceca7-95ac-46e4-ac13-da02c8e93be9.jpg"",""img/0902/ca3160ba-ad5d-459f-a1b6-8b4f3c85ecd5.jpg""]","",""
"","4251","similarity","54","441960","0.0-6.0-48.0","6","[""img/0764/6fbd1902-fa2a-48d8-bc11-705b8ab68d8f.jpg"",""img/0764/5c8fbafc-e62e-43ed-9b37-f73e8e45147d.jpg""]","",""
"","3866","similarity","55","446836","0.0-6.0-49.0","1","[""img/0866/620cd1aa-0800-4414-8f6e-90342e7a99ad.jpg"",""img/0902/d1083f2c-5520-44ec-81a8-3f856fbf0e80.jpg""]","",""
"","4008","similarity","56","451856","0.0-6.0-50.0","3","[""img/0764/ba0c0955-acbb-457d-b1c2-f006b88121d5.jpg"",""img/0758/6cd8c362-ae2a-41eb-80a3-3a4f7ace1530.jpg""]","",""
"","3800","similarity","57","456668","0.0-6.0-51.0","5","[""img/0898/26c41340-15bd-4ead-8fe4-c0d0ddca09c2.jpg"",""img/0894/05161000-f476-499b-a878-c13c7f347fd9.jpg""]","",""
"","3093","similarity","58","460773","0.0-6.0-52.0","5","[""img/0875/e7e66b13-b573-431e-b85e-288ce04a35a3.jpg"",""img/0866/a04d37f0-99dd-478a-b6c6-58b215138f84.jpg""]","",""
"","3749","similarity","59","465533","0.0-6.0-53.0","7","[""img/0904/a8c3c7d2-9bcf-4347-9e03-8203adfc1fc5.jpg"",""img/0904/24fc38fe-842c-4831-ad8a-b1de5c25c0a8.jpg""]","",""
"","4047","similarity","60","470590","0.0-6.0-54.0","7","[""img/0769/387a9744-d6a7-42b8-bab8-33007ec434aa.jpg"",""img/0769/aad494cc-674d-4a08-9bfa-24a88ebe3c79.jpg""]","",""
"","3547","similarity","61","475147","0.0-6.0-55.0","3","[""img/0898/8605a25b-6895-476d-8c13-df7a83f96093.jpg"",""img/0758/2fa3e613-e676-4e6e-bd12-705327eeb3e1.jpg""]","",""
"","3388","similarity","62","479545","0.0-6.0-56.0","6","[""img/0769/f6396414-6788-4d59-9683-de153298d89c.jpg"",""img/0902/e5a46bda-30d1-41ca-b36d-b8529b5a63d1.jpg""]","",""
"","3712","similarity","63","484267","0.0-6.0-57.0","5","[""img/0864/300bb811-8b3c-4c42-8653-6097c3725197.jpg"",""img/0881/405484ae-0d00-4b05-bc57-6420a36adfac.jpg""]","",""
"","3513","similarity","64","488791","0.0-6.0-58.0","2","[""img/0758/9fb5b2fe-3f00-4fe6-973c-1ce10d5f4cd5.jpg"",""img/0868/d98ca254-b195-477f-b57e-5760a2717db8.jpg""]","",""
"","4399","similarity","65","494201","0.0-6.0-59.0","7","[""img/0862/e0f1a4e9-e1b6-45f7-af67-89f334e6630d.jpg"",""img/0769/f2740c58-7c02-433f-920b-746b0b75435b.jpg""]","",""
"","4092","similarity","66","499307","0.0-6.0-60.0","5","[""img/0764/1f95ab5f-fb65-4d70-b5db-d6bd6351a8aa.jpg"",""img/0903/ea75f240-fb62-4edb-a709-83e858b202c0.jpg""]","",""
"","3433","similarity","67","503747","0.0-6.0-61.0","7","[""img/0899/0433d056-aa30-4f8a-9aa1-abbb951e4edd.jpg"",""img/0899/66ab3178-c3fe-4455-ad17-d5952b08e018.jpg""]","",""
"","3458","similarity","68","508216","0.0-6.0-62.0","5","[""img/0860/29a21a9f-54bb-4093-ad3f-04823ceaa89f.jpg"",""img/0875/2c361b79-c3d1-4eda-812e-bf03192407bf.jpg""]","",""
"","3617","similarity","69","512844","0.0-6.0-63.0","1","[""img/0868/8b0b8473-e2c0-4331-aa56-c3a5c29369da.jpg"",""img/0874/31e22c7c-99aa-40b1-bf03-dd73fa2df4d6.jpg""]","",""
"","9705","similarity","70","523559","0.0-6.0-64.0","6","[""img/0758/3ddd05d3-557e-4ee7-8b78-9d2d681d8ae2.jpg"",""img/0862/00c06b00-3b73-44e9-bc1e-c5aafb438321.jpg""]","",""
"","4450","similarity","71","529019","0.0-6.0-65.0","5","[""img/0904/73920552-103b-4c9c-9ece-e0b8376b4504.jpg"",""img/0898/5f699581-3853-4547-856c-12f419ba5af7.jpg""]","",""
"","3092","similarity","72","533119","0.0-6.0-66.0","1","[""img/0881/20af39f5-373d-4a55-a437-2dc4c0382c46.jpg"",""img/0866/23a224f3-2012-4fc8-8e0f-3c36f8de27fd.jpg""]","",""
"","3793","similarity","73","537922","0.0-6.0-67.0","3","[""img/0867/cc72ed48-7704-422c-86d6-467a1145287a.jpg"",""img/0898/cd3aaa3f-efa9-4ab3-8d6f-a6a9273ddf42.jpg""]","",""
"","4148","similarity","74","543079","0.0-6.0-68.0","6","[""img/0902/b03fee99-d5ca-4bf8-871c-a4a743a39842.jpg"",""img/0764/b8e23f4f-ff19-4472-ad9b-2f85548ebca0.jpg""]","",""
"","4760","similarity","75","548848","0.0-6.0-69.0","5","[""img/0875/fb732ab5-013a-4366-9f65-27811ed157e9.jpg"",""img/0867/db7e032f-162b-46f5-ae67-2b29679adee4.jpg""]","",""
"","4224","similarity","76","554084","0.0-6.0-70.0","6","[""img/0766/989c5c7f-1aff-4442-ac63-9d46acf4a891.jpg"",""img/0764/713cc27e-2338-4486-bfe9-5f5725fbd7a0.jpg""]","",""
"","3527","similarity","77","558621","0.0-6.0-71.0","5","[""img/0894/10f22b96-040c-44f4-950b-a4963f3f506c.jpg"",""img/0867/85a96c62-548f-4994-9553-819e03c3135a.jpg""]","",""
"","3632","similarity","78","563263","0.0-6.0-72.0","2","[""img/0875/99698b4d-b4a1-44bc-8c83-8ea755bbbf61.jpg"",""img/0764/c0b03adb-bd0a-4b96-a915-a827c2fd5211.jpg""]","",""
"","3213","similarity","79","567485","0.0-6.0-73.0","5","[""img/0867/6e19c858-b606-45b2-a4c6-910a73f1d82c.jpg"",""img/0866/6f2a90d7-14f1-4f1b-bd64-fc0af6b9fe44.jpg""]","",""
"","3875","similarity","80","572370","0.0-6.0-74.0","3","[""img/0903/b7e3723f-fd03-4f3d-8820-f19496463a34.jpg"",""img/0758/6e95579b-5166-487c-b8cb-e417c6a218e3.jpg""]","",""
"","5230","similarity","81","578609","0.0-6.0-75.0","1","[""img/0766/f5f78e4e-d88f-4866-951a-118ba9fec4d0.jpg"",""img/0868/4a8a45ed-2c4f-421b-9564-409a33ecd26c.jpg""]","",""
"","4203","similarity","82","583821","0.0-6.0-76.0","5","[""img/0874/995f0332-0439-4eb4-add3-957335dbf6d9.jpg"",""img/0766/535849cc-ff5d-4df9-8f31-0ce94a97d571.jpg""]","",""
"","4273","similarity","83","589109","0.0-6.0-77.0","1","[""img/0881/609a5e93-38b5-4940-8627-2bf8fad7f802.jpg"",""img/0868/6a28c3b0-3d76-498a-9fb7-ddafc665eca8.jpg""]","",""
"","3508","similarity","84","593631","0.0-6.0-78.0","1","[""img/0758/d540bee6-b460-4c32-ac57-bc282742d7d4.jpg"",""img/0901/bc47e078-bda4-40ed-b89a-bbd819164b95.jpg""]","",""
"","5833","similarity","85","600476","0.0-6.0-79.0","2","[""img/0881/c843e210-bdfe-4a7c-8bbe-fcea1f90fe1c.jpg"",""img/0898/0af304a2-6a7a-4082-ab7c-4450cd08cc58.jpg""]","",""
"","4743","similarity","86","606229","0.0-6.0-80.0","1","[""img/0867/12264664-1860-46df-8c21-162b9817cdda.jpg"",""img/0758/67c0be2f-9e91-48b3-8219-70ac0a1802fa.jpg""]","",""
"","5487","similarity","87","612725","0.0-6.0-81.0","4","[""img/0769/50985283-d353-4abc-9abe-14a91d56ebe6.jpg"",""img/0899/25ae6ec8-9565-49fe-a8bb-8d0666f52716.jpg""]","",""
"","3869","similarity","88","617605","0.0-6.0-82.0","7","[""img/0903/bf0a7d60-eca5-44b0-bafd-baf21db9904b.jpg"",""img/0903/f45a103c-9bfe-49fd-ad96-bdd8d2589195.jpg""]","",""
"","3605","similarity","89","634959","0.0-6.0-83.0","2","[""img/0867/8ba0c5a7-c7e4-42cf-a80a-543763b90779.jpg"",""img/0766/27f54113-8561-4568-9ffe-0a1650ae65ec.jpg""]","",""
"","4748","similarity","90","640717","0.0-6.0-84.0","3","[""img/0902/d2c34af0-8c50-437d-8cc3-619195a3e8ba.jpg"",""img/0867/a749dddb-69f0-44a6-acdc-2bf295cf6dcc.jpg""]","",""
"","3921","similarity","91","645648","0.0-6.0-85.0","2","[""img/0901/6e2957f8-f5ab-46f4-87cc-bb50155a098b.jpg"",""img/0875/5a1e5100-0d94-4fec-bbe9-ca9894d2cf8e.jpg""]","",""
"","5244","similarity","92","651903","0.0-6.0-86.0","2","[""img/0764/bc3865c9-9004-4582-88a7-048478673f97.jpg"",""img/0866/a15b02be-11bb-43e3-b0e0-ecc3bd7dfc49.jpg""]","",""
"","4189","similarity","93","657102","0.0-6.0-87.0","2","[""img/0901/58ec7fa9-b466-4651-90aa-c082df0972de.jpg"",""img/0894/c505c65a-cde2-4f2c-8cde-f8676f7c894d.jpg""]","",""
"","4159","similarity","94","662271","0.0-6.0-88.0","4","[""img/0898/c3cecf20-f7fd-45fa-97d0-dc0a63e8d6c0.jpg"",""img/0769/4680bcc3-8fbc-4643-8f9a-12aa0e780b64.jpg""]","",""
"","5779","similarity","95","669059","0.0-6.0-89.0","7","[""img/0769/bb8c4e53-6f32-4814-97ee-392d4decfb2e.jpg"",""img/0894/792c83e9-a747-4000-bc72-5663d2439edb.jpg""]","",""
"","4250","similarity","96","674317","0.0-6.0-90.0","5","[""img/0862/e697469a-ec19-4414-b972-7b9f3564785b.jpg"",""img/0874/a82926a3-0b43-4add-803c-d5f9ea7798ee.jpg""]","",""
"","4449","similarity","97","679778","0.0-6.0-91.0","4","[""img/0894/133a1636-d123-4893-873c-1718050f832a.jpg"",""img/0766/2746b119-4bba-463e-acf0-88136dc6600c.jpg""]","",""
"","3502","similarity","98","684290","0.0-6.0-92.0","1","[""img/0874/93d1f8dc-acf2-4f03-bd8d-8ec35df276ed.jpg"",""img/0867/5e07b34d-b40f-4b1c-ac10-49975bace45f.jpg""]","",""
"","3515","similarity","99","688821","0.0-6.0-93.0","1","[""img/0899/f95cbdb4-f804-4f5d-ad76-373ad343e658.jpg"",""img/0868/c8ac40c7-6904-4e13-8d61-c75d3052dc4e.jpg""]","",""
"","4158","similarity","100","693991","0.0-6.0-94.0","4","[""img/0903/0e5c2854-42aa-48c0-9c3d-6e1ad2a400bd.jpg"",""img/0862/064818ee-13d5-4618-bb24-21c7368ea278.jpg""]","",""
"","2907","similarity","101","697908","0.0-6.0-95.0","4","[""img/0899/0e1d936a-dbe2-4afc-9f19-7b7a1ae6c9ed.jpg"",""img/0766/00891401-e4c9-4ce1-bc19-f70740d174bc.jpg""]","",""
"","4348","similarity","102","703266","0.0-6.0-96.0","7","[""img/0867/f26f6b60-f772-4f4c-95a4-addc62cfd692.jpg"",""img/0868/83b4350a-3b70-4cea-b7f5-b5b56f3050a8.jpg""]","",""
"","6308","similarity","103","710583","0.0-6.0-97.0","5","[""img/0862/92fcd8a4-8193-4a6a-ae09-dd4a6338b0df.jpg"",""img/0901/4f9cffe0-c0be-4d7f-bacd-9d51efd19b4a.jpg""]","",""
"","5617","similarity","104","717209","0.0-6.0-98.0","2","[""img/0875/5a716432-c6ca-4b1c-955a-2b8ac25198ee.jpg"",""img/0766/ea09dd5a-d24d-4e97-a099-7da3db1baef1.jpg""]","",""
"","4921","similarity","105","723140","0.0-6.0-99.0","6","[""img/0758/e1ba5e53-addc-436a-b428-d34fc1b130dc.jpg"",""img/0874/ca76a855-4e77-4f2f-872a-0a718153e7ed.jpg""]","",""
"","4262","similarity","106","728417","0.0-6.0-100.0","4","[""img/0904/96e503ea-6630-4996-85f2-0237688ce441.jpg"",""img/0868/15dd6fd7-791e-4b53-b203-195d617521a4.jpg""]","",""
"","5535","similarity","107","734962","0.0-6.0-101.0","3","[""img/0903/2a9c8033-3e70-47fa-816d-97ee1813a3a3.jpg"",""img/0866/c446214b-a368-4c65-ae39-ea46894256ab.jpg""]","",""
"","4804","similarity","108","740777","0.0-6.0-102.0","3","[""img/0868/77091fc7-a590-4ebb-b915-fdb2483a2399.jpg"",""img/0769/9ea27d61-3d55-418c-8d14-82e90f656f01.jpg""]","",""
"","5609","similarity","109","747397","0.0-6.0-103.0","6","[""img/0902/cf9dee9c-2bdf-4d64-9302-97f1660fe52c.jpg"",""img/0899/fef567a2-c121-4481-9af0-ff108d199bbf.jpg""]","",""
"","4803","similarity","110","753211","0.0-6.0-104.0","2","[""img/0868/1a62b2b2-18f5-466e-b564-5176a57c565e.jpg"",""img/0862/eefa5588-9efd-4591-aa5f-a2e17c7d7bcc.jpg""]","",""
"","4736","similarity","111","758956","0.0-6.0-105.0","5","[""img/0903/6378ee1e-3d2b-48d2-87be-bebda32c8268.jpg"",""img/0894/7dd6ff43-f8fc-408a-8a41-a2b261871820.jpg""]","",""
"","6095","similarity","112","766061","0.0-6.0-106.0","6","[""img/0864/e336a4c5-6648-4fd7-b2f6-93a3fb83f8c6.jpg"",""img/0874/3ce41e7c-40c8-4d58-a546-171114521796.jpg""]","",""
"","5222","similarity","113","772292","0.0-6.0-107.0","6","[""img/0862/f23038d4-c366-4f70-979f-66b62362efa4.jpg"",""img/0902/4e0baa32-988e-46f6-989d-f669225ab645.jpg""]","",""
"","4775","similarity","114","778077","0.0-6.0-108.0","7","[""img/0904/696ebb60-8891-417a-91fd-c53218907a95.jpg"",""img/0903/9b60ef5b-234f-4239-892b-3d4c412accc2.jpg""]","",""
"","5479","similarity","115","784566","0.0-6.0-109.0","5","[""img/0764/0e7ed062-f798-4366-8a24-6f430926f919.jpg"",""img/0864/3651d070-2fc5-4848-b6a6-088a2d9ac5c9.jpg""]","",""
"","4787","similarity","116","790362","0.0-6.0-110.0","4","[""img/0866/4a87911a-d5be-4d4e-ab8e-3d1f581bf507.jpg"",""img/0894/7fb082e0-ce79-485c-9109-04367fb32275.jpg""]","",""
"","5623","similarity","117","796995","0.0-6.0-111.0","2","[""img/0899/76ad07e2-ca25-45eb-84f2-8d80b8ca3e26.jpg"",""img/0903/470acfd5-5571-4a7b-b3a4-28d87e098138.jpg""]","",""
"","5264","similarity","118","803269","0.0-6.0-112.0","6","[""img/0902/d49743d6-67ae-4c2e-a939-8fd895a0f18e.jpg"",""img/0904/9d30eff1-46ef-4453-b11e-124ef8145c00.jpg""]","",""
"","4883","similarity","119","809162","0.0-6.0-113.0","5","[""img/0864/8ddd2e30-a1d0-479f-9cbe-591213023893.jpg"",""img/0860/524b2e98-5767-4d53-942c-ebae6925659b.jpg""]","",""
"","3332","similarity","120","813504","0.0-6.0-114.0","4","[""img/0860/b03b963d-949b-4d8d-b19c-4950c89eeca2.jpg"",""img/0899/00715b3f-851b-420b-a26b-d7f79f7759a9.jpg""]","",""
"","3992","similarity","121","818506","0.0-6.0-115.0","3","[""img/0881/f037e3b0-09cb-4a83-b2d9-6a71fe474e63.jpg"",""img/0903/07b445ee-0cdb-4d2c-a23b-d727613f4059.jpg""]","",""
"","4481","similarity","122","823998","0.0-6.0-116.0","4","[""img/0894/0130a973-d993-41f8-874a-fee23d9ac11f.jpg"",""img/0874/29830da7-be5f-44e5-b141-652a0ccf7269.jpg""]","",""
"","3849","similarity","123","828857","0.0-6.0-117.0","4","[""img/0881/e046471a-35b4-4159-bbf7-3cfd201bef66.jpg"",""img/0862/f188d4f0-76a4-4102-818c-a209969d73a5.jpg""]","",""
"","4365","similarity","124","834232","0.0-6.0-118.0","4","[""img/0868/e0aff734-077f-40dd-9781-74821abd3621.jpg"",""img/0875/2e13d160-eea1-416b-aff1-d37ab99ecc1d.jpg""]","",""
"","3387","similarity","125","838633","0.0-6.0-119.0","4","[""img/0860/18dfed73-e36b-4487-a8bd-0b8cff8e3668.jpg"",""img/0758/53f35650-e455-4b53-8be4-c3c8271c6466.jpg""]","",""
"","4957","similarity","126","844600","0.0-6.0-120.0","3","[""img/0864/1ebbc554-99fa-49f9-8799-317375a79820.jpg"",""img/0875/ebf7653f-ff45-4e9f-af58-2c042ab3cd2b.jpg""]","",""
"","5373","similarity","127","850983","0.0-6.0-121.0","3","[""img/0898/6cd3830b-d44e-4915-be2b-88d31424b91c.jpg"",""img/0866/0207e9a2-7dbb-40b5-9459-b472aaeceb2a.jpg""]","",""
"","4239","similarity","128","856231","0.0-6.0-122.0","1","[""img/0874/767f289c-9814-4496-803f-745cc8913d1f.jpg"",""img/0904/9dd5708f-3f8b-46a9-b49f-2f2fab87b357.jpg""]","",""
"","3228","similarity","129","860469","0.0-6.0-123.0","4","[""img/0904/9b3568cc-3cf7-42be-9df3-fdafde7a58b8.jpg"",""img/0864/3d4de670-b290-4285-9c3d-12a0e3af44e9.jpg""]","",""
"","4901","similarity","130","866380","0.0-6.0-124.0","6","[""img/0894/8cadb87a-7001-4e47-99fb-1867bebf1668.jpg"",""img/0902/5b45a7a0-81c8-4a71-aaa2-2ce09adb5a29.jpg""]","",""
"","3079","similarity","131","882064","0.0-6.0-125.0","1","[""img/0868/fd307a36-9a3a-47d7-ab7c-f810d0b35040.jpg"",""img/0864/c22faebd-9c53-47bc-ada3-b9a30c688e75.jpg""]","",""
"","6104","similarity","132","889178","0.0-6.0-126.0","5","[""img/0899/fd9efb43-701f-4cd6-baaa-4c38315f4bdc.jpg"",""img/0866/07c9c966-3c8d-40e7-8128-92b2acbaed5d.jpg""]","",""
"","2676","similarity","133","892862","0.0-6.0-127.0","4","[""img/0875/f87b67d7-c33e-40d1-b281-248c4be1cb6e.jpg"",""img/0904/63dd06dd-dccb-47ba-9740-eb33239e18a7.jpg""]","",""
"","2716","similarity","134","896589","0.0-6.0-128.0","3","[""img/0867/98d8cd96-1476-4fe0-a3a3-04f875500a1b.jpg"",""img/0899/9de5e857-aa9a-4e0c-8ba2-46d79bd069a4.jpg""]","",""
"","3471","similarity","135","901072","0.0-6.0-129.0","2","[""img/0901/693e0535-ef7e-4d60-af9d-fac2f38e8307.jpg"",""img/0867/7d1c497b-c1b3-4ed8-abb5-d7f73306015f.jpg""]","",""
"","3545","similarity","136","905625","0.0-6.0-130.0","3","[""img/0864/65210d57-1153-4657-886a-32e758f49b4a.jpg"",""img/0769/db94b61b-a5a7-4861-9d32-7b02ad194fb0.jpg""]","",""
"","2541","similarity","137","909175","0.0-6.0-131.0","4","[""img/0903/70d764d9-1f35-4da7-a35d-4cc39834d270.jpg"",""img/0868/293079b8-7e0c-4afd-a390-1e5d35fe3ded.jpg""]","",""
"","3133","similarity","138","913321","0.0-6.0-132.0","2","[""img/0864/87c467d3-abca-482f-ad80-3766c21b1bb3.jpg"",""img/0867/26611f4e-d694-4460-b7e2-43c62753ddc3.jpg""]","",""
"","3406","similarity","139","917737","0.0-6.0-133.0","5","[""img/0901/33b51a81-06d9-46d9-9d4f-5a2d6d6b8058.jpg"",""img/0860/4c530c3c-6aab-492a-94d1-9c01797bde40.jpg""]","",""
"","3054","similarity","140","921801","0.0-6.0-134.0","5","[""img/0881/4da99fdd-1f40-4bbb-8e21-8833eef313f5.jpg"",""img/0766/c23b5a20-e50f-4d85-841f-cf89212a4348.jpg""]","",""
"","3720","similarity","141","926535","0.0-6.0-135.0","5","[""img/0903/aa842abe-6fa3-448a-bf71-88d3ad28663b.jpg"",""img/0864/f92649a2-0590-4d31-9a7a-1bfb81666a2d.jpg""]","",""
"","3483","similarity","142","931028","0.0-6.0-136.0","3","[""img/0758/821c68d3-5cb0-4eae-8659-30e6263fca39.jpg"",""img/0894/e2446cf5-cd48-486a-badc-76498e087fbe.jpg""]","",""
"","4817","similarity","143","936857","0.0-6.0-137.0","4","[""img/0769/7c50e5f5-cc38-4d48-b009-fbe17bcea61c.jpg"",""img/0860/15b24a61-25be-4356-9eac-5ce95d0cb4a4.jpg""]","",""
"","3518","similarity","144","941385","0.0-6.0-138.0","6","[""img/0904/4b8daf2a-13a9-4ea9-9e0b-b265b6e933e7.jpg"",""img/0766/aaec5f42-7f0a-4a16-aeca-488d757acbcc.jpg""]","",""
"","2814","similarity","145","945209","0.0-6.0-139.0","5","[""img/0868/179a5502-ab5c-478e-8263-5a1fbcc101d2.jpg"",""img/0860/8fdba999-b946-4c7d-9891-336018b563ef.jpg""]","",""
"","4338","similarity","146","950555","0.0-6.0-140.0","7","[""img/0758/d57c2592-a317-4f63-91be-91a3a9afd222.jpg"",""img/0864/5f33e097-23e3-4002-882d-76e8cb15f451.jpg""]","",""
"","3120","similarity","147","954685","0.0-6.0-141.0","7","[""img/0867/a498eef3-9fa4-4ab2-9778-4ae82ac40dc5.jpg"",""img/0867/de92135f-5b65-4ed9-b245-188292c7c2f8.jpg""]","",""
"","3952","similarity","148","959648","0.0-6.0-142.0","7","[""img/0898/993d8f2d-bef7-4251-a193-0f93a32b7763.jpg"",""img/0898/a114b375-cb89-44ba-9498-74213f1ecdee.jpg""]","",""
"","3379","similarity","149","964037","0.0-6.0-143.0","7","[""img/0866/93a27239-8317-4e08-98ca-d8b1ff298e07.jpg"",""img/0769/c7cfacc3-7f07-46ff-9f5d-8073f4c4679b.jpg""]","",""
"","5939","similarity","150","970985","0.0-6.0-144.0","6","[""img/0860/c47fdead-eb02-4989-b078-26f4852f44fe.jpg"",""img/0898/224c1572-56b9-4f16-a9e4-6f3bc9c114bd.jpg""]","",""
"","4989","similarity","151","976983","0.0-6.0-145.0","5","[""img/0766/a1ed3f0f-e338-4a26-8fe4-4370f0c9fa6e.jpg"",""img/0864/b3c4e378-28f0-4699-9338-2a257b4bca04.jpg""]","",""
"","3801","similarity","152","981793","0.0-6.0-146.0","6","[""img/0860/4a022222-056d-461c-ab02-39fac9647552.jpg"",""img/0903/a0673b55-6040-47fe-9040-24bca27ca3c9.jpg""]","",""
"","4484","similarity","153","987287","0.0-6.0-147.0","2","[""img/0867/ac1797e4-8afc-48fe-b252-86d1defb1cca.jpg"",""img/0764/f64dfa83-333d-494c-87b5-73e942f1766e.jpg""]","",""
"","4963","similarity","154","993264","0.0-6.0-148.0","7","[""img/0769/91acb237-65a3-4d0b-9748-af5c7b83d3c7.jpg"",""img/0904/d23dd7be-7fe8-4435-82f7-bd592c01e6a1.jpg""]","",""
"","3920","similarity","155","998194","0.0-6.0-149.0","1","[""img/0764/50f1b062-d608-4bc0-ab25-b872dcf2ed93.jpg"",""img/0901/548d1110-7cb8-42a2-9927-9798875c8b5c.jpg""]","",""
"","4070","similarity","156","1003274","0.0-6.0-150.0","4","[""img/0904/09934646-45d2-4147-8fec-64a22a5ac822.jpg"",""img/0899/8de08897-b430-42fe-9d42-840670b80f94.jpg""]","",""
"","22093","similarity","157","1026375","0.0-6.0-151.0","1","[""img/0862/92f0146c-20c4-482e-aef5-adb693790338.jpg"",""img/0867/c66898ba-b71b-4d50-84f9-f7f84853a98d.jpg""]","",""
"","3020","similarity","158","1030404","0.0-6.0-152.0","7","[""img/0766/71b81ebd-0937-4d7f-b8bf-c4e46a4728fd.jpg"",""img/0766/2e1cf445-9aef-40e7-92f4-5facf48b64c5.jpg""]","",""
"","4097","similarity","159","1035510","0.0-6.0-153.0","5","[""img/0862/1c20f772-3a51-4a80-aac0-f57dc9f86c28.jpg"",""img/0894/b422d5c6-3c5a-49ae-a53e-7e88ac993f49.jpg""]","",""
"","3963","similarity","160","1040481","0.0-6.0-154.0","1","[""img/0899/0adc0bc3-6fca-4078-be6f-d45ddf1653d5.jpg"",""img/0901/50e1d53e-a49f-4806-8610-be6dec5a2475.jpg""]","",""
"","3945","similarity","161","1045436","0.0-6.0-155.0","7","[""img/0874/7e4f2150-3b59-4a36-b5da-a4e0ba410531.jpg"",""img/0874/eba003b4-cdab-4eee-8bc3-f064c7d94165.jpg""]","",""
"","3451","similarity","162","1049897","0.0-6.0-156.0","1","[""img/0860/9593362c-9fe5-4d12-9735-6000a11f6aa5.jpg"",""img/0867/bf560d4f-dee3-4f11-a385-705cc1aa5f3c.jpg""]","",""
"","3599","similarity","163","1054506","0.0-6.0-157.0","2","[""img/0901/875dedb9-24c9-4443-9f8c-85e97d70ee5a.jpg"",""img/0881/1407b85b-a1c6-45b1-9884-3b24203efadb.jpg""]","",""
"","4857","similarity","164","1060373","0.0-6.0-158.0","6","[""img/0903/6b5dcc60-3ad3-4962-93e5-e6cf768477af.jpg"",""img/0902/82d20e8c-2162-47a6-925b-52906558c046.jpg""]","",""
"","5314","similarity","165","1066697","0.0-6.0-159.0","3","[""img/0860/c3379ff7-0763-48fe-a1ec-7ea3d611bc7a.jpg"",""img/0764/55b3fab1-b809-4d38-a461-3f40ce062f52.jpg""]","",""
"","3851","similarity","166","1071558","0.0-6.0-160.0","3","[""img/0902/62f11694-7ed7-4cb7-8a73-9e95c43824e7.jpg"",""img/0875/90da8d75-108a-44ad-b999-e21fee3860d3.jpg""]","",""
"","3791","similarity","167","1076366","0.0-6.0-161.0","3","[""img/0898/40f99fb2-64d2-4e72-8a7f-a1cf60741e69.jpg"",""img/0862/4f0a3b4c-afbf-486e-b248-1d54982f54b4.jpg""]","",""
"","3475","similarity","168","1080851","0.0-6.0-162.0","4","[""img/0894/6b2e9509-8699-42b7-9582-7741df0ba2d7.jpg"",""img/0875/cff79b3a-a797-4393-9757-6275f999ec04.jpg""]","",""
"","4509","similarity","169","1086369","0.0-6.0-163.0","1","[""img/0866/8efcaa46-83ab-4dee-a35f-850402aa21ae.jpg"",""img/0864/e02eddb5-f468-499c-91bf-f7be3ffe979b.jpg""]","",""
"","4659","similarity","170","1092056","0.0-6.0-164.0","5","[""img/0766/af3be95e-e52e-4fae-899b-0ff02ec340aa.jpg"",""img/0862/ee3b7bff-4a70-4e84-9bea-4a565e456acb.jpg""]","",""
"","2950","similarity","171","1096016","0.0-6.0-165.0","1","[""img/0866/f756f7d1-9ad8-4a34-9ef6-7a443d705bfe.jpg"",""img/0874/85eb9b8a-c4c6-4e5a-b8e7-363a87a82054.jpg""]","",""
"","3364","similarity","172","1100389","0.0-6.0-166.0","5","[""img/0862/ba89835a-408c-480b-8594-ed4ffa97eb5c.jpg"",""img/0860/c7047cd2-7cc1-41b6-8a34-c0986774975f.jpg""]","",""
"","3766","similarity","173","1115513","0.0-6.0-167.0","5","[""img/0766/69e486f7-dbef-456b-9d48-53d814248a28.jpg"",""img/0901/1e23ffbd-19de-4c4f-aa23-c54aaa3319a3.jpg""]","",""
"","4521","similarity","174","1121040","0.0-6.0-168.0","6","[""img/0862/7918ca67-5bd3-4606-a5ea-c39fb11a9297.jpg"",""img/0862/d0ca4c78-fc35-46ed-bdcc-8e124283c53e.jpg""]","",""
"","4882","similarity","175","1126934","0.0-6.0-169.0","6","[""img/0894/661b9f9f-4bde-487a-b1ed-87085fde6948.jpg"",""img/0764/a86eed5b-d0af-4c3f-8c7a-26e98e98cf1a.jpg""]","",""
"","4191","similarity","176","1132136","0.0-6.0-170.0","6","[""img/0874/bf14b896-e930-4fd9-9c05-2e83317a2773.jpg"",""img/0898/b3290bf9-215b-4b45-b21a-65bdf73f142f.jpg""]","",""
"","4618","similarity","177","1137764","0.0-6.0-171.0","6","[""img/0860/17b44a7d-c5ca-479f-9e87-f65a64f5c80e.jpg"",""img/0766/1865bfc9-2410-4765-a804-3ae4ba2393d0.jpg""]","",""
"","4977","similarity","178","1143750","0.0-6.0-172.0","3","[""img/0898/0c7dde4f-efce-4b7a-9387-6921635b7890.jpg"",""img/0864/6e846d43-94a6-4b37-a268-65eda979f052.jpg""]","",""
"","3323","similarity","179","1148083","0.0-6.0-173.0","4","[""img/0881/4bd34581-94d8-4e88-8c89-5cef864ca3be.jpg"",""img/0764/e0788029-9d7f-414c-b747-46d2a99f7c86.jpg""]","",""
"","4641","similarity","180","1153734","0.0-6.0-174.0","3","[""img/0898/81b08535-2020-4c15-9ce4-2f1e460755ae.jpg"",""img/0868/4e626425-63c8-484a-8a1d-e66ee4e0bef8.jpg""]","",""
"","10309","similarity","181","1165053","0.0-6.0-175.0","5","[""img/0864/da39ad34-04e0-40d4-a724-c08d53e0ea09.jpg"",""img/0864/efcfbb1b-8197-44c9-b723-40d6c608dd3c.jpg""]","",""
"","3530","similarity","182","1169593","0.0-6.0-176.0","6","[""img/0899/b45c550b-96c3-4255-ad59-48a2b4db1c1e.jpg"",""img/0862/de9ad88c-b522-430a-8ee9-eb06a9f85df5.jpg""]","",""
"","2501","similarity","183","1173103","0.0-6.0-177.0","2","[""img/0875/3ecb367d-e9eb-4826-8aaa-7aa72fb98019.jpg"",""img/0758/e38fd80d-18d0-42f3-b848-f930788e8bd7.jpg""]","",""
"","3335","similarity","184","1177447","0.0-6.0-178.0","2","[""img/0866/945c6710-d15b-4a5b-a8f6-69af0850357f.jpg"",""img/0901/d61f267a-c492-4db6-9bfb-61efd49cf072.jpg""]","",""
"","4987","similarity","185","1183448","0.0-6.0-179.0","5","[""img/0769/1afb527f-9887-428c-bd26-a12c2f9efb68.jpg"",""img/0874/a3bc679d-619f-4db6-bb68-116dcb757d9c.jpg""]","",""
"","3637","similarity","186","1188095","0.0-6.0-180.0","2","[""img/0875/03c3c331-738b-4446-af92-3d7386b08c2e.jpg"",""img/0881/e6746727-7f89-47ec-b939-d98abe78372d.jpg""]","",""
"","2784","similarity","187","1191889","0.0-6.0-181.0","5","[""img/0866/11a1d141-be5e-443c-98c1-a9d4d9e3dec0.jpg"",""img/0868/7b212364-ff5f-4e28-9241-7eb6ea00161b.jpg""]","",""
"","4090","similarity","188","1196989","0.0-6.0-182.0","5","[""img/0899/66bf4113-ee12-426c-84d2-ea410b6c803e.jpg"",""img/0758/65d426d6-3ff6-415d-8654-a43b83ecc4fe.jpg""]","",""
"","169537","similarity","189","1367541","0.0-6.0-183.0","1","[""img/0874/adf9a8f1-c40b-402b-b95b-1e85a54a7b62.jpg"",""img/0875/d59ff733-eaff-4ee2-9443-06954dd0bcb6.jpg""]","",""
"","3623","similarity","190","1372180","0.0-6.0-184.0","6","[""img/0904/09dac84f-3d1c-4445-a68e-d0389fdbf1e9.jpg"",""img/0862/47ed5efd-4ec9-4b74-bb4e-a5f5cf0c3e7d.jpg""]","",""
"","2634","similarity","191","1375825","0.0-6.0-185.0","4","[""img/0902/2db723b6-130f-454c-8c8d-88829edbcd65.jpg"",""img/0766/09f646c8-a69e-4ed3-879c-8d29b04ad7f9.jpg""]","",""
"","3123","similarity","192","1379959","0.0-6.0-186.0","5","[""img/0758/a085b443-b5d7-4cb2-9ad4-b9dab0fc23f1.jpg"",""img/0769/4a1d0b52-3fe8-40fb-bb1c-c814fe49a68c.jpg""]","",""
"","6878","similarity","193","1387847","0.0-6.0-187.0","7","[""img/0881/7e822106-76f7-4b10-a805-14dc68b2cfaf.jpg"",""img/0881/292e9b4b-fca0-4ba8-87f1-4048f9e37b7d.jpg""]","",""
"","3533","similarity","194","1392392","0.0-6.0-188.0","1","[""img/0758/335851a0-a55b-46d8-ab05-8463eda48349.jpg"",""img/0866/be24ab58-230e-4db8-9f45-ff04c9aec6bb.jpg""]","",""
"","3636","similarity","195","1397037","0.0-6.0-189.0","4","[""img/0764/da207710-e7e4-4f42-b2e6-99b5f357f433.jpg"",""img/0898/b2732712-71c2-45d8-834f-2b2ed5504910.jpg""]","",""
"","4025","similarity","196","1402072","0.0-6.0-190.0","4","[""img/0903/c3cb4a01-2797-43ca-b216-88c67b323fbb.jpg"",""img/0901/f469cb1d-6d81-4a45-bab5-cd0b650c2b4f.jpg""]","",""
"","2941","similarity","197","1406023","0.0-6.0-191.0","5","[""img/0902/7499db23-3a41-41ea-ab5b-6ab4d4c3ed35.jpg"",""img/0898/661621d4-a14e-487c-8c74-354134a29710.jpg""]","",""
"","2878","similarity","198","1409911","0.0-6.0-192.0","3","[""img/0864/9b2490c5-a282-400a-9736-e1a0ecbf1cb7.jpg"",""img/0901/b13fa50f-dbe0-4d0f-8647-6ac0fd8f40bd.jpg""]","",""
"","4531","similarity","199","1415453","0.0-6.0-193.0","5","[""img/0894/151063aa-6472-4745-837b-36603aba5966.jpg"",""img/0881/ed4c971f-0873-4fc8-b6d6-e8bbd82f0bcc.jpg""]","",""
"","19558","similarity","200","1436021","0.0-6.0-194.0","7","[""img/0868/3a62db2d-97e9-44a3-b8e3-a48c6f0e423b.jpg"",""img/0868/d6d1f30d-4323-435a-b194-7892521bc57e.jpg""]","",""
"","5112","similarity","201","1442143","0.0-6.0-195.0","6","[""img/0899/93494f3b-d539-4075-b027-d82e344563da.jpg"",""img/0764/cffc80b0-4a90-4acb-a530-6f480f3ca303.jpg""]","",""
"","4734","similarity","202","1447887","0.0-6.0-196.0","3","[""img/0881/344de456-b358-4887-bd0e-e4c3278af887.jpg"",""img/0904/b5855d6a-7ef9-46ca-9215-6e9fa046e543.jpg""]","",""
"","3881","similarity","203","1452779","0.0-6.0-197.0","5","[""img/0864/1d15626a-2f7c-410f-819c-0fa2c967e95e.jpg"",""img/0902/51493fab-2a10-4385-aa88-bee3db441626.jpg""]","",""
"","21960","similarity","204","1475750","0.0-6.0-198.0","7","[""img/0894/9b1333fd-3561-43bf-aee5-99b7b7ca3dc3.jpg"",""img/0904/0d25eb24-bb20-4e8d-9787-8b489558b4cb.jpg""]","",""
"","4401","similarity","205","1481161","0.0-6.0-199.0","7","[""img/0901/04a53755-6da5-44d4-a7a6-48a6bc0a2280.jpg"",""img/0901/233a6948-48eb-4b67-8259-222b916b2322.jpg""]","",""
"","3280","similarity","206","1485449","0.0-6.0-200.0","4","[""img/0894/38cf335f-f76f-4349-8d65-e20cd6859565.jpg"",""img/0860/8a92e21b-6a32-4e4a-a445-2d5a487ed0a4.jpg""]","",""
"","4408","similarity","207","1490866","0.0-6.0-201.0","7","[""img/0898/01bfe666-3510-4fc7-964f-d00d28732dc8.jpg"",""img/0903/d987e220-f3e6-4b6d-a270-fe6757041f6d.jpg""]","",""
"","3881","similarity","208","1495757","0.0-6.0-202.0","6","[""img/0864/6f631579-acf1-415c-a42c-1207f62a8d99.jpg"",""img/0894/5ff3c4f6-52e2-4075-8679-be0312e59703.jpg""]","",""
"","3763","similarity","209","1500530","0.0-6.0-203.0","3","[""img/0874/c0378dac-9370-439a-8b79-db27c96fb390.jpg"",""img/0860/71e1aad0-2cdf-43bb-94a4-a8c016997c30.jpg""]","",""
"","4276","similarity","210","1505817","0.0-6.0-204.0","2","[""img/0862/f43ceabf-acc1-4107-b857-5d1849808f93.jpg"",""img/0875/dbdd643e-6d0e-4a5c-ab57-b9c29b9c981a.jpg""]","",""
"","3062","similarity","211","1509889","0.0-6.0-205.0","1","[""img/0867/075e0f95-856b-4cbb-acf5-092393aaf04e.jpg"",""img/0881/b549bc99-a61c-4450-bab5-9efc3a197bf0.jpg""]","",""
"","3686","similarity","212","1514590","0.0-6.0-206.0","5","[""img/0901/fb0a8e69-7f19-4e6e-a6bb-a48f97f9b4f3.jpg"",""img/0902/c9c74d2d-9b82-42d7-a9d0-3b8ff67ff81e.jpg""]","",""
"","4541","similarity","213","1520142","0.0-6.0-207.0","7","[""img/0899/d60714ae-98d7-4564-8c98-94dba1351135.jpg"",""img/0864/5f74a653-3bdc-4308-8cca-ac667dc22e1f.jpg""]","",""
"","3987","similarity","214","1525140","0.0-6.0-208.0","5","[""img/0901/4d1bed7e-3c4e-4f6c-ada9-4beb66ba9e39.jpg"",""img/0769/878531fd-e0e8-4ad1-b9ad-f018bb104ca0.jpg""]","",""
"","3834","similarity","215","1539573","0.0-6.0-209.0","7","[""img/0902/9f543501-3cf1-45a7-a2f1-eeca87cc15b9.jpg"",""img/0902/0c760cc9-10ac-429e-8957-a7d51fc99683.jpg""]","",""
"[{""page_index"":0,""viewing_time"":5177}]","5178","instructions","216","1545754","0.0-7.0","","","",""
"","14907","image-multi-choice","217","1561715","0.0-8.0-0.0","","","{""Q0"":""Orange-crowned Warbler""}","Nashville Warbler"
"","9943","image-multi-choice","218","1572703","0.0-8.0-1.0","","","{""Q0"":""Black-and-white Warbler""}","Black-and-white Warbler"
"","9452","image-multi-choice","219","1583199","0.0-8.0-2.0","","","{""Q0"":""Blackburnian Warbler""}","Townsend's Warbler"
"","10481","image-multi-choice","220","1594705","0.0-8.0-3.0","","","{""Q0"":""Lark Sparrow""}","Lark Sparrow"
"","3294","image-multi-choice","221","1599042","0.0-8.0-4.0","","","{""Q0"":""Yellow Warbler""}","Yellow Warbler"
"","8040","image-multi-choice","222","1608129","0.0-8.0-5.0","","","{""Q0"":""Vesper Sparrow""}","Orange-crowned Warbler"
"","7858","image-multi-choice","223","1617035","0.0-8.0-6.0","","","{""Q0"":""White-throated Sparrow""}","White-throated Sparrow"
"","3456","image-multi-choice","224","1621537","0.0-8.0-7.0","","","{""Q0"":""Fox Sparrow""}","Fox Sparrow"
"","8185","image-multi-choice","225","1630765","0.0-8.0-8.0","","","{""Q0"":""Townsend's Warbler""}","Song Sparrow"
"","6936","image-multi-choice","226","1638748","0.0-8.0-9.0","","","{""Q0"":""Blackburnian Warbler""}","Blackburnian Warbler"
"","6286","image-multi-choice","227","1646079","0.0-8.0-10.0","","","{""Q0"":""Swamp Sparrow""}","Vesper Sparrow"
"","4932","image-multi-choice","228","1652050","0.0-8.0-11.0","","","{""Q0"":""White-crowned Sparrow""}","White-crowned Sparrow"
"","9428","image-multi-choice","229","1662518","0.0-8.0-12.0","","","{""Q0"":""American Tree Sparrow""}","American Tree Sparrow"
"","26350","image-multi-choice","230","1689907","0.0-8.0-13.0","","","{""Q0"":""Nashville Warbler""}","Tennessee Warbler"
"","5189","image-multi-choice","231","1696137","0.0-8.0-14.0","","","{""Q0"":""Magnolia Warbler""}","Magnolia Warbler"
"","4602","image-multi-choice","232","1701782","0.0-8.0-15.0","","","{""Q0"":""Ovenbird""}","Northern Waterthrush"
"","7024","image-multi-choice","233","1709848","0.0-8.0-16.0","","","{""Q0"":""Chipping Sparrow""}","Chipping Sparrow"
"","14699","image-multi-choice","234","1725589","0.0-8.0-17.0","","","{""Q0"":""American Tree Sparrow""}","Swamp Sparrow"
"","13473","image-multi-choice","235","1740106","0.0-8.0-18.0","","","{""Q0"":""Lincoln's Sparrow""}","Lincoln's Sparrow"
"","11056","image-multi-choice","236","1752210","0.0-8.0-19.0","","","{""Q0"":""Ovenbird""}","Ovenbird"
