[{"view_history":"[{\"page_index\":0,\"viewing_time\":22907}]","rt":22908,"trial_type":"instructions","trial_index":0,"time_elapsed":22909,"internal_node_id":"0.0-0.0"},{"sim_score":5,"rt":8892,"stimulus":"[\"img/866.jpg\",\"img/868.jpg\"]","trial_type":"similarity_demo","trial_index":1,"time_elapsed":32830,"internal_node_id":"0.0-1.0"},{"view_history":"[{\"page_index\":0,\"viewing_time\":17695}]","rt":17696,"trial_type":"instructions","trial_index":2,"time_elapsed":51540,"internal_node_id":"0.0-2.0"},{"sim_score":3,"rt":4520,"stimulus":"[\"img/766.jpg\",\"img/867.jpg\"]","trial_type":"similarity_demo","trial_index":3,"time_elapsed":57094,"internal_node_id":"0.0-3.0"},{"view_history":"[{\"page_index\":0,\"viewing_time\":11169}]","rt":11170,"trial_type":"instructions","trial_index":4,"time_elapsed":69268,"internal_node_id":"0.0-4.0"},{"view_history":"[{\"page_index\":0,\"viewing_time\":144625}]","rt":144626,"trial_type":"instructions","trial_index":5,"time_elapsed":214900,"internal_node_id":"0.0-5.0"},{"sim_score":1,"rt":5310,"stimulus":"[\"img/0868/83b4350a-3b70-4cea-b7f5-b5b56f3050a8.jpg\",\"img/0901/effc03f6-8f9d-46db-a66c-16fc83891c5c.jpg\"]","trial_type":"similarity","trial_index":6,"time_elapsed":221244,"internal_node_id":"0.0-6.0-0.0"},{"sim_score":1,"rt":7124,"stimulus":"[\"img/0769/f6396414-6788-4d59-9683-de153298d89c.jpg\",\"img/0867/7d1c497b-c1b3-4ed8-abb5-d7f73306015f.jpg\"]","trial_type":"similarity","trial_index":7,"time_elapsed":229395,"internal_node_id":"0.0-6.0-1.0"},{"sim_score":1,"rt":4020,"stimulus":"[\"img/0766/d8221e53-2300-4d99-ae1b-0bfb0eabe579.jpg\",\"img/0898/68476bbb-34a1-42d9-8bc1-deab783d4489.jpg\"]","trial_type":"similarity","trial_index":8,"time_elapsed":234427,"internal_node_id":"0.0-6.0-2.0"},{"sim_score":3,"rt":7383,"stimulus":"[\"img/0902/0c760cc9-10ac-429e-8957-a7d51fc99683.jpg\",\"img/0881/344de456-b358-4887-bd0e-e4c3278af887.jpg\"]","trial_type":"similarity","trial_index":9,"time_elapsed":242827,"internal_node_id":"0.0-6.0-3.0"},{"sim_score":6,"rt":6417,"stimulus":"[\"img/0894/a3d4170b-b7d8-40e3-955f-87e76ed745fc.jpg\",\"img/0894/05161000-f476-499b-a878-c13c7f347fd9.jpg\"]","trial_type":"similarity","trial_index":10,"time_elapsed":250259,"internal_node_id":"0.0-6.0-4.0"},{"sim_score":2,"rt":6629,"stimulus":"[\"img/0874/1016b306-087c-4afc-aa08-fa527b28dc76.jpg\",\"img/0899/25ae6ec8-9565-49fe-a8bb-8d0666f52716.jpg\"]","trial_type":"similarity","trial_index":11,"time_elapsed":257899,"internal_node_id":"0.0-6.0-5.0"},{"sim_score":1,"rt":4511,"stimulus":"[\"img/0904/a8c3c7d2-9bcf-4347-9e03-8203adfc1fc5.jpg\",\"img/0764/974d52cc-6318-4e7a-b294-2f3e92ff800f.jpg\"]","trial_type":"similarity","trial_index":12,"time_elapsed":263420,"internal_node_id":"0.0-6.0-6.0"},{"sim_score":1,"rt":4315,"stimulus":"[\"img/0899/51a7a498-98c7-42d7-bca8-bc2d8f0b5831.jpg\",\"img/0898/cd3aaa3f-efa9-4ab3-8d6f-a6a9273ddf42.jpg\"]","trial_type":"similarity","trial_index":13,"time_elapsed":268746,"internal_node_id":"0.0-6.0-7.0"},{"sim_score":2,"rt":4984,"stimulus":"[\"img/0874/ca23d307-fc00-4d7d-9106-584c6eb21b4d.jpg\",\"img/0903/b4a0f61e-a964-4b79-a9a7-f767a8f92f34.jpg\"]","trial_type":"similarity","trial_index":14,"time_elapsed":274760,"internal_node_id":"0.0-6.0-8.0"},{"sim_score":5,"rt":4719,"stimulus":"[\"img/0881/f6bd3b96-dc40-4e99-8681-bc3a35cf896d.jpg\",\"img/0758/53f35650-e455-4b53-8be4-c3c8271c6466.jpg\"]","trial_type":"similarity","trial_index":15,"time_elapsed":280495,"internal_node_id":"0.0-6.0-9.0"},{"sim_score":2,"rt":5614,"stimulus":"[\"img/0898/79233891-305a-4a6a-8ddf-5c8604858203.jpg\",\"img/0901/d61f267a-c492-4db6-9bfb-61efd49cf072.jpg\"]","trial_type":"similarity","trial_index":16,"time_elapsed":287124,"internal_node_id":"0.0-6.0-10.0"},{"sim_score":2,"rt":4561,"stimulus":"[\"img/0903/59defeb8-98bd-4570-a2f8-9bd189e68ef4.jpg\",\"img/0769/f73c5138-2f4c-4354-981c-129dff9cc734.jpg\"]","trial_type":"similarity","trial_index":17,"time_elapsed":292707,"internal_node_id":"0.0-6.0-11.0"},{"sim_score":1,"rt":3857,"stimulus":"[\"img/0764/f9f890e6-3c2f-40cd-84e9-85e0b54cb28e.jpg\",\"img/0868/7b212364-ff5f-4e28-9241-7eb6ea00161b.jpg\"]","trial_type":"similarity","trial_index":18,"time_elapsed":297587,"internal_node_id":"0.0-6.0-12.0"},{"sim_score":1,"rt":4452,"stimulus":"[\"img/0867/c71dc569-f49c-4397-8381-68b8d726736d.jpg\",\"img/0903/4cbdc464-e562-4ec2-9bb6-15f894fdf528.jpg\"]","trial_type":"similarity","trial_index":19,"time_elapsed":303051,"internal_node_id":"0.0-6.0-13.0"},{"sim_score":1,"rt":4394,"stimulus":"[\"img/0766/e8052e17-9dae-4139-802b-6e590cb2d526.jpg\",\"img/0758/61d64021-9214-4951-bdf8-f871f9827cf9.jpg\"]","trial_type":"similarity","trial_index":20,"time_elapsed":308466,"internal_node_id":"0.0-6.0-14.0"},{"sim_score":2,"rt":4325,"stimulus":"[\"img/0902/794606a0-d8a8-4e58-8bf8-9d114ed5a548.jpg\",\"img/0860/c5ccd1a4-4bb7-48e1-9b25-72cfaf06909b.jpg\"]","trial_type":"similarity","trial_index":21,"time_elapsed":313803,"internal_node_id":"0.0-6.0-15.0"},{"sim_score":2,"rt":4028,"stimulus":"[\"img/0769/c7cfacc3-7f07-46ff-9f5d-8073f4c4679b.jpg\",\"img/0875/e7e66b13-b573-431e-b85e-288ce04a35a3.jpg\"]","trial_type":"similarity","trial_index":22,"time_elapsed":318842,"internal_node_id":"0.0-6.0-16.0"},{"sim_score":3,"rt":4970,"stimulus":"[\"img/0904/9dd5708f-3f8b-46a9-b49f-2f2fab87b357.jpg\",\"img/0866/d493a2c8-66eb-44b4-be02-2f327b700b7c.jpg\"]","trial_type":"similarity","trial_index":23,"time_elapsed":324834,"internal_node_id":"0.0-6.0-17.0"},{"sim_score":5,"rt":4406,"stimulus":"[\"img/0875/2c361b79-c3d1-4eda-812e-bf03192407bf.jpg\",\"img/0875/5a716432-c6ca-4b1c-955a-2b8ac25198ee.jpg\"]","trial_type":"similarity","trial_index":24,"time_elapsed":330265,"internal_node_id":"0.0-6.0-18.0"},{"sim_score":6,"rt":5428,"stimulus":"[\"img/0758/6e95579b-5166-487c-b8cb-e417c6a218e3.jpg\",\"img/0758/67c0be2f-9e91-48b3-8219-70ac0a1802fa.jpg\"]","trial_type":"similarity","trial_index":25,"time_elapsed":336708,"internal_node_id":"0.0-6.0-19.0"},{"sim_score":2,"rt":4976,"stimulus":"[\"img/0902/eb3e7e71-8ff1-4b88-a6a7-47e2c1ce1683.jpg\",\"img/0874/7e4f2150-3b59-4a36-b5da-a4e0ba410531.jpg\"]","trial_type":"similarity","trial_index":26,"time_elapsed":342723,"internal_node_id":"0.0-6.0-20.0"},{"sim_score":5,"rt":6515,"stimulus":"[\"img/0764/f64dfa83-333d-494c-87b5-73e942f1766e.jpg\",\"img/0769/e8ed913b-8a88-44f6-9327-d34afec3116b.jpg\"]","trial_type":"similarity","trial_index":27,"time_elapsed":350252,"internal_node_id":"0.0-6.0-21.0"},{"sim_score":2,"rt":6070,"stimulus":"[\"img/0901/ae1e6ce4-2e10-4ca9-b1e7-21628637ab74.jpg\",\"img/0874/2c9464dd-8a23-4baa-ac94-1ba3af5c15cc.jpg\"]","trial_type":"similarity","trial_index":28,"time_elapsed":357347,"internal_node_id":"0.0-6.0-22.0"},{"sim_score":1,"rt":4075,"stimulus":"[\"img/0875/2e13d160-eea1-416b-aff1-d37ab99ecc1d.jpg\",\"img/0903/0a92ec52-4e87-410a-857a-4455cde56a70.jpg\"]","trial_type":"similarity","trial_index":29,"time_elapsed":362434,"internal_node_id":"0.0-6.0-23.0"},{"sim_score":2,"rt":6209,"stimulus":"[\"img/0769/35364db7-e0d5-40ef-93dc-faf9dfb95136.jpg\",\"img/0881/adc02f34-ce97-4aef-850f-00519df06fd7.jpg\"]","trial_type":"similarity","trial_index":30,"time_elapsed":369666,"internal_node_id":"0.0-6.0-24.0"},{"sim_score":2,"rt":5036,"stimulus":"[\"img/0867/98d8cd96-1476-4fe0-a3a3-04f875500a1b.jpg\",\"img/0904/6291eb43-c10c-4810-a36a-101d09868b04.jpg\"]","trial_type":"similarity","trial_index":31,"time_elapsed":375714,"internal_node_id":"0.0-6.0-25.0"},{"sim_score":1,"rt":3787,"stimulus":"[\"img/0860/4c530c3c-6aab-492a-94d1-9c01797bde40.jpg\",\"img/0881/e046471a-35b4-4159-bbf7-3cfd201bef66.jpg\"]","trial_type":"similarity","trial_index":32,"time_elapsed":380514,"internal_node_id":"0.0-6.0-26.0"},{"sim_score":6,"rt":4741,"stimulus":"[\"img/0866/f756f7d1-9ad8-4a34-9ef6-7a443d705bfe.jpg\",\"img/0866/23a224f3-2012-4fc8-8e0f-3c36f8de27fd.jpg\"]","trial_type":"similarity","trial_index":33,"time_elapsed":386266,"internal_node_id":"0.0-6.0-27.0"},{"sim_score":1,"rt":4108,"stimulus":"[\"img/0764/83c93cce-18d1-4aa7-9e23-2c268afe0a46.jpg\",\"img/0862/e8cc3bdf-cc43-4565-bccf-492626c70953.jpg\"]","trial_type":"similarity","trial_index":34,"time_elapsed":391394,"internal_node_id":"0.0-6.0-28.0"},{"sim_score":1,"rt":3519,"stimulus":"[\"img/0904/5cceabc9-de1d-4c67-989b-c28a4ef77e79.jpg\",\"img/0758/6cd8c362-ae2a-41eb-80a3-3a4f7ace1530.jpg\"]","trial_type":"similarity","trial_index":35,"time_elapsed":395922,"internal_node_id":"0.0-6.0-29.0"},{"sim_score":2,"rt":6097,"stimulus":"[\"img/0894/7dd6ff43-f8fc-408a-8a41-a2b261871820.jpg\",\"img/0899/0adc0bc3-6fca-4078-be6f-d45ddf1653d5.jpg\"]","trial_type":"similarity","trial_index":36,"time_elapsed":403034,"internal_node_id":"0.0-6.0-30.0"},{"sim_score":1,"rt":4268,"stimulus":"[\"img/0860/4a022222-056d-461c-ab02-39fac9647552.jpg\",\"img/0904/06dacdc5-2206-4fb8-92b7-88042d22833c.jpg\"]","trial_type":"similarity","trial_index":37,"time_elapsed":408314,"internal_node_id":"0.0-6.0-31.0"},{"sim_score":2,"rt":6019,"stimulus":"[\"img/0874/8cdb1c07-1c32-46d2-981c-3636560fa6e5.jpg\",\"img/0881/2a8413be-fec2-4de6-88ad-614dd4cccc9d.jpg\"]","trial_type":"similarity","trial_index":38,"time_elapsed":415345,"internal_node_id":"0.0-6.0-32.0"},{"sim_score":2,"rt":4830,"stimulus":"[\"img/0881/ee44e27f-d662-4608-b265-e7ffa19b216f.jpg\",\"img/0899/56a605c3-d0a2-4215-89e1-779279d85a7c.jpg\"]","trial_type":"similarity","trial_index":39,"time_elapsed":421193,"internal_node_id":"0.0-6.0-33.0"},{"sim_score":1,"rt":3839,"stimulus":"[\"img/0866/8efcaa46-83ab-4dee-a35f-850402aa21ae.jpg\",\"img/0862/4f0a3b4c-afbf-486e-b248-1d54982f54b4.jpg\"]","trial_type":"similarity","trial_index":40,"time_elapsed":426042,"internal_node_id":"0.0-6.0-34.0"},{"sim_score":5,"rt":3807,"stimulus":"[\"img/0868/c8ac40c7-6904-4e13-8d61-c75d3052dc4e.jpg\",\"img/0894/6b2e9509-8699-42b7-9582-7741df0ba2d7.jpg\"]","trial_type":"similarity","trial_index":41,"time_elapsed":430858,"internal_node_id":"0.0-6.0-35.0"},{"sim_score":5,"rt":5063,"stimulus":"[\"img/0860/8fdba999-b946-4c7d-9891-336018b563ef.jpg\",\"img/0860/18dfed73-e36b-4487-a8bd-0b8cff8e3668.jpg\"]","trial_type":"similarity","trial_index":42,"time_elapsed":436929,"internal_node_id":"0.0-6.0-36.0"},{"sim_score":1,"rt":4053,"stimulus":"[\"img/0862/eefa5588-9efd-4591-aa5f-a2e17c7d7bcc.jpg\",\"img/0864/ef9cbca0-4be8-435d-ad49-977259e80409.jpg\"]","trial_type":"similarity","trial_index":43,"time_elapsed":442009,"internal_node_id":"0.0-6.0-37.0"},{"sim_score":1,"rt":3363,"stimulus":"[\"img/0766/f5f78e4e-d88f-4866-951a-118ba9fec4d0.jpg\",\"img/0866/a04d37f0-99dd-478a-b6c6-58b215138f84.jpg\"]","trial_type":"similarity","trial_index":44,"time_elapsed":446393,"internal_node_id":"0.0-6.0-38.0"},{"sim_score":5,"rt":5682,"stimulus":"[\"img/0875/03c3c331-738b-4446-af92-3d7386b08c2e.jpg\",\"img/0898/e167334e-cc1d-4986-b3b1-c7bc7da64baa.jpg\"]","trial_type":"similarity","trial_index":45,"time_elapsed":453081,"internal_node_id":"0.0-6.0-39.0"},{"sim_score":2,"rt":4929,"stimulus":"[\"img/0766/79767d11-b612-4e8a-9e4b-a8ac95bb6a54.jpg\",\"img/0769/9ea27d61-3d55-418c-8d14-82e90f656f01.jpg\"]","trial_type":"similarity","trial_index":46,"time_elapsed":459033,"internal_node_id":"0.0-6.0-40.0"},{"sim_score":2,"rt":3878,"stimulus":"[\"img/0874/ca76a855-4e77-4f2f-872a-0a718153e7ed.jpg\",\"img/0764/c84fbfa8-521c-407a-9bd3-24f7308d896c.jpg\"]","trial_type":"similarity","trial_index":47,"time_elapsed":477201,"internal_node_id":"0.0-6.0-41.0"},{"sim_score":3,"rt":4800,"stimulus":"[\"img/0868/fd307a36-9a3a-47d7-ab7c-f810d0b35040.jpg\",\"img/0902/31abfa33-7cdb-44ad-968e-9f7b324d577a.jpg\"]","trial_type":"similarity","trial_index":48,"time_elapsed":483018,"internal_node_id":"0.0-6.0-42.0"},{"sim_score":2,"rt":3911,"stimulus":"[\"img/0875/d59ff733-eaff-4ee2-9443-06954dd0bcb6.jpg\",\"img/0899/d60714ae-98d7-4564-8c98-94dba1351135.jpg\"]","trial_type":"similarity","trial_index":49,"time_elapsed":487945,"internal_node_id":"0.0-6.0-43.0"},{"sim_score":2,"rt":3565,"stimulus":"[\"img/0866/bf14b5bd-fb55-47db-86b9-4f8aeb9a6dad.jpg\",\"img/0860/4f695df5-afac-4da7-9875-fee39b0b24ad.jpg\"]","trial_type":"similarity","trial_index":50,"time_elapsed":492523,"internal_node_id":"0.0-6.0-44.0"},{"sim_score":1,"rt":3152,"stimulus":"[\"img/0766/69e486f7-dbef-456b-9d48-53d814248a28.jpg\",\"img/0903/43ffd882-077a-40dd-a264-e58d519420a1.jpg\"]","trial_type":"similarity","trial_index":51,"time_elapsed":496698,"internal_node_id":"0.0-6.0-45.0"},{"sim_score":1,"rt":3846,"stimulus":"[\"img/0901/233a6948-48eb-4b67-8259-222b916b2322.jpg\",\"img/0904/2fd488e9-960f-41f7-8a44-33375f7d5051.jpg\"]","trial_type":"similarity","trial_index":52,"time_elapsed":501562,"internal_node_id":"0.0-6.0-46.0"},{"sim_score":5,"rt":4141,"stimulus":"[\"img/0758/20497cbe-ddae-489e-86e2-ab06985ed07c.jpg\",\"img/0902/cf9dee9c-2bdf-4d64-9302-97f1660fe52c.jpg\"]","trial_type":"similarity","trial_index":53,"time_elapsed":506713,"internal_node_id":"0.0-6.0-47.0"},{"sim_score":5,"rt":4461,"stimulus":"[\"img/0764/f713847b-4832-42d1-8fb3-e17e37fd745c.jpg\",\"img/0764/5d6fa3ce-9083-410c-bbdb-336a49b94cfc.jpg\"]","trial_type":"similarity","trial_index":54,"time_elapsed":512186,"internal_node_id":"0.0-6.0-48.0"},{"sim_score":2,"rt":3799,"stimulus":"[\"img/0866/4a87911a-d5be-4d4e-ab8e-3d1f581bf507.jpg\",\"img/0902/d49743d6-67ae-4c2e-a939-8fd895a0f18e.jpg\"]","trial_type":"similarity","trial_index":55,"time_elapsed":516994,"internal_node_id":"0.0-6.0-49.0"},{"sim_score":1,"rt":3736,"stimulus":"[\"img/0764/d0bef2e0-e16b-4c82-9451-c1d16265eb67.jpg\",\"img/0758/ddc336e9-a8b6-4bb9-937a-c7e25e0e9250.jpg\"]","trial_type":"similarity","trial_index":56,"time_elapsed":521745,"internal_node_id":"0.0-6.0-50.0"},{"sim_score":5,"rt":4760,"stimulus":"[\"img/0898/f3a3f225-1248-4ac7-b93b-f0ff28485bf3.jpg\",\"img/0894/a98416c0-51e2-4960-85da-d81d8688b9d5.jpg\"]","trial_type":"similarity","trial_index":57,"time_elapsed":527513,"internal_node_id":"0.0-6.0-51.0"},{"sim_score":3,"rt":3935,"stimulus":"[\"img/0875/f87b67d7-c33e-40d1-b281-248c4be1cb6e.jpg\",\"img/0866/9b38d691-1802-4959-ab3f-fc902f0e4ea6.jpg\"]","trial_type":"similarity","trial_index":58,"time_elapsed":532457,"internal_node_id":"0.0-6.0-52.0"},{"sim_score":7,"rt":4416,"stimulus":"[\"img/0904/4e58005d-a2ec-4aaa-b199-445343561396.jpg\",\"img/0904/09934646-45d2-4147-8fec-64a22a5ac822.jpg\"]","trial_type":"similarity","trial_index":59,"time_elapsed":537881,"internal_node_id":"0.0-6.0-53.0"},{"sim_score":5,"rt":4314,"stimulus":"[\"img/0769/47700831-0ca2-4fdd-a498-a3bc5a528f43.jpg\",\"img/0769/4680bcc3-8fbc-4643-8f9a-12aa0e780b64.jpg\"]","trial_type":"similarity","trial_index":60,"time_elapsed":543217,"internal_node_id":"0.0-6.0-54.0"},{"sim_score":3,"rt":3704,"stimulus":"[\"img/0898/40f99fb2-64d2-4e72-8a7f-a1cf60741e69.jpg\",\"img/0758/d57c2592-a317-4f63-91be-91a3a9afd222.jpg\"]","trial_type":"similarity","trial_index":61,"time_elapsed":547931,"internal_node_id":"0.0-6.0-55.0"},{"sim_score":2,"rt":4459,"stimulus":"[\"img/0769/f229321f-04dd-42d7-b14a-ffad6b509862.jpg\",\"img/0902/40d0b6ec-3907-4573-b227-e7d8e9cad1c3.jpg\"]","trial_type":"similarity","trial_index":62,"time_elapsed":553400,"internal_node_id":"0.0-6.0-56.0"},{"sim_score":2,"rt":5274,"stimulus":"[\"img/0864/87c467d3-abca-482f-ad80-3766c21b1bb3.jpg\",\"img/0881/0c7068da-d0d9-4103-bda1-74ef7a2b32c3.jpg\"]","trial_type":"similarity","trial_index":63,"time_elapsed":559696,"internal_node_id":"0.0-6.0-57.0"},{"sim_score":1,"rt":3489,"stimulus":"[\"img/0758/7fba58df-2a7a-4b76-8a8f-62739f97f271.jpg\",\"img/0868/8b0b8473-e2c0-4331-aa56-c3a5c29369da.jpg\"]","trial_type":"similarity","trial_index":64,"time_elapsed":564193,"internal_node_id":"0.0-6.0-58.0"},{"sim_score":1,"rt":3507,"stimulus":"[\"img/0862/99a99e39-8355-44ec-b993-e7bcec111e1c.jpg\",\"img/0769/1afb527f-9887-428c-bd26-a12c2f9efb68.jpg\"]","trial_type":"similarity","trial_index":65,"time_elapsed":568713,"internal_node_id":"0.0-6.0-59.0"},{"sim_score":1,"rt":3420,"stimulus":"[\"img/0764/23ea9375-f801-4a96-9925-7d453da887c7.jpg\",\"img/0903/8f7f9939-b8e6-433f-93dd-b362496c80a7.jpg\"]","trial_type":"similarity","trial_index":66,"time_elapsed":573153,"internal_node_id":"0.0-6.0-60.0"},{"sim_score":7,"rt":5348,"stimulus":"[\"img/0899/76ad07e2-ca25-45eb-84f2-8d80b8ca3e26.jpg\",\"img/0899/7b7380d5-d2be-44e5-a09a-c1756f87ef71.jpg\"]","trial_type":"similarity","trial_index":67,"time_elapsed":579520,"internal_node_id":"0.0-6.0-61.0"},{"sim_score":2,"rt":4021,"stimulus":"[\"img/0860/15b24a61-25be-4356-9eac-5ce95d0cb4a4.jpg\",\"img/0875/99698b4d-b4a1-44bc-8c83-8ea755bbbf61.jpg\"]","trial_type":"similarity","trial_index":68,"time_elapsed":584552,"internal_node_id":"0.0-6.0-62.0"},{"sim_score":3,"rt":3827,"stimulus":"[\"img/0868/d6d1f30d-4323-435a-b194-7892521bc57e.jpg\",\"img/0874/3f471690-9788-4d03-90c7-f615aecef149.jpg\"]","trial_type":"similarity","trial_index":69,"time_elapsed":589392,"internal_node_id":"0.0-6.0-63.0"},{"sim_score":1,"rt":4156,"stimulus":"[\"img/0758/7ee8bc8f-c40b-4b3a-84ec-3e83580622d4.jpg\",\"img/0862/d0ca4c78-fc35-46ed-bdcc-8e124283c53e.jpg\"]","trial_type":"similarity","trial_index":70,"time_elapsed":594568,"internal_node_id":"0.0-6.0-64.0"},{"sim_score":5,"rt":4273,"stimulus":"[\"img/0904/09dac84f-3d1c-4445-a68e-d0389fdbf1e9.jpg\",\"img/0898/661621d4-a14e-487c-8c74-354134a29710.jpg\"]","trial_type":"similarity","trial_index":71,"time_elapsed":599848,"internal_node_id":"0.0-6.0-65.0"},{"sim_score":2,"rt":4314,"stimulus":"[\"img/0881/d373cb9f-a719-4549-a2a4-82def79fb2a5.jpg\",\"img/0866/6f2a90d7-14f1-4f1b-bd64-fc0af6b9fe44.jpg\"]","trial_type":"similarity","trial_index":72,"time_elapsed":605176,"internal_node_id":"0.0-6.0-66.0"},{"sim_score":2,"rt":3467,"stimulus":"[\"img/0867/f26f6b60-f772-4f4c-95a4-addc62cfd692.jpg\",\"img/0898/ec565187-2e31-4fdd-9a5c-153d0c789ae0.jpg\"]","trial_type":"similarity","trial_index":73,"time_elapsed":609664,"internal_node_id":"0.0-6.0-67.0"},{"sim_score":5,"rt":5895,"stimulus":"[\"img/0902/bd89a85f-3853-4786-acd6-98818ee29f1c.jpg\",\"img/0764/4952d0a0-c9be-471a-8ec7-94a37bf4051d.jpg\"]","trial_type":"similarity","trial_index":74,"time_elapsed":616568,"internal_node_id":"0.0-6.0-68.0"},{"sim_score":6,"rt":4856,"stimulus":"[\"img/0875/90da8d75-108a-44ad-b999-e21fee3860d3.jpg\",\"img/0867/aa05d113-fc19-4756-a8eb-7878f580bc92.jpg\"]","trial_type":"similarity","trial_index":75,"time_elapsed":622432,"internal_node_id":"0.0-6.0-69.0"},{"sim_score":3,"rt":4380,"stimulus":"[\"img/0766/09f646c8-a69e-4ed3-879c-8d29b04ad7f9.jpg\",\"img/0764/b887d7c6-aa81-4637-af8e-05135757ac59.jpg\"]","trial_type":"similarity","trial_index":76,"time_elapsed":627833,"internal_node_id":"0.0-6.0-70.0"},{"sim_score":2,"rt":4696,"stimulus":"[\"img/0894/2d2db7b3-e8a3-499b-b63a-14f51bf73882.jpg\",\"img/0867/a498eef3-9fa4-4ab2-9778-4ae82ac40dc5.jpg\"]","trial_type":"similarity","trial_index":77,"time_elapsed":633536,"internal_node_id":"0.0-6.0-71.0"},{"sim_score":1,"rt":3856,"stimulus":"[\"img/0875/ebf7653f-ff45-4e9f-af58-2c042ab3cd2b.jpg\",\"img/0764/d7f3ac54-318a-4dac-a06b-62bed34d01a4.jpg\"]","trial_type":"similarity","trial_index":78,"time_elapsed":638408,"internal_node_id":"0.0-6.0-72.0"},{"sim_score":7,"rt":3704,"stimulus":"[\"img/0867/f8488a47-94ee-4166-952c-44e16cf172f6.jpg\",\"img/0866/620cd1aa-0800-4414-8f6e-90342e7a99ad.jpg\"]","trial_type":"similarity","trial_index":79,"time_elapsed":643120,"internal_node_id":"0.0-6.0-73.0"},{"sim_score":2,"rt":3581,"stimulus":"[\"img/0903/f10e9eb5-0c21-4a6a-944c-5f10a6d0fa4d.jpg\",\"img/0758/caa93da2-9edf-49fa-96b9-32dedd8f5078.jpg\"]","trial_type":"similarity","trial_index":80,"time_elapsed":647712,"internal_node_id":"0.0-6.0-74.0"},{"sim_score":1,"rt":3153,"stimulus":"[\"img/0766/0b48f9e0-7d37-4161-8adb-4e3f5b6b7583.jpg\",\"img/0868/179a5502-ab5c-478e-8263-5a1fbcc101d2.jpg\"]","trial_type":"similarity","trial_index":81,"time_elapsed":651872,"internal_node_id":"0.0-6.0-75.0"},{"sim_score":2,"rt":5007,"stimulus":"[\"img/0874/adf9a8f1-c40b-402b-b95b-1e85a54a7b62.jpg\",\"img/0766/d14acac4-7db1-4b07-8f8f-302437326fc0.jpg\"]","trial_type":"similarity","trial_index":82,"time_elapsed":657888,"internal_node_id":"0.0-6.0-76.0"},{"sim_score":1,"rt":3272,"stimulus":"[\"img/0881/19e82c47-8e4b-45d2-a6c8-74181eb4155e.jpg\",\"img/0868/09a9ef4d-d000-4cfa-a6aa-ebec7c2edeb4.jpg\"]","trial_type":"similarity","trial_index":83,"time_elapsed":662168,"internal_node_id":"0.0-6.0-77.0"},{"sim_score":1,"rt":3495,"stimulus":"[\"img/0758/e1ba5e53-addc-436a-b428-d34fc1b130dc.jpg\",\"img/0901/8bb79e82-9c43-4b6f-a655-40655519598b.jpg\"]","trial_type":"similarity","trial_index":84,"time_elapsed":666672,"internal_node_id":"0.0-6.0-78.0"},{"sim_score":1,"rt":3968,"stimulus":"[\"img/0881/20af39f5-373d-4a55-a437-2dc4c0382c46.jpg\",\"img/0898/26c41340-15bd-4ead-8fe4-c0d0ddca09c2.jpg\"]","trial_type":"similarity","trial_index":85,"time_elapsed":671648,"internal_node_id":"0.0-6.0-79.0"},{"sim_score":1,"rt":3841,"stimulus":"[\"img/0867/cc72ed48-7704-422c-86d6-467a1145287a.jpg\",\"img/0758/9fb5b2fe-3f00-4fe6-973c-1ce10d5f4cd5.jpg\"]","trial_type":"similarity","trial_index":86,"time_elapsed":676496,"internal_node_id":"0.0-6.0-80.0"},{"sim_score":5,"rt":4136,"stimulus":"[\"img/0769/1d8734c4-77ab-4165-9e71-5cfe672ff01c.jpg\",\"img/0899/66ab3178-c3fe-4455-ad17-d5952b08e018.jpg\"]","trial_type":"similarity","trial_index":87,"time_elapsed":681640,"internal_node_id":"0.0-6.0-81.0"},{"sim_score":7,"rt":3944,"stimulus":"[\"img/0903/8c358e9e-a4f4-466e-8b93-7aec0d2358e8.jpg\",\"img/0903/6b5dcc60-3ad3-4962-93e5-e6cf768477af.jpg\"]","trial_type":"similarity","trial_index":88,"time_elapsed":686600,"internal_node_id":"0.0-6.0-82.0"},{"sim_score":1,"rt":3183,"stimulus":"[\"img/0867/1719a35d-f085-48c0-9099-16c94fe418b4.jpg\",\"img/0766/26d3ae14-8275-4e08-99b2-a6598c193ddf.jpg\"]","trial_type":"similarity","trial_index":89,"time_elapsed":698967,"internal_node_id":"0.0-6.0-83.0"},{"sim_score":2,"rt":4297,"stimulus":"[\"img/0902/c920f0e1-1c81-480f-a164-c77f2dc6ce9a.jpg\",\"img/0867/bf560d4f-dee3-4f11-a385-705cc1aa5f3c.jpg\"]","trial_type":"similarity","trial_index":90,"time_elapsed":704271,"internal_node_id":"0.0-6.0-84.0"},{"sim_score":2,"rt":3289,"stimulus":"[\"img/0901/0adb3bd6-d758-4ba7-9723-3ad6cac05bd5.jpg\",\"img/0875/5a7c4e35-6514-4e12-8879-d16071da4cd6.jpg\"]","trial_type":"similarity","trial_index":91,"time_elapsed":708568,"internal_node_id":"0.0-6.0-85.0"},{"sim_score":2,"rt":3705,"stimulus":"[\"img/0764/a86eed5b-d0af-4c3f-8c7a-26e98e98cf1a.jpg\",\"img/0866/945c6710-d15b-4a5b-a8f6-69af0850357f.jpg\"]","trial_type":"similarity","trial_index":92,"time_elapsed":713280,"internal_node_id":"0.0-6.0-86.0"},{"sim_score":1,"rt":3557,"stimulus":"[\"img/0901/1e23ffbd-19de-4c4f-aa23-c54aaa3319a3.jpg\",\"img/0894/1b3888e6-cf36-4c4a-a039-187aa5cb71ac.jpg\"]","trial_type":"similarity","trial_index":93,"time_elapsed":717847,"internal_node_id":"0.0-6.0-87.0"},{"sim_score":4,"rt":3771,"stimulus":"[\"img/0898/8605a25b-6895-476d-8c13-df7a83f96093.jpg\",\"img/0769/35f2dd39-40aa-498e-b401-9f1ef2622d00.jpg\"]","trial_type":"similarity","trial_index":94,"time_elapsed":722631,"internal_node_id":"0.0-6.0-88.0"},{"sim_score":6,"rt":6785,"stimulus":"[\"img/0769/04347740-f8f6-48bb-887a-f68babd0a0d4.jpg\",\"img/0894/151063aa-6472-4745-837b-36603aba5966.jpg\"]","trial_type":"similarity","trial_index":95,"time_elapsed":730423,"internal_node_id":"0.0-6.0-89.0"},{"sim_score":2,"rt":4856,"stimulus":"[\"img/0862/e697469a-ec19-4414-b972-7b9f3564785b.jpg\",\"img/0874/99f6563c-8a8d-4c1c-a41d-667b618c3fd5.jpg\"]","trial_type":"similarity","trial_index":96,"time_elapsed":736287,"internal_node_id":"0.0-6.0-90.0"},{"sim_score":1,"rt":3515,"stimulus":"[\"img/0894/792c83e9-a747-4000-bc72-5663d2439edb.jpg\",\"img/0766/535849cc-ff5d-4df9-8f31-0ce94a97d571.jpg\"]","trial_type":"similarity","trial_index":97,"time_elapsed":740815,"internal_node_id":"0.0-6.0-91.0"},{"sim_score":1,"rt":3424,"stimulus":"[\"img/0874/767f289c-9814-4496-803f-745cc8913d1f.jpg\",\"img/0867/8ba0c5a7-c7e4-42cf-a80a-543763b90779.jpg\"]","trial_type":"similarity","trial_index":98,"time_elapsed":745247,"internal_node_id":"0.0-6.0-92.0"},{"sim_score":1,"rt":3634,"stimulus":"[\"img/0899/5b56dd3e-3f49-47cc-af84-16da6457753b.jpg\",\"img/0868/15dd6fd7-791e-4b53-b203-195d617521a4.jpg\"]","trial_type":"similarity","trial_index":99,"time_elapsed":749895,"internal_node_id":"0.0-6.0-93.0"},{"sim_score":1,"rt":3568,"stimulus":"[\"img/0903/776b74ee-a8ab-4ab8-a78d-097c0747538d.jpg\",\"img/0862/47ed5efd-4ec9-4b74-bb4e-a5f5cf0c3e7d.jpg\"]","trial_type":"similarity","trial_index":100,"time_elapsed":754471,"internal_node_id":"0.0-6.0-94.0"},{"sim_score":3,"rt":5540,"stimulus":"[\"img/0899/f95cbdb4-f804-4f5d-ad76-373ad343e658.jpg\",\"img/0766/aaec5f42-7f0a-4a16-aeca-488d757acbcc.jpg\"]","trial_type":"similarity","trial_index":101,"time_elapsed":761031,"internal_node_id":"0.0-6.0-95.0"},{"sim_score":7,"rt":2880,"stimulus":"[\"img/0867/26611f4e-d694-4460-b7e2-43c62753ddc3.jpg\",\"img/0868/d98ca254-b195-477f-b57e-5760a2717db8.jpg\"]","trial_type":"similarity","trial_index":102,"time_elapsed":764919,"internal_node_id":"0.0-6.0-96.0"},{"sim_score":6,"rt":4416,"stimulus":"[\"img/0862/53a9cf7c-93c4-41b9-952f-07d17f7a17b2.jpg\",\"img/0901/a6c90438-fa7c-4418-ac7c-16c2e772dd98.jpg\"]","trial_type":"similarity","trial_index":103,"time_elapsed":770343,"internal_node_id":"0.0-6.0-97.0"},{"sim_score":1,"rt":3501,"stimulus":"[\"img/0875/34132396-d896-4c2d-8087-646dd867e769.jpg\",\"img/0766/0bf3793e-c353-45e5-ac6f-753f5f484e10.jpg\"]","trial_type":"similarity","trial_index":104,"time_elapsed":774855,"internal_node_id":"0.0-6.0-98.0"},{"sim_score":2,"rt":4960,"stimulus":"[\"img/0758/b76ceca7-95ac-46e4-ac13-da02c8e93be9.jpg\",\"img/0874/c0378dac-9370-439a-8b79-db27c96fb390.jpg\"]","trial_type":"similarity","trial_index":105,"time_elapsed":780823,"internal_node_id":"0.0-6.0-99.0"},{"sim_score":3,"rt":3776,"stimulus":"[\"img/0904/9b3568cc-3cf7-42be-9df3-fdafde7a58b8.jpg\",\"img/0868/0d3abd3a-b6c3-4584-a9f7-e2da63748b3d.jpg\"]","trial_type":"similarity","trial_index":106,"time_elapsed":785607,"internal_node_id":"0.0-6.0-100.0"},{"sim_score":2,"rt":3909,"stimulus":"[\"img/0903/8635cf25-2648-4fe9-8c42-79d2598e999c.jpg\",\"img/0866/02f5e6b9-52b7-448c-9708-5b460d0c9a23.jpg\"]","trial_type":"similarity","trial_index":107,"time_elapsed":790527,"internal_node_id":"0.0-6.0-101.0"},{"sim_score":3,"rt":3235,"stimulus":"[\"img/0868/77091fc7-a590-4ebb-b915-fdb2483a2399.jpg\",\"img/0769/48a1144d-fbda-4809-991b-fc8424a32ee4.jpg\"]","trial_type":"similarity","trial_index":108,"time_elapsed":794775,"internal_node_id":"0.0-6.0-102.0"},{"sim_score":5,"rt":4408,"stimulus":"[\"img/0902/5b45a7a0-81c8-4a71-aaa2-2ce09adb5a29.jpg\",\"img/0899/f58b8d2f-b19d-4b59-8b94-8834be92e4ba.jpg\"]","trial_type":"similarity","trial_index":109,"time_elapsed":800191,"internal_node_id":"0.0-6.0-103.0"},{"sim_score":1,"rt":3153,"stimulus":"[\"img/0868/4bd5105a-d2c3-4f82-8c80-57196106ba53.jpg\",\"img/0862/064818ee-13d5-4618-bb24-21c7368ea278.jpg\"]","trial_type":"similarity","trial_index":110,"time_elapsed":804351,"internal_node_id":"0.0-6.0-104.0"},{"sim_score":3,"rt":4561,"stimulus":"[\"img/0903/12bd8657-92e6-4c36-a06c-597e7a1d51f3.jpg\",\"img/0894/1a010553-d598-4b06-a772-81f1e7b3addb.jpg\"]","trial_type":"similarity","trial_index":111,"time_elapsed":809919,"internal_node_id":"0.0-6.0-105.0"},{"sim_score":5,"rt":6162,"stimulus":"[\"img/0864/65210d57-1153-4657-886a-32e758f49b4a.jpg\",\"img/0874/93d1f8dc-acf2-4f03-bd8d-8ec35df276ed.jpg\"]","trial_type":"similarity","trial_index":112,"time_elapsed":817095,"internal_node_id":"0.0-6.0-106.0"},{"sim_score":4,"rt":4737,"stimulus":"[\"img/0862/57b6f83f-c763-4858-830d-102f97bfefbf.jpg\",\"img/0902/22ed3536-288b-452e-9777-0fa0ab94deb0.jpg\"]","trial_type":"similarity","trial_index":113,"time_elapsed":822847,"internal_node_id":"0.0-6.0-107.0"},{"sim_score":5,"rt":5107,"stimulus":"[\"img/0904/1d10df11-b5c8-4370-9a6b-097a7f965895.jpg\",\"img/0903/5248eedd-7e6a-4d39-91b0-06ec227f3ed0.jpg\"]","trial_type":"similarity","trial_index":114,"time_elapsed":828967,"internal_node_id":"0.0-6.0-108.0"},{"sim_score":3,"rt":4849,"stimulus":"[\"img/0764/1f95ab5f-fb65-4d70-b5db-d6bd6351a8aa.jpg\",\"img/0864/e8bd659f-aa43-4748-877e-3118e8b4e189.jpg\"]","trial_type":"similarity","trial_index":115,"time_elapsed":834823,"internal_node_id":"0.0-6.0-109.0"},{"sim_score":3,"rt":4337,"stimulus":"[\"img/0866/be24ab58-230e-4db8-9f45-ff04c9aec6bb.jpg\",\"img/0894/0130a973-d993-41f8-874a-fee23d9ac11f.jpg\"]","trial_type":"similarity","trial_index":116,"time_elapsed":840167,"internal_node_id":"0.0-6.0-110.0"},{"sim_score":3,"rt":3489,"stimulus":"[\"img/0899/57476fed-5962-4272-8fc9-b317bb777b54.jpg\",\"img/0903/ea75f240-fb62-4edb-a709-83e858b202c0.jpg\"]","trial_type":"similarity","trial_index":117,"time_elapsed":844663,"internal_node_id":"0.0-6.0-111.0"},{"sim_score":3,"rt":3824,"stimulus":"[\"img/0902/2db723b6-130f-454c-8c8d-88829edbcd65.jpg\",\"img/0904/fe746a3f-8458-48d0-8a13-8cba2a9df9f8.jpg\"]","trial_type":"similarity","trial_index":118,"time_elapsed":849495,"internal_node_id":"0.0-6.0-112.0"},{"sim_score":1,"rt":3704,"stimulus":"[\"img/0864/efcfbb1b-8197-44c9-b723-40d6c608dd3c.jpg\",\"img/0860/fd4662f9-4c03-4d79-8593-06735e55a64b.jpg\"]","trial_type":"similarity","trial_index":119,"time_elapsed":854207,"internal_node_id":"0.0-6.0-113.0"},{"sim_score":2,"rt":3481,"stimulus":"[\"img/0860/c47fdead-eb02-4989-b078-26f4852f44fe.jpg\",\"img/0899/565ccdd9-0933-4536-a625-3c0e25a713dd.jpg\"]","trial_type":"similarity","trial_index":120,"time_elapsed":858695,"internal_node_id":"0.0-6.0-114.0"},{"sim_score":1,"rt":3161,"stimulus":"[\"img/0881/48ed65a5-471f-41af-86ec-3793805c116d.jpg\",\"img/0903/45e2d600-57ff-4d69-b22c-0c7896cd38f0.jpg\"]","trial_type":"similarity","trial_index":121,"time_elapsed":862871,"internal_node_id":"0.0-6.0-115.0"},{"sim_score":2,"rt":3224,"stimulus":"[\"img/0894/c505c65a-cde2-4f2c-8cde-f8676f7c894d.jpg\",\"img/0874/85eb9b8a-c4c6-4e5a-b8e7-363a87a82054.jpg\"]","trial_type":"similarity","trial_index":122,"time_elapsed":867103,"internal_node_id":"0.0-6.0-116.0"},{"sim_score":3,"rt":4033,"stimulus":"[\"img/0881/14236cf2-6b95-48b8-9368-78af09d2d27f.jpg\",\"img/0862/cdaed51d-9e2f-4807-801a-4663c40077e2.jpg\"]","trial_type":"similarity","trial_index":123,"time_elapsed":872151,"internal_node_id":"0.0-6.0-117.0"},{"sim_score":5,"rt":3272,"stimulus":"[\"img/0868/5fa7f9d0-f0e5-454c-8224-74d964818f56.jpg\",\"img/0875/8521fd58-3b1e-4dc5-97ae-804edfa6734a.jpg\"]","trial_type":"similarity","trial_index":124,"time_elapsed":876439,"internal_node_id":"0.0-6.0-118.0"},{"sim_score":2,"rt":3952,"stimulus":"[\"img/0860/29a21a9f-54bb-4093-ad3f-04823ceaa89f.jpg\",\"img/0758/335851a0-a55b-46d8-ab05-8463eda48349.jpg\"]","trial_type":"similarity","trial_index":125,"time_elapsed":881399,"internal_node_id":"0.0-6.0-119.0"},{"sim_score":2,"rt":3725,"stimulus":"[\"img/0864/6f631579-acf1-415c-a42c-1207f62a8d99.jpg\",\"img/0875/a4935837-7d3c-4df6-88c1-36a94d4991ca.jpg\"]","trial_type":"similarity","trial_index":126,"time_elapsed":886136,"internal_node_id":"0.0-6.0-120.0"},{"sim_score":3,"rt":3832,"stimulus":"[\"img/0898/c3cecf20-f7fd-45fa-97d0-dc0a63e8d6c0.jpg\",\"img/0866/386235d2-6857-41e7-88a8-25cfc3430025.jpg\"]","trial_type":"similarity","trial_index":127,"time_elapsed":890982,"internal_node_id":"0.0-6.0-121.0"},{"sim_score":2,"rt":3100,"stimulus":"[\"img/0874/995f0332-0439-4eb4-add3-957335dbf6d9.jpg\",\"img/0904/0d17b811-063e-416e-a23c-3b3cfa4fcce5.jpg\"]","trial_type":"similarity","trial_index":128,"time_elapsed":895087,"internal_node_id":"0.0-6.0-122.0"},{"sim_score":2,"rt":3984,"stimulus":"[\"img/0904/4b8daf2a-13a9-4ea9-9e0b-b265b6e933e7.jpg\",\"img/0864/1ebbc554-99fa-49f9-8799-317375a79820.jpg\"]","trial_type":"similarity","trial_index":129,"time_elapsed":900078,"internal_node_id":"0.0-6.0-123.0"},{"sim_score":3,"rt":4117,"stimulus":"[\"img/0894/492d2f29-d7b9-4422-8be8-47fd58bfaa8b.jpg\",\"img/0902/10d99c89-71f7-4c81-a31e-dfc7c59f5232.jpg\"]","trial_type":"similarity","trial_index":130,"time_elapsed":905206,"internal_node_id":"0.0-6.0-124.0"},{"sim_score":1,"rt":2992,"stimulus":"[\"img/0868/4a8a45ed-2c4f-421b-9564-409a33ecd26c.jpg\",\"img/0864/5f33e097-23e3-4002-882d-76e8cb15f451.jpg\"]","trial_type":"similarity","trial_index":131,"time_elapsed":918326,"internal_node_id":"0.0-6.0-125.0"},{"sim_score":3,"rt":3776,"stimulus":"[\"img/0899/4f7bc593-8ddd-4da3-a0b9-84da730d3370.jpg\",\"img/0866/c446214b-a368-4c65-ae39-ea46894256ab.jpg\"]","trial_type":"similarity","trial_index":132,"time_elapsed":923110,"internal_node_id":"0.0-6.0-126.0"},{"sim_score":3,"rt":3664,"stimulus":"[\"img/0875/42910c99-5463-450a-a0f8-d4d060a11455.jpg\",\"img/0904/696ebb60-8891-417a-91fd-c53218907a95.jpg\"]","trial_type":"similarity","trial_index":133,"time_elapsed":927782,"internal_node_id":"0.0-6.0-127.0"},{"sim_score":2,"rt":3103,"stimulus":"[\"img/0867/50a1b60e-3a29-44bf-b606-d4bd3746fea9.jpg\",\"img/0899/0433d056-aa30-4f8a-9aa1-abbb951e4edd.jpg\"]","trial_type":"similarity","trial_index":134,"time_elapsed":931894,"internal_node_id":"0.0-6.0-128.0"},{"sim_score":2,"rt":3369,"stimulus":"[\"img/0901/b13fa50f-dbe0-4d0f-8647-6ac0fd8f40bd.jpg\",\"img/0867/12264664-1860-46df-8c21-162b9817cdda.jpg\"]","trial_type":"similarity","trial_index":135,"time_elapsed":936271,"internal_node_id":"0.0-6.0-129.0"},{"sim_score":2,"rt":3567,"stimulus":"[\"img/0864/3d4de670-b290-4285-9c3d-12a0e3af44e9.jpg\",\"img/0769/6c0bac4c-5f59-43c7-898c-3ca93cf55cfe.jpg\"]","trial_type":"similarity","trial_index":136,"time_elapsed":940847,"internal_node_id":"0.0-6.0-130.0"},{"sim_score":2,"rt":3352,"stimulus":"[\"img/0903/5c6b1f57-b3a2-40f5-9fb1-82785e24b6a0.jpg\",\"img/0868/e0aff734-077f-40dd-9781-74821abd3621.jpg\"]","trial_type":"similarity","trial_index":137,"time_elapsed":945222,"internal_node_id":"0.0-6.0-131.0"},{"sim_score":1,"rt":3983,"stimulus":"[\"img/0864/8ddd2e30-a1d0-479f-9cbe-591213023893.jpg\",\"img/0867/2e1a0b58-cdb1-4107-a14e-452530d7b9b0.jpg\"]","trial_type":"similarity","trial_index":138,"time_elapsed":950222,"internal_node_id":"0.0-6.0-132.0"},{"sim_score":6,"rt":3577,"stimulus":"[\"img/0901/4d1bed7e-3c4e-4f6c-ada9-4beb66ba9e39.jpg\",\"img/0860/17b44a7d-c5ca-479f-9e87-f65a64f5c80e.jpg\"]","trial_type":"similarity","trial_index":139,"time_elapsed":954807,"internal_node_id":"0.0-6.0-133.0"},{"sim_score":3,"rt":5077,"stimulus":"[\"img/0881/566f45f8-5fed-4479-a60f-26377e60a62d.jpg\",\"img/0766/a754e4b6-5019-4cf4-8f58-34c20547a1f5.jpg\"]","trial_type":"similarity","trial_index":140,"time_elapsed":960902,"internal_node_id":"0.0-6.0-134.0"},{"sim_score":1,"rt":3106,"stimulus":"[\"img/0903/005ad0de-4f52-433c-b515-dbe8d46184a3.jpg\",\"img/0864/0f537697-a314-47c3-a8cc-8df23b7e536c.jpg\"]","trial_type":"similarity","trial_index":141,"time_elapsed":965030,"internal_node_id":"0.0-6.0-135.0"},{"sim_score":1,"rt":3581,"stimulus":"[\"img/0758/3ddd05d3-557e-4ee7-8b78-9d2d681d8ae2.jpg\",\"img/0894/5f15154e-e72e-4ce5-aafb-bce6f0564006.jpg\"]","trial_type":"similarity","trial_index":142,"time_elapsed":969630,"internal_node_id":"0.0-6.0-136.0"},{"sim_score":1,"rt":3593,"stimulus":"[\"img/0769/ebef2ddc-ba59-4e0e-97f8-927864eb5081.jpg\",\"img/0860/8a92e21b-6a32-4e4a-a445-2d5a487ed0a4.jpg\"]","trial_type":"similarity","trial_index":143,"time_elapsed":974230,"internal_node_id":"0.0-6.0-137.0"},{"sim_score":1,"rt":3841,"stimulus":"[\"img/0904/73920552-103b-4c9c-9ece-e0b8376b4504.jpg\",\"img/0766/51d3aab4-3d09-4dda-b99d-3dc7aaabc6f2.jpg\"]","trial_type":"similarity","trial_index":144,"time_elapsed":979078,"internal_node_id":"0.0-6.0-138.0"},{"sim_score":2,"rt":3689,"stimulus":"[\"img/0868/6a28c3b0-3d76-498a-9fb7-ddafc665eca8.jpg\",\"img/0860/8277806e-b684-4474-8f7b-3fca946d7d4f.jpg\"]","trial_type":"similarity","trial_index":145,"time_elapsed":983774,"internal_node_id":"0.0-6.0-139.0"},{"sim_score":6,"rt":3421,"stimulus":"[\"img/0758/eabcd7a8-56ad-4fd2-bc24-90f6b7b33265.jpg\",\"img/0864/f92649a2-0590-4d31-9a7a-1bfb81666a2d.jpg\"]","trial_type":"similarity","trial_index":146,"time_elapsed":988206,"internal_node_id":"0.0-6.0-140.0"},{"sim_score":7,"rt":4081,"stimulus":"[\"img/0867/6e19c858-b606-45b2-a4c6-910a73f1d82c.jpg\",\"img/0867/db7e032f-162b-46f5-ae67-2b29679adee4.jpg\"]","trial_type":"similarity","trial_index":147,"time_elapsed":993294,"internal_node_id":"0.0-6.0-141.0"},{"sim_score":6,"rt":3577,"stimulus":"[\"img/0898/81b08535-2020-4c15-9ce4-2f1e460755ae.jpg\",\"img/0898/a114b375-cb89-44ba-9498-74213f1ecdee.jpg\"]","trial_type":"similarity","trial_index":148,"time_elapsed":997886,"internal_node_id":"0.0-6.0-142.0"},{"sim_score":4,"rt":2632,"stimulus":"[\"img/0866/07c9c966-3c8d-40e7-8128-92b2acbaed5d.jpg\",\"img/0769/8056889f-2b14-4782-bb25-b4e8896ab65b.jpg\"]","trial_type":"similarity","trial_index":149,"time_elapsed":1001526,"internal_node_id":"0.0-6.0-143.0"},{"sim_score":2,"rt":3110,"stimulus":"[\"img/0860/d9a0d117-6d1d-41c0-8fec-9aff0fd9e9f2.jpg\",\"img/0898/04e39a7a-fcf6-4156-ab0e-f5871f335e1c.jpg\"]","trial_type":"similarity","trial_index":150,"time_elapsed":1005654,"internal_node_id":"0.0-6.0-144.0"},{"sim_score":2,"rt":4233,"stimulus":"[\"img/0766/ef3b15ce-abb7-4292-ad93-aec8e8b50520.jpg\",\"img/0864/c3b63e8f-ea39-4d70-a1f2-b3fe4be8eb75.jpg\"]","trial_type":"similarity","trial_index":151,"time_elapsed":1010894,"internal_node_id":"0.0-6.0-145.0"},{"sim_score":3,"rt":3801,"stimulus":"[\"img/0860/31ff6436-98bf-4652-bed2-40f627229568.jpg\",\"img/0903/81368973-de81-46f4-844f-b901f3bfd66d.jpg\"]","trial_type":"similarity","trial_index":152,"time_elapsed":1015702,"internal_node_id":"0.0-6.0-146.0"},{"sim_score":2,"rt":3505,"stimulus":"[\"img/0867/c66898ba-b71b-4d50-84f9-f7f84853a98d.jpg\",\"img/0764/da207710-e7e4-4f42-b2e6-99b5f357f433.jpg\"]","trial_type":"similarity","trial_index":153,"time_elapsed":1020214,"internal_node_id":"0.0-6.0-147.0"},{"sim_score":6,"rt":4314,"stimulus":"[\"img/0769/3adfa417-3b90-4aab-b437-5eaa474189cb.jpg\",\"img/0904/ba8e689e-9ca6-4608-a2a1-3b0940666ae6.jpg\"]","trial_type":"similarity","trial_index":154,"time_elapsed":1025550,"internal_node_id":"0.0-6.0-148.0"},{"sim_score":1,"rt":3370,"stimulus":"[\"img/0764/ef0e64c6-d0dd-4dc6-87b6-ce5c0665f421.jpg\",\"img/0901/77087ed2-6e12-4329-b2a5-605bca6d972d.jpg\"]","trial_type":"similarity","trial_index":155,"time_elapsed":1029934,"internal_node_id":"0.0-6.0-149.0"},{"sim_score":5,"rt":3393,"stimulus":"[\"img/0904/63dd06dd-dccb-47ba-9740-eb33239e18a7.jpg\",\"img/0899/7f9d45d0-b2c6-40d3-aa41-c207db2c411b.jpg\"]","trial_type":"similarity","trial_index":156,"time_elapsed":1034334,"internal_node_id":"0.0-6.0-150.0"},{"sim_score":1,"rt":3499,"stimulus":"[\"img/0862/24cdc752-c2e5-4a17-86a6-6f2045d8553b.jpg\",\"img/0867/ac1797e4-8afc-48fe-b252-86d1defb1cca.jpg\"]","trial_type":"similarity","trial_index":157,"time_elapsed":1038854,"internal_node_id":"0.0-6.0-151.0"},{"sim_score":7,"rt":4553,"stimulus":"[\"img/0766/a0270213-fa0e-4972-8b56-228c3e01ff90.jpg\",\"img/0766/0025de5e-f620-4079-8a0f-00326ff3a6b0.jpg\"]","trial_type":"similarity","trial_index":158,"time_elapsed":1044414,"internal_node_id":"0.0-6.0-152.0"},{"sim_score":2,"rt":3693,"stimulus":"[\"img/0862/7918ca67-5bd3-4606-a5ea-c39fb11a9297.jpg\",\"img/0894/661b9f9f-4bde-487a-b1ed-87085fde6948.jpg\"]","trial_type":"similarity","trial_index":159,"time_elapsed":1049126,"internal_node_id":"0.0-6.0-153.0"},{"sim_score":1,"rt":3816,"stimulus":"[\"img/0899/d8f2dd94-570e-4e8c-a087-d96090fb9e8c.jpg\",\"img/0901/b453df0b-4c39-49bb-8ced-6127efffa898.jpg\"]","trial_type":"similarity","trial_index":160,"time_elapsed":1053949,"internal_node_id":"0.0-6.0-154.0"},{"sim_score":2,"rt":3681,"stimulus":"[\"img/0874/31e22c7c-99aa-40b1-bf03-dd73fa2df4d6.jpg\",\"img/0874/29830da7-be5f-44e5-b141-652a0ccf7269.jpg\"]","trial_type":"similarity","trial_index":161,"time_elapsed":1058637,"internal_node_id":"0.0-6.0-155.0"},{"sim_score":3,"rt":2797,"stimulus":"[\"img/0860/94ef7afc-e0e6-4a15-98c6-0bfac82bc832.jpg\",\"img/0867/f8159067-056c-41f1-a136-c529fe5e970a.jpg\"]","trial_type":"similarity","trial_index":162,"time_elapsed":1062446,"internal_node_id":"0.0-6.0-156.0"},{"sim_score":3,"rt":3496,"stimulus":"[\"img/0901/00acf6c1-b66e-4060-bb04-4caf29b5a8b0.jpg\",\"img/0881/633c6f40-56d9-4b48-bf1c-ecd83116eabb.jpg\"]","trial_type":"similarity","trial_index":163,"time_elapsed":1066949,"internal_node_id":"0.0-6.0-157.0"},{"sim_score":6,"rt":3666,"stimulus":"[\"img/0903/365f176c-25a4-4973-bd3c-279bf1b39476.jpg\",\"img/0902/4e0baa32-988e-46f6-989d-f669225ab645.jpg\"]","trial_type":"similarity","trial_index":164,"time_elapsed":1071629,"internal_node_id":"0.0-6.0-158.0"},{"sim_score":3,"rt":3189,"stimulus":"[\"img/0860/b03b963d-949b-4d8d-b19c-4950c89eeca2.jpg\",\"img/0764/713cc27e-2338-4486-bfe9-5f5725fbd7a0.jpg\"]","trial_type":"similarity","trial_index":165,"time_elapsed":1075837,"internal_node_id":"0.0-6.0-159.0"},{"sim_score":3,"rt":4169,"stimulus":"[\"img/0902/7f1dcd35-237a-4995-9e42-7f63f3f434d4.jpg\",\"img/0875/527ced51-8e53-4aab-ab05-86df219104c0.jpg\"]","trial_type":"similarity","trial_index":166,"time_elapsed":1081013,"internal_node_id":"0.0-6.0-160.0"},{"sim_score":3,"rt":3073,"stimulus":"[\"img/0898/881e2a85-d5c2-49be-a0c6-8a6ce2c4af08.jpg\",\"img/0862/5d887e9f-89e2-4ebc-80a0-6d46fe6480db.jpg\"]","trial_type":"similarity","trial_index":167,"time_elapsed":1085094,"internal_node_id":"0.0-6.0-161.0"},{"sim_score":3,"rt":3480,"stimulus":"[\"img/0894/76c1201f-8524-4865-85e6-dda8cb4ac986.jpg\",\"img/0875/dbdd643e-6d0e-4a5c-ab57-b9c29b9c981a.jpg\"]","trial_type":"similarity","trial_index":168,"time_elapsed":1089582,"internal_node_id":"0.0-6.0-162.0"},{"sim_score":1,"rt":2946,"stimulus":"[\"img/0866/11a1d141-be5e-443c-98c1-a9d4d9e3dec0.jpg\",\"img/0864/c22faebd-9c53-47bc-ada3-b9a30c688e75.jpg\"]","trial_type":"similarity","trial_index":169,"time_elapsed":1093541,"internal_node_id":"0.0-6.0-163.0"},{"sim_score":1,"rt":3082,"stimulus":"[\"img/0766/6d32752d-aa05-40dc-9541-640b6e9d6fa1.jpg\",\"img/0862/e0f1a4e9-e1b6-45f7-af67-89f334e6630d.jpg\"]","trial_type":"similarity","trial_index":170,"time_elapsed":1097637,"internal_node_id":"0.0-6.0-164.0"},{"sim_score":1,"rt":3556,"stimulus":"[\"img/0866/a15b02be-11bb-43e3-b0e0-ecc3bd7dfc49.jpg\",\"img/0874/eba003b4-cdab-4eee-8bc3-f064c7d94165.jpg\"]","trial_type":"similarity","trial_index":171,"time_elapsed":1102205,"internal_node_id":"0.0-6.0-165.0"},{"sim_score":6,"rt":3600,"stimulus":"[\"img/0862/ee3b7bff-4a70-4e84-9bea-4a565e456acb.jpg\",\"img/0860/c7047cd2-7cc1-41b6-8a34-c0986774975f.jpg\"]","trial_type":"similarity","trial_index":172,"time_elapsed":1106813,"internal_node_id":"0.0-6.0-166.0"},{"sim_score":1,"rt":3401,"stimulus":"[\"img/0766/2da002a4-05c9-4f5c-9ed7-433b4183e273.jpg\",\"img/0901/4f9cffe0-c0be-4d7f-bacd-9d51efd19b4a.jpg\"]","trial_type":"similarity","trial_index":173,"time_elapsed":1116061,"internal_node_id":"0.0-6.0-167.0"},{"sim_score":7,"rt":3785,"stimulus":"[\"img/0862/00c06b00-3b73-44e9-bc1e-c5aafb438321.jpg\",\"img/0862/f43ceabf-acc1-4107-b857-5d1849808f93.jpg\"]","trial_type":"similarity","trial_index":174,"time_elapsed":1120853,"internal_node_id":"0.0-6.0-168.0"},{"sim_score":3,"rt":3444,"stimulus":"[\"img/0894/5c7677b0-a4f1-479e-b274-7822c415175a.jpg\",\"img/0764/1def7b22-b054-4ec2-860b-73d25691823b.jpg\"]","trial_type":"similarity","trial_index":175,"time_elapsed":1125317,"internal_node_id":"0.0-6.0-169.0"},{"sim_score":3,"rt":3887,"stimulus":"[\"img/0874/a3bc679d-619f-4db6-bb68-116dcb757d9c.jpg\",\"img/0898/01bfe666-3510-4fc7-964f-d00d28732dc8.jpg\"]","trial_type":"similarity","trial_index":176,"time_elapsed":1130221,"internal_node_id":"0.0-6.0-170.0"},{"sim_score":2,"rt":3090,"stimulus":"[\"img/0860/5bff793e-cbd5-4d7e-b628-0ac2b0e30b64.jpg\",\"img/0766/006035d8-c736-4daf-bbe4-a9e373af9da6.jpg\"]","trial_type":"similarity","trial_index":177,"time_elapsed":1134333,"internal_node_id":"0.0-6.0-171.0"},{"sim_score":4,"rt":3791,"stimulus":"[\"img/0898/a8f16b02-e19f-423b-86c3-a36562ae1f9b.jpg\",\"img/0864/1d15626a-2f7c-410f-819c-0fa2c967e95e.jpg\"]","trial_type":"similarity","trial_index":178,"time_elapsed":1139133,"internal_node_id":"0.0-6.0-172.0"},{"sim_score":3,"rt":2977,"stimulus":"[\"img/0881/d1982897-8d8d-4704-a940-1ee5d07a1f15.jpg\",\"img/0764/e48e6c6f-9e28-420f-836a-8043b2319bb4.jpg\"]","trial_type":"similarity","trial_index":179,"time_elapsed":1143117,"internal_node_id":"0.0-6.0-173.0"},{"sim_score":3,"rt":3103,"stimulus":"[\"img/0898/b2732712-71c2-45d8-834f-2b2ed5504910.jpg\",\"img/0868/4e626425-63c8-484a-8a1d-e66ee4e0bef8.jpg\"]","trial_type":"similarity","trial_index":180,"time_elapsed":1147237,"internal_node_id":"0.0-6.0-174.0"},{"sim_score":7,"rt":3290,"stimulus":"[\"img/0864/e02eddb5-f468-499c-91bf-f7be3ffe979b.jpg\",\"img/0864/e336a4c5-6648-4fd7-b2f6-93a3fb83f8c6.jpg\"]","trial_type":"similarity","trial_index":181,"time_elapsed":1151549,"internal_node_id":"0.0-6.0-175.0"},{"sim_score":3,"rt":4301,"stimulus":"[\"img/0899/1b3457ea-87d4-4946-a01c-aac1863ed46c.jpg\",\"img/0862/f188d4f0-76a4-4102-818c-a209969d73a5.jpg\"]","trial_type":"similarity","trial_index":182,"time_elapsed":1156869,"internal_node_id":"0.0-6.0-176.0"},{"sim_score":2,"rt":3751,"stimulus":"[\"img/0875/5a1e5100-0d94-4fec-bbe9-ca9894d2cf8e.jpg\",\"img/0758/a709631e-3705-4725-ac40-f0d916924f08.jpg\"]","trial_type":"similarity","trial_index":183,"time_elapsed":1161629,"internal_node_id":"0.0-6.0-177.0"},{"sim_score":1,"rt":4161,"stimulus":"[\"img/0866/93a27239-8317-4e08-98ca-d8b1ff298e07.jpg\",\"img/0901/7d4a3388-488d-4e9b-9d32-9d0def7aae8d.jpg\"]","trial_type":"similarity","trial_index":184,"time_elapsed":1166797,"internal_node_id":"0.0-6.0-178.0"},{"sim_score":3,"rt":5109,"stimulus":"[\"img/0769/5bd04f55-d091-4f57-85db-38426f26bd1a.jpg\",\"img/0874/bf14b896-e930-4fd9-9c05-2e83317a2773.jpg\"]","trial_type":"similarity","trial_index":185,"time_elapsed":1172917,"internal_node_id":"0.0-6.0-179.0"},{"sim_score":1,"rt":4122,"stimulus":"[\"img/0875/cff79b3a-a797-4393-9757-6275f999ec04.jpg\",\"img/0881/c24f3051-eefa-42de-aba6-fccb56d93c70.jpg\"]","trial_type":"similarity","trial_index":186,"time_elapsed":1178061,"internal_node_id":"0.0-6.0-180.0"},{"sim_score":7,"rt":3555,"stimulus":"[\"img/0866/0207e9a2-7dbb-40b5-9459-b472aaeceb2a.jpg\",\"img/0868/293079b8-7e0c-4afd-a390-1e5d35fe3ded.jpg\"]","trial_type":"similarity","trial_index":187,"time_elapsed":1182629,"internal_node_id":"0.0-6.0-181.0"},{"sim_score":6,"rt":4601,"stimulus":"[\"img/0899/06b0fc99-0581-461a-9913-d1a5a941ac61.jpg\",\"img/0758/d540bee6-b460-4c32-ac57-bc282742d7d4.jpg\"]","trial_type":"similarity","trial_index":188,"time_elapsed":1188237,"internal_node_id":"0.0-6.0-182.0"},{"sim_score":2,"rt":3229,"stimulus":"[\"img/0874/3ce41e7c-40c8-4d58-a546-171114521796.jpg\",\"img/0875/fb732ab5-013a-4366-9f65-27811ed157e9.jpg\"]","trial_type":"similarity","trial_index":189,"time_elapsed":1192477,"internal_node_id":"0.0-6.0-183.0"},{"sim_score":1,"rt":3569,"stimulus":"[\"img/0904/0d25eb24-bb20-4e8d-9787-8b489558b4cb.jpg\",\"img/0862/ad593cc7-cabe-4bb7-8e14-8a447a0717b4.jpg\"]","trial_type":"similarity","trial_index":190,"time_elapsed":1197052,"internal_node_id":"0.0-6.0-184.0"},{"sim_score":2,"rt":4002,"stimulus":"[\"img/0902/2a7ac123-414a-476a-9a96-4757b924baef.jpg\",\"img/0766/d3bab2fc-ddcc-40a0-bb72-c0d0ebe19978.jpg\"]","trial_type":"similarity","trial_index":191,"time_elapsed":1202069,"internal_node_id":"0.0-6.0-185.0"},{"sim_score":2,"rt":3400,"stimulus":"[\"img/0758/f61ecdf8-a7d4-4db0-b84d-be46f7cfaffc.jpg\",\"img/0769/14d393ce-e5be-4ca1-86ce-cc27d4b6074c.jpg\"]","trial_type":"similarity","trial_index":192,"time_elapsed":1206485,"internal_node_id":"0.0-6.0-186.0"},{"sim_score":5,"rt":4065,"stimulus":"[\"img/0881/b549bc99-a61c-4450-bab5-9efc3a197bf0.jpg\",\"img/0881/c843e210-bdfe-4a7c-8bbe-fcea1f90fe1c.jpg\"]","trial_type":"similarity","trial_index":193,"time_elapsed":1211557,"internal_node_id":"0.0-6.0-187.0"},{"sim_score":3,"rt":3578,"stimulus":"[\"img/0758/e38fd80d-18d0-42f3-b848-f930788e8bd7.jpg\",\"img/0866/d266fece-59b3-46fa-b69f-96f6efb81b59.jpg\"]","trial_type":"similarity","trial_index":194,"time_elapsed":1216149,"internal_node_id":"0.0-6.0-188.0"},{"sim_score":2,"rt":3280,"stimulus":"[\"img/0764/3297a811-ea8b-4d74-9547-59cecab7293a.jpg\",\"img/0898/5f699581-3853-4547-856c-12f419ba5af7.jpg\"]","trial_type":"similarity","trial_index":195,"time_elapsed":1220437,"internal_node_id":"0.0-6.0-189.0"},{"sim_score":2,"rt":3997,"stimulus":"[\"img/0903/bf0a7d60-eca5-44b0-bafd-baf21db9904b.jpg\",\"img/0901/58978a6d-a3e2-4c59-8d62-f60693ecc0f6.jpg\"]","trial_type":"similarity","trial_index":196,"time_elapsed":1225444,"internal_node_id":"0.0-6.0-190.0"},{"sim_score":5,"rt":3674,"stimulus":"[\"img/0902/9f543501-3cf1-45a7-a2f1-eeca87cc15b9.jpg\",\"img/0898/224c1572-56b9-4f16-a9e4-6f3bc9c114bd.jpg\"]","trial_type":"similarity","trial_index":197,"time_elapsed":1230124,"internal_node_id":"0.0-6.0-191.0"},{"sim_score":2,"rt":3657,"stimulus":"[\"img/0864/0116ca98-293d-4fa6-a93b-5a6144ef64cc.jpg\",\"img/0901/5b97abf9-f0c8-4fd1-b921-36d574779078.jpg\"]","trial_type":"similarity","trial_index":198,"time_elapsed":1234788,"internal_node_id":"0.0-6.0-192.0"},{"sim_score":1,"rt":3431,"stimulus":"[\"img/0894/11674fa4-285d-44e2-939f-2228c6a64080.jpg\",\"img/0881/f7a8cc63-8842-40a4-9ff8-fe530310d62c.jpg\"]","trial_type":"similarity","trial_index":199,"time_elapsed":1239228,"internal_node_id":"0.0-6.0-193.0"},{"sim_score":7,"rt":3257,"stimulus":"[\"img/0868/3a62db2d-97e9-44a3-b8e3-a48c6f0e423b.jpg\",\"img/0868/1a62b2b2-18f5-466e-b564-5176a57c565e.jpg\"]","trial_type":"similarity","trial_index":200,"time_elapsed":1243492,"internal_node_id":"0.0-6.0-194.0"},{"sim_score":3,"rt":3787,"stimulus":"[\"img/0899/93494f3b-d539-4075-b027-d82e344563da.jpg\",\"img/0764/c643e165-df19-459f-8c2b-8357bf432a17.jpg\"]","trial_type":"similarity","trial_index":201,"time_elapsed":1248300,"internal_node_id":"0.0-6.0-195.0"},{"sim_score":2,"rt":3626,"stimulus":"[\"img/0881/44e09805-5a25-4f17-a716-4ad4a331b174.jpg\",\"img/0904/65e2b70a-b184-4da3-b5c0-5038bdf9469a.jpg\"]","trial_type":"similarity","trial_index":202,"time_elapsed":1252932,"internal_node_id":"0.0-6.0-196.0"},{"sim_score":3,"rt":3178,"stimulus":"[\"img/0864/afcba0a3-7e27-4757-b254-e9f05fad27e2.jpg\",\"img/0902/b76efc44-a50f-4dac-b997-ff0222376067.jpg\"]","trial_type":"similarity","trial_index":203,"time_elapsed":1257124,"internal_node_id":"0.0-6.0-197.0"},{"sim_score":5,"rt":4995,"stimulus":"[\"img/0894/3664e04c-c6d3-4c9b-afb6-25d89974b174.jpg\",\"img/0904/2f88ce53-02d0-4f95-a082-182c56a0eeb4.jpg\"]","trial_type":"similarity","trial_index":204,"time_elapsed":1263133,"internal_node_id":"0.0-6.0-198.0"},{"sim_score":7,"rt":3941,"stimulus":"[\"img/0901/7c16dd9c-44ad-4d5b-990c-6a0b9b48b1b1.jpg\",\"img/0901/548d1110-7cb8-42a2-9927-9798875c8b5c.jpg\"]","trial_type":"similarity","trial_index":205,"time_elapsed":1268084,"internal_node_id":"0.0-6.0-199.0"},{"sim_score":1,"rt":3553,"stimulus":"[\"img/0894/133a1636-d123-4893-873c-1718050f832a.jpg\",\"img/0860/524b2e98-5767-4d53-942c-ebae6925659b.jpg\"]","trial_type":"similarity","trial_index":206,"time_elapsed":1272652,"internal_node_id":"0.0-6.0-200.0"},{"sim_score":6,"rt":3969,"stimulus":"[\"img/0898/4184e5a2-84ea-4f36-9b42-ae58646f6f87.jpg\",\"img/0903/680ed18e-b311-4ecf-9b00-7dea32128334.jpg\"]","trial_type":"similarity","trial_index":207,"time_elapsed":1277628,"internal_node_id":"0.0-6.0-201.0"},{"sim_score":2,"rt":3968,"stimulus":"[\"img/0864/49150900-7f25-4ce8-8d10-9b47a71d1997.jpg\",\"img/0894/e2446cf5-cd48-486a-badc-76498e087fbe.jpg\"]","trial_type":"similarity","trial_index":208,"time_elapsed":1282604,"internal_node_id":"0.0-6.0-202.0"},{"sim_score":1,"rt":3667,"stimulus":"[\"img/0874/a82926a3-0b43-4add-803c-d5f9ea7798ee.jpg\",\"img/0860/702bd09d-df3a-40aa-a267-5f04474305b5.jpg\"]","trial_type":"similarity","trial_index":209,"time_elapsed":1287284,"internal_node_id":"0.0-6.0-203.0"},{"sim_score":2,"rt":3284,"stimulus":"[\"img/0862/f23038d4-c366-4f70-979f-66b62362efa4.jpg\",\"img/0875/3ecb367d-e9eb-4826-8aaa-7aa72fb98019.jpg\"]","trial_type":"similarity","trial_index":210,"time_elapsed":1291588,"internal_node_id":"0.0-6.0-204.0"},{"sim_score":3,"rt":3240,"stimulus":"[\"img/0867/5e07b34d-b40f-4b1c-ac10-49975bace45f.jpg\",\"img/0881/62a64f90-7a72-4aee-a1a1-0c548ac9bdda.jpg\"]","trial_type":"similarity","trial_index":211,"time_elapsed":1295836,"internal_node_id":"0.0-6.0-205.0"},{"sim_score":2,"rt":3622,"stimulus":"[\"img/0901/bc47e078-bda4-40ed-b89a-bbd819164b95.jpg\",\"img/0902/04a6ad4a-afc6-4871-8225-56b299af7b6b.jpg\"]","trial_type":"similarity","trial_index":212,"time_elapsed":1300476,"internal_node_id":"0.0-6.0-206.0"},{"sim_score":1,"rt":3672,"stimulus":"[\"img/0899/a05bea16-2bb4-4cb9-b8fb-4ff975db6971.jpg\",\"img/0864/b3c4e378-28f0-4699-9338-2a257b4bca04.jpg\"]","trial_type":"similarity","trial_index":213,"time_elapsed":1305156,"internal_node_id":"0.0-6.0-207.0"},{"sim_score":1,"rt":3153,"stimulus":"[\"img/0901/a9b9c0a0-8aed-4888-a78a-65fb7e764d13.jpg\",\"img/0769/91acb237-65a3-4d0b-9748-af5c7b83d3c7.jpg\"]","trial_type":"similarity","trial_index":214,"time_elapsed":1309332,"internal_node_id":"0.0-6.0-208.0"},{"sim_score":6,"rt":3888,"stimulus":"[\"img/0902/82d20e8c-2162-47a6-925b-52906558c046.jpg\",\"img/0902/d5e25767-e8ec-45f3-ac0a-7b4a6f7a9edc.jpg\"]","trial_type":"similarity","trial_index":215,"time_elapsed":1321347,"internal_node_id":"0.0-6.0-209.0"},{"view_history":"[{\"page_index\":0,\"viewing_time\":11527}]","rt":11528,"trial_type":"instructions","trial_index":216,"time_elapsed":1333876,"internal_node_id":"0.0-7.0"},{"rt":347876,"responses":"{\"Q0\":\"Nashville Warbler\"}","answer":["Nashville Warbler"],"trial_type":"image-multi-choice","trial_index":217,"time_elapsed":1682797,"internal_node_id":"0.0-8.0-0.0"},{"rt":30692,"responses":"{\"Q0\":\"Black-and-white Warbler\"}","answer":["Black-and-white Warbler"],"trial_type":"image-multi-choice","trial_index":218,"time_elapsed":1714540,"internal_node_id":"0.0-8.0-1.0"},{"rt":161728,"responses":"{\"Q0\":\"Blackburnian Warbler\"}","answer":["Townsend's Warbler"],"trial_type":"image-multi-choice","trial_index":219,"time_elapsed":1877315,"internal_node_id":"0.0-8.0-2.0"},{"rt":11210,"responses":"{\"Q0\":\"Lark Sparrow\"}","answer":["Lark Sparrow"],"trial_type":"image-multi-choice","trial_index":220,"time_elapsed":1889578,"internal_node_id":"0.0-8.0-3.0"},{"rt":3630,"responses":"{\"Q0\":\"Yellow Warbler\"}","answer":["Yellow Warbler"],"trial_type":"image-multi-choice","trial_index":221,"time_elapsed":1894242,"internal_node_id":"0.0-8.0-4.0"},{"rt":25729,"responses":"{\"Q0\":\"Orange-crowned Warbler\"}","answer":["Orange-crowned Warbler"],"trial_type":"image-multi-choice","trial_index":222,"time_elapsed":1921010,"internal_node_id":"0.0-8.0-5.0"},{"rt":5401,"responses":"{\"Q0\":\"White-throated Sparrow\"}","answer":["White-throated Sparrow"],"trial_type":"image-multi-choice","trial_index":223,"time_elapsed":1927458,"internal_node_id":"0.0-8.0-6.0"},{"rt":133744,"responses":"{\"Q0\":\"Fox Sparrow\"}","answer":["Fox Sparrow"],"trial_type":"image-multi-choice","trial_index":224,"time_elapsed":2062249,"internal_node_id":"0.0-8.0-7.0"},{"rt":102729,"responses":"{\"Q0\":\"Song Sparrow\"}","answer":["Song Sparrow"],"trial_type":"image-multi-choice","trial_index":225,"time_elapsed":2166017,"internal_node_id":"0.0-8.0-8.0"},{"rt":74410,"responses":"{\"Q0\":\"Blackburnian Warbler\"}","answer":["Blackburnian Warbler"],"trial_type":"image-multi-choice","trial_index":226,"time_elapsed":2241472,"internal_node_id":"0.0-8.0-9.0"},{"rt":169365,"responses":"{\"Q0\":\"Vesper Sparrow\"}","answer":["Vesper Sparrow"],"trial_type":"image-multi-choice","trial_index":227,"time_elapsed":2411881,"internal_node_id":"0.0-8.0-10.0"},{"rt":3680,"responses":"{\"Q0\":\"White-crowned Sparrow\"}","answer":["White-crowned Sparrow"],"trial_type":"image-multi-choice","trial_index":228,"time_elapsed":2416607,"internal_node_id":"0.0-8.0-11.0"},{"rt":18102,"responses":"{\"Q0\":\"American Tree Sparrow\"}","answer":["American Tree Sparrow"],"trial_type":"image-multi-choice","trial_index":229,"time_elapsed":2435759,"internal_node_id":"0.0-8.0-12.0"},{"rt":12242,"responses":"{\"Q0\":\"Orange-crowned Warbler\"}","answer":["Tennessee Warbler"],"trial_type":"image-multi-choice","trial_index":230,"time_elapsed":2449047,"internal_node_id":"0.0-8.0-13.0"},{"rt":39045,"responses":"{\"Q0\":\"Magnolia Warbler\"}","answer":["Magnolia Warbler"],"trial_type":"image-multi-choice","trial_index":231,"time_elapsed":2489127,"internal_node_id":"0.0-8.0-14.0"},{"rt":45921,"responses":"{\"Q0\":\"Northern Waterthrush\"}","answer":["Northern Waterthrush"],"trial_type":"image-multi-choice","trial_index":232,"time_elapsed":2536087,"internal_node_id":"0.0-8.0-15.0"},{"rt":42383,"responses":"{\"Q0\":\"Chipping Sparrow\"}","answer":["Chipping Sparrow"],"trial_type":"image-multi-choice","trial_index":233,"time_elapsed":2579502,"internal_node_id":"0.0-8.0-16.0"},{"rt":49611,"responses":"{\"Q0\":\"Swamp Sparrow\"}","answer":["Swamp Sparrow"],"trial_type":"image-multi-choice","trial_index":234,"time_elapsed":2630158,"internal_node_id":"0.0-8.0-17.0"},{"rt":36197,"responses":"{\"Q0\":\"Lincoln's Sparrow\"}","answer":["Lincoln's Sparrow"],"trial_type":"image-multi-choice","trial_index":235,"time_elapsed":2667398,"internal_node_id":"0.0-8.0-18.0"},{"rt":5938,"responses":"{\"Q0\":\"Ovenbird\"}","answer":["Ovenbird"],"trial_type":"image-multi-choice","trial_index":236,"time_elapsed":2674390,"internal_node_id":"0.0-8.0-19.0"}]