[{"view_history":"[{\"page_index\":0,\"viewing_time\":48456}]","rt":48456,"trial_type":"instructions","trial_index":0,"time_elapsed":48458,"internal_node_id":"0.0-0.0"},{"sim_score":3,"rt":8610,"stimulus":"[\"img/866.jpg\",\"img/868.jpg\"]","trial_type":"similarity_demo","trial_index":1,"time_elapsed":58081,"internal_node_id":"0.0-1.0"},{"view_history":"[{\"page_index\":0,\"viewing_time\":22109}]","rt":22109,"trial_type":"instructions","trial_index":2,"time_elapsed":81191,"internal_node_id":"0.0-2.0"},{"sim_score":1,"rt":5128,"stimulus":"[\"img/766.jpg\",\"img/867.jpg\"]","trial_type":"similarity_demo","trial_index":3,"time_elapsed":87328,"internal_node_id":"0.0-3.0"},{"view_history":"[{\"page_index\":0,\"viewing_time\":7445}]","rt":7445,"trial_type":"instructions","trial_index":4,"time_elapsed":95775,"internal_node_id":"0.0-4.0"},{"view_history":"[{\"page_index\":0,\"viewing_time\":30359}]","rt":30359,"trial_type":"instructions","trial_index":5,"time_elapsed":127135,"internal_node_id":"0.0-5.0"},{"sim_score":1,"rt":4648,"stimulus":"[\"img/0868/09a9ef4d-d000-4cfa-a6aa-ebec7c2edeb4.jpg\",\"img/0901/2a953e50-d237-405c-a38d-5ed21494c968.jpg\"]","trial_type":"similarity","trial_index":6,"time_elapsed":132792,"internal_node_id":"0.0-6.0-0.0"},{"sim_score":1,"rt":4234,"stimulus":"[\"img/0769/878531fd-e0e8-4ad1-b9ad-f018bb104ca0.jpg\",\"img/0867/5e07b34d-b40f-4b1c-ac10-49975bace45f.jpg\"]","trial_type":"similarity","trial_index":7,"time_elapsed":138032,"internal_node_id":"0.0-6.0-1.0"},{"sim_score":4,"rt":6991,"stimulus":"[\"img/0766/535849cc-ff5d-4df9-8f31-0ce94a97d571.jpg\",\"img/0898/8605a25b-6895-476d-8c13-df7a83f96093.jpg\"]","trial_type":"similarity","trial_index":8,"time_elapsed":146031,"internal_node_id":"0.0-6.0-2.0"},{"sim_score":2,"rt":4300,"stimulus":"[\"img/0902/30c420f5-c714-4681-ae5a-c0ba8f636a26.jpg\",\"img/0881/19e82c47-8e4b-45d2-a6c8-74181eb4155e.jpg\"]","trial_type":"similarity","trial_index":9,"time_elapsed":151336,"internal_node_id":"0.0-6.0-3.0"},{"sim_score":7,"rt":5760,"stimulus":"[\"img/0894/767a0eec-1064-46b1-b1aa-dfa02b0cd74e.jpg\",\"img/0894/bd34223a-2f66-4e16-9d18-193a746b69ff.jpg\"]","trial_type":"similarity","trial_index":10,"time_elapsed":158104,"internal_node_id":"0.0-6.0-4.0"},{"sim_score":3,"rt":4633,"stimulus":"[\"img/0874/85eb9b8a-c4c6-4e5a-b8e7-363a87a82054.jpg\",\"img/0899/9de5e857-aa9a-4e0c-8ba2-46d79bd069a4.jpg\"]","trial_type":"similarity","trial_index":11,"time_elapsed":163743,"internal_node_id":"0.0-6.0-5.0"},{"sim_score":4,"rt":5474,"stimulus":"[\"img/0904/d23dd7be-7fe8-4435-82f7-bd592c01e6a1.jpg\",\"img/0764/f713847b-4832-42d1-8fb3-e17e37fd745c.jpg\"]","trial_type":"similarity","trial_index":12,"time_elapsed":170223,"internal_node_id":"0.0-6.0-6.0"},{"sim_score":4,"rt":3537,"stimulus":"[\"img/0899/51a7a498-98c7-42d7-bca8-bc2d8f0b5831.jpg\",\"img/0898/40f99fb2-64d2-4e72-8a7f-a1cf60741e69.jpg\"]","trial_type":"similarity","trial_index":13,"time_elapsed":174767,"internal_node_id":"0.0-6.0-7.0"},{"sim_score":2,"rt":3649,"stimulus":"[\"img/0874/adf9a8f1-c40b-402b-b95b-1e85a54a7b62.jpg\",\"img/0903/647ce311-8c71-479a-8361-961db1457139.jpg\"]","trial_type":"similarity","trial_index":14,"time_elapsed":179424,"internal_node_id":"0.0-6.0-8.0"},{"sim_score":5,"rt":7313,"stimulus":"[\"img/0881/b549bc99-a61c-4450-bab5-9efc3a197bf0.jpg\",\"img/0758/a085b443-b5d7-4cb2-9ad4-b9dab0fc23f1.jpg\"]","trial_type":"similarity","trial_index":15,"time_elapsed":187743,"internal_node_id":"0.0-6.0-9.0"},{"sim_score":5,"rt":5155,"stimulus":"[\"img/0898/b3290bf9-215b-4b45-b21a-65bdf73f142f.jpg\",\"img/0901/1ede21d9-384f-4150-86b5-e1c57b5dc1d4.jpg\"]","trial_type":"similarity","trial_index":16,"time_elapsed":193903,"internal_node_id":"0.0-6.0-10.0"},{"sim_score":4,"rt":3347,"stimulus":"[\"img/0903/0a92ec52-4e87-410a-857a-4455cde56a70.jpg\",\"img/0769/50985283-d353-4abc-9abe-14a91d56ebe6.jpg\"]","trial_type":"similarity","trial_index":17,"time_elapsed":198256,"internal_node_id":"0.0-6.0-11.0"},{"sim_score":1,"rt":3272,"stimulus":"[\"img/0764/ec2dd087-c471-4370-b570-95a542506a96.jpg\",\"img/0868/e0aff734-077f-40dd-9781-74821abd3621.jpg\"]","trial_type":"similarity","trial_index":18,"time_elapsed":202535,"internal_node_id":"0.0-6.0-12.0"},{"sim_score":1,"rt":3858,"stimulus":"[\"img/0867/6e19c858-b606-45b2-a4c6-910a73f1d82c.jpg\",\"img/0903/45e2d600-57ff-4d69-b22c-0c7896cd38f0.jpg\"]","trial_type":"similarity","trial_index":19,"time_elapsed":207399,"internal_node_id":"0.0-6.0-13.0"},{"sim_score":1,"rt":3074,"stimulus":"[\"img/0766/e8052e17-9dae-4139-802b-6e590cb2d526.jpg\",\"img/0758/7fba58df-2a7a-4b76-8a8f-62739f97f271.jpg\"]","trial_type":"similarity","trial_index":20,"time_elapsed":211479,"internal_node_id":"0.0-6.0-14.0"},{"sim_score":2,"rt":4395,"stimulus":"[\"img/0902/fbef27fa-ac83-4936-ab78-9d1c20a383e1.jpg\",\"img/0860/99c589b9-9140-4d17-90c0-b344323edcda.jpg\"]","trial_type":"similarity","trial_index":21,"time_elapsed":216880,"internal_node_id":"0.0-6.0-15.0"},{"sim_score":1,"rt":5312,"stimulus":"[\"img/0769/04347740-f8f6-48bb-887a-f68babd0a0d4.jpg\",\"img/0875/cff79b3a-a797-4393-9757-6275f999ec04.jpg\"]","trial_type":"similarity","trial_index":22,"time_elapsed":223200,"internal_node_id":"0.0-6.0-16.0"},{"sim_score":1,"rt":2994,"stimulus":"[\"img/0904/56e73f28-7e64-489b-a161-e6b1a063878d.jpg\",\"img/0866/93a27239-8317-4e08-98ca-d8b1ff298e07.jpg\"]","trial_type":"similarity","trial_index":23,"time_elapsed":227199,"internal_node_id":"0.0-6.0-17.0"},{"sim_score":7,"rt":4768,"stimulus":"[\"img/0875/03c3c331-738b-4446-af92-3d7386b08c2e.jpg\",\"img/0875/e7e66b13-b573-431e-b85e-288ce04a35a3.jpg\"]","trial_type":"similarity","trial_index":24,"time_elapsed":232975,"internal_node_id":"0.0-6.0-18.0"},{"sim_score":7,"rt":3578,"stimulus":"[\"img/0758/b76ceca7-95ac-46e4-ac13-da02c8e93be9.jpg\",\"img/0758/f61ecdf8-a7d4-4db0-b84d-be46f7cfaffc.jpg\"]","trial_type":"similarity","trial_index":25,"time_elapsed":237559,"internal_node_id":"0.0-6.0-19.0"},{"sim_score":1,"rt":2923,"stimulus":"[\"img/0902/22ed3536-288b-452e-9777-0fa0ab94deb0.jpg\",\"img/0874/29830da7-be5f-44e5-b141-652a0ccf7269.jpg\"]","trial_type":"similarity","trial_index":26,"time_elapsed":241488,"internal_node_id":"0.0-6.0-20.0"},{"sim_score":5,"rt":4730,"stimulus":"[\"img/0764/713cc27e-2338-4486-bfe9-5f5725fbd7a0.jpg\",\"img/0769/da36e3f7-2337-434f-ab57-11822dd7eed7.jpg\"]","trial_type":"similarity","trial_index":27,"time_elapsed":247223,"internal_node_id":"0.0-6.0-21.0"},{"sim_score":1,"rt":2626,"stimulus":"[\"img/0901/ae1e6ce4-2e10-4ca9-b1e7-21628637ab74.jpg\",\"img/0874/8cdb1c07-1c32-46d2-981c-3636560fa6e5.jpg\"]","trial_type":"similarity","trial_index":28,"time_elapsed":250855,"internal_node_id":"0.0-6.0-22.0"},{"sim_score":1,"rt":4625,"stimulus":"[\"img/0875/527ced51-8e53-4aab-ab05-86df219104c0.jpg\",\"img/0903/c3cb4a01-2797-43ca-b216-88c67b323fbb.jpg\"]","trial_type":"similarity","trial_index":29,"time_elapsed":256487,"internal_node_id":"0.0-6.0-23.0"},{"sim_score":1,"rt":3562,"stimulus":"[\"img/0769/387a9744-d6a7-42b8-bab8-33007ec434aa.jpg\",\"img/0881/54ea8e77-c7e5-4197-b7fa-00b7020849a7.jpg\"]","trial_type":"similarity","trial_index":30,"time_elapsed":261055,"internal_node_id":"0.0-6.0-24.0"},{"sim_score":1,"rt":2920,"stimulus":"[\"img/0867/26611f4e-d694-4460-b7e2-43c62753ddc3.jpg\",\"img/0904/5aec2708-cf14-4a58-aa30-9a8a61c1be0e.jpg\"]","trial_type":"similarity","trial_index":31,"time_elapsed":264983,"internal_node_id":"0.0-6.0-25.0"},{"sim_score":2,"rt":3802,"stimulus":"[\"img/0860/c5ccd1a4-4bb7-48e1-9b25-72cfaf06909b.jpg\",\"img/0881/405484ae-0d00-4b05-bc57-6420a36adfac.jpg\"]","trial_type":"similarity","trial_index":32,"time_elapsed":269792,"internal_node_id":"0.0-6.0-26.0"},{"sim_score":5,"rt":5097,"stimulus":"[\"img/0866/8efcaa46-83ab-4dee-a35f-850402aa21ae.jpg\",\"img/0866/620cd1aa-0800-4414-8f6e-90342e7a99ad.jpg\"]","trial_type":"similarity","trial_index":33,"time_elapsed":275896,"internal_node_id":"0.0-6.0-27.0"},{"sim_score":1,"rt":3004,"stimulus":"[\"img/0764/a3226bc4-dcc3-4608-bde8-1414d685ce5c.jpg\",\"img/0862/ba89835a-408c-480b-8594-ed4ffa97eb5c.jpg\"]","trial_type":"similarity","trial_index":34,"time_elapsed":279905,"internal_node_id":"0.0-6.0-28.0"},{"sim_score":1,"rt":3849,"stimulus":"[\"img/0904/9dd5708f-3f8b-46a9-b49f-2f2fab87b357.jpg\",\"img/0758/20497cbe-ddae-489e-86e2-ab06985ed07c.jpg\"]","trial_type":"similarity","trial_index":35,"time_elapsed":284760,"internal_node_id":"0.0-6.0-29.0"},{"sim_score":4,"rt":6929,"stimulus":"[\"img/0894/5ff3c4f6-52e2-4075-8679-be0312e59703.jpg\",\"img/0899/4f7bc593-8ddd-4da3-a0b9-84da730d3370.jpg\"]","trial_type":"similarity","trial_index":36,"time_elapsed":292696,"internal_node_id":"0.0-6.0-30.0"},{"sim_score":2,"rt":4562,"stimulus":"[\"img/0860/29a21a9f-54bb-4093-ad3f-04823ceaa89f.jpg\",\"img/0904/06dacdc5-2206-4fb8-92b7-88042d22833c.jpg\"]","trial_type":"similarity","trial_index":37,"time_elapsed":298264,"internal_node_id":"0.0-6.0-31.0"},{"sim_score":5,"rt":5754,"stimulus":"[\"img/0874/767f289c-9814-4496-803f-745cc8913d1f.jpg\",\"img/0881/4da99fdd-1f40-4bbb-8e21-8833eef313f5.jpg\"]","trial_type":"similarity","trial_index":38,"time_elapsed":305024,"internal_node_id":"0.0-6.0-32.0"},{"sim_score":1,"rt":3578,"stimulus":"[\"img/0881/62a64f90-7a72-4aee-a1a1-0c548ac9bdda.jpg\",\"img/0899/d60714ae-98d7-4564-8c98-94dba1351135.jpg\"]","trial_type":"similarity","trial_index":39,"time_elapsed":309609,"internal_node_id":"0.0-6.0-33.0"},{"sim_score":4,"rt":6152,"stimulus":"[\"img/0866/4a87911a-d5be-4d4e-ab8e-3d1f581bf507.jpg\",\"img/0862/5d887e9f-89e2-4ebc-80a0-6d46fe6480db.jpg\"]","trial_type":"similarity","trial_index":40,"time_elapsed":316768,"internal_node_id":"0.0-6.0-34.0"},{"sim_score":1,"rt":2874,"stimulus":"[\"img/0868/15dd6fd7-791e-4b53-b203-195d617521a4.jpg\",\"img/0894/43216a7f-27bc-4b5a-8841-d122a30da9d9.jpg\"]","trial_type":"similarity","trial_index":41,"time_elapsed":320649,"internal_node_id":"0.0-6.0-35.0"},{"sim_score":7,"rt":3706,"stimulus":"[\"img/0860/702bd09d-df3a-40aa-a267-5f04474305b5.jpg\",\"img/0860/8fdba999-b946-4c7d-9891-336018b563ef.jpg\"]","trial_type":"similarity","trial_index":42,"time_elapsed":325360,"internal_node_id":"0.0-6.0-36.0"},{"sim_score":5,"rt":3250,"stimulus":"[\"img/0862/47ed5efd-4ec9-4b74-bb4e-a5f5cf0c3e7d.jpg\",\"img/0864/8ddd2e30-a1d0-479f-9cbe-591213023893.jpg\"]","trial_type":"similarity","trial_index":43,"time_elapsed":329616,"internal_node_id":"0.0-6.0-37.0"},{"sim_score":1,"rt":3442,"stimulus":"[\"img/0766/ae0fce93-fe8d-4aa1-87ca-4c3e4b889f2f.jpg\",\"img/0866/be24ab58-230e-4db8-9f45-ff04c9aec6bb.jpg\"]","trial_type":"similarity","trial_index":44,"time_elapsed":334064,"internal_node_id":"0.0-6.0-38.0"},{"sim_score":1,"rt":3113,"stimulus":"[\"img/0875/99698b4d-b4a1-44bc-8c83-8ea755bbbf61.jpg\",\"img/0898/4184e5a2-84ea-4f36-9b42-ae58646f6f87.jpg\"]","trial_type":"similarity","trial_index":45,"time_elapsed":338184,"internal_node_id":"0.0-6.0-39.0"},{"sim_score":5,"rt":5162,"stimulus":"[\"img/0766/110832e5-2646-4bd0-a94e-5df8cc314269.jpg\",\"img/0769/c7cfacc3-7f07-46ff-9f5d-8073f4c4679b.jpg\"]","trial_type":"similarity","trial_index":46,"time_elapsed":344352,"internal_node_id":"0.0-6.0-40.0"},{"sim_score":1,"rt":3042,"stimulus":"[\"img/0874/99f6563c-8a8d-4c1c-a41d-667b618c3fd5.jpg\",\"img/0764/3297a811-ea8b-4d74-9547-59cecab7293a.jpg\"]","trial_type":"similarity","trial_index":47,"time_elapsed":367712,"internal_node_id":"0.0-6.0-41.0"},{"sim_score":1,"rt":5370,"stimulus":"[\"img/0868/4e626425-63c8-484a-8a1d-e66ee4e0bef8.jpg\",\"img/0902/d5e25767-e8ec-45f3-ac0a-7b4a6f7a9edc.jpg\"]","trial_type":"similarity","trial_index":48,"time_elapsed":374088,"internal_node_id":"0.0-6.0-42.0"},{"sim_score":1,"rt":3962,"stimulus":"[\"img/0875/a4935837-7d3c-4df6-88c1-36a94d4991ca.jpg\",\"img/0899/66bf4113-ee12-426c-84d2-ea410b6c803e.jpg\"]","trial_type":"similarity","trial_index":49,"time_elapsed":379056,"internal_node_id":"0.0-6.0-43.0"},{"sim_score":4,"rt":4538,"stimulus":"[\"img/0866/c446214b-a368-4c65-ae39-ea46894256ab.jpg\",\"img/0860/8277806e-b684-4474-8f7b-3fca946d7d4f.jpg\"]","trial_type":"similarity","trial_index":50,"time_elapsed":384600,"internal_node_id":"0.0-6.0-44.0"},{"sim_score":3,"rt":5052,"stimulus":"[\"img/0766/6d32752d-aa05-40dc-9541-640b6e9d6fa1.jpg\",\"img/0903/b548d383-2a95-4575-8c13-647873751ff1.jpg\"]","trial_type":"similarity","trial_index":51,"time_elapsed":390657,"internal_node_id":"0.0-6.0-45.0"},{"sim_score":6,"rt":7272,"stimulus":"[\"img/0901/875dedb9-24c9-4443-9f8c-85e97d70ee5a.jpg\",\"img/0904/b5855d6a-7ef9-46ca-9215-6e9fa046e543.jpg\"]","trial_type":"similarity","trial_index":52,"time_elapsed":398935,"internal_node_id":"0.0-6.0-46.0"},{"sim_score":2,"rt":4218,"stimulus":"[\"img/0758/61d64021-9214-4951-bdf8-f871f9827cf9.jpg\",\"img/0902/24d10fe7-314f-4d5a-8c7b-b43121bba0a4.jpg\"]","trial_type":"similarity","trial_index":53,"time_elapsed":404159,"internal_node_id":"0.0-6.0-47.0"},{"sim_score":7,"rt":5409,"stimulus":"[\"img/0764/974d52cc-6318-4e7a-b294-2f3e92ff800f.jpg\",\"img/0764/c643e165-df19-459f-8c2b-8357bf432a17.jpg\"]","trial_type":"similarity","trial_index":54,"time_elapsed":410575,"internal_node_id":"0.0-6.0-48.0"},{"sim_score":1,"rt":3548,"stimulus":"[\"img/0866/945c6710-d15b-4a5b-a8f6-69af0850357f.jpg\",\"img/0902/d49743d6-67ae-4c2e-a939-8fd895a0f18e.jpg\"]","trial_type":"similarity","trial_index":55,"time_elapsed":415127,"internal_node_id":"0.0-6.0-49.0"},{"sim_score":1,"rt":3074,"stimulus":"[\"img/0764/56441045-b648-4ede-9632-3e9c0227080b.jpg\",\"img/0758/caa93da2-9edf-49fa-96b9-32dedd8f5078.jpg\"]","trial_type":"similarity","trial_index":56,"time_elapsed":419207,"internal_node_id":"0.0-6.0-50.0"},{"sim_score":5,"rt":4467,"stimulus":"[\"img/0898/224c1572-56b9-4f16-a9e4-6f3bc9c114bd.jpg\",\"img/0894/e5edf723-72a5-4673-8441-6c1734a8929b.jpg\"]","trial_type":"similarity","trial_index":57,"time_elapsed":424679,"internal_node_id":"0.0-6.0-51.0"},{"sim_score":5,"rt":5419,"stimulus":"[\"img/0875/d59ff733-eaff-4ee2-9443-06954dd0bcb6.jpg\",\"img/0866/386235d2-6857-41e7-88a8-25cfc3430025.jpg\"]","trial_type":"similarity","trial_index":58,"time_elapsed":431103,"internal_node_id":"0.0-6.0-52.0"},{"sim_score":6,"rt":4482,"stimulus":"[\"img/0904/2f88ce53-02d0-4f95-a082-182c56a0eeb4.jpg\",\"img/0904/ba8e689e-9ca6-4608-a2a1-3b0940666ae6.jpg\"]","trial_type":"similarity","trial_index":59,"time_elapsed":436591,"internal_node_id":"0.0-6.0-53.0"},{"sim_score":7,"rt":3715,"stimulus":"[\"img/0769/8598a429-c671-4d2f-842c-32f681f5e412.jpg\",\"img/0769/688d0c52-ad73-4065-a5eb-f8c10d076bff.jpg\"]","trial_type":"similarity","trial_index":60,"time_elapsed":441312,"internal_node_id":"0.0-6.0-54.0"},{"sim_score":1,"rt":4040,"stimulus":"[\"img/0898/cd3aaa3f-efa9-4ab3-8d6f-a6a9273ddf42.jpg\",\"img/0758/7ffbc76b-1fc1-432c-8f7e-9ec8d1b3f643.jpg\"]","trial_type":"similarity","trial_index":61,"time_elapsed":446359,"internal_node_id":"0.0-6.0-55.0"},{"sim_score":5,"rt":5082,"stimulus":"[\"img/0769/38a88f69-28fd-4bbd-99f0-f4c02bfd3995.jpg\",\"img/0902/10d99c89-71f7-4c81-a31e-dfc7c59f5232.jpg\"]","trial_type":"similarity","trial_index":62,"time_elapsed":452447,"internal_node_id":"0.0-6.0-56.0"},{"sim_score":6,"rt":4787,"stimulus":"[\"img/0864/300bb811-8b3c-4c42-8653-6097c3725197.jpg\",\"img/0881/ed4c971f-0873-4fc8-b6d6-e8bbd82f0bcc.jpg\"]","trial_type":"similarity","trial_index":63,"time_elapsed":458241,"internal_node_id":"0.0-6.0-57.0"},{"sim_score":5,"rt":3248,"stimulus":"[\"img/0758/d41c06bf-ebaf-454b-91c6-1a17f917b659.jpg\",\"img/0868/d98ca254-b195-477f-b57e-5760a2717db8.jpg\"]","trial_type":"similarity","trial_index":64,"time_elapsed":462496,"internal_node_id":"0.0-6.0-58.0"},{"sim_score":1,"rt":3587,"stimulus":"[\"img/0862/d0ca4c78-fc35-46ed-bdcc-8e124283c53e.jpg\",\"img/0769/1d8734c4-77ab-4165-9e71-5cfe672ff01c.jpg\"]","trial_type":"similarity","trial_index":65,"time_elapsed":467088,"internal_node_id":"0.0-6.0-59.0"},{"sim_score":4,"rt":6826,"stimulus":"[\"img/0764/d7f3ac54-318a-4dac-a06b-62bed34d01a4.jpg\",\"img/0903/07b445ee-0cdb-4d2c-a23b-d727613f4059.jpg\"]","trial_type":"similarity","trial_index":66,"time_elapsed":474920,"internal_node_id":"0.0-6.0-60.0"},{"sim_score":7,"rt":3475,"stimulus":"[\"img/0899/fef567a2-c121-4481-9af0-ff108d199bbf.jpg\",\"img/0899/f95cbdb4-f804-4f5d-ad76-373ad343e658.jpg\"]","trial_type":"similarity","trial_index":67,"time_elapsed":479400,"internal_node_id":"0.0-6.0-61.0"},{"sim_score":5,"rt":4140,"stimulus":"[\"img/0860/524b2e98-5767-4d53-942c-ebae6925659b.jpg\",\"img/0875/5a1e5100-0d94-4fec-bbe9-ca9894d2cf8e.jpg\"]","trial_type":"similarity","trial_index":68,"time_elapsed":484544,"internal_node_id":"0.0-6.0-62.0"},{"sim_score":4,"rt":3907,"stimulus":"[\"img/0868/1a62b2b2-18f5-466e-b564-5176a57c565e.jpg\",\"img/0874/1016b306-087c-4afc-aa08-fa527b28dc76.jpg\"]","trial_type":"similarity","trial_index":69,"time_elapsed":489456,"internal_node_id":"0.0-6.0-63.0"},{"sim_score":4,"rt":5154,"stimulus":"[\"img/0758/e38fd80d-18d0-42f3-b848-f930788e8bd7.jpg\",\"img/0862/fad1d7c1-8187-43c3-942a-0fc12183e48e.jpg\"]","trial_type":"similarity","trial_index":70,"time_elapsed":495616,"internal_node_id":"0.0-6.0-64.0"},{"sim_score":5,"rt":5537,"stimulus":"[\"img/0904/b7c2a2c8-df33-4473-b3d4-ff7147c60db3.jpg\",\"img/0898/e167334e-cc1d-4986-b3b1-c7bc7da64baa.jpg\"]","trial_type":"similarity","trial_index":71,"time_elapsed":502159,"internal_node_id":"0.0-6.0-65.0"},{"sim_score":5,"rt":4483,"stimulus":"[\"img/0881/1407b85b-a1c6-45b1-9884-3b24203efadb.jpg\",\"img/0866/23a224f3-2012-4fc8-8e0f-3c36f8de27fd.jpg\"]","trial_type":"similarity","trial_index":72,"time_elapsed":507647,"internal_node_id":"0.0-6.0-66.0"},{"sim_score":1,"rt":4355,"stimulus":"[\"img/0867/179ab87a-8eac-4c52-a41f-2e48e3120f09.jpg\",\"img/0898/81b08535-2020-4c15-9ce4-2f1e460755ae.jpg\"]","trial_type":"similarity","trial_index":73,"time_elapsed":513007,"internal_node_id":"0.0-6.0-67.0"},{"sim_score":5,"rt":6538,"stimulus":"[\"img/0902/5b45a7a0-81c8-4a71-aaa2-2ce09adb5a29.jpg\",\"img/0764/23ea9375-f801-4a96-9925-7d453da887c7.jpg\"]","trial_type":"similarity","trial_index":74,"time_elapsed":520551,"internal_node_id":"0.0-6.0-68.0"},{"sim_score":5,"rt":3596,"stimulus":"[\"img/0875/f87b67d7-c33e-40d1-b281-248c4be1cb6e.jpg\",\"img/0867/f26f6b60-f772-4f4c-95a4-addc62cfd692.jpg\"]","trial_type":"similarity","trial_index":75,"time_elapsed":525150,"internal_node_id":"0.0-6.0-69.0"},{"sim_score":6,"rt":4026,"stimulus":"[\"img/0766/908bc45b-7c9e-4f95-806e-86b196ebcb2c.jpg\",\"img/0764/c84fbfa8-521c-407a-9bd3-24f7308d896c.jpg\"]","trial_type":"similarity","trial_index":76,"time_elapsed":530182,"internal_node_id":"0.0-6.0-70.0"},{"sim_score":1,"rt":3354,"stimulus":"[\"img/0894/7dd6ff43-f8fc-408a-8a41-a2b261871820.jpg\",\"img/0867/a749dddb-69f0-44a6-acdc-2bf295cf6dcc.jpg\"]","trial_type":"similarity","trial_index":77,"time_elapsed":534542,"internal_node_id":"0.0-6.0-71.0"},{"sim_score":1,"rt":2930,"stimulus":"[\"img/0875/ebf7653f-ff45-4e9f-af58-2c042ab3cd2b.jpg\",\"img/0764/b8e23f4f-ff19-4472-ad9b-2f85548ebca0.jpg\"]","trial_type":"similarity","trial_index":78,"time_elapsed":538478,"internal_node_id":"0.0-6.0-72.0"},{"sim_score":7,"rt":5228,"stimulus":"[\"img/0867/f8159067-056c-41f1-a136-c529fe5e970a.jpg\",\"img/0866/a15b02be-11bb-43e3-b0e0-ecc3bd7dfc49.jpg\"]","trial_type":"similarity","trial_index":79,"time_elapsed":544711,"internal_node_id":"0.0-6.0-73.0"},{"sim_score":1,"rt":3050,"stimulus":"[\"img/0903/b0a3c45f-467e-412f-a183-c9c1827f2e63.jpg\",\"img/0758/dd559618-7f09-4a07-8018-d311c4a5ea29.jpg\"]","trial_type":"similarity","trial_index":80,"time_elapsed":548766,"internal_node_id":"0.0-6.0-74.0"},{"sim_score":1,"rt":3746,"stimulus":"[\"img/0766/a754e4b6-5019-4cf4-8f58-34c20547a1f5.jpg\",\"img/0868/293079b8-7e0c-4afd-a390-1e5d35fe3ded.jpg\"]","trial_type":"similarity","trial_index":81,"time_elapsed":553518,"internal_node_id":"0.0-6.0-75.0"},{"sim_score":1,"rt":2498,"stimulus":"[\"img/0874/7e4f2150-3b59-4a36-b5da-a4e0ba410531.jpg\",\"img/0766/db750ba0-ce04-46e1-b601-e1b80212bad2.jpg\"]","trial_type":"similarity","trial_index":82,"time_elapsed":557022,"internal_node_id":"0.0-6.0-76.0"},{"sim_score":4,"rt":4378,"stimulus":"[\"img/0881/e6746727-7f89-47ec-b939-d98abe78372d.jpg\",\"img/0868/7b212364-ff5f-4e28-9241-7eb6ea00161b.jpg\"]","trial_type":"similarity","trial_index":83,"time_elapsed":562406,"internal_node_id":"0.0-6.0-77.0"},{"sim_score":1,"rt":2786,"stimulus":"[\"img/0758/d540bee6-b460-4c32-ac57-bc282742d7d4.jpg\",\"img/0901/0adb3bd6-d758-4ba7-9723-3ad6cac05bd5.jpg\"]","trial_type":"similarity","trial_index":84,"time_elapsed":566198,"internal_node_id":"0.0-6.0-78.0"},{"sim_score":1,"rt":3426,"stimulus":"[\"img/0881/f8bd891e-aa09-4782-89db-33e7cb2b0cf1.jpg\",\"img/0898/5f699581-3853-4547-856c-12f419ba5af7.jpg\"]","trial_type":"similarity","trial_index":85,"time_elapsed":570630,"internal_node_id":"0.0-6.0-79.0"},{"sim_score":5,"rt":4114,"stimulus":"[\"img/0867/de92135f-5b65-4ed9-b245-188292c7c2f8.jpg\",\"img/0758/3ddd05d3-557e-4ee7-8b78-9d2d681d8ae2.jpg\"]","trial_type":"similarity","trial_index":86,"time_elapsed":575750,"internal_node_id":"0.0-6.0-80.0"},{"sim_score":5,"rt":5322,"stimulus":"[\"img/0769/96556ef3-7fac-4c9d-8281-1cb0ea5081bc.jpg\",\"img/0899/565ccdd9-0933-4536-a625-3c0e25a713dd.jpg\"]","trial_type":"similarity","trial_index":87,"time_elapsed":582078,"internal_node_id":"0.0-6.0-81.0"},{"sim_score":7,"rt":4114,"stimulus":"[\"img/0903/8f7f9939-b8e6-433f-93dd-b362496c80a7.jpg\",\"img/0903/005ad0de-4f52-433c-b515-dbe8d46184a3.jpg\"]","trial_type":"similarity","trial_index":88,"time_elapsed":587198,"internal_node_id":"0.0-6.0-82.0"},{"sim_score":1,"rt":3097,"stimulus":"[\"img/0867/db7e032f-162b-46f5-ae67-2b29679adee4.jpg\",\"img/0766/33519c22-aaa4-49d7-8d49-ab551db1945e.jpg\"]","trial_type":"similarity","trial_index":89,"time_elapsed":607734,"internal_node_id":"0.0-6.0-83.0"},{"sim_score":1,"rt":3124,"stimulus":"[\"img/0902/168ebd47-9e82-4ab7-a18b-c3da85072db8.jpg\",\"img/0867/12264664-1860-46df-8c21-162b9817cdda.jpg\"]","trial_type":"similarity","trial_index":90,"time_elapsed":611862,"internal_node_id":"0.0-6.0-84.0"},{"sim_score":1,"rt":5178,"stimulus":"[\"img/0901/693e0535-ef7e-4d60-af9d-fac2f38e8307.jpg\",\"img/0875/5a7c4e35-6514-4e12-8879-d16071da4cd6.jpg\"]","trial_type":"similarity","trial_index":91,"time_elapsed":618047,"internal_node_id":"0.0-6.0-85.0"},{"sim_score":1,"rt":3210,"stimulus":"[\"img/0764/6c7fe363-2d37-418f-9e5e-a3273af5d4fb.jpg\",\"img/0866/07c9c966-3c8d-40e7-8128-92b2acbaed5d.jpg\"]","trial_type":"similarity","trial_index":92,"time_elapsed":622263,"internal_node_id":"0.0-6.0-86.0"},{"sim_score":5,"rt":5056,"stimulus":"[\"img/0901/62315ff5-ed95-46b4-b099-92552079659b.jpg\",\"img/0894/1a010553-d598-4b06-a772-81f1e7b3addb.jpg\"]","trial_type":"similarity","trial_index":93,"time_elapsed":628326,"internal_node_id":"0.0-6.0-87.0"},{"sim_score":5,"rt":3786,"stimulus":"[\"img/0898/01bfe666-3510-4fc7-964f-d00d28732dc8.jpg\",\"img/0769/8c7cf147-1780-4d5c-8ddf-5ea23ff03ac9.jpg\"]","trial_type":"similarity","trial_index":94,"time_elapsed":633119,"internal_node_id":"0.0-6.0-88.0"},{"sim_score":6,"rt":4218,"stimulus":"[\"img/0769/a3cfbdeb-acb3-4eac-87fb-4b117f42d4f8.jpg\",\"img/0894/05161000-f476-499b-a878-c13c7f347fd9.jpg\"]","trial_type":"similarity","trial_index":95,"time_elapsed":638342,"internal_node_id":"0.0-6.0-89.0"},{"sim_score":5,"rt":4170,"stimulus":"[\"img/0862/f188d4f0-76a4-4102-818c-a209969d73a5.jpg\",\"img/0874/995f0332-0439-4eb4-add3-957335dbf6d9.jpg\"]","trial_type":"similarity","trial_index":96,"time_elapsed":643518,"internal_node_id":"0.0-6.0-90.0"},{"sim_score":5,"rt":4882,"stimulus":"[\"img/0894/4739e06d-c31e-4bf1-bf91-c97fa9afb456.jpg\",\"img/0766/214866ee-423d-4629-9bb9-41572bdc7dac.jpg\"]","trial_type":"similarity","trial_index":97,"time_elapsed":649406,"internal_node_id":"0.0-6.0-91.0"},{"sim_score":5,"rt":3488,"stimulus":"[\"img/0874/bf14b896-e930-4fd9-9c05-2e83317a2773.jpg\",\"img/0867/8ba0c5a7-c7e4-42cf-a80a-543763b90779.jpg\"]","trial_type":"similarity","trial_index":98,"time_elapsed":653902,"internal_node_id":"0.0-6.0-92.0"},{"sim_score":1,"rt":3250,"stimulus":"[\"img/0899/66ab3178-c3fe-4455-ad17-d5952b08e018.jpg\",\"img/0868/5fa7f9d0-f0e5-454c-8224-74d964818f56.jpg\"]","trial_type":"similarity","trial_index":99,"time_elapsed":658158,"internal_node_id":"0.0-6.0-93.0"},{"sim_score":1,"rt":3386,"stimulus":"[\"img/0903/b0df4094-a3be-4b5b-81bd-8d260f13f61b.jpg\",\"img/0862/f43ceabf-acc1-4107-b857-5d1849808f93.jpg\"]","trial_type":"similarity","trial_index":100,"time_elapsed":662550,"internal_node_id":"0.0-6.0-94.0"},{"sim_score":5,"rt":3683,"stimulus":"[\"img/0899/00715b3f-851b-420b-a26b-d7f79f7759a9.jpg\",\"img/0766/00891401-e4c9-4ce1-bc19-f70740d174bc.jpg\"]","trial_type":"similarity","trial_index":101,"time_elapsed":667238,"internal_node_id":"0.0-6.0-95.0"},{"sim_score":6,"rt":4258,"stimulus":"[\"img/0867/50a1b60e-3a29-44bf-b606-d4bd3746fea9.jpg\",\"img/0868/d6d1f30d-4323-435a-b194-7892521bc57e.jpg\"]","trial_type":"similarity","trial_index":102,"time_elapsed":672502,"internal_node_id":"0.0-6.0-96.0"},{"sim_score":1,"rt":3698,"stimulus":"[\"img/0862/1c20f772-3a51-4a80-aac0-f57dc9f86c28.jpg\",\"img/0901/548d1110-7cb8-42a2-9927-9798875c8b5c.jpg\"]","trial_type":"similarity","trial_index":103,"time_elapsed":677206,"internal_node_id":"0.0-6.0-97.0"},{"sim_score":1,"rt":3122,"stimulus":"[\"img/0875/42910c99-5463-450a-a0f8-d4d060a11455.jpg\",\"img/0766/d919cedb-f9b7-4f30-83bb-3e9c65001ceb.jpg\"]","trial_type":"similarity","trial_index":104,"time_elapsed":681334,"internal_node_id":"0.0-6.0-98.0"},{"sim_score":6,"rt":5002,"stimulus":"[\"img/0758/821c68d3-5cb0-4eae-8659-30e6263fca39.jpg\",\"img/0874/a3bc679d-619f-4db6-bb68-116dcb757d9c.jpg\"]","trial_type":"similarity","trial_index":105,"time_elapsed":687342,"internal_node_id":"0.0-6.0-99.0"},{"sim_score":1,"rt":3122,"stimulus":"[\"img/0904/6291eb43-c10c-4810-a36a-101d09868b04.jpg\",\"img/0868/8b0b8473-e2c0-4331-aa56-c3a5c29369da.jpg\"]","trial_type":"similarity","trial_index":106,"time_elapsed":691470,"internal_node_id":"0.0-6.0-100.0"},{"sim_score":1,"rt":3290,"stimulus":"[\"img/0903/bf0a7d60-eca5-44b0-bafd-baf21db9904b.jpg\",\"img/0866/f756f7d1-9ad8-4a34-9ef6-7a443d705bfe.jpg\"]","trial_type":"similarity","trial_index":107,"time_elapsed":695766,"internal_node_id":"0.0-6.0-101.0"},{"sim_score":1,"rt":3554,"stimulus":"[\"img/0868/4bd5105a-d2c3-4f82-8c80-57196106ba53.jpg\",\"img/0769/e31b3bd8-efcb-413e-aa8c-75fac2b8f2ac.jpg\"]","trial_type":"similarity","trial_index":108,"time_elapsed":700326,"internal_node_id":"0.0-6.0-102.0"},{"sim_score":5,"rt":2811,"stimulus":"[\"img/0902/a6fb6dd5-696c-47ec-be7d-d7b88f1544f1.jpg\",\"img/0899/0433d056-aa30-4f8a-9aa1-abbb951e4edd.jpg\"]","trial_type":"similarity","trial_index":109,"time_elapsed":704143,"internal_node_id":"0.0-6.0-103.0"},{"sim_score":4,"rt":3042,"stimulus":"[\"img/0868/179a5502-ab5c-478e-8263-5a1fbcc101d2.jpg\",\"img/0862/a0a3a7ba-7798-46a3-b4ca-05e1f6e581d0.jpg\"]","trial_type":"similarity","trial_index":110,"time_elapsed":708191,"internal_node_id":"0.0-6.0-104.0"},{"sim_score":5,"rt":3626,"stimulus":"[\"img/0903/43ffd882-077a-40dd-a264-e58d519420a1.jpg\",\"img/0894/a3d4170b-b7d8-40e3-955f-87e76ed745fc.jpg\"]","trial_type":"similarity","trial_index":111,"time_elapsed":712823,"internal_node_id":"0.0-6.0-105.0"},{"sim_score":5,"rt":5403,"stimulus":"[\"img/0864/f92649a2-0590-4d31-9a7a-1bfb81666a2d.jpg\",\"img/0874/31e22c7c-99aa-40b1-bf03-dd73fa2df4d6.jpg\"]","trial_type":"similarity","trial_index":112,"time_elapsed":719231,"internal_node_id":"0.0-6.0-106.0"},{"sim_score":1,"rt":3162,"stimulus":"[\"img/0862/24cdc752-c2e5-4a17-86a6-6f2045d8553b.jpg\",\"img/0902/cf9dee9c-2bdf-4d64-9302-97f1660fe52c.jpg\"]","trial_type":"similarity","trial_index":113,"time_elapsed":723399,"internal_node_id":"0.0-6.0-107.0"},{"sim_score":6,"rt":4003,"stimulus":"[\"img/0904/65e2b70a-b184-4da3-b5c0-5038bdf9469a.jpg\",\"img/0903/0fb24af7-9a26-4e9d-aadc-959a36f683e2.jpg\"]","trial_type":"similarity","trial_index":114,"time_elapsed":728407,"internal_node_id":"0.0-6.0-108.0"},{"sim_score":1,"rt":2866,"stimulus":"[\"img/0764/06ea144f-f4f3-4a14-ba47-f20f35c561e0.jpg\",\"img/0864/c3b63e8f-ea39-4d70-a1f2-b3fe4be8eb75.jpg\"]","trial_type":"similarity","trial_index":115,"time_elapsed":732279,"internal_node_id":"0.0-6.0-109.0"},{"sim_score":1,"rt":3241,"stimulus":"[\"img/0866/02f5e6b9-52b7-448c-9708-5b460d0c9a23.jpg\",\"img/0894/38f5931f-926d-414e-b498-66b188978b7a.jpg\"]","trial_type":"similarity","trial_index":116,"time_elapsed":736527,"internal_node_id":"0.0-6.0-110.0"},{"sim_score":5,"rt":2803,"stimulus":"[\"img/0899/25ae6ec8-9565-49fe-a8bb-8d0666f52716.jpg\",\"img/0903/6378ee1e-3d2b-48d2-87be-bebda32c8268.jpg\"]","trial_type":"similarity","trial_index":117,"time_elapsed":740335,"internal_node_id":"0.0-6.0-111.0"},{"sim_score":6,"rt":4307,"stimulus":"[\"img/0902/af45fe42-178c-4c1a-99ef-256e87e3b092.jpg\",\"img/0904/25365108-e038-4021-aac9-797f2063b337.jpg\"]","trial_type":"similarity","trial_index":118,"time_elapsed":745647,"internal_node_id":"0.0-6.0-112.0"},{"sim_score":5,"rt":3217,"stimulus":"[\"img/0864/6e846d43-94a6-4b37-a268-65eda979f052.jpg\",\"img/0860/c7047cd2-7cc1-41b6-8a34-c0986774975f.jpg\"]","trial_type":"similarity","trial_index":119,"time_elapsed":749871,"internal_node_id":"0.0-6.0-113.0"},{"sim_score":1,"rt":2361,"stimulus":"[\"img/0860/c3379ff7-0763-48fe-a1ec-7ea3d611bc7a.jpg\",\"img/0899/76ad07e2-ca25-45eb-84f2-8d80b8ca3e26.jpg\"]","trial_type":"similarity","trial_index":120,"time_elapsed":753239,"internal_node_id":"0.0-6.0-114.0"},{"sim_score":2,"rt":3602,"stimulus":"[\"img/0881/dea58fad-b4f1-41d9-bd3f-916eff19a3fd.jpg\",\"img/0903/72197c2b-403e-4a26-b391-f1aa8dea4b76.jpg\"]","trial_type":"similarity","trial_index":121,"time_elapsed":757847,"internal_node_id":"0.0-6.0-115.0"},{"sim_score":1,"rt":3648,"stimulus":"[\"img/0894/0130a973-d993-41f8-874a-fee23d9ac11f.jpg\",\"img/0874/ca76a855-4e77-4f2f-872a-0a718153e7ed.jpg\"]","trial_type":"similarity","trial_index":122,"time_elapsed":762503,"internal_node_id":"0.0-6.0-116.0"},{"sim_score":5,"rt":3330,"stimulus":"[\"img/0881/48ed65a5-471f-41af-86ec-3793805c116d.jpg\",\"img/0862/4f0a3b4c-afbf-486e-b248-1d54982f54b4.jpg\"]","trial_type":"similarity","trial_index":123,"time_elapsed":766838,"internal_node_id":"0.0-6.0-117.0"},{"sim_score":5,"rt":3020,"stimulus":"[\"img/0868/0d3abd3a-b6c3-4584-a9f7-e2da63748b3d.jpg\",\"img/0875/2e13d160-eea1-416b-aff1-d37ab99ecc1d.jpg\"]","trial_type":"similarity","trial_index":124,"time_elapsed":770862,"internal_node_id":"0.0-6.0-118.0"},{"sim_score":5,"rt":3092,"stimulus":"[\"img/0860/8a92e21b-6a32-4e4a-a445-2d5a487ed0a4.jpg\",\"img/0758/53f35650-e455-4b53-8be4-c3c8271c6466.jpg\"]","trial_type":"similarity","trial_index":125,"time_elapsed":774958,"internal_node_id":"0.0-6.0-119.0"},{"sim_score":5,"rt":3067,"stimulus":"[\"img/0864/e336a4c5-6648-4fd7-b2f6-93a3fb83f8c6.jpg\",\"img/0875/34132396-d896-4c2d-8087-646dd867e769.jpg\"]","trial_type":"similarity","trial_index":126,"time_elapsed":779030,"internal_node_id":"0.0-6.0-120.0"},{"sim_score":1,"rt":3602,"stimulus":"[\"img/0898/993d8f2d-bef7-4251-a193-0f93a32b7763.jpg\",\"img/0866/d493a2c8-66eb-44b4-be02-2f327b700b7c.jpg\"]","trial_type":"similarity","trial_index":127,"time_elapsed":783638,"internal_node_id":"0.0-6.0-121.0"},{"sim_score":1,"rt":2850,"stimulus":"[\"img/0874/93d1f8dc-acf2-4f03-bd8d-8ec35df276ed.jpg\",\"img/0904/9b3568cc-3cf7-42be-9df3-fdafde7a58b8.jpg\"]","trial_type":"similarity","trial_index":128,"time_elapsed":787494,"internal_node_id":"0.0-6.0-122.0"},{"sim_score":1,"rt":3066,"stimulus":"[\"img/0904/fe746a3f-8458-48d0-8a13-8cba2a9df9f8.jpg\",\"img/0864/e02eddb5-f468-499c-91bf-f7be3ffe979b.jpg\"]","trial_type":"similarity","trial_index":129,"time_elapsed":791566,"internal_node_id":"0.0-6.0-123.0"},{"sim_score":5,"rt":3003,"stimulus":"[\"img/0894/1b3888e6-cf36-4c4a-a039-187aa5cb71ac.jpg\",\"img/0902/62f11694-7ed7-4cb7-8a73-9e95c43824e7.jpg\"]","trial_type":"similarity","trial_index":130,"time_elapsed":795574,"internal_node_id":"0.0-6.0-124.0"},{"sim_score":4,"rt":3363,"stimulus":"[\"img/0868/c8ac40c7-6904-4e13-8d61-c75d3052dc4e.jpg\",\"img/0864/e8bd659f-aa43-4748-877e-3118e8b4e189.jpg\"]","trial_type":"similarity","trial_index":131,"time_elapsed":920069,"internal_node_id":"0.0-6.0-125.0"},{"sim_score":1,"rt":3552,"stimulus":"[\"img/0899/8de08897-b430-42fe-9d42-840670b80f94.jpg\",\"img/0866/d266fece-59b3-46fa-b69f-96f6efb81b59.jpg\"]","trial_type":"similarity","trial_index":132,"time_elapsed":924630,"internal_node_id":"0.0-6.0-126.0"},{"sim_score":2,"rt":4378,"stimulus":"[\"img/0875/dbdd643e-6d0e-4a5c-ab57-b9c29b9c981a.jpg\",\"img/0904/2c98dc56-88d1-4fb5-a999-b6a7861f65f0.jpg\"]","trial_type":"similarity","trial_index":133,"time_elapsed":930013,"internal_node_id":"0.0-6.0-127.0"},{"sim_score":1,"rt":5130,"stimulus":"[\"img/0867/c71dc569-f49c-4397-8381-68b8d726736d.jpg\",\"img/0899/4408c14d-c168-4a7d-96f6-bc87bfb58f83.jpg\"]","trial_type":"similarity","trial_index":134,"time_elapsed":936149,"internal_node_id":"0.0-6.0-128.0"},{"sim_score":1,"rt":4042,"stimulus":"[\"img/0901/12da1841-e611-435c-9719-109413d536a8.jpg\",\"img/0867/ac1797e4-8afc-48fe-b252-86d1defb1cca.jpg\"]","trial_type":"similarity","trial_index":135,"time_elapsed":941199,"internal_node_id":"0.0-6.0-129.0"},{"sim_score":1,"rt":3048,"stimulus":"[\"img/0864/4bd81bc6-c13d-46df-95a9-485886dc7c1b.jpg\",\"img/0769/14d393ce-e5be-4ca1-86ce-cc27d4b6074c.jpg\"]","trial_type":"similarity","trial_index":136,"time_elapsed":945253,"internal_node_id":"0.0-6.0-130.0"},{"sim_score":1,"rt":3202,"stimulus":"[\"img/0903/59defeb8-98bd-4570-a2f8-9bd189e68ef4.jpg\",\"img/0868/3a62db2d-97e9-44a3-b8e3-a48c6f0e423b.jpg\"]","trial_type":"similarity","trial_index":137,"time_elapsed":949461,"internal_node_id":"0.0-6.0-131.0"},{"sim_score":4,"rt":5032,"stimulus":"[\"img/0864/1d15626a-2f7c-410f-819c-0fa2c967e95e.jpg\",\"img/0867/075e0f95-856b-4cbb-acf5-092393aaf04e.jpg\"]","trial_type":"similarity","trial_index":138,"time_elapsed":955501,"internal_node_id":"0.0-6.0-132.0"},{"sim_score":2,"rt":3579,"stimulus":"[\"img/0901/d61f267a-c492-4db6-9bfb-61efd49cf072.jpg\",\"img/0860/b03b963d-949b-4d8d-b19c-4950c89eeca2.jpg\"]","trial_type":"similarity","trial_index":139,"time_elapsed":960085,"internal_node_id":"0.0-6.0-133.0"},{"sim_score":4,"rt":8345,"stimulus":"[\"img/0881/c24f3051-eefa-42de-aba6-fccb56d93c70.jpg\",\"img/0766/f5f78e4e-d88f-4866-951a-118ba9fec4d0.jpg\"]","trial_type":"similarity","trial_index":140,"time_elapsed":969437,"internal_node_id":"0.0-6.0-134.0"},{"sim_score":3,"rt":7475,"stimulus":"[\"img/0903/97a42b34-5462-4665-88c7-83c014b33d24.jpg\",\"img/0864/0f537697-a314-47c3-a8cc-8df23b7e536c.jpg\"]","trial_type":"similarity","trial_index":141,"time_elapsed":977917,"internal_node_id":"0.0-6.0-135.0"},{"sim_score":1,"rt":5115,"stimulus":"[\"img/0758/a709631e-3705-4725-ac40-f0d916924f08.jpg\",\"img/0894/b422d5c6-3c5a-49ae-a53e-7e88ac993f49.jpg\"]","trial_type":"similarity","trial_index":142,"time_elapsed":984037,"internal_node_id":"0.0-6.0-136.0"},{"sim_score":1,"rt":4859,"stimulus":"[\"img/0769/ebef2ddc-ba59-4e0e-97f8-927864eb5081.jpg\",\"img/0860/5bff793e-cbd5-4d7e-b628-0ac2b0e30b64.jpg\"]","trial_type":"similarity","trial_index":143,"time_elapsed":989901,"internal_node_id":"0.0-6.0-137.0"},{"sim_score":5,"rt":6098,"stimulus":"[\"img/0904/9d30eff1-46ef-4453-b11e-124ef8145c00.jpg\",\"img/0766/75c3d627-4f3b-40d5-9d9c-10c8a62db644.jpg\"]","trial_type":"similarity","trial_index":144,"time_elapsed":997005,"internal_node_id":"0.0-6.0-138.0"},{"sim_score":5,"rt":7850,"stimulus":"[\"img/0868/fd307a36-9a3a-47d7-ab7c-f810d0b35040.jpg\",\"img/0860/61fb959d-d4d9-4de4-9e4e-4fa62b4cfcd5.jpg\"]","trial_type":"similarity","trial_index":145,"time_elapsed":1005861,"internal_node_id":"0.0-6.0-139.0"},{"sim_score":5,"rt":3706,"stimulus":"[\"img/0758/6e95579b-5166-487c-b8cb-e417c6a218e3.jpg\",\"img/0864/ef9cbca0-4be8-435d-ad49-977259e80409.jpg\"]","trial_type":"similarity","trial_index":146,"time_elapsed":1010573,"internal_node_id":"0.0-6.0-140.0"},{"sim_score":7,"rt":3762,"stimulus":"[\"img/0867/f8488a47-94ee-4166-952c-44e16cf172f6.jpg\",\"img/0867/aa05d113-fc19-4756-a8eb-7878f580bc92.jpg\"]","trial_type":"similarity","trial_index":147,"time_elapsed":1015341,"internal_node_id":"0.0-6.0-141.0"},{"sim_score":6,"rt":4954,"stimulus":"[\"img/0898/6cd3830b-d44e-4915-be2b-88d31424b91c.jpg\",\"img/0898/08c72dac-f8ad-407a-9ce6-8c9a5d679c3a.jpg\"]","trial_type":"similarity","trial_index":148,"time_elapsed":1021301,"internal_node_id":"0.0-6.0-142.0"},{"sim_score":2,"rt":6179,"stimulus":"[\"img/0866/a04d37f0-99dd-478a-b6c6-58b215138f84.jpg\",\"img/0769/662ab839-88d1-4ebf-af05-9b2980cad943.jpg\"]","trial_type":"similarity","trial_index":149,"time_elapsed":1028485,"internal_node_id":"0.0-6.0-143.0"},{"sim_score":2,"rt":3763,"stimulus":"[\"img/0860/d9a0d117-6d1d-41c0-8fec-9aff0fd9e9f2.jpg\",\"img/0898/68476bbb-34a1-42d9-8bc1-deab783d4489.jpg\"]","trial_type":"similarity","trial_index":150,"time_elapsed":1033253,"internal_node_id":"0.0-6.0-144.0"},{"sim_score":1,"rt":3323,"stimulus":"[\"img/0766/d512b99c-a2dc-40d7-8e86-827323a0cbcf.jpg\",\"img/0864/efcfbb1b-8197-44c9-b723-40d6c608dd3c.jpg\"]","trial_type":"similarity","trial_index":151,"time_elapsed":1037581,"internal_node_id":"0.0-6.0-145.0"},{"sim_score":2,"rt":3394,"stimulus":"[\"img/0860/4f695df5-afac-4da7-9875-fee39b0b24ad.jpg\",\"img/0903/f67c4ab9-f8c2-4fcd-848a-a54a7b031002.jpg\"]","trial_type":"similarity","trial_index":152,"time_elapsed":1041981,"internal_node_id":"0.0-6.0-146.0"},{"sim_score":1,"rt":2778,"stimulus":"[\"img/0867/85a96c62-548f-4994-9553-819e03c3135a.jpg\",\"img/0764/29072395-f595-4e3c-83d3-ff87010039fa.jpg\"]","trial_type":"similarity","trial_index":153,"time_elapsed":1045765,"internal_node_id":"0.0-6.0-147.0"},{"sim_score":5,"rt":4088,"stimulus":"[\"img/0769/f229321f-04dd-42d7-b14a-ffad6b509862.jpg\",\"img/0904/63dd06dd-dccb-47ba-9740-eb33239e18a7.jpg\"]","trial_type":"similarity","trial_index":154,"time_elapsed":1050861,"internal_node_id":"0.0-6.0-148.0"},{"sim_score":5,"rt":5056,"stimulus":"[\"img/0764/e0788029-9d7f-414c-b747-46d2a99f7c86.jpg\",\"img/0901/bc47e078-bda4-40ed-b89a-bbd819164b95.jpg\"]","trial_type":"similarity","trial_index":155,"time_elapsed":1056925,"internal_node_id":"0.0-6.0-149.0"},{"sim_score":5,"rt":3554,"stimulus":"[\"img/0904/24fc38fe-842c-4831-ad8a-b1de5c25c0a8.jpg\",\"img/0899/57476fed-5962-4272-8fc9-b317bb777b54.jpg\"]","trial_type":"similarity","trial_index":156,"time_elapsed":1061485,"internal_node_id":"0.0-6.0-150.0"},{"sim_score":5,"rt":3522,"stimulus":"[\"img/0862/ee3b7bff-4a70-4e84-9bea-4a565e456acb.jpg\",\"img/0867/98d8cd96-1476-4fe0-a3a3-04f875500a1b.jpg\"]","trial_type":"similarity","trial_index":157,"time_elapsed":1066013,"internal_node_id":"0.0-6.0-151.0"},{"sim_score":7,"rt":3083,"stimulus":"[\"img/0766/33aa9ebb-c9f5-418f-8c8b-c77861889568.jpg\",\"img/0766/ba35c0fc-4d5b-490d-959e-c94b279cdd02.jpg\"]","trial_type":"similarity","trial_index":158,"time_elapsed":1070102,"internal_node_id":"0.0-6.0-152.0"},{"sim_score":1,"rt":3154,"stimulus":"[\"img/0862/7918ca67-5bd3-4606-a5ea-c39fb11a9297.jpg\",\"img/0894/5c7677b0-a4f1-479e-b274-7822c415175a.jpg\"]","trial_type":"similarity","trial_index":159,"time_elapsed":1074262,"internal_node_id":"0.0-6.0-153.0"},{"sim_score":5,"rt":3915,"stimulus":"[\"img/0899/56a605c3-d0a2-4215-89e1-779279d85a7c.jpg\",\"img/0901/a373612d-67e2-4fec-9764-21d3d6ef6359.jpg\"]","trial_type":"similarity","trial_index":160,"time_elapsed":1079182,"internal_node_id":"0.0-6.0-154.0"},{"sim_score":6,"rt":4483,"stimulus":"[\"img/0874/3f471690-9788-4d03-90c7-f615aecef149.jpg\",\"img/0874/ca23d307-fc00-4d7d-9106-584c6eb21b4d.jpg\"]","trial_type":"similarity","trial_index":161,"time_elapsed":1084670,"internal_node_id":"0.0-6.0-155.0"},{"sim_score":5,"rt":2938,"stimulus":"[\"img/0860/18dfed73-e36b-4487-a8bd-0b8cff8e3668.jpg\",\"img/0867/c66898ba-b71b-4d50-84f9-f7f84853a98d.jpg\"]","trial_type":"similarity","trial_index":162,"time_elapsed":1088614,"internal_node_id":"0.0-6.0-156.0"},{"sim_score":1,"rt":2891,"stimulus":"[\"img/0901/c6df1a21-44ed-47c2-960e-7c52220e329e.jpg\",\"img/0881/20af39f5-373d-4a55-a437-2dc4c0382c46.jpg\"]","trial_type":"similarity","trial_index":163,"time_elapsed":1092510,"internal_node_id":"0.0-6.0-157.0"},{"sim_score":6,"rt":3883,"stimulus":"[\"img/0903/f1fa0f8d-e62b-4b4a-a174-31a0fabfe61b.jpg\",\"img/0902/04a6ad4a-afc6-4871-8225-56b299af7b6b.jpg\"]","trial_type":"similarity","trial_index":164,"time_elapsed":1097398,"internal_node_id":"0.0-6.0-158.0"},{"sim_score":1,"rt":3370,"stimulus":"[\"img/0860/c47fdead-eb02-4989-b078-26f4852f44fe.jpg\",\"img/0764/e42c1dc9-7831-4995-be19-7ca7b4d141fc.jpg\"]","trial_type":"similarity","trial_index":165,"time_elapsed":1101774,"internal_node_id":"0.0-6.0-159.0"},{"sim_score":2,"rt":2947,"stimulus":"[\"img/0902/b56db912-c3c0-4fc2-b325-d640acd7cb58.jpg\",\"img/0875/2c361b79-c3d1-4eda-812e-bf03192407bf.jpg\"]","trial_type":"similarity","trial_index":166,"time_elapsed":1105726,"internal_node_id":"0.0-6.0-160.0"},{"sim_score":2,"rt":3810,"stimulus":"[\"img/0898/a114b375-cb89-44ba-9498-74213f1ecdee.jpg\",\"img/0862/99a99e39-8355-44ec-b993-e7bcec111e1c.jpg\"]","trial_type":"similarity","trial_index":167,"time_elapsed":1110542,"internal_node_id":"0.0-6.0-161.0"},{"sim_score":1,"rt":3194,"stimulus":"[\"img/0894/c505c65a-cde2-4f2c-8cde-f8676f7c894d.jpg\",\"img/0875/5a716432-c6ca-4b1c-955a-2b8ac25198ee.jpg\"]","trial_type":"similarity","trial_index":168,"time_elapsed":1114742,"internal_node_id":"0.0-6.0-162.0"},{"sim_score":5,"rt":6515,"stimulus":"[\"img/0866/9b38d691-1802-4959-ab3f-fc902f0e4ea6.jpg\",\"img/0864/87c467d3-abca-482f-ad80-3766c21b1bb3.jpg\"]","trial_type":"similarity","trial_index":169,"time_elapsed":1122262,"internal_node_id":"0.0-6.0-163.0"},{"sim_score":1,"rt":2811,"stimulus":"[\"img/0766/1bc0dccc-a5b5-4375-87fa-28360ca42b12.jpg\",\"img/0862/92fcd8a4-8193-4a6a-ae09-dd4a6338b0df.jpg\"]","trial_type":"similarity","trial_index":170,"time_elapsed":1126078,"internal_node_id":"0.0-6.0-164.0"},{"sim_score":5,"rt":3538,"stimulus":"[\"img/0866/bf14b5bd-fb55-47db-86b9-4f8aeb9a6dad.jpg\",\"img/0874/a82926a3-0b43-4add-803c-d5f9ea7798ee.jpg\"]","trial_type":"similarity","trial_index":171,"time_elapsed":1130621,"internal_node_id":"0.0-6.0-165.0"},{"sim_score":6,"rt":4674,"stimulus":"[\"img/0862/de9ad88c-b522-430a-8ee9-eb06a9f85df5.jpg\",\"img/0860/4a022222-056d-461c-ab02-39fac9647552.jpg\"]","trial_type":"similarity","trial_index":172,"time_elapsed":1136301,"internal_node_id":"0.0-6.0-166.0"},{"sim_score":5,"rt":3507,"stimulus":"[\"img/0766/ea09dd5a-d24d-4e97-a099-7da3db1baef1.jpg\",\"img/0901/a6776381-91fe-43f8-ab73-261d318f95fd.jpg\"]","trial_type":"similarity","trial_index":173,"time_elapsed":1150708,"internal_node_id":"0.0-6.0-167.0"},{"sim_score":6,"rt":5427,"stimulus":"[\"img/0862/57b6f83f-c763-4858-830d-102f97bfefbf.jpg\",\"img/0862/064818ee-13d5-4618-bb24-21c7368ea278.jpg\"]","trial_type":"similarity","trial_index":174,"time_elapsed":1157141,"internal_node_id":"0.0-6.0-168.0"},{"sim_score":6,"rt":4790,"stimulus":"[\"img/0894/3adef67d-7676-4995-80b2-bb31b8aca3ef.jpg\",\"img/0764/fb7d4a20-a475-465e-a74f-aa39a0d33d16.jpg\"]","trial_type":"similarity","trial_index":175,"time_elapsed":1162933,"internal_node_id":"0.0-6.0-169.0"},{"sim_score":4,"rt":5221,"stimulus":"[\"img/0874/c0378dac-9370-439a-8b79-db27c96fb390.jpg\",\"img/0898/b2732712-71c2-45d8-834f-2b2ed5504910.jpg\"]","trial_type":"similarity","trial_index":176,"time_elapsed":1169157,"internal_node_id":"0.0-6.0-170.0"},{"sim_score":1,"rt":5211,"stimulus":"[\"img/0860/71e1aad0-2cdf-43bb-94a4-a8c016997c30.jpg\",\"img/0766/d50d734f-285c-4840-bc7a-c8dd4aff391e.jpg\"]","trial_type":"similarity","trial_index":177,"time_elapsed":1175373,"internal_node_id":"0.0-6.0-171.0"},{"sim_score":2,"rt":5105,"stimulus":"[\"img/0898/f3a3f225-1248-4ac7-b93b-f0ff28485bf3.jpg\",\"img/0864/66091c27-e588-4476-8af9-265dc6be4156.jpg\"]","trial_type":"similarity","trial_index":178,"time_elapsed":1181484,"internal_node_id":"0.0-6.0-172.0"},{"sim_score":1,"rt":2714,"stimulus":"[\"img/0881/f4e3e181-b3c9-4af2-a5a4-fc135ab70d2e.jpg\",\"img/0764/39a9fc7e-b863-432c-9374-de43983f31a5.jpg\"]","trial_type":"similarity","trial_index":179,"time_elapsed":1185205,"internal_node_id":"0.0-6.0-173.0"},{"sim_score":1,"rt":3234,"stimulus":"[\"img/0898/a8f16b02-e19f-423b-86c3-a36562ae1f9b.jpg\",\"img/0868/6a28c3b0-3d76-498a-9fb7-ddafc665eca8.jpg\"]","trial_type":"similarity","trial_index":180,"time_elapsed":1189445,"internal_node_id":"0.0-6.0-174.0"},{"sim_score":7,"rt":4035,"stimulus":"[\"img/0864/6f631579-acf1-415c-a42c-1207f62a8d99.jpg\",\"img/0864/49150900-7f25-4ce8-8d10-9b47a71d1997.jpg\"]","trial_type":"similarity","trial_index":181,"time_elapsed":1194485,"internal_node_id":"0.0-6.0-175.0"},{"sim_score":1,"rt":3417,"stimulus":"[\"img/0899/7b7380d5-d2be-44e5-a09a-c1756f87ef71.jpg\",\"img/0862/e0f1a4e9-e1b6-45f7-af67-89f334e6630d.jpg\"]","trial_type":"similarity","trial_index":182,"time_elapsed":1198908,"internal_node_id":"0.0-6.0-176.0"},{"sim_score":5,"rt":3587,"stimulus":"[\"img/0875/fb732ab5-013a-4366-9f65-27811ed157e9.jpg\",\"img/0758/9fb5b2fe-3f00-4fe6-973c-1ce10d5f4cd5.jpg\"]","trial_type":"similarity","trial_index":183,"time_elapsed":1203501,"internal_node_id":"0.0-6.0-177.0"},{"sim_score":1,"rt":2489,"stimulus":"[\"img/0866/11a1d141-be5e-443c-98c1-a9d4d9e3dec0.jpg\",\"img/0901/233a6948-48eb-4b67-8259-222b916b2322.jpg\"]","trial_type":"similarity","trial_index":184,"time_elapsed":1206996,"internal_node_id":"0.0-6.0-178.0"},{"sim_score":1,"rt":2993,"stimulus":"[\"img/0769/91acb237-65a3-4d0b-9748-af5c7b83d3c7.jpg\",\"img/0874/eba003b4-cdab-4eee-8bc3-f064c7d94165.jpg\"]","trial_type":"similarity","trial_index":185,"time_elapsed":1210996,"internal_node_id":"0.0-6.0-179.0"},{"sim_score":5,"rt":4721,"stimulus":"[\"img/0875/8521fd58-3b1e-4dc5-97ae-804edfa6734a.jpg\",\"img/0881/667e2147-d457-4f32-aa5f-6ab86e5848f1.jpg\"]","trial_type":"similarity","trial_index":186,"time_elapsed":1216724,"internal_node_id":"0.0-6.0-180.0"},{"sim_score":6,"rt":3338,"stimulus":"[\"img/0866/6f2a90d7-14f1-4f1b-bd64-fc0af6b9fe44.jpg\",\"img/0868/83b4350a-3b70-4cea-b7f5-b5b56f3050a8.jpg\"]","trial_type":"similarity","trial_index":187,"time_elapsed":1221068,"internal_node_id":"0.0-6.0-181.0"},{"sim_score":1,"rt":3137,"stimulus":"[\"img/0899/fd9efb43-701f-4cd6-baaa-4c38315f4bdc.jpg\",\"img/0758/2fa3e613-e676-4e6e-bd12-705327eeb3e1.jpg\"]","trial_type":"similarity","trial_index":188,"time_elapsed":1225212,"internal_node_id":"0.0-6.0-182.0"},{"sim_score":5,"rt":4474,"stimulus":"[\"img/0874/2c9464dd-8a23-4baa-ac94-1ba3af5c15cc.jpg\",\"img/0875/3ecb367d-e9eb-4826-8aaa-7aa72fb98019.jpg\"]","trial_type":"similarity","trial_index":189,"time_elapsed":1230692,"internal_node_id":"0.0-6.0-183.0"},{"sim_score":2,"rt":2899,"stimulus":"[\"img/0904/09dac84f-3d1c-4445-a68e-d0389fdbf1e9.jpg\",\"img/0862/eefa5588-9efd-4591-aa5f-a2e17c7d7bcc.jpg\"]","trial_type":"similarity","trial_index":190,"time_elapsed":1234597,"internal_node_id":"0.0-6.0-184.0"},{"sim_score":5,"rt":3738,"stimulus":"[\"img/0902/c018bd7a-d91a-4192-aea4-7259cfcdb6c4.jpg\",\"img/0766/2e1cf445-9aef-40e7-92f4-5facf48b64c5.jpg\"]","trial_type":"similarity","trial_index":191,"time_elapsed":1239340,"internal_node_id":"0.0-6.0-185.0"},{"sim_score":1,"rt":3658,"stimulus":"[\"img/0758/6cd8c362-ae2a-41eb-80a3-3a4f7ace1530.jpg\",\"img/0769/1afb527f-9887-428c-bd26-a12c2f9efb68.jpg\"]","trial_type":"similarity","trial_index":192,"time_elapsed":1244004,"internal_node_id":"0.0-6.0-186.0"},{"sim_score":7,"rt":4698,"stimulus":"[\"img/0881/0c7068da-d0d9-4103-bda1-74ef7a2b32c3.jpg\",\"img/0881/e046471a-35b4-4159-bbf7-3cfd201bef66.jpg\"]","trial_type":"similarity","trial_index":193,"time_elapsed":1249708,"internal_node_id":"0.0-6.0-187.0"},{"sim_score":5,"rt":3506,"stimulus":"[\"img/0758/67c0be2f-9e91-48b3-8219-70ac0a1802fa.jpg\",\"img/0866/0207e9a2-7dbb-40b5-9459-b472aaeceb2a.jpg\"]","trial_type":"similarity","trial_index":194,"time_elapsed":1254220,"internal_node_id":"0.0-6.0-188.0"},{"sim_score":5,"rt":3387,"stimulus":"[\"img/0764/a86eed5b-d0af-4c3f-8c7a-26e98e98cf1a.jpg\",\"img/0898/ec565187-2e31-4fdd-9a5c-153d0c789ae0.jpg\"]","trial_type":"similarity","trial_index":195,"time_elapsed":1258612,"internal_node_id":"0.0-6.0-189.0"},{"sim_score":6,"rt":3738,"stimulus":"[\"img/0903/f45a103c-9bfe-49fd-ad96-bdd8d2589195.jpg\",\"img/0901/4f9cffe0-c0be-4d7f-bacd-9d51efd19b4a.jpg\"]","trial_type":"similarity","trial_index":196,"time_elapsed":1263356,"internal_node_id":"0.0-6.0-190.0"},{"sim_score":6,"rt":3378,"stimulus":"[\"img/0902/a323b62d-2fd5-4ac8-acc6-35b768f3c3f2.jpg\",\"img/0898/0af304a2-6a7a-4082-ab7c-4450cd08cc58.jpg\"]","trial_type":"similarity","trial_index":197,"time_elapsed":1267740,"internal_node_id":"0.0-6.0-191.0"},{"sim_score":2,"rt":5042,"stimulus":"[\"img/0864/c22faebd-9c53-47bc-ada3-b9a30c688e75.jpg\",\"img/0901/deff6cfb-0072-4490-bc3e-206bbcd3e8bf.jpg\"]","trial_type":"similarity","trial_index":198,"time_elapsed":1273788,"internal_node_id":"0.0-6.0-192.0"},{"sim_score":1,"rt":3682,"stimulus":"[\"img/0894/38cf335f-f76f-4349-8d65-e20cd6859565.jpg\",\"img/0881/609a5e93-38b5-4940-8627-2bf8fad7f802.jpg\"]","trial_type":"similarity","trial_index":199,"time_elapsed":1278476,"internal_node_id":"0.0-6.0-193.0"},{"sim_score":7,"rt":3298,"stimulus":"[\"img/0868/77091fc7-a590-4ebb-b915-fdb2483a2399.jpg\",\"img/0868/4a8a45ed-2c4f-421b-9564-409a33ecd26c.jpg\"]","trial_type":"similarity","trial_index":200,"time_elapsed":1282780,"internal_node_id":"0.0-6.0-194.0"},{"sim_score":5,"rt":4354,"stimulus":"[\"img/0899/5b56dd3e-3f49-47cc-af84-16da6457753b.jpg\",\"img/0764/5d6fa3ce-9083-410c-bbdb-336a49b94cfc.jpg\"]","trial_type":"similarity","trial_index":201,"time_elapsed":1288140,"internal_node_id":"0.0-6.0-195.0"},{"sim_score":2,"rt":3594,"stimulus":"[\"img/0881/344de456-b358-4887-bd0e-e4c3278af887.jpg\",\"img/0904/696ebb60-8891-417a-91fd-c53218907a95.jpg\"]","trial_type":"similarity","trial_index":202,"time_elapsed":1292740,"internal_node_id":"0.0-6.0-196.0"},{"sim_score":1,"rt":3274,"stimulus":"[\"img/0864/a248adb3-c70b-4652-b7a3-776d2a1e904b.jpg\",\"img/0902/794606a0-d8a8-4e58-8bf8-9d114ed5a548.jpg\"]","trial_type":"similarity","trial_index":203,"time_elapsed":1297020,"internal_node_id":"0.0-6.0-197.0"},{"sim_score":5,"rt":3634,"stimulus":"[\"img/0894/661b9f9f-4bde-487a-b1ed-87085fde6948.jpg\",\"img/0904/09934646-45d2-4147-8fec-64a22a5ac822.jpg\"]","trial_type":"similarity","trial_index":204,"time_elapsed":1301660,"internal_node_id":"0.0-6.0-198.0"},{"sim_score":7,"rt":3778,"stimulus":"[\"img/0901/58ec7fa9-b466-4651-90aa-c082df0972de.jpg\",\"img/0901/b453df0b-4c39-49bb-8ced-6127efffa898.jpg\"]","trial_type":"similarity","trial_index":205,"time_elapsed":1306444,"internal_node_id":"0.0-6.0-199.0"},{"sim_score":1,"rt":3925,"stimulus":"[\"img/0894/151063aa-6472-4745-837b-36603aba5966.jpg\",\"img/0860/f44ba3fb-03a2-42f0-8509-2c1ded493086.jpg\"]","trial_type":"similarity","trial_index":206,"time_elapsed":1311373,"internal_node_id":"0.0-6.0-200.0"},{"sim_score":7,"rt":3762,"stimulus":"[\"img/0898/04e39a7a-fcf6-4156-ab0e-f5871f335e1c.jpg\",\"img/0903/8fcafe03-43df-4c45-9da5-0df3a1eeccc5.jpg\"]","trial_type":"similarity","trial_index":207,"time_elapsed":1316141,"internal_node_id":"0.0-6.0-201.0"},{"sim_score":1,"rt":2906,"stimulus":"[\"img/0864/1ebbc554-99fa-49f9-8799-317375a79820.jpg\",\"img/0894/9b1333fd-3561-43bf-aee5-99b7b7ca3dc3.jpg\"]","trial_type":"similarity","trial_index":208,"time_elapsed":1320054,"internal_node_id":"0.0-6.0-202.0"},{"sim_score":5,"rt":4161,"stimulus":"[\"img/0874/3ce41e7c-40c8-4d58-a546-171114521796.jpg\",\"img/0860/4c530c3c-6aab-492a-94d1-9c01797bde40.jpg\"]","trial_type":"similarity","trial_index":209,"time_elapsed":1325221,"internal_node_id":"0.0-6.0-203.0"},{"sim_score":5,"rt":2987,"stimulus":"[\"img/0862/e8cc3bdf-cc43-4565-bccf-492626c70953.jpg\",\"img/0875/90da8d75-108a-44ad-b999-e21fee3860d3.jpg\"]","trial_type":"similarity","trial_index":210,"time_elapsed":1329213,"internal_node_id":"0.0-6.0-204.0"},{"sim_score":5,"rt":4795,"stimulus":"[\"img/0867/1719a35d-f085-48c0-9099-16c94fe418b4.jpg\",\"img/0881/d1982897-8d8d-4704-a940-1ee5d07a1f15.jpg\"]","trial_type":"similarity","trial_index":211,"time_elapsed":1335014,"internal_node_id":"0.0-6.0-205.0"},{"sim_score":6,"rt":6305,"stimulus":"[\"img/0901/7d4a3388-488d-4e9b-9d32-9d0def7aae8d.jpg\",\"img/0902/d1083f2c-5520-44ec-81a8-3f856fbf0e80.jpg\"]","trial_type":"similarity","trial_index":212,"time_elapsed":1342325,"internal_node_id":"0.0-6.0-206.0"},{"sim_score":1,"rt":3251,"stimulus":"[\"img/0899/0adc0bc3-6fca-4078-be6f-d45ddf1653d5.jpg\",\"img/0864/da39ad34-04e0-40d4-a724-c08d53e0ea09.jpg\"]","trial_type":"similarity","trial_index":213,"time_elapsed":1346581,"internal_node_id":"0.0-6.0-207.0"},{"sim_score":4,"rt":4642,"stimulus":"[\"img/0901/b123d109-47b4-4f9a-80c9-9bb16da42efa.jpg\",\"img/0769/7c50e5f5-cc38-4d48-b009-fbe17bcea61c.jpg\"]","trial_type":"similarity","trial_index":214,"time_elapsed":1352229,"internal_node_id":"0.0-6.0-208.0"},{"sim_score":7,"rt":4737,"stimulus":"[\"img/0902/94198618-7047-4dc9-ad04-85f4ba913067.jpg\",\"img/0902/d3e55000-c839-4bf9-9b9b-4af0a9925af1.jpg\"]","trial_type":"similarity","trial_index":215,"time_elapsed":1368380,"internal_node_id":"0.0-6.0-209.0"},{"view_history":"[{\"page_index\":0,\"viewing_time\":7068}]","rt":7069,"trial_type":"instructions","trial_index":216,"time_elapsed":1376452,"internal_node_id":"0.0-7.0"},{"rt":43911,"responses":"{\"Q0\":\"Nashville Warbler\"}","answer":["Nashville Warbler"],"trial_type":"image-multi-choice","trial_index":217,"time_elapsed":1421389,"internal_node_id":"0.0-8.0-0.0"},{"rt":4028,"responses":"{\"Q0\":\"Black-and-white Warbler\"}","answer":["Black-and-white Warbler"],"trial_type":"image-multi-choice","trial_index":218,"time_elapsed":1426436,"internal_node_id":"0.0-8.0-1.0"},{"rt":7874,"responses":"{\"Q0\":\"Townsend's Warbler\"}","answer":["Townsend's Warbler"],"trial_type":"image-multi-choice","trial_index":219,"time_elapsed":1435332,"internal_node_id":"0.0-8.0-2.0"},{"rt":4918,"responses":"{\"Q0\":\"Lark Sparrow\"}","answer":["Lark Sparrow"],"trial_type":"image-multi-choice","trial_index":220,"time_elapsed":1441269,"internal_node_id":"0.0-8.0-3.0"},{"rt":3149,"responses":"{\"Q0\":\"Yellow Warbler\"}","answer":["Yellow Warbler"],"trial_type":"image-multi-choice","trial_index":221,"time_elapsed":1445437,"internal_node_id":"0.0-8.0-4.0"},{"rt":21500,"responses":"{\"Q0\":\"Orange-crowned Warbler\"}","answer":["Orange-crowned Warbler"],"trial_type":"image-multi-choice","trial_index":222,"time_elapsed":1467949,"internal_node_id":"0.0-8.0-5.0"},{"rt":3434,"responses":"{\"Q0\":\"White-throated Sparrow\"}","answer":["White-throated Sparrow"],"trial_type":"image-multi-choice","trial_index":223,"time_elapsed":1472405,"internal_node_id":"0.0-8.0-6.0"},{"rt":4074,"responses":"{\"Q0\":\"Fox Sparrow\"}","answer":["Fox Sparrow"],"trial_type":"image-multi-choice","trial_index":224,"time_elapsed":1477501,"internal_node_id":"0.0-8.0-7.0"},{"rt":6581,"responses":"{\"Q0\":\"Song Sparrow\"}","answer":["Song Sparrow"],"trial_type":"image-multi-choice","trial_index":225,"time_elapsed":1485101,"internal_node_id":"0.0-8.0-8.0"},{"rt":10466,"responses":"{\"Q0\":\"Blackburnian Warbler\"}","answer":["Blackburnian Warbler"],"trial_type":"image-multi-choice","trial_index":226,"time_elapsed":1496588,"internal_node_id":"0.0-8.0-9.0"},{"rt":5000,"responses":"{\"Q0\":\"Vesper Sparrow\"}","answer":["Vesper Sparrow"],"trial_type":"image-multi-choice","trial_index":227,"time_elapsed":1502612,"internal_node_id":"0.0-8.0-10.0"},{"rt":4428,"responses":"{\"Q0\":\"White-crowned Sparrow\"}","answer":["White-crowned Sparrow"],"trial_type":"image-multi-choice","trial_index":228,"time_elapsed":1508060,"internal_node_id":"0.0-8.0-11.0"},{"rt":4590,"responses":"{\"Q0\":\"American Tree Sparrow\"}","answer":["American Tree Sparrow"],"trial_type":"image-multi-choice","trial_index":229,"time_elapsed":1513668,"internal_node_id":"0.0-8.0-12.0"},{"rt":8365,"responses":"{\"Q0\":\"Tennessee Warbler\"}","answer":["Tennessee Warbler"],"trial_type":"image-multi-choice","trial_index":230,"time_elapsed":1523053,"internal_node_id":"0.0-8.0-13.0"},{"rt":3517,"responses":"{\"Q0\":\"Magnolia Warbler\"}","answer":["Magnolia Warbler"],"trial_type":"image-multi-choice","trial_index":231,"time_elapsed":1527596,"internal_node_id":"0.0-8.0-14.0"},{"rt":7573,"responses":"{\"Q0\":\"Northern Waterthrush\"}","answer":["Northern Waterthrush"],"trial_type":"image-multi-choice","trial_index":232,"time_elapsed":1536188,"internal_node_id":"0.0-8.0-15.0"},{"rt":5130,"responses":"{\"Q0\":\"Chipping Sparrow\"}","answer":["Chipping Sparrow"],"trial_type":"image-multi-choice","trial_index":233,"time_elapsed":1542339,"internal_node_id":"0.0-8.0-16.0"},{"rt":7542,"responses":"{\"Q0\":\"Swamp Sparrow\"}","answer":["Swamp Sparrow"],"trial_type":"image-multi-choice","trial_index":234,"time_elapsed":1550900,"internal_node_id":"0.0-8.0-17.0"},{"rt":4431,"responses":"{\"Q0\":\"Lincoln's Sparrow\"}","answer":["Lincoln's Sparrow"],"trial_type":"image-multi-choice","trial_index":235,"time_elapsed":1556348,"internal_node_id":"0.0-8.0-18.0"},{"rt":4022,"responses":"{\"Q0\":\"Ovenbird\"}","answer":["Ovenbird"],"trial_type":"image-multi-choice","trial_index":236,"time_elapsed":1561389,"internal_node_id":"0.0-8.0-19.0"}]