[{"view_history":"[{\"page_index\":0,\"viewing_time\":33460}]","rt":33461,"trial_type":"instructions","trial_index":0,"time_elapsed":33464,"internal_node_id":"0.0-0.0"},{"sim_score":5,"rt":17523,"stimulus":"[\"img/866.jpg\",\"img/868.jpg\"]","trial_type":"similarity_demo","trial_index":1,"time_elapsed":51999,"internal_node_id":"0.0-1.0"},{"view_history":"[{\"page_index\":0,\"viewing_time\":18651}]","rt":18652,"trial_type":"instructions","trial_index":2,"time_elapsed":71652,"internal_node_id":"0.0-2.0"},{"sim_score":3,"rt":6099,"stimulus":"[\"img/766.jpg\",\"img/867.jpg\"]","trial_type":"similarity_demo","trial_index":3,"time_elapsed":78757,"internal_node_id":"0.0-3.0"},{"view_history":"[{\"page_index\":0,\"viewing_time\":11574}]","rt":11575,"trial_type":"instructions","trial_index":4,"time_elapsed":91332,"internal_node_id":"0.0-4.0"},{"view_history":"[{\"page_index\":0,\"viewing_time\":40599}]","rt":40599,"trial_type":"instructions","trial_index":5,"time_elapsed":132932,"internal_node_id":"0.0-5.0"},{"sim_score":1,"rt":11680,"stimulus":"[\"img/0868/5fa7f9d0-f0e5-454c-8224-74d964818f56.jpg\",\"img/0901/548d1110-7cb8-42a2-9927-9798875c8b5c.jpg\"]","trial_type":"similarity","trial_index":6,"time_elapsed":145621,"internal_node_id":"0.0-6.0-0.0"},{"sim_score":2,"rt":12554,"stimulus":"[\"img/0769/057eb0a0-aa5b-40c7-9852-21444f68d767.jpg\",\"img/0867/5e07b34d-b40f-4b1c-ac10-49975bace45f.jpg\"]","trial_type":"similarity","trial_index":7,"time_elapsed":159180,"internal_node_id":"0.0-6.0-1.0"},{"sim_score":6,"rt":10683,"stimulus":"[\"img/0766/ef3b15ce-abb7-4292-ad93-aec8e8b50520.jpg\",\"img/0898/661621d4-a14e-487c-8c74-354134a29710.jpg\"]","trial_type":"similarity","trial_index":8,"time_elapsed":170868,"internal_node_id":"0.0-6.0-2.0"},{"sim_score":7,"rt":6283,"stimulus":"[\"img/0902/af40b98b-3d23-4d95-b401-49ba5783ce39.jpg\",\"img/0881/db77fe00-aeb0-4d1d-aa66-f3a96fd077e4.jpg\"]","trial_type":"similarity","trial_index":9,"time_elapsed":178156,"internal_node_id":"0.0-6.0-3.0"},{"sim_score":5,"rt":6537,"stimulus":"[\"img/0894/43216a7f-27bc-4b5a-8841-d122a30da9d9.jpg\",\"img/0894/767a0eec-1064-46b1-b1aa-dfa02b0cd74e.jpg\"]","trial_type":"similarity","trial_index":10,"time_elapsed":185700,"internal_node_id":"0.0-6.0-4.0"},{"sim_score":6,"rt":7067,"stimulus":"[\"img/0874/85eb9b8a-c4c6-4e5a-b8e7-363a87a82054.jpg\",\"img/0899/93494f3b-d539-4075-b027-d82e344563da.jpg\"]","trial_type":"similarity","trial_index":11,"time_elapsed":193772,"internal_node_id":"0.0-6.0-5.0"},{"sim_score":6,"rt":6761,"stimulus":"[\"img/0904/65e2b70a-b184-4da3-b5c0-5038bdf9469a.jpg\",\"img/0764/c84fbfa8-521c-407a-9bd3-24f7308d896c.jpg\"]","trial_type":"similarity","trial_index":12,"time_elapsed":201540,"internal_node_id":"0.0-6.0-6.0"},{"sim_score":7,"rt":5563,"stimulus":"[\"img/0899/fd9efb43-701f-4cd6-baaa-4c38315f4bdc.jpg\",\"img/0898/0af304a2-6a7a-4082-ab7c-4450cd08cc58.jpg\"]","trial_type":"similarity","trial_index":13,"time_elapsed":208108,"internal_node_id":"0.0-6.0-7.0"},{"sim_score":6,"rt":8130,"stimulus":"[\"img/0874/2c9464dd-8a23-4baa-ac94-1ba3af5c15cc.jpg\",\"img/0903/680ed18e-b311-4ecf-9b00-7dea32128334.jpg\"]","trial_type":"similarity","trial_index":14,"time_elapsed":217244,"internal_node_id":"0.0-6.0-8.0"},{"sim_score":6,"rt":7072,"stimulus":"[\"img/0881/ee44e27f-d662-4608-b265-e7ffa19b216f.jpg\",\"img/0758/2fa3e613-e676-4e6e-bd12-705327eeb3e1.jpg\"]","trial_type":"similarity","trial_index":15,"time_elapsed":225324,"internal_node_id":"0.0-6.0-9.0"},{"sim_score":5,"rt":6963,"stimulus":"[\"img/0898/82231d4c-218b-4d0a-b50d-35a49b524e97.jpg\",\"img/0901/c6c877e0-dd63-4e00-9657-33af29d55aab.jpg\"]","trial_type":"similarity","trial_index":16,"time_elapsed":233292,"internal_node_id":"0.0-6.0-10.0"},{"sim_score":7,"rt":5402,"stimulus":"[\"img/0903/8f7f9939-b8e6-433f-93dd-b362496c80a7.jpg\",\"img/0769/47700831-0ca2-4fdd-a498-a3bc5a528f43.jpg\"]","trial_type":"similarity","trial_index":17,"time_elapsed":239700,"internal_node_id":"0.0-6.0-11.0"},{"sim_score":1,"rt":4771,"stimulus":"[\"img/0764/5d83b9db-3b2b-4dc8-9bd1-2b515b19c858.jpg\",\"img/0868/6a28c3b0-3d76-498a-9fb7-ddafc665eca8.jpg\"]","trial_type":"similarity","trial_index":18,"time_elapsed":245476,"internal_node_id":"0.0-6.0-12.0"},{"sim_score":1,"rt":4595,"stimulus":"[\"img/0867/6e19c858-b606-45b2-a4c6-910a73f1d82c.jpg\",\"img/0903/6378ee1e-3d2b-48d2-87be-bebda32c8268.jpg\"]","trial_type":"similarity","trial_index":19,"time_elapsed":251076,"internal_node_id":"0.0-6.0-13.0"},{"sim_score":2,"rt":4820,"stimulus":"[\"img/0766/2e1cf445-9aef-40e7-92f4-5facf48b64c5.jpg\",\"img/0758/20497cbe-ddae-489e-86e2-ab06985ed07c.jpg\"]","trial_type":"similarity","trial_index":20,"time_elapsed":256900,"internal_node_id":"0.0-6.0-14.0"},{"sim_score":7,"rt":5459,"stimulus":"[\"img/0902/27b84584-948a-485b-8749-cb09929ef631.jpg\",\"img/0860/524b2e98-5767-4d53-942c-ebae6925659b.jpg\"]","trial_type":"similarity","trial_index":21,"time_elapsed":263364,"internal_node_id":"0.0-6.0-15.0"},{"sim_score":3,"rt":9145,"stimulus":"[\"img/0769/da36e3f7-2337-434f-ab57-11822dd7eed7.jpg\",\"img/0875/8521fd58-3b1e-4dc5-97ae-804edfa6734a.jpg\"]","trial_type":"similarity","trial_index":22,"time_elapsed":273516,"internal_node_id":"0.0-6.0-16.0"},{"sim_score":3,"rt":8632,"stimulus":"[\"img/0904/9dd5708f-3f8b-46a9-b49f-2f2fab87b357.jpg\",\"img/0866/6f2a90d7-14f1-4f1b-bd64-fc0af6b9fe44.jpg\"]","trial_type":"similarity","trial_index":23,"time_elapsed":283155,"internal_node_id":"0.0-6.0-17.0"},{"sim_score":7,"rt":5721,"stimulus":"[\"img/0875/a4935837-7d3c-4df6-88c1-36a94d4991ca.jpg\",\"img/0875/dbdd643e-6d0e-4a5c-ab57-b9c29b9c981a.jpg\"]","trial_type":"similarity","trial_index":24,"time_elapsed":289884,"internal_node_id":"0.0-6.0-18.0"},{"sim_score":7,"rt":6116,"stimulus":"[\"img/0758/d57c2592-a317-4f63-91be-91a3a9afd222.jpg\",\"img/0758/53f35650-e455-4b53-8be4-c3c8271c6466.jpg\"]","trial_type":"similarity","trial_index":25,"time_elapsed":297003,"internal_node_id":"0.0-6.0-19.0"},{"sim_score":2,"rt":6363,"stimulus":"[\"img/0902/97022122-01e4-46c3-a34f-c6260ad28428.jpg\",\"img/0874/1016b306-087c-4afc-aa08-fa527b28dc76.jpg\"]","trial_type":"similarity","trial_index":26,"time_elapsed":304373,"internal_node_id":"0.0-6.0-20.0"},{"sim_score":7,"rt":5752,"stimulus":"[\"img/0764/6fbd1902-fa2a-48d8-bc11-705b8ab68d8f.jpg\",\"img/0769/f6396414-6788-4d59-9683-de153298d89c.jpg\"]","trial_type":"similarity","trial_index":27,"time_elapsed":311131,"internal_node_id":"0.0-6.0-21.0"},{"sim_score":1,"rt":5875,"stimulus":"[\"img/0901/a2d7b2f6-396b-4d91-8403-de5361c74af7.jpg\",\"img/0874/ca76a855-4e77-4f2f-872a-0a718153e7ed.jpg\"]","trial_type":"similarity","trial_index":28,"time_elapsed":318013,"internal_node_id":"0.0-6.0-22.0"},{"sim_score":5,"rt":10233,"stimulus":"[\"img/0875/5a716432-c6ca-4b1c-955a-2b8ac25198ee.jpg\",\"img/0903/70d764d9-1f35-4da7-a35d-4cc39834d270.jpg\"]","trial_type":"similarity","trial_index":29,"time_elapsed":329251,"internal_node_id":"0.0-6.0-23.0"},{"sim_score":6,"rt":9395,"stimulus":"[\"img/0769/f73c5138-2f4c-4354-981c-129dff9cc734.jpg\",\"img/0881/20af39f5-373d-4a55-a437-2dc4c0382c46.jpg\"]","trial_type":"similarity","trial_index":30,"time_elapsed":339651,"internal_node_id":"0.0-6.0-24.0"},{"sim_score":1,"rt":4560,"stimulus":"[\"img/0867/50a1b60e-3a29-44bf-b606-d4bd3746fea9.jpg\",\"img/0904/5cceabc9-de1d-4c67-989b-c28a4ef77e79.jpg\"]","trial_type":"similarity","trial_index":31,"time_elapsed":345219,"internal_node_id":"0.0-6.0-25.0"},{"sim_score":3,"rt":6322,"stimulus":"[\"img/0860/fd4662f9-4c03-4d79-8593-06735e55a64b.jpg\",\"img/0881/5fe04dd0-5c74-47b7-99c8-b068db9ca26a.jpg\"]","trial_type":"similarity","trial_index":32,"time_elapsed":352548,"internal_node_id":"0.0-6.0-26.0"},{"sim_score":7,"rt":5154,"stimulus":"[\"img/0866/d266fece-59b3-46fa-b69f-96f6efb81b59.jpg\",\"img/0866/02f5e6b9-52b7-448c-9708-5b460d0c9a23.jpg\"]","trial_type":"similarity","trial_index":33,"time_elapsed":358707,"internal_node_id":"0.0-6.0-27.0"},{"sim_score":6,"rt":7338,"stimulus":"[\"img/0764/d0bef2e0-e16b-4c82-9451-c1d16265eb67.jpg\",\"img/0862/99a99e39-8355-44ec-b993-e7bcec111e1c.jpg\"]","trial_type":"similarity","trial_index":34,"time_elapsed":367052,"internal_node_id":"0.0-6.0-28.0"},{"sim_score":5,"rt":6227,"stimulus":"[\"img/0904/9d30eff1-46ef-4453-b11e-124ef8145c00.jpg\",\"img/0758/6e95579b-5166-487c-b8cb-e417c6a218e3.jpg\"]","trial_type":"similarity","trial_index":35,"time_elapsed":374283,"internal_node_id":"0.0-6.0-29.0"},{"sim_score":6,"rt":6475,"stimulus":"[\"img/0894/1b3888e6-cf36-4c4a-a039-187aa5cb71ac.jpg\",\"img/0899/5b56dd3e-3f49-47cc-af84-16da6457753b.jpg\"]","trial_type":"similarity","trial_index":36,"time_elapsed":381764,"internal_node_id":"0.0-6.0-30.0"},{"sim_score":5,"rt":6506,"stimulus":"[\"img/0860/c47fdead-eb02-4989-b078-26f4852f44fe.jpg\",\"img/0904/b5855d6a-7ef9-46ca-9215-6e9fa046e543.jpg\"]","trial_type":"similarity","trial_index":37,"time_elapsed":389276,"internal_node_id":"0.0-6.0-31.0"},{"sim_score":6,"rt":8579,"stimulus":"[\"img/0874/8cdb1c07-1c32-46d2-981c-3636560fa6e5.jpg\",\"img/0881/14236cf2-6b95-48b8-9368-78af09d2d27f.jpg\"]","trial_type":"similarity","trial_index":38,"time_elapsed":398859,"internal_node_id":"0.0-6.0-32.0"},{"sim_score":3,"rt":8245,"stimulus":"[\"img/0881/4da99fdd-1f40-4bbb-8e21-8833eef313f5.jpg\",\"img/0899/ddf96ade-692e-4602-bd22-dedbb46401bc.jpg\"]","trial_type":"similarity","trial_index":39,"time_elapsed":408107,"internal_node_id":"0.0-6.0-33.0"},{"sim_score":2,"rt":6940,"stimulus":"[\"img/0866/4a87911a-d5be-4d4e-ab8e-3d1f581bf507.jpg\",\"img/0862/4f0a3b4c-afbf-486e-b248-1d54982f54b4.jpg\"]","trial_type":"similarity","trial_index":40,"time_elapsed":416051,"internal_node_id":"0.0-6.0-34.0"},{"sim_score":2,"rt":4803,"stimulus":"[\"img/0868/4a8a45ed-2c4f-421b-9564-409a33ecd26c.jpg\",\"img/0894/9b1333fd-3561-43bf-aee5-99b7b7ca3dc3.jpg\"]","trial_type":"similarity","trial_index":41,"time_elapsed":421859,"internal_node_id":"0.0-6.0-35.0"},{"sim_score":6,"rt":6079,"stimulus":"[\"img/0860/c5ccd1a4-4bb7-48e1-9b25-72cfaf06909b.jpg\",\"img/0860/8fdba999-b946-4c7d-9891-336018b563ef.jpg\"]","trial_type":"similarity","trial_index":42,"time_elapsed":428947,"internal_node_id":"0.0-6.0-36.0"},{"sim_score":3,"rt":6147,"stimulus":"[\"img/0862/847e5208-38ec-4f36-949c-296cdd7424ee.jpg\",\"img/0864/e336a4c5-6648-4fd7-b2f6-93a3fb83f8c6.jpg\"]","trial_type":"similarity","trial_index":43,"time_elapsed":436099,"internal_node_id":"0.0-6.0-37.0"},{"sim_score":2,"rt":7138,"stimulus":"[\"img/0766/0bf3793e-c353-45e5-ac6f-753f5f484e10.jpg\",\"img/0866/a04d37f0-99dd-478a-b6c6-58b215138f84.jpg\"]","trial_type":"similarity","trial_index":44,"time_elapsed":444243,"internal_node_id":"0.0-6.0-38.0"},{"sim_score":2,"rt":5659,"stimulus":"[\"img/0875/42910c99-5463-450a-a0f8-d4d060a11455.jpg\",\"img/0898/f3a3f225-1248-4ac7-b93b-f0ff28485bf3.jpg\"]","trial_type":"similarity","trial_index":45,"time_elapsed":450907,"internal_node_id":"0.0-6.0-39.0"},{"sim_score":5,"rt":7392,"stimulus":"[\"img/0766/a1ed3f0f-e338-4a26-8fe4-4370f0c9fa6e.jpg\",\"img/0769/50985283-d353-4abc-9abe-14a91d56ebe6.jpg\"]","trial_type":"similarity","trial_index":46,"time_elapsed":459307,"internal_node_id":"0.0-6.0-40.0"},{"sim_score":3,"rt":6825,"stimulus":"[\"img/0874/93d1f8dc-acf2-4f03-bd8d-8ec35df276ed.jpg\",\"img/0764/4eff630a-6426-4f8d-b2ba-b4d9842a0962.jpg\"]","trial_type":"similarity","trial_index":47,"time_elapsed":505427,"internal_node_id":"0.0-6.0-41.0"},{"sim_score":1,"rt":5154,"stimulus":"[\"img/0868/15dd6fd7-791e-4b53-b203-195d617521a4.jpg\",\"img/0902/d5e25767-e8ec-45f3-ac0a-7b4a6f7a9edc.jpg\"]","trial_type":"similarity","trial_index":48,"time_elapsed":511589,"internal_node_id":"0.0-6.0-42.0"},{"sim_score":2,"rt":8145,"stimulus":"[\"img/0875/34132396-d896-4c2d-8087-646dd867e769.jpg\",\"img/0899/56a605c3-d0a2-4215-89e1-779279d85a7c.jpg\"]","trial_type":"similarity","trial_index":49,"time_elapsed":520739,"internal_node_id":"0.0-6.0-43.0"},{"sim_score":1,"rt":6979,"stimulus":"[\"img/0866/945c6710-d15b-4a5b-a8f6-69af0850357f.jpg\",\"img/0860/5bff793e-cbd5-4d7e-b628-0ac2b0e30b64.jpg\"]","trial_type":"similarity","trial_index":50,"time_elapsed":528723,"internal_node_id":"0.0-6.0-44.0"},{"sim_score":3,"rt":9491,"stimulus":"[\"img/0766/33519c22-aaa4-49d7-8d49-ab551db1945e.jpg\",\"img/0903/31b5a5f4-b695-4af1-bad2-a19650a05498.jpg\"]","trial_type":"similarity","trial_index":51,"time_elapsed":539219,"internal_node_id":"0.0-6.0-45.0"},{"sim_score":6,"rt":7565,"stimulus":"[\"img/0901/da4fe30f-d12a-491e-96a2-5ab8ebaadd09.jpg\",\"img/0904/63dd06dd-dccb-47ba-9740-eb33239e18a7.jpg\"]","trial_type":"similarity","trial_index":52,"time_elapsed":547787,"internal_node_id":"0.0-6.0-46.0"},{"sim_score":6,"rt":6385,"stimulus":"[\"img/0758/e1ba5e53-addc-436a-b428-d34fc1b130dc.jpg\",\"img/0902/94198618-7047-4dc9-ad04-85f4ba913067.jpg\"]","trial_type":"similarity","trial_index":53,"time_elapsed":555179,"internal_node_id":"0.0-6.0-47.0"},{"sim_score":7,"rt":5756,"stimulus":"[\"img/0764/958b8576-3a3b-4acc-96dc-06b74de69f37.jpg\",\"img/0764/a86eed5b-d0af-4c3f-8c7a-26e98e98cf1a.jpg\"]","trial_type":"similarity","trial_index":54,"time_elapsed":561939,"internal_node_id":"0.0-6.0-48.0"},{"sim_score":2,"rt":6875,"stimulus":"[\"img/0866/07c9c966-3c8d-40e7-8128-92b2acbaed5d.jpg\",\"img/0902/aa6fca32-82b0-4414-b20a-8f6f8aa5a2d2.jpg\"]","trial_type":"similarity","trial_index":55,"time_elapsed":569819,"internal_node_id":"0.0-6.0-49.0"},{"sim_score":1,"rt":4330,"stimulus":"[\"img/0764/17b088f8-3053-4140-b544-d15654cc79ef.jpg\",\"img/0758/7fba58df-2a7a-4b76-8a8f-62739f97f271.jpg\"]","trial_type":"similarity","trial_index":56,"time_elapsed":575155,"internal_node_id":"0.0-6.0-50.0"},{"sim_score":2,"rt":6243,"stimulus":"[\"img/0898/79233891-305a-4a6a-8ddf-5c8604858203.jpg\",\"img/0894/3adef67d-7676-4995-80b2-bb31b8aca3ef.jpg\"]","trial_type":"similarity","trial_index":57,"time_elapsed":582403,"internal_node_id":"0.0-6.0-51.0"},{"sim_score":1,"rt":4411,"stimulus":"[\"img/0875/2e13d160-eea1-416b-aff1-d37ab99ecc1d.jpg\",\"img/0866/0207e9a2-7dbb-40b5-9459-b472aaeceb2a.jpg\"]","trial_type":"similarity","trial_index":58,"time_elapsed":587819,"internal_node_id":"0.0-6.0-52.0"},{"sim_score":6,"rt":5228,"stimulus":"[\"img/0904/60d1a521-edf7-4696-9263-f21ac0e62a01.jpg\",\"img/0904/2fd488e9-960f-41f7-8a44-33375f7d5051.jpg\"]","trial_type":"similarity","trial_index":59,"time_elapsed":594051,"internal_node_id":"0.0-6.0-53.0"},{"sim_score":7,"rt":4347,"stimulus":"[\"img/0769/878531fd-e0e8-4ad1-b9ad-f018bb104ca0.jpg\",\"img/0769/1ca58b80-2365-446d-9616-6c1719e6c46f.jpg\"]","trial_type":"similarity","trial_index":60,"time_elapsed":599403,"internal_node_id":"0.0-6.0-54.0"},{"sim_score":3,"rt":4739,"stimulus":"[\"img/0898/a114b375-cb89-44ba-9498-74213f1ecdee.jpg\",\"img/0758/caa93da2-9edf-49fa-96b9-32dedd8f5078.jpg\"]","trial_type":"similarity","trial_index":61,"time_elapsed":605147,"internal_node_id":"0.0-6.0-55.0"},{"sim_score":6,"rt":5162,"stimulus":"[\"img/0769/5bd04f55-d091-4f57-85db-38426f26bd1a.jpg\",\"img/0902/30c420f5-c714-4681-ae5a-c0ba8f636a26.jpg\"]","trial_type":"similarity","trial_index":62,"time_elapsed":611315,"internal_node_id":"0.0-6.0-56.0"},{"sim_score":3,"rt":11090,"stimulus":"[\"img/0864/b3c4e378-28f0-4699-9338-2a257b4bca04.jpg\",\"img/0881/7e822106-76f7-4b10-a805-14dc68b2cfaf.jpg\"]","trial_type":"similarity","trial_index":63,"time_elapsed":623411,"internal_node_id":"0.0-6.0-57.0"},{"sim_score":1,"rt":4179,"stimulus":"[\"img/0758/f61ecdf8-a7d4-4db0-b84d-be46f7cfaffc.jpg\",\"img/0868/7b212364-ff5f-4e28-9241-7eb6ea00161b.jpg\"]","trial_type":"similarity","trial_index":64,"time_elapsed":628595,"internal_node_id":"0.0-6.0-58.0"},{"sim_score":1,"rt":4465,"stimulus":"[\"img/0862/92f0146c-20c4-482e-aef5-adb693790338.jpg\",\"img/0769/1afb527f-9887-428c-bd26-a12c2f9efb68.jpg\"]","trial_type":"similarity","trial_index":65,"time_elapsed":634068,"internal_node_id":"0.0-6.0-59.0"},{"sim_score":7,"rt":4919,"stimulus":"[\"img/0764/55b3fab1-b809-4d38-a461-3f40ce062f52.jpg\",\"img/0903/97a42b34-5462-4665-88c7-83c014b33d24.jpg\"]","trial_type":"similarity","trial_index":66,"time_elapsed":639994,"internal_node_id":"0.0-6.0-60.0"},{"sim_score":5,"rt":5345,"stimulus":"[\"img/0899/7f9d45d0-b2c6-40d3-aa41-c207db2c411b.jpg\",\"img/0899/0adc0bc3-6fca-4078-be6f-d45ddf1653d5.jpg\"]","trial_type":"similarity","trial_index":67,"time_elapsed":646346,"internal_node_id":"0.0-6.0-61.0"},{"sim_score":6,"rt":6658,"stimulus":"[\"img/0860/f44ba3fb-03a2-42f0-8509-2c1ded493086.jpg\",\"img/0875/fb732ab5-013a-4366-9f65-27811ed157e9.jpg\"]","trial_type":"similarity","trial_index":68,"time_elapsed":654010,"internal_node_id":"0.0-6.0-62.0"},{"sim_score":2,"rt":5570,"stimulus":"[\"img/0868/8b0b8473-e2c0-4331-aa56-c3a5c29369da.jpg\",\"img/0874/3f471690-9788-4d03-90c7-f615aecef149.jpg\"]","trial_type":"similarity","trial_index":69,"time_elapsed":660587,"internal_node_id":"0.0-6.0-63.0"},{"sim_score":6,"rt":6498,"stimulus":"[\"img/0758/7ee8bc8f-c40b-4b3a-84ec-3e83580622d4.jpg\",\"img/0862/fb26cb07-d5a9-4653-813c-f41609f26cd5.jpg\"]","trial_type":"similarity","trial_index":70,"time_elapsed":668092,"internal_node_id":"0.0-6.0-64.0"},{"sim_score":6,"rt":9737,"stimulus":"[\"img/0904/56e73f28-7e64-489b-a161-e6b1a063878d.jpg\",\"img/0898/a8f16b02-e19f-423b-86c3-a36562ae1f9b.jpg\"]","trial_type":"similarity","trial_index":71,"time_elapsed":678834,"internal_node_id":"0.0-6.0-65.0"},{"sim_score":7,"rt":5563,"stimulus":"[\"img/0881/445edb15-bd7f-4af3-8bd5-c6ad9677bb31.jpg\",\"img/0866/a15b02be-11bb-43e3-b0e0-ecc3bd7dfc49.jpg\"]","trial_type":"similarity","trial_index":72,"time_elapsed":685402,"internal_node_id":"0.0-6.0-66.0"},{"sim_score":5,"rt":5307,"stimulus":"[\"img/0867/c71dc569-f49c-4397-8381-68b8d726736d.jpg\",\"img/0898/8605a25b-6895-476d-8c13-df7a83f96093.jpg\"]","trial_type":"similarity","trial_index":73,"time_elapsed":691714,"internal_node_id":"0.0-6.0-67.0"},{"sim_score":7,"rt":6138,"stimulus":"[\"img/0902/1a120fb9-dbd6-443e-ba91-b4aceab963da.jpg\",\"img/0764/0e7ed062-f798-4366-8a24-6f430926f919.jpg\"]","trial_type":"similarity","trial_index":74,"time_elapsed":698858,"internal_node_id":"0.0-6.0-68.0"},{"sim_score":5,"rt":5963,"stimulus":"[\"img/0875/d59ff733-eaff-4ee2-9443-06954dd0bcb6.jpg\",\"img/0867/f8488a47-94ee-4166-952c-44e16cf172f6.jpg\"]","trial_type":"similarity","trial_index":75,"time_elapsed":705826,"internal_node_id":"0.0-6.0-69.0"},{"sim_score":7,"rt":5027,"stimulus":"[\"img/0766/5d6e0d1d-4369-41f0-a64c-91f3503055c7.jpg\",\"img/0764/d7f3ac54-318a-4dac-a06b-62bed34d01a4.jpg\"]","trial_type":"similarity","trial_index":76,"time_elapsed":711858,"internal_node_id":"0.0-6.0-70.0"},{"sim_score":5,"rt":5299,"stimulus":"[\"img/0894/2217bdcd-23a7-42d3-823b-23f2488d7e87.jpg\",\"img/0867/f8159067-056c-41f1-a136-c529fe5e970a.jpg\"]","trial_type":"similarity","trial_index":77,"time_elapsed":718162,"internal_node_id":"0.0-6.0-71.0"},{"sim_score":3,"rt":6755,"stimulus":"[\"img/0875/f87b67d7-c33e-40d1-b281-248c4be1cb6e.jpg\",\"img/0764/f713847b-4832-42d1-8fb3-e17e37fd745c.jpg\"]","trial_type":"similarity","trial_index":78,"time_elapsed":725922,"internal_node_id":"0.0-6.0-72.0"},{"sim_score":7,"rt":5451,"stimulus":"[\"img/0867/1719a35d-f085-48c0-9099-16c94fe418b4.jpg\",\"img/0866/23a224f3-2012-4fc8-8e0f-3c36f8de27fd.jpg\"]","trial_type":"similarity","trial_index":79,"time_elapsed":732378,"internal_node_id":"0.0-6.0-73.0"},{"sim_score":5,"rt":6642,"stimulus":"[\"img/0903/0e5c2854-42aa-48c0-9c3d-6e1ad2a400bd.jpg\",\"img/0758/7ffbc76b-1fc1-432c-8f7e-9ec8d1b3f643.jpg\"]","trial_type":"similarity","trial_index":80,"time_elapsed":740026,"internal_node_id":"0.0-6.0-74.0"},{"sim_score":2,"rt":5539,"stimulus":"[\"img/0766/33aa9ebb-c9f5-418f-8c8b-c77861889568.jpg\",\"img/0868/0d3abd3a-b6c3-4584-a9f7-e2da63748b3d.jpg\"]","trial_type":"similarity","trial_index":81,"time_elapsed":746570,"internal_node_id":"0.0-6.0-75.0"},{"sim_score":5,"rt":6604,"stimulus":"[\"img/0874/bf14b896-e930-4fd9-9c05-2e83317a2773.jpg\",\"img/0766/b84598d0-5b41-4841-88b0-b441b48289f5.jpg\"]","trial_type":"similarity","trial_index":82,"time_elapsed":754178,"internal_node_id":"0.0-6.0-76.0"},{"sim_score":1,"rt":4269,"stimulus":"[\"img/0881/2a8413be-fec2-4de6-88ad-614dd4cccc9d.jpg\",\"img/0868/179a5502-ab5c-478e-8263-5a1fbcc101d2.jpg\"]","trial_type":"similarity","trial_index":83,"time_elapsed":759450,"internal_node_id":"0.0-6.0-77.0"},{"sim_score":2,"rt":8298,"stimulus":"[\"img/0758/d41c06bf-ebaf-454b-91c6-1a17f917b659.jpg\",\"img/0901/50e1d53e-a49f-4806-8610-be6dec5a2475.jpg\"]","trial_type":"similarity","trial_index":84,"time_elapsed":768754,"internal_node_id":"0.0-6.0-78.0"},{"sim_score":6,"rt":4411,"stimulus":"[\"img/0881/633c6f40-56d9-4b48-bf1c-ecd83116eabb.jpg\",\"img/0898/26c41340-15bd-4ead-8fe4-c0d0ddca09c2.jpg\"]","trial_type":"similarity","trial_index":85,"time_elapsed":774170,"internal_node_id":"0.0-6.0-79.0"},{"sim_score":1,"rt":5909,"stimulus":"[\"img/0867/26611f4e-d694-4460-b7e2-43c62753ddc3.jpg\",\"img/0758/e38fd80d-18d0-42f3-b848-f930788e8bd7.jpg\"]","trial_type":"similarity","trial_index":86,"time_elapsed":781082,"internal_node_id":"0.0-6.0-80.0"},{"sim_score":6,"rt":6675,"stimulus":"[\"img/0769/04347740-f8f6-48bb-887a-f68babd0a0d4.jpg\",\"img/0899/66ab3178-c3fe-4455-ad17-d5952b08e018.jpg\"]","trial_type":"similarity","trial_index":87,"time_elapsed":788762,"internal_node_id":"0.0-6.0-81.0"},{"sim_score":7,"rt":5027,"stimulus":"[\"img/0903/71dbc325-b588-4297-a5cf-7f268a722ad9.jpg\",\"img/0903/12bd8657-92e6-4c36-a06c-597e7a1d51f3.jpg\"]","trial_type":"similarity","trial_index":88,"time_elapsed":794794,"internal_node_id":"0.0-6.0-82.0"},{"sim_score":1,"rt":3844,"stimulus":"[\"img/0867/ac1797e4-8afc-48fe-b252-86d1defb1cca.jpg\",\"img/0766/aaec5f42-7f0a-4a16-aeca-488d757acbcc.jpg\"]","trial_type":"similarity","trial_index":89,"time_elapsed":822386,"internal_node_id":"0.0-6.0-83.0"},{"sim_score":1,"rt":5043,"stimulus":"[\"img/0902/7f1dcd35-237a-4995-9e42-7f63f3f434d4.jpg\",\"img/0867/12264664-1860-46df-8c21-162b9817cdda.jpg\"]","trial_type":"similarity","trial_index":90,"time_elapsed":828434,"internal_node_id":"0.0-6.0-84.0"},{"sim_score":6,"rt":4355,"stimulus":"[\"img/0901/b13fa50f-dbe0-4d0f-8647-6ac0fd8f40bd.jpg\",\"img/0875/2c361b79-c3d1-4eda-812e-bf03192407bf.jpg\"]","trial_type":"similarity","trial_index":91,"time_elapsed":833794,"internal_node_id":"0.0-6.0-85.0"},{"sim_score":2,"rt":4404,"stimulus":"[\"img/0764/4bec8d92-75aa-475a-954d-8215dbe538f5.jpg\",\"img/0866/11a1d141-be5e-443c-98c1-a9d4d9e3dec0.jpg\"]","trial_type":"similarity","trial_index":92,"time_elapsed":839202,"internal_node_id":"0.0-6.0-86.0"},{"sim_score":6,"rt":7388,"stimulus":"[\"img/0901/bc47e078-bda4-40ed-b89a-bbd819164b95.jpg\",\"img/0894/11674fa4-285d-44e2-939f-2228c6a64080.jpg\"]","trial_type":"similarity","trial_index":93,"time_elapsed":847594,"internal_node_id":"0.0-6.0-87.0"},{"sim_score":7,"rt":3290,"stimulus":"[\"img/0898/5f699581-3853-4547-856c-12f419ba5af7.jpg\",\"img/0769/db94b61b-a5a7-4861-9d32-7b02ad194fb0.jpg\"]","trial_type":"similarity","trial_index":94,"time_elapsed":851890,"internal_node_id":"0.0-6.0-88.0"},{"sim_score":7,"rt":3973,"stimulus":"[\"img/0769/0fe124d3-bcad-45f6-b64d-8f6eb8ee5251.jpg\",\"img/0894/5f15154e-e72e-4ce5-aafb-bce6f0564006.jpg\"]","trial_type":"similarity","trial_index":95,"time_elapsed":856867,"internal_node_id":"0.0-6.0-89.0"},{"sim_score":6,"rt":5642,"stimulus":"[\"img/0862/e8cc3bdf-cc43-4565-bccf-492626c70953.jpg\",\"img/0874/3ce41e7c-40c8-4d58-a546-171114521796.jpg\"]","trial_type":"similarity","trial_index":96,"time_elapsed":863513,"internal_node_id":"0.0-6.0-90.0"},{"sim_score":6,"rt":5084,"stimulus":"[\"img/0894/8cadb87a-7001-4e47-99fb-1867bebf1668.jpg\",\"img/0766/fd064894-7147-4af5-97e9-2089d5472656.jpg\"]","trial_type":"similarity","trial_index":97,"time_elapsed":869602,"internal_node_id":"0.0-6.0-91.0"},{"sim_score":1,"rt":3483,"stimulus":"[\"img/0874/a82926a3-0b43-4add-803c-d5f9ea7798ee.jpg\",\"img/0867/7d1c497b-c1b3-4ed8-abb5-d7f73306015f.jpg\"]","trial_type":"similarity","trial_index":98,"time_elapsed":874095,"internal_node_id":"0.0-6.0-92.0"},{"sim_score":2,"rt":4745,"stimulus":"[\"img/0899/57476fed-5962-4272-8fc9-b317bb777b54.jpg\",\"img/0868/d6d1f30d-4323-435a-b194-7892521bc57e.jpg\"]","trial_type":"similarity","trial_index":99,"time_elapsed":879850,"internal_node_id":"0.0-6.0-93.0"},{"sim_score":3,"rt":5363,"stimulus":"[\"img/0903/bf0a7d60-eca5-44b0-bafd-baf21db9904b.jpg\",\"img/0862/ba89835a-408c-480b-8594-ed4ffa97eb5c.jpg\"]","trial_type":"similarity","trial_index":100,"time_elapsed":886218,"internal_node_id":"0.0-6.0-94.0"},{"sim_score":6,"rt":4810,"stimulus":"[\"img/0899/565ccdd9-0933-4536-a625-3c0e25a713dd.jpg\",\"img/0766/e8052e17-9dae-4139-802b-6e590cb2d526.jpg\"]","trial_type":"similarity","trial_index":101,"time_elapsed":892034,"internal_node_id":"0.0-6.0-95.0"},{"sim_score":7,"rt":3738,"stimulus":"[\"img/0867/a749dddb-69f0-44a6-acdc-2bf295cf6dcc.jpg\",\"img/0868/d98ca254-b195-477f-b57e-5760a2717db8.jpg\"]","trial_type":"similarity","trial_index":102,"time_elapsed":896778,"internal_node_id":"0.0-6.0-96.0"},{"sim_score":6,"rt":5155,"stimulus":"[\"img/0862/5d887e9f-89e2-4ebc-80a0-6d46fe6480db.jpg\",\"img/0901/3db47171-0139-4235-82cd-0b1787b6775f.jpg\"]","trial_type":"similarity","trial_index":103,"time_elapsed":902938,"internal_node_id":"0.0-6.0-97.0"},{"sim_score":5,"rt":4419,"stimulus":"[\"img/0875/5a1e5100-0d94-4fec-bbe9-ca9894d2cf8e.jpg\",\"img/0766/d919cedb-f9b7-4f30-83bb-3e9c65001ceb.jpg\"]","trial_type":"similarity","trial_index":104,"time_elapsed":908362,"internal_node_id":"0.0-6.0-98.0"},{"sim_score":2,"rt":5548,"stimulus":"[\"img/0758/61d64021-9214-4951-bdf8-f871f9827cf9.jpg\",\"img/0874/ca23d307-fc00-4d7d-9106-584c6eb21b4d.jpg\"]","trial_type":"similarity","trial_index":105,"time_elapsed":914914,"internal_node_id":"0.0-6.0-99.0"},{"sim_score":2,"rt":5084,"stimulus":"[\"img/0904/ba8e689e-9ca6-4608-a2a1-3b0940666ae6.jpg\",\"img/0868/83b4350a-3b70-4cea-b7f5-b5b56f3050a8.jpg\"]","trial_type":"similarity","trial_index":106,"time_elapsed":921002,"internal_node_id":"0.0-6.0-100.0"},{"sim_score":1,"rt":3755,"stimulus":"[\"img/0903/2c7b4aed-6038-4aac-958a-e3e58341c313.jpg\",\"img/0866/be24ab58-230e-4db8-9f45-ff04c9aec6bb.jpg\"]","trial_type":"similarity","trial_index":107,"time_elapsed":925761,"internal_node_id":"0.0-6.0-101.0"},{"sim_score":1,"rt":3858,"stimulus":"[\"img/0868/fd307a36-9a3a-47d7-ab7c-f810d0b35040.jpg\",\"img/0769/9ea9ceb6-049e-4ad9-be8f-00645cd35803.jpg\"]","trial_type":"similarity","trial_index":108,"time_elapsed":930625,"internal_node_id":"0.0-6.0-102.0"},{"sim_score":2,"rt":7257,"stimulus":"[\"img/0902/07437a16-3d0f-4a5c-89ec-36d0efa4b3b8.jpg\",\"img/0899/25ae6ec8-9565-49fe-a8bb-8d0666f52716.jpg\"]","trial_type":"similarity","trial_index":109,"time_elapsed":938889,"internal_node_id":"0.0-6.0-103.0"},{"sim_score":1,"rt":3618,"stimulus":"[\"img/0868/293079b8-7e0c-4afd-a390-1e5d35fe3ded.jpg\",\"img/0862/00c06b00-3b73-44e9-bc1e-c5aafb438321.jpg\"]","trial_type":"similarity","trial_index":110,"time_elapsed":943513,"internal_node_id":"0.0-6.0-104.0"},{"sim_score":6,"rt":4515,"stimulus":"[\"img/0903/36e4ab1f-caa9-40b3-8616-faada076df94.jpg\",\"img/0894/e5edf723-72a5-4673-8441-6c1734a8929b.jpg\"]","trial_type":"similarity","trial_index":111,"time_elapsed":949033,"internal_node_id":"0.0-6.0-105.0"},{"sim_score":7,"rt":4386,"stimulus":"[\"img/0864/5f33e097-23e3-4002-882d-76e8cb15f451.jpg\",\"img/0874/31e22c7c-99aa-40b1-bf03-dd73fa2df4d6.jpg\"]","trial_type":"similarity","trial_index":112,"time_elapsed":954425,"internal_node_id":"0.0-6.0-106.0"},{"sim_score":7,"rt":4539,"stimulus":"[\"img/0862/53a9cf7c-93c4-41b9-952f-07d17f7a17b2.jpg\",\"img/0902/2a7ac123-414a-476a-9a96-4757b924baef.jpg\"]","trial_type":"similarity","trial_index":113,"time_elapsed":959969,"internal_node_id":"0.0-6.0-107.0"},{"sim_score":7,"rt":3635,"stimulus":"[\"img/0904/24fc38fe-842c-4831-ad8a-b1de5c25c0a8.jpg\",\"img/0903/6f343da5-00d9-4d50-89d1-2ed24cdb8319.jpg\"]","trial_type":"similarity","trial_index":114,"time_elapsed":964609,"internal_node_id":"0.0-6.0-108.0"},{"sim_score":6,"rt":5107,"stimulus":"[\"img/0764/ef0e64c6-d0dd-4dc6-87b6-ce5c0665f421.jpg\",\"img/0864/e8bd659f-aa43-4748-877e-3118e8b4e189.jpg\"]","trial_type":"similarity","trial_index":115,"time_elapsed":970721,"internal_node_id":"0.0-6.0-109.0"},{"sim_score":1,"rt":4469,"stimulus":"[\"img/0866/c446214b-a368-4c65-ae39-ea46894256ab.jpg\",\"img/0894/792c83e9-a747-4000-bc72-5663d2439edb.jpg\"]","trial_type":"similarity","trial_index":116,"time_elapsed":976193,"internal_node_id":"0.0-6.0-110.0"},{"sim_score":3,"rt":4458,"stimulus":"[\"img/0899/ad8268c5-8199-48d0-ad70-c5b6d6c599ec.jpg\",\"img/0903/b7e3723f-fd03-4f3d-8820-f19496463a34.jpg\"]","trial_type":"similarity","trial_index":117,"time_elapsed":981657,"internal_node_id":"0.0-6.0-111.0"},{"sim_score":5,"rt":4915,"stimulus":"[\"img/0902/cdec1bc6-7f90-4f72-9e01-f5a4111bac1d.jpg\",\"img/0904/96e503ea-6630-4996-85f2-0237688ce441.jpg\"]","trial_type":"similarity","trial_index":118,"time_elapsed":987577,"internal_node_id":"0.0-6.0-112.0"},{"sim_score":6,"rt":3899,"stimulus":"[\"img/0864/1d15626a-2f7c-410f-819c-0fa2c967e95e.jpg\",\"img/0860/31ff6436-98bf-4652-bed2-40f627229568.jpg\"]","trial_type":"similarity","trial_index":119,"time_elapsed":992481,"internal_node_id":"0.0-6.0-113.0"},{"sim_score":2,"rt":4836,"stimulus":"[\"img/0860/87039971-2210-4aab-93c0-8e9b5f1655b2.jpg\",\"img/0899/4408c14d-c168-4a7d-96f6-bc87bfb58f83.jpg\"]","trial_type":"similarity","trial_index":120,"time_elapsed":998321,"internal_node_id":"0.0-6.0-114.0"},{"sim_score":1,"rt":3716,"stimulus":"[\"img/0881/48ed65a5-471f-41af-86ec-3793805c116d.jpg\",\"img/0903/b548d383-2a95-4575-8c13-647873751ff1.jpg\"]","trial_type":"similarity","trial_index":121,"time_elapsed":1003041,"internal_node_id":"0.0-6.0-115.0"},{"sim_score":1,"rt":3755,"stimulus":"[\"img/0894/c505c65a-cde2-4f2c-8cde-f8676f7c894d.jpg\",\"img/0874/7e4f2150-3b59-4a36-b5da-a4e0ba410531.jpg\"]","trial_type":"similarity","trial_index":122,"time_elapsed":1007801,"internal_node_id":"0.0-6.0-116.0"},{"sim_score":5,"rt":4506,"stimulus":"[\"img/0881/c843e210-bdfe-4a7c-8bbe-fcea1f90fe1c.jpg\",\"img/0862/fad1d7c1-8187-43c3-942a-0fc12183e48e.jpg\"]","trial_type":"similarity","trial_index":123,"time_elapsed":1013313,"internal_node_id":"0.0-6.0-117.0"},{"sim_score":5,"rt":4243,"stimulus":"[\"img/0868/77091fc7-a590-4ebb-b915-fdb2483a2399.jpg\",\"img/0875/90da8d75-108a-44ad-b999-e21fee3860d3.jpg\"]","trial_type":"similarity","trial_index":124,"time_elapsed":1018561,"internal_node_id":"0.0-6.0-118.0"},{"sim_score":3,"rt":4459,"stimulus":"[\"img/0860/e8b8c51e-1834-4875-8b61-6c5bc9b178bd.jpg\",\"img/0758/dd559618-7f09-4a07-8018-d311c4a5ea29.jpg\"]","trial_type":"similarity","trial_index":125,"time_elapsed":1024025,"internal_node_id":"0.0-6.0-119.0"},{"sim_score":1,"rt":4332,"stimulus":"[\"img/0864/300bb811-8b3c-4c42-8653-6097c3725197.jpg\",\"img/0875/3ecb367d-e9eb-4826-8aaa-7aa72fb98019.jpg\"]","trial_type":"similarity","trial_index":126,"time_elapsed":1029361,"internal_node_id":"0.0-6.0-120.0"},{"sim_score":1,"rt":3852,"stimulus":"[\"img/0898/0c7dde4f-efce-4b7a-9387-6921635b7890.jpg\",\"img/0866/bf14b5bd-fb55-47db-86b9-4f8aeb9a6dad.jpg\"]","trial_type":"similarity","trial_index":127,"time_elapsed":1034217,"internal_node_id":"0.0-6.0-121.0"},{"sim_score":1,"rt":4027,"stimulus":"[\"img/0874/99f6563c-8a8d-4c1c-a41d-667b618c3fd5.jpg\",\"img/0904/9b3568cc-3cf7-42be-9df3-fdafde7a58b8.jpg\"]","trial_type":"similarity","trial_index":128,"time_elapsed":1039249,"internal_node_id":"0.0-6.0-122.0"},{"sim_score":3,"rt":4235,"stimulus":"[\"img/0904/2c98dc56-88d1-4fb5-a999-b6a7861f65f0.jpg\",\"img/0864/6f631579-acf1-415c-a42c-1207f62a8d99.jpg\"]","trial_type":"similarity","trial_index":129,"time_elapsed":1044489,"internal_node_id":"0.0-6.0-123.0"},{"sim_score":2,"rt":4883,"stimulus":"[\"img/0894/4739e06d-c31e-4bf1-bf91-c97fa9afb456.jpg\",\"img/0902/3f0eeac5-c996-4026-a376-563ce8f28521.jpg\"]","trial_type":"similarity","trial_index":130,"time_elapsed":1050377,"internal_node_id":"0.0-6.0-124.0"},{"sim_score":1,"rt":2969,"stimulus":"[\"img/0868/4e626425-63c8-484a-8a1d-e66ee4e0bef8.jpg\",\"img/0864/6e846d43-94a6-4b37-a268-65eda979f052.jpg\"]","trial_type":"similarity","trial_index":131,"time_elapsed":1063249,"internal_node_id":"0.0-6.0-125.0"},{"sim_score":1,"rt":4459,"stimulus":"[\"img/0899/0433d056-aa30-4f8a-9aa1-abbb951e4edd.jpg\",\"img/0866/f756f7d1-9ad8-4a34-9ef6-7a443d705bfe.jpg\"]","trial_type":"similarity","trial_index":132,"time_elapsed":1068718,"internal_node_id":"0.0-6.0-126.0"},{"sim_score":2,"rt":3114,"stimulus":"[\"img/0875/e7e66b13-b573-431e-b85e-288ce04a35a3.jpg\",\"img/0904/25365108-e038-4021-aac9-797f2063b337.jpg\"]","trial_type":"similarity","trial_index":133,"time_elapsed":1072841,"internal_node_id":"0.0-6.0-127.0"},{"sim_score":2,"rt":4067,"stimulus":"[\"img/0867/bf560d4f-dee3-4f11-a385-705cc1aa5f3c.jpg\",\"img/0899/d8f2dd94-570e-4e8c-a087-d96090fb9e8c.jpg\"]","trial_type":"similarity","trial_index":134,"time_elapsed":1077913,"internal_node_id":"0.0-6.0-128.0"},{"sim_score":5,"rt":5332,"stimulus":"[\"img/0901/b123d109-47b4-4f9a-80c9-9bb16da42efa.jpg\",\"img/0867/a498eef3-9fa4-4ab2-9778-4ae82ac40dc5.jpg\"]","trial_type":"similarity","trial_index":135,"time_elapsed":1084251,"internal_node_id":"0.0-6.0-129.0"},{"sim_score":6,"rt":4256,"stimulus":"[\"img/0864/e02eddb5-f468-499c-91bf-f7be3ffe979b.jpg\",\"img/0769/e31b3bd8-efcb-413e-aa8c-75fac2b8f2ac.jpg\"]","trial_type":"similarity","trial_index":136,"time_elapsed":1089513,"internal_node_id":"0.0-6.0-130.0"},{"sim_score":2,"rt":5043,"stimulus":"[\"img/0903/f1fa0f8d-e62b-4b4a-a174-31a0fabfe61b.jpg\",\"img/0868/c8ac40c7-6904-4e13-8d61-c75d3052dc4e.jpg\"]","trial_type":"similarity","trial_index":137,"time_elapsed":1095561,"internal_node_id":"0.0-6.0-131.0"},{"sim_score":1,"rt":4433,"stimulus":"[\"img/0864/66091c27-e588-4476-8af9-265dc6be4156.jpg\",\"img/0867/de92135f-5b65-4ed9-b245-188292c7c2f8.jpg\"]","trial_type":"similarity","trial_index":138,"time_elapsed":1101001,"internal_node_id":"0.0-6.0-132.0"},{"sim_score":3,"rt":4738,"stimulus":"[\"img/0901/71e551a2-9ce2-409c-9c7c-dd556a0791e9.jpg\",\"img/0860/d9a0d117-6d1d-41c0-8fec-9aff0fd9e9f2.jpg\"]","trial_type":"similarity","trial_index":139,"time_elapsed":1106745,"internal_node_id":"0.0-6.0-133.0"},{"sim_score":5,"rt":4540,"stimulus":"[\"img/0881/dea58fad-b4f1-41d9-bd3f-916eff19a3fd.jpg\",\"img/0766/2da002a4-05c9-4f5c-9ed7-433b4183e273.jpg\"]","trial_type":"similarity","trial_index":140,"time_elapsed":1112289,"internal_node_id":"0.0-6.0-134.0"},{"sim_score":2,"rt":5130,"stimulus":"[\"img/0903/81368973-de81-46f4-844f-b901f3bfd66d.jpg\",\"img/0864/a248adb3-c70b-4652-b7a3-776d2a1e904b.jpg\"]","trial_type":"similarity","trial_index":141,"time_elapsed":1118425,"internal_node_id":"0.0-6.0-135.0"},{"sim_score":3,"rt":5489,"stimulus":"[\"img/0758/65d426d6-3ff6-415d-8654-a43b83ecc4fe.jpg\",\"img/0894/1a010553-d598-4b06-a772-81f1e7b3addb.jpg\"]","trial_type":"similarity","trial_index":142,"time_elapsed":1124921,"internal_node_id":"0.0-6.0-136.0"},{"sim_score":5,"rt":5953,"stimulus":"[\"img/0769/75f7e514-0548-4329-b1e4-93c05e74f038.jpg\",\"img/0860/c3379ff7-0763-48fe-a1ec-7ea3d611bc7a.jpg\"]","trial_type":"similarity","trial_index":143,"time_elapsed":1131881,"internal_node_id":"0.0-6.0-137.0"},{"sim_score":6,"rt":3731,"stimulus":"[\"img/0904/d23dd7be-7fe8-4435-82f7-bd592c01e6a1.jpg\",\"img/0766/ba35c0fc-4d5b-490d-959e-c94b279cdd02.jpg\"]","trial_type":"similarity","trial_index":144,"time_elapsed":1136617,"internal_node_id":"0.0-6.0-138.0"},{"sim_score":1,"rt":3555,"stimulus":"[\"img/0868/3a62db2d-97e9-44a3-b8e3-a48c6f0e423b.jpg\",\"img/0860/4a022222-056d-461c-ab02-39fac9647552.jpg\"]","trial_type":"similarity","trial_index":145,"time_elapsed":1141177,"internal_node_id":"0.0-6.0-139.0"},{"sim_score":7,"rt":4066,"stimulus":"[\"img/0758/ddc336e9-a8b6-4bb9-937a-c7e25e0e9250.jpg\",\"img/0864/65210d57-1153-4657-886a-32e758f49b4a.jpg\"]","trial_type":"similarity","trial_index":146,"time_elapsed":1146249,"internal_node_id":"0.0-6.0-140.0"},{"sim_score":7,"rt":4170,"stimulus":"[\"img/0867/2e1a0b58-cdb1-4107-a14e-452530d7b9b0.jpg\",\"img/0867/c66898ba-b71b-4d50-84f9-f7f84853a98d.jpg\"]","trial_type":"similarity","trial_index":147,"time_elapsed":1151425,"internal_node_id":"0.0-6.0-141.0"},{"sim_score":6,"rt":4411,"stimulus":"[\"img/0898/881e2a85-d5c2-49be-a0c6-8a6ce2c4af08.jpg\",\"img/0898/08c72dac-f8ad-407a-9ce6-8c9a5d679c3a.jpg\"]","trial_type":"similarity","trial_index":148,"time_elapsed":1156841,"internal_node_id":"0.0-6.0-142.0"},{"sim_score":2,"rt":3819,"stimulus":"[\"img/0866/9b38d691-1802-4959-ab3f-fc902f0e4ea6.jpg\",\"img/0769/b664b502-a86c-46c1-ad6f-5ebffc2e1bd3.jpg\"]","trial_type":"similarity","trial_index":149,"time_elapsed":1161664,"internal_node_id":"0.0-6.0-143.0"},{"sim_score":3,"rt":4699,"stimulus":"[\"img/0860/b03b963d-949b-4d8d-b19c-4950c89eeca2.jpg\",\"img/0898/ec565187-2e31-4fdd-9a5c-153d0c789ae0.jpg\"]","trial_type":"similarity","trial_index":150,"time_elapsed":1167369,"internal_node_id":"0.0-6.0-144.0"},{"sim_score":6,"rt":5107,"stimulus":"[\"img/0766/110832e5-2646-4bd0-a94e-5df8cc314269.jpg\",\"img/0864/8ddd2e30-a1d0-479f-9cbe-591213023893.jpg\"]","trial_type":"similarity","trial_index":151,"time_elapsed":1173481,"internal_node_id":"0.0-6.0-145.0"},{"sim_score":5,"rt":6130,"stimulus":"[\"img/0860/71e1aad0-2cdf-43bb-94a4-a8c016997c30.jpg\",\"img/0903/b0df4094-a3be-4b5b-81bd-8d260f13f61b.jpg\"]","trial_type":"similarity","trial_index":152,"time_elapsed":1180617,"internal_node_id":"0.0-6.0-146.0"},{"sim_score":1,"rt":3891,"stimulus":"[\"img/0867/179ab87a-8eac-4c52-a41f-2e48e3120f09.jpg\",\"img/0764/a3226bc4-dcc3-4608-bde8-1414d685ce5c.jpg\"]","trial_type":"similarity","trial_index":153,"time_elapsed":1185513,"internal_node_id":"0.0-6.0-147.0"},{"sim_score":6,"rt":4475,"stimulus":"[\"img/0769/387a9744-d6a7-42b8-bab8-33007ec434aa.jpg\",\"img/0904/da170c1b-9651-4f08-b231-2bdd1d9a046f.jpg\"]","trial_type":"similarity","trial_index":154,"time_elapsed":1190992,"internal_node_id":"0.0-6.0-148.0"},{"sim_score":1,"rt":3947,"stimulus":"[\"img/0764/ec2dd087-c471-4370-b570-95a542506a96.jpg\",\"img/0901/4d1bed7e-3c4e-4f6c-ada9-4beb66ba9e39.jpg\"]","trial_type":"similarity","trial_index":155,"time_elapsed":1195945,"internal_node_id":"0.0-6.0-149.0"},{"sim_score":5,"rt":6484,"stimulus":"[\"img/0904/06dacdc5-2206-4fb8-92b7-88042d22833c.jpg\",\"img/0899/a048912c-b12c-40e3-90af-46b69b0cc4fe.jpg\"]","trial_type":"similarity","trial_index":156,"time_elapsed":1203432,"internal_node_id":"0.0-6.0-150.0"},{"sim_score":1,"rt":3900,"stimulus":"[\"img/0862/47ed5efd-4ec9-4b74-bb4e-a5f5cf0c3e7d.jpg\",\"img/0867/cc72ed48-7704-422c-86d6-467a1145287a.jpg\"]","trial_type":"similarity","trial_index":157,"time_elapsed":1208337,"internal_node_id":"0.0-6.0-151.0"},{"sim_score":7,"rt":4226,"stimulus":"[\"img/0766/d8221e53-2300-4d99-ae1b-0bfb0eabe579.jpg\",\"img/0766/d5d38751-8fa5-476f-93e9-86ed2d9045ef.jpg\"]","trial_type":"similarity","trial_index":158,"time_elapsed":1213568,"internal_node_id":"0.0-6.0-152.0"},{"sim_score":2,"rt":6402,"stimulus":"[\"img/0862/eefa5588-9efd-4591-aa5f-a2e17c7d7bcc.jpg\",\"img/0894/3664e04c-c6d3-4c9b-afb6-25d89974b174.jpg\"]","trial_type":"similarity","trial_index":159,"time_elapsed":1220976,"internal_node_id":"0.0-6.0-153.0"},{"sim_score":1,"rt":4923,"stimulus":"[\"img/0899/8de08897-b430-42fe-9d42-840670b80f94.jpg\",\"img/0901/a9b9c0a0-8aed-4888-a78a-65fb7e764d13.jpg\"]","trial_type":"similarity","trial_index":160,"time_elapsed":1226905,"internal_node_id":"0.0-6.0-154.0"},{"sim_score":7,"rt":5258,"stimulus":"[\"img/0874/adf9a8f1-c40b-402b-b95b-1e85a54a7b62.jpg\",\"img/0874/eba003b4-cdab-4eee-8bc3-f064c7d94165.jpg\"]","trial_type":"similarity","trial_index":161,"time_elapsed":1233168,"internal_node_id":"0.0-6.0-155.0"},{"sim_score":5,"rt":5106,"stimulus":"[\"img/0860/5383b320-1518-4095-a58e-5cc1ae30b64c.jpg\",\"img/0867/f26f6b60-f772-4f4c-95a4-addc62cfd692.jpg\"]","trial_type":"similarity","trial_index":162,"time_elapsed":1239281,"internal_node_id":"0.0-6.0-156.0"},{"sim_score":5,"rt":5108,"stimulus":"[\"img/0901/4f9cffe0-c0be-4d7f-bacd-9d51efd19b4a.jpg\",\"img/0881/54ea8e77-c7e5-4197-b7fa-00b7020849a7.jpg\"]","trial_type":"similarity","trial_index":163,"time_elapsed":1245392,"internal_node_id":"0.0-6.0-157.0"},{"sim_score":3,"rt":4452,"stimulus":"[\"img/0903/365f176c-25a4-4973-bd3c-279bf1b39476.jpg\",\"img/0902/6c2c243a-f663-45db-baf5-038d3d58c589.jpg\"]","trial_type":"similarity","trial_index":164,"time_elapsed":1250848,"internal_node_id":"0.0-6.0-158.0"},{"sim_score":5,"rt":8443,"stimulus":"[\"img/0860/15b24a61-25be-4356-9eac-5ce95d0cb4a4.jpg\",\"img/0764/29072395-f595-4e3c-83d3-ff87010039fa.jpg\"]","trial_type":"similarity","trial_index":165,"time_elapsed":1260296,"internal_node_id":"0.0-6.0-159.0"},{"sim_score":2,"rt":4780,"stimulus":"[\"img/0902/b03129ba-b087-4558-af37-e8399d6217d6.jpg\",\"img/0875/527ced51-8e53-4aab-ab05-86df219104c0.jpg\"]","trial_type":"similarity","trial_index":166,"time_elapsed":1266080,"internal_node_id":"0.0-6.0-160.0"},{"sim_score":6,"rt":5721,"stimulus":"[\"img/0898/b2732712-71c2-45d8-834f-2b2ed5504910.jpg\",\"img/0862/de9ad88c-b522-430a-8ee9-eb06a9f85df5.jpg\"]","trial_type":"similarity","trial_index":167,"time_elapsed":1272808,"internal_node_id":"0.0-6.0-161.0"},{"sim_score":3,"rt":6002,"stimulus":"[\"img/0894/492d2f29-d7b9-4422-8be8-47fd58bfaa8b.jpg\",\"img/0875/cff79b3a-a797-4393-9757-6275f999ec04.jpg\"]","trial_type":"similarity","trial_index":168,"time_elapsed":1279816,"internal_node_id":"0.0-6.0-162.0"},{"sim_score":2,"rt":6267,"stimulus":"[\"img/0866/d493a2c8-66eb-44b4-be02-2f327b700b7c.jpg\",\"img/0864/1ebbc554-99fa-49f9-8799-317375a79820.jpg\"]","trial_type":"similarity","trial_index":169,"time_elapsed":1287088,"internal_node_id":"0.0-6.0-163.0"},{"sim_score":3,"rt":4466,"stimulus":"[\"img/0766/af3be95e-e52e-4fae-899b-0ff02ec340aa.jpg\",\"img/0862/cdaed51d-9e2f-4807-801a-4663c40077e2.jpg\"]","trial_type":"similarity","trial_index":170,"time_elapsed":1292560,"internal_node_id":"0.0-6.0-164.0"},{"sim_score":1,"rt":4491,"stimulus":"[\"img/0866/8efcaa46-83ab-4dee-a35f-850402aa21ae.jpg\",\"img/0874/c0378dac-9370-439a-8b79-db27c96fb390.jpg\"]","trial_type":"similarity","trial_index":171,"time_elapsed":1298056,"internal_node_id":"0.0-6.0-165.0"},{"sim_score":7,"rt":4338,"stimulus":"[\"img/0862/ad593cc7-cabe-4bb7-8e14-8a447a0717b4.jpg\",\"img/0860/8a92e21b-6a32-4e4a-a445-2d5a487ed0a4.jpg\"]","trial_type":"similarity","trial_index":172,"time_elapsed":1303400,"internal_node_id":"0.0-6.0-166.0"},{"sim_score":1,"rt":4474,"stimulus":"[\"img/0766/3c526a07-9e0a-4ae2-8142-00085f0127da.jpg\",\"img/0901/a6776381-91fe-43f8-ab73-261d318f95fd.jpg\"]","trial_type":"similarity","trial_index":173,"time_elapsed":1315999,"internal_node_id":"0.0-6.0-167.0"},{"sim_score":7,"rt":4307,"stimulus":"[\"img/0862/e697469a-ec19-4414-b972-7b9f3564785b.jpg\",\"img/0862/f43ceabf-acc1-4107-b857-5d1849808f93.jpg\"]","trial_type":"similarity","trial_index":174,"time_elapsed":1321312,"internal_node_id":"0.0-6.0-168.0"},{"sim_score":7,"rt":5355,"stimulus":"[\"img/0894/38cf335f-f76f-4349-8d65-e20cd6859565.jpg\",\"img/0764/713cc27e-2338-4486-bfe9-5f5725fbd7a0.jpg\"]","trial_type":"similarity","trial_index":175,"time_elapsed":1327673,"internal_node_id":"0.0-6.0-169.0"},{"sim_score":3,"rt":5649,"stimulus":"[\"img/0874/29830da7-be5f-44e5-b141-652a0ccf7269.jpg\",\"img/0898/4184e5a2-84ea-4f36-9b42-ae58646f6f87.jpg\"]","trial_type":"similarity","trial_index":176,"time_elapsed":1334328,"internal_node_id":"0.0-6.0-170.0"},{"sim_score":1,"rt":4213,"stimulus":"[\"img/0860/61fb959d-d4d9-4de4-9e4e-4fa62b4cfcd5.jpg\",\"img/0766/717fd72f-a281-499b-a5ba-5e2ecc4d4866.jpg\"]","trial_type":"similarity","trial_index":177,"time_elapsed":1339544,"internal_node_id":"0.0-6.0-171.0"},{"sim_score":5,"rt":4907,"stimulus":"[\"img/0898/40f99fb2-64d2-4e72-8a7f-a1cf60741e69.jpg\",\"img/0864/f92649a2-0590-4d31-9a7a-1bfb81666a2d.jpg\"]","trial_type":"similarity","trial_index":178,"time_elapsed":1345456,"internal_node_id":"0.0-6.0-172.0"},{"sim_score":3,"rt":4899,"stimulus":"[\"img/0881/f7a8cc63-8842-40a4-9ff8-fe530310d62c.jpg\",\"img/0764/d7c215ab-ea9a-45be-8d5f-417d5b9a8a17.jpg\"]","trial_type":"similarity","trial_index":179,"time_elapsed":1351360,"internal_node_id":"0.0-6.0-173.0"},{"sim_score":1,"rt":4388,"stimulus":"[\"img/0898/993d8f2d-bef7-4251-a193-0f93a32b7763.jpg\",\"img/0868/09a9ef4d-d000-4cfa-a6aa-ebec7c2edeb4.jpg\"]","trial_type":"similarity","trial_index":180,"time_elapsed":1356752,"internal_node_id":"0.0-6.0-174.0"},{"sim_score":6,"rt":6452,"stimulus":"[\"img/0864/efcfbb1b-8197-44c9-b723-40d6c608dd3c.jpg\",\"img/0864/0116ca98-293d-4fa6-a93b-5a6144ef64cc.jpg\"]","trial_type":"similarity","trial_index":181,"time_elapsed":1364208,"internal_node_id":"0.0-6.0-175.0"},{"sim_score":3,"rt":4531,"stimulus":"[\"img/0899/00715b3f-851b-420b-a26b-d7f79f7759a9.jpg\",\"img/0862/f23038d4-c366-4f70-979f-66b62362efa4.jpg\"]","trial_type":"similarity","trial_index":182,"time_elapsed":1369744,"internal_node_id":"0.0-6.0-176.0"},{"sim_score":2,"rt":5116,"stimulus":"[\"img/0875/ebf7653f-ff45-4e9f-af58-2c042ab3cd2b.jpg\",\"img/0758/eabcd7a8-56ad-4fd2-bc24-90f6b7b33265.jpg\"]","trial_type":"similarity","trial_index":183,"time_elapsed":1375865,"internal_node_id":"0.0-6.0-177.0"},{"sim_score":2,"rt":7148,"stimulus":"[\"img/0866/93a27239-8317-4e08-98ca-d8b1ff298e07.jpg\",\"img/0901/04a53755-6da5-44d4-a7a6-48a6bc0a2280.jpg\"]","trial_type":"similarity","trial_index":184,"time_elapsed":1384017,"internal_node_id":"0.0-6.0-178.0"},{"sim_score":5,"rt":5276,"stimulus":"[\"img/0769/11518cb3-13ea-4dd0-890c-30cfab728ade.jpg\",\"img/0874/a3bc679d-619f-4db6-bb68-116dcb757d9c.jpg\"]","trial_type":"similarity","trial_index":185,"time_elapsed":1390297,"internal_node_id":"0.0-6.0-179.0"},{"sim_score":3,"rt":4988,"stimulus":"[\"img/0875/5a7c4e35-6514-4e12-8879-d16071da4cd6.jpg\",\"img/0881/609a5e93-38b5-4940-8627-2bf8fad7f802.jpg\"]","trial_type":"similarity","trial_index":186,"time_elapsed":1396289,"internal_node_id":"0.0-6.0-180.0"},{"sim_score":7,"rt":5067,"stimulus":"[\"img/0866/386235d2-6857-41e7-88a8-25cfc3430025.jpg\",\"img/0868/4bd5105a-d2c3-4f82-8c80-57196106ba53.jpg\"]","trial_type":"similarity","trial_index":187,"time_elapsed":1402361,"internal_node_id":"0.0-6.0-181.0"},{"sim_score":6,"rt":5331,"stimulus":"[\"img/0899/8abe6c69-822c-436c-9bf2-96c818b49ba5.jpg\",\"img/0758/335851a0-a55b-46d8-ab05-8463eda48349.jpg\"]","trial_type":"similarity","trial_index":188,"time_elapsed":1408697,"internal_node_id":"0.0-6.0-182.0"},{"sim_score":3,"rt":5292,"stimulus":"[\"img/0874/995f0332-0439-4eb4-add3-957335dbf6d9.jpg\",\"img/0875/03c3c331-738b-4446-af92-3d7386b08c2e.jpg\"]","trial_type":"similarity","trial_index":189,"time_elapsed":1414993,"internal_node_id":"0.0-6.0-183.0"},{"sim_score":2,"rt":5067,"stimulus":"[\"img/0904/2f88ce53-02d0-4f95-a082-182c56a0eeb4.jpg\",\"img/0862/92fcd8a4-8193-4a6a-ae09-dd4a6338b0df.jpg\"]","trial_type":"similarity","trial_index":190,"time_elapsed":1421065,"internal_node_id":"0.0-6.0-184.0"},{"sim_score":3,"rt":5372,"stimulus":"[\"img/0902/51493fab-2a10-4385-aa88-bee3db441626.jpg\",\"img/0766/71b81ebd-0937-4d7f-b8bf-c4e46a4728fd.jpg\"]","trial_type":"similarity","trial_index":191,"time_elapsed":1427441,"internal_node_id":"0.0-6.0-185.0"},{"sim_score":2,"rt":4377,"stimulus":"[\"img/0758/3ddd05d3-557e-4ee7-8b78-9d2d681d8ae2.jpg\",\"img/0769/9ea27d61-3d55-418c-8d14-82e90f656f01.jpg\"]","trial_type":"similarity","trial_index":192,"time_elapsed":1432824,"internal_node_id":"0.0-6.0-186.0"},{"sim_score":3,"rt":5674,"stimulus":"[\"img/0881/7e31e5dc-2240-4b1b-b5a0-3acd980099ef.jpg\",\"img/0881/adc02f34-ce97-4aef-850f-00519df06fd7.jpg\"]","trial_type":"similarity","trial_index":193,"time_elapsed":1439504,"internal_node_id":"0.0-6.0-187.0"},{"sim_score":1,"rt":3331,"stimulus":"[\"img/0758/6cd8c362-ae2a-41eb-80a3-3a4f7ace1530.jpg\",\"img/0866/620cd1aa-0800-4414-8f6e-90342e7a99ad.jpg\"]","trial_type":"similarity","trial_index":194,"time_elapsed":1443840,"internal_node_id":"0.0-6.0-188.0"},{"sim_score":5,"rt":4779,"stimulus":"[\"img/0764/ca9829fe-aaf8-45b8-b98a-6bae751c63dd.jpg\",\"img/0898/81b08535-2020-4c15-9ce4-2f1e460755ae.jpg\"]","trial_type":"similarity","trial_index":195,"time_elapsed":1449624,"internal_node_id":"0.0-6.0-189.0"},{"sim_score":6,"rt":6683,"stimulus":"[\"img/0903/14f179a2-8786-48a2-8377-88d1d404341b.jpg\",\"img/0901/233a6948-48eb-4b67-8259-222b916b2322.jpg\"]","trial_type":"similarity","trial_index":196,"time_elapsed":1457311,"internal_node_id":"0.0-6.0-190.0"},{"sim_score":7,"rt":4579,"stimulus":"[\"img/0902/8065aa6b-4aef-4368-afa2-02c6465ca582.jpg\",\"img/0898/cd3aaa3f-efa9-4ab3-8d6f-a6a9273ddf42.jpg\"]","trial_type":"similarity","trial_index":197,"time_elapsed":1462895,"internal_node_id":"0.0-6.0-191.0"},{"sim_score":3,"rt":5218,"stimulus":"[\"img/0864/3d4de670-b290-4285-9c3d-12a0e3af44e9.jpg\",\"img/0901/deff6cfb-0072-4490-bc3e-206bbcd3e8bf.jpg\"]","trial_type":"similarity","trial_index":198,"time_elapsed":1469120,"internal_node_id":"0.0-6.0-192.0"},{"sim_score":3,"rt":5891,"stimulus":"[\"img/0894/0130a973-d993-41f8-874a-fee23d9ac11f.jpg\",\"img/0881/ed4c971f-0873-4fc8-b6d6-e8bbd82f0bcc.jpg\"]","trial_type":"similarity","trial_index":199,"time_elapsed":1476016,"internal_node_id":"0.0-6.0-193.0"},{"sim_score":7,"rt":4444,"stimulus":"[\"img/0868/1a62b2b2-18f5-466e-b564-5176a57c565e.jpg\",\"img/0868/e0aff734-077f-40dd-9781-74821abd3621.jpg\"]","trial_type":"similarity","trial_index":200,"time_elapsed":1481464,"internal_node_id":"0.0-6.0-194.0"},{"sim_score":6,"rt":5371,"stimulus":"[\"img/0899/7b7380d5-d2be-44e5-a09a-c1756f87ef71.jpg\",\"img/0764/21e3292f-01ad-4238-828b-61b817857d16.jpg\"]","trial_type":"similarity","trial_index":201,"time_elapsed":1487840,"internal_node_id":"0.0-6.0-195.0"},{"sim_score":7,"rt":4531,"stimulus":"[\"img/0881/33d65d80-8a8e-4ecf-852d-0ad7725c17a2.jpg\",\"img/0904/1d10df11-b5c8-4370-9a6b-097a7f965895.jpg\"]","trial_type":"similarity","trial_index":202,"time_elapsed":1493376,"internal_node_id":"0.0-6.0-196.0"},{"sim_score":3,"rt":10858,"stimulus":"[\"img/0864/afcba0a3-7e27-4757-b254-e9f05fad27e2.jpg\",\"img/0902/1f4a4c62-68c1-4993-b213-05652a173ed1.jpg\"]","trial_type":"similarity","trial_index":203,"time_elapsed":1505239,"internal_node_id":"0.0-6.0-197.0"},{"sim_score":7,"rt":5179,"stimulus":"[\"img/0894/151063aa-6472-4745-837b-36603aba5966.jpg\",\"img/0904/5aec2708-cf14-4a58-aa30-9a8a61c1be0e.jpg\"]","trial_type":"similarity","trial_index":204,"time_elapsed":1511423,"internal_node_id":"0.0-6.0-198.0"},{"sim_score":3,"rt":4051,"stimulus":"[\"img/0901/c6df1a21-44ed-47c2-960e-7c52220e329e.jpg\",\"img/0901/8bb79e82-9c43-4b6f-a655-40655519598b.jpg\"]","trial_type":"similarity","trial_index":205,"time_elapsed":1516479,"internal_node_id":"0.0-6.0-199.0"},{"sim_score":5,"rt":6548,"stimulus":"[\"img/0894/133a1636-d123-4893-873c-1718050f832a.jpg\",\"img/0860/8277806e-b684-4474-8f7b-3fca946d7d4f.jpg\"]","trial_type":"similarity","trial_index":206,"time_elapsed":1524032,"internal_node_id":"0.0-6.0-200.0"},{"sim_score":7,"rt":5185,"stimulus":"[\"img/0898/01bfe666-3510-4fc7-964f-d00d28732dc8.jpg\",\"img/0903/0a92ec52-4e87-410a-857a-4455cde56a70.jpg\"]","trial_type":"similarity","trial_index":207,"time_elapsed":1530224,"internal_node_id":"0.0-6.0-201.0"},{"sim_score":3,"rt":4818,"stimulus":"[\"img/0864/0f537697-a314-47c3-a8cc-8df23b7e536c.jpg\",\"img/0894/e6385e52-6c35-43bd-b0af-bc803d107b11.jpg\"]","trial_type":"similarity","trial_index":208,"time_elapsed":1536048,"internal_node_id":"0.0-6.0-202.0"},{"sim_score":1,"rt":5162,"stimulus":"[\"img/0874/767f289c-9814-4496-803f-745cc8913d1f.jpg\",\"img/0860/4c530c3c-6aab-492a-94d1-9c01797bde40.jpg\"]","trial_type":"similarity","trial_index":209,"time_elapsed":1542215,"internal_node_id":"0.0-6.0-203.0"},{"sim_score":1,"rt":3954,"stimulus":"[\"img/0862/24cdc752-c2e5-4a17-86a6-6f2045d8553b.jpg\",\"img/0875/99698b4d-b4a1-44bc-8c83-8ea755bbbf61.jpg\"]","trial_type":"similarity","trial_index":210,"time_elapsed":1547175,"internal_node_id":"0.0-6.0-204.0"},{"sim_score":1,"rt":2890,"stimulus":"[\"img/0867/8ba0c5a7-c7e4-42cf-a80a-543763b90779.jpg\",\"img/0881/f6bd3b96-dc40-4e99-8681-bc3a35cf896d.jpg\"]","trial_type":"similarity","trial_index":211,"time_elapsed":1551071,"internal_node_id":"0.0-6.0-205.0"},{"sim_score":6,"rt":5204,"stimulus":"[\"img/0901/a6c90438-fa7c-4418-ac7c-16c2e772dd98.jpg\",\"img/0902/44cd9b7e-fdfb-4f78-90de-8d4c9d279365.jpg\"]","trial_type":"similarity","trial_index":212,"time_elapsed":1557279,"internal_node_id":"0.0-6.0-206.0"},{"sim_score":1,"rt":3577,"stimulus":"[\"img/0899/76ad07e2-ca25-45eb-84f2-8d80b8ca3e26.jpg\",\"img/0864/4bd81bc6-c13d-46df-95a9-485886dc7c1b.jpg\"]","trial_type":"similarity","trial_index":213,"time_elapsed":1561863,"internal_node_id":"0.0-6.0-207.0"},{"sim_score":1,"rt":3905,"stimulus":"[\"img/0901/effc03f6-8f9d-46db-a66c-16fc83891c5c.jpg\",\"img/0769/022c7e3b-c3f2-4119-b4bc-f22fa7cae18c.jpg\"]","trial_type":"similarity","trial_index":214,"time_elapsed":1566775,"internal_node_id":"0.0-6.0-208.0"},{"sim_score":7,"rt":5027,"stimulus":"[\"img/0902/4e0baa32-988e-46f6-989d-f669225ab645.jpg\",\"img/0902/0eb85fbc-27c8-41df-9d0b-a5f9efd417d1.jpg\"]","trial_type":"similarity","trial_index":215,"time_elapsed":1586710,"internal_node_id":"0.0-6.0-209.0"},{"view_history":"[{\"page_index\":0,\"viewing_time\":11919}]","rt":11919,"trial_type":"instructions","trial_index":216,"time_elapsed":1599631,"internal_node_id":"0.0-7.0"},{"rt":66927,"responses":"{\"Q0\":\"Yellow Warbler\"}","answer":["Nashville Warbler"],"trial_type":"image-multi-choice","trial_index":217,"time_elapsed":1667568,"internal_node_id":"0.0-8.0-0.0"},{"rt":12549,"responses":"{\"Q0\":\"Black-and-white Warbler\"}","answer":["Black-and-white Warbler"],"trial_type":"image-multi-choice","trial_index":218,"time_elapsed":1681135,"internal_node_id":"0.0-8.0-1.0"},{"rt":13743,"responses":"{\"Q0\":\"Blackburnian Warbler\"}","answer":["Townsend's Warbler"],"trial_type":"image-multi-choice","trial_index":219,"time_elapsed":1695895,"internal_node_id":"0.0-8.0-2.0"},{"rt":8655,"responses":"{\"Q0\":\"Lark Sparrow\"}","answer":["Lark Sparrow"],"trial_type":"image-multi-choice","trial_index":220,"time_elapsed":1705567,"internal_node_id":"0.0-8.0-3.0"},{"rt":6495,"responses":"{\"Q0\":\"Yellow Warbler\"}","answer":["Yellow Warbler"],"trial_type":"image-multi-choice","trial_index":221,"time_elapsed":1713079,"internal_node_id":"0.0-8.0-4.0"},{"rt":33808,"responses":"{\"Q0\":\"Song Sparrow\"}","answer":["Orange-crowned Warbler"],"trial_type":"image-multi-choice","trial_index":222,"time_elapsed":1747903,"internal_node_id":"0.0-8.0-5.0"},{"rt":9411,"responses":"{\"Q0\":\"White-throated Sparrow\"}","answer":["White-throated Sparrow"],"trial_type":"image-multi-choice","trial_index":223,"time_elapsed":1758335,"internal_node_id":"0.0-8.0-6.0"},{"rt":6510,"responses":"{\"Q0\":\"Fox Sparrow\"}","answer":["Fox Sparrow"],"trial_type":"image-multi-choice","trial_index":224,"time_elapsed":1765863,"internal_node_id":"0.0-8.0-7.0"},{"rt":9359,"responses":"{\"Q0\":\"White-crowned Sparrow\"}","answer":["Song Sparrow"],"trial_type":"image-multi-choice","trial_index":225,"time_elapsed":1776239,"internal_node_id":"0.0-8.0-8.0"},{"rt":21495,"responses":"{\"Q0\":\"Townsend's Warbler\"}","answer":["Blackburnian Warbler"],"trial_type":"image-multi-choice","trial_index":226,"time_elapsed":1798751,"internal_node_id":"0.0-8.0-9.0"},{"rt":10958,"responses":"{\"Q0\":\"Vesper Sparrow\"}","answer":["Vesper Sparrow"],"trial_type":"image-multi-choice","trial_index":227,"time_elapsed":1810727,"internal_node_id":"0.0-8.0-10.0"},{"rt":8388,"responses":"{\"Q0\":\"White-crowned Sparrow\"}","answer":["White-crowned Sparrow"],"trial_type":"image-multi-choice","trial_index":228,"time_elapsed":1820135,"internal_node_id":"0.0-8.0-11.0"},{"rt":13895,"responses":"{\"Q0\":\"American Tree Sparrow\"}","answer":["American Tree Sparrow"],"trial_type":"image-multi-choice","trial_index":229,"time_elapsed":1835047,"internal_node_id":"0.0-8.0-12.0"},{"rt":32812,"responses":"{\"Q0\":\"Ovenbird\"}","answer":["Tennessee Warbler"],"trial_type":"image-multi-choice","trial_index":230,"time_elapsed":1868879,"internal_node_id":"0.0-8.0-13.0"},{"rt":9797,"responses":"{\"Q0\":\"Magnolia Warbler\"}","answer":["Magnolia Warbler"],"trial_type":"image-multi-choice","trial_index":231,"time_elapsed":1879695,"internal_node_id":"0.0-8.0-14.0"},{"rt":6677,"responses":"{\"Q0\":\"Northern Waterthrush\"}","answer":["Northern Waterthrush"],"trial_type":"image-multi-choice","trial_index":232,"time_elapsed":1887382,"internal_node_id":"0.0-8.0-15.0"},{"rt":7270,"responses":"{\"Q0\":\"Chipping Sparrow\"}","answer":["Chipping Sparrow"],"trial_type":"image-multi-choice","trial_index":233,"time_elapsed":1895671,"internal_node_id":"0.0-8.0-16.0"},{"rt":16786,"responses":"{\"Q0\":\"Swamp Sparrow\"}","answer":["Swamp Sparrow"],"trial_type":"image-multi-choice","trial_index":234,"time_elapsed":1913479,"internal_node_id":"0.0-8.0-17.0"},{"rt":12876,"responses":"{\"Q0\":\"Lincoln's Sparrow\"}","answer":["Lincoln's Sparrow"],"trial_type":"image-multi-choice","trial_index":235,"time_elapsed":1927374,"internal_node_id":"0.0-8.0-18.0"},{"rt":42563,"responses":"{\"Q0\":\"Northern Waterthrush\"}","answer":["Ovenbird"],"trial_type":"image-multi-choice","trial_index":236,"time_elapsed":1970959,"internal_node_id":"0.0-8.0-19.0"}]