"view_history","rt","trial_type","trial_index","time_elapsed","internal_node_id","sim_score","stimulus","responses","answer"
"[{""page_index"":0,""viewing_time"":37234}]","37236","instructions","0","37238","0.0-0.0","","","",""
"","9860","similarity_demo","1","48108","0.0-1.0","5","[""img/866.jpg"",""img/868.jpg""]","",""
"[{""page_index"":0,""viewing_time"":19919}]","19920","instructions","2","69030","0.0-2.0","","","",""
"","5050","similarity_demo","3","75086","0.0-3.0","1","[""img/766.jpg"",""img/867.jpg""]","",""
"[{""page_index"":0,""viewing_time"":11331}]","11331","instructions","4","87417","0.0-4.0","","","",""
"[{""page_index"":0,""viewing_time"":22884}]","22885","instructions","5","111303","0.0-5.0","","","",""
"","4450","similarity","6","116761","0.0-6.0-0.0","1","[""img/0868/15dd6fd7-791e-4b53-b203-195d617521a4.jpg"",""img/0901/3db47171-0139-4235-82cd-0b1787b6775f.jpg""]","",""
"","4119","similarity","7","121885","0.0-6.0-1.0","1","[""img/0769/965c3c44-d9e5-47c5-b61a-2bbdf4215d9a.jpg"",""img/0867/db7e032f-162b-46f5-ae67-2b29679adee4.jpg""]","",""
"","8363","similarity","8","131255","0.0-6.0-2.0","2","[""img/0766/91fc8c4d-862f-4d2b-b1a1-2db8d729b6b7.jpg"",""img/0898/08c72dac-f8ad-407a-9ce6-8c9a5d679c3a.jpg""]","",""
"","5917","similarity","9","138177","0.0-6.0-3.0","2","[""img/0902/40d0b6ec-3907-4573-b227-e7d8e9cad1c3.jpg"",""img/0881/ee44e27f-d662-4608-b265-e7ffa19b216f.jpg""]","",""
"","11275","similarity","10","150458","0.0-6.0-4.0","7","[""img/0894/4739e06d-c31e-4bf1-bf91-c97fa9afb456.jpg"",""img/0894/9b1333fd-3561-43bf-aee5-99b7b7ca3dc3.jpg""]","",""
"","6031","similarity","11","157494","0.0-6.0-5.0","2","[""img/0874/ca23d307-fc00-4d7d-9106-584c6eb21b4d.jpg"",""img/0899/ad8268c5-8199-48d0-ad70-c5b6d6c599ec.jpg""]","",""
"","4595","similarity","12","163098","0.0-6.0-6.0","7","[""img/0904/60d1a521-edf7-4696-9263-f21ac0e62a01.jpg"",""img/0764/b8e23f4f-ff19-4472-ad9b-2f85548ebca0.jpg""]","",""
"","4126","similarity","13","168228","0.0-6.0-7.0","6","[""img/0899/565ccdd9-0933-4536-a625-3c0e25a713dd.jpg"",""img/0898/b3290bf9-215b-4b45-b21a-65bdf73f142f.jpg""]","",""
"","4270","similarity","14","173507","0.0-6.0-8.0","1","[""img/0874/2c9464dd-8a23-4baa-ac94-1ba3af5c15cc.jpg"",""img/0903/5248eedd-7e6a-4d39-91b0-06ec227f3ed0.jpg""]","",""
"","5870","similarity","15","180384","0.0-6.0-9.0","6","[""img/0881/44e09805-5a25-4f17-a716-4ad4a331b174.jpg"",""img/0758/53f35650-e455-4b53-8be4-c3c8271c6466.jpg""]","",""
"","7093","similarity","16","188484","0.0-6.0-10.0","3","[""img/0898/c3cecf20-f7fd-45fa-97d0-dc0a63e8d6c0.jpg"",""img/0901/33b51a81-06d9-46d9-9d4f-5a2d6d6b8058.jpg""]","",""
"","5453","similarity","17","194947","0.0-6.0-11.0","3","[""img/0903/470acfd5-5571-4a7b-b3a4-28d87e098138.jpg"",""img/0769/f6396414-6788-4d59-9683-de153298d89c.jpg""]","",""
"","3881","similarity","18","199833","0.0-6.0-12.0","1","[""img/0764/d7f3ac54-318a-4dac-a06b-62bed34d01a4.jpg"",""img/0868/fd307a36-9a3a-47d7-ab7c-f810d0b35040.jpg""]","",""
"","6144","similarity","19","206981","0.0-6.0-13.0","1","[""img/0867/ac1797e4-8afc-48fe-b252-86d1defb1cca.jpg"",""img/0903/9b60ef5b-234f-4239-892b-3d4c412accc2.jpg""]","",""
"","4202","similarity","20","212189","0.0-6.0-14.0","2","[""img/0766/d919cedb-f9b7-4f30-83bb-3e9c65001ceb.jpg"",""img/0758/d540bee6-b460-4c32-ac57-bc282742d7d4.jpg""]","",""
"","5804","similarity","21","218998","0.0-6.0-15.0","5","[""img/0902/c018bd7a-d91a-4192-aea4-7259cfcdb6c4.jpg"",""img/0860/b03b963d-949b-4d8d-b19c-4950c89eeca2.jpg""]","",""
"","4882","similarity","22","224883","0.0-6.0-16.0","1","[""img/0769/022c7e3b-c3f2-4119-b4bc-f22fa7cae18c.jpg"",""img/0875/2c361b79-c3d1-4eda-812e-bf03192407bf.jpg""]","",""
"","4393","similarity","23","230283","0.0-6.0-17.0","1","[""img/0904/25365108-e038-4021-aac9-797f2063b337.jpg"",""img/0866/386235d2-6857-41e7-88a8-25cfc3430025.jpg""]","",""
"","5768","similarity","24","237063","0.0-6.0-18.0","7","[""img/0875/2e13d160-eea1-416b-aff1-d37ab99ecc1d.jpg"",""img/0875/a4935837-7d3c-4df6-88c1-36a94d4991ca.jpg""]","",""
"","5106","similarity","25","243173","0.0-6.0-19.0","7","[""img/0758/ddc336e9-a8b6-4bb9-937a-c7e25e0e9250.jpg"",""img/0758/821c68d3-5cb0-4eae-8659-30e6263fca39.jpg""]","",""
"","6004","similarity","26","250183","0.0-6.0-20.0","1","[""img/0902/04a6ad4a-afc6-4871-8225-56b299af7b6b.jpg"",""img/0874/c0378dac-9370-439a-8b79-db27c96fb390.jpg""]","",""
"","6123","similarity","27","257311","0.0-6.0-21.0","7","[""img/0764/0e7ed062-f798-4366-8a24-6f430926f919.jpg"",""img/0769/35364db7-e0d5-40ef-93dc-faf9dfb95136.jpg""]","",""
"","4237","similarity","28","262554","0.0-6.0-22.0","1","[""img/0901/693e0535-ef7e-4d60-af9d-fac2f38e8307.jpg"",""img/0874/85eb9b8a-c4c6-4e5a-b8e7-363a87a82054.jpg""]","",""
"","4485","similarity","29","268046","0.0-6.0-23.0","1","[""img/0875/99698b4d-b4a1-44bc-8c83-8ea755bbbf61.jpg"",""img/0903/8931c67c-a43d-47d3-a4c9-42aa2f81d344.jpg""]","",""
"","3973","similarity","30","273023","0.0-6.0-24.0","1","[""img/0769/9ea27d61-3d55-418c-8d14-82e90f656f01.jpg"",""img/0881/f037e3b0-09cb-4a83-b2d9-6a71fe474e63.jpg""]","",""
"","4559","similarity","31","278589","0.0-6.0-25.0","1","[""img/0867/a498eef3-9fa4-4ab2-9778-4ae82ac40dc5.jpg"",""img/0904/06dacdc5-2206-4fb8-92b7-88042d22833c.jpg""]","",""
"","6585","similarity","32","286180","0.0-6.0-26.0","1","[""img/0860/4f695df5-afac-4da7-9875-fee39b0b24ad.jpg"",""img/0881/f62bdcd1-a4b7-4d48-83da-d9c9e01c8727.jpg""]","",""
"","4518","similarity","33","291702","0.0-6.0-27.0","7","[""img/0866/23a224f3-2012-4fc8-8e0f-3c36f8de27fd.jpg"",""img/0866/f756f7d1-9ad8-4a34-9ef6-7a443d705bfe.jpg""]","",""
"","5975","similarity","34","298680","0.0-6.0-28.0","4","[""img/0764/b328441c-f81c-486c-9eae-b947c70ba7cd.jpg"",""img/0862/7918ca67-5bd3-4606-a5ea-c39fb11a9297.jpg""]","",""
"","3959","similarity","35","303644","0.0-6.0-29.0","1","[""img/0904/696ebb60-8891-417a-91fd-c53218907a95.jpg"",""img/0758/7ee8bc8f-c40b-4b3a-84ec-3e83580622d4.jpg""]","",""
"","4605","similarity","36","309253","0.0-6.0-30.0","4","[""img/0894/38f5931f-926d-414e-b498-66b188978b7a.jpg"",""img/0899/fef567a2-c121-4481-9af0-ff108d199bbf.jpg""]","",""
"","5842","similarity","37","316103","0.0-6.0-31.0","3","[""img/0860/524b2e98-5767-4d53-942c-ebae6925659b.jpg"",""img/0904/1d10df11-b5c8-4370-9a6b-097a7f965895.jpg""]","",""
"","6695","similarity","38","323804","0.0-6.0-32.0","2","[""img/0874/a82926a3-0b43-4add-803c-d5f9ea7798ee.jpg"",""img/0881/33d65d80-8a8e-4ecf-852d-0ad7725c17a2.jpg""]","",""
"","8459","similarity","39","333268","0.0-6.0-33.0","2","[""img/0881/ed4c971f-0873-4fc8-b6d6-e8bbd82f0bcc.jpg"",""img/0899/56a605c3-d0a2-4215-89e1-779279d85a7c.jpg""]","",""
"","6820","similarity","40","341092","0.0-6.0-34.0","3","[""img/0866/c446214b-a368-4c65-ae39-ea46894256ab.jpg"",""img/0862/4f0a3b4c-afbf-486e-b248-1d54982f54b4.jpg""]","",""
"","5296","similarity","41","347394","0.0-6.0-35.0","1","[""img/0868/4bd5105a-d2c3-4f82-8c80-57196106ba53.jpg"",""img/0894/c505c65a-cde2-4f2c-8cde-f8676f7c894d.jpg""]","",""
"","4327","similarity","42","352729","0.0-6.0-36.0","7","[""img/0860/fd4662f9-4c03-4d79-8593-06735e55a64b.jpg"",""img/0860/8a92e21b-6a32-4e4a-a445-2d5a487ed0a4.jpg""]","",""
"","5004","similarity","43","358739","0.0-6.0-37.0","6","[""img/0862/57b6f83f-c763-4858-830d-102f97bfefbf.jpg"",""img/0864/4bd81bc6-c13d-46df-95a9-485886dc7c1b.jpg""]","",""
"","4701","similarity","44","364445","0.0-6.0-38.0","1","[""img/0766/2da002a4-05c9-4f5c-9ed7-433b4183e273.jpg"",""img/0866/07c9c966-3c8d-40e7-8128-92b2acbaed5d.jpg""]","",""
"","4305","similarity","45","369754","0.0-6.0-39.0","1","[""img/0875/cff79b3a-a797-4393-9757-6275f999ec04.jpg"",""img/0898/81b08535-2020-4c15-9ce4-2f1e460755ae.jpg""]","",""
"","6744","similarity","46","377506","0.0-6.0-40.0","6","[""img/0766/f011ef45-fb48-44b8-8224-867ed2ccf786.jpg"",""img/0769/aad494cc-674d-4a08-9bfa-24a88ebe3c79.jpg""]","",""
"","4892","similarity","47","414886","0.0-6.0-41.0","1","[""img/0874/93d1f8dc-acf2-4f03-bd8d-8ec35df276ed.jpg"",""img/0764/8389e74f-e0e0-435d-945f-da1f4c92ccb6.jpg""]","",""
"","8857","similarity","48","424750","0.0-6.0-42.0","3","[""img/0868/83b4350a-3b70-4cea-b7f5-b5b56f3050a8.jpg"",""img/0902/97022122-01e4-46c3-a34f-c6260ad28428.jpg""]","",""
"","5463","similarity","49","431219","0.0-6.0-43.0","1","[""img/0875/8521fd58-3b1e-4dc5-97ae-804edfa6734a.jpg"",""img/0899/f58b8d2f-b19d-4b59-8b94-8834be92e4ba.jpg""]","",""
"","6279","similarity","50","438503","0.0-6.0-44.0","5","[""img/0866/9b38d691-1802-4959-ab3f-fc902f0e4ea6.jpg"",""img/0860/8fdba999-b946-4c7d-9891-336018b563ef.jpg""]","",""
"","4945","similarity","51","444454","0.0-6.0-45.0","6","[""img/0766/0b48f9e0-7d37-4161-8adb-4e3f5b6b7583.jpg"",""img/0903/2a9c8033-3e70-47fa-816d-97ee1813a3a3.jpg""]","",""
"","3793","similarity","52","449253","0.0-6.0-46.0","5","[""img/0901/71e551a2-9ce2-409c-9c7c-dd556a0791e9.jpg"",""img/0904/da170c1b-9651-4f08-b231-2bdd1d9a046f.jpg""]","",""
"","5517","similarity","53","455775","0.0-6.0-47.0","2","[""img/0758/65d426d6-3ff6-415d-8654-a43b83ecc4fe.jpg"",""img/0902/31abfa33-7cdb-44ad-968e-9f7b324d577a.jpg""]","",""
"","4883","similarity","54","461663","0.0-6.0-48.0","7","[""img/0764/cbdc4f20-3a9a-4211-9b40-090699e0abcc.jpg"",""img/0764/c0b03adb-bd0a-4b96-a915-a827c2fd5211.jpg""]","",""
"","3968","similarity","55","466636","0.0-6.0-49.0","1","[""img/0866/945c6710-d15b-4a5b-a8f6-69af0850357f.jpg"",""img/0902/c9c74d2d-9b82-42d7-a9d0-3b8ff67ff81e.jpg""]","",""
"","5024","similarity","56","472666","0.0-6.0-50.0","2","[""img/0764/f64dfa83-333d-494c-87b5-73e942f1766e.jpg"",""img/0758/6e95579b-5166-487c-b8cb-e417c6a218e3.jpg""]","",""
"","4556","similarity","57","478227","0.0-6.0-51.0","6","[""img/0898/5f699581-3853-4547-856c-12f419ba5af7.jpg"",""img/0894/e5edf723-72a5-4673-8441-6c1734a8929b.jpg""]","",""
"","5959","similarity","58","485193","0.0-6.0-52.0","6","[""img/0875/f87b67d7-c33e-40d1-b281-248c4be1cb6e.jpg"",""img/0866/a04d37f0-99dd-478a-b6c6-58b215138f84.jpg""]","",""
"","5974","similarity","59","492176","0.0-6.0-53.0","7","[""img/0904/56e73f28-7e64-489b-a161-e6b1a063878d.jpg"",""img/0904/4d7d70a3-9477-4921-bda0-f9531d0a5c5b.jpg""]","",""
"","4818","similarity","60","497998","0.0-6.0-54.0","5","[""img/0769/458d9c77-b844-40b5-bb1b-1e3bbd4da64e.jpg"",""img/0769/c7cfacc3-7f07-46ff-9f5d-8073f4c4679b.jpg""]","",""
"","4117","similarity","61","503121","0.0-6.0-55.0","1","[""img/0898/e167334e-cc1d-4986-b3b1-c7bc7da64baa.jpg"",""img/0758/2fa3e613-e676-4e6e-bd12-705327eeb3e1.jpg""]","",""
"","5015","similarity","62","509144","0.0-6.0-56.0","6","[""img/0769/d1be2815-fa79-46e8-b5c3-7d81caaca490.jpg"",""img/0902/bd89a85f-3853-4786-acd6-98818ee29f1c.jpg""]","",""
"","5628","similarity","63","515775","0.0-6.0-57.0","2","[""img/0864/49150900-7f25-4ce8-8d10-9b47a71d1997.jpg"",""img/0881/e046471a-35b4-4159-bbf7-3cfd201bef66.jpg""]","",""
"","5167","similarity","64","521947","0.0-6.0-58.0","5","[""img/0758/f61ecdf8-a7d4-4db0-b84d-be46f7cfaffc.jpg"",""img/0868/d6d1f30d-4323-435a-b194-7892521bc57e.jpg""]","",""
"","7866","similarity","65","530820","0.0-6.0-59.0","2","[""img/0862/ad593cc7-cabe-4bb7-8e14-8a447a0717b4.jpg"",""img/0769/1d8734c4-77ab-4165-9e71-5cfe672ff01c.jpg""]","",""
"","6034","similarity","66","537861","0.0-6.0-60.0","6","[""img/0764/4bec8d92-75aa-475a-954d-8215dbe538f5.jpg"",""img/0903/c3cb4a01-2797-43ca-b216-88c67b323fbb.jpg""]","",""
"","4887","similarity","67","543753","0.0-6.0-61.0","6","[""img/0899/0e1d936a-dbe2-4afc-9f19-7b7a1ae6c9ed.jpg"",""img/0899/8abe6c69-822c-436c-9bf2-96c818b49ba5.jpg""]","",""
"","5274","similarity","68","550033","0.0-6.0-62.0","2","[""img/0860/5383b320-1518-4095-a58e-5cc1ae30b64c.jpg"",""img/0875/5a7c4e35-6514-4e12-8879-d16071da4cd6.jpg""]","",""
"","5436","similarity","69","556474","0.0-6.0-63.0","3","[""img/0868/7b212364-ff5f-4e28-9241-7eb6ea00161b.jpg"",""img/0874/767f289c-9814-4496-803f-745cc8913d1f.jpg""]","",""
"","5623","similarity","70","563103","0.0-6.0-64.0","3","[""img/0758/dd559618-7f09-4a07-8018-d311c4a5ea29.jpg"",""img/0862/92f0146c-20c4-482e-aef5-adb693790338.jpg""]","",""
"","4242","similarity","71","568350","0.0-6.0-65.0","6","[""img/0904/0d17b811-063e-416e-a23c-3b3cfa4fcce5.jpg"",""img/0898/a114b375-cb89-44ba-9498-74213f1ecdee.jpg""]","",""
"","4512","similarity","72","573868","0.0-6.0-66.0","3","[""img/0881/dea58fad-b4f1-41d9-bd3f-916eff19a3fd.jpg"",""img/0866/a15b02be-11bb-43e3-b0e0-ecc3bd7dfc49.jpg""]","",""
"","7183","similarity","73","582055","0.0-6.0-67.0","2","[""img/0867/8ba0c5a7-c7e4-42cf-a80a-543763b90779.jpg"",""img/0898/01bfe666-3510-4fc7-964f-d00d28732dc8.jpg""]","",""
"","5629","similarity","74","588689","0.0-6.0-68.0","7","[""img/0902/cf9dee9c-2bdf-4d64-9302-97f1660fe52c.jpg"",""img/0764/e48e6c6f-9e28-420f-836a-8043b2319bb4.jpg""]","",""
"","5793","similarity","75","595487","0.0-6.0-69.0","1","[""img/0875/5a1e5100-0d94-4fec-bbe9-ca9894d2cf8e.jpg"",""img/0867/179ab87a-8eac-4c52-a41f-2e48e3120f09.jpg""]","",""
"","4339","similarity","76","600829","0.0-6.0-70.0","6","[""img/0766/71b81ebd-0937-4d7f-b8bf-c4e46a4728fd.jpg"",""img/0764/c01e2d65-6586-441b-bef5-3c96fcd85380.jpg""]","",""
"","5325","similarity","77","607159","0.0-6.0-71.0","3","[""img/0894/2d2db7b3-e8a3-499b-b63a-14f51bf73882.jpg"",""img/0867/2e1a0b58-cdb1-4107-a14e-452530d7b9b0.jpg""]","",""
"","4074","similarity","78","612238","0.0-6.0-72.0","2","[""img/0875/527ced51-8e53-4aab-ab05-86df219104c0.jpg"",""img/0764/e30dba15-e68a-4659-89db-e1654b52fe02.jpg""]","",""
"","6184","similarity","79","619428","0.0-6.0-73.0","5","[""img/0867/075e0f95-856b-4cbb-acf5-092393aaf04e.jpg"",""img/0866/8efcaa46-83ab-4dee-a35f-850402aa21ae.jpg""]","",""
"","4140","similarity","80","624574","0.0-6.0-74.0","1","[""img/0903/45e2d600-57ff-4d69-b22c-0c7896cd38f0.jpg"",""img/0758/eabcd7a8-56ad-4fd2-bc24-90f6b7b33265.jpg""]","",""
"","3908","similarity","81","629490","0.0-6.0-75.0","1","[""img/0766/d3bab2fc-ddcc-40a0-bb72-c0d0ebe19978.jpg"",""img/0868/6a28c3b0-3d76-498a-9fb7-ddafc665eca8.jpg""]","",""
"","5577","similarity","82","636071","0.0-6.0-76.0","3","[""img/0874/29830da7-be5f-44e5-b141-652a0ccf7269.jpg"",""img/0766/27f54113-8561-4568-9ffe-0a1650ae65ec.jpg""]","",""
"","4925","similarity","83","642001","0.0-6.0-77.0","3","[""img/0881/14236cf2-6b95-48b8-9368-78af09d2d27f.jpg"",""img/0868/179a5502-ab5c-478e-8263-5a1fbcc101d2.jpg""]","",""
"","5298","similarity","84","648303","0.0-6.0-78.0","1","[""img/0758/7fba58df-2a7a-4b76-8a8f-62739f97f271.jpg"",""img/0901/50e1d53e-a49f-4806-8610-be6dec5a2475.jpg""]","",""
"","5437","similarity","85","654745","0.0-6.0-79.0","3","[""img/0881/445edb15-bd7f-4af3-8bd5-c6ad9677bb31.jpg"",""img/0898/661621d4-a14e-487c-8c74-354134a29710.jpg""]","",""
"","6310","similarity","86","662058","0.0-6.0-80.0","5","[""img/0867/5e07b34d-b40f-4b1c-ac10-49975bace45f.jpg"",""img/0758/caa93da2-9edf-49fa-96b9-32dedd8f5078.jpg""]","",""
"","4248","similarity","87","667313","0.0-6.0-81.0","5","[""img/0769/0fe124d3-bcad-45f6-b64d-8f6eb8ee5251.jpg"",""img/0899/f95cbdb4-f804-4f5d-ad76-373ad343e658.jpg""]","",""
"","4383","similarity","88","672701","0.0-6.0-82.0","7","[""img/0903/59defeb8-98bd-4570-a2f8-9bd189e68ef4.jpg"",""img/0903/6b5dcc60-3ad3-4962-93e5-e6cf768477af.jpg""]","",""
"","4076","similarity","89","689690","0.0-6.0-83.0","1","[""img/0867/50a1b60e-3a29-44bf-b606-d4bd3746fea9.jpg"",""img/0766/09f646c8-a69e-4ed3-879c-8d29b04ad7f9.jpg""]","",""
"","4634","similarity","90","695327","0.0-6.0-84.0","2","[""img/0902/e5a46bda-30d1-41ca-b36d-b8529b5a63d1.jpg"",""img/0867/f8159067-056c-41f1-a136-c529fe5e970a.jpg""]","",""
"","4110","similarity","91","700442","0.0-6.0-85.0","1","[""img/0901/31c032fd-3c3d-4882-a226-da9a80198937.jpg"",""img/0875/e7e66b13-b573-431e-b85e-288ce04a35a3.jpg""]","",""
"","5582","similarity","92","707028","0.0-6.0-86.0","2","[""img/0764/d7c215ab-ea9a-45be-8d5f-417d5b9a8a17.jpg"",""img/0866/4a87911a-d5be-4d4e-ab8e-3d1f581bf507.jpg""]","",""
"","5126","similarity","93","713160","0.0-6.0-87.0","4","[""img/0901/d61f267a-c492-4db6-9bfb-61efd49cf072.jpg"",""img/0894/10f22b96-040c-44f4-950b-a4963f3f506c.jpg""]","",""
"","5188","similarity","94","719354","0.0-6.0-88.0","5","[""img/0898/82231d4c-218b-4d0a-b50d-35a49b524e97.jpg"",""img/0769/4680bcc3-8fbc-4643-8f9a-12aa0e780b64.jpg""]","",""
"","4644","similarity","95","725002","0.0-6.0-89.0","4","[""img/0769/04347740-f8f6-48bb-887a-f68babd0a0d4.jpg"",""img/0894/767a0eec-1064-46b1-b1aa-dfa02b0cd74e.jpg""]","",""
"","4257","similarity","96","730262","0.0-6.0-90.0","3","[""img/0862/e697469a-ec19-4414-b972-7b9f3564785b.jpg"",""img/0874/8cdb1c07-1c32-46d2-981c-3636560fa6e5.jpg""]","",""
"","3940","similarity","97","735206","0.0-6.0-91.0","6","[""img/0894/b422d5c6-3c5a-49ae-a53e-7e88ac993f49.jpg"",""img/0766/989c5c7f-1aff-4442-ac63-9d46acf4a891.jpg""]","",""
"","6611","similarity","98","742825","0.0-6.0-92.0","5","[""img/0874/ca76a855-4e77-4f2f-872a-0a718153e7ed.jpg"",""img/0867/6e19c858-b606-45b2-a4c6-910a73f1d82c.jpg""]","",""
"","6429","similarity","99","750263","0.0-6.0-93.0","2","[""img/0899/7b7380d5-d2be-44e5-a09a-c1756f87ef71.jpg"",""img/0868/0d3abd3a-b6c3-4584-a9f7-e2da63748b3d.jpg""]","",""
"","3452","similarity","100","754720","0.0-6.0-94.0","4","[""img/0903/8c358e9e-a4f4-466e-8b93-7aec0d2358e8.jpg"",""img/0862/064818ee-13d5-4618-bb24-21c7368ea278.jpg""]","",""
"","4497","similarity","101","760221","0.0-6.0-95.0","6","[""img/0899/a05bea16-2bb4-4cb9-b8fb-4ff975db6971.jpg"",""img/0766/2e1cf445-9aef-40e7-92f4-5facf48b64c5.jpg""]","",""
"","4036","similarity","102","765261","0.0-6.0-96.0","7","[""img/0867/aa05d113-fc19-4756-a8eb-7878f580bc92.jpg"",""img/0868/09a9ef4d-d000-4cfa-a6aa-ebec7c2edeb4.jpg""]","",""
"","4292","similarity","103","770557","0.0-6.0-97.0","4","[""img/0862/a0a3a7ba-7798-46a3-b4ca-05e1f6e581d0.jpg"",""img/0901/1e23ffbd-19de-4c4f-aa23-c54aaa3319a3.jpg""]","",""
"","4184","similarity","104","775746","0.0-6.0-98.0","2","[""img/0875/42910c99-5463-450a-a0f8-d4d060a11455.jpg"",""img/0766/d5d38751-8fa5-476f-93e9-86ed2d9045ef.jpg""]","",""
"","4819","similarity","105","781569","0.0-6.0-99.0","6","[""img/0758/3ddd05d3-557e-4ee7-8b78-9d2d681d8ae2.jpg"",""img/0874/bf14b896-e930-4fd9-9c05-2e83317a2773.jpg""]","",""
"","3612","similarity","106","786186","0.0-6.0-100.0","2","[""img/0904/09934646-45d2-4147-8fec-64a22a5ac822.jpg"",""img/0868/293079b8-7e0c-4afd-a390-1e5d35fe3ded.jpg""]","",""
"","5159","similarity","107","792352","0.0-6.0-101.0","1","[""img/0903/5ea5bbe0-f238-4724-abe7-9ed8dee8c0ba.jpg"",""img/0866/93a27239-8317-4e08-98ca-d8b1ff298e07.jpg""]","",""
"","4077","similarity","108","797434","0.0-6.0-102.0","2","[""img/0868/3a62db2d-97e9-44a3-b8e3-a48c6f0e423b.jpg"",""img/0769/38a88f69-28fd-4bbd-99f0-f4c02bfd3995.jpg""]","",""
"","3252","similarity","109","801691","0.0-6.0-103.0","6","[""img/0902/417d8b4a-3c72-4adc-ac78-820e833316f2.jpg"",""img/0899/00715b3f-851b-420b-a26b-d7f79f7759a9.jpg""]","",""
"","3818","similarity","110","806513","0.0-6.0-104.0","2","[""img/0868/4e626425-63c8-484a-8a1d-e66ee4e0bef8.jpg"",""img/0862/99a99e39-8355-44ec-b993-e7bcec111e1c.jpg""]","",""
"","4156","similarity","111","811677","0.0-6.0-105.0","7","[""img/0903/365f176c-25a4-4973-bd3c-279bf1b39476.jpg"",""img/0894/05161000-f476-499b-a878-c13c7f347fd9.jpg""]","",""
"","5425","similarity","112","818109","0.0-6.0-106.0","6","[""img/0864/e8bd659f-aa43-4748-877e-3118e8b4e189.jpg"",""img/0874/1016b306-087c-4afc-aa08-fa527b28dc76.jpg""]","",""
"","3487","similarity","113","822602","0.0-6.0-107.0","4","[""img/0862/de9ad88c-b522-430a-8ee9-eb06a9f85df5.jpg"",""img/0902/b56db912-c3c0-4fc2-b325-d640acd7cb58.jpg""]","",""
"","4479","similarity","114","828088","0.0-6.0-108.0","7","[""img/0904/b7c2a2c8-df33-4473-b3d4-ff7147c60db3.jpg"",""img/0903/647ce311-8c71-479a-8361-961db1457139.jpg""]","",""
"","3553","similarity","115","832646","0.0-6.0-109.0","3","[""img/0764/ec2dd087-c471-4370-b570-95a542506a96.jpg"",""img/0864/efcfbb1b-8197-44c9-b723-40d6c608dd3c.jpg""]","",""
"","4448","similarity","116","838100","0.0-6.0-110.0","1","[""img/0866/620cd1aa-0800-4414-8f6e-90342e7a99ad.jpg"",""img/0894/1b3888e6-cf36-4c4a-a039-187aa5cb71ac.jpg""]","",""
"","4260","similarity","117","843365","0.0-6.0-111.0","6","[""img/0899/25ae6ec8-9565-49fe-a8bb-8d0666f52716.jpg"",""img/0903/07b445ee-0cdb-4d2c-a23b-d727613f4059.jpg""]","",""
"","3772","similarity","118","848144","0.0-6.0-112.0","6","[""img/0902/2a7ac123-414a-476a-9a96-4757b924baef.jpg"",""img/0904/e9423a8c-f946-43ad-ab7b-931acef870e2.jpg""]","",""
"","5022","similarity","119","854172","0.0-6.0-113.0","5","[""img/0864/c22faebd-9c53-47bc-ada3-b9a30c688e75.jpg"",""img/0860/94ef7afc-e0e6-4a15-98c6-0bfac82bc832.jpg""]","",""
"","3452","similarity","120","858629","0.0-6.0-114.0","4","[""img/0860/d9a0d117-6d1d-41c0-8fec-9aff0fd9e9f2.jpg"",""img/0899/fd9efb43-701f-4cd6-baaa-4c38315f4bdc.jpg""]","",""
"","3786","similarity","121","863420","0.0-6.0-115.0","2","[""img/0881/f7a8cc63-8842-40a4-9ff8-fe530310d62c.jpg"",""img/0903/2c7b4aed-6038-4aac-958a-e3e58341c313.jpg""]","",""
"","4582","similarity","122","869006","0.0-6.0-116.0","1","[""img/0894/3adef67d-7676-4995-80b2-bb31b8aca3ef.jpg"",""img/0874/eba003b4-cdab-4eee-8bc3-f064c7d94165.jpg""]","",""
"","4663","similarity","123","874676","0.0-6.0-117.0","6","[""img/0881/d373cb9f-a719-4549-a2a4-82def79fb2a5.jpg"",""img/0862/f23038d4-c366-4f70-979f-66b62362efa4.jpg""]","",""
"","3319","similarity","124","879003","0.0-6.0-118.0","5","[""img/0868/5fa7f9d0-f0e5-454c-8224-74d964818f56.jpg"",""img/0875/90da8d75-108a-44ad-b999-e21fee3860d3.jpg""]","",""
"","3581","similarity","125","883590","0.0-6.0-119.0","4","[""img/0860/5bff793e-cbd5-4d7e-b628-0ac2b0e30b64.jpg"",""img/0758/a085b443-b5d7-4cb2-9ad4-b9dab0fc23f1.jpg""]","",""
"","2738","similarity","126","887332","0.0-6.0-120.0","4","[""img/0864/1ebbc554-99fa-49f9-8799-317375a79820.jpg"",""img/0875/dbdd643e-6d0e-4a5c-ab57-b9c29b9c981a.jpg""]","",""
"","3615","similarity","127","891952","0.0-6.0-121.0","2","[""img/0898/8605a25b-6895-476d-8c13-df7a83f96093.jpg"",""img/0866/02f5e6b9-52b7-448c-9708-5b460d0c9a23.jpg""]","",""
"","5031","similarity","128","897987","0.0-6.0-122.0","2","[""img/0874/31e22c7c-99aa-40b1-bf03-dd73fa2df4d6.jpg"",""img/0904/24fc38fe-842c-4831-ad8a-b1de5c25c0a8.jpg""]","",""
"","4512","similarity","129","903504","0.0-6.0-123.0","2","[""img/0904/4e58005d-a2ec-4aaa-b199-445343561396.jpg"",""img/0864/66091c27-e588-4476-8af9-265dc6be4156.jpg""]","",""
"","4329","similarity","130","908838","0.0-6.0-124.0","6","[""img/0894/151063aa-6472-4745-837b-36603aba5966.jpg"",""img/0902/511abb54-0094-4f4d-b6dc-3f2c97050521.jpg""]","",""
"","3390","similarity","131","921558","0.0-6.0-125.0","4","[""img/0868/1a62b2b2-18f5-466e-b564-5176a57c565e.jpg"",""img/0864/65210d57-1153-4657-886a-32e758f49b4a.jpg""]","",""
"","4624","similarity","132","927187","0.0-6.0-126.0","3","[""img/0899/1b3457ea-87d4-4946-a01c-aac1863ed46c.jpg"",""img/0866/6f2a90d7-14f1-4f1b-bd64-fc0af6b9fe44.jpg""]","",""
"","3957","similarity","133","932149","0.0-6.0-127.0","2","[""img/0875/34132396-d896-4c2d-8087-646dd867e769.jpg"",""img/0904/2c98dc56-88d1-4fb5-a999-b6a7861f65f0.jpg""]","",""
"","3614","similarity","134","936767","0.0-6.0-128.0","1","[""img/0867/f26f6b60-f772-4f4c-95a4-addc62cfd692.jpg"",""img/0899/ddf96ade-692e-4602-bd22-dedbb46401bc.jpg""]","",""
"","4541","similarity","135","942319","0.0-6.0-129.0","1","[""img/0901/d6d15b1c-4a30-4f74-a3fd-d4c8ee4169ca.jpg"",""img/0867/c71dc569-f49c-4397-8381-68b8d726736d.jpg""]","",""
"","4264","similarity","136","947589","0.0-6.0-130.0","3","[""img/0864/1d15626a-2f7c-410f-819c-0fa2c967e95e.jpg"",""img/0769/4a1d0b52-3fe8-40fb-bb1c-c814fe49a68c.jpg""]","",""
"","3664","similarity","137","952261","0.0-6.0-131.0","4","[""img/0903/39365c8e-a733-4801-ac7d-b87e38c3784b.jpg"",""img/0868/4a8a45ed-2c4f-421b-9564-409a33ecd26c.jpg""]","",""
"","4824","similarity","138","958088","0.0-6.0-132.0","4","[""img/0864/3d4de670-b290-4285-9c3d-12a0e3af44e9.jpg"",""img/0867/26611f4e-d694-4460-b7e2-43c62753ddc3.jpg""]","",""
"","3607","similarity","139","962701","0.0-6.0-133.0","5","[""img/0901/7c16dd9c-44ad-4d5b-990c-6a0b9b48b1b1.jpg"",""img/0860/31ff6436-98bf-4652-bed2-40f627229568.jpg""]","",""
"","5362","similarity","140","969066","0.0-6.0-134.0","4","[""img/0881/1407b85b-a1c6-45b1-9884-3b24203efadb.jpg"",""img/0766/51d3aab4-3d09-4dda-b99d-3dc7aaabc6f2.jpg""]","",""
"","4088","similarity","141","974159","0.0-6.0-135.0","3","[""img/0903/5995f4a8-fa82-46f8-8760-fd7800a5ca34.jpg"",""img/0864/ea327690-500b-4137-bf91-451b309fe6a5.jpg""]","",""
"","3889","similarity","142","979054","0.0-6.0-136.0","3","[""img/0758/d41c06bf-ebaf-454b-91c6-1a17f917b659.jpg"",""img/0894/5c7677b0-a4f1-479e-b274-7822c415175a.jpg""]","",""
"","4703","similarity","143","984762","0.0-6.0-137.0","2","[""img/0769/3adfa417-3b90-4aab-b437-5eaa474189cb.jpg"",""img/0860/99c589b9-9140-4d17-90c0-b344323edcda.jpg""]","",""
"","4280","similarity","144","990047","0.0-6.0-138.0","4","[""img/0904/9dd5708f-3f8b-46a9-b49f-2f2fab87b357.jpg"",""img/0766/ba35c0fc-4d5b-490d-959e-c94b279cdd02.jpg""]","",""
"","3728","similarity","145","994782","0.0-6.0-139.0","3","[""img/0868/e0aff734-077f-40dd-9781-74821abd3621.jpg"",""img/0860/17b44a7d-c5ca-479f-9e87-f65a64f5c80e.jpg""]","",""
"","4742","similarity","146","1000529","0.0-6.0-140.0","4","[""img/0758/335851a0-a55b-46d8-ab05-8463eda48349.jpg"",""img/0864/a248adb3-c70b-4652-b7a3-776d2a1e904b.jpg""]","",""
"","5516","similarity","147","1007051","0.0-6.0-141.0","6","[""img/0867/c66898ba-b71b-4d50-84f9-f7f84853a98d.jpg"",""img/0867/cc72ed48-7704-422c-86d6-467a1145287a.jpg""]","",""
"","3356","similarity","148","1011411","0.0-6.0-142.0","7","[""img/0898/79233891-305a-4a6a-8ddf-5c8604858203.jpg"",""img/0898/ec565187-2e31-4fdd-9a5c-153d0c789ae0.jpg""]","",""
"","3834","similarity","149","1016249","0.0-6.0-143.0","2","[""img/0866/0207e9a2-7dbb-40b5-9459-b472aaeceb2a.jpg"",""img/0769/b664b502-a86c-46c1-ad6f-5ebffc2e1bd3.jpg""]","",""
"","5053","similarity","150","1022308","0.0-6.0-144.0","3","[""img/0860/c47fdead-eb02-4989-b078-26f4852f44fe.jpg"",""img/0898/f3a3f225-1248-4ac7-b93b-f0ff28485bf3.jpg""]","",""
"","4310","similarity","151","1027622","0.0-6.0-145.0","4","[""img/0766/1bc0dccc-a5b5-4375-87fa-28360ca42b12.jpg"",""img/0864/8ddd2e30-a1d0-479f-9cbe-591213023893.jpg""]","",""
"","3108","similarity","152","1031735","0.0-6.0-146.0","4","[""img/0860/61fb959d-d4d9-4de4-9e4e-4fa62b4cfcd5.jpg"",""img/0903/14f179a2-8786-48a2-8377-88d1d404341b.jpg""]","",""
"","4181","similarity","153","1036920","0.0-6.0-147.0","1","[""img/0867/85a96c62-548f-4994-9553-819e03c3135a.jpg"",""img/0764/f990b2e8-ecee-481e-be7c-0239fce350e2.jpg""]","",""
"","4877","similarity","154","1042801","0.0-6.0-148.0","4","[""img/0769/a3cfbdeb-acb3-4eac-87fb-4b117f42d4f8.jpg"",""img/0904/9b3568cc-3cf7-42be-9df3-fdafde7a58b8.jpg""]","",""
"","4832","similarity","155","1048637","0.0-6.0-149.0","4","[""img/0764/17b088f8-3053-4140-b544-d15654cc79ef.jpg"",""img/0901/7d4a3388-488d-4e9b-9d32-9d0def7aae8d.jpg""]","",""
"","3317","similarity","156","1052960","0.0-6.0-150.0","5","[""img/0904/96e503ea-6630-4996-85f2-0237688ce441.jpg"",""img/0899/4f7bc593-8ddd-4da3-a0b9-84da730d3370.jpg""]","",""
"","4844","similarity","157","1058810","0.0-6.0-151.0","4","[""img/0862/53a9cf7c-93c4-41b9-952f-07d17f7a17b2.jpg"",""img/0867/bf560d4f-dee3-4f11-a385-705cc1aa5f3c.jpg""]","",""
"","6712","similarity","158","1066527","0.0-6.0-152.0","7","[""img/0766/69e486f7-dbef-456b-9d48-53d814248a28.jpg"",""img/0766/aaec5f42-7f0a-4a16-aeca-488d757acbcc.jpg""]","",""
"","5020","similarity","159","1072552","0.0-6.0-153.0","5","[""img/0862/fb26cb07-d5a9-4653-813c-f41609f26cd5.jpg"",""img/0894/e6385e52-6c35-43bd-b0af-bc803d107b11.jpg""]","",""
"","4739","similarity","160","1078297","0.0-6.0-154.0","5","[""img/0899/a048912c-b12c-40e3-90af-46b69b0cc4fe.jpg"",""img/0901/b9141736-3041-4385-a586-b1fe911c76a5.jpg""]","",""
"","4332","similarity","161","1083632","0.0-6.0-155.0","6","[""img/0874/adf9a8f1-c40b-402b-b95b-1e85a54a7b62.jpg"",""img/0874/7e4f2150-3b59-4a36-b5da-a4e0ba410531.jpg""]","",""
"","4311","similarity","162","1088947","0.0-6.0-156.0","5","[""img/0860/9593362c-9fe5-4d12-9735-6000a11f6aa5.jpg"",""img/0867/7d1c497b-c1b3-4ed8-abb5-d7f73306015f.jpg""]","",""
"","5018","similarity","163","1094973","0.0-6.0-157.0","1","[""img/0901/ae1e6ce4-2e10-4ca9-b1e7-21628637ab74.jpg"",""img/0881/5fe04dd0-5c74-47b7-99c8-b068db9ca26a.jpg""]","",""
"","4811","similarity","164","1100789","0.0-6.0-158.0","6","[""img/0903/b0a3c45f-467e-412f-a183-c9c1827f2e63.jpg"",""img/0902/af45fe42-178c-4c1a-99ef-256e87e3b092.jpg""]","",""
"","3128","similarity","165","1104923","0.0-6.0-159.0","3","[""img/0860/e8b8c51e-1834-4875-8b61-6c5bc9b178bd.jpg"",""img/0764/5d6fa3ce-9083-410c-bbdb-336a49b94cfc.jpg""]","",""
"","4109","similarity","166","1110038","0.0-6.0-160.0","1","[""img/0902/f3cfec34-482c-4bdb-9c92-19ea6cfce183.jpg"",""img/0875/d59ff733-eaff-4ee2-9443-06954dd0bcb6.jpg""]","",""
"","4194","similarity","167","1115238","0.0-6.0-161.0","2","[""img/0898/0af304a2-6a7a-4082-ab7c-4450cd08cc58.jpg"",""img/0862/5d887e9f-89e2-4ebc-80a0-6d46fe6480db.jpg""]","",""
"","5618","similarity","168","1121860","0.0-6.0-162.0","1","[""img/0894/3664e04c-c6d3-4c9b-afb6-25d89974b174.jpg"",""img/0875/ebf7653f-ff45-4e9f-af58-2c042ab3cd2b.jpg""]","",""
"","4396","similarity","169","1127259","0.0-6.0-163.0","6","[""img/0866/bf14b5bd-fb55-47db-86b9-4f8aeb9a6dad.jpg"",""img/0864/da39ad34-04e0-40d4-a724-c08d53e0ea09.jpg""]","",""
"","2973","similarity","170","1131236","0.0-6.0-164.0","4","[""img/0766/0025de5e-f620-4079-8a0f-00326ff3a6b0.jpg"",""img/0862/00c06b00-3b73-44e9-bc1e-c5aafb438321.jpg""]","",""
"","2894","similarity","171","1135134","0.0-6.0-165.0","4","[""img/0866/be24ab58-230e-4db8-9f45-ff04c9aec6bb.jpg"",""img/0874/99f6563c-8a8d-4c1c-a41d-667b618c3fd5.jpg""]","",""
"","6732","similarity","172","1142873","0.0-6.0-166.0","6","[""img/0862/fad1d7c1-8187-43c3-942a-0fc12183e48e.jpg"",""img/0860/e14d67c1-6d92-4f1e-9257-c8607159c19c.jpg""]","",""
"","4113","similarity","173","1153087","0.0-6.0-167.0","5","[""img/0766/f5f78e4e-d88f-4866-951a-118ba9fec4d0.jpg"",""img/0901/4d1bed7e-3c4e-4f6c-ada9-4beb66ba9e39.jpg""]","",""
"","4075","similarity","174","1158166","0.0-6.0-168.0","7","[""img/0862/d0ca4c78-fc35-46ed-bdcc-8e124283c53e.jpg"",""img/0862/1c20f772-3a51-4a80-aac0-f57dc9f86c28.jpg""]","",""
"","3466","similarity","175","1162638","0.0-6.0-169.0","6","[""img/0894/7dd6ff43-f8fc-408a-8a41-a2b261871820.jpg"",""img/0764/958b8576-3a3b-4acc-96dc-06b74de69f37.jpg""]","",""
"","3592","similarity","176","1167234","0.0-6.0-170.0","2","[""img/0874/3ce41e7c-40c8-4d58-a546-171114521796.jpg"",""img/0898/b2732712-71c2-45d8-834f-2b2ed5504910.jpg""]","",""
"","3995","similarity","177","1172234","0.0-6.0-171.0","4","[""img/0860/c7047cd2-7cc1-41b6-8a34-c0986774975f.jpg"",""img/0766/0bf3793e-c353-45e5-ac6f-753f5f484e10.jpg""]","",""
"","3887","similarity","178","1177129","0.0-6.0-172.0","3","[""img/0898/26c41340-15bd-4ead-8fe4-c0d0ddca09c2.jpg"",""img/0864/afcba0a3-7e27-4757-b254-e9f05fad27e2.jpg""]","",""
"","4269","similarity","179","1182409","0.0-6.0-173.0","2","[""img/0881/d1982897-8d8d-4704-a940-1ee5d07a1f15.jpg"",""img/0764/ef0e64c6-d0dd-4dc6-87b6-ce5c0665f421.jpg""]","",""
"","4271","similarity","180","1187688","0.0-6.0-174.0","1","[""img/0898/a8f16b02-e19f-423b-86c3-a36562ae1f9b.jpg"",""img/0868/d98ca254-b195-477f-b57e-5760a2717db8.jpg""]","",""
"","3343","similarity","181","1192037","0.0-6.0-175.0","2","[""img/0864/ef9cbca0-4be8-435d-ad49-977259e80409.jpg"",""img/0864/e02eddb5-f468-499c-91bf-f7be3ffe979b.jpg""]","",""
"","3393","similarity","182","1196434","0.0-6.0-176.0","4","[""img/0899/51a7a498-98c7-42d7-bca8-bc2d8f0b5831.jpg"",""img/0862/847e5208-38ec-4f36-949c-296cdd7424ee.jpg""]","",""
"","3867","similarity","183","1201305","0.0-6.0-177.0","5","[""img/0875/fb732ab5-013a-4366-9f65-27811ed157e9.jpg"",""img/0758/7ffbc76b-1fc1-432c-8f7e-9ec8d1b3f643.jpg""]","",""
"","4422","similarity","184","1206732","0.0-6.0-178.0","2","[""img/0866/11a1d141-be5e-443c-98c1-a9d4d9e3dec0.jpg"",""img/0901/c6c877e0-dd63-4e00-9657-33af29d55aab.jpg""]","",""
"","3681","similarity","185","1211417","0.0-6.0-179.0","2","[""img/0769/3c1efec9-f8fd-487d-8955-4be88e48c832.jpg"",""img/0874/a3bc679d-619f-4db6-bb68-116dcb757d9c.jpg""]","",""
"","4679","similarity","186","1217100","0.0-6.0-180.0","5","[""img/0875/5a716432-c6ca-4b1c-955a-2b8ac25198ee.jpg"",""img/0881/48ed65a5-471f-41af-86ec-3793805c116d.jpg""]","",""
"","4791","similarity","187","1222895","0.0-6.0-181.0","6","[""img/0866/d493a2c8-66eb-44b4-be02-2f327b700b7c.jpg"",""img/0868/8b0b8473-e2c0-4331-aa56-c3a5c29369da.jpg""]","",""
"","5916","similarity","188","1229818","0.0-6.0-182.0","4","[""img/0899/66bf4113-ee12-426c-84d2-ea410b6c803e.jpg"",""img/0758/61d64021-9214-4951-bdf8-f871f9827cf9.jpg""]","",""
"","4598","similarity","189","1235422","0.0-6.0-183.0","5","[""img/0874/995f0332-0439-4eb4-add3-957335dbf6d9.jpg"",""img/0875/03c3c331-738b-4446-af92-3d7386b08c2e.jpg""]","",""
"","3480","similarity","190","1239907","0.0-6.0-184.0","4","[""img/0904/b5855d6a-7ef9-46ca-9215-6e9fa046e543.jpg"",""img/0862/92fcd8a4-8193-4a6a-ae09-dd4a6338b0df.jpg""]","",""
"","4068","similarity","191","1244980","0.0-6.0-185.0","7","[""img/0902/12452bb1-b8c0-4e4d-ad4d-47e279e5933c.jpg"",""img/0766/dd3e18d0-0c98-4d05-b850-69976ee8cd75.jpg""]","",""
"","3397","similarity","192","1249381","0.0-6.0-186.0","2","[""img/0758/d57c2592-a317-4f63-91be-91a3a9afd222.jpg"",""img/0769/9ea9ceb6-049e-4ad9-be8f-00645cd35803.jpg""]","",""
"","4911","similarity","193","1255299","0.0-6.0-187.0","7","[""img/0881/7e822106-76f7-4b10-a805-14dc68b2cfaf.jpg"",""img/0881/292e9b4b-fca0-4ba8-87f1-4048f9e37b7d.jpg""]","",""
"","5689","similarity","194","1261992","0.0-6.0-188.0","5","[""img/0758/67c0be2f-9e91-48b3-8219-70ac0a1802fa.jpg"",""img/0866/d266fece-59b3-46fa-b69f-96f6efb81b59.jpg""]","",""
"","3258","similarity","195","1266255","0.0-6.0-189.0","6","[""img/0764/6ef77040-1fae-4afa-bfe7-eda98e6d0376.jpg"",""img/0898/68476bbb-34a1-42d9-8bc1-deab783d4489.jpg""]","",""
"","3721","similarity","196","1270980","0.0-6.0-190.0","6","[""img/0903/0a92ec52-4e87-410a-857a-4455cde56a70.jpg"",""img/0901/443f2e59-199b-4f7b-9de9-c44ad97326a5.jpg""]","",""
"","4747","similarity","197","1276733","0.0-6.0-191.0","7","[""img/0902/10d99c89-71f7-4c81-a31e-dfc7c59f5232.jpg"",""img/0898/6cd3830b-d44e-4915-be2b-88d31424b91c.jpg""]","",""
"","4015","similarity","198","1281755","0.0-6.0-192.0","2","[""img/0864/9b2490c5-a282-400a-9736-e1a0ecbf1cb7.jpg"",""img/0901/00acf6c1-b66e-4060-bb04-4caf29b5a8b0.jpg""]","",""
"","4225","similarity","199","1286984","0.0-6.0-193.0","3","[""img/0894/792c83e9-a747-4000-bc72-5663d2439edb.jpg"",""img/0881/db77fe00-aeb0-4d1d-aa66-f3a96fd077e4.jpg""]","",""
"","3980","similarity","200","1291968","0.0-6.0-194.0","7","[""img/0868/77091fc7-a590-4ebb-b915-fdb2483a2399.jpg"",""img/0868/c8ac40c7-6904-4e13-8d61-c75d3052dc4e.jpg""]","",""
"","4409","similarity","201","1297382","0.0-6.0-195.0","5","[""img/0899/06b0fc99-0581-461a-9913-d1a5a941ac61.jpg"",""img/0764/fb92924f-5cfe-4b89-b130-0cce8cc5636b.jpg""]","",""
"","4028","similarity","202","1302415","0.0-6.0-196.0","2","[""img/0881/609a5e93-38b5-4940-8627-2bf8fad7f802.jpg"",""img/0904/ba8e689e-9ca6-4608-a2a1-3b0940666ae6.jpg""]","",""
"","3208","similarity","203","1306627","0.0-6.0-197.0","2","[""img/0864/6e846d43-94a6-4b37-a268-65eda979f052.jpg"",""img/0902/fbef27fa-ac83-4936-ab78-9d1c20a383e1.jpg""]","",""
"","3711","similarity","204","1311342","0.0-6.0-198.0","6","[""img/0894/133a1636-d123-4893-873c-1718050f832a.jpg"",""img/0904/6291eb43-c10c-4810-a36a-101d09868b04.jpg""]","",""
"","4341","similarity","205","1316689","0.0-6.0-199.0","7","[""img/0901/da4fe30f-d12a-491e-96a2-5ab8ebaadd09.jpg"",""img/0901/effc03f6-8f9d-46db-a66c-16fc83891c5c.jpg""]","",""
"","4081","similarity","206","1321775","0.0-6.0-200.0","2","[""img/0894/6aa5545f-fa7d-4286-bbaa-aaf34dc7ec96.jpg"",""img/0860/c5ccd1a4-4bb7-48e1-9b25-72cfaf06909b.jpg""]","",""
"","5082","similarity","207","1327865","0.0-6.0-201.0","6","[""img/0898/224c1572-56b9-4f16-a9e4-6f3bc9c114bd.jpg"",""img/0903/71dbc325-b588-4297-a5cf-7f268a722ad9.jpg""]","",""
"","4264","similarity","208","1333134","0.0-6.0-202.0","5","[""img/0864/e336a4c5-6648-4fd7-b2f6-93a3fb83f8c6.jpg"",""img/0894/76c1201f-8524-4865-85e6-dda8cb4ac986.jpg""]","",""
"","4487","similarity","209","1338627","0.0-6.0-203.0","5","[""img/0874/3f471690-9788-4d03-90c7-f615aecef149.jpg"",""img/0860/8277806e-b684-4474-8f7b-3fca946d7d4f.jpg""]","",""
"","5389","similarity","210","1345020","0.0-6.0-204.0","3","[""img/0862/47ed5efd-4ec9-4b74-bb4e-a5f5cf0c3e7d.jpg"",""img/0875/3ecb367d-e9eb-4826-8aaa-7aa72fb98019.jpg""]","",""
"","4890","similarity","211","1350916","0.0-6.0-205.0","6","[""img/0867/de92135f-5b65-4ed9-b245-188292c7c2f8.jpg"",""img/0881/667e2147-d457-4f32-aa5f-6ab86e5848f1.jpg""]","",""
"","4029","similarity","212","1355948","0.0-6.0-206.0","6","[""img/0901/1b86f2fc-7a1d-4aa8-9252-114f92edef3b.jpg"",""img/0902/0c760cc9-10ac-429e-8957-a7d51fc99683.jpg""]","",""
"","5470","similarity","213","1362422","0.0-6.0-207.0","3","[""img/0899/93494f3b-d539-4075-b027-d82e344563da.jpg"",""img/0864/f92649a2-0590-4d31-9a7a-1bfb81666a2d.jpg""]","",""
"","4153","similarity","214","1367580","0.0-6.0-208.0","5","[""img/0901/58978a6d-a3e2-4c59-8d62-f60693ecc0f6.jpg"",""img/0769/3c1203c5-2ce7-466e-957a-8d77b5905460.jpg""]","",""
"","3670","similarity","215","1377042","0.0-6.0-209.0","7","[""img/0902/9f543501-3cf1-45a7-a2f1-eeca87cc15b9.jpg"",""img/0902/6730b12a-f0a7-4587-8c10-a32fae16565b.jpg""]","",""
"[{""page_index"":0,""viewing_time"":21448}]","21449","instructions","216","1399492","0.0-7.0","","","",""
"","14249","image-multi-choice","217","1414762","0.0-8.0-0.0","","","{""Q0"":""Orange-crowned Warbler""}","Nashville Warbler"
"","10047","image-multi-choice","218","1425824","0.0-8.0-1.0","","","{""Q0"":""Black-and-white Warbler""}","Black-and-white Warbler"
"","5622","image-multi-choice","219","1432460","0.0-8.0-2.0","","","{""Q0"":""Black-and-white Warbler""}","Townsend's Warbler"
"","5434","image-multi-choice","220","1438909","0.0-8.0-3.0","","","{""Q0"":""Lark Sparrow""}","Lark Sparrow"
"","2550","image-multi-choice","221","1442472","0.0-8.0-4.0","","","{""Q0"":""Yellow Warbler""}","Yellow Warbler"
"","8178","image-multi-choice","222","1451665","0.0-8.0-5.0","","","{""Q0"":""Orange-crowned Warbler""}","Orange-crowned Warbler"
"","3957","image-multi-choice","223","1456638","0.0-8.0-6.0","","","{""Q0"":""White-throated Sparrow""}","White-throated Sparrow"
"","3645","image-multi-choice","224","1461297","0.0-8.0-7.0","","","{""Q0"":""Fox Sparrow""}","Fox Sparrow"
"","6597","image-multi-choice","225","1468909","0.0-8.0-8.0","","","{""Q0"":""Song Sparrow""}","Song Sparrow"
"","6236","image-multi-choice","226","1476163","0.0-8.0-9.0","","","{""Q0"":""Magnolia Warbler""}","Blackburnian Warbler"
"","15015","image-multi-choice","227","1492191","0.0-8.0-10.0","","","{""Q0"":""Chipping Sparrow""}","Vesper Sparrow"
"","3699","image-multi-choice","228","1496907","0.0-8.0-11.0","","","{""Q0"":""White-crowned Sparrow""}","White-crowned Sparrow"
"","4353","image-multi-choice","229","1502274","0.0-8.0-12.0","","","{""Q0"":""American Tree Sparrow""}","American Tree Sparrow"
"","5869","image-multi-choice","230","1509159","0.0-8.0-13.0","","","{""Q0"":""Nashville Warbler""}","Tennessee Warbler"
"","9407","image-multi-choice","231","1519577","0.0-8.0-14.0","","","{""Q0"":""Blackburnian Warbler""}","Magnolia Warbler"
"","5904","image-multi-choice","232","1526494","0.0-8.0-15.0","","","{""Q0"":""Northern Waterthrush""}","Northern Waterthrush"
"","12723","image-multi-choice","233","1540234","0.0-8.0-16.0","","","{""Q0"":""Chipping Sparrow""}","Chipping Sparrow"
"","7272","image-multi-choice","234","1548523","0.0-8.0-17.0","","","{""Q0"":""Lincoln's Sparrow""}","Swamp Sparrow"
"","14431","image-multi-choice","235","1563972","0.0-8.0-18.0","","","{""Q0"":""Swamp Sparrow""}","Lincoln's Sparrow"
"","4546","image-multi-choice","236","1569533","0.0-8.0-19.0","","","{""Q0"":""Ovenbird""}","Ovenbird"
