[{"view_history":"[{\"page_index\":0,\"viewing_time\":5424}]","rt":5425,"trial_type":"instructions","trial_index":0,"time_elapsed":5429,"internal_node_id":"0.0-0.0"},{"sim_score":3,"rt":4967,"stimulus":"[\"img/866.jpg\",\"img/868.jpg\"]","trial_type":"similarity_demo","trial_index":1,"time_elapsed":11433,"internal_node_id":"0.0-1.0"},{"view_history":"[{\"page_index\":0,\"viewing_time\":2442}]","rt":2443,"trial_type":"instructions","trial_index":2,"time_elapsed":14886,"internal_node_id":"0.0-2.0"},{"sim_score":1,"rt":3345,"stimulus":"[\"img/766.jpg\",\"img/867.jpg\"]","trial_type":"similarity_demo","trial_index":3,"time_elapsed":19263,"internal_node_id":"0.0-3.0"},{"view_history":"[{\"page_index\":0,\"viewing_time\":2493}]","rt":2494,"trial_type":"instructions","trial_index":4,"time_elapsed":22767,"internal_node_id":"0.0-4.0"},{"view_history":"[{\"page_index\":0,\"viewing_time\":2613}]","rt":2614,"trial_type":"instructions","trial_index":5,"time_elapsed":26391,"internal_node_id":"0.0-5.0"},{"sim_score":1,"rt":3959,"stimulus":"[\"img/0868/09a9ef4d-d000-4cfa-a6aa-ebec7c2edeb4.jpg\",\"img/0901/1ede21d9-384f-4150-86b5-e1c57b5dc1d4.jpg\"]","trial_type":"similarity","trial_index":6,"time_elapsed":31372,"internal_node_id":"0.0-6.0-0.0"},{"sim_score":2,"rt":3439,"stimulus":"[\"img/0769/35f2dd39-40aa-498e-b401-9f1ef2622d00.jpg\",\"img/0867/26611f4e-d694-4460-b7e2-43c62753ddc3.jpg\"]","trial_type":"similarity","trial_index":7,"time_elapsed":35842,"internal_node_id":"0.0-6.0-1.0"},{"sim_score":2,"rt":3927,"stimulus":"[\"img/0766/51d3aab4-3d09-4dda-b99d-3dc7aaabc6f2.jpg\",\"img/0898/cd3aaa3f-efa9-4ab3-8d6f-a6a9273ddf42.jpg\"]","trial_type":"similarity","trial_index":8,"time_elapsed":40800,"internal_node_id":"0.0-6.0-2.0"},{"sim_score":3,"rt":4277,"stimulus":"[\"img/0902/eb3e7e71-8ff1-4b88-a6a7-47e2c1ce1683.jpg\",\"img/0881/f037e3b0-09cb-4a83-b2d9-6a71fe474e63.jpg\"]","trial_type":"similarity","trial_index":9,"time_elapsed":46107,"internal_node_id":"0.0-6.0-3.0"},{"sim_score":5,"rt":2998,"stimulus":"[\"img/0894/7f2f31fd-6618-41c6-b65a-0fd8b2851bc9.jpg\",\"img/0894/3adef67d-7676-4995-80b2-bb31b8aca3ef.jpg\"]","trial_type":"similarity","trial_index":10,"time_elapsed":50134,"internal_node_id":"0.0-6.0-4.0"},{"sim_score":6,"rt":2473,"stimulus":"[\"img/0874/bf14b896-e930-4fd9-9c05-2e83317a2773.jpg\",\"img/0899/66bf4113-ee12-426c-84d2-ea410b6c803e.jpg\"]","trial_type":"similarity","trial_index":11,"time_elapsed":53635,"internal_node_id":"0.0-6.0-5.0"},{"sim_score":5,"rt":3798,"stimulus":"[\"img/0904/60d1a521-edf7-4696-9263-f21ac0e62a01.jpg\",\"img/0764/e0788029-9d7f-414c-b747-46d2a99f7c86.jpg\"]","trial_type":"similarity","trial_index":12,"time_elapsed":58469,"internal_node_id":"0.0-6.0-6.0"},{"sim_score":6,"rt":4753,"stimulus":"[\"img/0899/0adc0bc3-6fca-4078-be6f-d45ddf1653d5.jpg\",\"img/0898/8605a25b-6895-476d-8c13-df7a83f96093.jpg\"]","trial_type":"similarity","trial_index":13,"time_elapsed":64264,"internal_node_id":"0.0-6.0-7.0"},{"sim_score":2,"rt":2815,"stimulus":"[\"img/0874/3ce41e7c-40c8-4d58-a546-171114521796.jpg\",\"img/0903/aa842abe-6fa3-448a-bf71-88d3ad28663b.jpg\"]","trial_type":"similarity","trial_index":14,"time_elapsed":68104,"internal_node_id":"0.0-6.0-8.0"},{"sim_score":2,"rt":4544,"stimulus":"[\"img/0881/d373cb9f-a719-4549-a2a4-82def79fb2a5.jpg\",\"img/0758/53f35650-e455-4b53-8be4-c3c8271c6466.jpg\"]","trial_type":"similarity","trial_index":15,"time_elapsed":73690,"internal_node_id":"0.0-6.0-9.0"},{"sim_score":3,"rt":4725,"stimulus":"[\"img/0898/b3290bf9-215b-4b45-b21a-65bdf73f142f.jpg\",\"img/0901/d6d15b1c-4a30-4f74-a3fd-d4c8ee4169ca.jpg\"]","trial_type":"similarity","trial_index":16,"time_elapsed":79463,"internal_node_id":"0.0-6.0-10.0"},{"sim_score":6,"rt":2950,"stimulus":"[\"img/0903/e2e55a9e-0397-4dc0-8adf-4a54cfefe1fe.jpg\",\"img/0769/0fe124d3-bcad-45f6-b64d-8f6eb8ee5251.jpg\"]","trial_type":"similarity","trial_index":17,"time_elapsed":83446,"internal_node_id":"0.0-6.0-11.0"},{"sim_score":2,"rt":3988,"stimulus":"[\"img/0764/29072395-f595-4e3c-83d3-ff87010039fa.jpg\",\"img/0868/8b0b8473-e2c0-4331-aa56-c3a5c29369da.jpg\"]","trial_type":"similarity","trial_index":18,"time_elapsed":88469,"internal_node_id":"0.0-6.0-12.0"},{"sim_score":2,"rt":3081,"stimulus":"[\"img/0867/db7e032f-162b-46f5-ae67-2b29679adee4.jpg\",\"img/0903/f10e9eb5-0c21-4a6a-944c-5f10a6d0fa4d.jpg\"]","trial_type":"similarity","trial_index":19,"time_elapsed":92586,"internal_node_id":"0.0-6.0-13.0"},{"sim_score":2,"rt":5014,"stimulus":"[\"img/0766/dd3e18d0-0c98-4d05-b850-69976ee8cd75.jpg\",\"img/0758/335851a0-a55b-46d8-ab05-8463eda48349.jpg\"]","trial_type":"similarity","trial_index":20,"time_elapsed":98625,"internal_node_id":"0.0-6.0-14.0"},{"sim_score":6,"rt":3423,"stimulus":"[\"img/0902/3b243e54-0803-4c29-af42-4037c2118495.jpg\",\"img/0860/8277806e-b684-4474-8f7b-3fca946d7d4f.jpg\"]","trial_type":"similarity","trial_index":21,"time_elapsed":103092,"internal_node_id":"0.0-6.0-15.0"},{"sim_score":2,"rt":3061,"stimulus":"[\"img/0769/4a1d0b52-3fe8-40fb-bb1c-c814fe49a68c.jpg\",\"img/0875/34132396-d896-4c2d-8087-646dd867e769.jpg\"]","trial_type":"similarity","trial_index":22,"time_elapsed":107183,"internal_node_id":"0.0-6.0-16.0"},{"sim_score":3,"rt":5288,"stimulus":"[\"img/0904/e9423a8c-f946-43ad-ab7b-931acef870e2.jpg\",\"img/0866/a04d37f0-99dd-478a-b6c6-58b215138f84.jpg\"]","trial_type":"similarity","trial_index":23,"time_elapsed":113514,"internal_node_id":"0.0-6.0-17.0"},{"sim_score":7,"rt":3428,"stimulus":"[\"img/0875/99698b4d-b4a1-44bc-8c83-8ea755bbbf61.jpg\",\"img/0875/2c361b79-c3d1-4eda-812e-bf03192407bf.jpg\"]","trial_type":"similarity","trial_index":24,"time_elapsed":117979,"internal_node_id":"0.0-6.0-18.0"},{"sim_score":6,"rt":2573,"stimulus":"[\"img/0758/d41c06bf-ebaf-454b-91c6-1a17f917b659.jpg\",\"img/0758/7fba58df-2a7a-4b76-8a8f-62739f97f271.jpg\"]","trial_type":"similarity","trial_index":25,"time_elapsed":121582,"internal_node_id":"0.0-6.0-19.0"},{"sim_score":3,"rt":3974,"stimulus":"[\"img/0902/7499db23-3a41-41ea-ab5b-6ab4d4c3ed35.jpg\",\"img/0874/99f6563c-8a8d-4c1c-a41d-667b618c3fd5.jpg\"]","trial_type":"similarity","trial_index":26,"time_elapsed":126585,"internal_node_id":"0.0-6.0-20.0"},{"sim_score":6,"rt":3433,"stimulus":"[\"img/0764/4bec8d92-75aa-475a-954d-8215dbe538f5.jpg\",\"img/0769/458d9c77-b844-40b5-bb1b-1e3bbd4da64e.jpg\"]","trial_type":"similarity","trial_index":27,"time_elapsed":131056,"internal_node_id":"0.0-6.0-21.0"},{"sim_score":1,"rt":6191,"stimulus":"[\"img/0901/233a6948-48eb-4b67-8259-222b916b2322.jpg\",\"img/0874/767f289c-9814-4496-803f-745cc8913d1f.jpg\"]","trial_type":"similarity","trial_index":28,"time_elapsed":138275,"internal_node_id":"0.0-6.0-22.0"},{"sim_score":7,"rt":2935,"stimulus":"[\"img/0875/90da8d75-108a-44ad-b999-e21fee3860d3.jpg\",\"img/0903/12bd8657-92e6-4c36-a06c-597e7a1d51f3.jpg\"]","trial_type":"similarity","trial_index":29,"time_elapsed":142236,"internal_node_id":"0.0-6.0-23.0"},{"sim_score":5,"rt":3179,"stimulus":"[\"img/0769/14d393ce-e5be-4ca1-86ce-cc27d4b6074c.jpg\",\"img/0881/667e2147-d457-4f32-aa5f-6ab86e5848f1.jpg\"]","trial_type":"similarity","trial_index":30,"time_elapsed":146465,"internal_node_id":"0.0-6.0-24.0"},{"sim_score":3,"rt":3131,"stimulus":"[\"img/0867/85a96c62-548f-4994-9553-819e03c3135a.jpg\",\"img/0904/09dac84f-3d1c-4445-a68e-d0389fdbf1e9.jpg\"]","trial_type":"similarity","trial_index":31,"time_elapsed":150627,"internal_node_id":"0.0-6.0-25.0"},{"sim_score":1,"rt":5503,"stimulus":"[\"img/0860/31ff6436-98bf-4652-bed2-40f627229568.jpg\",\"img/0881/f6bd3b96-dc40-4e99-8681-bc3a35cf896d.jpg\"]","trial_type":"similarity","trial_index":32,"time_elapsed":157152,"internal_node_id":"0.0-6.0-26.0"},{"sim_score":4,"rt":3641,"stimulus":"[\"img/0866/07c9c966-3c8d-40e7-8128-92b2acbaed5d.jpg\",\"img/0866/23a224f3-2012-4fc8-8e0f-3c36f8de27fd.jpg\"]","trial_type":"similarity","trial_index":33,"time_elapsed":161825,"internal_node_id":"0.0-6.0-27.0"},{"sim_score":2,"rt":4217,"stimulus":"[\"img/0764/6ef77040-1fae-4afa-bfe7-eda98e6d0376.jpg\",\"img/0862/f188d4f0-76a4-4102-818c-a209969d73a5.jpg\"]","trial_type":"similarity","trial_index":34,"time_elapsed":167066,"internal_node_id":"0.0-6.0-28.0"},{"sim_score":2,"rt":4449,"stimulus":"[\"img/0904/6291eb43-c10c-4810-a36a-101d09868b04.jpg\",\"img/0758/a709631e-3705-4725-ac40-f0d916924f08.jpg\"]","trial_type":"similarity","trial_index":35,"time_elapsed":172551,"internal_node_id":"0.0-6.0-29.0"},{"sim_score":3,"rt":4765,"stimulus":"[\"img/0894/c505c65a-cde2-4f2c-8cde-f8676f7c894d.jpg\",\"img/0899/7b7380d5-d2be-44e5-a09a-c1756f87ef71.jpg\"]","trial_type":"similarity","trial_index":36,"time_elapsed":178383,"internal_node_id":"0.0-6.0-30.0"},{"sim_score":3,"rt":5614,"stimulus":"[\"img/0860/702bd09d-df3a-40aa-a267-5f04474305b5.jpg\",\"img/0904/9dd5708f-3f8b-46a9-b49f-2f2fab87b357.jpg\"]","trial_type":"similarity","trial_index":37,"time_elapsed":185024,"internal_node_id":"0.0-6.0-31.0"},{"sim_score":6,"rt":3962,"stimulus":"[\"img/0874/c0378dac-9370-439a-8b79-db27c96fb390.jpg\",\"img/0881/62a64f90-7a72-4aee-a1a1-0c548ac9bdda.jpg\"]","trial_type":"similarity","trial_index":38,"time_elapsed":190026,"internal_node_id":"0.0-6.0-32.0"},{"sim_score":5,"rt":3667,"stimulus":"[\"img/0881/1407b85b-a1c6-45b1-9884-3b24203efadb.jpg\",\"img/0899/7f9d45d0-b2c6-40d3-aa41-c207db2c411b.jpg\"]","trial_type":"similarity","trial_index":39,"time_elapsed":194716,"internal_node_id":"0.0-6.0-33.0"},{"sim_score":6,"rt":3553,"stimulus":"[\"img/0866/6f2a90d7-14f1-4f1b-bd64-fc0af6b9fe44.jpg\",\"img/0862/a0a3a7ba-7798-46a3-b4ca-05e1f6e581d0.jpg\"]","trial_type":"similarity","trial_index":40,"time_elapsed":199293,"internal_node_id":"0.0-6.0-34.0"},{"sim_score":3,"rt":4807,"stimulus":"[\"img/0868/3a62db2d-97e9-44a3-b8e3-a48c6f0e423b.jpg\",\"img/0894/38f5931f-926d-414e-b498-66b188978b7a.jpg\"]","trial_type":"similarity","trial_index":41,"time_elapsed":205137,"internal_node_id":"0.0-6.0-35.0"},{"sim_score":7,"rt":4097,"stimulus":"[\"img/0860/524b2e98-5767-4d53-942c-ebae6925659b.jpg\",\"img/0860/4f695df5-afac-4da7-9875-fee39b0b24ad.jpg\"]","trial_type":"similarity","trial_index":42,"time_elapsed":210275,"internal_node_id":"0.0-6.0-36.0"},{"sim_score":6,"rt":3559,"stimulus":"[\"img/0862/e697469a-ec19-4414-b972-7b9f3564785b.jpg\",\"img/0864/5f33e097-23e3-4002-882d-76e8cb15f451.jpg\"]","trial_type":"similarity","trial_index":43,"time_elapsed":214868,"internal_node_id":"0.0-6.0-37.0"},{"sim_score":1,"rt":4549,"stimulus":"[\"img/0766/d3bab2fc-ddcc-40a0-bb72-c0d0ebe19978.jpg\",\"img/0866/bf14b5bd-fb55-47db-86b9-4f8aeb9a6dad.jpg\"]","trial_type":"similarity","trial_index":44,"time_elapsed":220448,"internal_node_id":"0.0-6.0-38.0"},{"sim_score":3,"rt":3802,"stimulus":"[\"img/0875/a4935837-7d3c-4df6-88c1-36a94d4991ca.jpg\",\"img/0898/c3cecf20-f7fd-45fa-97d0-dc0a63e8d6c0.jpg\"]","trial_type":"similarity","trial_index":45,"time_elapsed":225294,"internal_node_id":"0.0-6.0-39.0"},{"sim_score":6,"rt":3808,"stimulus":"[\"img/0766/f5f78e4e-d88f-4866-951a-118ba9fec4d0.jpg\",\"img/0769/1ca58b80-2365-446d-9616-6c1719e6c46f.jpg\"]","trial_type":"similarity","trial_index":46,"time_elapsed":230154,"internal_node_id":"0.0-6.0-40.0"},{"sim_score":3,"rt":4268,"stimulus":"[\"img/0874/85eb9b8a-c4c6-4e5a-b8e7-363a87a82054.jpg\",\"img/0764/ef0e64c6-d0dd-4dc6-87b6-ce5c0665f421.jpg\"]","trial_type":"similarity","trial_index":47,"time_elapsed":241454,"internal_node_id":"0.0-6.0-41.0"},{"sim_score":2,"rt":4477,"stimulus":"[\"img/0868/15dd6fd7-791e-4b53-b203-195d617521a4.jpg\",\"img/0902/c920f0e1-1c81-480f-a164-c77f2dc6ce9a.jpg\"]","trial_type":"similarity","trial_index":48,"time_elapsed":246964,"internal_node_id":"0.0-6.0-42.0"},{"sim_score":1,"rt":3964,"stimulus":"[\"img/0875/8521fd58-3b1e-4dc5-97ae-804edfa6734a.jpg\",\"img/0899/51a7a498-98c7-42d7-bca8-bc2d8f0b5831.jpg\"]","trial_type":"similarity","trial_index":49,"time_elapsed":251961,"internal_node_id":"0.0-6.0-43.0"},{"sim_score":2,"rt":4830,"stimulus":"[\"img/0866/f756f7d1-9ad8-4a34-9ef6-7a443d705bfe.jpg\",\"img/0860/99c589b9-9140-4d17-90c0-b344323edcda.jpg\"]","trial_type":"similarity","trial_index":50,"time_elapsed":257826,"internal_node_id":"0.0-6.0-44.0"},{"sim_score":2,"rt":3206,"stimulus":"[\"img/0766/d50d734f-285c-4840-bc7a-c8dd4aff391e.jpg\",\"img/0903/bf0a7d60-eca5-44b0-bafd-baf21db9904b.jpg\"]","trial_type":"similarity","trial_index":51,"time_elapsed":262052,"internal_node_id":"0.0-6.0-45.0"},{"sim_score":2,"rt":3261,"stimulus":"[\"img/0901/168eb52c-c415-43f1-b5c8-e76e1a1ec247.jpg\",\"img/0904/696ebb60-8891-417a-91fd-c53218907a95.jpg\"]","trial_type":"similarity","trial_index":52,"time_elapsed":266344,"internal_node_id":"0.0-6.0-46.0"},{"sim_score":3,"rt":3243,"stimulus":"[\"img/0758/ddc336e9-a8b6-4bb9-937a-c7e25e0e9250.jpg\",\"img/0902/af45fe42-178c-4c1a-99ef-256e87e3b092.jpg\"]","trial_type":"similarity","trial_index":53,"time_elapsed":270619,"internal_node_id":"0.0-6.0-47.0"},{"sim_score":7,"rt":4657,"stimulus":"[\"img/0764/fb7d4a20-a475-465e-a74f-aa39a0d33d16.jpg\",\"img/0764/3297a811-ea8b-4d74-9547-59cecab7293a.jpg\"]","trial_type":"similarity","trial_index":54,"time_elapsed":276311,"internal_node_id":"0.0-6.0-48.0"},{"sim_score":3,"rt":3696,"stimulus":"[\"img/0866/02f5e6b9-52b7-448c-9708-5b460d0c9a23.jpg\",\"img/0902/b03fee99-d5ca-4bf8-871c-a4a743a39842.jpg\"]","trial_type":"similarity","trial_index":55,"time_elapsed":281042,"internal_node_id":"0.0-6.0-49.0"},{"sim_score":4,"rt":3839,"stimulus":"[\"img/0764/03c07b98-3f18-4b71-bb70-ecff564a78d1.jpg\",\"img/0758/3ddd05d3-557e-4ee7-8b78-9d2d681d8ae2.jpg\"]","trial_type":"similarity","trial_index":56,"time_elapsed":285960,"internal_node_id":"0.0-6.0-50.0"},{"sim_score":5,"rt":4524,"stimulus":"[\"img/0898/6cd3830b-d44e-4915-be2b-88d31424b91c.jpg\",\"img/0894/e5edf723-72a5-4673-8441-6c1734a8929b.jpg\"]","trial_type":"similarity","trial_index":57,"time_elapsed":291518,"internal_node_id":"0.0-6.0-51.0"},{"sim_score":5,"rt":3880,"stimulus":"[\"img/0875/03c3c331-738b-4446-af92-3d7386b08c2e.jpg\",\"img/0866/9b38d691-1802-4959-ab3f-fc902f0e4ea6.jpg\"]","trial_type":"similarity","trial_index":58,"time_elapsed":296432,"internal_node_id":"0.0-6.0-52.0"},{"sim_score":5,"rt":5753,"stimulus":"[\"img/0904/b7c2a2c8-df33-4473-b3d4-ff7147c60db3.jpg\",\"img/0904/63dd06dd-dccb-47ba-9740-eb33239e18a7.jpg\"]","trial_type":"similarity","trial_index":59,"time_elapsed":303213,"internal_node_id":"0.0-6.0-53.0"},{"sim_score":6,"rt":2710,"stimulus":"[\"img/0769/75f7e514-0548-4329-b1e4-93c05e74f038.jpg\",\"img/0769/057eb0a0-aa5b-40c7-9852-21444f68d767.jpg\"]","trial_type":"similarity","trial_index":60,"time_elapsed":306953,"internal_node_id":"0.0-6.0-54.0"},{"sim_score":1,"rt":3792,"stimulus":"[\"img/0898/661621d4-a14e-487c-8c74-354134a29710.jpg\",\"img/0758/a085b443-b5d7-4cb2-9ad4-b9dab0fc23f1.jpg\"]","trial_type":"similarity","trial_index":61,"time_elapsed":311773,"internal_node_id":"0.0-6.0-55.0"},{"sim_score":4,"rt":3732,"stimulus":"[\"img/0769/387a9744-d6a7-42b8-bab8-33007ec434aa.jpg\",\"img/0902/01b41522-de46-4c3a-b0af-a61b2682b40e.jpg\"]","trial_type":"similarity","trial_index":62,"time_elapsed":316535,"internal_node_id":"0.0-6.0-56.0"},{"sim_score":3,"rt":3778,"stimulus":"[\"img/0864/da39ad34-04e0-40d4-a724-c08d53e0ea09.jpg\",\"img/0881/4bd34581-94d8-4e88-8c89-5cef864ca3be.jpg\"]","trial_type":"similarity","trial_index":63,"time_elapsed":321381,"internal_node_id":"0.0-6.0-57.0"},{"sim_score":1,"rt":4837,"stimulus":"[\"img/0758/e1ba5e53-addc-436a-b428-d34fc1b130dc.jpg\",\"img/0868/e0aff734-077f-40dd-9781-74821abd3621.jpg\"]","trial_type":"similarity","trial_index":64,"time_elapsed":327253,"internal_node_id":"0.0-6.0-58.0"},{"sim_score":3,"rt":3587,"stimulus":"[\"img/0862/eefa5588-9efd-4591-aa5f-a2e17c7d7bcc.jpg\",\"img/0769/38a88f69-28fd-4bbd-99f0-f4c02bfd3995.jpg\"]","trial_type":"similarity","trial_index":65,"time_elapsed":331869,"internal_node_id":"0.0-6.0-59.0"},{"sim_score":5,"rt":3530,"stimulus":"[\"img/0764/ca957454-126a-4bd3-b29c-7174a24c25dc.jpg\",\"img/0903/3e9ee8a5-eb66-47f5-8973-8a5af1ddc87e.jpg\"]","trial_type":"similarity","trial_index":66,"time_elapsed":336427,"internal_node_id":"0.0-6.0-60.0"},{"sim_score":6,"rt":4139,"stimulus":"[\"img/0899/d60714ae-98d7-4564-8c98-94dba1351135.jpg\",\"img/0899/9de5e857-aa9a-4e0c-8ba2-46d79bd069a4.jpg\"]","trial_type":"similarity","trial_index":67,"time_elapsed":341609,"internal_node_id":"0.0-6.0-61.0"},{"sim_score":2,"rt":2943,"stimulus":"[\"img/0860/94ef7afc-e0e6-4a15-98c6-0bfac82bc832.jpg\",\"img/0875/2e13d160-eea1-416b-aff1-d37ab99ecc1d.jpg\"]","trial_type":"similarity","trial_index":68,"time_elapsed":345593,"internal_node_id":"0.0-6.0-62.0"},{"sim_score":1,"rt":2757,"stimulus":"[\"img/0868/7b212364-ff5f-4e28-9241-7eb6ea00161b.jpg\",\"img/0874/1016b306-087c-4afc-aa08-fa527b28dc76.jpg\"]","trial_type":"similarity","trial_index":69,"time_elapsed":349385,"internal_node_id":"0.0-6.0-63.0"},{"sim_score":5,"rt":4230,"stimulus":"[\"img/0758/d57c2592-a317-4f63-91be-91a3a9afd222.jpg\",\"img/0862/e0f1a4e9-e1b6-45f7-af67-89f334e6630d.jpg\"]","trial_type":"similarity","trial_index":70,"time_elapsed":354646,"internal_node_id":"0.0-6.0-64.0"},{"sim_score":6,"rt":2927,"stimulus":"[\"img/0904/da170c1b-9651-4f08-b231-2bdd1d9a046f.jpg\",\"img/0898/f3a3f225-1248-4ac7-b93b-f0ff28485bf3.jpg\"]","trial_type":"similarity","trial_index":71,"time_elapsed":358593,"internal_node_id":"0.0-6.0-65.0"},{"sim_score":3,"rt":3128,"stimulus":"[\"img/0881/2a8413be-fec2-4de6-88ad-614dd4cccc9d.jpg\",\"img/0866/11a1d141-be5e-443c-98c1-a9d4d9e3dec0.jpg\"]","trial_type":"similarity","trial_index":72,"time_elapsed":362755,"internal_node_id":"0.0-6.0-66.0"},{"sim_score":2,"rt":3445,"stimulus":"[\"img/0867/1719a35d-f085-48c0-9099-16c94fe418b4.jpg\",\"img/0898/79233891-305a-4a6a-8ddf-5c8604858203.jpg\"]","trial_type":"similarity","trial_index":73,"time_elapsed":367229,"internal_node_id":"0.0-6.0-67.0"},{"sim_score":3,"rt":3692,"stimulus":"[\"img/0902/95a36b6b-9601-4fa5-8fd9-606ea62f9425.jpg\",\"img/0764/713cc27e-2338-4486-bfe9-5f5725fbd7a0.jpg\"]","trial_type":"similarity","trial_index":74,"time_elapsed":371958,"internal_node_id":"0.0-6.0-68.0"},{"sim_score":6,"rt":3346,"stimulus":"[\"img/0875/dbdd643e-6d0e-4a5c-ab57-b9c29b9c981a.jpg\",\"img/0867/f26f6b60-f772-4f4c-95a4-addc62cfd692.jpg\"]","trial_type":"similarity","trial_index":75,"time_elapsed":376342,"internal_node_id":"0.0-6.0-69.0"},{"sim_score":6,"rt":3425,"stimulus":"[\"img/0766/5d1b8041-c5a1-4b02-b4fe-3453d98a0d72.jpg\",\"img/0764/b8e23f4f-ff19-4472-ad9b-2f85548ebca0.jpg\"]","trial_type":"similarity","trial_index":76,"time_elapsed":380792,"internal_node_id":"0.0-6.0-70.0"},{"sim_score":2,"rt":3550,"stimulus":"[\"img/0894/e6385e52-6c35-43bd-b0af-bc803d107b11.jpg\",\"img/0867/2e1a0b58-cdb1-4107-a14e-452530d7b9b0.jpg\"]","trial_type":"similarity","trial_index":77,"time_elapsed":385372,"internal_node_id":"0.0-6.0-71.0"},{"sim_score":1,"rt":3096,"stimulus":"[\"img/0875/e7e66b13-b573-431e-b85e-288ce04a35a3.jpg\",\"img/0764/0e7ed062-f798-4366-8a24-6f430926f919.jpg\"]","trial_type":"similarity","trial_index":78,"time_elapsed":389502,"internal_node_id":"0.0-6.0-72.0"},{"sim_score":7,"rt":4729,"stimulus":"[\"img/0867/8ba0c5a7-c7e4-42cf-a80a-543763b90779.jpg\",\"img/0866/c446214b-a368-4c65-ae39-ea46894256ab.jpg\"]","trial_type":"similarity","trial_index":79,"time_elapsed":395256,"internal_node_id":"0.0-6.0-73.0"},{"sim_score":2,"rt":4014,"stimulus":"[\"img/0903/8fcafe03-43df-4c45-9da5-0df3a1eeccc5.jpg\",\"img/0758/65d426d6-3ff6-415d-8654-a43b83ecc4fe.jpg\"]","trial_type":"similarity","trial_index":80,"time_elapsed":400292,"internal_node_id":"0.0-6.0-74.0"},{"sim_score":2,"rt":4117,"stimulus":"[\"img/0766/2e1cf445-9aef-40e7-92f4-5facf48b64c5.jpg\",\"img/0868/4a8a45ed-2c4f-421b-9564-409a33ecd26c.jpg\"]","trial_type":"similarity","trial_index":81,"time_elapsed":405440,"internal_node_id":"0.0-6.0-75.0"},{"sim_score":5,"rt":3189,"stimulus":"[\"img/0874/31e22c7c-99aa-40b1-bf03-dd73fa2df4d6.jpg\",\"img/0766/b84598d0-5b41-4841-88b0-b441b48289f5.jpg\"]","trial_type":"similarity","trial_index":82,"time_elapsed":409645,"internal_node_id":"0.0-6.0-76.0"},{"sim_score":1,"rt":3060,"stimulus":"[\"img/0881/b549bc99-a61c-4450-bab5-9efc3a197bf0.jpg\",\"img/0868/179a5502-ab5c-478e-8263-5a1fbcc101d2.jpg\"]","trial_type":"similarity","trial_index":83,"time_elapsed":413732,"internal_node_id":"0.0-6.0-77.0"},{"sim_score":2,"rt":3460,"stimulus":"[\"img/0758/b76ceca7-95ac-46e4-ac13-da02c8e93be9.jpg\",\"img/0901/effc03f6-8f9d-46db-a66c-16fc83891c5c.jpg\"]","trial_type":"similarity","trial_index":84,"time_elapsed":418212,"internal_node_id":"0.0-6.0-78.0"},{"sim_score":5,"rt":4323,"stimulus":"[\"img/0881/33d65d80-8a8e-4ecf-852d-0ad7725c17a2.jpg\",\"img/0898/81b08535-2020-4c15-9ce4-2f1e460755ae.jpg\"]","trial_type":"similarity","trial_index":85,"time_elapsed":423574,"internal_node_id":"0.0-6.0-79.0"},{"sim_score":1,"rt":3332,"stimulus":"[\"img/0867/50a1b60e-3a29-44bf-b606-d4bd3746fea9.jpg\",\"img/0758/6cd8c362-ae2a-41eb-80a3-3a4f7ace1530.jpg\"]","trial_type":"similarity","trial_index":86,"time_elapsed":427934,"internal_node_id":"0.0-6.0-80.0"},{"sim_score":5,"rt":5002,"stimulus":"[\"img/0769/8c7cf147-1780-4d5c-8ddf-5ea23ff03ac9.jpg\",\"img/0899/8de08897-b430-42fe-9d42-840670b80f94.jpg\"]","trial_type":"similarity","trial_index":87,"time_elapsed":433973,"internal_node_id":"0.0-6.0-81.0"},{"sim_score":7,"rt":3652,"stimulus":"[\"img/0903/6f343da5-00d9-4d50-89d1-2ed24cdb8319.jpg\",\"img/0903/5ea5bbe0-f238-4724-abe7-9ed8dee8c0ba.jpg\"]","trial_type":"similarity","trial_index":88,"time_elapsed":438667,"internal_node_id":"0.0-6.0-82.0"},{"sim_score":2,"rt":2507,"stimulus":"[\"img/0867/6e19c858-b606-45b2-a4c6-910a73f1d82c.jpg\",\"img/0766/717fd72f-a281-499b-a5ba-5e2ecc4d4866.jpg\"]","trial_type":"similarity","trial_index":89,"time_elapsed":450612,"internal_node_id":"0.0-6.0-83.0"},{"sim_score":2,"rt":3828,"stimulus":"[\"img/0902/b76efc44-a50f-4dac-b997-ff0222376067.jpg\",\"img/0867/cc72ed48-7704-422c-86d6-467a1145287a.jpg\"]","trial_type":"similarity","trial_index":90,"time_elapsed":455462,"internal_node_id":"0.0-6.0-84.0"},{"sim_score":2,"rt":4908,"stimulus":"[\"img/0901/4ca4f962-40c0-4c59-b14a-3cd7b8c9029b.jpg\",\"img/0875/f87b67d7-c33e-40d1-b281-248c4be1cb6e.jpg\"]","trial_type":"similarity","trial_index":91,"time_elapsed":461420,"internal_node_id":"0.0-6.0-85.0"},{"sim_score":1,"rt":4603,"stimulus":"[\"img/0764/c0b03adb-bd0a-4b96-a915-a827c2fd5211.jpg\",\"img/0866/be24ab58-230e-4db8-9f45-ff04c9aec6bb.jpg\"]","trial_type":"similarity","trial_index":92,"time_elapsed":467064,"internal_node_id":"0.0-6.0-86.0"},{"sim_score":2,"rt":4061,"stimulus":"[\"img/0901/b9141736-3041-4385-a586-b1fe911c76a5.jpg\",\"img/0894/a98416c0-51e2-4960-85da-d81d8688b9d5.jpg\"]","trial_type":"similarity","trial_index":93,"time_elapsed":472153,"internal_node_id":"0.0-6.0-87.0"},{"sim_score":6,"rt":3424,"stimulus":"[\"img/0898/68476bbb-34a1-42d9-8bc1-deab783d4489.jpg\",\"img/0769/b664b502-a86c-46c1-ad6f-5ebffc2e1bd3.jpg\"]","trial_type":"similarity","trial_index":94,"time_elapsed":476605,"internal_node_id":"0.0-6.0-88.0"},{"sim_score":5,"rt":3130,"stimulus":"[\"img/0769/3c1203c5-2ce7-466e-957a-8d77b5905460.jpg\",\"img/0894/10f22b96-040c-44f4-950b-a4963f3f506c.jpg\"]","trial_type":"similarity","trial_index":95,"time_elapsed":480762,"internal_node_id":"0.0-6.0-89.0"},{"sim_score":3,"rt":6484,"stimulus":"[\"img/0862/fad1d7c1-8187-43c3-942a-0fc12183e48e.jpg\",\"img/0874/93d1f8dc-acf2-4f03-bd8d-8ec35df276ed.jpg\"]","trial_type":"similarity","trial_index":96,"time_elapsed":488275,"internal_node_id":"0.0-6.0-90.0"},{"sim_score":4,"rt":4206,"stimulus":"[\"img/0894/86201968-6e78-4d68-9b3a-d1692e066210.jpg\",\"img/0766/d919cedb-f9b7-4f30-83bb-3e9c65001ceb.jpg\"]","trial_type":"similarity","trial_index":97,"time_elapsed":493520,"internal_node_id":"0.0-6.0-91.0"},{"sim_score":2,"rt":3769,"stimulus":"[\"img/0874/a3bc679d-619f-4db6-bb68-116dcb757d9c.jpg\",\"img/0867/a749dddb-69f0-44a6-acdc-2bf295cf6dcc.jpg\"]","trial_type":"similarity","trial_index":98,"time_elapsed":498322,"internal_node_id":"0.0-6.0-92.0"},{"sim_score":1,"rt":3789,"stimulus":"[\"img/0899/4408c14d-c168-4a7d-96f6-bc87bfb58f83.jpg\",\"img/0868/d98ca254-b195-477f-b57e-5760a2717db8.jpg\"]","trial_type":"similarity","trial_index":99,"time_elapsed":503141,"internal_node_id":"0.0-6.0-93.0"},{"sim_score":6,"rt":3497,"stimulus":"[\"img/0903/680ed18e-b311-4ecf-9b00-7dea32128334.jpg\",\"img/0862/ad593cc7-cabe-4bb7-8e14-8a447a0717b4.jpg\"]","trial_type":"similarity","trial_index":100,"time_elapsed":507668,"internal_node_id":"0.0-6.0-94.0"},{"sim_score":5,"rt":4000,"stimulus":"[\"img/0899/00715b3f-851b-420b-a26b-d7f79f7759a9.jpg\",\"img/0766/ea09dd5a-d24d-4e97-a099-7da3db1baef1.jpg\"]","trial_type":"similarity","trial_index":101,"time_elapsed":512699,"internal_node_id":"0.0-6.0-95.0"},{"sim_score":7,"rt":3053,"stimulus":"[\"img/0867/ac1797e4-8afc-48fe-b252-86d1defb1cca.jpg\",\"img/0868/fd307a36-9a3a-47d7-ab7c-f810d0b35040.jpg\"]","trial_type":"similarity","trial_index":102,"time_elapsed":516783,"internal_node_id":"0.0-6.0-96.0"},{"sim_score":5,"rt":4405,"stimulus":"[\"img/0862/847e5208-38ec-4f36-949c-296cdd7424ee.jpg\",\"img/0901/148b747a-7392-437e-8823-33053c5dff3f.jpg\"]","trial_type":"similarity","trial_index":103,"time_elapsed":522215,"internal_node_id":"0.0-6.0-97.0"},{"sim_score":1,"rt":3308,"stimulus":"[\"img/0875/3ecb367d-e9eb-4826-8aaa-7aa72fb98019.jpg\",\"img/0766/0025de5e-f620-4079-8a0f-00326ff3a6b0.jpg\"]","trial_type":"similarity","trial_index":104,"time_elapsed":526550,"internal_node_id":"0.0-6.0-98.0"},{"sim_score":5,"rt":3805,"stimulus":"[\"img/0758/6e95579b-5166-487c-b8cb-e417c6a218e3.jpg\",\"img/0874/ca76a855-4e77-4f2f-872a-0a718153e7ed.jpg\"]","trial_type":"similarity","trial_index":105,"time_elapsed":531390,"internal_node_id":"0.0-6.0-99.0"},{"sim_score":3,"rt":2576,"stimulus":"[\"img/0904/9d30eff1-46ef-4453-b11e-124ef8145c00.jpg\",\"img/0868/5fa7f9d0-f0e5-454c-8224-74d964818f56.jpg\"]","trial_type":"similarity","trial_index":106,"time_elapsed":534992,"internal_node_id":"0.0-6.0-100.0"},{"sim_score":3,"rt":2891,"stimulus":"[\"img/0903/365f176c-25a4-4973-bd3c-279bf1b39476.jpg\",\"img/0866/a15b02be-11bb-43e3-b0e0-ecc3bd7dfc49.jpg\"]","trial_type":"similarity","trial_index":107,"time_elapsed":538917,"internal_node_id":"0.0-6.0-101.0"},{"sim_score":3,"rt":4400,"stimulus":"[\"img/0868/6a28c3b0-3d76-498a-9fb7-ddafc665eca8.jpg\",\"img/0769/9ea27d61-3d55-418c-8d14-82e90f656f01.jpg\"]","trial_type":"similarity","trial_index":108,"time_elapsed":544349,"internal_node_id":"0.0-6.0-102.0"},{"sim_score":5,"rt":3731,"stimulus":"[\"img/0902/8af4182a-9af9-4212-a436-9195555112d6.jpg\",\"img/0899/4f7bc593-8ddd-4da3-a0b9-84da730d3370.jpg\"]","trial_type":"similarity","trial_index":109,"time_elapsed":549101,"internal_node_id":"0.0-6.0-103.0"},{"sim_score":2,"rt":2408,"stimulus":"[\"img/0868/0d3abd3a-b6c3-4584-a9f7-e2da63748b3d.jpg\",\"img/0862/f23038d4-c366-4f70-979f-66b62362efa4.jpg\"]","trial_type":"similarity","trial_index":110,"time_elapsed":552541,"internal_node_id":"0.0-6.0-104.0"},{"sim_score":6,"rt":3382,"stimulus":"[\"img/0903/ea75f240-fb62-4edb-a709-83e858b202c0.jpg\",\"img/0894/4739e06d-c31e-4bf1-bf91-c97fa9afb456.jpg\"]","trial_type":"similarity","trial_index":111,"time_elapsed":556952,"internal_node_id":"0.0-6.0-105.0"},{"sim_score":7,"rt":3004,"stimulus":"[\"img/0864/6e846d43-94a6-4b37-a268-65eda979f052.jpg\",\"img/0874/eba003b4-cdab-4eee-8bc3-f064c7d94165.jpg\"]","trial_type":"similarity","trial_index":112,"time_elapsed":560993,"internal_node_id":"0.0-6.0-106.0"},{"sim_score":5,"rt":3389,"stimulus":"[\"img/0862/47ed5efd-4ec9-4b74-bb4e-a5f5cf0c3e7d.jpg\",\"img/0902/c018bd7a-d91a-4192-aea4-7259cfcdb6c4.jpg\"]","trial_type":"similarity","trial_index":113,"time_elapsed":565412,"internal_node_id":"0.0-6.0-107.0"},{"sim_score":4,"rt":3308,"stimulus":"[\"img/0904/65e2b70a-b184-4da3-b5c0-5038bdf9469a.jpg\",\"img/0903/8931c67c-a43d-47d3-a4c9-42aa2f81d344.jpg\"]","trial_type":"similarity","trial_index":114,"time_elapsed":569743,"internal_node_id":"0.0-6.0-108.0"},{"sim_score":6,"rt":3149,"stimulus":"[\"img/0764/f64dfa83-333d-494c-87b5-73e942f1766e.jpg\",\"img/0864/efcfbb1b-8197-44c9-b723-40d6c608dd3c.jpg\"]","trial_type":"similarity","trial_index":115,"time_elapsed":573925,"internal_node_id":"0.0-6.0-109.0"},{"sim_score":2,"rt":5268,"stimulus":"[\"img/0866/93a27239-8317-4e08-98ca-d8b1ff298e07.jpg\",\"img/0894/492d2f29-d7b9-4422-8be8-47fd58bfaa8b.jpg\"]","trial_type":"similarity","trial_index":116,"time_elapsed":580217,"internal_node_id":"0.0-6.0-110.0"},{"sim_score":5,"rt":4080,"stimulus":"[\"img/0899/ad8268c5-8199-48d0-ad70-c5b6d6c599ec.jpg\",\"img/0903/5995f4a8-fa82-46f8-8760-fd7800a5ca34.jpg\"]","trial_type":"similarity","trial_index":117,"time_elapsed":585318,"internal_node_id":"0.0-6.0-111.0"},{"sim_score":7,"rt":4009,"stimulus":"[\"img/0902/0eb85fbc-27c8-41df-9d0b-a5f9efd417d1.jpg\",\"img/0904/06dacdc5-2206-4fb8-92b7-88042d22833c.jpg\"]","trial_type":"similarity","trial_index":118,"time_elapsed":590345,"internal_node_id":"0.0-6.0-112.0"},{"sim_score":3,"rt":5325,"stimulus":"[\"img/0864/c22faebd-9c53-47bc-ada3-b9a30c688e75.jpg\",\"img/0860/c3379ff7-0763-48fe-a1ec-7ea3d611bc7a.jpg\"]","trial_type":"similarity","trial_index":119,"time_elapsed":596696,"internal_node_id":"0.0-6.0-113.0"},{"sim_score":3,"rt":4224,"stimulus":"[\"img/0860/61fb959d-d4d9-4de4-9e4e-4fa62b4cfcd5.jpg\",\"img/0899/a05bea16-2bb4-4cb9-b8fb-4ff975db6971.jpg\"]","trial_type":"similarity","trial_index":120,"time_elapsed":601955,"internal_node_id":"0.0-6.0-114.0"},{"sim_score":2,"rt":4061,"stimulus":"[\"img/0881/20af39f5-373d-4a55-a437-2dc4c0382c46.jpg\",\"img/0903/71dbc325-b588-4297-a5cf-7f268a722ad9.jpg\"]","trial_type":"similarity","trial_index":121,"time_elapsed":607042,"internal_node_id":"0.0-6.0-115.0"},{"sim_score":4,"rt":3551,"stimulus":"[\"img/0894/5f15154e-e72e-4ce5-aafb-bce6f0564006.jpg\",\"img/0874/ca23d307-fc00-4d7d-9106-584c6eb21b4d.jpg\"]","trial_type":"similarity","trial_index":122,"time_elapsed":611633,"internal_node_id":"0.0-6.0-116.0"},{"sim_score":3,"rt":5575,"stimulus":"[\"img/0881/ed4c971f-0873-4fc8-b6d6-e8bbd82f0bcc.jpg\",\"img/0862/53a9cf7c-93c4-41b9-952f-07d17f7a17b2.jpg\"]","trial_type":"similarity","trial_index":123,"time_elapsed":618249,"internal_node_id":"0.0-6.0-117.0"},{"sim_score":7,"rt":3043,"stimulus":"[\"img/0868/77091fc7-a590-4ebb-b915-fdb2483a2399.jpg\",\"img/0875/cff79b3a-a797-4393-9757-6275f999ec04.jpg\"]","trial_type":"similarity","trial_index":124,"time_elapsed":622317,"internal_node_id":"0.0-6.0-118.0"},{"sim_score":2,"rt":3936,"stimulus":"[\"img/0860/18dfed73-e36b-4487-a8bd-0b8cff8e3668.jpg\",\"img/0758/821c68d3-5cb0-4eae-8659-30e6263fca39.jpg\"]","trial_type":"similarity","trial_index":125,"time_elapsed":627274,"internal_node_id":"0.0-6.0-119.0"},{"sim_score":3,"rt":4355,"stimulus":"[\"img/0864/ea327690-500b-4137-bf91-451b309fe6a5.jpg\",\"img/0875/fb732ab5-013a-4366-9f65-27811ed157e9.jpg\"]","trial_type":"similarity","trial_index":126,"time_elapsed":632654,"internal_node_id":"0.0-6.0-120.0"},{"sim_score":3,"rt":5877,"stimulus":"[\"img/0898/40f99fb2-64d2-4e72-8a7f-a1cf60741e69.jpg\",\"img/0866/0207e9a2-7dbb-40b5-9459-b472aaeceb2a.jpg\"]","trial_type":"similarity","trial_index":127,"time_elapsed":639553,"internal_node_id":"0.0-6.0-121.0"},{"sim_score":3,"rt":6369,"stimulus":"[\"img/0874/8cdb1c07-1c32-46d2-981c-3636560fa6e5.jpg\",\"img/0904/d23dd7be-7fe8-4435-82f7-bd592c01e6a1.jpg\"]","trial_type":"similarity","trial_index":128,"time_elapsed":646948,"internal_node_id":"0.0-6.0-122.0"},{"sim_score":3,"rt":3160,"stimulus":"[\"img/0904/5cceabc9-de1d-4c67-989b-c28a4ef77e79.jpg\",\"img/0864/c3b63e8f-ea39-4d70-a1f2-b3fe4be8eb75.jpg\"]","trial_type":"similarity","trial_index":129,"time_elapsed":651137,"internal_node_id":"0.0-6.0-123.0"},{"sim_score":6,"rt":3319,"stimulus":"[\"img/0894/661b9f9f-4bde-487a-b1ed-87085fde6948.jpg\",\"img/0902/2a7ac123-414a-476a-9a96-4757b924baef.jpg\"]","trial_type":"similarity","trial_index":130,"time_elapsed":655486,"internal_node_id":"0.0-6.0-124.0"},{"sim_score":1,"rt":3394,"stimulus":"[\"img/0868/c8ac40c7-6904-4e13-8d61-c75d3052dc4e.jpg\",\"img/0864/b3c4e378-28f0-4699-9338-2a257b4bca04.jpg\"]","trial_type":"similarity","trial_index":131,"time_elapsed":663850,"internal_node_id":"0.0-6.0-125.0"},{"sim_score":1,"rt":4408,"stimulus":"[\"img/0899/b45c550b-96c3-4255-ad59-48a2b4db1c1e.jpg\",\"img/0866/386235d2-6857-41e7-88a8-25cfc3430025.jpg\"]","trial_type":"similarity","trial_index":132,"time_elapsed":669281,"internal_node_id":"0.0-6.0-126.0"},{"sim_score":2,"rt":4738,"stimulus":"[\"img/0875/42910c99-5463-450a-a0f8-d4d060a11455.jpg\",\"img/0904/1d10df11-b5c8-4370-9a6b-097a7f965895.jpg\"]","trial_type":"similarity","trial_index":133,"time_elapsed":675047,"internal_node_id":"0.0-6.0-127.0"},{"sim_score":2,"rt":3412,"stimulus":"[\"img/0867/075e0f95-856b-4cbb-acf5-092393aaf04e.jpg\",\"img/0899/fd9efb43-701f-4cd6-baaa-4c38315f4bdc.jpg\"]","trial_type":"similarity","trial_index":134,"time_elapsed":679495,"internal_node_id":"0.0-6.0-128.0"},{"sim_score":5,"rt":5326,"stimulus":"[\"img/0901/a6c90438-fa7c-4418-ac7c-16c2e772dd98.jpg\",\"img/0867/de92135f-5b65-4ed9-b245-188292c7c2f8.jpg\"]","trial_type":"similarity","trial_index":135,"time_elapsed":685850,"internal_node_id":"0.0-6.0-129.0"},{"sim_score":6,"rt":3292,"stimulus":"[\"img/0864/87c467d3-abca-482f-ad80-3766c21b1bb3.jpg\",\"img/0769/a3cfbdeb-acb3-4eac-87fb-4b117f42d4f8.jpg\"]","trial_type":"similarity","trial_index":136,"time_elapsed":690181,"internal_node_id":"0.0-6.0-130.0"},{"sim_score":4,"rt":3454,"stimulus":"[\"img/0903/43ffd882-077a-40dd-a264-e58d519420a1.jpg\",\"img/0868/293079b8-7e0c-4afd-a390-1e5d35fe3ded.jpg\"]","trial_type":"similarity","trial_index":137,"time_elapsed":694673,"internal_node_id":"0.0-6.0-131.0"},{"sim_score":1,"rt":2542,"stimulus":"[\"img/0864/0116ca98-293d-4fa6-a93b-5a6144ef64cc.jpg\",\"img/0867/c71dc569-f49c-4397-8381-68b8d726736d.jpg\"]","trial_type":"similarity","trial_index":138,"time_elapsed":698237,"internal_node_id":"0.0-6.0-132.0"},{"sim_score":5,"rt":4703,"stimulus":"[\"img/0901/c6c877e0-dd63-4e00-9657-33af29d55aab.jpg\",\"img/0860/9593362c-9fe5-4d12-9735-6000a11f6aa5.jpg\"]","trial_type":"similarity","trial_index":139,"time_elapsed":703974,"internal_node_id":"0.0-6.0-133.0"},{"sim_score":5,"rt":3751,"stimulus":"[\"img/0881/7e31e5dc-2240-4b1b-b5a0-3acd980099ef.jpg\",\"img/0766/110832e5-2646-4bd0-a94e-5df8cc314269.jpg\"]","trial_type":"similarity","trial_index":140,"time_elapsed":708750,"internal_node_id":"0.0-6.0-134.0"},{"sim_score":4,"rt":5091,"stimulus":"[\"img/0903/36e4ab1f-caa9-40b3-8616-faada076df94.jpg\",\"img/0864/e336a4c5-6648-4fd7-b2f6-93a3fb83f8c6.jpg\"]","trial_type":"similarity","trial_index":141,"time_elapsed":714875,"internal_node_id":"0.0-6.0-135.0"},{"sim_score":3,"rt":3216,"stimulus":"[\"img/0758/9fb5b2fe-3f00-4fe6-973c-1ce10d5f4cd5.jpg\",\"img/0894/76c1201f-8524-4865-85e6-dda8cb4ac986.jpg\"]","trial_type":"similarity","trial_index":142,"time_elapsed":719122,"internal_node_id":"0.0-6.0-136.0"},{"sim_score":4,"rt":4200,"stimulus":"[\"img/0769/022c7e3b-c3f2-4119-b4bc-f22fa7cae18c.jpg\",\"img/0860/8a92e21b-6a32-4e4a-a445-2d5a487ed0a4.jpg\"]","trial_type":"similarity","trial_index":143,"time_elapsed":724350,"internal_node_id":"0.0-6.0-137.0"},{"sim_score":3,"rt":3316,"stimulus":"[\"img/0904/09934646-45d2-4147-8fec-64a22a5ac822.jpg\",\"img/0766/ef3b15ce-abb7-4292-ad93-aec8e8b50520.jpg\"]","trial_type":"similarity","trial_index":144,"time_elapsed":728693,"internal_node_id":"0.0-6.0-138.0"},{"sim_score":2,"rt":4105,"stimulus":"[\"img/0868/4e626425-63c8-484a-8a1d-e66ee4e0bef8.jpg\",\"img/0860/15b24a61-25be-4356-9eac-5ce95d0cb4a4.jpg\"]","trial_type":"similarity","trial_index":145,"time_elapsed":733829,"internal_node_id":"0.0-6.0-139.0"},{"sim_score":5,"rt":3366,"stimulus":"[\"img/0758/20497cbe-ddae-489e-86e2-ab06985ed07c.jpg\",\"img/0864/65210d57-1153-4657-886a-32e758f49b4a.jpg\"]","trial_type":"similarity","trial_index":146,"time_elapsed":738231,"internal_node_id":"0.0-6.0-140.0"},{"sim_score":7,"rt":2460,"stimulus":"[\"img/0867/a498eef3-9fa4-4ab2-9778-4ae82ac40dc5.jpg\",\"img/0867/c66898ba-b71b-4d50-84f9-f7f84853a98d.jpg\"]","trial_type":"similarity","trial_index":147,"time_elapsed":741744,"internal_node_id":"0.0-6.0-141.0"},{"sim_score":5,"rt":3253,"stimulus":"[\"img/0898/993d8f2d-bef7-4251-a193-0f93a32b7763.jpg\",\"img/0898/a114b375-cb89-44ba-9498-74213f1ecdee.jpg\"]","trial_type":"similarity","trial_index":148,"time_elapsed":746021,"internal_node_id":"0.0-6.0-142.0"},{"sim_score":3,"rt":2745,"stimulus":"[\"img/0866/d493a2c8-66eb-44b4-be02-2f327b700b7c.jpg\",\"img/0769/aad494cc-674d-4a08-9bfa-24a88ebe3c79.jpg\"]","trial_type":"similarity","trial_index":149,"time_elapsed":749796,"internal_node_id":"0.0-6.0-143.0"},{"sim_score":3,"rt":4619,"stimulus":"[\"img/0860/e8b8c51e-1834-4875-8b61-6c5bc9b178bd.jpg\",\"img/0898/b2732712-71c2-45d8-834f-2b2ed5504910.jpg\"]","trial_type":"similarity","trial_index":150,"time_elapsed":755443,"internal_node_id":"0.0-6.0-144.0"},{"sim_score":2,"rt":3686,"stimulus":"[\"img/0766/d14acac4-7db1-4b07-8f8f-302437326fc0.jpg\",\"img/0864/5f74a653-3bdc-4308-8cca-ac667dc22e1f.jpg\"]","trial_type":"similarity","trial_index":151,"time_elapsed":760143,"internal_node_id":"0.0-6.0-145.0"},{"sim_score":5,"rt":3012,"stimulus":"[\"img/0860/c5ccd1a4-4bb7-48e1-9b25-72cfaf06909b.jpg\",\"img/0903/776b74ee-a8ab-4ab8-a78d-097c0747538d.jpg\"]","trial_type":"similarity","trial_index":152,"time_elapsed":764188,"internal_node_id":"0.0-6.0-146.0"},{"sim_score":2,"rt":2803,"stimulus":"[\"img/0867/12264664-1860-46df-8c21-162b9817cdda.jpg\",\"img/0764/f2f23359-8e82-41d3-8900-5b9f4433991d.jpg\"]","trial_type":"similarity","trial_index":153,"time_elapsed":768022,"internal_node_id":"0.0-6.0-147.0"},{"sim_score":6,"rt":4486,"stimulus":"[\"img/0769/e8ed913b-8a88-44f6-9327-d34afec3116b.jpg\",\"img/0904/96e503ea-6630-4996-85f2-0237688ce441.jpg\"]","trial_type":"similarity","trial_index":154,"time_elapsed":773543,"internal_node_id":"0.0-6.0-148.0"},{"sim_score":2,"rt":3855,"stimulus":"[\"img/0764/5d6fa3ce-9083-410c-bbdb-336a49b94cfc.jpg\",\"img/0901/875dedb9-24c9-4443-9f8c-85e97d70ee5a.jpg\"]","trial_type":"similarity","trial_index":155,"time_elapsed":778423,"internal_node_id":"0.0-6.0-149.0"},{"sim_score":7,"rt":3110,"stimulus":"[\"img/0904/b5855d6a-7ef9-46ca-9215-6e9fa046e543.jpg\",\"img/0899/d8f2dd94-570e-4e8c-a087-d96090fb9e8c.jpg\"]","trial_type":"similarity","trial_index":156,"time_elapsed":782566,"internal_node_id":"0.0-6.0-150.0"},{"sim_score":3,"rt":3838,"stimulus":"[\"img/0862/7918ca67-5bd3-4606-a5ea-c39fb11a9297.jpg\",\"img/0867/aa05d113-fc19-4756-a8eb-7878f580bc92.jpg\"]","trial_type":"similarity","trial_index":157,"time_elapsed":787436,"internal_node_id":"0.0-6.0-151.0"},{"sim_score":7,"rt":4860,"stimulus":"[\"img/0766/a1ed3f0f-e338-4a26-8fe4-4370f0c9fa6e.jpg\",\"img/0766/60033a74-9919-47e5-913c-71d0d483e7e5.jpg\"]","trial_type":"similarity","trial_index":158,"time_elapsed":793330,"internal_node_id":"0.0-6.0-152.0"},{"sim_score":3,"rt":3803,"stimulus":"[\"img/0862/ee3b7bff-4a70-4e84-9bea-4a565e456acb.jpg\",\"img/0894/bd34223a-2f66-4e16-9d18-193a746b69ff.jpg\"]","trial_type":"similarity","trial_index":159,"time_elapsed":798170,"internal_node_id":"0.0-6.0-153.0"},{"sim_score":3,"rt":5951,"stimulus":"[\"img/0899/56a605c3-d0a2-4215-89e1-779279d85a7c.jpg\",\"img/0901/548d1110-7cb8-42a2-9927-9798875c8b5c.jpg\"]","trial_type":"similarity","trial_index":160,"time_elapsed":805148,"internal_node_id":"0.0-6.0-154.0"},{"sim_score":2,"rt":3516,"stimulus":"[\"img/0874/7e4f2150-3b59-4a36-b5da-a4e0ba410531.jpg\",\"img/0874/3f471690-9788-4d03-90c7-f615aecef149.jpg\"]","trial_type":"similarity","trial_index":161,"time_elapsed":809690,"internal_node_id":"0.0-6.0-155.0"},{"sim_score":1,"rt":3561,"stimulus":"[\"img/0860/c47fdead-eb02-4989-b078-26f4852f44fe.jpg\",\"img/0867/bf560d4f-dee3-4f11-a385-705cc1aa5f3c.jpg\"]","trial_type":"similarity","trial_index":162,"time_elapsed":814287,"internal_node_id":"0.0-6.0-156.0"},{"sim_score":3,"rt":4931,"stimulus":"[\"img/0901/d4d09bf5-093e-4050-838e-7c738be8e63c.jpg\",\"img/0881/633c6f40-56d9-4b48-bf1c-ecd83116eabb.jpg\"]","trial_type":"similarity","trial_index":163,"time_elapsed":820243,"internal_node_id":"0.0-6.0-157.0"},{"sim_score":6,"rt":3781,"stimulus":"[\"img/0903/14f179a2-8786-48a2-8377-88d1d404341b.jpg\",\"img/0902/27b84584-948a-485b-8749-cb09929ef631.jpg\"]","trial_type":"similarity","trial_index":164,"time_elapsed":825065,"internal_node_id":"0.0-6.0-158.0"},{"sim_score":3,"rt":2972,"stimulus":"[\"img/0860/4a022222-056d-461c-ab02-39fac9647552.jpg\",\"img/0764/4eff630a-6426-4f8d-b2ba-b4d9842a0962.jpg\"]","trial_type":"similarity","trial_index":165,"time_elapsed":829063,"internal_node_id":"0.0-6.0-159.0"},{"sim_score":2,"rt":4782,"stimulus":"[\"img/0902/a6fb6dd5-696c-47ec-be7d-d7b88f1544f1.jpg\",\"img/0875/5a1e5100-0d94-4fec-bbe9-ca9894d2cf8e.jpg\"]","trial_type":"similarity","trial_index":166,"time_elapsed":834885,"internal_node_id":"0.0-6.0-160.0"},{"sim_score":6,"rt":3955,"stimulus":"[\"img/0898/a8f16b02-e19f-423b-86c3-a36562ae1f9b.jpg\",\"img/0862/cdaed51d-9e2f-4807-801a-4663c40077e2.jpg\"]","trial_type":"similarity","trial_index":167,"time_elapsed":839880,"internal_node_id":"0.0-6.0-161.0"},{"sim_score":5,"rt":3140,"stimulus":"[\"img/0894/767a0eec-1064-46b1-b1aa-dfa02b0cd74e.jpg\",\"img/0875/5a716432-c6ca-4b1c-955a-2b8ac25198ee.jpg\"]","trial_type":"similarity","trial_index":168,"time_elapsed":844042,"internal_node_id":"0.0-6.0-162.0"},{"sim_score":1,"rt":2739,"stimulus":"[\"img/0866/8efcaa46-83ab-4dee-a35f-850402aa21ae.jpg\",\"img/0864/3651d070-2fc5-4848-b6a6-088a2d9ac5c9.jpg\"]","trial_type":"similarity","trial_index":169,"time_elapsed":847813,"internal_node_id":"0.0-6.0-163.0"},{"sim_score":3,"rt":4229,"stimulus":"[\"img/0766/db750ba0-ce04-46e1-b601-e1b80212bad2.jpg\",\"img/0862/00c06b00-3b73-44e9-bc1e-c5aafb438321.jpg\"]","trial_type":"similarity","trial_index":170,"time_elapsed":853084,"internal_node_id":"0.0-6.0-164.0"},{"sim_score":3,"rt":4263,"stimulus":"[\"img/0866/d266fece-59b3-46fa-b69f-96f6efb81b59.jpg\",\"img/0874/29830da7-be5f-44e5-b141-652a0ccf7269.jpg\"]","trial_type":"similarity","trial_index":171,"time_elapsed":858389,"internal_node_id":"0.0-6.0-165.0"},{"sim_score":3,"rt":5088,"stimulus":"[\"img/0862/57b6f83f-c763-4858-830d-102f97bfefbf.jpg\",\"img/0860/e14d67c1-6d92-4f1e-9257-c8607159c19c.jpg\"]","trial_type":"similarity","trial_index":172,"time_elapsed":864511,"internal_node_id":"0.0-6.0-166.0"},{"sim_score":2,"rt":3638,"stimulus":"[\"img/0766/f3276cc4-65de-4c2d-88d5-6cfebce14b8f.jpg\",\"img/0901/58ec7fa9-b466-4651-90aa-c082df0972de.jpg\"]","trial_type":"similarity","trial_index":173,"time_elapsed":873885,"internal_node_id":"0.0-6.0-167.0"},{"sim_score":7,"rt":3263,"stimulus":"[\"img/0862/de9ad88c-b522-430a-8ee9-eb06a9f85df5.jpg\",\"img/0862/92fcd8a4-8193-4a6a-ae09-dd4a6338b0df.jpg\"]","trial_type":"similarity","trial_index":174,"time_elapsed":878188,"internal_node_id":"0.0-6.0-168.0"},{"sim_score":5,"rt":3601,"stimulus":"[\"img/0894/5a49e858-2850-4892-9a06-e9f0efb5f94d.jpg\",\"img/0764/a3226bc4-dcc3-4608-bde8-1414d685ce5c.jpg\"]","trial_type":"similarity","trial_index":175,"time_elapsed":882817,"internal_node_id":"0.0-6.0-169.0"},{"sim_score":3,"rt":4481,"stimulus":"[\"img/0874/adf9a8f1-c40b-402b-b95b-1e85a54a7b62.jpg\",\"img/0898/82231d4c-218b-4d0a-b50d-35a49b524e97.jpg\"]","trial_type":"similarity","trial_index":176,"time_elapsed":888336,"internal_node_id":"0.0-6.0-170.0"},{"sim_score":2,"rt":2765,"stimulus":"[\"img/0860/f44ba3fb-03a2-42f0-8509-2c1ded493086.jpg\",\"img/0766/a0270213-fa0e-4972-8b56-228c3e01ff90.jpg\"]","trial_type":"similarity","trial_index":177,"time_elapsed":892141,"internal_node_id":"0.0-6.0-171.0"},{"sim_score":2,"rt":3449,"stimulus":"[\"img/0898/01bfe666-3510-4fc7-964f-d00d28732dc8.jpg\",\"img/0864/0f537697-a314-47c3-a8cc-8df23b7e536c.jpg\"]","trial_type":"similarity","trial_index":178,"time_elapsed":896625,"internal_node_id":"0.0-6.0-172.0"},{"sim_score":5,"rt":3402,"stimulus":"[\"img/0881/e046471a-35b4-4159-bbf7-3cfd201bef66.jpg\",\"img/0764/23ea9375-f801-4a96-9925-7d453da887c7.jpg\"]","trial_type":"similarity","trial_index":179,"time_elapsed":901048,"internal_node_id":"0.0-6.0-173.0"},{"sim_score":2,"rt":2501,"stimulus":"[\"img/0898/26c41340-15bd-4ead-8fe4-c0d0ddca09c2.jpg\",\"img/0868/83b4350a-3b70-4cea-b7f5-b5b56f3050a8.jpg\"]","trial_type":"similarity","trial_index":180,"time_elapsed":904581,"internal_node_id":"0.0-6.0-174.0"},{"sim_score":6,"rt":3036,"stimulus":"[\"img/0864/e8bd659f-aa43-4748-877e-3118e8b4e189.jpg\",\"img/0864/1d15626a-2f7c-410f-819c-0fa2c967e95e.jpg\"]","trial_type":"similarity","trial_index":181,"time_elapsed":908646,"internal_node_id":"0.0-6.0-175.0"},{"sim_score":3,"rt":3894,"stimulus":"[\"img/0899/f95cbdb4-f804-4f5d-ad76-373ad343e658.jpg\",\"img/0862/d0ca4c78-fc35-46ed-bdcc-8e124283c53e.jpg\"]","trial_type":"similarity","trial_index":182,"time_elapsed":913563,"internal_node_id":"0.0-6.0-176.0"},{"sim_score":1,"rt":2484,"stimulus":"[\"img/0875/d59ff733-eaff-4ee2-9443-06954dd0bcb6.jpg\",\"img/0758/dd559618-7f09-4a07-8018-d311c4a5ea29.jpg\"]","trial_type":"similarity","trial_index":183,"time_elapsed":917085,"internal_node_id":"0.0-6.0-177.0"},{"sim_score":2,"rt":3303,"stimulus":"[\"img/0866/620cd1aa-0800-4414-8f6e-90342e7a99ad.jpg\",\"img/0901/77087ed2-6e12-4329-b2a5-605bca6d972d.jpg\"]","trial_type":"similarity","trial_index":184,"time_elapsed":921428,"internal_node_id":"0.0-6.0-178.0"},{"sim_score":4,"rt":3307,"stimulus":"[\"img/0769/11518cb3-13ea-4dd0-890c-30cfab728ade.jpg\",\"img/0874/a82926a3-0b43-4add-803c-d5f9ea7798ee.jpg\"]","trial_type":"similarity","trial_index":185,"time_elapsed":925765,"internal_node_id":"0.0-6.0-179.0"},{"sim_score":3,"rt":3488,"stimulus":"[\"img/0875/ebf7653f-ff45-4e9f-af58-2c042ab3cd2b.jpg\",\"img/0881/dea58fad-b4f1-41d9-bd3f-916eff19a3fd.jpg\"]","trial_type":"similarity","trial_index":186,"time_elapsed":930278,"internal_node_id":"0.0-6.0-180.0"},{"sim_score":5,"rt":4360,"stimulus":"[\"img/0866/945c6710-d15b-4a5b-a8f6-69af0850357f.jpg\",\"img/0868/4bd5105a-d2c3-4f82-8c80-57196106ba53.jpg\"]","trial_type":"similarity","trial_index":187,"time_elapsed":935651,"internal_node_id":"0.0-6.0-181.0"},{"sim_score":3,"rt":4444,"stimulus":"[\"img/0899/93494f3b-d539-4075-b027-d82e344563da.jpg\",\"img/0758/2fa3e613-e676-4e6e-bd12-705327eeb3e1.jpg\"]","trial_type":"similarity","trial_index":188,"time_elapsed":941118,"internal_node_id":"0.0-6.0-182.0"},{"sim_score":1,"rt":2375,"stimulus":"[\"img/0874/995f0332-0439-4eb4-add3-957335dbf6d9.jpg\",\"img/0875/5a7c4e35-6514-4e12-8879-d16071da4cd6.jpg\"]","trial_type":"similarity","trial_index":189,"time_elapsed":944515,"internal_node_id":"0.0-6.0-183.0"},{"sim_score":2,"rt":2905,"stimulus":"[\"img/0904/0d25eb24-bb20-4e8d-9787-8b489558b4cb.jpg\",\"img/0862/99a99e39-8355-44ec-b993-e7bcec111e1c.jpg\"]","trial_type":"similarity","trial_index":190,"time_elapsed":948452,"internal_node_id":"0.0-6.0-184.0"},{"sim_score":2,"rt":3393,"stimulus":"[\"img/0902/d49743d6-67ae-4c2e-a939-8fd895a0f18e.jpg\",\"img/0766/0bf3793e-c353-45e5-ac6f-753f5f484e10.jpg\"]","trial_type":"similarity","trial_index":191,"time_elapsed":952859,"internal_node_id":"0.0-6.0-185.0"},{"sim_score":2,"rt":3500,"stimulus":"[\"img/0758/f61ecdf8-a7d4-4db0-b84d-be46f7cfaffc.jpg\",\"img/0769/c7cfacc3-7f07-46ff-9f5d-8073f4c4679b.jpg\"]","trial_type":"similarity","trial_index":192,"time_elapsed":957379,"internal_node_id":"0.0-6.0-186.0"},{"sim_score":6,"rt":3337,"stimulus":"[\"img/0881/609a5e93-38b5-4940-8627-2bf8fad7f802.jpg\",\"img/0881/19e82c47-8e4b-45d2-a6c8-74181eb4155e.jpg\"]","trial_type":"similarity","trial_index":193,"time_elapsed":961764,"internal_node_id":"0.0-6.0-187.0"},{"sim_score":2,"rt":3405,"stimulus":"[\"img/0758/e38fd80d-18d0-42f3-b848-f930788e8bd7.jpg\",\"img/0866/4a87911a-d5be-4d4e-ab8e-3d1f581bf507.jpg\"]","trial_type":"similarity","trial_index":194,"time_elapsed":966196,"internal_node_id":"0.0-6.0-188.0"},{"sim_score":3,"rt":4687,"stimulus":"[\"img/0764/50f1b062-d608-4bc0-ab25-b872dcf2ed93.jpg\",\"img/0898/224c1572-56b9-4f16-a9e4-6f3bc9c114bd.jpg\"]","trial_type":"similarity","trial_index":195,"time_elapsed":971902,"internal_node_id":"0.0-6.0-189.0"},{"sim_score":3,"rt":3593,"stimulus":"[\"img/0903/b0df4094-a3be-4b5b-81bd-8d260f13f61b.jpg\",\"img/0901/bc47e078-bda4-40ed-b89a-bbd819164b95.jpg\"]","trial_type":"similarity","trial_index":196,"time_elapsed":976522,"internal_node_id":"0.0-6.0-190.0"},{"sim_score":4,"rt":3325,"stimulus":"[\"img/0902/6c2c243a-f663-45db-baf5-038d3d58c589.jpg\",\"img/0898/4184e5a2-84ea-4f36-9b42-ae58646f6f87.jpg\"]","trial_type":"similarity","trial_index":197,"time_elapsed":980864,"internal_node_id":"0.0-6.0-191.0"},{"sim_score":2,"rt":2943,"stimulus":"[\"img/0864/9b2490c5-a282-400a-9736-e1a0ecbf1cb7.jpg\",\"img/0901/62315ff5-ed95-46b4-b099-92552079659b.jpg\"]","trial_type":"similarity","trial_index":198,"time_elapsed":984833,"internal_node_id":"0.0-6.0-192.0"},{"sim_score":3,"rt":4366,"stimulus":"[\"img/0894/38cf335f-f76f-4349-8d65-e20cd6859565.jpg\",\"img/0881/b1a136f7-8511-4d3a-a0f6-3879acf1e1a1.jpg\"]","trial_type":"similarity","trial_index":199,"time_elapsed":990212,"internal_node_id":"0.0-6.0-193.0"},{"sim_score":7,"rt":3563,"stimulus":"[\"img/0868/d6d1f30d-4323-435a-b194-7892521bc57e.jpg\",\"img/0868/1a62b2b2-18f5-466e-b564-5176a57c565e.jpg\"]","trial_type":"similarity","trial_index":200,"time_elapsed":994808,"internal_node_id":"0.0-6.0-194.0"},{"sim_score":6,"rt":3416,"stimulus":"[\"img/0899/1b3457ea-87d4-4946-a01c-aac1863ed46c.jpg\",\"img/0764/62fafeea-6274-48ce-976f-35d3d3484c65.jpg\"]","trial_type":"similarity","trial_index":201,"time_elapsed":999244,"internal_node_id":"0.0-6.0-195.0"},{"sim_score":2,"rt":4275,"stimulus":"[\"img/0881/6b1189e6-232d-4042-8885-16dc7b10e0d4.jpg\",\"img/0904/2fd488e9-960f-41f7-8a44-33375f7d5051.jpg\"]","trial_type":"similarity","trial_index":202,"time_elapsed":1004544,"internal_node_id":"0.0-6.0-196.0"},{"sim_score":3,"rt":3030,"stimulus":"[\"img/0864/4bd81bc6-c13d-46df-95a9-485886dc7c1b.jpg\",\"img/0902/44cd9b7e-fdfb-4f78-90de-8d4c9d279365.jpg\"]","trial_type":"similarity","trial_index":203,"time_elapsed":1008603,"internal_node_id":"0.0-6.0-197.0"},{"sim_score":7,"rt":3334,"stimulus":"[\"img/0894/b422d5c6-3c5a-49ae-a53e-7e88ac993f49.jpg\",\"img/0904/fe746a3f-8458-48d0-8a13-8cba2a9df9f8.jpg\"]","trial_type":"similarity","trial_index":204,"time_elapsed":1012957,"internal_node_id":"0.0-6.0-198.0"},{"sim_score":7,"rt":3445,"stimulus":"[\"img/0901/f469cb1d-6d81-4a45-bab5-cd0b650c2b4f.jpg\",\"img/0901/3db47171-0139-4235-82cd-0b1787b6775f.jpg\"]","trial_type":"similarity","trial_index":205,"time_elapsed":1017429,"internal_node_id":"0.0-6.0-199.0"},{"sim_score":3,"rt":4061,"stimulus":"[\"img/0894/1b3888e6-cf36-4c4a-a039-187aa5cb71ac.jpg\",\"img/0860/29a21a9f-54bb-4093-ad3f-04823ceaa89f.jpg\"]","trial_type":"similarity","trial_index":206,"time_elapsed":1022521,"internal_node_id":"0.0-6.0-200.0"},{"sim_score":7,"rt":2621,"stimulus":"[\"img/0898/ec565187-2e31-4fdd-9a5c-153d0c789ae0.jpg\",\"img/0903/59defeb8-98bd-4570-a2f8-9bd189e68ef4.jpg\"]","trial_type":"similarity","trial_index":207,"time_elapsed":1026162,"internal_node_id":"0.0-6.0-201.0"},{"sim_score":2,"rt":3756,"stimulus":"[\"img/0864/ef9cbca0-4be8-435d-ad49-977259e80409.jpg\",\"img/0894/a3d4170b-b7d8-40e3-955f-87e76ed745fc.jpg\"]","trial_type":"similarity","trial_index":208,"time_elapsed":1030945,"internal_node_id":"0.0-6.0-202.0"},{"sim_score":1,"rt":3774,"stimulus":"[\"img/0874/2c9464dd-8a23-4baa-ac94-1ba3af5c15cc.jpg\",\"img/0860/71e1aad0-2cdf-43bb-94a4-a8c016997c30.jpg\"]","trial_type":"similarity","trial_index":209,"time_elapsed":1035739,"internal_node_id":"0.0-6.0-203.0"},{"sim_score":1,"rt":3660,"stimulus":"[\"img/0862/e8cc3bdf-cc43-4565-bccf-492626c70953.jpg\",\"img/0875/527ced51-8e53-4aab-ab05-86df219104c0.jpg\"]","trial_type":"similarity","trial_index":210,"time_elapsed":1040425,"internal_node_id":"0.0-6.0-204.0"},{"sim_score":1,"rt":3237,"stimulus":"[\"img/0867/f8488a47-94ee-4166-952c-44e16cf172f6.jpg\",\"img/0881/f4e3e181-b3c9-4af2-a5a4-fc135ab70d2e.jpg\"]","trial_type":"similarity","trial_index":211,"time_elapsed":1044714,"internal_node_id":"0.0-6.0-205.0"},{"sim_score":5,"rt":3661,"stimulus":"[\"img/0901/693e0535-ef7e-4d60-af9d-fac2f38e8307.jpg\",\"img/0902/24d10fe7-314f-4d5a-8c7b-b43121bba0a4.jpg\"]","trial_type":"similarity","trial_index":212,"time_elapsed":1049394,"internal_node_id":"0.0-6.0-206.0"},{"sim_score":6,"rt":3796,"stimulus":"[\"img/0899/0433d056-aa30-4f8a-9aa1-abbb951e4edd.jpg\",\"img/0864/f92649a2-0590-4d31-9a7a-1bfb81666a2d.jpg\"]","trial_type":"similarity","trial_index":213,"time_elapsed":1054218,"internal_node_id":"0.0-6.0-207.0"},{"sim_score":2,"rt":2874,"stimulus":"[\"img/0901/7c16dd9c-44ad-4d5b-990c-6a0b9b48b1b1.jpg\",\"img/0769/965c3c44-d9e5-47c5-b61a-2bbdf4215d9a.jpg\"]","trial_type":"similarity","trial_index":214,"time_elapsed":1058108,"internal_node_id":"0.0-6.0-208.0"},{"sim_score":6,"rt":2638,"stimulus":"[\"img/0902/94ee9c53-a9a2-4f95-b9b7-794a5fc62bb6.jpg\",\"img/0902/0db94c50-f1fb-4091-953c-29ca0466bee2.jpg\"]","trial_type":"similarity","trial_index":215,"time_elapsed":1070018,"internal_node_id":"0.0-6.0-209.0"},{"view_history":"[{\"page_index\":0,\"viewing_time\":7956}]","rt":7956,"trial_type":"instructions","trial_index":216,"time_elapsed":1078981,"internal_node_id":"0.0-7.0"},{"rt":13191,"responses":"{\"Q0\":\"Orange-crowned Warbler\"}","answer":["Nashville Warbler"],"trial_type":"image-multi-choice","trial_index":217,"time_elapsed":1093242,"internal_node_id":"0.0-8.0-0.0"},{"rt":7505,"responses":"{\"Q0\":\"Black-and-white Warbler\"}","answer":["Black-and-white Warbler"],"trial_type":"image-multi-choice","trial_index":218,"time_elapsed":1101814,"internal_node_id":"0.0-8.0-1.0"},{"rt":29439,"responses":"{\"Q0\":\"Townsend's Warbler\"}","answer":["Townsend's Warbler"],"trial_type":"image-multi-choice","trial_index":219,"time_elapsed":1132316,"internal_node_id":"0.0-8.0-2.0"},{"rt":6987,"responses":"{\"Q0\":\"Lark Sparrow\"}","answer":["Lark Sparrow"],"trial_type":"image-multi-choice","trial_index":220,"time_elapsed":1140374,"internal_node_id":"0.0-8.0-3.0"},{"rt":4896,"responses":"{\"Q0\":\"Yellow Warbler\"}","answer":["Yellow Warbler"],"trial_type":"image-multi-choice","trial_index":221,"time_elapsed":1146385,"internal_node_id":"0.0-8.0-4.0"},{"rt":30597,"responses":"{\"Q0\":\"Nashville Warbler\"}","answer":["Orange-crowned Warbler"],"trial_type":"image-multi-choice","trial_index":222,"time_elapsed":1178040,"internal_node_id":"0.0-8.0-5.0"},{"rt":4756,"responses":"{\"Q0\":\"White-throated Sparrow\"}","answer":["White-throated Sparrow"],"trial_type":"image-multi-choice","trial_index":223,"time_elapsed":1183856,"internal_node_id":"0.0-8.0-6.0"},{"rt":3507,"responses":"{\"Q0\":\"Fox Sparrow\"}","answer":["Fox Sparrow"],"trial_type":"image-multi-choice","trial_index":224,"time_elapsed":1188454,"internal_node_id":"0.0-8.0-7.0"},{"rt":27714,"responses":"{\"Q0\":\"Song Sparrow\"}","answer":["Song Sparrow"],"trial_type":"image-multi-choice","trial_index":225,"time_elapsed":1217221,"internal_node_id":"0.0-8.0-8.0"},{"rt":8916,"responses":"{\"Q0\":\"Blackburnian Warbler\"}","answer":["Blackburnian Warbler"],"trial_type":"image-multi-choice","trial_index":226,"time_elapsed":1227220,"internal_node_id":"0.0-8.0-9.0"},{"rt":26735,"responses":"{\"Q0\":\"Vesper Sparrow\"}","answer":["Vesper Sparrow"],"trial_type":"image-multi-choice","trial_index":227,"time_elapsed":1255048,"internal_node_id":"0.0-8.0-10.0"},{"rt":3704,"responses":"{\"Q0\":\"White-crowned Sparrow\"}","answer":["White-crowned Sparrow"],"trial_type":"image-multi-choice","trial_index":228,"time_elapsed":1259811,"internal_node_id":"0.0-8.0-11.0"},{"rt":7221,"responses":"{\"Q0\":\"American Tree Sparrow\"}","answer":["American Tree Sparrow"],"trial_type":"image-multi-choice","trial_index":229,"time_elapsed":1268097,"internal_node_id":"0.0-8.0-12.0"},{"rt":15197,"responses":"{\"Q0\":\"Tennessee Warbler\"}","answer":["Tennessee Warbler"],"trial_type":"image-multi-choice","trial_index":230,"time_elapsed":1284381,"internal_node_id":"0.0-8.0-13.0"},{"rt":4581,"responses":"{\"Q0\":\"Magnolia Warbler\"}","answer":["Magnolia Warbler"],"trial_type":"image-multi-choice","trial_index":231,"time_elapsed":1290036,"internal_node_id":"0.0-8.0-14.0"},{"rt":6543,"responses":"{\"Q0\":\"Northern Waterthrush\"}","answer":["Northern Waterthrush"],"trial_type":"image-multi-choice","trial_index":232,"time_elapsed":1297633,"internal_node_id":"0.0-8.0-15.0"},{"rt":13553,"responses":"{\"Q0\":\"Swamp Sparrow\"}","answer":["Chipping Sparrow"],"trial_type":"image-multi-choice","trial_index":233,"time_elapsed":1312263,"internal_node_id":"0.0-8.0-16.0"},{"rt":8644,"responses":"{\"Q0\":\"Lincoln's Sparrow\"}","answer":["Swamp Sparrow"],"trial_type":"image-multi-choice","trial_index":234,"time_elapsed":1321984,"internal_node_id":"0.0-8.0-17.0"},{"rt":7363,"responses":"{\"Q0\":\"Lincoln's Sparrow\"}","answer":["Lincoln's Sparrow"],"trial_type":"image-multi-choice","trial_index":235,"time_elapsed":1330413,"internal_node_id":"0.0-8.0-18.0"},{"rt":4962,"responses":"{\"Q0\":\"Ovenbird\"}","answer":["Ovenbird"],"trial_type":"image-multi-choice","trial_index":236,"time_elapsed":1336462,"internal_node_id":"0.0-8.0-19.0"}]