"view_history","rt","trial_type","trial_index","time_elapsed","internal_node_id","sim_score","stimulus","responses","answer"
"[{""page_index"":0,""viewing_time"":29316}]","29317","instructions","0","29317","0.0-0.0","","","",""
"","17216","similarity_demo","1","47540","0.0-1.0","4","[""img/866.jpg"",""img/868.jpg""]","",""
"[{""page_index"":0,""viewing_time"":25186}]","25186","instructions","2","73728","0.0-2.0","","","",""
"","6379","similarity_demo","3","81112","0.0-3.0","1","[""img/766.jpg"",""img/867.jpg""]","",""
"[{""page_index"":0,""viewing_time"":10104}]","10104","instructions","4","92217","0.0-4.0","","","",""
"[{""page_index"":0,""viewing_time"":62871}]","62871","instructions","5","156091","0.0-5.0","","","",""
"","10730","similarity","6","167828","0.0-6.0-0.0","2","[""img/0868/fd307a36-9a3a-47d7-ab7c-f810d0b35040.jpg"",""img/0901/0adb3bd6-d758-4ba7-9723-3ad6cac05bd5.jpg""]","",""
"","4884","similarity","7","173718","0.0-6.0-1.0","5","[""img/0769/3adfa417-3b90-4aab-b437-5eaa474189cb.jpg"",""img/0867/a498eef3-9fa4-4ab2-9778-4ae82ac40dc5.jpg""]","",""
"","4551","similarity","8","179280","0.0-6.0-2.0","2","[""img/0766/27f54113-8561-4568-9ffe-0a1650ae65ec.jpg"",""img/0898/a114b375-cb89-44ba-9498-74213f1ecdee.jpg""]","",""
"","5912","similarity","9","186196","0.0-6.0-3.0","5","[""img/0902/794606a0-d8a8-4e58-8bf8-9d114ed5a548.jpg"",""img/0881/633c6f40-56d9-4b48-bf1c-ecd83116eabb.jpg""]","",""
"","6544","similarity","10","193746","0.0-6.0-4.0","7","[""img/0894/86201968-6e78-4d68-9b3a-d1692e066210.jpg"",""img/0894/5c7677b0-a4f1-479e-b274-7822c415175a.jpg""]","",""
"","10857","similarity","11","205608","0.0-6.0-5.0","2","[""img/0874/a3bc679d-619f-4db6-bb68-116dcb757d9c.jpg"",""img/0899/d8f2dd94-570e-4e8c-a087-d96090fb9e8c.jpg""]","",""
"","316614","similarity","12","523226","0.0-6.0-6.0","5","[""img/0904/9d30eff1-46ef-4453-b11e-124ef8145c00.jpg"",""img/0764/a86eed5b-d0af-4c3f-8c7a-26e98e98cf1a.jpg""]","",""
"","4509","similarity","13","528740","0.0-6.0-7.0","5","[""img/0899/93494f3b-d539-4075-b027-d82e344563da.jpg"",""img/0898/81b08535-2020-4c15-9ce4-2f1e460755ae.jpg""]","",""
"","6414","similarity","14","536159","0.0-6.0-8.0","3","[""img/0874/c0378dac-9370-439a-8b79-db27c96fb390.jpg"",""img/0903/4cbdc464-e562-4ec2-9bb6-15f894fdf528.jpg""]","",""
"","5031","similarity","15","542195","0.0-6.0-9.0","5","[""img/0881/667e2147-d457-4f32-aa5f-6ab86e5848f1.jpg"",""img/0758/3ddd05d3-557e-4ee7-8b78-9d2d681d8ae2.jpg""]","",""
"","4387","similarity","16","547587","0.0-6.0-10.0","4","[""img/0898/f3a3f225-1248-4ac7-b93b-f0ff28485bf3.jpg"",""img/0901/a6776381-91fe-43f8-ab73-261d318f95fd.jpg""]","",""
"","6860","similarity","17","555452","0.0-6.0-11.0","3","[""img/0903/f1fa0f8d-e62b-4b4a-a174-31a0fabfe61b.jpg"",""img/0769/ebef2ddc-ba59-4e0e-97f8-927864eb5081.jpg""]","",""
"","5455","similarity","18","561910","0.0-6.0-12.0","1","[""img/0764/6fbd1902-fa2a-48d8-bc11-705b8ab68d8f.jpg"",""img/0868/09a9ef4d-d000-4cfa-a6aa-ebec7c2edeb4.jpg""]","",""
"","3956","similarity","19","566871","0.0-6.0-13.0","1","[""img/0867/db7e032f-162b-46f5-ae67-2b29679adee4.jpg"",""img/0903/a0673b55-6040-47fe-9040-24bca27ca3c9.jpg""]","",""
"","5070","similarity","20","572945","0.0-6.0-14.0","2","[""img/0766/0bf3793e-c353-45e5-ac6f-753f5f484e10.jpg"",""img/0758/a709631e-3705-4725-ac40-f0d916924f08.jpg""]","",""
"","4513","similarity","21","578463","0.0-6.0-15.0","5","[""img/0902/62f11694-7ed7-4cb7-8a73-9e95c43824e7.jpg"",""img/0860/71e1aad0-2cdf-43bb-94a4-a8c016997c30.jpg""]","",""
"","6317","similarity","22","585785","0.0-6.0-16.0","2","[""img/0769/4680bcc3-8fbc-4643-8f9a-12aa0e780b64.jpg"",""img/0875/fb732ab5-013a-4366-9f65-27811ed157e9.jpg""]","",""
"","3419","similarity","23","590207","0.0-6.0-17.0","1","[""img/0904/6291eb43-c10c-4810-a36a-101d09868b04.jpg"",""img/0866/23a224f3-2012-4fc8-8e0f-3c36f8de27fd.jpg""]","",""
"","3717","similarity","24","594935","0.0-6.0-18.0","3","[""img/0875/5a7c4e35-6514-4e12-8879-d16071da4cd6.jpg"",""img/0875/dbdd643e-6d0e-4a5c-ab57-b9c29b9c981a.jpg""]","",""
"","7318","similarity","25","603261","0.0-6.0-19.0","7","[""img/0758/7ffbc76b-1fc1-432c-8f7e-9ec8d1b3f643.jpg"",""img/0758/d540bee6-b460-4c32-ac57-bc282742d7d4.jpg""]","",""
"","3814","similarity","26","608080","0.0-6.0-20.0","1","[""img/0902/1f4a4c62-68c1-4993-b213-05652a173ed1.jpg"",""img/0874/31e22c7c-99aa-40b1-bf03-dd73fa2df4d6.jpg""]","",""
"","4969","similarity","27","614054","0.0-6.0-21.0","6","[""img/0764/f2f23359-8e82-41d3-8900-5b9f4433991d.jpg"",""img/0769/f73c5138-2f4c-4354-981c-129dff9cc734.jpg""]","",""
"","5675","similarity","28","620735","0.0-6.0-22.0","2","[""img/0901/58ec7fa9-b466-4651-90aa-c082df0972de.jpg"",""img/0874/ca23d307-fc00-4d7d-9106-584c6eb21b4d.jpg""]","",""
"","4485","similarity","29","626224","0.0-6.0-23.0","2","[""img/0875/2e13d160-eea1-416b-aff1-d37ab99ecc1d.jpg"",""img/0903/b548d383-2a95-4575-8c13-647873751ff1.jpg""]","",""
"","7019","similarity","30","634247","0.0-6.0-24.0","4","[""img/0769/ecda2fb3-556b-43ba-8a67-e87dd75ff2b4.jpg"",""img/0881/62a64f90-7a72-4aee-a1a1-0c548ac9bdda.jpg""]","",""
"","4974","similarity","31","640227","0.0-6.0-25.0","2","[""img/0867/26611f4e-d694-4460-b7e2-43c62753ddc3.jpg"",""img/0904/73920552-103b-4c9c-9ece-e0b8376b4504.jpg""]","",""
"","3749","similarity","32","644979","0.0-6.0-26.0","1","[""img/0860/4a022222-056d-461c-ab02-39fac9647552.jpg"",""img/0881/7e31e5dc-2240-4b1b-b5a0-3acd980099ef.jpg""]","",""
"","6708","similarity","33","652691","0.0-6.0-27.0","7","[""img/0866/6f2a90d7-14f1-4f1b-bd64-fc0af6b9fe44.jpg"",""img/0866/4a87911a-d5be-4d4e-ab8e-3d1f581bf507.jpg""]","",""
"","5969","similarity","34","659663","0.0-6.0-28.0","2","[""img/0764/8389e74f-e0e0-435d-945f-da1f4c92ccb6.jpg"",""img/0862/47ed5efd-4ec9-4b74-bb4e-a5f5cf0c3e7d.jpg""]","",""
"","4151","similarity","35","664819","0.0-6.0-29.0","1","[""img/0904/4e58005d-a2ec-4aaa-b199-445343561396.jpg"",""img/0758/7fba58df-2a7a-4b76-8a8f-62739f97f271.jpg""]","",""
"","6163","similarity","36","671988","0.0-6.0-30.0","7","[""img/0894/7f2f31fd-6618-41c6-b65a-0fd8b2851bc9.jpg"",""img/0899/56a605c3-d0a2-4215-89e1-779279d85a7c.jpg""]","",""
"","7578","similarity","37","680569","0.0-6.0-31.0","1","[""img/0860/e8b8c51e-1834-4875-8b61-6c5bc9b178bd.jpg"",""img/0904/0d25eb24-bb20-4e8d-9787-8b489558b4cb.jpg""]","",""
"","5857","similarity","38","687429","0.0-6.0-32.0","6","[""img/0874/8cdb1c07-1c32-46d2-981c-3636560fa6e5.jpg"",""img/0881/48ed65a5-471f-41af-86ec-3793805c116d.jpg""]","",""
"","8719","similarity","39","697153","0.0-6.0-33.0","5","[""img/0881/19e82c47-8e4b-45d2-a6c8-74181eb4155e.jpg"",""img/0899/fef567a2-c121-4481-9af0-ff108d199bbf.jpg""]","",""
"","5944","similarity","40","704103","0.0-6.0-34.0","3","[""img/0866/a04d37f0-99dd-478a-b6c6-58b215138f84.jpg"",""img/0862/53a9cf7c-93c4-41b9-952f-07d17f7a17b2.jpg""]","",""
"","15215","similarity","41","720321","0.0-6.0-35.0","2","[""img/0868/7b212364-ff5f-4e28-9241-7eb6ea00161b.jpg"",""img/0894/151063aa-6472-4745-837b-36603aba5966.jpg""]","",""
"","5552","similarity","42","726880","0.0-6.0-36.0","7","[""img/0860/524b2e98-5767-4d53-942c-ebae6925659b.jpg"",""img/0860/4f695df5-afac-4da7-9875-fee39b0b24ad.jpg""]","",""
"","6698","similarity","43","734581","0.0-6.0-37.0","3","[""img/0862/f188d4f0-76a4-4102-818c-a209969d73a5.jpg"",""img/0864/f92649a2-0590-4d31-9a7a-1bfb81666a2d.jpg""]","",""
"","3919","similarity","44","739502","0.0-6.0-38.0","1","[""img/0766/f011ef45-fb48-44b8-8224-867ed2ccf786.jpg"",""img/0866/9b38d691-1802-4959-ab3f-fc902f0e4ea6.jpg""]","",""
"","4908","similarity","45","745416","0.0-6.0-39.0","2","[""img/0875/8521fd58-3b1e-4dc5-97ae-804edfa6734a.jpg"",""img/0898/04e39a7a-fcf6-4156-ab0e-f5871f335e1c.jpg""]","",""
"","6401","similarity","46","752821","0.0-6.0-40.0","4","[""img/0766/3c526a07-9e0a-4ae2-8142-00085f0127da.jpg"",""img/0769/4a1d0b52-3fe8-40fb-bb1c-c814fe49a68c.jpg""]","",""
"","5388","similarity","47","805145","0.0-6.0-41.0","1","[""img/0874/99f6563c-8a8d-4c1c-a41d-667b618c3fd5.jpg"",""img/0764/1f95ab5f-fb65-4d70-b5db-d6bd6351a8aa.jpg""]","",""
"","7561","similarity","48","813712","0.0-6.0-42.0","2","[""img/0868/15dd6fd7-791e-4b53-b203-195d617521a4.jpg"",""img/0902/27b84584-948a-485b-8749-cb09929ef631.jpg""]","",""
"","6039","similarity","49","820756","0.0-6.0-43.0","1","[""img/0875/2c361b79-c3d1-4eda-812e-bf03192407bf.jpg"",""img/0899/ad8268c5-8199-48d0-ad70-c5b6d6c599ec.jpg""]","",""
"","4845","similarity","50","826606","0.0-6.0-44.0","1","[""img/0866/11a1d141-be5e-443c-98c1-a9d4d9e3dec0.jpg"",""img/0860/94ef7afc-e0e6-4a15-98c6-0bfac82bc832.jpg""]","",""
"","5372","similarity","51","832982","0.0-6.0-45.0","4","[""img/0766/a754e4b6-5019-4cf4-8f58-34c20547a1f5.jpg"",""img/0903/b0a3c45f-467e-412f-a183-c9c1827f2e63.jpg""]","",""
"","5292","similarity","52","839278","0.0-6.0-46.0","3","[""img/0901/4ca4f962-40c0-4c59-b14a-3cd7b8c9029b.jpg"",""img/0904/ba8e689e-9ca6-4608-a2a1-3b0940666ae6.jpg""]","",""
"","5396","similarity","53","845680","0.0-6.0-47.0","1","[""img/0758/61d64021-9214-4951-bdf8-f871f9827cf9.jpg"",""img/0902/ca3160ba-ad5d-459f-a1b6-8b4f3c85ecd5.jpg""]","",""
"","5677","similarity","54","852362","0.0-6.0-48.0","7","[""img/0764/8740679b-b56f-4292-aece-14063457113a.jpg"",""img/0764/958b8576-3a3b-4acc-96dc-06b74de69f37.jpg""]","",""
"","4343","similarity","55","857710","0.0-6.0-49.0","1","[""img/0866/d266fece-59b3-46fa-b69f-96f6efb81b59.jpg"",""img/0902/6c2c243a-f663-45db-baf5-038d3d58c589.jpg""]","",""
"","6753","similarity","56","865467","0.0-6.0-50.0","4","[""img/0764/21e3292f-01ad-4238-828b-61b817857d16.jpg"",""img/0758/b76ceca7-95ac-46e4-ac13-da02c8e93be9.jpg""]","",""
"","4450","similarity","57","870921","0.0-6.0-51.0","5","[""img/0898/e167334e-cc1d-4986-b3b1-c7bc7da64baa.jpg"",""img/0894/2d2db7b3-e8a3-499b-b63a-14f51bf73882.jpg""]","",""
"","5208","similarity","58","877133","0.0-6.0-52.0","4","[""img/0875/ebf7653f-ff45-4e9f-af58-2c042ab3cd2b.jpg"",""img/0866/945c6710-d15b-4a5b-a8f6-69af0850357f.jpg""]","",""
"","4362","similarity","59","882499","0.0-6.0-53.0","6","[""img/0904/4b8daf2a-13a9-4ea9-9e0b-b265b6e933e7.jpg"",""img/0904/9b3568cc-3cf7-42be-9df3-fdafde7a58b8.jpg""]","",""
"","4411","similarity","60","887915","0.0-6.0-54.0","6","[""img/0769/75f7e514-0548-4329-b1e4-93c05e74f038.jpg"",""img/0769/022c7e3b-c3f2-4119-b4bc-f22fa7cae18c.jpg""]","",""
"","4456","similarity","61","893375","0.0-6.0-55.0","2","[""img/0898/68476bbb-34a1-42d9-8bc1-deab783d4489.jpg"",""img/0758/d41c06bf-ebaf-454b-91c6-1a17f917b659.jpg""]","",""
"","7449","similarity","62","901829","0.0-6.0-56.0","1","[""img/0769/3c1efec9-f8fd-487d-8955-4be88e48c832.jpg"",""img/0902/44cd9b7e-fdfb-4f78-90de-8d4c9d279365.jpg""]","",""
"","4976","similarity","63","907809","0.0-6.0-57.0","6","[""img/0864/5f33e097-23e3-4002-882d-76e8cb15f451.jpg"",""img/0881/f8bd891e-aa09-4782-89db-33e7cb2b0cf1.jpg""]","",""
"","3539","similarity","64","912352","0.0-6.0-58.0","1","[""img/0758/a085b443-b5d7-4cb2-9ad4-b9dab0fc23f1.jpg"",""img/0868/4e626425-63c8-484a-8a1d-e66ee4e0bef8.jpg""]","",""
"","6088","similarity","65","919445","0.0-6.0-59.0","5","[""img/0862/a0a3a7ba-7798-46a3-b4ca-05e1f6e581d0.jpg"",""img/0769/387a9744-d6a7-42b8-bab8-33007ec434aa.jpg""]","",""
"","4006","similarity","66","924455","0.0-6.0-60.0","2","[""img/0764/6ef77040-1fae-4afa-bfe7-eda98e6d0376.jpg"",""img/0903/14f179a2-8786-48a2-8377-88d1d404341b.jpg""]","",""
"","5169","similarity","67","930627","0.0-6.0-61.0","7","[""img/0899/06b0fc99-0581-461a-9913-d1a5a941ac61.jpg"",""img/0899/66bf4113-ee12-426c-84d2-ea410b6c803e.jpg""]","",""
"","9650","similarity","68","941281","0.0-6.0-62.0","6","[""img/0860/c7047cd2-7cc1-41b6-8a34-c0986774975f.jpg"",""img/0875/d59ff733-eaff-4ee2-9443-06954dd0bcb6.jpg""]","",""
"","6833","similarity","69","949119","0.0-6.0-63.0","1","[""img/0868/e0aff734-077f-40dd-9781-74821abd3621.jpg"",""img/0874/93d1f8dc-acf2-4f03-bd8d-8ec35df276ed.jpg""]","",""
"","4862","similarity","70","954985","0.0-6.0-64.0","3","[""img/0758/67c0be2f-9e91-48b3-8219-70ac0a1802fa.jpg"",""img/0862/fb26cb07-d5a9-4653-813c-f41609f26cd5.jpg""]","",""
"","4806","similarity","71","960795","0.0-6.0-65.0","5","[""img/0904/b7c2a2c8-df33-4473-b3d4-ff7147c60db3.jpg"",""img/0898/0af304a2-6a7a-4082-ab7c-4450cd08cc58.jpg""]","",""
"","6230","similarity","72","968029","0.0-6.0-66.0","3","[""img/0881/ed4c971f-0873-4fc8-b6d6-e8bbd82f0bcc.jpg"",""img/0866/93a27239-8317-4e08-98ca-d8b1ff298e07.jpg""]","",""
"","4039","similarity","73","973070","0.0-6.0-67.0","1","[""img/0867/179ab87a-8eac-4c52-a41f-2e48e3120f09.jpg"",""img/0898/661621d4-a14e-487c-8c74-354134a29710.jpg""]","",""
"","4685","similarity","74","978759","0.0-6.0-68.0","7","[""img/0902/bd89a85f-3853-4786-acd6-98818ee29f1c.jpg"",""img/0764/c80b3e06-2ee3-4326-9678-340607eb5348.jpg""]","",""
"","5095","similarity","75","984859","0.0-6.0-69.0","7","[""img/0875/42910c99-5463-450a-a0f8-d4d060a11455.jpg"",""img/0867/cc72ed48-7704-422c-86d6-467a1145287a.jpg""]","",""
"","3988","similarity","76","989851","0.0-6.0-70.0","6","[""img/0766/d3bab2fc-ddcc-40a0-bb72-c0d0ebe19978.jpg"",""img/0764/974d52cc-6318-4e7a-b294-2f3e92ff800f.jpg""]","",""
"","5021","similarity","77","995877","0.0-6.0-71.0","3","[""img/0894/661b9f9f-4bde-487a-b1ed-87085fde6948.jpg"",""img/0867/2e1a0b58-cdb1-4107-a14e-452530d7b9b0.jpg""]","",""
"","5718","similarity","78","1002598","0.0-6.0-72.0","2","[""img/0875/527ced51-8e53-4aab-ab05-86df219104c0.jpg"",""img/0764/f64dfa83-333d-494c-87b5-73e942f1766e.jpg""]","",""
"","4134","similarity","79","1007737","0.0-6.0-73.0","7","[""img/0867/6e19c858-b606-45b2-a4c6-910a73f1d82c.jpg"",""img/0866/0207e9a2-7dbb-40b5-9459-b472aaeceb2a.jpg""]","",""
"","4991","similarity","80","1013731","0.0-6.0-74.0","4","[""img/0903/2a9c8033-3e70-47fa-816d-97ee1813a3a3.jpg"",""img/0758/20497cbe-ddae-489e-86e2-ab06985ed07c.jpg""]","",""
"","4742","similarity","81","1019477","0.0-6.0-75.0","1","[""img/0766/51d3aab4-3d09-4dda-b99d-3dc7aaabc6f2.jpg"",""img/0868/77091fc7-a590-4ebb-b915-fdb2483a2399.jpg""]","",""
"","7039","similarity","82","1027520","0.0-6.0-76.0","3","[""img/0874/adf9a8f1-c40b-402b-b95b-1e85a54a7b62.jpg"",""img/0766/26d3ae14-8275-4e08-99b2-a6598c193ddf.jpg""]","",""
"","3302","similarity","83","1031827","0.0-6.0-77.0","1","[""img/0881/292e9b4b-fca0-4ba8-87f1-4048f9e37b7d.jpg"",""img/0868/8b0b8473-e2c0-4331-aa56-c3a5c29369da.jpg""]","",""
"","6762","similarity","84","1039592","0.0-6.0-78.0","3","[""img/0758/335851a0-a55b-46d8-ab05-8463eda48349.jpg"",""img/0901/b453df0b-4c39-49bb-8ced-6127efffa898.jpg""]","",""
"","3629","similarity","85","1044227","0.0-6.0-79.0","1","[""img/0881/4bd34581-94d8-4e88-8c89-5cef864ca3be.jpg"",""img/0898/01bfe666-3510-4fc7-964f-d00d28732dc8.jpg""]","",""
"","4162","similarity","86","1049395","0.0-6.0-80.0","1","[""img/0867/98d8cd96-1476-4fe0-a3a3-04f875500a1b.jpg"",""img/0758/53f35650-e455-4b53-8be4-c3c8271c6466.jpg""]","",""
"","5722","similarity","87","1056121","0.0-6.0-81.0","5","[""img/0769/11518cb3-13ea-4dd0-890c-30cfab728ade.jpg"",""img/0899/f58b8d2f-b19d-4b59-8b94-8834be92e4ba.jpg""]","",""
"","4247","similarity","88","1061371","0.0-6.0-82.0","6","[""img/0903/8f7f9939-b8e6-433f-93dd-b362496c80a7.jpg"",""img/0903/8c358e9e-a4f4-466e-8b93-7aec0d2358e8.jpg""]","",""
"","4580","similarity","89","1153572","0.0-6.0-83.0","2","[""img/0867/7d1c497b-c1b3-4ed8-abb5-d7f73306015f.jpg"",""img/0766/1bc0dccc-a5b5-4375-87fa-28360ca42b12.jpg""]","",""
"","5554","similarity","90","1160133","0.0-6.0-84.0","1","[""img/0902/04a6ad4a-afc6-4871-8225-56b299af7b6b.jpg"",""img/0867/c71dc569-f49c-4397-8381-68b8d726736d.jpg""]","",""
"","3950","similarity","91","1165087","0.0-6.0-85.0","5","[""img/0901/4f9cffe0-c0be-4d7f-bacd-9d51efd19b4a.jpg"",""img/0875/a4935837-7d3c-4df6-88c1-36a94d4991ca.jpg""]","",""
"","6245","similarity","92","1172336","0.0-6.0-86.0","3","[""img/0764/c01e2d65-6586-441b-bef5-3c96fcd85380.jpg"",""img/0866/07c9c966-3c8d-40e7-8128-92b2acbaed5d.jpg""]","",""
"","5407","similarity","93","1178747","0.0-6.0-87.0","2","[""img/0901/1e23ffbd-19de-4c4f-aa23-c54aaa3319a3.jpg"",""img/0894/8cadb87a-7001-4e47-99fb-1867bebf1668.jpg""]","",""
"","4710","similarity","94","1184461","0.0-6.0-88.0","6","[""img/0898/0c7dde4f-efce-4b7a-9387-6921635b7890.jpg"",""img/0769/3c1203c5-2ce7-466e-957a-8d77b5905460.jpg""]","",""
"","5260","similarity","95","1190724","0.0-6.0-89.0","6","[""img/0769/35f2dd39-40aa-498e-b401-9f1ef2622d00.jpg"",""img/0894/7dd6ff43-f8fc-408a-8a41-a2b261871820.jpg""]","",""
"","6450","similarity","96","1198178","0.0-6.0-90.0","3","[""img/0862/4f0a3b4c-afbf-486e-b248-1d54982f54b4.jpg"",""img/0874/3f471690-9788-4d03-90c7-f615aecef149.jpg""]","",""
"","4216","similarity","97","1203399","0.0-6.0-91.0","5","[""img/0894/a98416c0-51e2-4960-85da-d81d8688b9d5.jpg"",""img/0766/ae0fce93-fe8d-4aa1-87ca-4c3e4b889f2f.jpg""]","",""
"","5397","similarity","98","1209800","0.0-6.0-92.0","2","[""img/0874/eba003b4-cdab-4eee-8bc3-f064c7d94165.jpg"",""img/0867/f26f6b60-f772-4f4c-95a4-addc62cfd692.jpg""]","",""
"","4920","similarity","99","1215726","0.0-6.0-93.0","1","[""img/0899/0433d056-aa30-4f8a-9aa1-abbb951e4edd.jpg"",""img/0868/c8ac40c7-6904-4e13-8d61-c75d3052dc4e.jpg""]","",""
"","4912","similarity","100","1221642","0.0-6.0-94.0","5","[""img/0903/81368973-de81-46f4-844f-b901f3bfd66d.jpg"",""img/0862/064818ee-13d5-4618-bb24-21c7368ea278.jpg""]","",""
"","4857","similarity","101","1227502","0.0-6.0-95.0","6","[""img/0899/a048912c-b12c-40e3-90af-46b69b0cc4fe.jpg"",""img/0766/5d1b8041-c5a1-4b02-b4fe-3453d98a0d72.jpg""]","",""
"","4196","similarity","102","1232703","0.0-6.0-96.0","7","[""img/0867/8ba0c5a7-c7e4-42cf-a80a-543763b90779.jpg"",""img/0868/6a28c3b0-3d76-498a-9fb7-ddafc665eca8.jpg""]","",""
"","4040","similarity","103","1237746","0.0-6.0-97.0","5","[""img/0862/d0ca4c78-fc35-46ed-bdcc-8e124283c53e.jpg"",""img/0901/77087ed2-6e12-4329-b2a5-605bca6d972d.jpg""]","",""
"","5515","similarity","104","1244265","0.0-6.0-98.0","3","[""img/0875/f87b67d7-c33e-40d1-b281-248c4be1cb6e.jpg"",""img/0766/75c3d627-4f3b-40d5-9d9c-10c8a62db644.jpg""]","",""
"","4280","similarity","105","1249549","0.0-6.0-99.0","5","[""img/0758/821c68d3-5cb0-4eae-8659-30e6263fca39.jpg"",""img/0874/995f0332-0439-4eb4-add3-957335dbf6d9.jpg""]","",""
"","6627","similarity","106","1257180","0.0-6.0-100.0","4","[""img/0904/d23dd7be-7fe8-4435-82f7-bd592c01e6a1.jpg"",""img/0868/5fa7f9d0-f0e5-454c-8224-74d964818f56.jpg""]","",""
"","5987","similarity","107","1264172","0.0-6.0-101.0","2","[""img/0903/47e39de8-6959-469f-8be9-6999a6db207c.jpg"",""img/0866/620cd1aa-0800-4414-8f6e-90342e7a99ad.jpg""]","",""
"","7006","similarity","108","1272182","0.0-6.0-102.0","4","[""img/0868/3a62db2d-97e9-44a3-b8e3-a48c6f0e423b.jpg"",""img/0769/f6396414-6788-4d59-9683-de153298d89c.jpg""]","",""
"","5777","similarity","109","1278962","0.0-6.0-103.0","2","[""img/0902/2a7ac123-414a-476a-9a96-4757b924baef.jpg"",""img/0899/00715b3f-851b-420b-a26b-d7f79f7759a9.jpg""]","",""
"","7074","similarity","110","1287038","0.0-6.0-104.0","2","[""img/0868/d6d1f30d-4323-435a-b194-7892521bc57e.jpg"",""img/0862/ba89835a-408c-480b-8594-ed4ffa97eb5c.jpg""]","",""
"","4014","similarity","111","1292057","0.0-6.0-105.0","4","[""img/0903/c708d08f-a108-4e04-8288-c3fcf6375db4.jpg"",""img/0894/4739e06d-c31e-4bf1-bf91-c97fa9afb456.jpg""]","",""
"","6027","similarity","112","1299088","0.0-6.0-106.0","5","[""img/0864/da39ad34-04e0-40d4-a724-c08d53e0ea09.jpg"",""img/0874/a82926a3-0b43-4add-803c-d5f9ea7798ee.jpg""]","",""
"","7121","similarity","113","1307212","0.0-6.0-107.0","6","[""img/0862/1c20f772-3a51-4a80-aac0-f57dc9f86c28.jpg"",""img/0902/1a120fb9-dbd6-443e-ba91-b4aceab963da.jpg""]","",""
"","3960","similarity","114","1312177","0.0-6.0-108.0","7","[""img/0904/fe746a3f-8458-48d0-8a13-8cba2a9df9f8.jpg"",""img/0903/647ce311-8c71-479a-8361-961db1457139.jpg""]","",""
"","6682","similarity","115","1319862","0.0-6.0-109.0","1","[""img/0764/5d83b9db-3b2b-4dc8-9bd1-2b515b19c858.jpg"",""img/0864/0f537697-a314-47c3-a8cc-8df23b7e536c.jpg""]","",""
"","4296","similarity","116","1325162","0.0-6.0-110.0","4","[""img/0866/8efcaa46-83ab-4dee-a35f-850402aa21ae.jpg"",""img/0894/3664e04c-c6d3-4c9b-afb6-25d89974b174.jpg""]","",""
"","4160","similarity","117","1330326","0.0-6.0-111.0","5","[""img/0899/a05bea16-2bb4-4cb9-b8fb-4ff975db6971.jpg"",""img/0903/0e5c2854-42aa-48c0-9c3d-6e1ad2a400bd.jpg""]","",""
"","6747","similarity","118","1338076","0.0-6.0-112.0","6","[""img/0902/b03fee99-d5ca-4bf8-871c-a4a743a39842.jpg"",""img/0904/09934646-45d2-4147-8fec-64a22a5ac822.jpg""]","",""
"","4151","similarity","119","1343230","0.0-6.0-113.0","4","[""img/0864/1ebbc554-99fa-49f9-8799-317375a79820.jpg"",""img/0860/702bd09d-df3a-40aa-a267-5f04474305b5.jpg""]","",""
"","4995","similarity","120","1349228","0.0-6.0-114.0","3","[""img/0860/99c589b9-9140-4d17-90c0-b344323edcda.jpg"",""img/0899/1b3457ea-87d4-4946-a01c-aac1863ed46c.jpg""]","",""
"","4566","similarity","121","1354798","0.0-6.0-115.0","4","[""img/0881/db77fe00-aeb0-4d1d-aa66-f3a96fd077e4.jpg"",""img/0903/365f176c-25a4-4973-bd3c-279bf1b39476.jpg""]","",""
"","5260","similarity","122","1361062","0.0-6.0-116.0","1","[""img/0894/1a010553-d598-4b06-a772-81f1e7b3addb.jpg"",""img/0874/1016b306-087c-4afc-aa08-fa527b28dc76.jpg""]","",""
"","6013","similarity","123","1368078","0.0-6.0-117.0","3","[""img/0881/dea58fad-b4f1-41d9-bd3f-916eff19a3fd.jpg"",""img/0862/92f0146c-20c4-482e-aef5-adb693790338.jpg""]","",""
"","5808","similarity","124","1374890","0.0-6.0-118.0","5","[""img/0868/1a62b2b2-18f5-466e-b564-5176a57c565e.jpg"",""img/0875/90da8d75-108a-44ad-b999-e21fee3860d3.jpg""]","",""
"","4939","similarity","125","1380834","0.0-6.0-119.0","6","[""img/0860/b03b963d-949b-4d8d-b19c-4950c89eeca2.jpg"",""img/0758/6e95579b-5166-487c-b8cb-e417c6a218e3.jpg""]","",""
"","4425","similarity","126","1386264","0.0-6.0-120.0","2","[""img/0864/5f74a653-3bdc-4308-8cca-ac667dc22e1f.jpg"",""img/0875/e7e66b13-b573-431e-b85e-288ce04a35a3.jpg""]","",""
"","5923","similarity","127","1393192","0.0-6.0-121.0","2","[""img/0898/b3290bf9-215b-4b45-b21a-65bdf73f142f.jpg"",""img/0866/c446214b-a368-4c65-ae39-ea46894256ab.jpg""]","",""
"","4873","similarity","128","1399068","0.0-6.0-122.0","6","[""img/0874/bf14b896-e930-4fd9-9c05-2e83317a2773.jpg"",""img/0904/56e73f28-7e64-489b-a161-e6b1a063878d.jpg""]","",""
"","4809","similarity","129","1404882","0.0-6.0-123.0","3","[""img/0904/696ebb60-8891-417a-91fd-c53218907a95.jpg"",""img/0864/ef9cbca0-4be8-435d-ad49-977259e80409.jpg""]","",""
"","5137","similarity","130","1411024","0.0-6.0-124.0","3","[""img/0894/b422d5c6-3c5a-49ae-a53e-7e88ac993f49.jpg"",""img/0902/51493fab-2a10-4385-aa88-bee3db441626.jpg""]","",""
"","4372","similarity","131","1424298","0.0-6.0-125.0","1","[""img/0868/179a5502-ab5c-478e-8263-5a1fbcc101d2.jpg"",""img/0864/c3b63e8f-ea39-4d70-a1f2-b3fe4be8eb75.jpg""]","",""
"","4167","similarity","132","1429470","0.0-6.0-126.0","4","[""img/0899/ddf96ade-692e-4602-bd22-dedbb46401bc.jpg"",""img/0866/f756f7d1-9ad8-4a34-9ef6-7a443d705bfe.jpg""]","",""
"","5145","similarity","133","1435620","0.0-6.0-127.0","4","[""img/0875/34132396-d896-4c2d-8087-646dd867e769.jpg"",""img/0904/2fd488e9-960f-41f7-8a44-33375f7d5051.jpg""]","",""
"","5444","similarity","134","1442068","0.0-6.0-128.0","3","[""img/0867/075e0f95-856b-4cbb-acf5-092393aaf04e.jpg"",""img/0899/51a7a498-98c7-42d7-bca8-bc2d8f0b5831.jpg""]","",""
"","3997","similarity","135","1447071","0.0-6.0-129.0","6","[""img/0901/71e551a2-9ce2-409c-9c7c-dd556a0791e9.jpg"",""img/0867/50a1b60e-3a29-44bf-b606-d4bd3746fea9.jpg""]","",""
"","7380","similarity","136","1455456","0.0-6.0-130.0","3","[""img/0864/e02eddb5-f468-499c-91bf-f7be3ffe979b.jpg"",""img/0769/8c7cf147-1780-4d5c-8ddf-5ea23ff03ac9.jpg""]","",""
"","4386","similarity","137","1460846","0.0-6.0-131.0","3","[""img/0903/e2e55a9e-0397-4dc0-8adf-4a54cfefe1fe.jpg"",""img/0868/293079b8-7e0c-4afd-a390-1e5d35fe3ded.jpg""]","",""
"","4331","similarity","138","1466180","0.0-6.0-132.0","4","[""img/0864/87c467d3-abca-482f-ad80-3766c21b1bb3.jpg"",""img/0867/f8159067-056c-41f1-a136-c529fe5e970a.jpg""]","",""
"","4987","similarity","139","1472170","0.0-6.0-133.0","4","[""img/0901/a2d7b2f6-396b-4d91-8403-de5361c74af7.jpg"",""img/0860/5383b320-1518-4095-a58e-5cc1ae30b64c.jpg""]","",""
"","4337","similarity","140","1477512","0.0-6.0-134.0","5","[""img/0881/c843e210-bdfe-4a7c-8bbe-fcea1f90fe1c.jpg"",""img/0766/ea09dd5a-d24d-4e97-a099-7da3db1baef1.jpg""]","",""
"","5983","similarity","141","1484500","0.0-6.0-135.0","3","[""img/0903/59defeb8-98bd-4570-a2f8-9bd189e68ef4.jpg"",""img/0864/efcfbb1b-8197-44c9-b723-40d6c608dd3c.jpg""]","",""
"","3745","similarity","142","1489250","0.0-6.0-136.0","1","[""img/0758/6cd8c362-ae2a-41eb-80a3-3a4f7ace1530.jpg"",""img/0894/11674fa4-285d-44e2-939f-2228c6a64080.jpg""]","",""
"","4029","similarity","143","1494284","0.0-6.0-137.0","3","[""img/0769/1d8734c4-77ab-4165-9e71-5cfe672ff01c.jpg"",""img/0860/c3379ff7-0763-48fe-a1ec-7ea3d611bc7a.jpg""]","",""
"","4765","similarity","144","1500052","0.0-6.0-138.0","7","[""img/0904/24fc38fe-842c-4831-ad8a-b1de5c25c0a8.jpg"",""img/0766/aaec5f42-7f0a-4a16-aeca-488d757acbcc.jpg""]","",""
"","3581","similarity","145","1504638","0.0-6.0-139.0","4","[""img/0868/d98ca254-b195-477f-b57e-5760a2717db8.jpg"",""img/0860/31ff6436-98bf-4652-bed2-40f627229568.jpg""]","",""
"","5745","similarity","146","1511386","0.0-6.0-140.0","4","[""img/0758/eabcd7a8-56ad-4fd2-bc24-90f6b7b33265.jpg"",""img/0864/65210d57-1153-4657-886a-32e758f49b4a.jpg""]","",""
"","4370","similarity","147","1516760","0.0-6.0-141.0","7","[""img/0867/12264664-1860-46df-8c21-162b9817cdda.jpg"",""img/0867/5e07b34d-b40f-4b1c-ac10-49975bace45f.jpg""]","",""
"","3907","similarity","148","1521670","0.0-6.0-142.0","6","[""img/0898/5f699581-3853-4547-856c-12f419ba5af7.jpg"",""img/0898/08c72dac-f8ad-407a-9ce6-8c9a5d679c3a.jpg""]","",""
"","5928","similarity","149","1528604","0.0-6.0-143.0","5","[""img/0866/02f5e6b9-52b7-448c-9708-5b460d0c9a23.jpg"",""img/0769/8598a429-c671-4d2f-842c-32f681f5e412.jpg""]","",""
"","4815","similarity","150","1534424","0.0-6.0-144.0","4","[""img/0860/c47fdead-eb02-4989-b078-26f4852f44fe.jpg"",""img/0898/a8f16b02-e19f-423b-86c3-a36562ae1f9b.jpg""]","",""
"","4854","similarity","151","1540283","0.0-6.0-145.0","4","[""img/0766/d8221e53-2300-4d99-ae1b-0bfb0eabe579.jpg"",""img/0864/9b2490c5-a282-400a-9736-e1a0ecbf1cb7.jpg""]","",""
"","3797","similarity","152","1545084","0.0-6.0-146.0","3","[""img/0860/61fb959d-d4d9-4de4-9e4e-4fa62b4cfcd5.jpg"",""img/0903/45e2d600-57ff-4d69-b22c-0c7896cd38f0.jpg""]","",""
"","3805","similarity","153","1549895","0.0-6.0-147.0","2","[""img/0867/de92135f-5b65-4ed9-b245-188292c7c2f8.jpg"",""img/0764/b887d7c6-aa81-4637-af8e-05135757ac59.jpg""]","",""
"","4169","similarity","154","1555068","0.0-6.0-148.0","6","[""img/0769/14d393ce-e5be-4ca1-86ce-cc27d4b6074c.jpg"",""img/0904/09dac84f-3d1c-4445-a68e-d0389fdbf1e9.jpg""]","",""
"","4231","similarity","155","1560302","0.0-6.0-149.0","3","[""img/0764/fb7d4a20-a475-465e-a74f-aa39a0d33d16.jpg"",""img/0901/3db47171-0139-4235-82cd-0b1787b6775f.jpg""]","",""
"","6191","similarity","156","1567496","0.0-6.0-150.0","6","[""img/0904/9dd5708f-3f8b-46a9-b49f-2f2fab87b357.jpg"",""img/0899/57476fed-5962-4272-8fc9-b317bb777b54.jpg""]","",""
"","4049","similarity","157","1572550","0.0-6.0-151.0","1","[""img/0862/de9ad88c-b522-430a-8ee9-eb06a9f85df5.jpg"",""img/0867/a749dddb-69f0-44a6-acdc-2bf295cf6dcc.jpg""]","",""
"","4450","similarity","158","1578004","0.0-6.0-152.0","7","[""img/0766/989c5c7f-1aff-4442-ac63-9d46acf4a891.jpg"",""img/0766/00891401-e4c9-4ce1-bc19-f70740d174bc.jpg""]","",""
"","6205","similarity","159","1585214","0.0-6.0-153.0","5","[""img/0862/7918ca67-5bd3-4606-a5ea-c39fb11a9297.jpg"",""img/0894/e2446cf5-cd48-486a-badc-76498e087fbe.jpg""]","",""
"","4218","similarity","160","1590436","0.0-6.0-154.0","4","[""img/0899/b45c550b-96c3-4255-ad59-48a2b4db1c1e.jpg"",""img/0901/5b97abf9-f0c8-4fd1-b921-36d574779078.jpg""]","",""
"","5903","similarity","161","1597344","0.0-6.0-155.0","7","[""img/0874/ca76a855-4e77-4f2f-872a-0a718153e7ed.jpg"",""img/0874/85eb9b8a-c4c6-4e5a-b8e7-363a87a82054.jpg""]","",""
"","4262","similarity","162","1602608","0.0-6.0-156.0","1","[""img/0860/f44ba3fb-03a2-42f0-8509-2c1ded493086.jpg"",""img/0867/f8488a47-94ee-4166-952c-44e16cf172f6.jpg""]","",""
"","8447","similarity","163","1612059","0.0-6.0-157.0","4","[""img/0901/b9141736-3041-4385-a586-b1fe911c76a5.jpg"",""img/0881/f6bd3b96-dc40-4e99-8681-bc3a35cf896d.jpg""]","",""
"","4405","similarity","164","1617468","0.0-6.0-158.0","6","[""img/0903/6b5dcc60-3ad3-4962-93e5-e6cf768477af.jpg"",""img/0902/94ee9c53-a9a2-4f95-b9b7-794a5fc62bb6.jpg""]","",""
"","4885","similarity","165","1623360","0.0-6.0-159.0","2","[""img/0860/9593362c-9fe5-4d12-9735-6000a11f6aa5.jpg"",""img/0764/50f1b062-d608-4bc0-ab25-b872dcf2ed93.jpg""]","",""
"","4149","similarity","166","1628512","0.0-6.0-160.0","2","[""img/0902/d2c34af0-8c50-437d-8cc3-619195a3e8ba.jpg"",""img/0875/99698b4d-b4a1-44bc-8c83-8ea755bbbf61.jpg""]","",""
"","4882","similarity","167","1634398","0.0-6.0-161.0","5","[""img/0898/82231d4c-218b-4d0a-b50d-35a49b524e97.jpg"",""img/0862/fad1d7c1-8187-43c3-942a-0fc12183e48e.jpg""]","",""
"","3889","similarity","168","1639294","0.0-6.0-162.0","4","[""img/0894/c505c65a-cde2-4f2c-8cde-f8676f7c894d.jpg"",""img/0875/5a716432-c6ca-4b1c-955a-2b8ac25198ee.jpg""]","",""
"","4461","similarity","169","1644760","0.0-6.0-163.0","3","[""img/0866/bf14b5bd-fb55-47db-86b9-4f8aeb9a6dad.jpg"",""img/0864/8ddd2e30-a1d0-479f-9cbe-591213023893.jpg""]","",""
"","6504","similarity","170","1652268","0.0-6.0-164.0","2","[""img/0766/110832e5-2646-4bd0-a94e-5df8cc314269.jpg"",""img/0862/e8cc3bdf-cc43-4565-bccf-492626c70953.jpg""]","",""
"","4364","similarity","171","1657636","0.0-6.0-165.0","2","[""img/0866/d493a2c8-66eb-44b4-be02-2f327b700b7c.jpg"",""img/0874/3ce41e7c-40c8-4d58-a546-171114521796.jpg""]","",""
"","4834","similarity","172","1663474","0.0-6.0-166.0","6","[""img/0862/e697469a-ec19-4414-b972-7b9f3564785b.jpg"",""img/0860/c5ccd1a4-4bb7-48e1-9b25-72cfaf06909b.jpg""]","",""
"","4481","similarity","173","1677078","0.0-6.0-167.0","3","[""img/0766/33519c22-aaa4-49d7-8d49-ab551db1945e.jpg"",""img/0901/ae1e6ce4-2e10-4ca9-b1e7-21628637ab74.jpg""]","",""
"","4249","similarity","174","1682332","0.0-6.0-168.0","7","[""img/0862/cdaed51d-9e2f-4807-801a-4663c40077e2.jpg"",""img/0862/847e5208-38ec-4f36-949c-296cdd7424ee.jpg""]","",""
"","4921","similarity","175","1688258","0.0-6.0-169.0","6","[""img/0894/b2d2f66e-e480-46da-a02a-6d0c6b285d78.jpg"",""img/0764/d0bef2e0-e16b-4c82-9451-c1d16265eb67.jpg""]","",""
"","3854","similarity","176","1693116","0.0-6.0-170.0","3","[""img/0874/767f289c-9814-4496-803f-745cc8913d1f.jpg"",""img/0898/6cd3830b-d44e-4915-be2b-88d31424b91c.jpg""]","",""
"","3715","similarity","177","1697836","0.0-6.0-171.0","2","[""img/0860/4c530c3c-6aab-492a-94d1-9c01797bde40.jpg"",""img/0766/c23b5a20-e50f-4d85-841f-cf89212a4348.jpg""]","",""
"","4623","similarity","178","1703462","0.0-6.0-172.0","5","[""img/0898/79233891-305a-4a6a-8ddf-5c8604858203.jpg"",""img/0864/6e846d43-94a6-4b37-a268-65eda979f052.jpg""]","",""
"","4807","similarity","179","1709272","0.0-6.0-173.0","4","[""img/0881/54ea8e77-c7e5-4197-b7fa-00b7020849a7.jpg"",""img/0764/83c93cce-18d1-4aa7-9e23-2c268afe0a46.jpg""]","",""
"","6141","similarity","180","1716416","0.0-6.0-174.0","2","[""img/0898/4184e5a2-84ea-4f36-9b42-ae58646f6f87.jpg"",""img/0868/4a8a45ed-2c4f-421b-9564-409a33ecd26c.jpg""]","",""
"","5513","similarity","181","1722932","0.0-6.0-175.0","5","[""img/0864/a248adb3-c70b-4652-b7a3-776d2a1e904b.jpg"",""img/0864/4bd81bc6-c13d-46df-95a9-485886dc7c1b.jpg""]","",""
"","4808","similarity","182","1728744","0.0-6.0-176.0","4","[""img/0899/7b7380d5-d2be-44e5-a09a-c1756f87ef71.jpg"",""img/0862/f23038d4-c366-4f70-979f-66b62362efa4.jpg""]","",""
"","8010","similarity","183","1737758","0.0-6.0-177.0","6","[""img/0875/03c3c331-738b-4446-af92-3d7386b08c2e.jpg"",""img/0758/e1ba5e53-addc-436a-b428-d34fc1b130dc.jpg""]","",""
"","4311","similarity","184","1743072","0.0-6.0-178.0","1","[""img/0866/a15b02be-11bb-43e3-b0e0-ecc3bd7dfc49.jpg"",""img/0901/deff6cfb-0072-4490-bc3e-206bbcd3e8bf.jpg""]","",""
"","8454","similarity","185","1752529","0.0-6.0-179.0","2","[""img/0769/1ca58b80-2365-446d-9616-6c1719e6c46f.jpg"",""img/0874/7e4f2150-3b59-4a36-b5da-a4e0ba410531.jpg""]","",""
"","4888","similarity","186","1758422","0.0-6.0-180.0","4","[""img/0875/3ecb367d-e9eb-4826-8aaa-7aa72fb98019.jpg"",""img/0881/d1982897-8d8d-4704-a940-1ee5d07a1f15.jpg""]","",""
"","4900","similarity","187","1764326","0.0-6.0-181.0","7","[""img/0866/be24ab58-230e-4db8-9f45-ff04c9aec6bb.jpg"",""img/0868/83b4350a-3b70-4cea-b7f5-b5b56f3050a8.jpg""]","",""
"","4314","similarity","188","1769645","0.0-6.0-182.0","4","[""img/0899/4f7bc593-8ddd-4da3-a0b9-84da730d3370.jpg"",""img/0758/ddc336e9-a8b6-4bb9-937a-c7e25e0e9250.jpg""]","",""
"","4693","similarity","189","1775342","0.0-6.0-183.0","2","[""img/0874/2c9464dd-8a23-4baa-ac94-1ba3af5c15cc.jpg"",""img/0875/cff79b3a-a797-4393-9757-6275f999ec04.jpg""]","",""
"","4264","similarity","190","1780608","0.0-6.0-184.0","5","[""img/0904/5cceabc9-de1d-4c67-989b-c28a4ef77e79.jpg"",""img/0862/24cdc752-c2e5-4a17-86a6-6f2045d8553b.jpg""]","",""
"","3829","similarity","191","1785440","0.0-6.0-185.0","5","[""img/0902/95a36b6b-9601-4fa5-8fd9-606ea62f9425.jpg"",""img/0766/69e486f7-dbef-456b-9d48-53d814248a28.jpg""]","",""
"","5690","similarity","192","1792133","0.0-6.0-186.0","3","[""img/0758/d57c2592-a317-4f63-91be-91a3a9afd222.jpg"",""img/0769/8056889f-2b14-4782-bb25-b4e8896ab65b.jpg""]","",""
"","5589","similarity","193","1798734","0.0-6.0-187.0","6","[""img/0881/1407b85b-a1c6-45b1-9884-3b24203efadb.jpg"",""img/0881/445edb15-bd7f-4af3-8bd5-c6ad9677bb31.jpg""]","",""
"","4062","similarity","194","1803804","0.0-6.0-188.0","1","[""img/0758/dd559618-7f09-4a07-8018-d311c4a5ea29.jpg"",""img/0866/386235d2-6857-41e7-88a8-25cfc3430025.jpg""]","",""
"","3902","similarity","195","1808710","0.0-6.0-189.0","4","[""img/0764/ba0c0955-acbb-457d-b1c2-f006b88121d5.jpg"",""img/0898/8605a25b-6895-476d-8c13-df7a83f96093.jpg""]","",""
"","6237","similarity","196","1815952","0.0-6.0-190.0","7","[""img/0903/6138142e-c84e-45fc-9487-c974f3d4968a.jpg"",""img/0901/08d6d1d1-c043-43c4-bb08-d45e062822b9.jpg""]","",""
"","4979","similarity","197","1821934","0.0-6.0-191.0","7","[""img/0902/12452bb1-b8c0-4e4d-ad4d-47e279e5933c.jpg"",""img/0898/c3cecf20-f7fd-45fa-97d0-dc0a63e8d6c0.jpg""]","",""
"","3836","similarity","198","1826774","0.0-6.0-192.0","4","[""img/0864/6f631579-acf1-415c-a42c-1207f62a8d99.jpg"",""img/0901/bc47e078-bda4-40ed-b89a-bbd819164b95.jpg""]","",""
"","5050","similarity","199","1832828","0.0-6.0-193.0","6","[""img/0894/492d2f29-d7b9-4422-8be8-47fd58bfaa8b.jpg"",""img/0881/33d65d80-8a8e-4ecf-852d-0ad7725c17a2.jpg""]","",""
"","3883","similarity","200","1837714","0.0-6.0-194.0","7","[""img/0868/0d3abd3a-b6c3-4584-a9f7-e2da63748b3d.jpg"",""img/0868/4bd5105a-d2c3-4f82-8c80-57196106ba53.jpg""]","",""
"","4976","similarity","201","1843694","0.0-6.0-195.0","6","[""img/0899/0e1d936a-dbe2-4afc-9f19-7b7a1ae6c9ed.jpg"",""img/0764/438c0217-036f-43c9-9b87-f43144e46011.jpg""]","",""
"","5776","similarity","202","1850474","0.0-6.0-196.0","5","[""img/0881/405484ae-0d00-4b05-bc57-6420a36adfac.jpg"",""img/0904/65e2b70a-b184-4da3-b5c0-5038bdf9469a.jpg""]","",""
"","3746","similarity","203","1855224","0.0-6.0-197.0","3","[""img/0864/49150900-7f25-4ce8-8d10-9b47a71d1997.jpg"",""img/0902/d5e25767-e8ec-45f3-ac0a-7b4a6f7a9edc.jpg""]","",""
"","4506","similarity","204","1860734","0.0-6.0-198.0","7","[""img/0894/3adef67d-7676-4995-80b2-bb31b8aca3ef.jpg"",""img/0904/25365108-e038-4021-aac9-797f2063b337.jpg""]","",""
"","4258","similarity","205","1865995","0.0-6.0-199.0","7","[""img/0901/a0d65c84-3f20-476a-92d1-0c01e8019cf4.jpg"",""img/0901/5657dd86-0ff9-4753-ba2b-9dfb223e5c89.jpg""]","",""
"","4046","similarity","206","1871045","0.0-6.0-200.0","2","[""img/0894/7fb082e0-ce79-485c-9109-04367fb32275.jpg"",""img/0860/17b44a7d-c5ca-479f-9e87-f65a64f5c80e.jpg""]","",""
"","5800","similarity","207","1877850","0.0-6.0-201.0","6","[""img/0898/26c41340-15bd-4ead-8fe4-c0d0ddca09c2.jpg"",""img/0903/005ad0de-4f52-433c-b515-dbe8d46184a3.jpg""]","",""
"","4541","similarity","208","1883394","0.0-6.0-202.0","4","[""img/0864/e8bd659f-aa43-4748-877e-3118e8b4e189.jpg"",""img/0894/05161000-f476-499b-a878-c13c7f347fd9.jpg""]","",""
"","8427","similarity","209","1892824","0.0-6.0-203.0","3","[""img/0874/29830da7-be5f-44e5-b141-652a0ccf7269.jpg"",""img/0860/87039971-2210-4aab-93c0-8e9b5f1655b2.jpg""]","",""
"","5193","similarity","210","1899022","0.0-6.0-204.0","2","[""img/0862/ad593cc7-cabe-4bb7-8e14-8a447a0717b4.jpg"",""img/0875/5a1e5100-0d94-4fec-bbe9-ca9894d2cf8e.jpg""]","",""
"","4213","similarity","211","1904240","0.0-6.0-205.0","1","[""img/0867/1719a35d-f085-48c0-9099-16c94fe418b4.jpg"",""img/0881/566f45f8-5fed-4479-a60f-26377e60a62d.jpg""]","",""
"","6182","similarity","212","1911426","0.0-6.0-206.0","3","[""img/0901/d61f267a-c492-4db6-9bfb-61efd49cf072.jpg"",""img/0902/c018bd7a-d91a-4192-aea4-7259cfcdb6c4.jpg""]","",""
"","5073","similarity","213","1917503","0.0-6.0-207.0","3","[""img/0899/66ab3178-c3fe-4455-ad17-d5952b08e018.jpg"",""img/0864/300bb811-8b3c-4c42-8653-6097c3725197.jpg""]","",""
"","4593","similarity","214","1923098","0.0-6.0-208.0","2","[""img/0901/effc03f6-8f9d-46db-a66c-16fc83891c5c.jpg"",""img/0769/47700831-0ca2-4fdd-a498-a3bc5a528f43.jpg""]","",""
"","4354","similarity","215","1942792","0.0-6.0-209.0","6","[""img/0902/d3e55000-c839-4bf9-9b9b-4af0a9925af1.jpg"",""img/0902/962f645e-9b55-4628-9b50-c703422bfe1a.jpg""]","",""
"[{""page_index"":0,""viewing_time"":11796}]","11796","instructions","216","1955589","0.0-7.0","","","",""
"","12729","image-multi-choice","217","1969331","0.0-8.0-0.0","","","{""Q0"":""Orange-crowned Warbler""}","Nashville Warbler"
"","8315","image-multi-choice","218","1978654","0.0-8.0-1.0","","","{""Q0"":""Black-and-white Warbler""}","Black-and-white Warbler"
"","62144","image-multi-choice","219","2041804","0.0-8.0-2.0","","","{""Q0"":""Townsend's Warbler""}","Townsend's Warbler"
"","8828","image-multi-choice","220","2051646","0.0-8.0-3.0","","","{""Q0"":""Lark Sparrow""}","Lark Sparrow"
"","3966","image-multi-choice","221","2056622","0.0-8.0-4.0","","","{""Q0"":""Yellow Warbler""}","Yellow Warbler"
"","25766","image-multi-choice","222","2083398","0.0-8.0-5.0","","","{""Q0"":""Orange-crowned Warbler""}","Orange-crowned Warbler"
"","7917","image-multi-choice","223","2092324","0.0-8.0-6.0","","","{""Q0"":""White-throated Sparrow""}","White-throated Sparrow"
"","8193","image-multi-choice","224","2101525","0.0-8.0-7.0","","","{""Q0"":""Fox Sparrow""}","Fox Sparrow"
"","21859","image-multi-choice","225","2124389","0.0-8.0-8.0","","","{""Q0"":""Vesper Sparrow""}","Song Sparrow"
"","24327","image-multi-choice","226","2149725","0.0-8.0-9.0","","","{""Q0"":""Magnolia Warbler""}","Blackburnian Warbler"
"","30872","image-multi-choice","227","2181606","0.0-8.0-10.0","","","{""Q0"":""Lincoln's Sparrow""}","Vesper Sparrow"
"","5005","image-multi-choice","228","2187622","0.0-8.0-11.0","","","{""Q0"":""White-crowned Sparrow""}","White-crowned Sparrow"
"","18298","image-multi-choice","229","2206929","0.0-8.0-12.0","","","{""Q0"":""American Tree Sparrow""}","American Tree Sparrow"
"","41763","image-multi-choice","230","2249699","0.0-8.0-13.0","","","{""Q0"":""Tennessee Warbler""}","Tennessee Warbler"
"","17244","image-multi-choice","231","2267957","0.0-8.0-14.0","","","{""Q0"":""Magnolia Warbler""}","Magnolia Warbler"
"","7744","image-multi-choice","232","2276714","0.0-8.0-15.0","","","{""Q0"":""Northern Waterthrush""}","Northern Waterthrush"
"","7376","image-multi-choice","233","2285100","0.0-8.0-16.0","","","{""Q0"":""Chipping Sparrow""}","Chipping Sparrow"
"","11831","image-multi-choice","234","2297939","0.0-8.0-17.0","","","{""Q0"":""Swamp Sparrow""}","Swamp Sparrow"
"","11137","image-multi-choice","235","2310085","0.0-8.0-18.0","","","{""Q0"":""Lincoln's Sparrow""}","Lincoln's Sparrow"
"","4589","image-multi-choice","236","2315683","0.0-8.0-19.0","","","{""Q0"":""Ovenbird""}","Ovenbird"
