"view_history","rt","trial_type","trial_index","time_elapsed","internal_node_id","sim_score","stimulus","responses","answer"
"[{""page_index"":0,""viewing_time"":9564}]","9567","instructions","0","9569","0.0-0.0","","","",""
"","8438","similarity_demo","1","19026","0.0-1.0","6","[""img/866.jpg"",""img/868.jpg""]","",""
"[{""page_index"":0,""viewing_time"":5835}]","5836","instructions","2","25862","0.0-2.0","","","",""
"","4971","similarity_demo","3","31840","0.0-3.0","3","[""img/766.jpg"",""img/867.jpg""]","",""
"[{""page_index"":0,""viewing_time"":3588}]","3589","instructions","4","36430","0.0-4.0","","","",""
"[{""page_index"":0,""viewing_time"":6887}]","6887","instructions","5","44318","0.0-5.0","","","",""
"","6342","similarity","6","51673","0.0-6.0-0.0","2","[""img/0868/c8ac40c7-6904-4e13-8d61-c75d3052dc4e.jpg"",""img/0901/875dedb9-24c9-4443-9f8c-85e97d70ee5a.jpg""]","",""
"","5359","similarity","7","58047","0.0-6.0-1.0","2","[""img/0769/35f2dd39-40aa-498e-b401-9f1ef2622d00.jpg"",""img/0867/cc72ed48-7704-422c-86d6-467a1145287a.jpg""]","",""
"","4299","similarity","8","63359","0.0-6.0-2.0","3","[""img/0766/0b48f9e0-7d37-4161-8adb-4e3f5b6b7583.jpg"",""img/0898/04e39a7a-fcf6-4156-ab0e-f5871f335e1c.jpg""]","",""
"","4043","similarity","9","68419","0.0-6.0-3.0","3","[""img/0902/418b716e-63e5-4c77-93e9-95b1f5a3ddf0.jpg"",""img/0881/292e9b4b-fca0-4ba8-87f1-4048f9e37b7d.jpg""]","",""
"","4521","similarity","10","73961","0.0-6.0-4.0","6","[""img/0894/38cf335f-f76f-4349-8d65-e20cd6859565.jpg"",""img/0894/7fb082e0-ce79-485c-9109-04367fb32275.jpg""]","",""
"","3755","similarity","11","78729","0.0-6.0-5.0","5","[""img/0874/995f0332-0439-4eb4-add3-957335dbf6d9.jpg"",""img/0899/4f7bc593-8ddd-4da3-a0b9-84da730d3370.jpg""]","",""
"","5224","similarity","12","84972","0.0-6.0-6.0","5","[""img/0904/5cceabc9-de1d-4c67-989b-c28a4ef77e79.jpg"",""img/0764/d7f3ac54-318a-4dac-a06b-62bed34d01a4.jpg""]","",""
"","4305","similarity","13","90287","0.0-6.0-7.0","5","[""img/0899/0433d056-aa30-4f8a-9aa1-abbb951e4edd.jpg"",""img/0898/6cd3830b-d44e-4915-be2b-88d31424b91c.jpg""]","",""
"","3767","similarity","14","95067","0.0-6.0-8.0","2","[""img/0874/3ce41e7c-40c8-4d58-a546-171114521796.jpg"",""img/0903/470acfd5-5571-4a7b-b3a4-28d87e098138.jpg""]","",""
"","4200","similarity","15","100280","0.0-6.0-9.0","5","[""img/0881/adc02f34-ce97-4aef-850f-00519df06fd7.jpg"",""img/0758/e1ba5e53-addc-436a-b428-d34fc1b130dc.jpg""]","",""
"","4364","similarity","16","105656","0.0-6.0-10.0","6","[""img/0898/993d8f2d-bef7-4251-a193-0f93a32b7763.jpg"",""img/0901/148b747a-7392-437e-8823-33053c5dff3f.jpg""]","",""
"","3951","similarity","17","110621","0.0-6.0-11.0","3","[""img/0903/2c7b4aed-6038-4aac-958a-e3e58341c313.jpg"",""img/0769/75f7e514-0548-4329-b1e4-93c05e74f038.jpg""]","",""
"","3158","similarity","18","114791","0.0-6.0-12.0","1","[""img/0764/ba0c0955-acbb-457d-b1c2-f006b88121d5.jpg"",""img/0868/4e626425-63c8-484a-8a1d-e66ee4e0bef8.jpg""]","",""
"","4259","similarity","19","120064","0.0-6.0-13.0","2","[""img/0867/8ba0c5a7-c7e4-42cf-a80a-543763b90779.jpg"",""img/0903/4cbdc464-e562-4ec2-9bb6-15f894fdf528.jpg""]","",""
"","3947","similarity","20","125023","0.0-6.0-14.0","2","[""img/0766/ef3b15ce-abb7-4292-ad93-aec8e8b50520.jpg"",""img/0758/67c0be2f-9e91-48b3-8219-70ac0a1802fa.jpg""]","",""
"","3661","similarity","21","129702","0.0-6.0-15.0","5","[""img/0902/6c2c243a-f663-45db-baf5-038d3d58c589.jpg"",""img/0860/4a022222-056d-461c-ab02-39fac9647552.jpg""]","",""
"","3093","similarity","22","133815","0.0-6.0-16.0","2","[""img/0769/a1ce8d07-ba37-40de-bade-2778805521e0.jpg"",""img/0875/03c3c331-738b-4446-af92-3d7386b08c2e.jpg""]","",""
"","3239","similarity","23","138064","0.0-6.0-17.0","2","[""img/0904/fe746a3f-8458-48d0-8a13-8cba2a9df9f8.jpg"",""img/0866/620cd1aa-0800-4414-8f6e-90342e7a99ad.jpg""]","",""
"","3961","similarity","24","143043","0.0-6.0-18.0","7","[""img/0875/2c361b79-c3d1-4eda-812e-bf03192407bf.jpg"",""img/0875/34132396-d896-4c2d-8087-646dd867e769.jpg""]","",""
"","5749","similarity","25","149799","0.0-6.0-19.0","7","[""img/0758/20497cbe-ddae-489e-86e2-ab06985ed07c.jpg"",""img/0758/65d426d6-3ff6-415d-8654-a43b83ecc4fe.jpg""]","",""
"","3411","similarity","26","154224","0.0-6.0-20.0","5","[""img/0902/7499db23-3a41-41ea-ab5b-6ab4d4c3ed35.jpg"",""img/0874/bf14b896-e930-4fd9-9c05-2e83317a2773.jpg""]","",""
"","3967","similarity","27","159199","0.0-6.0-21.0","5","[""img/0764/f713847b-4832-42d1-8fb3-e17e37fd745c.jpg"",""img/0769/ecda2fb3-556b-43ba-8a67-e87dd75ff2b4.jpg""]","",""
"","6754","similarity","28","166959","0.0-6.0-22.0","4","[""img/0901/4f9cffe0-c0be-4d7f-bacd-9d51efd19b4a.jpg"",""img/0874/a3bc679d-619f-4db6-bb68-116dcb757d9c.jpg""]","",""
"","4601","similarity","29","172567","0.0-6.0-23.0","2","[""img/0875/8521fd58-3b1e-4dc5-97ae-804edfa6734a.jpg"",""img/0903/f67c4ab9-f8c2-4fcd-848a-a54a7b031002.jpg""]","",""
"","5219","similarity","30","178799","0.0-6.0-24.0","5","[""img/0769/76eaa4a3-dfe9-4dc1-9efb-caebe86264e1.jpg"",""img/0881/0c7068da-d0d9-4103-bda1-74ef7a2b32c3.jpg""]","",""
"","3836","similarity","31","183656","0.0-6.0-25.0","3","[""img/0867/ac1797e4-8afc-48fe-b252-86d1defb1cca.jpg"",""img/0904/25365108-e038-4021-aac9-797f2063b337.jpg""]","",""
"","4179","similarity","32","188847","0.0-6.0-26.0","5","[""img/0860/29a21a9f-54bb-4093-ad3f-04823ceaa89f.jpg"",""img/0881/2a8413be-fec2-4de6-88ad-614dd4cccc9d.jpg""]","",""
"","3250","similarity","33","193110","0.0-6.0-27.0","7","[""img/0866/9b38d691-1802-4959-ab3f-fc902f0e4ea6.jpg"",""img/0866/c446214b-a368-4c65-ae39-ea46894256ab.jpg""]","",""
"","3704","similarity","34","197823","0.0-6.0-28.0","3","[""img/0764/e42c1dc9-7831-4995-be19-7ca7b4d141fc.jpg"",""img/0862/ee3b7bff-4a70-4e84-9bea-4a565e456acb.jpg""]","",""
"","4528","similarity","35","203364","0.0-6.0-29.0","2","[""img/0904/b5855d6a-7ef9-46ca-9215-6e9fa046e543.jpg"",""img/0758/f61ecdf8-a7d4-4db0-b84d-be46f7cfaffc.jpg""]","",""
"","3747","similarity","36","208124","0.0-6.0-30.0","5","[""img/0894/767a0eec-1064-46b1-b1aa-dfa02b0cd74e.jpg"",""img/0899/93494f3b-d539-4075-b027-d82e344563da.jpg""]","",""
"","3851","similarity","37","212982","0.0-6.0-31.0","2","[""img/0860/f44ba3fb-03a2-42f0-8509-2c1ded493086.jpg"",""img/0904/d23dd7be-7fe8-4435-82f7-bd592c01e6a1.jpg""]","",""
"","3876","similarity","38","217870","0.0-6.0-32.0","5","[""img/0874/2c9464dd-8a23-4baa-ac94-1ba3af5c15cc.jpg"",""img/0881/b1a136f7-8511-4d3a-a0f6-3879acf1e1a1.jpg""]","",""
"","3804","similarity","39","222684","0.0-6.0-33.0","5","[""img/0881/33d65d80-8a8e-4ecf-852d-0ad7725c17a2.jpg"",""img/0899/9de5e857-aa9a-4e0c-8ba2-46d79bd069a4.jpg""]","",""
"","2958","similarity","40","226655","0.0-6.0-34.0","1","[""img/0866/02f5e6b9-52b7-448c-9708-5b460d0c9a23.jpg"",""img/0862/fb26cb07-d5a9-4653-813c-f41609f26cd5.jpg""]","",""
"","4059","similarity","41","231727","0.0-6.0-35.0","3","[""img/0868/4a8a45ed-2c4f-421b-9564-409a33ecd26c.jpg"",""img/0894/151063aa-6472-4745-837b-36603aba5966.jpg""]","",""
"","3901","similarity","42","236640","0.0-6.0-36.0","7","[""img/0860/18dfed73-e36b-4487-a8bd-0b8cff8e3668.jpg"",""img/0860/524b2e98-5767-4d53-942c-ebae6925659b.jpg""]","",""
"","3170","similarity","43","240819","0.0-6.0-37.0","5","[""img/0862/eefa5588-9efd-4591-aa5f-a2e17c7d7bcc.jpg"",""img/0864/4bd81bc6-c13d-46df-95a9-485886dc7c1b.jpg""]","",""
"","3576","similarity","44","245408","0.0-6.0-38.0","2","[""img/0766/79767d11-b612-4e8a-9e4b-a8ac95bb6a54.jpg"",""img/0866/a15b02be-11bb-43e3-b0e0-ecc3bd7dfc49.jpg""]","",""
"","4308","similarity","45","250728","0.0-6.0-39.0","2","[""img/0875/fb732ab5-013a-4366-9f65-27811ed157e9.jpg"",""img/0898/a8f16b02-e19f-423b-86c3-a36562ae1f9b.jpg""]","",""
"","4695","similarity","46","256438","0.0-6.0-40.0","5","[""img/0766/75c3d627-4f3b-40d5-9d9c-10c8a62db644.jpg"",""img/0769/f229321f-04dd-42d7-b14a-ffad6b509862.jpg""]","",""
"","3803","similarity","47","293759","0.0-6.0-41.0","6","[""img/0874/c0378dac-9370-439a-8b79-db27c96fb390.jpg"",""img/0764/50f1b062-d608-4bc0-ab25-b872dcf2ed93.jpg""]","",""
"","5378","similarity","48","300144","0.0-6.0-42.0","1","[""img/0868/77091fc7-a590-4ebb-b915-fdb2483a2399.jpg"",""img/0902/cf9dee9c-2bdf-4d64-9302-97f1660fe52c.jpg""]","",""
"","3211","similarity","49","304368","0.0-6.0-43.0","1","[""img/0875/d59ff733-eaff-4ee2-9443-06954dd0bcb6.jpg"",""img/0899/0adc0bc3-6fca-4078-be6f-d45ddf1653d5.jpg""]","",""
"","4093","similarity","50","309473","0.0-6.0-44.0","1","[""img/0866/be24ab58-230e-4db8-9f45-ff04c9aec6bb.jpg"",""img/0860/94ef7afc-e0e6-4a15-98c6-0bfac82bc832.jpg""]","",""
"","4047","similarity","51","314531","0.0-6.0-45.0","2","[""img/0766/27f54113-8561-4568-9ffe-0a1650ae65ec.jpg"",""img/0903/680ed18e-b311-4ecf-9b00-7dea32128334.jpg""]","",""
"","6098","similarity","52","321640","0.0-6.0-46.0","1","[""img/0901/50e1d53e-a49f-4806-8610-be6dec5a2475.jpg"",""img/0904/9d30eff1-46ef-4453-b11e-124ef8145c00.jpg""]","",""
"","3689","similarity","53","326344","0.0-6.0-47.0","3","[""img/0758/821c68d3-5cb0-4eae-8659-30e6263fca39.jpg"",""img/0902/ca3160ba-ad5d-459f-a1b6-8b4f3c85ecd5.jpg""]","",""
"","3618","similarity","54","330972","0.0-6.0-48.0","7","[""img/0764/e48e6c6f-9e28-420f-836a-8043b2319bb4.jpg"",""img/0764/b328441c-f81c-486c-9eae-b947c70ba7cd.jpg""]","",""
"","3095","similarity","55","335080","0.0-6.0-49.0","1","[""img/0866/d266fece-59b3-46fa-b69f-96f6efb81b59.jpg"",""img/0902/27b84584-948a-485b-8749-cb09929ef631.jpg""]","",""
"","3495","similarity","56","339584","0.0-6.0-50.0","3","[""img/0764/fb92924f-5cfe-4b89-b130-0cce8cc5636b.jpg"",""img/0758/e38fd80d-18d0-42f3-b848-f930788e8bd7.jpg""]","",""
"","2835","similarity","57","343432","0.0-6.0-51.0","4","[""img/0898/68476bbb-34a1-42d9-8bc1-deab783d4489.jpg"",""img/0894/e6385e52-6c35-43bd-b0af-bc803d107b11.jpg""]","",""
"","3879","similarity","58","348320","0.0-6.0-52.0","3","[""img/0875/e7e66b13-b573-431e-b85e-288ce04a35a3.jpg"",""img/0866/945c6710-d15b-4a5b-a8f6-69af0850357f.jpg""]","",""
"","3371","similarity","59","352704","0.0-6.0-53.0","4","[""img/0904/696ebb60-8891-417a-91fd-c53218907a95.jpg"",""img/0904/6291eb43-c10c-4810-a36a-101d09868b04.jpg""]","",""
"","3807","similarity","60","357520","0.0-6.0-54.0","7","[""img/0769/da36e3f7-2337-434f-ab57-11822dd7eed7.jpg"",""img/0769/180213e5-1e50-4b4e-87b6-add77ba04d39.jpg""]","",""
"","2275","similarity","61","360807","0.0-6.0-55.0","4","[""img/0898/8605a25b-6895-476d-8c13-df7a83f96093.jpg"",""img/0758/6e95579b-5166-487c-b8cb-e417c6a218e3.jpg""]","",""
"","4563","similarity","62","366379","0.0-6.0-56.0","3","[""img/0769/c34b7763-8ff2-46d5-9e92-f1d8f3bedbd8.jpg"",""img/0902/04a6ad4a-afc6-4871-8225-56b299af7b6b.jpg""]","",""
"","2329","similarity","63","369712","0.0-6.0-57.0","4","[""img/0864/9b2490c5-a282-400a-9736-e1a0ecbf1cb7.jpg"",""img/0881/405484ae-0d00-4b05-bc57-6420a36adfac.jpg""]","",""
"","4795","similarity","64","375520","0.0-6.0-58.0","1","[""img/0758/ddc336e9-a8b6-4bb9-937a-c7e25e0e9250.jpg"",""img/0868/179a5502-ab5c-478e-8263-5a1fbcc101d2.jpg""]","",""
"","6019","similarity","65","382552","0.0-6.0-59.0","7","[""img/0862/24cdc752-c2e5-4a17-86a6-6f2045d8553b.jpg"",""img/0769/d1be2815-fa79-46e8-b5c3-7d81caaca490.jpg""]","",""
"","2060","similarity","66","385623","0.0-6.0-60.0","4","[""img/0764/f990b2e8-ecee-481e-be7c-0239fce350e2.jpg"",""img/0903/f1fa0f8d-e62b-4b4a-a174-31a0fabfe61b.jpg""]","",""
"","3215","similarity","67","389852","0.0-6.0-61.0","7","[""img/0899/8de08897-b430-42fe-9d42-840670b80f94.jpg"",""img/0899/5b56dd3e-3f49-47cc-af84-16da6457753b.jpg""]","",""
"","3784","similarity","68","394649","0.0-6.0-62.0","5","[""img/0860/8a92e21b-6a32-4e4a-a445-2d5a487ed0a4.jpg"",""img/0875/3ecb367d-e9eb-4826-8aaa-7aa72fb98019.jpg""]","",""
"","4784","similarity","69","400448","0.0-6.0-63.0","1","[""img/0868/fd307a36-9a3a-47d7-ab7c-f810d0b35040.jpg"",""img/0874/adf9a8f1-c40b-402b-b95b-1e85a54a7b62.jpg""]","",""
"","2393","similarity","70","403847","0.0-6.0-64.0","4","[""img/0758/3ddd05d3-557e-4ee7-8b78-9d2d681d8ae2.jpg"",""img/0862/e8cc3bdf-cc43-4565-bccf-492626c70953.jpg""]","",""
"","3231","similarity","71","408087","0.0-6.0-65.0","4","[""img/0904/ba8e689e-9ca6-4608-a2a1-3b0940666ae6.jpg"",""img/0898/881e2a85-d5c2-49be-a0c6-8a6ce2c4af08.jpg""]","",""
"","3262","similarity","72","412361","0.0-6.0-66.0","4","[""img/0881/4bd34581-94d8-4e88-8c89-5cef864ca3be.jpg"",""img/0866/93a27239-8317-4e08-98ca-d8b1ff298e07.jpg""]","",""
"","3894","similarity","73","417276","0.0-6.0-67.0","4","[""img/0867/f26f6b60-f772-4f4c-95a4-addc62cfd692.jpg"",""img/0898/cd3aaa3f-efa9-4ab3-8d6f-a6a9273ddf42.jpg""]","",""
"","2991","similarity","74","421279","0.0-6.0-68.0","4","[""img/0902/10d99c89-71f7-4c81-a31e-dfc7c59f5232.jpg"",""img/0764/1f95ab5f-fb65-4d70-b5db-d6bd6351a8aa.jpg""]","",""
"","2037","similarity","75","424328","0.0-6.0-69.0","4","[""img/0875/2e13d160-eea1-416b-aff1-d37ab99ecc1d.jpg"",""img/0867/1719a35d-f085-48c0-9099-16c94fe418b4.jpg""]","",""
"","2812","similarity","76","428151","0.0-6.0-70.0","4","[""img/0766/69e486f7-dbef-456b-9d48-53d814248a28.jpg"",""img/0764/06ea144f-f4f3-4a14-ba47-f20f35c561e0.jpg""]","",""
"","2945","similarity","77","432104","0.0-6.0-71.0","4","[""img/0894/6b2e9509-8699-42b7-9582-7741df0ba2d7.jpg"",""img/0867/f8488a47-94ee-4166-952c-44e16cf172f6.jpg""]","",""
"","4559","similarity","78","437672","0.0-6.0-72.0","2","[""img/0875/5a7c4e35-6514-4e12-8879-d16071da4cd6.jpg"",""img/0764/e30dba15-e68a-4659-89db-e1654b52fe02.jpg""]","",""
"","4778","similarity","79","443464","0.0-6.0-73.0","7","[""img/0867/c71dc569-f49c-4397-8381-68b8d726736d.jpg"",""img/0866/f756f7d1-9ad8-4a34-9ef6-7a443d705bfe.jpg""]","",""
"","6981","similarity","80","451456","0.0-6.0-74.0","3","[""img/0903/07b445ee-0cdb-4d2c-a23b-d727613f4059.jpg"",""img/0758/7fba58df-2a7a-4b76-8a8f-62739f97f271.jpg""]","",""
"","4612","similarity","81","457080","0.0-6.0-75.0","1","[""img/0766/26d3ae14-8275-4e08-99b2-a6598c193ddf.jpg"",""img/0868/7b212364-ff5f-4e28-9241-7eb6ea00161b.jpg""]","",""
"","4849","similarity","82","462936","0.0-6.0-76.0","5","[""img/0874/31e22c7c-99aa-40b1-bf03-dd73fa2df4d6.jpg"",""img/0766/d3bab2fc-ddcc-40a0-bb72-c0d0ebe19978.jpg""]","",""
"","4202","similarity","83","468143","0.0-6.0-77.0","1","[""img/0881/1407b85b-a1c6-45b1-9884-3b24203efadb.jpg"",""img/0868/15dd6fd7-791e-4b53-b203-195d617521a4.jpg""]","",""
"","3224","similarity","84","472376","0.0-6.0-78.0","1","[""img/0758/9fb5b2fe-3f00-4fe6-973c-1ce10d5f4cd5.jpg"",""img/0901/71e551a2-9ce2-409c-9c7c-dd556a0791e9.jpg""]","",""
"","4729","similarity","85","478112","0.0-6.0-79.0","5","[""img/0881/d373cb9f-a719-4549-a2a4-82def79fb2a5.jpg"",""img/0898/b2732712-71c2-45d8-834f-2b2ed5504910.jpg""]","",""
"","4085","similarity","86","483207","0.0-6.0-80.0","3","[""img/0867/aa05d113-fc19-4756-a8eb-7878f580bc92.jpg"",""img/0758/d41c06bf-ebaf-454b-91c6-1a17f917b659.jpg""]","",""
"","2731","similarity","87","486944","0.0-6.0-81.0","5","[""img/0769/e31b3bd8-efcb-413e-aa8c-75fac2b8f2ac.jpg"",""img/0899/51a7a498-98c7-42d7-bca8-bc2d8f0b5831.jpg""]","",""
"","4207","similarity","88","492160","0.0-6.0-82.0","7","[""img/0903/e2e55a9e-0397-4dc0-8adf-4a54cfefe1fe.jpg"",""img/0903/12bd8657-92e6-4c36-a06c-597e7a1d51f3.jpg""]","",""
"","2850","similarity","89","516655","0.0-6.0-83.0","1","[""img/0867/2e1a0b58-cdb1-4107-a14e-452530d7b9b0.jpg"",""img/0766/71b81ebd-0937-4d7f-b8bf-c4e46a4728fd.jpg""]","",""
"","4713","similarity","90","522375","0.0-6.0-84.0","3","[""img/0902/cdec1bc6-7f90-4f72-9e01-f5a4111bac1d.jpg"",""img/0867/bf560d4f-dee3-4f11-a385-705cc1aa5f3c.jpg""]","",""
"","3409","similarity","91","526792","0.0-6.0-85.0","2","[""img/0901/6e2957f8-f5ab-46f4-87cc-bb50155a098b.jpg"",""img/0875/527ced51-8e53-4aab-ab05-86df219104c0.jpg""]","",""
"","4341","similarity","92","532143","0.0-6.0-86.0","3","[""img/0764/62fafeea-6274-48ce-976f-35d3d3484c65.jpg"",""img/0866/d493a2c8-66eb-44b4-be02-2f327b700b7c.jpg""]","",""
"","4511","similarity","93","537663","0.0-6.0-87.0","1","[""img/0901/2a953e50-d237-405c-a38d-5ed21494c968.jpg"",""img/0894/11674fa4-285d-44e2-939f-2228c6a64080.jpg""]","",""
"","4348","similarity","94","543023","0.0-6.0-88.0","3","[""img/0898/08c72dac-f8ad-407a-9ce6-8c9a5d679c3a.jpg"",""img/0769/7c50e5f5-cc38-4d48-b009-fbe17bcea61c.jpg""]","",""
"","4325","similarity","95","548359","0.0-6.0-89.0","5","[""img/0769/688d0c52-ad73-4065-a5eb-f8c10d076bff.jpg"",""img/0894/133a1636-d123-4893-873c-1718050f832a.jpg""]","",""
"","3880","similarity","96","553248","0.0-6.0-90.0","6","[""img/0862/d0ca4c78-fc35-46ed-bdcc-8e124283c53e.jpg"",""img/0874/a82926a3-0b43-4add-803c-d5f9ea7798ee.jpg""]","",""
"","2583","similarity","97","556839","0.0-6.0-91.0","6","[""img/0894/e5edf723-72a5-4673-8441-6c1734a8929b.jpg"",""img/0766/aaec5f42-7f0a-4a16-aeca-488d757acbcc.jpg""]","",""
"","4905","similarity","98","562751","0.0-6.0-92.0","3","[""img/0874/8cdb1c07-1c32-46d2-981c-3636560fa6e5.jpg"",""img/0867/26611f4e-d694-4460-b7e2-43c62753ddc3.jpg""]","",""
"","3046","similarity","99","566807","0.0-6.0-93.0","2","[""img/0899/d60714ae-98d7-4564-8c98-94dba1351135.jpg"",""img/0868/5fa7f9d0-f0e5-454c-8224-74d964818f56.jpg""]","",""
"","4803","similarity","100","572623","0.0-6.0-94.0","5","[""img/0903/ea75f240-fb62-4edb-a709-83e858b202c0.jpg"",""img/0862/47ed5efd-4ec9-4b74-bb4e-a5f5cf0c3e7d.jpg""]","",""
"","4617","similarity","101","578247","0.0-6.0-95.0","5","[""img/0899/8abe6c69-822c-436c-9bf2-96c818b49ba5.jpg"",""img/0766/535849cc-ff5d-4df9-8f31-0ce94a97d571.jpg""]","",""
"","2973","similarity","102","582223","0.0-6.0-96.0","7","[""img/0867/db7e032f-162b-46f5-ae67-2b29679adee4.jpg"",""img/0868/6a28c3b0-3d76-498a-9fb7-ddafc665eca8.jpg""]","",""
"","3087","similarity","103","586319","0.0-6.0-97.0","6","[""img/0862/f43ceabf-acc1-4107-b857-5d1849808f93.jpg"",""img/0901/168eb52c-c415-43f1-b5c8-e76e1a1ec247.jpg""]","",""
"","4747","similarity","104","592079","0.0-6.0-98.0","1","[""img/0875/ebf7653f-ff45-4e9f-af58-2c042ab3cd2b.jpg"",""img/0766/5d1b8041-c5a1-4b02-b4fe-3453d98a0d72.jpg""]","",""
"","5163","similarity","105","598255","0.0-6.0-99.0","4","[""img/0758/53f35650-e455-4b53-8be4-c3c8271c6466.jpg"",""img/0874/eba003b4-cdab-4eee-8bc3-f064c7d94165.jpg""]","",""
"","4039","similarity","106","603303","0.0-6.0-100.0","4","[""img/0904/4d7d70a3-9477-4921-bda0-f9531d0a5c5b.jpg"",""img/0868/4bd5105a-d2c3-4f82-8c80-57196106ba53.jpg""]","",""
"","3924","similarity","107","608234","0.0-6.0-101.0","3","[""img/0903/0fb24af7-9a26-4e9d-aadc-959a36f683e2.jpg"",""img/0866/23a224f3-2012-4fc8-8e0f-3c36f8de27fd.jpg""]","",""
"","4320","similarity","108","613570","0.0-6.0-102.0","5","[""img/0868/09a9ef4d-d000-4cfa-a6aa-ebec7c2edeb4.jpg"",""img/0769/3c1203c5-2ce7-466e-957a-8d77b5905460.jpg""]","",""
"","5131","similarity","109","619712","0.0-6.0-103.0","4","[""img/0902/b56db912-c3c0-4fc2-b325-d640acd7cb58.jpg"",""img/0899/f95cbdb4-f804-4f5d-ad76-373ad343e658.jpg""]","",""
"","4336","similarity","110","625055","0.0-6.0-104.0","3","[""img/0868/1a62b2b2-18f5-466e-b564-5176a57c565e.jpg"",""img/0862/53a9cf7c-93c4-41b9-952f-07d17f7a17b2.jpg""]","",""
"","3804","similarity","111","629864","0.0-6.0-105.0","6","[""img/0903/6b5dcc60-3ad3-4962-93e5-e6cf768477af.jpg"",""img/0894/7dd6ff43-f8fc-408a-8a41-a2b261871820.jpg""]","",""
"","3641","similarity","112","634511","0.0-6.0-106.0","6","[""img/0864/e336a4c5-6648-4fd7-b2f6-93a3fb83f8c6.jpg"",""img/0874/767f289c-9814-4496-803f-745cc8913d1f.jpg""]","",""
"","3220","similarity","113","638744","0.0-6.0-107.0","6","[""img/0862/4f0a3b4c-afbf-486e-b248-1d54982f54b4.jpg"",""img/0902/97022122-01e4-46c3-a34f-c6260ad28428.jpg""]","",""
"","3474","similarity","114","643231","0.0-6.0-108.0","7","[""img/0904/4b8daf2a-13a9-4ea9-9e0b-b265b6e933e7.jpg"",""img/0903/005ad0de-4f52-433c-b515-dbe8d46184a3.jpg""]","",""
"","5090","similarity","115","649328","0.0-6.0-109.0","5","[""img/0764/bc3865c9-9004-4582-88a7-048478673f97.jpg"",""img/0864/8ddd2e30-a1d0-479f-9cbe-591213023893.jpg""]","",""
"","4060","similarity","116","654399","0.0-6.0-110.0","5","[""img/0866/386235d2-6857-41e7-88a8-25cfc3430025.jpg"",""img/0894/10f22b96-040c-44f4-950b-a4963f3f506c.jpg""]","",""
"","3244","similarity","117","658655","0.0-6.0-111.0","4","[""img/0899/57476fed-5962-4272-8fc9-b317bb777b54.jpg"",""img/0903/5ea5bbe0-f238-4724-abe7-9ed8dee8c0ba.jpg""]","",""
"","3945","similarity","118","663632","0.0-6.0-112.0","6","[""img/0902/c9c74d2d-9b82-42d7-a9d0-3b8ff67ff81e.jpg"",""img/0904/a8c3c7d2-9bcf-4347-9e03-8203adfc1fc5.jpg""]","",""
"","3282","similarity","119","667919","0.0-6.0-113.0","4","[""img/0864/5f33e097-23e3-4002-882d-76e8cb15f451.jpg"",""img/0860/c5ccd1a4-4bb7-48e1-9b25-72cfaf06909b.jpg""]","",""
"","2640","similarity","120","671568","0.0-6.0-114.0","4","[""img/0860/702bd09d-df3a-40aa-a267-5f04474305b5.jpg"",""img/0899/0e1d936a-dbe2-4afc-9f19-7b7a1ae6c9ed.jpg""]","",""
"","3046","similarity","121","675624","0.0-6.0-115.0","4","[""img/0881/f6bd3b96-dc40-4e99-8681-bc3a35cf896d.jpg"",""img/0903/f10e9eb5-0c21-4a6a-944c-5f10a6d0fa4d.jpg""]","",""
"","4706","similarity","122","681336","0.0-6.0-116.0","3","[""img/0894/2d2db7b3-e8a3-499b-b63a-14f51bf73882.jpg"",""img/0874/7e4f2150-3b59-4a36-b5da-a4e0ba410531.jpg""]","",""
"","3853","similarity","123","686199","0.0-6.0-117.0","5","[""img/0881/84397291-bc14-4fbf-90e8-241e486ab0fe.jpg"",""img/0862/99a99e39-8355-44ec-b993-e7bcec111e1c.jpg""]","",""
"","2924","similarity","124","690135","0.0-6.0-118.0","6","[""img/0868/d98ca254-b195-477f-b57e-5760a2717db8.jpg"",""img/0875/42910c99-5463-450a-a0f8-d4d060a11455.jpg""]","",""
"","5098","similarity","125","696240","0.0-6.0-119.0","1","[""img/0860/61fb959d-d4d9-4de4-9e4e-4fa62b4cfcd5.jpg"",""img/0758/61d64021-9214-4951-bdf8-f871f9827cf9.jpg""]","",""
"","4388","similarity","126","701639","0.0-6.0-120.0","3","[""img/0864/c3b63e8f-ea39-4d70-a1f2-b3fe4be8eb75.jpg"",""img/0875/a4935837-7d3c-4df6-88c1-36a94d4991ca.jpg""]","",""
"","3956","similarity","127","706607","0.0-6.0-121.0","2","[""img/0898/a114b375-cb89-44ba-9498-74213f1ecdee.jpg"",""img/0866/6f2a90d7-14f1-4f1b-bd64-fc0af6b9fe44.jpg""]","",""
"","5452","similarity","128","713063","0.0-6.0-122.0","5","[""img/0874/99f6563c-8a8d-4c1c-a41d-667b618c3fd5.jpg"",""img/0904/60d1a521-edf7-4696-9263-f21ac0e62a01.jpg""]","",""
"","3850","similarity","129","717920","0.0-6.0-123.0","6","[""img/0904/63dd06dd-dccb-47ba-9740-eb33239e18a7.jpg"",""img/0864/6f631579-acf1-415c-a42c-1207f62a8d99.jpg""]","",""
"","4492","similarity","130","723423","0.0-6.0-124.0","6","[""img/0894/5a49e858-2850-4892-9a06-e9f0efb5f94d.jpg"",""img/0902/794606a0-d8a8-4e58-8bf8-9d114ed5a548.jpg""]","",""
"","3120","similarity","131","759094","0.0-6.0-125.0","1","[""img/0868/0d3abd3a-b6c3-4584-a9f7-e2da63748b3d.jpg"",""img/0864/a248adb3-c70b-4652-b7a3-776d2a1e904b.jpg""]","",""
"","5024","similarity","132","765128","0.0-6.0-126.0","3","[""img/0899/ddf96ade-692e-4602-bd22-dedbb46401bc.jpg"",""img/0866/a04d37f0-99dd-478a-b6c6-58b215138f84.jpg""]","",""
"","3370","similarity","133","769504","0.0-6.0-127.0","5","[""img/0875/5a1e5100-0d94-4fec-bbe9-ca9894d2cf8e.jpg"",""img/0904/56e73f28-7e64-489b-a161-e6b1a063878d.jpg""]","",""
"","4318","similarity","134","774831","0.0-6.0-128.0","2","[""img/0867/85a96c62-548f-4994-9553-819e03c3135a.jpg"",""img/0899/06b0fc99-0581-461a-9913-d1a5a941ac61.jpg""]","",""
"","3572","similarity","135","779415","0.0-6.0-129.0","6","[""img/0901/77087ed2-6e12-4329-b2a5-605bca6d972d.jpg"",""img/0867/7d1c497b-c1b3-4ed8-abb5-d7f73306015f.jpg""]","",""
"","3048","similarity","136","783472","0.0-6.0-130.0","7","[""img/0864/3651d070-2fc5-4848-b6a6-088a2d9ac5c9.jpg"",""img/0769/a3cfbdeb-acb3-4eac-87fb-4b117f42d4f8.jpg""]","",""
"","3236","similarity","137","787720","0.0-6.0-131.0","6","[""img/0903/5248eedd-7e6a-4d39-91b0-06ec227f3ed0.jpg"",""img/0868/e0aff734-077f-40dd-9781-74821abd3621.jpg""]","",""
"","3954","similarity","138","792687","0.0-6.0-132.0","3","[""img/0864/1ebbc554-99fa-49f9-8799-317375a79820.jpg"",""img/0867/075e0f95-856b-4cbb-acf5-092393aaf04e.jpg""]","",""
"","2945","similarity","139","796639","0.0-6.0-133.0","4","[""img/0901/a6c90438-fa7c-4418-ac7c-16c2e772dd98.jpg"",""img/0860/d9a0d117-6d1d-41c0-8fec-9aff0fd9e9f2.jpg""]","",""
"","3906","similarity","140","801551","0.0-6.0-134.0","3","[""img/0881/4da99fdd-1f40-4bbb-8e21-8833eef313f5.jpg"",""img/0766/d50d734f-285c-4840-bc7a-c8dd4aff391e.jpg""]","",""
"","3484","similarity","141","806039","0.0-6.0-135.0","5","[""img/0903/24477210-856c-4550-9de0-9f85a32762eb.jpg"",""img/0864/65210d57-1153-4657-886a-32e758f49b4a.jpg""]","",""
"","5370","similarity","142","812415","0.0-6.0-136.0","4","[""img/0758/2fa3e613-e676-4e6e-bd12-705327eeb3e1.jpg"",""img/0894/3adef67d-7676-4995-80b2-bb31b8aca3ef.jpg""]","",""
"","2879","similarity","143","816304","0.0-6.0-137.0","6","[""img/0769/9ea9ceb6-049e-4ad9-be8f-00645cd35803.jpg"",""img/0860/15b24a61-25be-4356-9eac-5ce95d0cb4a4.jpg""]","",""
"","3980","similarity","144","821295","0.0-6.0-138.0","6","[""img/0904/1d10df11-b5c8-4370-9a6b-097a7f965895.jpg"",""img/0766/5d6e0d1d-4369-41f0-a64c-91f3503055c7.jpg""]","",""
"","5158","similarity","145","827463","0.0-6.0-139.0","2","[""img/0868/d6d1f30d-4323-435a-b194-7892521bc57e.jpg"",""img/0860/17b44a7d-c5ca-479f-9e87-f65a64f5c80e.jpg""]","",""
"","3164","similarity","146","831639","0.0-6.0-140.0","5","[""img/0758/7ee8bc8f-c40b-4b3a-84ec-3e83580622d4.jpg"",""img/0864/66091c27-e588-4476-8af9-265dc6be4156.jpg""]","",""
"","3306","similarity","147","835951","0.0-6.0-141.0","7","[""img/0867/50a1b60e-3a29-44bf-b606-d4bd3746fea9.jpg"",""img/0867/6e19c858-b606-45b2-a4c6-910a73f1d82c.jpg""]","",""
"","3658","similarity","148","840616","0.0-6.0-142.0","7","[""img/0898/ec565187-2e31-4fdd-9a5c-153d0c789ae0.jpg"",""img/0898/c3cecf20-f7fd-45fa-97d0-dc0a63e8d6c0.jpg""]","",""
"","4348","similarity","149","845975","0.0-6.0-143.0","6","[""img/0866/4a87911a-d5be-4d4e-ab8e-3d1f581bf507.jpg"",""img/0769/1ca58b80-2365-446d-9616-6c1719e6c46f.jpg""]","",""
"","3020","similarity","150","850008","0.0-6.0-144.0","6","[""img/0860/5383b320-1518-4095-a58e-5cc1ae30b64c.jpg"",""img/0898/0af304a2-6a7a-4082-ab7c-4450cd08cc58.jpg""]","",""
"","3798","similarity","151","854815","0.0-6.0-145.0","1","[""img/0766/33aa9ebb-c9f5-418f-8c8b-c77861889568.jpg"",""img/0864/e02eddb5-f468-499c-91bf-f7be3ffe979b.jpg""]","",""
"","3900","similarity","152","859728","0.0-6.0-146.0","3","[""img/0860/e14d67c1-6d92-4f1e-9257-c8607159c19c.jpg"",""img/0903/36e4ab1f-caa9-40b3-8616-faada076df94.jpg""]","",""
"","2851","similarity","153","863591","0.0-6.0-147.0","1","[""img/0867/179ab87a-8eac-4c52-a41f-2e48e3120f09.jpg"",""img/0764/1def7b22-b054-4ec2-860b-73d25691823b.jpg""]","",""
"","2200","similarity","154","866799","0.0-6.0-148.0","4","[""img/0769/387a9744-d6a7-42b8-bab8-33007ec434aa.jpg"",""img/0904/5aec2708-cf14-4a58-aa30-9a8a61c1be0e.jpg""]","",""
"","2518","similarity","155","870327","0.0-6.0-149.0","4","[""img/0764/c80b3e06-2ee3-4326-9678-340607eb5348.jpg"",""img/0901/a2d7b2f6-396b-4d91-8403-de5361c74af7.jpg""]","",""
"","4028","similarity","156","875367","0.0-6.0-150.0","6","[""img/0904/73920552-103b-4c9c-9ece-e0b8376b4504.jpg"",""img/0899/fef567a2-c121-4481-9af0-ff108d199bbf.jpg""]","",""
"","5356","similarity","157","881727","0.0-6.0-151.0","3","[""img/0862/1c20f772-3a51-4a80-aac0-f57dc9f86c28.jpg"",""img/0867/c66898ba-b71b-4d50-84f9-f7f84853a98d.jpg""]","",""
"","2852","similarity","158","885583","0.0-6.0-152.0","7","[""img/0766/d5d38751-8fa5-476f-93e9-86ed2d9045ef.jpg"",""img/0766/f011ef45-fb48-44b8-8224-867ed2ccf786.jpg""]","",""
"","3409","similarity","159","890000","0.0-6.0-153.0","6","[""img/0862/e697469a-ec19-4414-b972-7b9f3564785b.jpg"",""img/0894/5ff3c4f6-52e2-4075-8679-be0312e59703.jpg""]","",""
"","3756","similarity","160","894768","0.0-6.0-154.0","1","[""img/0899/7b7380d5-d2be-44e5-a09a-c1756f87ef71.jpg"",""img/0901/5b97abf9-f0c8-4fd1-b921-36d574779078.jpg""]","",""
"","3988","similarity","161","899760","0.0-6.0-155.0","6","[""img/0874/ca23d307-fc00-4d7d-9106-584c6eb21b4d.jpg"",""img/0874/1016b306-087c-4afc-aa08-fa527b28dc76.jpg""]","",""
"","2788","similarity","162","903559","0.0-6.0-156.0","1","[""img/0860/8277806e-b684-4474-8f7b-3fca946d7d4f.jpg"",""img/0867/f8159067-056c-41f1-a136-c529fe5e970a.jpg""]","",""
"","5540","similarity","163","910104","0.0-6.0-157.0","2","[""img/0901/a9b9c0a0-8aed-4888-a78a-65fb7e764d13.jpg"",""img/0881/14236cf2-6b95-48b8-9368-78af09d2d27f.jpg""]","",""
"","3798","similarity","164","914911","0.0-6.0-158.0","6","[""img/0903/31b5a5f4-b695-4af1-bad2-a19650a05498.jpg"",""img/0902/a323b62d-2fd5-4ac8-acc6-35b768f3c3f2.jpg""]","",""
"","3956","similarity","165","919872","0.0-6.0-159.0","4","[""img/0860/e8b8c51e-1834-4875-8b61-6c5bc9b178bd.jpg"",""img/0764/6c7fe363-2d37-418f-9e5e-a3273af5d4fb.jpg""]","",""
"","5140","similarity","166","926015","0.0-6.0-160.0","3","[""img/0902/4e0baa32-988e-46f6-989d-f669225ab645.jpg"",""img/0875/f87b67d7-c33e-40d1-b281-248c4be1cb6e.jpg""]","",""
"","3252","similarity","167","930279","0.0-6.0-161.0","6","[""img/0898/81b08535-2020-4c15-9ce4-2f1e460755ae.jpg"",""img/0862/847e5208-38ec-4f36-949c-296cdd7424ee.jpg""]","",""
"","4336","similarity","168","935623","0.0-6.0-162.0","5","[""img/0894/a3d4170b-b7d8-40e3-955f-87e76ed745fc.jpg"",""img/0875/dbdd643e-6d0e-4a5c-ab57-b9c29b9c981a.jpg""]","",""
"","6930","similarity","169","943559","0.0-6.0-163.0","2","[""img/0866/11a1d141-be5e-443c-98c1-a9d4d9e3dec0.jpg"",""img/0864/da39ad34-04e0-40d4-a724-c08d53e0ea09.jpg""]","",""
"","3782","similarity","170","948351","0.0-6.0-164.0","4","[""img/0766/ba35c0fc-4d5b-490d-959e-c94b279cdd02.jpg"",""img/0862/e0f1a4e9-e1b6-45f7-af67-89f334e6630d.jpg""]","",""
"","3832","similarity","171","953192","0.0-6.0-165.0","2","[""img/0866/bf14b5bd-fb55-47db-86b9-4f8aeb9a6dad.jpg"",""img/0874/ca76a855-4e77-4f2f-872a-0a718153e7ed.jpg""]","",""
"","4448","similarity","172","958647","0.0-6.0-166.0","6","[""img/0862/92f0146c-20c4-482e-aef5-adb693790338.jpg"",""img/0860/c7047cd2-7cc1-41b6-8a34-c0986774975f.jpg""]","",""
"","4900","similarity","173","989679","0.0-6.0-167.0","2","[""img/0766/f3276cc4-65de-4c2d-88d5-6cfebce14b8f.jpg"",""img/0901/548d1110-7cb8-42a2-9927-9798875c8b5c.jpg""]","",""
"","2626","similarity","174","993311","0.0-6.0-168.0","7","[""img/0862/fad1d7c1-8187-43c3-942a-0fc12183e48e.jpg"",""img/0862/cdaed51d-9e2f-4807-801a-4663c40077e2.jpg""]","",""
"","2996","similarity","175","997311","0.0-6.0-169.0","6","[""img/0894/3664e04c-c6d3-4c9b-afb6-25d89974b174.jpg"",""img/0764/3297a811-ea8b-4d74-9547-59cecab7293a.jpg""]","",""
"","4636","similarity","176","1002951","0.0-6.0-170.0","6","[""img/0874/3f471690-9788-4d03-90c7-f615aecef149.jpg"",""img/0898/5f699581-3853-4547-856c-12f419ba5af7.jpg""]","",""
"","3908","similarity","177","1007863","0.0-6.0-171.0","7","[""img/0860/fd4662f9-4c03-4d79-8593-06735e55a64b.jpg"",""img/0766/2da002a4-05c9-4f5c-9ed7-433b4183e273.jpg""]","",""
"","5116","similarity","178","1013992","0.0-6.0-172.0","4","[""img/0898/79233891-305a-4a6a-8ddf-5c8604858203.jpg"",""img/0864/b3c4e378-28f0-4699-9338-2a257b4bca04.jpg""]","",""
"","3866","similarity","179","1018864","0.0-6.0-173.0","4","[""img/0881/5fe04dd0-5c74-47b7-99c8-b068db9ca26a.jpg"",""img/0764/b8e23f4f-ff19-4472-ad9b-2f85548ebca0.jpg""]","",""
"","3667","similarity","180","1023535","0.0-6.0-174.0","4","[""img/0898/26c41340-15bd-4ead-8fe4-c0d0ddca09c2.jpg"",""img/0868/8b0b8473-e2c0-4331-aa56-c3a5c29369da.jpg""]","",""
"","4204","similarity","181","1028743","0.0-6.0-175.0","7","[""img/0864/5f74a653-3bdc-4308-8cca-ac667dc22e1f.jpg"",""img/0864/49150900-7f25-4ce8-8d10-9b47a71d1997.jpg""]","",""
"","3344","similarity","182","1033095","0.0-6.0-176.0","6","[""img/0899/66bf4113-ee12-426c-84d2-ea410b6c803e.jpg"",""img/0862/ba89835a-408c-480b-8594-ed4ffa97eb5c.jpg""]","",""
"","4330","similarity","183","1038431","0.0-6.0-177.0","3","[""img/0875/cff79b3a-a797-4393-9757-6275f999ec04.jpg"",""img/0758/a709631e-3705-4725-ac40-f0d916924f08.jpg""]","",""
"","3798","similarity","184","1043239","0.0-6.0-178.0","1","[""img/0866/8efcaa46-83ab-4dee-a35f-850402aa21ae.jpg"",""img/0901/d61f267a-c492-4db6-9bfb-61efd49cf072.jpg""]","",""
"","3900","similarity","185","1048151","0.0-6.0-179.0","5","[""img/0769/3c1efec9-f8fd-487d-8955-4be88e48c832.jpg"",""img/0874/93d1f8dc-acf2-4f03-bd8d-8ec35df276ed.jpg""]","",""
"","4806","similarity","186","1053968","0.0-6.0-180.0","2","[""img/0875/5a716432-c6ca-4b1c-955a-2b8ac25198ee.jpg"",""img/0881/dea58fad-b4f1-41d9-bd3f-916eff19a3fd.jpg""]","",""
"","3618","similarity","187","1058591","0.0-6.0-181.0","7","[""img/0866/0207e9a2-7dbb-40b5-9459-b472aaeceb2a.jpg"",""img/0868/293079b8-7e0c-4afd-a390-1e5d35fe3ded.jpg""]","",""
"","3316","similarity","188","1062911","0.0-6.0-182.0","6","[""img/0899/1b3457ea-87d4-4946-a01c-aac1863ed46c.jpg"",""img/0758/335851a0-a55b-46d8-ab05-8463eda48349.jpg""]","",""
"","4988","similarity","189","1068903","0.0-6.0-183.0","3","[""img/0874/85eb9b8a-c4c6-4e5a-b8e7-363a87a82054.jpg"",""img/0875/90da8d75-108a-44ad-b999-e21fee3860d3.jpg""]","",""
"","3611","similarity","190","1073528","0.0-6.0-184.0","5","[""img/0904/b7c2a2c8-df33-4473-b3d4-ff7147c60db3.jpg"",""img/0862/92fcd8a4-8193-4a6a-ae09-dd4a6338b0df.jpg""]","",""
"","3694","similarity","191","1078232","0.0-6.0-185.0","3","[""img/0902/51493fab-2a10-4385-aa88-bee3db441626.jpg"",""img/0766/09f646c8-a69e-4ed3-879c-8d29b04ad7f9.jpg""]","",""
"","3818","similarity","192","1083055","0.0-6.0-186.0","4","[""img/0758/b76ceca7-95ac-46e4-ac13-da02c8e93be9.jpg"",""img/0769/0fe124d3-bcad-45f6-b64d-8f6eb8ee5251.jpg""]","",""
"","3172","similarity","193","1087231","0.0-6.0-187.0","7","[""img/0881/f4e3e181-b3c9-4af2-a5a4-fc135ab70d2e.jpg"",""img/0881/db77fe00-aeb0-4d1d-aa66-f3a96fd077e4.jpg""]","",""
"","6432","similarity","194","1094671","0.0-6.0-188.0","3","[""img/0758/d57c2592-a317-4f63-91be-91a3a9afd222.jpg"",""img/0866/07c9c966-3c8d-40e7-8128-92b2acbaed5d.jpg""]","",""
"","3952","similarity","195","1099631","0.0-6.0-189.0","4","[""img/0764/23ea9375-f801-4a96-9925-7d453da887c7.jpg"",""img/0898/f3a3f225-1248-4ac7-b93b-f0ff28485bf3.jpg""]","",""
"","3912","similarity","196","1104551","0.0-6.0-190.0","4","[""img/0903/776b74ee-a8ab-4ab8-a78d-097c0747538d.jpg"",""img/0901/5657dd86-0ff9-4753-ba2b-9dfb223e5c89.jpg""]","",""
"","3830","similarity","197","1109391","0.0-6.0-191.0","6","[""img/0902/1a120fb9-dbd6-443e-ba91-b4aceab963da.jpg"",""img/0898/01bfe666-3510-4fc7-964f-d00d28732dc8.jpg""]","",""
"","4766","similarity","198","1115167","0.0-6.0-192.0","5","[""img/0864/f92649a2-0590-4d31-9a7a-1bfb81666a2d.jpg"",""img/0901/04a53755-6da5-44d4-a7a6-48a6bc0a2280.jpg""]","",""
"","4660","similarity","199","1120831","0.0-6.0-193.0","4","[""img/0894/38f5931f-926d-414e-b498-66b188978b7a.jpg"",""img/0881/633c6f40-56d9-4b48-bf1c-ecd83116eabb.jpg""]","",""
"","2891","similarity","200","1124736","0.0-6.0-194.0","7","[""img/0868/3a62db2d-97e9-44a3-b8e3-a48c6f0e423b.jpg"",""img/0868/83b4350a-3b70-4cea-b7f5-b5b56f3050a8.jpg""]","",""
"","3472","similarity","201","1129216","0.0-6.0-195.0","6","[""img/0899/fd9efb43-701f-4cd6-baaa-4c38315f4bdc.jpg"",""img/0764/c643e165-df19-459f-8c2b-8357bf432a17.jpg""]","",""
"","2652","similarity","202","1132876","0.0-6.0-196.0","4","[""img/0881/7e822106-76f7-4b10-a805-14dc68b2cfaf.jpg"",""img/0904/da170c1b-9651-4f08-b231-2bdd1d9a046f.jpg""]","",""
"","3038","similarity","203","1136923","0.0-6.0-197.0","4","[""img/0864/e8bd659f-aa43-4748-877e-3118e8b4e189.jpg"",""img/0902/0c760cc9-10ac-429e-8957-a7d51fc99683.jpg""]","",""
"","4091","similarity","204","1142027","0.0-6.0-198.0","5","[""img/0894/1a010553-d598-4b06-a772-81f1e7b3addb.jpg"",""img/0904/2f88ce53-02d0-4f95-a082-182c56a0eeb4.jpg""]","",""
"","3284","similarity","205","1146319","0.0-6.0-199.0","7","[""img/0901/0f670aef-ac36-496d-8142-ee5fdb21dd82.jpg"",""img/0901/4ca4f962-40c0-4c59-b14a-3cd7b8c9029b.jpg""]","",""
"","2995","similarity","206","1150320","0.0-6.0-200.0","4","[""img/0894/bd34223a-2f66-4e16-9d18-193a746b69ff.jpg"",""img/0860/5bff793e-cbd5-4d7e-b628-0ac2b0e30b64.jpg""]","",""
"","4034","similarity","207","1155360","0.0-6.0-201.0","5","[""img/0898/4184e5a2-84ea-4f36-9b42-ae58646f6f87.jpg"",""img/0903/39365c8e-a733-4801-ac7d-b87e38c3784b.jpg""]","",""
"","2754","similarity","208","1159120","0.0-6.0-202.0","4","[""img/0864/c22faebd-9c53-47bc-ada3-b9a30c688e75.jpg"",""img/0894/05161000-f476-499b-a878-c13c7f347fd9.jpg""]","",""
"","3024","similarity","209","1163151","0.0-6.0-203.0","4","[""img/0874/29830da7-be5f-44e5-b141-652a0ccf7269.jpg"",""img/0860/99c589b9-9140-4d17-90c0-b344323edcda.jpg""]","",""
"","4272","similarity","210","1168431","0.0-6.0-204.0","3","[""img/0862/de9ad88c-b522-430a-8ee9-eb06a9f85df5.jpg"",""img/0875/99698b4d-b4a1-44bc-8c83-8ea755bbbf61.jpg""]","",""
"","3352","similarity","211","1172792","0.0-6.0-205.0","1","[""img/0867/a749dddb-69f0-44a6-acdc-2bf295cf6dcc.jpg"",""img/0881/344de456-b358-4887-bd0e-e4c3278af887.jpg""]","",""
"","4184","similarity","212","1177983","0.0-6.0-206.0","4","[""img/0901/b453df0b-4c39-49bb-8ced-6127efffa898.jpg"",""img/0902/62f11694-7ed7-4cb7-8a73-9e95c43824e7.jpg""]","",""
"","3274","similarity","213","1182264","0.0-6.0-207.0","6","[""img/0899/66ab3178-c3fe-4455-ad17-d5952b08e018.jpg"",""img/0864/300bb811-8b3c-4c42-8653-6097c3725197.jpg""]","",""
"","5178","similarity","214","1188447","0.0-6.0-208.0","4","[""img/0901/ae1e6ce4-2e10-4ca9-b1e7-21628637ab74.jpg"",""img/0769/f2740c58-7c02-433f-920b-746b0b75435b.jpg""]","",""
"","3292","similarity","215","1197943","0.0-6.0-209.0","6","[""img/0902/40d0b6ec-3907-4573-b227-e7d8e9cad1c3.jpg"",""img/0902/d5e25767-e8ec-45f3-ac0a-7b4a6f7a9edc.jpg""]","",""
"[{""page_index"":0,""viewing_time"":21828}]","21829","instructions","216","1220776","0.0-7.0","","","",""
"","24215","image-multi-choice","217","1246017","0.0-8.0-0.0","","","{""Q0"":""Orange-crowned Warbler""}","Nashville Warbler"
"","5350","image-multi-choice","218","1252389","0.0-8.0-1.0","","","{""Q0"":""Black-and-white Warbler""}","Black-and-white Warbler"
"","6326","image-multi-choice","219","1259754","0.0-8.0-2.0","","","{""Q0"":""Blackburnian Warbler""}","Townsend's Warbler"
"","6648","image-multi-choice","220","1267435","0.0-8.0-3.0","","","{""Q0"":""Lark Sparrow""}","Lark Sparrow"
"","3522","image-multi-choice","221","1271995","0.0-8.0-4.0","","","{""Q0"":""Yellow Warbler""}","Yellow Warbler"
"","7295","image-multi-choice","222","1280316","0.0-8.0-5.0","","","{""Q0"":""Tennessee Warbler""}","Orange-crowned Warbler"
"","4041","image-multi-choice","223","1285378","0.0-8.0-6.0","","","{""Q0"":""White-throated Sparrow""}","White-throated Sparrow"
"","3767","image-multi-choice","224","1290178","0.0-8.0-7.0","","","{""Q0"":""Fox Sparrow""}","Fox Sparrow"
"","18833","image-multi-choice","225","1310043","0.0-8.0-8.0","","","{""Q0"":""Lincoln's Sparrow""}","Song Sparrow"
"","42144","image-multi-choice","226","1353216","0.0-8.0-9.0","","","{""Q0"":""Blackburnian Warbler""}","Blackburnian Warbler"
"","12371","image-multi-choice","227","1366623","0.0-8.0-10.0","","","{""Q0"":""Vesper Sparrow""}","Vesper Sparrow"
"","3225","image-multi-choice","228","1370872","0.0-8.0-11.0","","","{""Q0"":""White-crowned Sparrow""}","White-crowned Sparrow"
"","6148","image-multi-choice","229","1378059","0.0-8.0-12.0","","","{""Q0"":""American Tree Sparrow""}","American Tree Sparrow"
"","22240","image-multi-choice","230","1401335","0.0-8.0-13.0","","","{""Q0"":""Nashville Warbler""}","Tennessee Warbler"
"","4435","image-multi-choice","231","1406798","0.0-8.0-14.0","","","{""Q0"":""Magnolia Warbler""}","Magnolia Warbler"
"","6006","image-multi-choice","232","1413838","0.0-8.0-15.0","","","{""Q0"":""Northern Waterthrush""}","Northern Waterthrush"
"","6474","image-multi-choice","233","1421350","0.0-8.0-16.0","","","{""Q0"":""Chipping Sparrow""}","Chipping Sparrow"
"","6463","image-multi-choice","234","1428848","0.0-8.0-17.0","","","{""Q0"":""Lincoln's Sparrow""}","Swamp Sparrow"
"","4779","image-multi-choice","235","1434662","0.0-8.0-18.0","","","{""Q0"":""Lincoln's Sparrow""}","Lincoln's Sparrow"
"","3578","image-multi-choice","236","1439270","0.0-8.0-19.0","","","{""Q0"":""Ovenbird""}","Ovenbird"
