"view_history","rt","trial_type","trial_index","time_elapsed","internal_node_id","sim_score","stimulus","responses","answer"
"[{""page_index"":0,""viewing_time"":11606}]","11606","instructions","0","11607","0.0-0.0","","","",""
"","5739","similarity_demo","1","18359","0.0-1.0","5","[""img/866.jpg"",""img/868.jpg""]","",""
"[{""page_index"":0,""viewing_time"":6188}]","6189","instructions","2","25549","0.0-2.0","","","",""
"","5637","similarity_demo","3","32196","0.0-3.0","2","[""img/766.jpg"",""img/867.jpg""]","",""
"[{""page_index"":0,""viewing_time"":4278}]","4278","instructions","4","37476","0.0-4.0","","","",""
"[{""page_index"":0,""viewing_time"":14815}]","14815","instructions","5","53293","0.0-5.0","","","",""
"","6448","similarity","6","60747","0.0-6.0-0.0","3","[""img/0868/8b0b8473-e2c0-4331-aa56-c3a5c29369da.jpg"",""img/0901/12da1841-e611-435c-9719-109413d536a8.jpg""]","",""
"","4569","similarity","7","66320","0.0-6.0-1.0","5","[""img/0769/ebef2ddc-ba59-4e0e-97f8-927864eb5081.jpg"",""img/0867/ac1797e4-8afc-48fe-b252-86d1defb1cca.jpg""]","",""
"","4774","similarity","8","72099","0.0-6.0-2.0","4","[""img/0766/0025de5e-f620-4079-8a0f-00326ff3a6b0.jpg"",""img/0898/a114b375-cb89-44ba-9498-74213f1ecdee.jpg""]","",""
"","5128","similarity","9","78231","0.0-6.0-3.0","3","[""img/0902/b03fee99-d5ca-4bf8-871c-a4a743a39842.jpg"",""img/0881/4da99fdd-1f40-4bbb-8e21-8833eef313f5.jpg""]","",""
"","4638","similarity","10","83874","0.0-6.0-4.0","5","[""img/0894/3adef67d-7676-4995-80b2-bb31b8aca3ef.jpg"",""img/0894/5a49e858-2850-4892-9a06-e9f0efb5f94d.jpg""]","",""
"","4146","similarity","11","89025","0.0-6.0-5.0","6","[""img/0874/99f6563c-8a8d-4c1c-a41d-667b618c3fd5.jpg"",""img/0899/06b0fc99-0581-461a-9913-d1a5a941ac61.jpg""]","",""
"","5527","similarity","12","95556","0.0-6.0-6.0","5","[""img/0904/63dd06dd-dccb-47ba-9740-eb33239e18a7.jpg"",""img/0764/f9f890e6-3c2f-40cd-84e9-85e0b54cb28e.jpg""]","",""
"","4102","similarity","13","100664","0.0-6.0-7.0","3","[""img/0899/93494f3b-d539-4075-b027-d82e344563da.jpg"",""img/0898/40f99fb2-64d2-4e72-8a7f-a1cf60741e69.jpg""]","",""
"","3510","similarity","14","105179","0.0-6.0-8.0","2","[""img/0874/85eb9b8a-c4c6-4e5a-b8e7-363a87a82054.jpg"",""img/0903/0a92ec52-4e87-410a-857a-4455cde56a70.jpg""]","",""
"","4700","similarity","15","110886","0.0-6.0-9.0","6","[""img/0881/d373cb9f-a719-4549-a2a4-82def79fb2a5.jpg"",""img/0758/67c0be2f-9e91-48b3-8219-70ac0a1802fa.jpg""]","",""
"","5947","similarity","16","117837","0.0-6.0-10.0","6","[""img/0898/79233891-305a-4a6a-8ddf-5c8604858203.jpg"",""img/0901/693e0535-ef7e-4d60-af9d-fac2f38e8307.jpg""]","",""
"","6325","similarity","17","125166","0.0-6.0-11.0","5","[""img/0903/b4a0f61e-a964-4b79-a9a7-f767a8f92f34.jpg"",""img/0769/04347740-f8f6-48bb-887a-f68babd0a0d4.jpg""]","",""
"","4701","similarity","18","130871","0.0-6.0-12.0","2","[""img/0764/bc3865c9-9004-4582-88a7-048478673f97.jpg"",""img/0868/179a5502-ab5c-478e-8263-5a1fbcc101d2.jpg""]","",""
"","4061","similarity","19","135935","0.0-6.0-13.0","3","[""img/0867/6e19c858-b606-45b2-a4c6-910a73f1d82c.jpg"",""img/0903/680ed18e-b311-4ecf-9b00-7dea32128334.jpg""]","",""
"","4191","similarity","20","141133","0.0-6.0-14.0","3","[""img/0766/717fd72f-a281-499b-a5ba-5e2ecc4d4866.jpg"",""img/0758/7fba58df-2a7a-4b76-8a8f-62739f97f271.jpg""]","",""
"","5350","similarity","21","147487","0.0-6.0-15.0","4","[""img/0902/af45fe42-178c-4c1a-99ef-256e87e3b092.jpg"",""img/0860/c7047cd2-7cc1-41b6-8a34-c0986774975f.jpg""]","",""
"","6225","similarity","22","154718","0.0-6.0-16.0","2","[""img/0769/f73c5138-2f4c-4354-981c-129dff9cc734.jpg"",""img/0875/fb732ab5-013a-4366-9f65-27811ed157e9.jpg""]","",""
"","3890","similarity","23","159620","0.0-6.0-17.0","2","[""img/0904/96e503ea-6630-4996-85f2-0237688ce441.jpg"",""img/0866/93a27239-8317-4e08-98ca-d8b1ff298e07.jpg""]","",""
"","4087","similarity","24","164712","0.0-6.0-18.0","7","[""img/0875/42910c99-5463-450a-a0f8-d4d060a11455.jpg"",""img/0875/5a716432-c6ca-4b1c-955a-2b8ac25198ee.jpg""]","",""
"","3271","similarity","25","168987","0.0-6.0-19.0","7","[""img/0758/f61ecdf8-a7d4-4db0-b84d-be46f7cfaffc.jpg"",""img/0758/61d64021-9214-4951-bdf8-f871f9827cf9.jpg""]","",""
"","3879","similarity","26","173873","0.0-6.0-20.0","4","[""img/0902/31abfa33-7cdb-44ad-968e-9f7b324d577a.jpg"",""img/0874/bf14b896-e930-4fd9-9c05-2e83317a2773.jpg""]","",""
"","2819","similarity","27","177698","0.0-6.0-21.0","3","[""img/0764/fb92924f-5cfe-4b89-b130-0cce8cc5636b.jpg"",""img/0769/5bd04f55-d091-4f57-85db-38426f26bd1a.jpg""]","",""
"","3837","similarity","28","182541","0.0-6.0-22.0","2","[""img/0901/4ca4f962-40c0-4c59-b14a-3cd7b8c9029b.jpg"",""img/0874/2c9464dd-8a23-4baa-ac94-1ba3af5c15cc.jpg""]","",""
"","3350","similarity","29","186897","0.0-6.0-23.0","3","[""img/0875/d59ff733-eaff-4ee2-9443-06954dd0bcb6.jpg"",""img/0903/c3cb4a01-2797-43ca-b216-88c67b323fbb.jpg""]","",""
"","4435","similarity","30","192337","0.0-6.0-24.0","3","[""img/0769/b664b502-a86c-46c1-ad6f-5ebffc2e1bd3.jpg"",""img/0881/f6bd3b96-dc40-4e99-8681-bc3a35cf896d.jpg""]","",""
"","2825","similarity","31","196166","0.0-6.0-25.0","3","[""img/0867/179ab87a-8eac-4c52-a41f-2e48e3120f09.jpg"",""img/0904/2c98dc56-88d1-4fb5-a999-b6a7861f65f0.jpg""]","",""
"","3820","similarity","32","200992","0.0-6.0-26.0","3","[""img/0860/c47fdead-eb02-4989-b078-26f4852f44fe.jpg"",""img/0881/d1982897-8d8d-4704-a940-1ee5d07a1f15.jpg""]","",""
"","4313","similarity","33","206311","0.0-6.0-27.0","3","[""img/0866/386235d2-6857-41e7-88a8-25cfc3430025.jpg"",""img/0866/c446214b-a368-4c65-ae39-ea46894256ab.jpg""]","",""
"","3940","similarity","34","211257","0.0-6.0-28.0","3","[""img/0764/a3226bc4-dcc3-4608-bde8-1414d685ce5c.jpg"",""img/0862/4f0a3b4c-afbf-486e-b248-1d54982f54b4.jpg""]","",""
"","4603","similarity","35","216867","0.0-6.0-29.0","1","[""img/0904/5aec2708-cf14-4a58-aa30-9a8a61c1be0e.jpg"",""img/0758/d540bee6-b460-4c32-ac57-bc282742d7d4.jpg""]","",""
"","2816","similarity","36","220690","0.0-6.0-30.0","3","[""img/0894/492d2f29-d7b9-4422-8be8-47fd58bfaa8b.jpg"",""img/0899/a05bea16-2bb4-4cb9-b8fb-4ff975db6971.jpg""]","",""
"","4386","similarity","37","226083","0.0-6.0-31.0","3","[""img/0860/94ef7afc-e0e6-4a15-98c6-0bfac82bc832.jpg"",""img/0904/5cceabc9-de1d-4c67-989b-c28a4ef77e79.jpg""]","",""
"","5261","similarity","38","232349","0.0-6.0-32.0","5","[""img/0874/31e22c7c-99aa-40b1-bf03-dd73fa2df4d6.jpg"",""img/0881/e6746727-7f89-47ec-b939-d98abe78372d.jpg""]","",""
"","4359","similarity","39","237712","0.0-6.0-33.0","3","[""img/0881/dea58fad-b4f1-41d9-bd3f-916eff19a3fd.jpg"",""img/0899/d60714ae-98d7-4564-8c98-94dba1351135.jpg""]","",""
"","3181","similarity","40","241897","0.0-6.0-34.0","3","[""img/0866/bf14b5bd-fb55-47db-86b9-4f8aeb9a6dad.jpg"",""img/0862/92fcd8a4-8193-4a6a-ae09-dd4a6338b0df.jpg""]","",""
"","3459","similarity","41","246358","0.0-6.0-35.0","4","[""img/0868/7b212364-ff5f-4e28-9241-7eb6ea00161b.jpg"",""img/0894/bd34223a-2f66-4e16-9d18-193a746b69ff.jpg""]","",""
"","4000","similarity","42","251362","0.0-6.0-36.0","6","[""img/0860/c5ccd1a4-4bb7-48e1-9b25-72cfaf06909b.jpg"",""img/0860/fd4662f9-4c03-4d79-8593-06735e55a64b.jpg""]","",""
"","3759","similarity","43","256125","0.0-6.0-37.0","3","[""img/0862/de9ad88c-b522-430a-8ee9-eb06a9f85df5.jpg"",""img/0864/e02eddb5-f468-499c-91bf-f7be3ffe979b.jpg""]","",""
"","3319","similarity","44","260449","0.0-6.0-38.0","1","[""img/0766/fd74fdbb-ea40-4f3a-a091-38d08dfd636e.jpg"",""img/0866/a15b02be-11bb-43e3-b0e0-ecc3bd7dfc49.jpg""]","",""
"","4352","similarity","45","265807","0.0-6.0-39.0","2","[""img/0875/cff79b3a-a797-4393-9757-6275f999ec04.jpg"",""img/0898/a8f16b02-e19f-423b-86c3-a36562ae1f9b.jpg""]","",""
"","2641","similarity","46","269452","0.0-6.0-40.0","3","[""img/0766/a754e4b6-5019-4cf4-8f58-34c20547a1f5.jpg"",""img/0769/d1be2815-fa79-46e8-b5c3-7d81caaca490.jpg""]","",""
"","3386","similarity","47","281805","0.0-6.0-41.0","3","[""img/0874/93d1f8dc-acf2-4f03-bd8d-8ec35df276ed.jpg"",""img/0764/f990b2e8-ecee-481e-be7c-0239fce350e2.jpg""]","",""
"","3625","similarity","48","286433","0.0-6.0-42.0","2","[""img/0868/5fa7f9d0-f0e5-454c-8224-74d964818f56.jpg"",""img/0902/b76efc44-a50f-4dac-b997-ff0222376067.jpg""]","",""
"","3914","similarity","49","291352","0.0-6.0-43.0","3","[""img/0875/dbdd643e-6d0e-4a5c-ab57-b9c29b9c981a.jpg"",""img/0899/d8f2dd94-570e-4e8c-a087-d96090fb9e8c.jpg""]","",""
"","3629","similarity","50","295986","0.0-6.0-44.0","5","[""img/0866/4a87911a-d5be-4d4e-ab8e-3d1f581bf507.jpg"",""img/0860/31ff6436-98bf-4652-bed2-40f627229568.jpg""]","",""
"","3399","similarity","51","300390","0.0-6.0-45.0","3","[""img/0766/5d6e0d1d-4369-41f0-a64c-91f3503055c7.jpg"",""img/0903/31b5a5f4-b695-4af1-bad2-a19650a05498.jpg""]","",""
"","2910","similarity","52","304304","0.0-6.0-46.0","3","[""img/0901/a2d7b2f6-396b-4d91-8403-de5361c74af7.jpg"",""img/0904/9dd5708f-3f8b-46a9-b49f-2f2fab87b357.jpg""]","",""
"","3768","similarity","53","309076","0.0-6.0-47.0","3","[""img/0758/53f35650-e455-4b53-8be4-c3c8271c6466.jpg"",""img/0902/94ee9c53-a9a2-4f95-b9b7-794a5fc62bb6.jpg""]","",""
"","3278","similarity","54","313358","0.0-6.0-48.0","5","[""img/0764/c01e2d65-6586-441b-bef5-3c96fcd85380.jpg"",""img/0764/4952d0a0-c9be-471a-8ec7-94a37bf4051d.jpg""]","",""
"","3334","similarity","55","317699","0.0-6.0-49.0","3","[""img/0866/07c9c966-3c8d-40e7-8128-92b2acbaed5d.jpg"",""img/0902/7f1dcd35-237a-4995-9e42-7f63f3f434d4.jpg""]","",""
"","5226","similarity","56","323931","0.0-6.0-50.0","2","[""img/0764/b8e23f4f-ff19-4472-ad9b-2f85548ebca0.jpg"",""img/0758/9fb5b2fe-3f00-4fe6-973c-1ce10d5f4cd5.jpg""]","",""
"","2898","similarity","57","327833","0.0-6.0-51.0","4","[""img/0898/f3a3f225-1248-4ac7-b93b-f0ff28485bf3.jpg"",""img/0894/5ff3c4f6-52e2-4075-8679-be0312e59703.jpg""]","",""
"","3190","similarity","58","332027","0.0-6.0-52.0","4","[""img/0875/f87b67d7-c33e-40d1-b281-248c4be1cb6e.jpg"",""img/0866/945c6710-d15b-4a5b-a8f6-69af0850357f.jpg""]","",""
"","4592","similarity","59","337624","0.0-6.0-53.0","7","[""img/0904/4e58005d-a2ec-4aaa-b199-445343561396.jpg"",""img/0904/a8c3c7d2-9bcf-4347-9e03-8203adfc1fc5.jpg""]","",""
"","3700","similarity","60","342327","0.0-6.0-54.0","6","[""img/0769/bb8c4e53-6f32-4814-97ee-392d4decfb2e.jpg"",""img/0769/96556ef3-7fac-4c9d-8281-1cb0ea5081bc.jpg""]","",""
"","3738","similarity","61","347070","0.0-6.0-55.0","2","[""img/0898/881e2a85-d5c2-49be-a0c6-8a6ce2c4af08.jpg"",""img/0758/a085b443-b5d7-4cb2-9ad4-b9dab0fc23f1.jpg""]","",""
"","3772","similarity","62","351846","0.0-6.0-56.0","5","[""img/0769/7c50e5f5-cc38-4d48-b009-fbe17bcea61c.jpg"",""img/0902/c920f0e1-1c81-480f-a164-c77f2dc6ce9a.jpg""]","",""
"","2761","similarity","63","355612","0.0-6.0-57.0","3","[""img/0864/6f631579-acf1-415c-a42c-1207f62a8d99.jpg"",""img/0881/84397291-bc14-4fbf-90e8-241e486ab0fe.jpg""]","",""
"","3609","similarity","64","360225","0.0-6.0-58.0","1","[""img/0758/d57c2592-a317-4f63-91be-91a3a9afd222.jpg"",""img/0868/83b4350a-3b70-4cea-b7f5-b5b56f3050a8.jpg""]","",""
"","3215","similarity","65","364446","0.0-6.0-59.0","5","[""img/0862/e0f1a4e9-e1b6-45f7-af67-89f334e6630d.jpg"",""img/0769/76eaa4a3-dfe9-4dc1-9efb-caebe86264e1.jpg""]","",""
"","3142","similarity","66","368592","0.0-6.0-60.0","2","[""img/0764/978aede9-4590-4ad0-b234-135c83e5d669.jpg"",""img/0903/e2e55a9e-0397-4dc0-8adf-4a54cfefe1fe.jpg""]","",""
"","3644","similarity","67","373239","0.0-6.0-61.0","6","[""img/0899/8de08897-b430-42fe-9d42-840670b80f94.jpg"",""img/0899/0e1d936a-dbe2-4afc-9f19-7b7a1ae6c9ed.jpg""]","",""
"","2865","similarity","68","377109","0.0-6.0-62.0","4","[""img/0860/17b44a7d-c5ca-479f-9e87-f65a64f5c80e.jpg"",""img/0875/03c3c331-738b-4446-af92-3d7386b08c2e.jpg""]","",""
"","2954","similarity","69","381067","0.0-6.0-63.0","2","[""img/0868/e0aff734-077f-40dd-9781-74821abd3621.jpg"",""img/0874/c0378dac-9370-439a-8b79-db27c96fb390.jpg""]","",""
"","1874","similarity","70","383944","0.0-6.0-64.0","4","[""img/0758/dd559618-7f09-4a07-8018-d311c4a5ea29.jpg"",""img/0862/99a99e39-8355-44ec-b993-e7bcec111e1c.jpg""]","",""
"","2222","similarity","71","387171","0.0-6.0-65.0","4","[""img/0904/24fc38fe-842c-4831-ad8a-b1de5c25c0a8.jpg"",""img/0898/4184e5a2-84ea-4f36-9b42-ae58646f6f87.jpg""]","",""
"","4006","similarity","72","392180","0.0-6.0-66.0","5","[""img/0881/445edb15-bd7f-4af3-8bd5-c6ad9677bb31.jpg"",""img/0866/0207e9a2-7dbb-40b5-9459-b472aaeceb2a.jpg""]","",""
"","3014","similarity","73","396198","0.0-6.0-67.0","3","[""img/0867/f8159067-056c-41f1-a136-c529fe5e970a.jpg"",""img/0898/08c72dac-f8ad-407a-9ce6-8c9a5d679c3a.jpg""]","",""
"","5186","similarity","74","402388","0.0-6.0-68.0","5","[""img/0902/d49743d6-67ae-4c2e-a939-8fd895a0f18e.jpg"",""img/0764/d7f3ac54-318a-4dac-a06b-62bed34d01a4.jpg""]","",""
"","3491","similarity","75","406883","0.0-6.0-69.0","6","[""img/0875/5a7c4e35-6514-4e12-8879-d16071da4cd6.jpg"",""img/0867/50a1b60e-3a29-44bf-b606-d4bd3746fea9.jpg""]","",""
"","4032","similarity","76","411918","0.0-6.0-70.0","5","[""img/0766/91fc8c4d-862f-4d2b-b1a1-2db8d729b6b7.jpg"",""img/0764/6c7fe363-2d37-418f-9e5e-a3273af5d4fb.jpg""]","",""
"","3017","similarity","77","415939","0.0-6.0-71.0","3","[""img/0894/e2446cf5-cd48-486a-badc-76498e087fbe.jpg"",""img/0867/075e0f95-856b-4cbb-acf5-092393aaf04e.jpg""]","",""
"","4978","similarity","78","421922","0.0-6.0-72.0","2","[""img/0875/527ced51-8e53-4aab-ab05-86df219104c0.jpg"",""img/0764/e48e6c6f-9e28-420f-836a-8043b2319bb4.jpg""]","",""
"","2784","similarity","79","425711","0.0-6.0-73.0","5","[""img/0867/de92135f-5b65-4ed9-b245-188292c7c2f8.jpg"",""img/0866/11a1d141-be5e-443c-98c1-a9d4d9e3dec0.jpg""]","",""
"","6448","similarity","80","433173","0.0-6.0-74.0","1","[""img/0903/8931c67c-a43d-47d3-a4c9-42aa2f81d344.jpg"",""img/0758/e1ba5e53-addc-436a-b428-d34fc1b130dc.jpg""]","",""
"","2906","similarity","81","437083","0.0-6.0-75.0","2","[""img/0766/1865bfc9-2410-4765-a804-3ae4ba2393d0.jpg"",""img/0868/4e626425-63c8-484a-8a1d-e66ee4e0bef8.jpg""]","",""
"","3052","similarity","82","441139","0.0-6.0-76.0","3","[""img/0874/29830da7-be5f-44e5-b141-652a0ccf7269.jpg"",""img/0766/d50d734f-285c-4840-bc7a-c8dd4aff391e.jpg""]","",""
"","3043","similarity","83","445187","0.0-6.0-77.0","1","[""img/0881/b549bc99-a61c-4450-bab5-9efc3a197bf0.jpg"",""img/0868/4bd5105a-d2c3-4f82-8c80-57196106ba53.jpg""]","",""
"","2988","similarity","84","449180","0.0-6.0-78.0","1","[""img/0758/6cd8c362-ae2a-41eb-80a3-3a4f7ace1530.jpg"",""img/0901/148b747a-7392-437e-8823-33053c5dff3f.jpg""]","",""
"","3341","similarity","85","453524","0.0-6.0-79.0","1","[""img/0881/0c7068da-d0d9-4103-bda1-74ef7a2b32c3.jpg"",""img/0898/5f699581-3853-4547-856c-12f419ba5af7.jpg""]","",""
"","3182","similarity","86","457710","0.0-6.0-80.0","1","[""img/0867/2e1a0b58-cdb1-4107-a14e-452530d7b9b0.jpg"",""img/0758/e38fd80d-18d0-42f3-b848-f930788e8bd7.jpg""]","",""
"","4040","similarity","87","462789","0.0-6.0-81.0","2","[""img/0769/c34b7763-8ff2-46d5-9e92-f1d8f3bedbd8.jpg"",""img/0899/51a7a498-98c7-42d7-bca8-bc2d8f0b5831.jpg""]","",""
"","2899","similarity","88","466692","0.0-6.0-82.0","7","[""img/0903/5995f4a8-fa82-46f8-8760-fd7800a5ca34.jpg"",""img/0903/5c6b1f57-b3a2-40f5-9fb1-82785e24b6a0.jpg""]","",""
"","4221","similarity","89","476954","0.0-6.0-83.0","2","[""img/0867/f8488a47-94ee-4166-952c-44e16cf172f6.jpg"",""img/0766/09f646c8-a69e-4ed3-879c-8d29b04ad7f9.jpg""]","",""
"","3958","similarity","90","481916","0.0-6.0-84.0","2","[""img/0902/7499db23-3a41-41ea-ab5b-6ab4d4c3ed35.jpg"",""img/0867/85a96c62-548f-4994-9553-819e03c3135a.jpg""]","",""
"","2732","similarity","91","485652","0.0-6.0-85.0","2","[""img/0901/0f670aef-ac36-496d-8142-ee5fdb21dd82.jpg"",""img/0875/e7e66b13-b573-431e-b85e-288ce04a35a3.jpg""]","",""
"","2728","similarity","92","489383","0.0-6.0-86.0","2","[""img/0764/0e7ed062-f798-4366-8a24-6f430926f919.jpg"",""img/0866/f756f7d1-9ad8-4a34-9ef6-7a443d705bfe.jpg""]","",""
"","3175","similarity","93","493561","0.0-6.0-87.0","6","[""img/0901/4d1bed7e-3c4e-4f6c-ada9-4beb66ba9e39.jpg"",""img/0894/38cf335f-f76f-4349-8d65-e20cd6859565.jpg""]","",""
"","3962","similarity","94","498525","0.0-6.0-88.0","5","[""img/0898/26c41340-15bd-4ead-8fe4-c0d0ddca09c2.jpg"",""img/0769/3c1efec9-f8fd-487d-8955-4be88e48c832.jpg""]","",""
"","3282","similarity","95","502810","0.0-6.0-89.0","5","[""img/0769/aad494cc-674d-4a08-9bfa-24a88ebe3c79.jpg"",""img/0894/b422d5c6-3c5a-49ae-a53e-7e88ac993f49.jpg""]","",""
"","3950","similarity","96","507764","0.0-6.0-90.0","3","[""img/0862/ad593cc7-cabe-4bb7-8e14-8a447a0717b4.jpg"",""img/0874/eba003b4-cdab-4eee-8bc3-f064c7d94165.jpg""]","",""
"","3151","similarity","97","511918","0.0-6.0-91.0","3","[""img/0894/38f5931f-926d-414e-b498-66b188978b7a.jpg"",""img/0766/d3bab2fc-ddcc-40a0-bb72-c0d0ebe19978.jpg""]","",""
"","3297","similarity","98","516218","0.0-6.0-92.0","4","[""img/0874/ca23d307-fc00-4d7d-9106-584c6eb21b4d.jpg"",""img/0867/bf560d4f-dee3-4f11-a385-705cc1aa5f3c.jpg""]","",""
"","3729","similarity","99","520951","0.0-6.0-93.0","2","[""img/0899/fef567a2-c121-4481-9af0-ff108d199bbf.jpg"",""img/0868/c8ac40c7-6904-4e13-8d61-c75d3052dc4e.jpg""]","",""
"","3169","similarity","100","525124","0.0-6.0-94.0","2","[""img/0903/71dbc325-b588-4297-a5cf-7f268a722ad9.jpg"",""img/0862/92f0146c-20c4-482e-aef5-adb693790338.jpg""]","",""
"","5115","similarity","101","531243","0.0-6.0-95.0","4","[""img/0899/8abe6c69-822c-436c-9bf2-96c818b49ba5.jpg"",""img/0766/33519c22-aaa4-49d7-8d49-ab551db1945e.jpg""]","",""
"","5588","similarity","102","537835","0.0-6.0-96.0","5","[""img/0867/5e07b34d-b40f-4b1c-ac10-49975bace45f.jpg"",""img/0868/1a62b2b2-18f5-466e-b564-5176a57c565e.jpg""]","",""
"","5025","similarity","103","543863","0.0-6.0-97.0","3","[""img/0862/f23038d4-c366-4f70-979f-66b62362efa4.jpg"",""img/0901/04a53755-6da5-44d4-a7a6-48a6bc0a2280.jpg""]","",""
"","2702","similarity","104","547568","0.0-6.0-98.0","2","[""img/0875/a4935837-7d3c-4df6-88c1-36a94d4991ca.jpg"",""img/0766/db750ba0-ce04-46e1-b601-e1b80212bad2.jpg""]","",""
"","3453","similarity","105","552026","0.0-6.0-99.0","2","[""img/0758/2fa3e613-e676-4e6e-bd12-705327eeb3e1.jpg"",""img/0874/a3bc679d-619f-4db6-bb68-116dcb757d9c.jpg""]","",""
"","4057","similarity","106","557087","0.0-6.0-100.0","2","[""img/0904/2f88ce53-02d0-4f95-a082-182c56a0eeb4.jpg"",""img/0868/3a62db2d-97e9-44a3-b8e3-a48c6f0e423b.jpg""]","",""
"","4623","similarity","107","562713","0.0-6.0-101.0","2","[""img/0903/6378ee1e-3d2b-48d2-87be-bebda32c8268.jpg"",""img/0866/8efcaa46-83ab-4dee-a35f-850402aa21ae.jpg""]","",""
"","4516","similarity","108","568232","0.0-6.0-102.0","2","[""img/0868/0d3abd3a-b6c3-4584-a9f7-e2da63748b3d.jpg"",""img/0769/48a1144d-fbda-4809-991b-fc8424a32ee4.jpg""]","",""
"","4297","similarity","109","573532","0.0-6.0-103.0","2","[""img/0902/95a36b6b-9601-4fa5-8fd9-606ea62f9425.jpg"",""img/0899/5b56dd3e-3f49-47cc-af84-16da6457753b.jpg""]","",""
"","4079","similarity","110","578615","0.0-6.0-104.0","3","[""img/0868/4a8a45ed-2c4f-421b-9564-409a33ecd26c.jpg"",""img/0862/a0a3a7ba-7798-46a3-b4ca-05e1f6e581d0.jpg""]","",""
"","3873","similarity","111","583495","0.0-6.0-105.0","5","[""img/0903/b7e3723f-fd03-4f3d-8820-f19496463a34.jpg"",""img/0894/2d2db7b3-e8a3-499b-b63a-14f51bf73882.jpg""]","",""
"","3611","similarity","112","588110","0.0-6.0-106.0","6","[""img/0864/3651d070-2fc5-4848-b6a6-088a2d9ac5c9.jpg"",""img/0874/ca76a855-4e77-4f2f-872a-0a718153e7ed.jpg""]","",""
"","2669","similarity","113","591782","0.0-6.0-107.0","7","[""img/0862/cdaed51d-9e2f-4807-801a-4663c40077e2.jpg"",""img/0902/3b243e54-0803-4c29-af42-4037c2118495.jpg""]","",""
"","2983","similarity","114","595768","0.0-6.0-108.0","7","[""img/0904/09dac84f-3d1c-4445-a68e-d0389fdbf1e9.jpg"",""img/0903/aa842abe-6fa3-448a-bf71-88d3ad28663b.jpg""]","",""
"","2357","similarity","115","599130","0.0-6.0-109.0","4","[""img/0764/55b3fab1-b809-4d38-a461-3f40ce062f52.jpg"",""img/0864/49150900-7f25-4ce8-8d10-9b47a71d1997.jpg""]","",""
"","3846","similarity","116","603980","0.0-6.0-110.0","3","[""img/0866/be24ab58-230e-4db8-9f45-ff04c9aec6bb.jpg"",""img/0894/7dd6ff43-f8fc-408a-8a41-a2b261871820.jpg""]","",""
"","3856","similarity","117","608839","0.0-6.0-111.0","3","[""img/0899/7f9d45d0-b2c6-40d3-aa41-c207db2c411b.jpg"",""img/0903/6138142e-c84e-45fc-9487-c974f3d4968a.jpg""]","",""
"","2009","similarity","118","611851","0.0-6.0-112.0","4","[""img/0902/aa6fca32-82b0-4414-b20a-8f6f8aa5a2d2.jpg"",""img/0904/4b8daf2a-13a9-4ea9-9e0b-b265b6e933e7.jpg""]","",""
"","3433","similarity","119","616286","0.0-6.0-113.0","4","[""img/0864/9b2490c5-a282-400a-9736-e1a0ecbf1cb7.jpg"",""img/0860/e8b8c51e-1834-4875-8b61-6c5bc9b178bd.jpg""]","",""
"","3582","similarity","120","620873","0.0-6.0-114.0","3","[""img/0860/8277806e-b684-4474-8f7b-3fca946d7d4f.jpg"",""img/0899/4408c14d-c168-4a7d-96f6-bc87bfb58f83.jpg""]","",""
"","2575","similarity","121","624452","0.0-6.0-115.0","2","[""img/0881/7e31e5dc-2240-4b1b-b5a0-3acd980099ef.jpg"",""img/0903/81368973-de81-46f4-844f-b901f3bfd66d.jpg""]","",""
"","4154","similarity","122","629610","0.0-6.0-116.0","2","[""img/0894/b2d2f66e-e480-46da-a02a-6d0c6b285d78.jpg"",""img/0874/8cdb1c07-1c32-46d2-981c-3636560fa6e5.jpg""]","",""
"","4330","similarity","123","634943","0.0-6.0-117.0","6","[""img/0881/2a8413be-fec2-4de6-88ad-614dd4cccc9d.jpg"",""img/0862/5d887e9f-89e2-4ebc-80a0-6d46fe6480db.jpg""]","",""
"","4066","similarity","124","640012","0.0-6.0-118.0","5","[""img/0868/d98ca254-b195-477f-b57e-5760a2717db8.jpg"",""img/0875/5a1e5100-0d94-4fec-bbe9-ca9894d2cf8e.jpg""]","",""
"","2634","similarity","125","643648","0.0-6.0-119.0","2","[""img/0860/e14d67c1-6d92-4f1e-9257-c8607159c19c.jpg"",""img/0758/caa93da2-9edf-49fa-96b9-32dedd8f5078.jpg""]","",""
"","2878","similarity","126","647530","0.0-6.0-120.0","1","[""img/0864/f92649a2-0590-4d31-9a7a-1bfb81666a2d.jpg"",""img/0875/99698b4d-b4a1-44bc-8c83-8ea755bbbf61.jpg""]","",""
"","4529","similarity","127","653064","0.0-6.0-121.0","2","[""img/0898/01bfe666-3510-4fc7-964f-d00d28732dc8.jpg"",""img/0866/02f5e6b9-52b7-448c-9708-5b460d0c9a23.jpg""]","",""
"","3757","similarity","128","657825","0.0-6.0-122.0","2","[""img/0874/7e4f2150-3b59-4a36-b5da-a4e0ba410531.jpg"",""img/0904/73920552-103b-4c9c-9ece-e0b8376b4504.jpg""]","",""
"","2594","similarity","129","661422","0.0-6.0-123.0","2","[""img/0904/d23dd7be-7fe8-4435-82f7-bd592c01e6a1.jpg"",""img/0864/4bd81bc6-c13d-46df-95a9-485886dc7c1b.jpg""]","",""
"","3209","similarity","130","665635","0.0-6.0-124.0","5","[""img/0894/0130a973-d993-41f8-874a-fee23d9ac11f.jpg"",""img/0902/5b45a7a0-81c8-4a71-aaa2-2ce09adb5a29.jpg""]","",""
"","2350","similarity","131","670994","0.0-6.0-125.0","3","[""img/0868/d6d1f30d-4323-435a-b194-7892521bc57e.jpg"",""img/0864/c3b63e8f-ea39-4d70-a1f2-b3fe4be8eb75.jpg""]","",""
"","3847","similarity","132","675845","0.0-6.0-126.0","2","[""img/0899/0433d056-aa30-4f8a-9aa1-abbb951e4edd.jpg"",""img/0866/6f2a90d7-14f1-4f1b-bd64-fc0af6b9fe44.jpg""]","",""
"","6049","similarity","133","682898","0.0-6.0-127.0","2","[""img/0875/2e13d160-eea1-416b-aff1-d37ab99ecc1d.jpg"",""img/0904/fe746a3f-8458-48d0-8a13-8cba2a9df9f8.jpg""]","",""
"","2429","similarity","134","686330","0.0-6.0-128.0","2","[""img/0867/26611f4e-d694-4460-b7e2-43c62753ddc3.jpg"",""img/0899/00715b3f-851b-420b-a26b-d7f79f7759a9.jpg""]","",""
"","3264","similarity","135","690599","0.0-6.0-129.0","2","[""img/0901/a6776381-91fe-43f8-ab73-261d318f95fd.jpg"",""img/0867/8ba0c5a7-c7e4-42cf-a80a-543763b90779.jpg""]","",""
"","2647","similarity","136","694249","0.0-6.0-130.0","3","[""img/0864/c22faebd-9c53-47bc-ada3-b9a30c688e75.jpg"",""img/0769/1ca58b80-2365-446d-9616-6c1719e6c46f.jpg""]","",""
"","3831","similarity","137","699084","0.0-6.0-131.0","3","[""img/0903/f10e9eb5-0c21-4a6a-944c-5f10a6d0fa4d.jpg"",""img/0868/293079b8-7e0c-4afd-a390-1e5d35fe3ded.jpg""]","",""
"","3449","similarity","138","703538","0.0-6.0-132.0","2","[""img/0864/66091c27-e588-4476-8af9-265dc6be4156.jpg"",""img/0867/aa05d113-fc19-4756-a8eb-7878f580bc92.jpg""]","",""
"","4580","similarity","139","709120","0.0-6.0-133.0","6","[""img/0901/b9141736-3041-4385-a586-b1fe911c76a5.jpg"",""img/0860/71e1aad0-2cdf-43bb-94a4-a8c016997c30.jpg""]","",""
"","4249","similarity","140","714372","0.0-6.0-134.0","3","[""img/0881/19e82c47-8e4b-45d2-a6c8-74181eb4155e.jpg"",""img/0766/fd064894-7147-4af5-97e9-2089d5472656.jpg""]","",""
"","2794","similarity","141","718170","0.0-6.0-135.0","3","[""img/0903/36e4ab1f-caa9-40b3-8616-faada076df94.jpg"",""img/0864/ef9cbca0-4be8-435d-ad49-977259e80409.jpg""]","",""
"","2684","similarity","142","721857","0.0-6.0-136.0","3","[""img/0758/b76ceca7-95ac-46e4-ac13-da02c8e93be9.jpg"",""img/0894/a98416c0-51e2-4960-85da-d81d8688b9d5.jpg""]","",""
"","2972","similarity","143","725833","0.0-6.0-137.0","3","[""img/0769/8056889f-2b14-4782-bb25-b4e8896ab65b.jpg"",""img/0860/4c530c3c-6aab-492a-94d1-9c01797bde40.jpg""]","",""
"","4026","similarity","144","730862","0.0-6.0-138.0","5","[""img/0904/9d30eff1-46ef-4453-b11e-124ef8145c00.jpg"",""img/0766/d8221e53-2300-4d99-ae1b-0bfb0eabe579.jpg""]","",""
"","3447","similarity","145","735312","0.0-6.0-139.0","5","[""img/0868/6a28c3b0-3d76-498a-9fb7-ddafc665eca8.jpg"",""img/0860/c3379ff7-0763-48fe-a1ec-7ea3d611bc7a.jpg""]","",""
"","2959","similarity","146","739275","0.0-6.0-140.0","4","[""img/0758/a709631e-3705-4725-ac40-f0d916924f08.jpg"",""img/0864/0116ca98-293d-4fa6-a93b-5a6144ef64cc.jpg""]","",""
"","2872","similarity","147","743151","0.0-6.0-141.0","6","[""img/0867/12264664-1860-46df-8c21-162b9817cdda.jpg"",""img/0867/f26f6b60-f772-4f4c-95a4-addc62cfd692.jpg""]","",""
"","2937","similarity","148","747091","0.0-6.0-142.0","7","[""img/0898/ec565187-2e31-4fdd-9a5c-153d0c789ae0.jpg"",""img/0898/81b08535-2020-4c15-9ce4-2f1e460755ae.jpg""]","",""
"","3649","similarity","149","751744","0.0-6.0-143.0","4","[""img/0866/a04d37f0-99dd-478a-b6c6-58b215138f84.jpg"",""img/0769/662ab839-88d1-4ebf-af05-9b2980cad943.jpg""]","",""
"","3419","similarity","150","756167","0.0-6.0-144.0","5","[""img/0860/5383b320-1518-4095-a58e-5cc1ae30b64c.jpg"",""img/0898/82231d4c-218b-4d0a-b50d-35a49b524e97.jpg""]","",""
"","2638","similarity","151","759808","0.0-6.0-145.0","3","[""img/0766/69e486f7-dbef-456b-9d48-53d814248a28.jpg"",""img/0864/b3c4e378-28f0-4699-9338-2a257b4bca04.jpg""]","",""
"","3682","similarity","152","764493","0.0-6.0-146.0","3","[""img/0860/8a92e21b-6a32-4e4a-a445-2d5a487ed0a4.jpg"",""img/0903/776b74ee-a8ab-4ab8-a78d-097c0747538d.jpg""]","",""
"","3759","similarity","153","769256","0.0-6.0-147.0","3","[""img/0867/7d1c497b-c1b3-4ed8-abb5-d7f73306015f.jpg"",""img/0764/1f95ab5f-fb65-4d70-b5db-d6bd6351a8aa.jpg""]","",""
"","3222","similarity","154","773482","0.0-6.0-148.0","6","[""img/0769/e8ed913b-8a88-44f6-9327-d34afec3116b.jpg"",""img/0904/e9423a8c-f946-43ad-ab7b-931acef870e2.jpg""]","",""
"","5446","similarity","155","779932","0.0-6.0-149.0","3","[""img/0764/ba0c0955-acbb-457d-b1c2-f006b88121d5.jpg"",""img/0901/b13fa50f-dbe0-4d0f-8647-6ac0fd8f40bd.jpg""]","",""
"","3149","similarity","156","784084","0.0-6.0-150.0","6","[""img/0904/06dacdc5-2206-4fb8-92b7-88042d22833c.jpg"",""img/0899/ddf96ade-692e-4602-bd22-dedbb46401bc.jpg""]","",""
"","3277","similarity","157","788366","0.0-6.0-151.0","3","[""img/0862/e8cc3bdf-cc43-4565-bccf-492626c70953.jpg"",""img/0867/a498eef3-9fa4-4ab2-9778-4ae82ac40dc5.jpg""]","",""
"","2915","similarity","158","792285","0.0-6.0-152.0","6","[""img/0766/ea09dd5a-d24d-4e97-a099-7da3db1baef1.jpg"",""img/0766/a0270213-fa0e-4972-8b56-228c3e01ff90.jpg""]","",""
"","2731","similarity","159","796018","0.0-6.0-153.0","4","[""img/0862/f43ceabf-acc1-4107-b857-5d1849808f93.jpg"",""img/0894/1b3888e6-cf36-4c4a-a039-187aa5cb71ac.jpg""]","",""
"","3073","similarity","160","800094","0.0-6.0-154.0","3","[""img/0899/ad8268c5-8199-48d0-ad70-c5b6d6c599ec.jpg"",""img/0901/a6c90438-fa7c-4418-ac7c-16c2e772dd98.jpg""]","",""
"","2953","similarity","161","804052","0.0-6.0-155.0","5","[""img/0874/767f289c-9814-4496-803f-745cc8913d1f.jpg"",""img/0874/3ce41e7c-40c8-4d58-a546-171114521796.jpg""]","",""
"","2242","similarity","162","807297","0.0-6.0-156.0","4","[""img/0860/61fb959d-d4d9-4de4-9e4e-4fa62b4cfcd5.jpg"",""img/0867/c66898ba-b71b-4d50-84f9-f7f84853a98d.jpg""]","",""
"","3876","similarity","163","812178","0.0-6.0-157.0","2","[""img/0901/77087ed2-6e12-4329-b2a5-605bca6d972d.jpg"",""img/0881/adc02f34-ce97-4aef-850f-00519df06fd7.jpg""]","",""
"","2724","similarity","164","815905","0.0-6.0-158.0","4","[""img/0903/d987e220-f3e6-4b6d-a270-fe6757041f6d.jpg"",""img/0902/d2c34af0-8c50-437d-8cc3-619195a3e8ba.jpg""]","",""
"","3698","similarity","165","820606","0.0-6.0-159.0","2","[""img/0860/29a21a9f-54bb-4093-ad3f-04823ceaa89f.jpg"",""img/0764/a86eed5b-d0af-4c3f-8c7a-26e98e98cf1a.jpg""]","",""
"","3358","similarity","166","824968","0.0-6.0-160.0","1","[""img/0902/2db723b6-130f-454c-8c8d-88829edbcd65.jpg"",""img/0875/2c361b79-c3d1-4eda-812e-bf03192407bf.jpg""]","",""
"","3459","similarity","167","829430","0.0-6.0-161.0","1","[""img/0898/04e39a7a-fcf6-4156-ab0e-f5871f335e1c.jpg"",""img/0862/eefa5588-9efd-4591-aa5f-a2e17c7d7bcc.jpg""]","",""
"","3132","similarity","168","833566","0.0-6.0-162.0","2","[""img/0894/133a1636-d123-4893-873c-1718050f832a.jpg"",""img/0875/34132396-d896-4c2d-8087-646dd867e769.jpg""]","",""
"","4184","similarity","169","838754","0.0-6.0-163.0","2","[""img/0866/d266fece-59b3-46fa-b69f-96f6efb81b59.jpg"",""img/0864/65210d57-1153-4657-886a-32e758f49b4a.jpg""]","",""
"","3676","similarity","170","843434","0.0-6.0-164.0","1","[""img/0766/535849cc-ff5d-4df9-8f31-0ce94a97d571.jpg"",""img/0862/47ed5efd-4ec9-4b74-bb4e-a5f5cf0c3e7d.jpg""]","",""
"","5073","similarity","171","849510","0.0-6.0-165.0","3","[""img/0866/d493a2c8-66eb-44b4-be02-2f327b700b7c.jpg"",""img/0874/adf9a8f1-c40b-402b-b95b-1e85a54a7b62.jpg""]","",""
"","3655","similarity","172","854168","0.0-6.0-166.0","7","[""img/0862/24cdc752-c2e5-4a17-86a6-6f2045d8553b.jpg"",""img/0860/702bd09d-df3a-40aa-a267-5f04474305b5.jpg""]","",""
"","2809","similarity","173","859845","0.0-6.0-167.0","2","[""img/0766/d5d38751-8fa5-476f-93e9-86ed2d9045ef.jpg"",""img/0901/6e2957f8-f5ab-46f4-87cc-bb50155a098b.jpg""]","",""
"","3484","similarity","174","864332","0.0-6.0-168.0","7","[""img/0862/1c20f772-3a51-4a80-aac0-f57dc9f86c28.jpg"",""img/0862/57b6f83f-c763-4858-830d-102f97bfefbf.jpg""]","",""
"","3437","similarity","175","868774","0.0-6.0-169.0","6","[""img/0894/e6385e52-6c35-43bd-b0af-bc803d107b11.jpg"",""img/0764/cbdc4f20-3a9a-4211-9b40-090699e0abcc.jpg""]","",""
"","2624","similarity","176","872401","0.0-6.0-170.0","1","[""img/0874/a82926a3-0b43-4add-803c-d5f9ea7798ee.jpg"",""img/0898/b2732712-71c2-45d8-834f-2b2ed5504910.jpg""]","",""
"","2899","similarity","177","876304","0.0-6.0-171.0","1","[""img/0860/87039971-2210-4aab-93c0-8e9b5f1655b2.jpg"",""img/0766/60033a74-9919-47e5-913c-71d0d483e7e5.jpg""]","",""
"","2854","similarity","178","880160","0.0-6.0-172.0","3","[""img/0898/68476bbb-34a1-42d9-8bc1-deab783d4489.jpg"",""img/0864/3d4de670-b290-4285-9c3d-12a0e3af44e9.jpg""]","",""
"","2422","similarity","179","883587","0.0-6.0-173.0","6","[""img/0881/c843e210-bdfe-4a7c-8bbe-fcea1f90fe1c.jpg"",""img/0764/7f4ee8e3-9315-4a57-be7d-db8454b33766.jpg""]","",""
"","3457","similarity","180","888047","0.0-6.0-174.0","3","[""img/0898/661621d4-a14e-487c-8c74-354134a29710.jpg"",""img/0868/fd307a36-9a3a-47d7-ab7c-f810d0b35040.jpg""]","",""
"","2763","similarity","181","891813","0.0-6.0-175.0","7","[""img/0864/1ebbc554-99fa-49f9-8799-317375a79820.jpg"",""img/0864/afcba0a3-7e27-4757-b254-e9f05fad27e2.jpg""]","",""
"","3465","similarity","182","896281","0.0-6.0-176.0","2","[""img/0899/76ad07e2-ca25-45eb-84f2-8d80b8ca3e26.jpg"",""img/0862/f188d4f0-76a4-4102-818c-a209969d73a5.jpg""]","",""
"","3889","similarity","183","901174","0.0-6.0-177.0","2","[""img/0875/90da8d75-108a-44ad-b999-e21fee3860d3.jpg"",""img/0758/ddc336e9-a8b6-4bb9-937a-c7e25e0e9250.jpg""]","",""
"","3730","similarity","184","905907","0.0-6.0-178.0","2","[""img/0866/23a224f3-2012-4fc8-8e0f-3c36f8de27fd.jpg"",""img/0901/58ec7fa9-b466-4651-90aa-c082df0972de.jpg""]","",""
"","3239","similarity","185","910150","0.0-6.0-179.0","2","[""img/0769/057eb0a0-aa5b-40c7-9852-21444f68d767.jpg"",""img/0874/995f0332-0439-4eb4-add3-957335dbf6d9.jpg""]","",""
"","3319","similarity","186","914474","0.0-6.0-180.0","3","[""img/0875/ebf7653f-ff45-4e9f-af58-2c042ab3cd2b.jpg"",""img/0881/62a64f90-7a72-4aee-a1a1-0c548ac9bdda.jpg""]","",""
"","2949","similarity","187","918427","0.0-6.0-181.0","4","[""img/0866/9b38d691-1802-4959-ab3f-fc902f0e4ea6.jpg"",""img/0868/09a9ef4d-d000-4cfa-a6aa-ebec7c2edeb4.jpg""]","",""
"","1750","similarity","188","921181","0.0-6.0-182.0","4","[""img/0899/56a605c3-d0a2-4215-89e1-779279d85a7c.jpg"",""img/0758/335851a0-a55b-46d8-ab05-8463eda48349.jpg""]","",""
"","3101","similarity","189","925286","0.0-6.0-183.0","3","[""img/0874/1016b306-087c-4afc-aa08-fa527b28dc76.jpg"",""img/0875/8521fd58-3b1e-4dc5-97ae-804edfa6734a.jpg""]","",""
"","2752","similarity","190","929041","0.0-6.0-184.0","1","[""img/0904/25365108-e038-4021-aac9-797f2063b337.jpg"",""img/0862/fb26cb07-d5a9-4653-813c-f41609f26cd5.jpg""]","",""
"","3597","similarity","191","933643","0.0-6.0-185.0","5","[""img/0902/6730b12a-f0a7-4587-8c10-a32fae16565b.jpg"",""img/0766/214866ee-423d-4629-9bb9-41572bdc7dac.jpg""]","",""
"","2754","similarity","192","937401","0.0-6.0-186.0","2","[""img/0758/821c68d3-5cb0-4eae-8659-30e6263fca39.jpg"",""img/0769/965c3c44-d9e5-47c5-b61a-2bbdf4215d9a.jpg""]","",""
"","2506","similarity","193","940913","0.0-6.0-187.0","4","[""img/0881/344de456-b358-4887-bd0e-e4c3278af887.jpg"",""img/0881/667e2147-d457-4f32-aa5f-6ab86e5848f1.jpg""]","",""
"","4414","similarity","194","946331","0.0-6.0-188.0","3","[""img/0758/7ee8bc8f-c40b-4b3a-84ec-3e83580622d4.jpg"",""img/0866/620cd1aa-0800-4414-8f6e-90342e7a99ad.jpg""]","",""
"","3862","similarity","195","951198","0.0-6.0-189.0","6","[""img/0764/4bec8d92-75aa-475a-954d-8215dbe538f5.jpg"",""img/0898/6cd3830b-d44e-4915-be2b-88d31424b91c.jpg""]","",""
"","5134","similarity","196","957338","0.0-6.0-190.0","4","[""img/0903/c708d08f-a108-4e04-8288-c3fcf6375db4.jpg"",""img/0901/2a953e50-d237-405c-a38d-5ed21494c968.jpg""]","",""
"","2263","similarity","197","960604","0.0-6.0-191.0","6","[""img/0902/04a6ad4a-afc6-4871-8225-56b299af7b6b.jpg"",""img/0898/c3cecf20-f7fd-45fa-97d0-dc0a63e8d6c0.jpg""]","",""
"","2953","similarity","198","964564","0.0-6.0-192.0","3","[""img/0864/e8bd659f-aa43-4748-877e-3118e8b4e189.jpg"",""img/0901/33b51a81-06d9-46d9-9d4f-5a2d6d6b8058.jpg""]","",""
"","3806","similarity","199","969375","0.0-6.0-193.0","2","[""img/0894/05161000-f476-499b-a878-c13c7f347fd9.jpg"",""img/0881/633c6f40-56d9-4b48-bf1c-ecd83116eabb.jpg""]","",""
"","3407","similarity","200","973787","0.0-6.0-194.0","6","[""img/0868/77091fc7-a590-4ebb-b915-fdb2483a2399.jpg"",""img/0868/15dd6fd7-791e-4b53-b203-195d617521a4.jpg""]","",""
"","3941","similarity","201","978731","0.0-6.0-195.0","2","[""img/0899/9de5e857-aa9a-4e0c-8ba2-46d79bd069a4.jpg"",""img/0764/29072395-f595-4e3c-83d3-ff87010039fa.jpg""]","",""
"","3366","similarity","202","983102","0.0-6.0-196.0","1","[""img/0881/ee44e27f-d662-4608-b265-e7ffa19b216f.jpg"",""img/0904/65e2b70a-b184-4da3-b5c0-5038bdf9469a.jpg""]","",""
"","3609","similarity","203","987715","0.0-6.0-197.0","2","[""img/0864/5f33e097-23e3-4002-882d-76e8cb15f451.jpg"",""img/0902/6c2c243a-f663-45db-baf5-038d3d58c589.jpg""]","",""
"","4687","similarity","204","993405","0.0-6.0-198.0","6","[""img/0894/5c7677b0-a4f1-479e-b274-7822c415175a.jpg"",""img/0904/4d7d70a3-9477-4921-bda0-f9531d0a5c5b.jpg""]","",""
"","4328","similarity","205","998736","0.0-6.0-199.0","6","[""img/0901/4f9cffe0-c0be-4d7f-bacd-9d51efd19b4a.jpg"",""img/0901/62315ff5-ed95-46b4-b099-92552079659b.jpg""]","",""
"","2666","similarity","206","1002406","0.0-6.0-200.0","3","[""img/0894/4739e06d-c31e-4bf1-bf91-c97fa9afb456.jpg"",""img/0860/4a022222-056d-461c-ab02-39fac9647552.jpg""]","",""
"","3878","similarity","207","1007288","0.0-6.0-201.0","6","[""img/0898/0c7dde4f-efce-4b7a-9387-6921635b7890.jpg"",""img/0903/59defeb8-98bd-4570-a2f8-9bd189e68ef4.jpg""]","",""
"","2592","similarity","208","1010892","0.0-6.0-202.0","2","[""img/0864/300bb811-8b3c-4c42-8653-6097c3725197.jpg"",""img/0894/11674fa4-285d-44e2-939f-2228c6a64080.jpg""]","",""
"","3760","similarity","209","1015654","0.0-6.0-203.0","4","[""img/0874/3f471690-9788-4d03-90c7-f615aecef149.jpg"",""img/0860/4f695df5-afac-4da7-9875-fee39b0b24ad.jpg""]","",""
"","2907","similarity","210","1019566","0.0-6.0-204.0","1","[""img/0862/d0ca4c78-fc35-46ed-bdcc-8e124283c53e.jpg"",""img/0875/3ecb367d-e9eb-4826-8aaa-7aa72fb98019.jpg""]","",""
"","11901","similarity","211","1032473","0.0-6.0-205.0","4","[""img/0867/db7e032f-162b-46f5-ae67-2b29679adee4.jpg"",""img/0881/c24f3051-eefa-42de-aba6-fccb56d93c70.jpg""]","",""
"","2515","similarity","212","1035993","0.0-6.0-206.0","2","[""img/0901/f469cb1d-6d81-4a45-bab5-cd0b650c2b4f.jpg"",""img/0902/8065aa6b-4aef-4368-afa2-02c6465ca582.jpg""]","",""
"","3338","similarity","213","1040334","0.0-6.0-207.0","3","[""img/0899/a048912c-b12c-40e3-90af-46b69b0cc4fe.jpg"",""img/0864/da39ad34-04e0-40d4-a724-c08d53e0ea09.jpg""]","",""
"","4193","similarity","214","1045532","0.0-6.0-208.0","2","[""img/0901/b453df0b-4c39-49bb-8ced-6127efffa898.jpg"",""img/0769/1d8734c4-77ab-4165-9e71-5cfe672ff01c.jpg""]","",""
"","2989","similarity","215","1050748","0.0-6.0-209.0","4","[""img/0902/fbef27fa-ac83-4936-ab78-9d1c20a383e1.jpg"",""img/0902/8af4182a-9af9-4212-a436-9195555112d6.jpg""]","",""
"[{""page_index"":0,""viewing_time"":3606}]","3607","instructions","216","1055359","0.0-7.0","","","",""
"","13579","image-multi-choice","217","1069978","0.0-8.0-0.0","","","{""Q0"":""Nashville Warbler""}","Nashville Warbler"
"","13617","image-multi-choice","218","1084610","0.0-8.0-1.0","","","{""Q0"":""Blackburnian Warbler""}","Black-and-white Warbler"
"","11843","image-multi-choice","219","1097463","0.0-8.0-2.0","","","{""Q0"":""Magnolia Warbler""}","Townsend's Warbler"
"","16642","image-multi-choice","220","1115111","0.0-8.0-3.0","","","{""Q0"":""Lark Sparrow""}","Lark Sparrow"
"","14141","image-multi-choice","221","1130273","0.0-8.0-4.0","","","{""Q0"":""Yellow Warbler""}","Yellow Warbler"
"","6991","image-multi-choice","222","1138273","0.0-8.0-5.0","","","{""Q0"":""Nashville Warbler""}","Orange-crowned Warbler"
"","9982","image-multi-choice","223","1149265","0.0-8.0-6.0","","","{""Q0"":""Chipping Sparrow""}","White-throated Sparrow"
"","6870","image-multi-choice","224","1157145","0.0-8.0-7.0","","","{""Q0"":""Fox Sparrow""}","Fox Sparrow"
"","8467","image-multi-choice","225","1166622","0.0-8.0-8.0","","","{""Q0"":""Song Sparrow""}","Song Sparrow"
"","5632","image-multi-choice","226","1173261","0.0-8.0-9.0","","","{""Q0"":""Tennessee Warbler""}","Blackburnian Warbler"
"","8727","image-multi-choice","227","1182997","0.0-8.0-10.0","","","{""Q0"":""Fox Sparrow""}","Vesper Sparrow"
"","10185","image-multi-choice","228","1194190","0.0-8.0-11.0","","","{""Q0"":""Swamp Sparrow""}","White-crowned Sparrow"
"","5339","image-multi-choice","229","1200541","0.0-8.0-12.0","","","{""Q0"":""Vesper Sparrow""}","American Tree Sparrow"
"","4249","image-multi-choice","230","1205796","0.0-8.0-13.0","","","{""Q0"":""Tennessee Warbler""}","Tennessee Warbler"
"","5441","image-multi-choice","231","1212244","0.0-8.0-14.0","","","{""Q0"":""Nashville Warbler""}","Magnolia Warbler"
"","5242","image-multi-choice","232","1218495","0.0-8.0-15.0","","","{""Q0"":""Ovenbird""}","Northern Waterthrush"
"","5540","image-multi-choice","233","1225048","0.0-8.0-16.0","","","{""Q0"":""American Tree Sparrow""}","Chipping Sparrow"
"","11602","image-multi-choice","234","1237657","0.0-8.0-17.0","","","{""Q0"":""Swamp Sparrow""}","Swamp Sparrow"
"","7513","image-multi-choice","235","1246179","0.0-8.0-18.0","","","{""Q0"":""Lark Sparrow""}","Lincoln's Sparrow"
"","4945","image-multi-choice","236","1252134","0.0-8.0-19.0","","","{""Q0"":""Ovenbird""}","Ovenbird"
