[{"view_history":"[{\"page_index\":0,\"viewing_time\":20121}]","rt":20123,"trial_type":"instructions","trial_index":0,"time_elapsed":20125,"internal_node_id":"0.0-0.0"},{"sim_score":5,"rt":7265,"stimulus":"[\"img/866.jpg\",\"img/868.jpg\"]","trial_type":"similarity_demo","trial_index":1,"time_elapsed":28406,"internal_node_id":"0.0-1.0"},{"view_history":"[{\"page_index\":0,\"viewing_time\":11286}]","rt":11286,"trial_type":"instructions","trial_index":2,"time_elapsed":40692,"internal_node_id":"0.0-2.0"},{"sim_score":5,"rt":5897,"stimulus":"[\"img/766.jpg\",\"img/867.jpg\"]","trial_type":"similarity_demo","trial_index":3,"time_elapsed":47597,"internal_node_id":"0.0-3.0"},{"view_history":"[{\"page_index\":0,\"viewing_time\":5967}]","rt":5968,"trial_type":"instructions","trial_index":4,"time_elapsed":54566,"internal_node_id":"0.0-4.0"},{"view_history":"[{\"page_index\":0,\"viewing_time\":19319}]","rt":19321,"trial_type":"instructions","trial_index":5,"time_elapsed":74889,"internal_node_id":"0.0-5.0"},{"sim_score":6,"rt":7716,"stimulus":"[\"img/0868/7b212364-ff5f-4e28-9241-7eb6ea00161b.jpg\",\"img/0901/1ede21d9-384f-4150-86b5-e1c57b5dc1d4.jpg\"]","trial_type":"similarity","trial_index":6,"time_elapsed":83624,"internal_node_id":"0.0-6.0-0.0"},{"sim_score":3,"rt":3701,"stimulus":"[\"img/0769/8056889f-2b14-4782-bb25-b4e8896ab65b.jpg\",\"img/0867/2e1a0b58-cdb1-4107-a14e-452530d7b9b0.jpg\"]","trial_type":"similarity","trial_index":7,"time_elapsed":88345,"internal_node_id":"0.0-6.0-1.0"},{"sim_score":6,"rt":7250,"stimulus":"[\"img/0766/71b81ebd-0937-4d7f-b8bf-c4e46a4728fd.jpg\",\"img/0898/6cd3830b-d44e-4915-be2b-88d31424b91c.jpg\"]","trial_type":"similarity","trial_index":8,"time_elapsed":96601,"internal_node_id":"0.0-6.0-2.0"},{"sim_score":3,"rt":4276,"stimulus":"[\"img/0902/962f645e-9b55-4628-9b50-c703422bfe1a.jpg\",\"img/0881/e6746727-7f89-47ec-b939-d98abe78372d.jpg\"]","trial_type":"similarity","trial_index":9,"time_elapsed":101891,"internal_node_id":"0.0-6.0-3.0"},{"sim_score":7,"rt":3062,"stimulus":"[\"img/0894/133a1636-d123-4893-873c-1718050f832a.jpg\",\"img/0894/38f5931f-926d-414e-b498-66b188978b7a.jpg\"]","trial_type":"similarity","trial_index":10,"time_elapsed":105974,"internal_node_id":"0.0-6.0-4.0"},{"sim_score":3,"rt":4814,"stimulus":"[\"img/0874/31e22c7c-99aa-40b1-bf03-dd73fa2df4d6.jpg\",\"img/0899/d60714ae-98d7-4564-8c98-94dba1351135.jpg\"]","trial_type":"similarity","trial_index":11,"time_elapsed":111806,"internal_node_id":"0.0-6.0-5.0"},{"sim_score":6,"rt":5129,"stimulus":"[\"img/0904/9b3568cc-3cf7-42be-9df3-fdafde7a58b8.jpg\",\"img/0764/f64dfa83-333d-494c-87b5-73e942f1766e.jpg\"]","trial_type":"similarity","trial_index":12,"time_elapsed":117948,"internal_node_id":"0.0-6.0-6.0"},{"sim_score":6,"rt":4530,"stimulus":"[\"img/0899/565ccdd9-0933-4536-a625-3c0e25a713dd.jpg\",\"img/0898/224c1572-56b9-4f16-a9e4-6f3bc9c114bd.jpg\"]","trial_type":"similarity","trial_index":13,"time_elapsed":123488,"internal_node_id":"0.0-6.0-7.0"},{"sim_score":6,"rt":4873,"stimulus":"[\"img/0874/ca23d307-fc00-4d7d-9106-584c6eb21b4d.jpg\",\"img/0903/36e4ab1f-caa9-40b3-8616-faada076df94.jpg\"]","trial_type":"similarity","trial_index":14,"time_elapsed":129368,"internal_node_id":"0.0-6.0-8.0"},{"sim_score":6,"rt":4012,"stimulus":"[\"img/0881/14236cf2-6b95-48b8-9368-78af09d2d27f.jpg\",\"img/0758/61d64021-9214-4951-bdf8-f871f9827cf9.jpg\"]","trial_type":"similarity","trial_index":15,"time_elapsed":134386,"internal_node_id":"0.0-6.0-9.0"},{"sim_score":5,"rt":4883,"stimulus":"[\"img/0898/a114b375-cb89-44ba-9498-74213f1ecdee.jpg\",\"img/0901/12da1841-e611-435c-9719-109413d536a8.jpg\"]","trial_type":"similarity","trial_index":16,"time_elapsed":140280,"internal_node_id":"0.0-6.0-10.0"},{"sim_score":7,"rt":3676,"stimulus":"[\"img/0903/3e9ee8a5-eb66-47f5-8973-8a5af1ddc87e.jpg\",\"img/0769/f6396414-6788-4d59-9683-de153298d89c.jpg\"]","trial_type":"similarity","trial_index":17,"time_elapsed":144964,"internal_node_id":"0.0-6.0-11.0"},{"sim_score":2,"rt":5245,"stimulus":"[\"img/0764/5d6fa3ce-9083-410c-bbdb-336a49b94cfc.jpg\",\"img/0868/4bd5105a-d2c3-4f82-8c80-57196106ba53.jpg\"]","trial_type":"similarity","trial_index":18,"time_elapsed":151218,"internal_node_id":"0.0-6.0-12.0"},{"sim_score":3,"rt":4619,"stimulus":"[\"img/0867/075e0f95-856b-4cbb-acf5-092393aaf04e.jpg\",\"img/0903/5995f4a8-fa82-46f8-8760-fd7800a5ca34.jpg\"]","trial_type":"similarity","trial_index":19,"time_elapsed":156846,"internal_node_id":"0.0-6.0-13.0"},{"sim_score":3,"rt":3411,"stimulus":"[\"img/0766/989c5c7f-1aff-4442-ac63-9d46acf4a891.jpg\",\"img/0758/dd559618-7f09-4a07-8018-d311c4a5ea29.jpg\"]","trial_type":"similarity","trial_index":20,"time_elapsed":161269,"internal_node_id":"0.0-6.0-14.0"},{"sim_score":3,"rt":4073,"stimulus":"[\"img/0902/3b243e54-0803-4c29-af42-4037c2118495.jpg\",\"img/0860/5bff793e-cbd5-4d7e-b628-0ac2b0e30b64.jpg\"]","trial_type":"similarity","trial_index":21,"time_elapsed":166348,"internal_node_id":"0.0-6.0-15.0"},{"sim_score":2,"rt":3413,"stimulus":"[\"img/0769/82ab9db6-4578-4e79-874f-f09100439f09.jpg\",\"img/0875/dbdd643e-6d0e-4a5c-ab57-b9c29b9c981a.jpg\"]","trial_type":"similarity","trial_index":22,"time_elapsed":170768,"internal_node_id":"0.0-6.0-16.0"},{"sim_score":2,"rt":3123,"stimulus":"[\"img/0904/4e58005d-a2ec-4aaa-b199-445343561396.jpg\",\"img/0866/8efcaa46-83ab-4dee-a35f-850402aa21ae.jpg\"]","trial_type":"similarity","trial_index":23,"time_elapsed":174895,"internal_node_id":"0.0-6.0-17.0"},{"sim_score":5,"rt":4777,"stimulus":"[\"img/0875/42910c99-5463-450a-a0f8-d4d060a11455.jpg\",\"img/0875/5a1e5100-0d94-4fec-bbe9-ca9894d2cf8e.jpg\"]","trial_type":"similarity","trial_index":24,"time_elapsed":180680,"internal_node_id":"0.0-6.0-18.0"},{"sim_score":7,"rt":2924,"stimulus":"[\"img/0758/ddc336e9-a8b6-4bb9-937a-c7e25e0e9250.jpg\",\"img/0758/d540bee6-b460-4c32-ac57-bc282742d7d4.jpg\"]","trial_type":"similarity","trial_index":25,"time_elapsed":184609,"internal_node_id":"0.0-6.0-19.0"},{"sim_score":3,"rt":3995,"stimulus":"[\"img/0902/0c760cc9-10ac-429e-8957-a7d51fc99683.jpg\",\"img/0874/8cdb1c07-1c32-46d2-981c-3636560fa6e5.jpg\"]","trial_type":"similarity","trial_index":26,"time_elapsed":189612,"internal_node_id":"0.0-6.0-20.0"},{"sim_score":6,"rt":3166,"stimulus":"[\"img/0764/17b088f8-3053-4140-b544-d15654cc79ef.jpg\",\"img/0769/96556ef3-7fac-4c9d-8281-1cb0ea5081bc.jpg\"]","trial_type":"similarity","trial_index":27,"time_elapsed":193785,"internal_node_id":"0.0-6.0-21.0"},{"sim_score":3,"rt":5466,"stimulus":"[\"img/0901/b453df0b-4c39-49bb-8ced-6127efffa898.jpg\",\"img/0874/a82926a3-0b43-4add-803c-d5f9ea7798ee.jpg\"]","trial_type":"similarity","trial_index":28,"time_elapsed":200257,"internal_node_id":"0.0-6.0-22.0"},{"sim_score":2,"rt":5742,"stimulus":"[\"img/0875/d59ff733-eaff-4ee2-9443-06954dd0bcb6.jpg\",\"img/0903/776b74ee-a8ab-4ab8-a78d-097c0747538d.jpg\"]","trial_type":"similarity","trial_index":29,"time_elapsed":207007,"internal_node_id":"0.0-6.0-23.0"},{"sim_score":2,"rt":4545,"stimulus":"[\"img/0769/db94b61b-a5a7-4861-9d32-7b02ad194fb0.jpg\",\"img/0881/d1982897-8d8d-4704-a940-1ee5d07a1f15.jpg\"]","trial_type":"similarity","trial_index":30,"time_elapsed":212563,"internal_node_id":"0.0-6.0-24.0"},{"sim_score":2,"rt":3975,"stimulus":"[\"img/0867/db7e032f-162b-46f5-ae67-2b29679adee4.jpg\",\"img/0904/0d17b811-063e-416e-a23c-3b3cfa4fcce5.jpg\"]","trial_type":"similarity","trial_index":31,"time_elapsed":217543,"internal_node_id":"0.0-6.0-25.0"},{"sim_score":2,"rt":4027,"stimulus":"[\"img/0860/5383b320-1518-4095-a58e-5cc1ae30b64c.jpg\",\"img/0881/f8bd891e-aa09-4782-89db-33e7cb2b0cf1.jpg\"]","trial_type":"similarity","trial_index":32,"time_elapsed":222579,"internal_node_id":"0.0-6.0-26.0"},{"sim_score":7,"rt":5003,"stimulus":"[\"img/0866/620cd1aa-0800-4414-8f6e-90342e7a99ad.jpg\",\"img/0866/11a1d141-be5e-443c-98c1-a9d4d9e3dec0.jpg\"]","trial_type":"similarity","trial_index":33,"time_elapsed":228591,"internal_node_id":"0.0-6.0-27.0"},{"sim_score":2,"rt":3178,"stimulus":"[\"img/0764/23ea9375-f801-4a96-9925-7d453da887c7.jpg\",\"img/0862/4f0a3b4c-afbf-486e-b248-1d54982f54b4.jpg\"]","trial_type":"similarity","trial_index":34,"time_elapsed":232773,"internal_node_id":"0.0-6.0-28.0"},{"sim_score":2,"rt":3347,"stimulus":"[\"img/0904/5cceabc9-de1d-4c67-989b-c28a4ef77e79.jpg\",\"img/0758/6cd8c362-ae2a-41eb-80a3-3a4f7ace1530.jpg\"]","trial_type":"similarity","trial_index":35,"time_elapsed":237126,"internal_node_id":"0.0-6.0-29.0"},{"sim_score":5,"rt":5176,"stimulus":"[\"img/0894/3664e04c-c6d3-4c9b-afb6-25d89974b174.jpg\",\"img/0899/93494f3b-d539-4075-b027-d82e344563da.jpg\"]","trial_type":"similarity","trial_index":36,"time_elapsed":243312,"internal_node_id":"0.0-6.0-30.0"},{"sim_score":2,"rt":2618,"stimulus":"[\"img/0860/e8b8c51e-1834-4875-8b61-6c5bc9b178bd.jpg\",\"img/0904/0d25eb24-bb20-4e8d-9787-8b489558b4cb.jpg\"]","trial_type":"similarity","trial_index":37,"time_elapsed":246936,"internal_node_id":"0.0-6.0-31.0"},{"sim_score":6,"rt":3245,"stimulus":"[\"img/0874/2c9464dd-8a23-4baa-ac94-1ba3af5c15cc.jpg\",\"img/0881/f7a8cc63-8842-40a4-9ff8-fe530310d62c.jpg\"]","trial_type":"similarity","trial_index":38,"time_elapsed":251186,"internal_node_id":"0.0-6.0-32.0"},{"sim_score":3,"rt":3889,"stimulus":"[\"img/0881/f6bd3b96-dc40-4e99-8681-bc3a35cf896d.jpg\",\"img/0899/66bf4113-ee12-426c-84d2-ea410b6c803e.jpg\"]","trial_type":"similarity","trial_index":39,"time_elapsed":256080,"internal_node_id":"0.0-6.0-33.0"},{"sim_score":3,"rt":3355,"stimulus":"[\"img/0866/a15b02be-11bb-43e3-b0e0-ecc3bd7dfc49.jpg\",\"img/0862/de9ad88c-b522-430a-8ee9-eb06a9f85df5.jpg\"]","trial_type":"similarity","trial_index":40,"time_elapsed":260439,"internal_node_id":"0.0-6.0-34.0"},{"sim_score":2,"rt":3588,"stimulus":"[\"img/0868/c8ac40c7-6904-4e13-8d61-c75d3052dc4e.jpg\",\"img/0894/2d2db7b3-e8a3-499b-b63a-14f51bf73882.jpg\"]","trial_type":"similarity","trial_index":41,"time_elapsed":265035,"internal_node_id":"0.0-6.0-35.0"},{"sim_score":6,"rt":3473,"stimulus":"[\"img/0860/d9a0d117-6d1d-41c0-8fec-9aff0fd9e9f2.jpg\",\"img/0860/94ef7afc-e0e6-4a15-98c6-0bfac82bc832.jpg\"]","trial_type":"similarity","trial_index":42,"time_elapsed":269516,"internal_node_id":"0.0-6.0-36.0"},{"sim_score":2,"rt":3877,"stimulus":"[\"img/0862/ba89835a-408c-480b-8594-ed4ffa97eb5c.jpg\",\"img/0864/5f74a653-3bdc-4308-8cca-ac667dc22e1f.jpg\"]","trial_type":"similarity","trial_index":43,"time_elapsed":274397,"internal_node_id":"0.0-6.0-37.0"},{"sim_score":1,"rt":4734,"stimulus":"[\"img/0766/51d3aab4-3d09-4dda-b99d-3dc7aaabc6f2.jpg\",\"img/0866/c446214b-a368-4c65-ae39-ea46894256ab.jpg\"]","trial_type":"similarity","trial_index":44,"time_elapsed":280136,"internal_node_id":"0.0-6.0-38.0"},{"sim_score":1,"rt":2908,"stimulus":"[\"img/0875/cff79b3a-a797-4393-9757-6275f999ec04.jpg\",\"img/0898/01bfe666-3510-4fc7-964f-d00d28732dc8.jpg\"]","trial_type":"similarity","trial_index":45,"time_elapsed":284049,"internal_node_id":"0.0-6.0-39.0"},{"sim_score":5,"rt":4598,"stimulus":"[\"img/0766/a0270213-fa0e-4972-8b56-228c3e01ff90.jpg\",\"img/0769/3adfa417-3b90-4aab-b437-5eaa474189cb.jpg\"]","trial_type":"similarity","trial_index":46,"time_elapsed":289653,"internal_node_id":"0.0-6.0-40.0"},{"sim_score":1,"rt":2885,"stimulus":"[\"img/0874/7e4f2150-3b59-4a36-b5da-a4e0ba410531.jpg\",\"img/0764/03c07b98-3f18-4b71-bb70-ecff564a78d1.jpg\"]","trial_type":"similarity","trial_index":47,"time_elapsed":311314,"internal_node_id":"0.0-6.0-41.0"},{"sim_score":1,"rt":2760,"stimulus":"[\"img/0868/77091fc7-a590-4ebb-b915-fdb2483a2399.jpg\",\"img/0902/8065aa6b-4aef-4368-afa2-02c6465ca582.jpg\"]","trial_type":"similarity","trial_index":48,"time_elapsed":315081,"internal_node_id":"0.0-6.0-42.0"},{"sim_score":1,"rt":4030,"stimulus":"[\"img/0875/3ecb367d-e9eb-4826-8aaa-7aa72fb98019.jpg\",\"img/0899/5b56dd3e-3f49-47cc-af84-16da6457753b.jpg\"]","trial_type":"similarity","trial_index":49,"time_elapsed":320121,"internal_node_id":"0.0-6.0-43.0"},{"sim_score":5,"rt":5884,"stimulus":"[\"img/0866/bf14b5bd-fb55-47db-86b9-4f8aeb9a6dad.jpg\",\"img/0860/71e1aad0-2cdf-43bb-94a4-a8c016997c30.jpg\"]","trial_type":"similarity","trial_index":50,"time_elapsed":327014,"internal_node_id":"0.0-6.0-44.0"},{"sim_score":5,"rt":3457,"stimulus":"[\"img/0766/d5d38751-8fa5-476f-93e9-86ed2d9045ef.jpg\",\"img/0903/f10e9eb5-0c21-4a6a-944c-5f10a6d0fa4d.jpg\"]","trial_type":"similarity","trial_index":51,"time_elapsed":331483,"internal_node_id":"0.0-6.0-45.0"},{"sim_score":5,"rt":4984,"stimulus":"[\"img/0901/71e551a2-9ce2-409c-9c7c-dd556a0791e9.jpg\",\"img/0904/25365108-e038-4021-aac9-797f2063b337.jpg\"]","trial_type":"similarity","trial_index":52,"time_elapsed":337480,"internal_node_id":"0.0-6.0-46.0"},{"sim_score":1,"rt":3682,"stimulus":"[\"img/0758/e1ba5e53-addc-436a-b428-d34fc1b130dc.jpg\",\"img/0902/794606a0-d8a8-4e58-8bf8-9d114ed5a548.jpg\"]","trial_type":"similarity","trial_index":53,"time_elapsed":342169,"internal_node_id":"0.0-6.0-47.0"},{"sim_score":7,"rt":3763,"stimulus":"[\"img/0764/e30dba15-e68a-4659-89db-e1654b52fe02.jpg\",\"img/0764/958b8576-3a3b-4acc-96dc-06b74de69f37.jpg\"]","trial_type":"similarity","trial_index":54,"time_elapsed":346939,"internal_node_id":"0.0-6.0-48.0"},{"sim_score":1,"rt":3851,"stimulus":"[\"img/0866/386235d2-6857-41e7-88a8-25cfc3430025.jpg\",\"img/0902/31abfa33-7cdb-44ad-968e-9f7b324d577a.jpg\"]","trial_type":"similarity","trial_index":55,"time_elapsed":351798,"internal_node_id":"0.0-6.0-49.0"},{"sim_score":1,"rt":2979,"stimulus":"[\"img/0764/974d52cc-6318-4e7a-b294-2f3e92ff800f.jpg\",\"img/0758/65d426d6-3ff6-415d-8654-a43b83ecc4fe.jpg\"]","trial_type":"similarity","trial_index":56,"time_elapsed":355784,"internal_node_id":"0.0-6.0-50.0"},{"sim_score":5,"rt":4741,"stimulus":"[\"img/0898/a8f16b02-e19f-423b-86c3-a36562ae1f9b.jpg\",\"img/0894/11674fa4-285d-44e2-939f-2228c6a64080.jpg\"]","trial_type":"similarity","trial_index":57,"time_elapsed":361542,"internal_node_id":"0.0-6.0-51.0"},{"sim_score":3,"rt":5290,"stimulus":"[\"img/0875/34132396-d896-4c2d-8087-646dd867e769.jpg\",\"img/0866/d266fece-59b3-46fa-b69f-96f6efb81b59.jpg\"]","trial_type":"similarity","trial_index":58,"time_elapsed":367844,"internal_node_id":"0.0-6.0-52.0"},{"sim_score":7,"rt":3175,"stimulus":"[\"img/0904/696ebb60-8891-417a-91fd-c53218907a95.jpg\",\"img/0904/fe746a3f-8458-48d0-8a13-8cba2a9df9f8.jpg\"]","trial_type":"similarity","trial_index":59,"time_elapsed":372024,"internal_node_id":"0.0-6.0-53.0"},{"sim_score":6,"rt":2688,"stimulus":"[\"img/0769/0fe124d3-bcad-45f6-b64d-8f6eb8ee5251.jpg\",\"img/0769/7c50e5f5-cc38-4d48-b009-fbe17bcea61c.jpg\"]","trial_type":"similarity","trial_index":60,"time_elapsed":375721,"internal_node_id":"0.0-6.0-54.0"},{"sim_score":1,"rt":2546,"stimulus":"[\"img/0898/b2732712-71c2-45d8-834f-2b2ed5504910.jpg\",\"img/0758/2fa3e613-e676-4e6e-bd12-705327eeb3e1.jpg\"]","trial_type":"similarity","trial_index":61,"time_elapsed":379279,"internal_node_id":"0.0-6.0-55.0"},{"sim_score":1,"rt":3364,"stimulus":"[\"img/0769/4680bcc3-8fbc-4643-8f9a-12aa0e780b64.jpg\",\"img/0902/51493fab-2a10-4385-aa88-bee3db441626.jpg\"]","trial_type":"similarity","trial_index":62,"time_elapsed":383648,"internal_node_id":"0.0-6.0-56.0"},{"sim_score":5,"rt":4171,"stimulus":"[\"img/0864/8ddd2e30-a1d0-479f-9cbe-591213023893.jpg\",\"img/0881/5fe04dd0-5c74-47b7-99c8-b068db9ca26a.jpg\"]","trial_type":"similarity","trial_index":63,"time_elapsed":388827,"internal_node_id":"0.0-6.0-57.0"},{"sim_score":5,"rt":2746,"stimulus":"[\"img/0758/caa93da2-9edf-49fa-96b9-32dedd8f5078.jpg\",\"img/0868/4e626425-63c8-484a-8a1d-e66ee4e0bef8.jpg\"]","trial_type":"similarity","trial_index":64,"time_elapsed":392581,"internal_node_id":"0.0-6.0-58.0"},{"sim_score":2,"rt":3689,"stimulus":"[\"img/0862/e697469a-ec19-4414-b972-7b9f3564785b.jpg\",\"img/0769/1afb527f-9887-428c-bd26-a12c2f9efb68.jpg\"]","trial_type":"similarity","trial_index":65,"time_elapsed":397278,"internal_node_id":"0.0-6.0-59.0"},{"sim_score":6,"rt":2766,"stimulus":"[\"img/0764/438c0217-036f-43c9-9b87-f43144e46011.jpg\",\"img/0903/6378ee1e-3d2b-48d2-87be-bebda32c8268.jpg\"]","trial_type":"similarity","trial_index":66,"time_elapsed":401050,"internal_node_id":"0.0-6.0-60.0"},{"sim_score":7,"rt":3787,"stimulus":"[\"img/0899/d8f2dd94-570e-4e8c-a087-d96090fb9e8c.jpg\",\"img/0899/56a605c3-d0a2-4215-89e1-779279d85a7c.jpg\"]","trial_type":"similarity","trial_index":67,"time_elapsed":405842,"internal_node_id":"0.0-6.0-61.0"},{"sim_score":1,"rt":5562,"stimulus":"[\"img/0860/15b24a61-25be-4356-9eac-5ce95d0cb4a4.jpg\",\"img/0875/99698b4d-b4a1-44bc-8c83-8ea755bbbf61.jpg\"]","trial_type":"similarity","trial_index":68,"time_elapsed":412411,"internal_node_id":"0.0-6.0-62.0"},{"sim_score":6,"rt":6086,"stimulus":"[\"img/0868/d6d1f30d-4323-435a-b194-7892521bc57e.jpg\",\"img/0874/a3bc679d-619f-4db6-bb68-116dcb757d9c.jpg\"]","trial_type":"similarity","trial_index":69,"time_elapsed":419502,"internal_node_id":"0.0-6.0-63.0"},{"sim_score":5,"rt":5133,"stimulus":"[\"img/0758/3ddd05d3-557e-4ee7-8b78-9d2d681d8ae2.jpg\",\"img/0862/92fcd8a4-8193-4a6a-ae09-dd4a6338b0df.jpg\"]","trial_type":"similarity","trial_index":70,"time_elapsed":425650,"internal_node_id":"0.0-6.0-64.0"},{"sim_score":5,"rt":4829,"stimulus":"[\"img/0904/73920552-103b-4c9c-9ece-e0b8376b4504.jpg\",\"img/0898/0c7dde4f-efce-4b7a-9387-6921635b7890.jpg\"]","trial_type":"similarity","trial_index":71,"time_elapsed":431485,"internal_node_id":"0.0-6.0-65.0"},{"sim_score":5,"rt":4371,"stimulus":"[\"img/0881/84397291-bc14-4fbf-90e8-241e486ab0fe.jpg\",\"img/0866/23a224f3-2012-4fc8-8e0f-3c36f8de27fd.jpg\"]","trial_type":"similarity","trial_index":72,"time_elapsed":436861,"internal_node_id":"0.0-6.0-66.0"},{"sim_score":1,"rt":4627,"stimulus":"[\"img/0867/6e19c858-b606-45b2-a4c6-910a73f1d82c.jpg\",\"img/0898/661621d4-a14e-487c-8c74-354134a29710.jpg\"]","trial_type":"similarity","trial_index":73,"time_elapsed":442497,"internal_node_id":"0.0-6.0-67.0"},{"sim_score":3,"rt":8154,"stimulus":"[\"img/0902/6730b12a-f0a7-4587-8c10-a32fae16565b.jpg\",\"img/0764/50f1b062-d608-4bc0-ab25-b872dcf2ed93.jpg\"]","trial_type":"similarity","trial_index":74,"time_elapsed":451655,"internal_node_id":"0.0-6.0-68.0"},{"sim_score":6,"rt":3637,"stimulus":"[\"img/0875/ebf7653f-ff45-4e9f-af58-2c042ab3cd2b.jpg\",\"img/0867/de92135f-5b65-4ed9-b245-188292c7c2f8.jpg\"]","trial_type":"similarity","trial_index":75,"time_elapsed":456297,"internal_node_id":"0.0-6.0-69.0"},{"sim_score":7,"rt":3121,"stimulus":"[\"img/0766/d50d734f-285c-4840-bc7a-c8dd4aff391e.jpg\",\"img/0764/21e3292f-01ad-4238-828b-61b817857d16.jpg\"]","trial_type":"similarity","trial_index":76,"time_elapsed":460423,"internal_node_id":"0.0-6.0-70.0"},{"sim_score":1,"rt":4055,"stimulus":"[\"img/0894/a3d4170b-b7d8-40e3-955f-87e76ed745fc.jpg\",\"img/0867/a498eef3-9fa4-4ab2-9778-4ae82ac40dc5.jpg\"]","trial_type":"similarity","trial_index":77,"time_elapsed":465485,"internal_node_id":"0.0-6.0-71.0"},{"sim_score":1,"rt":4870,"stimulus":"[\"img/0875/2c361b79-c3d1-4eda-812e-bf03192407bf.jpg\",\"img/0764/da207710-e7e4-4f42-b2e6-99b5f357f433.jpg\"]","trial_type":"similarity","trial_index":78,"time_elapsed":471358,"internal_node_id":"0.0-6.0-72.0"},{"sim_score":6,"rt":4304,"stimulus":"[\"img/0867/1719a35d-f085-48c0-9099-16c94fe418b4.jpg\",\"img/0866/93a27239-8317-4e08-98ca-d8b1ff298e07.jpg\"]","trial_type":"similarity","trial_index":79,"time_elapsed":476667,"internal_node_id":"0.0-6.0-73.0"},{"sim_score":2,"rt":4363,"stimulus":"[\"img/0903/43ffd882-077a-40dd-a264-e58d519420a1.jpg\",\"img/0758/e38fd80d-18d0-42f3-b848-f930788e8bd7.jpg\"]","trial_type":"similarity","trial_index":80,"time_elapsed":482046,"internal_node_id":"0.0-6.0-74.0"},{"sim_score":1,"rt":4801,"stimulus":"[\"img/0766/ef3b15ce-abb7-4292-ad93-aec8e8b50520.jpg\",\"img/0868/6a28c3b0-3d76-498a-9fb7-ddafc665eca8.jpg\"]","trial_type":"similarity","trial_index":81,"time_elapsed":487858,"internal_node_id":"0.0-6.0-75.0"},{"sim_score":2,"rt":4246,"stimulus":"[\"img/0874/bf14b896-e930-4fd9-9c05-2e83317a2773.jpg\",\"img/0766/5d6e0d1d-4369-41f0-a64c-91f3503055c7.jpg\"]","trial_type":"similarity","trial_index":82,"time_elapsed":493109,"internal_node_id":"0.0-6.0-76.0"},{"sim_score":5,"rt":2976,"stimulus":"[\"img/0881/633c6f40-56d9-4b48-bf1c-ecd83116eabb.jpg\",\"img/0868/0d3abd3a-b6c3-4584-a9f7-e2da63748b3d.jpg\"]","trial_type":"similarity","trial_index":83,"time_elapsed":497092,"internal_node_id":"0.0-6.0-77.0"},{"sim_score":1,"rt":3031,"stimulus":"[\"img/0758/7ffbc76b-1fc1-432c-8f7e-9ec8d1b3f643.jpg\",\"img/0901/c6c877e0-dd63-4e00-9657-33af29d55aab.jpg\"]","trial_type":"similarity","trial_index":84,"time_elapsed":501128,"internal_node_id":"0.0-6.0-78.0"},{"sim_score":1,"rt":3863,"stimulus":"[\"img/0881/405484ae-0d00-4b05-bc57-6420a36adfac.jpg\",\"img/0898/68476bbb-34a1-42d9-8bc1-deab783d4489.jpg\"]","trial_type":"similarity","trial_index":85,"time_elapsed":505995,"internal_node_id":"0.0-6.0-79.0"},{"sim_score":5,"rt":3730,"stimulus":"[\"img/0867/f8488a47-94ee-4166-952c-44e16cf172f6.jpg\",\"img/0758/20497cbe-ddae-489e-86e2-ab06985ed07c.jpg\"]","trial_type":"similarity","trial_index":86,"time_elapsed":510730,"internal_node_id":"0.0-6.0-80.0"},{"sim_score":5,"rt":5016,"stimulus":"[\"img/0769/75f7e514-0548-4329-b1e4-93c05e74f038.jpg\",\"img/0899/8de08897-b430-42fe-9d42-840670b80f94.jpg\"]","trial_type":"similarity","trial_index":87,"time_elapsed":516751,"internal_node_id":"0.0-6.0-81.0"},{"sim_score":7,"rt":4340,"stimulus":"[\"img/0903/150cf64c-0bd2-4674-abbb-a1387cf1f3e9.jpg\",\"img/0903/0fb24af7-9a26-4e9d-aadc-959a36f683e2.jpg\"]","trial_type":"similarity","trial_index":88,"time_elapsed":522096,"internal_node_id":"0.0-6.0-82.0"},{"sim_score":1,"rt":2658,"stimulus":"[\"img/0867/7d1c497b-c1b3-4ed8-abb5-d7f73306015f.jpg\",\"img/0766/fd064894-7147-4af5-97e9-2089d5472656.jpg\"]","trial_type":"similarity","trial_index":89,"time_elapsed":528233,"internal_node_id":"0.0-6.0-83.0"},{"sim_score":2,"rt":5356,"stimulus":"[\"img/0902/cdec1bc6-7f90-4f72-9e01-f5a4111bac1d.jpg\",\"img/0867/a749dddb-69f0-44a6-acdc-2bf295cf6dcc.jpg\"]","trial_type":"similarity","trial_index":90,"time_elapsed":534595,"internal_node_id":"0.0-6.0-84.0"},{"sim_score":1,"rt":2825,"stimulus":"[\"img/0901/effc03f6-8f9d-46db-a66c-16fc83891c5c.jpg\",\"img/0875/f87b67d7-c33e-40d1-b281-248c4be1cb6e.jpg\"]","trial_type":"similarity","trial_index":91,"time_elapsed":538424,"internal_node_id":"0.0-6.0-85.0"},{"sim_score":1,"rt":3184,"stimulus":"[\"img/0764/fb92924f-5cfe-4b89-b130-0cce8cc5636b.jpg\",\"img/0866/be24ab58-230e-4db8-9f45-ff04c9aec6bb.jpg\"]","trial_type":"similarity","trial_index":92,"time_elapsed":542612,"internal_node_id":"0.0-6.0-86.0"},{"sim_score":5,"rt":3423,"stimulus":"[\"img/0901/d61f267a-c492-4db6-9bfb-61efd49cf072.jpg\",\"img/0894/b422d5c6-3c5a-49ae-a53e-7e88ac993f49.jpg\"]","trial_type":"similarity","trial_index":93,"time_elapsed":547041,"internal_node_id":"0.0-6.0-87.0"},{"sim_score":5,"rt":3510,"stimulus":"[\"img/0898/08c72dac-f8ad-407a-9ce6-8c9a5d679c3a.jpg\",\"img/0769/e31b3bd8-efcb-413e-aa8c-75fac2b8f2ac.jpg\"]","trial_type":"similarity","trial_index":94,"time_elapsed":551565,"internal_node_id":"0.0-6.0-88.0"},{"sim_score":7,"rt":4863,"stimulus":"[\"img/0769/f73c5138-2f4c-4354-981c-129dff9cc734.jpg\",\"img/0894/4739e06d-c31e-4bf1-bf91-c97fa9afb456.jpg\"]","trial_type":"similarity","trial_index":95,"time_elapsed":557434,"internal_node_id":"0.0-6.0-89.0"},{"sim_score":1,"rt":5151,"stimulus":"[\"img/0862/f188d4f0-76a4-4102-818c-a209969d73a5.jpg\",\"img/0874/93d1f8dc-acf2-4f03-bd8d-8ec35df276ed.jpg\"]","trial_type":"similarity","trial_index":96,"time_elapsed":563589,"internal_node_id":"0.0-6.0-90.0"},{"sim_score":7,"rt":3896,"stimulus":"[\"img/0894/0130a973-d993-41f8-874a-fee23d9ac11f.jpg\",\"img/0766/2da002a4-05c9-4f5c-9ed7-433b4183e273.jpg\"]","trial_type":"similarity","trial_index":97,"time_elapsed":568488,"internal_node_id":"0.0-6.0-91.0"},{"sim_score":6,"rt":5076,"stimulus":"[\"img/0874/adf9a8f1-c40b-402b-b95b-1e85a54a7b62.jpg\",\"img/0867/98d8cd96-1476-4fe0-a3a3-04f875500a1b.jpg\"]","trial_type":"similarity","trial_index":98,"time_elapsed":574569,"internal_node_id":"0.0-6.0-92.0"},{"sim_score":1,"rt":4044,"stimulus":"[\"img/0899/f95cbdb4-f804-4f5d-ad76-373ad343e658.jpg\",\"img/0868/8b0b8473-e2c0-4331-aa56-c3a5c29369da.jpg\"]","trial_type":"similarity","trial_index":99,"time_elapsed":579617,"internal_node_id":"0.0-6.0-93.0"},{"sim_score":2,"rt":3146,"stimulus":"[\"img/0903/97a42b34-5462-4665-88c7-83c014b33d24.jpg\",\"img/0862/00c06b00-3b73-44e9-bc1e-c5aafb438321.jpg\"]","trial_type":"similarity","trial_index":100,"time_elapsed":583765,"internal_node_id":"0.0-6.0-94.0"},{"sim_score":5,"rt":5175,"stimulus":"[\"img/0899/66ab3178-c3fe-4455-ad17-d5952b08e018.jpg\",\"img/0766/214866ee-423d-4629-9bb9-41572bdc7dac.jpg\"]","trial_type":"similarity","trial_index":101,"time_elapsed":589949,"internal_node_id":"0.0-6.0-95.0"},{"sim_score":6,"rt":2940,"stimulus":"[\"img/0867/5e07b34d-b40f-4b1c-ac10-49975bace45f.jpg\",\"img/0868/fd307a36-9a3a-47d7-ab7c-f810d0b35040.jpg\"]","trial_type":"similarity","trial_index":102,"time_elapsed":593892,"internal_node_id":"0.0-6.0-96.0"},{"sim_score":2,"rt":4607,"stimulus":"[\"img/0862/e0f1a4e9-e1b6-45f7-af67-89f334e6630d.jpg\",\"img/0901/1e23ffbd-19de-4c4f-aa23-c54aaa3319a3.jpg\"]","trial_type":"similarity","trial_index":103,"time_elapsed":599504,"internal_node_id":"0.0-6.0-97.0"},{"sim_score":1,"rt":2463,"stimulus":"[\"img/0875/2e13d160-eea1-416b-aff1-d37ab99ecc1d.jpg\",\"img/0766/dd3e18d0-0c98-4d05-b850-69976ee8cd75.jpg\"]","trial_type":"similarity","trial_index":104,"time_elapsed":602975,"internal_node_id":"0.0-6.0-98.0"},{"sim_score":6,"rt":3890,"stimulus":"[\"img/0758/a085b443-b5d7-4cb2-9ad4-b9dab0fc23f1.jpg\",\"img/0874/995f0332-0439-4eb4-add3-957335dbf6d9.jpg\"]","trial_type":"similarity","trial_index":105,"time_elapsed":607874,"internal_node_id":"0.0-6.0-99.0"},{"sim_score":1,"rt":2634,"stimulus":"[\"img/0904/96e503ea-6630-4996-85f2-0237688ce441.jpg\",\"img/0868/09a9ef4d-d000-4cfa-a6aa-ebec7c2edeb4.jpg\"]","trial_type":"similarity","trial_index":106,"time_elapsed":611512,"internal_node_id":"0.0-6.0-100.0"},{"sim_score":1,"rt":3547,"stimulus":"[\"img/0903/680ed18e-b311-4ecf-9b00-7dea32128334.jpg\",\"img/0866/4a87911a-d5be-4d4e-ab8e-3d1f581bf507.jpg\"]","trial_type":"similarity","trial_index":107,"time_elapsed":616066,"internal_node_id":"0.0-6.0-101.0"},{"sim_score":1,"rt":2955,"stimulus":"[\"img/0868/5fa7f9d0-f0e5-454c-8224-74d964818f56.jpg\",\"img/0769/4a1d0b52-3fe8-40fb-bb1c-c814fe49a68c.jpg\"]","trial_type":"similarity","trial_index":108,"time_elapsed":620027,"internal_node_id":"0.0-6.0-102.0"},{"sim_score":6,"rt":3516,"stimulus":"[\"img/0902/9f543501-3cf1-45a7-a2f1-eeca87cc15b9.jpg\",\"img/0899/8abe6c69-822c-436c-9bf2-96c818b49ba5.jpg\"]","trial_type":"similarity","trial_index":109,"time_elapsed":624550,"internal_node_id":"0.0-6.0-103.0"},{"sim_score":1,"rt":3449,"stimulus":"[\"img/0868/15dd6fd7-791e-4b53-b203-195d617521a4.jpg\",\"img/0862/99a99e39-8355-44ec-b993-e7bcec111e1c.jpg\"]","trial_type":"similarity","trial_index":110,"time_elapsed":629003,"internal_node_id":"0.0-6.0-104.0"},{"sim_score":7,"rt":4129,"stimulus":"[\"img/0903/59defeb8-98bd-4570-a2f8-9bd189e68ef4.jpg\",\"img/0894/b2d2f66e-e480-46da-a02a-6d0c6b285d78.jpg\"]","trial_type":"similarity","trial_index":111,"time_elapsed":634138,"internal_node_id":"0.0-6.0-105.0"},{"sim_score":2,"rt":4740,"stimulus":"[\"img/0864/a248adb3-c70b-4652-b7a3-776d2a1e904b.jpg\",\"img/0874/85eb9b8a-c4c6-4e5a-b8e7-363a87a82054.jpg\"]","trial_type":"similarity","trial_index":112,"time_elapsed":639882,"internal_node_id":"0.0-6.0-106.0"},{"sim_score":2,"rt":5135,"stimulus":"[\"img/0862/53a9cf7c-93c4-41b9-952f-07d17f7a17b2.jpg\",\"img/0902/cf9dee9c-2bdf-4d64-9302-97f1660fe52c.jpg\"]","trial_type":"similarity","trial_index":113,"time_elapsed":646022,"internal_node_id":"0.0-6.0-107.0"},{"sim_score":7,"rt":2654,"stimulus":"[\"img/0904/e9423a8c-f946-43ad-ab7b-931acef870e2.jpg\",\"img/0903/70d764d9-1f35-4da7-a35d-4cc39834d270.jpg\"]","trial_type":"similarity","trial_index":114,"time_elapsed":649685,"internal_node_id":"0.0-6.0-108.0"},{"sim_score":1,"rt":4379,"stimulus":"[\"img/0764/e48e6c6f-9e28-420f-836a-8043b2319bb4.jpg\",\"img/0864/efcfbb1b-8197-44c9-b723-40d6c608dd3c.jpg\"]","trial_type":"similarity","trial_index":115,"time_elapsed":655071,"internal_node_id":"0.0-6.0-109.0"},{"sim_score":1,"rt":2976,"stimulus":"[\"img/0866/a04d37f0-99dd-478a-b6c6-58b215138f84.jpg\",\"img/0894/e5edf723-72a5-4673-8441-6c1734a8929b.jpg\"]","trial_type":"similarity","trial_index":116,"time_elapsed":659054,"internal_node_id":"0.0-6.0-110.0"},{"sim_score":2,"rt":12347,"stimulus":"[\"img/0899/9de5e857-aa9a-4e0c-8ba2-46d79bd069a4.jpg\",\"img/0903/ea75f240-fb62-4edb-a709-83e858b202c0.jpg\"]","trial_type":"similarity","trial_index":117,"time_elapsed":672405,"internal_node_id":"0.0-6.0-111.0"},{"sim_score":7,"rt":2924,"stimulus":"[\"img/0902/94ee9c53-a9a2-4f95-b9b7-794a5fc62bb6.jpg\",\"img/0904/5aec2708-cf14-4a58-aa30-9a8a61c1be0e.jpg\"]","trial_type":"similarity","trial_index":118,"time_elapsed":676333,"internal_node_id":"0.0-6.0-112.0"},{"sim_score":6,"rt":4677,"stimulus":"[\"img/0864/3d4de670-b290-4285-9c3d-12a0e3af44e9.jpg\",\"img/0860/61fb959d-d4d9-4de4-9e4e-4fa62b4cfcd5.jpg\"]","trial_type":"similarity","trial_index":119,"time_elapsed":682015,"internal_node_id":"0.0-6.0-113.0"},{"sim_score":3,"rt":4579,"stimulus":"[\"img/0860/4f695df5-afac-4da7-9875-fee39b0b24ad.jpg\",\"img/0899/0433d056-aa30-4f8a-9aa1-abbb951e4edd.jpg\"]","trial_type":"similarity","trial_index":120,"time_elapsed":687597,"internal_node_id":"0.0-6.0-114.0"},{"sim_score":5,"rt":5758,"stimulus":"[\"img/0881/20af39f5-373d-4a55-a437-2dc4c0382c46.jpg\",\"img/0903/4cbdc464-e562-4ec2-9bb6-15f894fdf528.jpg\"]","trial_type":"similarity","trial_index":121,"time_elapsed":694359,"internal_node_id":"0.0-6.0-115.0"},{"sim_score":1,"rt":3411,"stimulus":"[\"img/0894/e6385e52-6c35-43bd-b0af-bc803d107b11.jpg\",\"img/0874/eba003b4-cdab-4eee-8bc3-f064c7d94165.jpg\"]","trial_type":"similarity","trial_index":122,"time_elapsed":698773,"internal_node_id":"0.0-6.0-116.0"},{"sim_score":1,"rt":3787,"stimulus":"[\"img/0881/c843e210-bdfe-4a7c-8bbe-fcea1f90fe1c.jpg\",\"img/0862/1c20f772-3a51-4a80-aac0-f57dc9f86c28.jpg\"]","trial_type":"similarity","trial_index":123,"time_elapsed":703563,"internal_node_id":"0.0-6.0-117.0"},{"sim_score":6,"rt":2885,"stimulus":"[\"img/0868/179a5502-ab5c-478e-8263-5a1fbcc101d2.jpg\",\"img/0875/e7e66b13-b573-431e-b85e-288ce04a35a3.jpg\"]","trial_type":"similarity","trial_index":124,"time_elapsed":707452,"internal_node_id":"0.0-6.0-118.0"},{"sim_score":5,"rt":6402,"stimulus":"[\"img/0860/c5ccd1a4-4bb7-48e1-9b25-72cfaf06909b.jpg\",\"img/0758/7fba58df-2a7a-4b76-8a8f-62739f97f271.jpg\"]","trial_type":"similarity","trial_index":125,"time_elapsed":714858,"internal_node_id":"0.0-6.0-119.0"},{"sim_score":6,"rt":3104,"stimulus":"[\"img/0864/65210d57-1153-4657-886a-32e758f49b4a.jpg\",\"img/0875/5a716432-c6ca-4b1c-955a-2b8ac25198ee.jpg\"]","trial_type":"similarity","trial_index":126,"time_elapsed":718976,"internal_node_id":"0.0-6.0-120.0"},{"sim_score":2,"rt":4693,"stimulus":"[\"img/0898/cd3aaa3f-efa9-4ab3-8d6f-a6a9273ddf42.jpg\",\"img/0866/02f5e6b9-52b7-448c-9708-5b460d0c9a23.jpg\"]","trial_type":"similarity","trial_index":127,"time_elapsed":724673,"internal_node_id":"0.0-6.0-121.0"},{"sim_score":5,"rt":5523,"stimulus":"[\"img/0874/767f289c-9814-4496-803f-745cc8913d1f.jpg\",\"img/0904/1d10df11-b5c8-4370-9a6b-097a7f965895.jpg\"]","trial_type":"similarity","trial_index":128,"time_elapsed":731201,"internal_node_id":"0.0-6.0-122.0"},{"sim_score":2,"rt":3731,"stimulus":"[\"img/0904/d23dd7be-7fe8-4435-82f7-bd592c01e6a1.jpg\",\"img/0864/9b2490c5-a282-400a-9736-e1a0ecbf1cb7.jpg\"]","trial_type":"similarity","trial_index":129,"time_elapsed":735936,"internal_node_id":"0.0-6.0-123.0"},{"sim_score":6,"rt":2390,"stimulus":"[\"img/0894/792c83e9-a747-4000-bc72-5663d2439edb.jpg\",\"img/0902/af40b98b-3d23-4d95-b401-49ba5783ce39.jpg\"]","trial_type":"similarity","trial_index":130,"time_elapsed":739333,"internal_node_id":"0.0-6.0-124.0"},{"sim_score":6,"rt":3217,"stimulus":"[\"img/0868/83b4350a-3b70-4cea-b7f5-b5b56f3050a8.jpg\",\"img/0864/ef9cbca0-4be8-435d-ad49-977259e80409.jpg\"]","trial_type":"similarity","trial_index":131,"time_elapsed":6548132,"internal_node_id":"0.0-6.0-125.0"},{"sim_score":3,"rt":3496,"stimulus":"[\"img/0899/1b3457ea-87d4-4946-a01c-aac1863ed46c.jpg\",\"img/0866/0207e9a2-7dbb-40b5-9459-b472aaeceb2a.jpg\"]","trial_type":"similarity","trial_index":132,"time_elapsed":6552649,"internal_node_id":"0.0-6.0-126.0"},{"sim_score":7,"rt":2805,"stimulus":"[\"img/0875/a4935837-7d3c-4df6-88c1-36a94d4991ca.jpg\",\"img/0904/4d7d70a3-9477-4921-bda0-f9531d0a5c5b.jpg\"]","trial_type":"similarity","trial_index":133,"time_elapsed":6556466,"internal_node_id":"0.0-6.0-127.0"},{"sim_score":1,"rt":3828,"stimulus":"[\"img/0867/26611f4e-d694-4460-b7e2-43c62753ddc3.jpg\",\"img/0899/4408c14d-c168-4a7d-96f6-bc87bfb58f83.jpg\"]","trial_type":"similarity","trial_index":134,"time_elapsed":6561305,"internal_node_id":"0.0-6.0-128.0"},{"sim_score":1,"rt":5113,"stimulus":"[\"img/0901/6e2957f8-f5ab-46f4-87cc-bb50155a098b.jpg\",\"img/0867/f26f6b60-f772-4f4c-95a4-addc62cfd692.jpg\"]","trial_type":"similarity","trial_index":135,"time_elapsed":6567427,"internal_node_id":"0.0-6.0-129.0"},{"sim_score":1,"rt":3972,"stimulus":"[\"img/0864/66091c27-e588-4476-8af9-265dc6be4156.jpg\",\"img/0769/458d9c77-b844-40b5-bb1b-1e3bbd4da64e.jpg\"]","trial_type":"similarity","trial_index":136,"time_elapsed":6572409,"internal_node_id":"0.0-6.0-130.0"},{"sim_score":2,"rt":4903,"stimulus":"[\"img/0903/8fcafe03-43df-4c45-9da5-0df3a1eeccc5.jpg\",\"img/0868/d98ca254-b195-477f-b57e-5760a2717db8.jpg\"]","trial_type":"similarity","trial_index":137,"time_elapsed":6578320,"internal_node_id":"0.0-6.0-131.0"},{"sim_score":5,"rt":4514,"stimulus":"[\"img/0864/e336a4c5-6648-4fd7-b2f6-93a3fb83f8c6.jpg\",\"img/0867/cc72ed48-7704-422c-86d6-467a1145287a.jpg\"]","trial_type":"similarity","trial_index":138,"time_elapsed":6583849,"internal_node_id":"0.0-6.0-132.0"},{"sim_score":2,"rt":2565,"stimulus":"[\"img/0901/a2d7b2f6-396b-4d91-8403-de5361c74af7.jpg\",\"img/0860/c7047cd2-7cc1-41b6-8a34-c0986774975f.jpg\"]","trial_type":"similarity","trial_index":139,"time_elapsed":6587421,"internal_node_id":"0.0-6.0-133.0"},{"sim_score":2,"rt":2565,"stimulus":"[\"img/0881/292e9b4b-fca0-4ba8-87f1-4048f9e37b7d.jpg\",\"img/0766/ba35c0fc-4d5b-490d-959e-c94b279cdd02.jpg\"]","trial_type":"similarity","trial_index":140,"time_elapsed":6591053,"internal_node_id":"0.0-6.0-134.0"},{"sim_score":2,"rt":2571,"stimulus":"[\"img/0903/8c358e9e-a4f4-466e-8b93-7aec0d2358e8.jpg\",\"img/0864/0116ca98-293d-4fa6-a93b-5a6144ef64cc.jpg\"]","trial_type":"similarity","trial_index":141,"time_elapsed":6594631,"internal_node_id":"0.0-6.0-135.0"},{"sim_score":2,"rt":4851,"stimulus":"[\"img/0758/d41c06bf-ebaf-454b-91c6-1a17f917b659.jpg\",\"img/0894/7f2f31fd-6618-41c6-b65a-0fd8b2851bc9.jpg\"]","trial_type":"similarity","trial_index":142,"time_elapsed":6600491,"internal_node_id":"0.0-6.0-136.0"},{"sim_score":2,"rt":3652,"stimulus":"[\"img/0769/8c7cf147-1780-4d5c-8ddf-5ea23ff03ac9.jpg\",\"img/0860/8a92e21b-6a32-4e4a-a445-2d5a487ed0a4.jpg\"]","trial_type":"similarity","trial_index":143,"time_elapsed":6605164,"internal_node_id":"0.0-6.0-137.0"},{"sim_score":6,"rt":3695,"stimulus":"[\"img/0904/60d1a521-edf7-4696-9263-f21ac0e62a01.jpg\",\"img/0766/f011ef45-fb48-44b8-8224-867ed2ccf786.jpg\"]","trial_type":"similarity","trial_index":144,"time_elapsed":6609869,"internal_node_id":"0.0-6.0-138.0"},{"sim_score":2,"rt":3086,"stimulus":"[\"img/0868/4a8a45ed-2c4f-421b-9564-409a33ecd26c.jpg\",\"img/0860/c3379ff7-0763-48fe-a1ec-7ea3d611bc7a.jpg\"]","trial_type":"similarity","trial_index":145,"time_elapsed":6613963,"internal_node_id":"0.0-6.0-139.0"},{"sim_score":7,"rt":4300,"stimulus":"[\"img/0758/821c68d3-5cb0-4eae-8659-30e6263fca39.jpg\",\"img/0864/3651d070-2fc5-4848-b6a6-088a2d9ac5c9.jpg\"]","trial_type":"similarity","trial_index":146,"time_elapsed":6619269,"internal_node_id":"0.0-6.0-140.0"},{"sim_score":7,"rt":3709,"stimulus":"[\"img/0867/c66898ba-b71b-4d50-84f9-f7f84853a98d.jpg\",\"img/0867/8ba0c5a7-c7e4-42cf-a80a-543763b90779.jpg\"]","trial_type":"similarity","trial_index":147,"time_elapsed":6623988,"internal_node_id":"0.0-6.0-141.0"},{"sim_score":5,"rt":2722,"stimulus":"[\"img/0898/82231d4c-218b-4d0a-b50d-35a49b524e97.jpg\",\"img/0898/993d8f2d-bef7-4251-a193-0f93a32b7763.jpg\"]","trial_type":"similarity","trial_index":148,"time_elapsed":6627716,"internal_node_id":"0.0-6.0-142.0"},{"sim_score":2,"rt":4361,"stimulus":"[\"img/0866/6f2a90d7-14f1-4f1b-bd64-fc0af6b9fe44.jpg\",\"img/0769/1d8734c4-77ab-4165-9e71-5cfe672ff01c.jpg\"]","trial_type":"similarity","trial_index":149,"time_elapsed":6633082,"internal_node_id":"0.0-6.0-143.0"},{"sim_score":2,"rt":5319,"stimulus":"[\"img/0860/e14d67c1-6d92-4f1e-9257-c8607159c19c.jpg\",\"img/0898/26c41340-15bd-4ead-8fe4-c0d0ddca09c2.jpg\"]","trial_type":"similarity","trial_index":150,"time_elapsed":6639407,"internal_node_id":"0.0-6.0-144.0"},{"sim_score":1,"rt":3480,"stimulus":"[\"img/0766/0bf3793e-c353-45e5-ac6f-753f5f484e10.jpg\",\"img/0864/0f537697-a314-47c3-a8cc-8df23b7e536c.jpg\"]","trial_type":"similarity","trial_index":151,"time_elapsed":6643896,"internal_node_id":"0.0-6.0-145.0"},{"sim_score":1,"rt":4335,"stimulus":"[\"img/0860/702bd09d-df3a-40aa-a267-5f04474305b5.jpg\",\"img/0903/470acfd5-5571-4a7b-b3a4-28d87e098138.jpg\"]","trial_type":"similarity","trial_index":152,"time_elapsed":6649244,"internal_node_id":"0.0-6.0-146.0"},{"sim_score":1,"rt":2349,"stimulus":"[\"img/0867/179ab87a-8eac-4c52-a41f-2e48e3120f09.jpg\",\"img/0764/f9f890e6-3c2f-40cd-84e9-85e0b54cb28e.jpg\"]","trial_type":"similarity","trial_index":153,"time_elapsed":6652598,"internal_node_id":"0.0-6.0-147.0"},{"sim_score":6,"rt":3545,"stimulus":"[\"img/0769/a1ce8d07-ba37-40de-bade-2778805521e0.jpg\",\"img/0904/6291eb43-c10c-4810-a36a-101d09868b04.jpg\"]","trial_type":"similarity","trial_index":154,"time_elapsed":6657148,"internal_node_id":"0.0-6.0-148.0"},{"sim_score":1,"rt":3163,"stimulus":"[\"img/0764/8389e74f-e0e0-435d-945f-da1f4c92ccb6.jpg\",\"img/0901/7d4a3388-488d-4e9b-9d32-9d0def7aae8d.jpg\"]","trial_type":"similarity","trial_index":155,"time_elapsed":6661317,"internal_node_id":"0.0-6.0-149.0"},{"sim_score":5,"rt":8352,"stimulus":"[\"img/0904/da170c1b-9651-4f08-b231-2bdd1d9a046f.jpg\",\"img/0899/7f9d45d0-b2c6-40d3-aa41-c207db2c411b.jpg\"]","trial_type":"similarity","trial_index":156,"time_elapsed":6670676,"internal_node_id":"0.0-6.0-150.0"},{"sim_score":1,"rt":3210,"stimulus":"[\"img/0862/eefa5588-9efd-4591-aa5f-a2e17c7d7bcc.jpg\",\"img/0867/50a1b60e-3a29-44bf-b606-d4bd3746fea9.jpg\"]","trial_type":"similarity","trial_index":157,"time_elapsed":6674891,"internal_node_id":"0.0-6.0-151.0"},{"sim_score":7,"rt":3070,"stimulus":"[\"img/0766/535849cc-ff5d-4df9-8f31-0ce94a97d571.jpg\",\"img/0766/d512b99c-a2dc-40d7-8e86-827323a0cbcf.jpg\"]","trial_type":"similarity","trial_index":158,"time_elapsed":6678965,"internal_node_id":"0.0-6.0-152.0"},{"sim_score":1,"rt":2529,"stimulus":"[\"img/0862/847e5208-38ec-4f36-949c-296cdd7424ee.jpg\",\"img/0894/a98416c0-51e2-4960-85da-d81d8688b9d5.jpg\"]","trial_type":"similarity","trial_index":159,"time_elapsed":6682501,"internal_node_id":"0.0-6.0-153.0"},{"sim_score":6,"rt":3888,"stimulus":"[\"img/0899/fef567a2-c121-4481-9af0-ff108d199bbf.jpg\",\"img/0901/0f670aef-ac36-496d-8142-ee5fdb21dd82.jpg\"]","trial_type":"similarity","trial_index":160,"time_elapsed":6687394,"internal_node_id":"0.0-6.0-154.0"},{"sim_score":5,"rt":4736,"stimulus":"[\"img/0874/c0378dac-9370-439a-8b79-db27c96fb390.jpg\",\"img/0874/29830da7-be5f-44e5-b141-652a0ccf7269.jpg\"]","trial_type":"similarity","trial_index":161,"time_elapsed":6693136,"internal_node_id":"0.0-6.0-155.0"},{"sim_score":2,"rt":3382,"stimulus":"[\"img/0860/8fdba999-b946-4c7d-9891-336018b563ef.jpg\",\"img/0867/c71dc569-f49c-4397-8381-68b8d726736d.jpg\"]","trial_type":"similarity","trial_index":162,"time_elapsed":6697521,"internal_node_id":"0.0-6.0-156.0"},{"sim_score":4,"rt":2744,"stimulus":"[\"img/0901/f469cb1d-6d81-4a45-bab5-cd0b650c2b4f.jpg\",\"img/0881/344de456-b358-4887-bd0e-e4c3278af887.jpg\"]","trial_type":"similarity","trial_index":163,"time_elapsed":6701276,"internal_node_id":"0.0-6.0-157.0"},{"sim_score":5,"rt":3073,"stimulus":"[\"img/0903/b4a0f61e-a964-4b79-a9a7-f767a8f92f34.jpg\",\"img/0902/ca3160ba-ad5d-459f-a1b6-8b4f3c85ecd5.jpg\"]","trial_type":"similarity","trial_index":164,"time_elapsed":6705354,"internal_node_id":"0.0-6.0-158.0"},{"sim_score":2,"rt":6087,"stimulus":"[\"img/0860/4a022222-056d-461c-ab02-39fac9647552.jpg\",\"img/0764/4952d0a0-c9be-471a-8ec7-94a37bf4051d.jpg\"]","trial_type":"similarity","trial_index":165,"time_elapsed":6712446,"internal_node_id":"0.0-6.0-159.0"},{"sim_score":1,"rt":2593,"stimulus":"[\"img/0902/d2c34af0-8c50-437d-8cc3-619195a3e8ba.jpg\",\"img/0875/03c3c331-738b-4446-af92-3d7386b08c2e.jpg\"]","trial_type":"similarity","trial_index":166,"time_elapsed":6716045,"internal_node_id":"0.0-6.0-160.0"},{"sim_score":2,"rt":2560,"stimulus":"[\"img/0898/81b08535-2020-4c15-9ce4-2f1e460755ae.jpg\",\"img/0862/ee3b7bff-4a70-4e84-9bea-4a565e456acb.jpg\"]","trial_type":"similarity","trial_index":167,"time_elapsed":6719611,"internal_node_id":"0.0-6.0-161.0"},{"sim_score":1,"rt":2603,"stimulus":"[\"img/0894/c505c65a-cde2-4f2c-8cde-f8676f7c894d.jpg\",\"img/0875/fb732ab5-013a-4366-9f65-27811ed157e9.jpg\"]","trial_type":"similarity","trial_index":168,"time_elapsed":6723223,"internal_node_id":"0.0-6.0-162.0"},{"sim_score":1,"rt":1885,"stimulus":"[\"img/0866/945c6710-d15b-4a5b-a8f6-69af0850357f.jpg\",\"img/0864/6f631579-acf1-415c-a42c-1207f62a8d99.jpg\"]","trial_type":"similarity","trial_index":169,"time_elapsed":6726114,"internal_node_id":"0.0-6.0-163.0"},{"sim_score":2,"rt":5219,"stimulus":"[\"img/0766/33aa9ebb-c9f5-418f-8c8b-c77861889568.jpg\",\"img/0862/ad593cc7-cabe-4bb7-8e14-8a447a0717b4.jpg\"]","trial_type":"similarity","trial_index":170,"time_elapsed":6732339,"internal_node_id":"0.0-6.0-164.0"},{"sim_score":5,"rt":2851,"stimulus":"[\"img/0866/f756f7d1-9ad8-4a34-9ef6-7a443d705bfe.jpg\",\"img/0874/3f471690-9788-4d03-90c7-f615aecef149.jpg\"]","trial_type":"similarity","trial_index":171,"time_elapsed":6736194,"internal_node_id":"0.0-6.0-165.0"},{"sim_score":5,"rt":3459,"stimulus":"[\"img/0862/f23038d4-c366-4f70-979f-66b62362efa4.jpg\",\"img/0860/8277806e-b684-4474-8f7b-3fca946d7d4f.jpg\"]","trial_type":"similarity","trial_index":172,"time_elapsed":6740658,"internal_node_id":"0.0-6.0-166.0"},{"sim_score":5,"rt":3748,"stimulus":"[\"img/0766/2e1cf445-9aef-40e7-92f4-5facf48b64c5.jpg\",\"img/0901/4d1bed7e-3c4e-4f6c-ada9-4beb66ba9e39.jpg\"]","trial_type":"similarity","trial_index":173,"time_elapsed":6754280,"internal_node_id":"0.0-6.0-167.0"},{"sim_score":7,"rt":4951,"stimulus":"[\"img/0862/e8cc3bdf-cc43-4565-bccf-492626c70953.jpg\",\"img/0862/57b6f83f-c763-4858-830d-102f97bfefbf.jpg\"]","trial_type":"similarity","trial_index":174,"time_elapsed":6760239,"internal_node_id":"0.0-6.0-168.0"},{"sim_score":6,"rt":3769,"stimulus":"[\"img/0894/767a0eec-1064-46b1-b1aa-dfa02b0cd74e.jpg\",\"img/0764/b8e23f4f-ff19-4472-ad9b-2f85548ebca0.jpg\"]","trial_type":"similarity","trial_index":175,"time_elapsed":6765024,"internal_node_id":"0.0-6.0-169.0"},{"sim_score":1,"rt":5745,"stimulus":"[\"img/0874/1016b306-087c-4afc-aa08-fa527b28dc76.jpg\",\"img/0898/ec565187-2e31-4fdd-9a5c-153d0c789ae0.jpg\"]","trial_type":"similarity","trial_index":176,"time_elapsed":6771778,"internal_node_id":"0.0-6.0-170.0"},{"sim_score":1,"rt":2750,"stimulus":"[\"img/0860/524b2e98-5767-4d53-942c-ebae6925659b.jpg\",\"img/0766/60033a74-9919-47e5-913c-71d0d483e7e5.jpg\"]","trial_type":"similarity","trial_index":177,"time_elapsed":6775532,"internal_node_id":"0.0-6.0-171.0"},{"sim_score":1,"rt":2216,"stimulus":"[\"img/0898/5f699581-3853-4547-856c-12f419ba5af7.jpg\",\"img/0864/ea327690-500b-4137-bf91-451b309fe6a5.jpg\"]","trial_type":"similarity","trial_index":178,"time_elapsed":6778757,"internal_node_id":"0.0-6.0-172.0"},{"sim_score":1,"rt":2259,"stimulus":"[\"img/0881/48ed65a5-471f-41af-86ec-3793805c116d.jpg\",\"img/0764/c643e165-df19-459f-8c2b-8357bf432a17.jpg\"]","trial_type":"similarity","trial_index":179,"time_elapsed":6782022,"internal_node_id":"0.0-6.0-173.0"},{"sim_score":2,"rt":3905,"stimulus":"[\"img/0898/04e39a7a-fcf6-4156-ab0e-f5871f335e1c.jpg\",\"img/0868/1a62b2b2-18f5-466e-b564-5176a57c565e.jpg\"]","trial_type":"similarity","trial_index":180,"time_elapsed":6786932,"internal_node_id":"0.0-6.0-174.0"},{"sim_score":7,"rt":2748,"stimulus":"[\"img/0864/6e846d43-94a6-4b37-a268-65eda979f052.jpg\",\"img/0864/4bd81bc6-c13d-46df-95a9-485886dc7c1b.jpg\"]","trial_type":"similarity","trial_index":181,"time_elapsed":6790687,"internal_node_id":"0.0-6.0-175.0"},{"sim_score":2,"rt":4200,"stimulus":"[\"img/0899/ddf96ade-692e-4602-bd22-dedbb46401bc.jpg\",\"img/0862/d0ca4c78-fc35-46ed-bdcc-8e124283c53e.jpg\"]","trial_type":"similarity","trial_index":182,"time_elapsed":6795893,"internal_node_id":"0.0-6.0-176.0"},{"sim_score":1,"rt":2505,"stimulus":"[\"img/0875/527ced51-8e53-4aab-ab05-86df219104c0.jpg\",\"img/0758/7ee8bc8f-c40b-4b3a-84ec-3e83580622d4.jpg\"]","trial_type":"similarity","trial_index":183,"time_elapsed":6799403,"internal_node_id":"0.0-6.0-177.0"},{"sim_score":2,"rt":2992,"stimulus":"[\"img/0866/9b38d691-1802-4959-ab3f-fc902f0e4ea6.jpg\",\"img/0901/b123d109-47b4-4f9a-80c9-9bb16da42efa.jpg\"]","trial_type":"similarity","trial_index":184,"time_elapsed":6803408,"internal_node_id":"0.0-6.0-178.0"},{"sim_score":1,"rt":2940,"stimulus":"[\"img/0769/d1be2815-fa79-46e8-b5c3-7d81caaca490.jpg\",\"img/0874/3ce41e7c-40c8-4d58-a546-171114521796.jpg\"]","trial_type":"similarity","trial_index":185,"time_elapsed":6807354,"internal_node_id":"0.0-6.0-179.0"},{"sim_score":1,"rt":2170,"stimulus":"[\"img/0875/90da8d75-108a-44ad-b999-e21fee3860d3.jpg\",\"img/0881/33d65d80-8a8e-4ecf-852d-0ad7725c17a2.jpg\"]","trial_type":"similarity","trial_index":186,"time_elapsed":6810529,"internal_node_id":"0.0-6.0-180.0"},{"sim_score":2,"rt":4789,"stimulus":"[\"img/0866/d493a2c8-66eb-44b4-be02-2f327b700b7c.jpg\",\"img/0868/293079b8-7e0c-4afd-a390-1e5d35fe3ded.jpg\"]","trial_type":"similarity","trial_index":187,"time_elapsed":6816327,"internal_node_id":"0.0-6.0-181.0"},{"sim_score":1,"rt":2678,"stimulus":"[\"img/0899/f58b8d2f-b19d-4b59-8b94-8834be92e4ba.jpg\",\"img/0758/f61ecdf8-a7d4-4db0-b84d-be46f7cfaffc.jpg\"]","trial_type":"similarity","trial_index":188,"time_elapsed":6820010,"internal_node_id":"0.0-6.0-182.0"},{"sim_score":1,"rt":1916,"stimulus":"[\"img/0874/99f6563c-8a8d-4c1c-a41d-667b618c3fd5.jpg\",\"img/0875/5a7c4e35-6514-4e12-8879-d16071da4cd6.jpg\"]","trial_type":"similarity","trial_index":189,"time_elapsed":6822930,"internal_node_id":"0.0-6.0-183.0"},{"sim_score":3,"rt":5148,"stimulus":"[\"img/0904/63dd06dd-dccb-47ba-9740-eb33239e18a7.jpg\",\"img/0862/cdaed51d-9e2f-4807-801a-4663c40077e2.jpg\"]","trial_type":"similarity","trial_index":190,"time_elapsed":6829082,"internal_node_id":"0.0-6.0-184.0"},{"sim_score":6,"rt":3193,"stimulus":"[\"img/0902/7f1dcd35-237a-4995-9e42-7f63f3f434d4.jpg\",\"img/0766/75c3d627-4f3b-40d5-9d9c-10c8a62db644.jpg\"]","trial_type":"similarity","trial_index":191,"time_elapsed":6833281,"internal_node_id":"0.0-6.0-185.0"},{"sim_score":1,"rt":2201,"stimulus":"[\"img/0758/d57c2592-a317-4f63-91be-91a3a9afd222.jpg\",\"img/0769/5bd04f55-d091-4f57-85db-38426f26bd1a.jpg\"]","trial_type":"similarity","trial_index":192,"time_elapsed":6836487,"internal_node_id":"0.0-6.0-186.0"},{"sim_score":5,"rt":4978,"stimulus":"[\"img/0881/f4e3e181-b3c9-4af2-a5a4-fc135ab70d2e.jpg\",\"img/0881/d373cb9f-a719-4549-a2a4-82def79fb2a5.jpg\"]","trial_type":"similarity","trial_index":193,"time_elapsed":6842468,"internal_node_id":"0.0-6.0-187.0"},{"sim_score":1,"rt":3283,"stimulus":"[\"img/0758/b76ceca7-95ac-46e4-ac13-da02c8e93be9.jpg\",\"img/0866/07c9c966-3c8d-40e7-8128-92b2acbaed5d.jpg\"]","trial_type":"similarity","trial_index":194,"time_elapsed":6846762,"internal_node_id":"0.0-6.0-188.0"},{"sim_score":6,"rt":3013,"stimulus":"[\"img/0764/83c93cce-18d1-4aa7-9e23-2c268afe0a46.jpg\",\"img/0898/79233891-305a-4a6a-8ddf-5c8604858203.jpg\"]","trial_type":"similarity","trial_index":195,"time_elapsed":6850781,"internal_node_id":"0.0-6.0-189.0"},{"sim_score":2,"rt":3035,"stimulus":"[\"img/0903/f67c4ab9-f8c2-4fcd-848a-a54a7b031002.jpg\",\"img/0901/a6776381-91fe-43f8-ab73-261d318f95fd.jpg\"]","trial_type":"similarity","trial_index":196,"time_elapsed":6854822,"internal_node_id":"0.0-6.0-190.0"},{"sim_score":7,"rt":2300,"stimulus":"[\"img/0902/5b45a7a0-81c8-4a71-aaa2-2ce09adb5a29.jpg\",\"img/0898/0af304a2-6a7a-4082-ab7c-4450cd08cc58.jpg\"]","trial_type":"similarity","trial_index":197,"time_elapsed":6858131,"internal_node_id":"0.0-6.0-191.0"},{"sim_score":1,"rt":2000,"stimulus":"[\"img/0864/b3c4e378-28f0-4699-9338-2a257b4bca04.jpg\",\"img/0901/33b51a81-06d9-46d9-9d4f-5a2d6d6b8058.jpg\"]","trial_type":"similarity","trial_index":198,"time_elapsed":6861143,"internal_node_id":"0.0-6.0-192.0"},{"sim_score":5,"rt":4316,"stimulus":"[\"img/0894/bd34223a-2f66-4e16-9d18-193a746b69ff.jpg\",\"img/0881/54ea8e77-c7e5-4197-b7fa-00b7020849a7.jpg\"]","trial_type":"similarity","trial_index":199,"time_elapsed":6866464,"internal_node_id":"0.0-6.0-193.0"},{"sim_score":6,"rt":5015,"stimulus":"[\"img/0868/3a62db2d-97e9-44a3-b8e3-a48c6f0e423b.jpg\",\"img/0868/e0aff734-077f-40dd-9781-74821abd3621.jpg\"]","trial_type":"similarity","trial_index":200,"time_elapsed":6872486,"internal_node_id":"0.0-6.0-194.0"},{"sim_score":6,"rt":3815,"stimulus":"[\"img/0899/a048912c-b12c-40e3-90af-46b69b0cc4fe.jpg\",\"img/0764/b328441c-f81c-486c-9eae-b947c70ba7cd.jpg\"]","trial_type":"similarity","trial_index":201,"time_elapsed":6877305,"internal_node_id":"0.0-6.0-195.0"},{"sim_score":1,"rt":3318,"stimulus":"[\"img/0881/c24f3051-eefa-42de-aba6-fccb56d93c70.jpg\",\"img/0904/56e73f28-7e64-489b-a161-e6b1a063878d.jpg\"]","trial_type":"similarity","trial_index":202,"time_elapsed":6881628,"internal_node_id":"0.0-6.0-196.0"},{"sim_score":1,"rt":2388,"stimulus":"[\"img/0864/e02eddb5-f468-499c-91bf-f7be3ffe979b.jpg\",\"img/0902/10d99c89-71f7-4c81-a31e-dfc7c59f5232.jpg\"]","trial_type":"similarity","trial_index":203,"time_elapsed":6885019,"internal_node_id":"0.0-6.0-197.0"},{"sim_score":3,"rt":6042,"stimulus":"[\"img/0894/1a010553-d598-4b06-a772-81f1e7b3addb.jpg\",\"img/0904/b7c2a2c8-df33-4473-b3d4-ff7147c60db3.jpg\"]","trial_type":"similarity","trial_index":204,"time_elapsed":6892066,"internal_node_id":"0.0-6.0-198.0"},{"sim_score":7,"rt":2317,"stimulus":"[\"img/0901/233a6948-48eb-4b67-8259-222b916b2322.jpg\",\"img/0901/58ec7fa9-b466-4651-90aa-c082df0972de.jpg\"]","trial_type":"similarity","trial_index":205,"time_elapsed":6895388,"internal_node_id":"0.0-6.0-199.0"},{"sim_score":1,"rt":2631,"stimulus":"[\"img/0894/6aa5545f-fa7d-4286-bbaa-aaf34dc7ec96.jpg\",\"img/0860/29a21a9f-54bb-4093-ad3f-04823ceaa89f.jpg\"]","trial_type":"similarity","trial_index":206,"time_elapsed":6899023,"internal_node_id":"0.0-6.0-200.0"},{"sim_score":5,"rt":4909,"stimulus":"[\"img/0898/8605a25b-6895-476d-8c13-df7a83f96093.jpg\",\"img/0903/8931c67c-a43d-47d3-a4c9-42aa2f81d344.jpg\"]","trial_type":"similarity","trial_index":207,"time_elapsed":6904936,"internal_node_id":"0.0-6.0-201.0"},{"sim_score":1,"rt":2497,"stimulus":"[\"img/0864/c3b63e8f-ea39-4d70-a1f2-b3fe4be8eb75.jpg\",\"img/0894/1b3888e6-cf36-4c4a-a039-187aa5cb71ac.jpg\"]","trial_type":"similarity","trial_index":208,"time_elapsed":6908443,"internal_node_id":"0.0-6.0-202.0"},{"sim_score":1,"rt":2954,"stimulus":"[\"img/0874/ca76a855-4e77-4f2f-872a-0a718153e7ed.jpg\",\"img/0860/4c530c3c-6aab-492a-94d1-9c01797bde40.jpg\"]","trial_type":"similarity","trial_index":209,"time_elapsed":6912401,"internal_node_id":"0.0-6.0-203.0"},{"sim_score":1,"rt":2456,"stimulus":"[\"img/0862/fad1d7c1-8187-43c3-942a-0fc12183e48e.jpg\",\"img/0875/8521fd58-3b1e-4dc5-97ae-804edfa6734a.jpg\"]","trial_type":"similarity","trial_index":210,"time_elapsed":6915872,"internal_node_id":"0.0-6.0-204.0"},{"sim_score":3,"rt":7010,"stimulus":"[\"img/0867/85a96c62-548f-4994-9553-819e03c3135a.jpg\",\"img/0881/b549bc99-a61c-4450-bab5-9efc3a197bf0.jpg\"]","trial_type":"similarity","trial_index":211,"time_elapsed":6923888,"internal_node_id":"0.0-6.0-205.0"},{"sim_score":6,"rt":3257,"stimulus":"[\"img/0901/a0d65c84-3f20-476a-92d1-0c01e8019cf4.jpg\",\"img/0902/c018bd7a-d91a-4192-aea4-7259cfcdb6c4.jpg\"]","trial_type":"similarity","trial_index":212,"time_elapsed":6928150,"internal_node_id":"0.0-6.0-206.0"},{"sim_score":1,"rt":4899,"stimulus":"[\"img/0899/57476fed-5962-4272-8fc9-b317bb777b54.jpg\",\"img/0864/49150900-7f25-4ce8-8d10-9b47a71d1997.jpg\"]","trial_type":"similarity","trial_index":213,"time_elapsed":6934054,"internal_node_id":"0.0-6.0-207.0"},{"sim_score":1,"rt":3699,"stimulus":"[\"img/0901/77087ed2-6e12-4329-b2a5-605bca6d972d.jpg\",\"img/0769/8598a429-c671-4d2f-842c-32f681f5e412.jpg\"]","trial_type":"similarity","trial_index":214,"time_elapsed":6938759,"internal_node_id":"0.0-6.0-208.0"},{"sim_score":6,"rt":3678,"stimulus":"[\"img/0902/fbef27fa-ac83-4936-ab78-9d1c20a383e1.jpg\",\"img/0902/e5a46bda-30d1-41ca-b36d-b8529b5a63d1.jpg\"]","trial_type":"similarity","trial_index":215,"time_elapsed":6949509,"internal_node_id":"0.0-6.0-209.0"},{"view_history":"[{\"page_index\":0,\"viewing_time\":5099}]","rt":5100,"trial_type":"instructions","trial_index":216,"time_elapsed":6955610,"internal_node_id":"0.0-7.0"},{"rt":13613,"responses":"{\"Q0\":\"Nashville Warbler\"}","answer":["Nashville Warbler"],"trial_type":"image-multi-choice","trial_index":217,"time_elapsed":6970256,"internal_node_id":"0.0-8.0-0.0"},{"rt":3766,"responses":"{\"Q0\":\"Black-and-white Warbler\"}","answer":["Black-and-white Warbler"],"trial_type":"image-multi-choice","trial_index":218,"time_elapsed":6975041,"internal_node_id":"0.0-8.0-1.0"},{"rt":8028,"responses":"{\"Q0\":\"Magnolia Warbler\"}","answer":["Townsend's Warbler"],"trial_type":"image-multi-choice","trial_index":219,"time_elapsed":6984088,"internal_node_id":"0.0-8.0-2.0"},{"rt":8200,"responses":"{\"Q0\":\"Lark Sparrow\"}","answer":["Lark Sparrow"],"trial_type":"image-multi-choice","trial_index":220,"time_elapsed":6993308,"internal_node_id":"0.0-8.0-3.0"},{"rt":3675,"responses":"{\"Q0\":\"Yellow Warbler\"}","answer":["Yellow Warbler"],"trial_type":"image-multi-choice","trial_index":221,"time_elapsed":6997999,"internal_node_id":"0.0-8.0-4.0"},{"rt":26883,"responses":"{\"Q0\":\"Orange-crowned Warbler\"}","answer":["Orange-crowned Warbler"],"trial_type":"image-multi-choice","trial_index":222,"time_elapsed":7025902,"internal_node_id":"0.0-8.0-5.0"},{"rt":3713,"responses":"{\"Q0\":\"White-throated Sparrow\"}","answer":["White-throated Sparrow"],"trial_type":"image-multi-choice","trial_index":223,"time_elapsed":7030631,"internal_node_id":"0.0-8.0-6.0"},{"rt":6000,"responses":"{\"Q0\":\"Fox Sparrow\"}","answer":["Fox Sparrow"],"trial_type":"image-multi-choice","trial_index":224,"time_elapsed":7037654,"internal_node_id":"0.0-8.0-7.0"},{"rt":31271,"responses":"{\"Q0\":\"Swamp Sparrow\"}","answer":["Song Sparrow"],"trial_type":"image-multi-choice","trial_index":225,"time_elapsed":7069939,"internal_node_id":"0.0-8.0-8.0"},{"rt":11362,"responses":"{\"Q0\":\"Blackburnian Warbler\"}","answer":["Blackburnian Warbler"],"trial_type":"image-multi-choice","trial_index":226,"time_elapsed":7082318,"internal_node_id":"0.0-8.0-9.0"},{"rt":4982,"responses":"{\"Q0\":\"Vesper Sparrow\"}","answer":["Vesper Sparrow"],"trial_type":"image-multi-choice","trial_index":227,"time_elapsed":7088318,"internal_node_id":"0.0-8.0-10.0"},{"rt":3349,"responses":"{\"Q0\":\"White-crowned Sparrow\"}","answer":["White-crowned Sparrow"],"trial_type":"image-multi-choice","trial_index":228,"time_elapsed":7092677,"internal_node_id":"0.0-8.0-11.0"},{"rt":9745,"responses":"{\"Q0\":\"Lincoln's Sparrow\"}","answer":["American Tree Sparrow"],"trial_type":"image-multi-choice","trial_index":229,"time_elapsed":7103454,"internal_node_id":"0.0-8.0-12.0"},{"rt":5509,"responses":"{\"Q0\":\"Tennessee Warbler\"}","answer":["Tennessee Warbler"],"trial_type":"image-multi-choice","trial_index":230,"time_elapsed":7109984,"internal_node_id":"0.0-8.0-13.0"},{"rt":12417,"responses":"{\"Q0\":\"Magnolia Warbler\"}","answer":["Magnolia Warbler"],"trial_type":"image-multi-choice","trial_index":231,"time_elapsed":7123419,"internal_node_id":"0.0-8.0-14.0"},{"rt":9860,"responses":"{\"Q0\":\"Northern Waterthrush\"}","answer":["Northern Waterthrush"],"trial_type":"image-multi-choice","trial_index":232,"time_elapsed":7134296,"internal_node_id":"0.0-8.0-15.0"},{"rt":7359,"responses":"{\"Q0\":\"American Tree Sparrow\"}","answer":["Chipping Sparrow"],"trial_type":"image-multi-choice","trial_index":233,"time_elapsed":7142679,"internal_node_id":"0.0-8.0-16.0"},{"rt":7906,"responses":"{\"Q0\":\"Lincoln's Sparrow\"}","answer":["Swamp Sparrow"],"trial_type":"image-multi-choice","trial_index":234,"time_elapsed":7151601,"internal_node_id":"0.0-8.0-17.0"},{"rt":7733,"responses":"{\"Q0\":\"Lincoln's Sparrow\"}","answer":["Lincoln's Sparrow"],"trial_type":"image-multi-choice","trial_index":235,"time_elapsed":7160348,"internal_node_id":"0.0-8.0-18.0"},{"rt":4643,"responses":"{\"Q0\":\"Ovenbird\"}","answer":["Ovenbird"],"trial_type":"image-multi-choice","trial_index":236,"time_elapsed":7166010,"internal_node_id":"0.0-8.0-19.0"}]