[{"view_history":"[{\"page_index\":0,\"viewing_time\":37102}]","rt":37103,"trial_type":"instructions","trial_index":0,"time_elapsed":37104,"internal_node_id":"0.0-0.0"},{"sim_score":5,"rt":9961,"stimulus":"[\"img/866.jpg\",\"img/868.jpg\"]","trial_type":"similarity_demo","trial_index":1,"time_elapsed":48074,"internal_node_id":"0.0-1.0"},{"view_history":"[{\"page_index\":0,\"viewing_time\":18719}]","rt":18720,"trial_type":"instructions","trial_index":2,"time_elapsed":67795,"internal_node_id":"0.0-2.0"},{"sim_score":3,"rt":9224,"stimulus":"[\"img/766.jpg\",\"img/867.jpg\"]","trial_type":"similarity_demo","trial_index":3,"time_elapsed":78031,"internal_node_id":"0.0-3.0"},{"view_history":"[{\"page_index\":0,\"viewing_time\":9490}]","rt":9492,"trial_type":"instructions","trial_index":4,"time_elapsed":88530,"internal_node_id":"0.0-4.0"},{"view_history":"[{\"page_index\":0,\"viewing_time\":74353}]","rt":74354,"trial_type":"instructions","trial_index":5,"time_elapsed":163886,"internal_node_id":"0.0-5.0"},{"sim_score":3,"rt":6166,"stimulus":"[\"img/0868/d6d1f30d-4323-435a-b194-7892521bc57e.jpg\",\"img/0901/693e0535-ef7e-4d60-af9d-fac2f38e8307.jpg\"]","trial_type":"similarity","trial_index":6,"time_elapsed":171065,"internal_node_id":"0.0-6.0-0.0"},{"sim_score":2,"rt":5782,"stimulus":"[\"img/0769/da36e3f7-2337-434f-ab57-11822dd7eed7.jpg\",\"img/0867/12264664-1860-46df-8c21-162b9817cdda.jpg\"]","trial_type":"similarity","trial_index":7,"time_elapsed":177852,"internal_node_id":"0.0-6.0-1.0"},{"sim_score":6,"rt":8469,"stimulus":"[\"img/0766/b84598d0-5b41-4841-88b0-b441b48289f5.jpg\",\"img/0898/224c1572-56b9-4f16-a9e4-6f3bc9c114bd.jpg\"]","trial_type":"similarity","trial_index":8,"time_elapsed":187328,"internal_node_id":"0.0-6.0-2.0"},{"sim_score":2,"rt":5565,"stimulus":"[\"img/0902/d49743d6-67ae-4c2e-a939-8fd895a0f18e.jpg\",\"img/0881/33d65d80-8a8e-4ecf-852d-0ad7725c17a2.jpg\"]","trial_type":"similarity","trial_index":9,"time_elapsed":193899,"internal_node_id":"0.0-6.0-3.0"},{"sim_score":4,"rt":6097,"stimulus":"[\"img/0894/7f2f31fd-6618-41c6-b65a-0fd8b2851bc9.jpg\",\"img/0894/a3d4170b-b7d8-40e3-955f-87e76ed745fc.jpg\"]","trial_type":"similarity","trial_index":10,"time_elapsed":200999,"internal_node_id":"0.0-6.0-4.0"},{"sim_score":1,"rt":4726,"stimulus":"[\"img/0874/a3bc679d-619f-4db6-bb68-116dcb757d9c.jpg\",\"img/0899/51a7a498-98c7-42d7-bca8-bc2d8f0b5831.jpg\"]","trial_type":"similarity","trial_index":11,"time_elapsed":206730,"internal_node_id":"0.0-6.0-5.0"},{"sim_score":4,"rt":7143,"stimulus":"[\"img/0904/09dac84f-3d1c-4445-a68e-d0389fdbf1e9.jpg\",\"img/0764/958b8576-3a3b-4acc-96dc-06b74de69f37.jpg\"]","trial_type":"similarity","trial_index":12,"time_elapsed":214877,"internal_node_id":"0.0-6.0-6.0"},{"sim_score":2,"rt":6434,"stimulus":"[\"img/0899/76ad07e2-ca25-45eb-84f2-8d80b8ca3e26.jpg\",\"img/0898/b2732712-71c2-45d8-834f-2b2ed5504910.jpg\"]","trial_type":"similarity","trial_index":13,"time_elapsed":222314,"internal_node_id":"0.0-6.0-7.0"},{"sim_score":3,"rt":4309,"stimulus":"[\"img/0874/995f0332-0439-4eb4-add3-957335dbf6d9.jpg\",\"img/0903/39365c8e-a733-4801-ac7d-b87e38c3784b.jpg\"]","trial_type":"similarity","trial_index":14,"time_elapsed":227627,"internal_node_id":"0.0-6.0-8.0"},{"sim_score":7,"rt":9946,"stimulus":"[\"img/0881/44e09805-5a25-4f17-a716-4ad4a331b174.jpg\",\"img/0758/65d426d6-3ff6-415d-8654-a43b83ecc4fe.jpg\"]","trial_type":"similarity","trial_index":15,"time_elapsed":238578,"internal_node_id":"0.0-6.0-9.0"},{"sim_score":3,"rt":7763,"stimulus":"[\"img/0898/c3cecf20-f7fd-45fa-97d0-dc0a63e8d6c0.jpg\",\"img/0901/71e551a2-9ce2-409c-9c7c-dd556a0791e9.jpg\"]","trial_type":"similarity","trial_index":16,"time_elapsed":247345,"internal_node_id":"0.0-6.0-10.0"},{"sim_score":5,"rt":7323,"stimulus":"[\"img/0903/b4a0f61e-a964-4b79-a9a7-f767a8f92f34.jpg\",\"img/0769/6c0bac4c-5f59-43c7-898c-3ca93cf55cfe.jpg\"]","trial_type":"similarity","trial_index":17,"time_elapsed":255672,"internal_node_id":"0.0-6.0-11.0"},{"sim_score":2,"rt":6122,"stimulus":"[\"img/0764/4bec8d92-75aa-475a-954d-8215dbe538f5.jpg\",\"img/0868/fd307a36-9a3a-47d7-ab7c-f810d0b35040.jpg\"]","trial_type":"similarity","trial_index":18,"time_elapsed":262796,"internal_node_id":"0.0-6.0-12.0"},{"sim_score":3,"rt":4391,"stimulus":"[\"img/0867/50a1b60e-3a29-44bf-b606-d4bd3746fea9.jpg\",\"img/0903/b0df4094-a3be-4b5b-81bd-8d260f13f61b.jpg\"]","trial_type":"similarity","trial_index":19,"time_elapsed":268191,"internal_node_id":"0.0-6.0-13.0"},{"sim_score":3,"rt":5852,"stimulus":"[\"img/0766/26d3ae14-8275-4e08-99b2-a6598c193ddf.jpg\",\"img/0758/7ee8bc8f-c40b-4b3a-84ec-3e83580622d4.jpg\"]","trial_type":"similarity","trial_index":20,"time_elapsed":275048,"internal_node_id":"0.0-6.0-14.0"},{"sim_score":2,"rt":7099,"stimulus":"[\"img/0902/b76efc44-a50f-4dac-b997-ff0222376067.jpg\",\"img/0860/87039971-2210-4aab-93c0-8e9b5f1655b2.jpg\"]","trial_type":"similarity","trial_index":21,"time_elapsed":283150,"internal_node_id":"0.0-6.0-15.0"},{"sim_score":2,"rt":5566,"stimulus":"[\"img/0769/180213e5-1e50-4b4e-87b6-add77ba04d39.jpg\",\"img/0875/99698b4d-b4a1-44bc-8c83-8ea755bbbf61.jpg\"]","trial_type":"similarity","trial_index":22,"time_elapsed":289720,"internal_node_id":"0.0-6.0-16.0"},{"sim_score":2,"rt":3684,"stimulus":"[\"img/0904/fe746a3f-8458-48d0-8a13-8cba2a9df9f8.jpg\",\"img/0866/9b38d691-1802-4959-ab3f-fc902f0e4ea6.jpg\"]","trial_type":"similarity","trial_index":23,"time_elapsed":294407,"internal_node_id":"0.0-6.0-17.0"},{"sim_score":7,"rt":5340,"stimulus":"[\"img/0875/f87b67d7-c33e-40d1-b281-248c4be1cb6e.jpg\",\"img/0875/5a7c4e35-6514-4e12-8879-d16071da4cd6.jpg\"]","trial_type":"similarity","trial_index":24,"time_elapsed":300750,"internal_node_id":"0.0-6.0-18.0"},{"sim_score":7,"rt":5544,"stimulus":"[\"img/0758/53f35650-e455-4b53-8be4-c3c8271c6466.jpg\",\"img/0758/dd559618-7f09-4a07-8018-d311c4a5ea29.jpg\"]","trial_type":"similarity","trial_index":25,"time_elapsed":307298,"internal_node_id":"0.0-6.0-19.0"},{"sim_score":3,"rt":5785,"stimulus":"[\"img/0902/9f543501-3cf1-45a7-a2f1-eeca87cc15b9.jpg\",\"img/0874/bf14b896-e930-4fd9-9c05-2e83317a2773.jpg\"]","trial_type":"similarity","trial_index":26,"time_elapsed":314086,"internal_node_id":"0.0-6.0-20.0"},{"sim_score":5,"rt":7488,"stimulus":"[\"img/0764/c01e2d65-6586-441b-bef5-3c96fcd85380.jpg\",\"img/0769/3c1203c5-2ce7-466e-957a-8d77b5905460.jpg\"]","trial_type":"similarity","trial_index":27,"time_elapsed":322578,"internal_node_id":"0.0-6.0-21.0"},{"sim_score":3,"rt":7399,"stimulus":"[\"img/0901/148b747a-7392-437e-8823-33053c5dff3f.jpg\",\"img/0874/3f471690-9788-4d03-90c7-f615aecef149.jpg\"]","trial_type":"similarity","trial_index":28,"time_elapsed":330980,"internal_node_id":"0.0-6.0-22.0"},{"sim_score":1,"rt":4605,"stimulus":"[\"img/0875/d59ff733-eaff-4ee2-9443-06954dd0bcb6.jpg\",\"img/0903/14f179a2-8786-48a2-8377-88d1d404341b.jpg\"]","trial_type":"similarity","trial_index":29,"time_elapsed":336596,"internal_node_id":"0.0-6.0-23.0"},{"sim_score":4,"rt":5988,"stimulus":"[\"img/0769/8056889f-2b14-4782-bb25-b4e8896ab65b.jpg\",\"img/0881/f62bdcd1-a4b7-4d48-83da-d9c9e01c8727.jpg\"]","trial_type":"similarity","trial_index":30,"time_elapsed":343587,"internal_node_id":"0.0-6.0-24.0"},{"sim_score":2,"rt":5681,"stimulus":"[\"img/0867/de92135f-5b65-4ed9-b245-188292c7c2f8.jpg\",\"img/0904/4b8daf2a-13a9-4ea9-9e0b-b265b6e933e7.jpg\"]","trial_type":"similarity","trial_index":31,"time_elapsed":350278,"internal_node_id":"0.0-6.0-25.0"},{"sim_score":4,"rt":7665,"stimulus":"[\"img/0860/b03b963d-949b-4d8d-b19c-4950c89eeca2.jpg\",\"img/0881/667e2147-d457-4f32-aa5f-6ab86e5848f1.jpg\"]","trial_type":"similarity","trial_index":32,"time_elapsed":358955,"internal_node_id":"0.0-6.0-26.0"},{"sim_score":3,"rt":5324,"stimulus":"[\"img/0866/07c9c966-3c8d-40e7-8128-92b2acbaed5d.jpg\",\"img/0866/bf14b5bd-fb55-47db-86b9-4f8aeb9a6dad.jpg\"]","trial_type":"similarity","trial_index":33,"time_elapsed":365283,"internal_node_id":"0.0-6.0-27.0"},{"sim_score":3,"rt":5386,"stimulus":"[\"img/0764/6fbd1902-fa2a-48d8-bc11-705b8ab68d8f.jpg\",\"img/0862/d0ca4c78-fc35-46ed-bdcc-8e124283c53e.jpg\"]","trial_type":"similarity","trial_index":34,"time_elapsed":371672,"internal_node_id":"0.0-6.0-28.0"},{"sim_score":2,"rt":4080,"stimulus":"[\"img/0904/60d1a521-edf7-4696-9263-f21ac0e62a01.jpg\",\"img/0758/d57c2592-a317-4f63-91be-91a3a9afd222.jpg\"]","trial_type":"similarity","trial_index":35,"time_elapsed":376759,"internal_node_id":"0.0-6.0-29.0"},{"sim_score":2,"rt":5379,"stimulus":"[\"img/0894/86201968-6e78-4d68-9b3a-d1692e066210.jpg\",\"img/0899/5b56dd3e-3f49-47cc-af84-16da6457753b.jpg\"]","trial_type":"similarity","trial_index":36,"time_elapsed":383140,"internal_node_id":"0.0-6.0-30.0"},{"sim_score":4,"rt":7735,"stimulus":"[\"img/0860/61fb959d-d4d9-4de4-9e4e-4fa62b4cfcd5.jpg\",\"img/0904/2f88ce53-02d0-4f95-a082-182c56a0eeb4.jpg\"]","trial_type":"similarity","trial_index":37,"time_elapsed":391879,"internal_node_id":"0.0-6.0-31.0"},{"sim_score":6,"rt":6900,"stimulus":"[\"img/0874/ca76a855-4e77-4f2f-872a-0a718153e7ed.jpg\",\"img/0881/ed4c971f-0873-4fc8-b6d6-e8bbd82f0bcc.jpg\"]","trial_type":"similarity","trial_index":38,"time_elapsed":399782,"internal_node_id":"0.0-6.0-32.0"},{"sim_score":3,"rt":4888,"stimulus":"[\"img/0881/405484ae-0d00-4b05-bc57-6420a36adfac.jpg\",\"img/0899/1b3457ea-87d4-4946-a01c-aac1863ed46c.jpg\"]","trial_type":"similarity","trial_index":39,"time_elapsed":405674,"internal_node_id":"0.0-6.0-33.0"},{"sim_score":1,"rt":5965,"stimulus":"[\"img/0866/945c6710-d15b-4a5b-a8f6-69af0850357f.jpg\",\"img/0862/47ed5efd-4ec9-4b74-bb4e-a5f5cf0c3e7d.jpg\"]","trial_type":"similarity","trial_index":40,"time_elapsed":412642,"internal_node_id":"0.0-6.0-34.0"},{"sim_score":1,"rt":5661,"stimulus":"[\"img/0868/09a9ef4d-d000-4cfa-a6aa-ebec7c2edeb4.jpg\",\"img/0894/e2446cf5-cd48-486a-badc-76498e087fbe.jpg\"]","trial_type":"similarity","trial_index":41,"time_elapsed":419307,"internal_node_id":"0.0-6.0-35.0"},{"sim_score":7,"rt":5645,"stimulus":"[\"img/0860/4f695df5-afac-4da7-9875-fee39b0b24ad.jpg\",\"img/0860/f44ba3fb-03a2-42f0-8509-2c1ded493086.jpg\"]","trial_type":"similarity","trial_index":42,"time_elapsed":425954,"internal_node_id":"0.0-6.0-36.0"},{"sim_score":4,"rt":5559,"stimulus":"[\"img/0862/e0f1a4e9-e1b6-45f7-af67-89f334e6630d.jpg\",\"img/0864/49150900-7f25-4ce8-8d10-9b47a71d1997.jpg\"]","trial_type":"similarity","trial_index":43,"time_elapsed":432516,"internal_node_id":"0.0-6.0-37.0"},{"sim_score":1,"rt":5544,"stimulus":"[\"img/0766/00891401-e4c9-4ce1-bc19-f70740d174bc.jpg\",\"img/0866/386235d2-6857-41e7-88a8-25cfc3430025.jpg\"]","trial_type":"similarity","trial_index":44,"time_elapsed":439064,"internal_node_id":"0.0-6.0-38.0"},{"sim_score":1,"rt":4215,"stimulus":"[\"img/0875/e7e66b13-b573-431e-b85e-288ce04a35a3.jpg\",\"img/0898/f3a3f225-1248-4ac7-b93b-f0ff28485bf3.jpg\"]","trial_type":"similarity","trial_index":45,"time_elapsed":444282,"internal_node_id":"0.0-6.0-39.0"},{"sim_score":5,"rt":5676,"stimulus":"[\"img/0766/1865bfc9-2410-4765-a804-3ae4ba2393d0.jpg\",\"img/0769/e8ed913b-8a88-44f6-9327-d34afec3116b.jpg\"]","trial_type":"similarity","trial_index":46,"time_elapsed":450964,"internal_node_id":"0.0-6.0-40.0"},{"sim_score":2,"rt":4549,"stimulus":"[\"img/0874/29830da7-be5f-44e5-b141-652a0ccf7269.jpg\",\"img/0764/06ea144f-f4f3-4a14-ba47-f20f35c561e0.jpg\"]","trial_type":"similarity","trial_index":47,"time_elapsed":475446,"internal_node_id":"0.0-6.0-41.0"},{"sim_score":3,"rt":4942,"stimulus":"[\"img/0868/179a5502-ab5c-478e-8263-5a1fbcc101d2.jpg\",\"img/0902/71c03003-03ef-4b0f-8229-e0c857150a5d.jpg\"]","trial_type":"similarity","trial_index":48,"time_elapsed":481396,"internal_node_id":"0.0-6.0-42.0"},{"sim_score":1,"rt":5172,"stimulus":"[\"img/0875/2c361b79-c3d1-4eda-812e-bf03192407bf.jpg\",\"img/0899/4408c14d-c168-4a7d-96f6-bc87bfb58f83.jpg\"]","trial_type":"similarity","trial_index":49,"time_elapsed":487574,"internal_node_id":"0.0-6.0-43.0"},{"sim_score":4,"rt":5526,"stimulus":"[\"img/0866/11a1d141-be5e-443c-98c1-a9d4d9e3dec0.jpg\",\"img/0860/c5ccd1a4-4bb7-48e1-9b25-72cfaf06909b.jpg\"]","trial_type":"similarity","trial_index":50,"time_elapsed":494108,"internal_node_id":"0.0-6.0-44.0"},{"sim_score":5,"rt":4597,"stimulus":"[\"img/0766/ae0fce93-fe8d-4aa1-87ca-4c3e4b889f2f.jpg\",\"img/0903/365f176c-25a4-4973-bd3c-279bf1b39476.jpg\"]","trial_type":"similarity","trial_index":51,"time_elapsed":499710,"internal_node_id":"0.0-6.0-45.0"},{"sim_score":5,"rt":5343,"stimulus":"[\"img/0901/3db47171-0139-4235-82cd-0b1787b6775f.jpg\",\"img/0904/4d7d70a3-9477-4921-bda0-f9531d0a5c5b.jpg\"]","trial_type":"similarity","trial_index":52,"time_elapsed":506056,"internal_node_id":"0.0-6.0-46.0"},{"sim_score":2,"rt":4394,"stimulus":"[\"img/0758/7ffbc76b-1fc1-432c-8f7e-9ec8d1b3f643.jpg\",\"img/0902/f3cfec34-482c-4bdb-9c92-19ea6cfce183.jpg\"]","trial_type":"similarity","trial_index":53,"time_elapsed":511453,"internal_node_id":"0.0-6.0-47.0"},{"sim_score":4,"rt":5934,"stimulus":"[\"img/0764/0e7ed062-f798-4366-8a24-6f430926f919.jpg\",\"img/0764/5d83b9db-3b2b-4dc8-9bd1-2b515b19c858.jpg\"]","trial_type":"similarity","trial_index":54,"time_elapsed":518391,"internal_node_id":"0.0-6.0-48.0"},{"sim_score":1,"rt":5715,"stimulus":"[\"img/0866/6f2a90d7-14f1-4f1b-bd64-fc0af6b9fe44.jpg\",\"img/0902/c018bd7a-d91a-4192-aea4-7259cfcdb6c4.jpg\"]","trial_type":"similarity","trial_index":55,"time_elapsed":525111,"internal_node_id":"0.0-6.0-49.0"},{"sim_score":1,"rt":6425,"stimulus":"[\"img/0764/fb7d4a20-a475-465e-a74f-aa39a0d33d16.jpg\",\"img/0758/20497cbe-ddae-489e-86e2-ab06985ed07c.jpg\"]","trial_type":"similarity","trial_index":56,"time_elapsed":532539,"internal_node_id":"0.0-6.0-50.0"},{"sim_score":6,"rt":8976,"stimulus":"[\"img/0898/5f699581-3853-4547-856c-12f419ba5af7.jpg\",\"img/0894/a98416c0-51e2-4960-85da-d81d8688b9d5.jpg\"]","trial_type":"similarity","trial_index":57,"time_elapsed":542524,"internal_node_id":"0.0-6.0-51.0"},{"sim_score":6,"rt":4658,"stimulus":"[\"img/0875/5a716432-c6ca-4b1c-955a-2b8ac25198ee.jpg\",\"img/0866/0207e9a2-7dbb-40b5-9459-b472aaeceb2a.jpg\"]","trial_type":"similarity","trial_index":58,"time_elapsed":548185,"internal_node_id":"0.0-6.0-52.0"},{"sim_score":7,"rt":6255,"stimulus":"[\"img/0904/9dd5708f-3f8b-46a9-b49f-2f2fab87b357.jpg\",\"img/0904/a8c3c7d2-9bcf-4347-9e03-8203adfc1fc5.jpg\"]","trial_type":"similarity","trial_index":59,"time_elapsed":555444,"internal_node_id":"0.0-6.0-53.0"},{"sim_score":6,"rt":5934,"stimulus":"[\"img/0769/387a9744-d6a7-42b8-bab8-33007ec434aa.jpg\",\"img/0769/47700831-0ca2-4fdd-a498-a3bc5a528f43.jpg\"]","trial_type":"similarity","trial_index":60,"time_elapsed":562381,"internal_node_id":"0.0-6.0-54.0"},{"sim_score":1,"rt":4768,"stimulus":"[\"img/0898/a8f16b02-e19f-423b-86c3-a36562ae1f9b.jpg\",\"img/0758/ddc336e9-a8b6-4bb9-937a-c7e25e0e9250.jpg\"]","trial_type":"similarity","trial_index":61,"time_elapsed":568153,"internal_node_id":"0.0-6.0-55.0"},{"sim_score":5,"rt":6768,"stimulus":"[\"img/0769/db94b61b-a5a7-4861-9d32-7b02ad194fb0.jpg\",\"img/0902/7f1dcd35-237a-4995-9e42-7f63f3f434d4.jpg\"]","trial_type":"similarity","trial_index":62,"time_elapsed":575925,"internal_node_id":"0.0-6.0-56.0"},{"sim_score":4,"rt":6849,"stimulus":"[\"img/0864/3d4de670-b290-4285-9c3d-12a0e3af44e9.jpg\",\"img/0881/b1a136f7-8511-4d3a-a0f6-3879acf1e1a1.jpg\"]","trial_type":"similarity","trial_index":63,"time_elapsed":583777,"internal_node_id":"0.0-6.0-57.0"},{"sim_score":3,"rt":6215,"stimulus":"[\"img/0758/61d64021-9214-4951-bdf8-f871f9827cf9.jpg\",\"img/0868/3a62db2d-97e9-44a3-b8e3-a48c6f0e423b.jpg\"]","trial_type":"similarity","trial_index":64,"time_elapsed":590995,"internal_node_id":"0.0-6.0-58.0"},{"sim_score":1,"rt":6714,"stimulus":"[\"img/0862/99a99e39-8355-44ec-b993-e7bcec111e1c.jpg\",\"img/0769/aad494cc-674d-4a08-9bfa-24a88ebe3c79.jpg\"]","trial_type":"similarity","trial_index":65,"time_elapsed":598713,"internal_node_id":"0.0-6.0-59.0"},{"sim_score":5,"rt":4832,"stimulus":"[\"img/0764/4eff630a-6426-4f8d-b2ba-b4d9842a0962.jpg\",\"img/0903/f67c4ab9-f8c2-4fcd-848a-a54a7b031002.jpg\"]","trial_type":"similarity","trial_index":66,"time_elapsed":604550,"internal_node_id":"0.0-6.0-60.0"},{"sim_score":7,"rt":4465,"stimulus":"[\"img/0899/f58b8d2f-b19d-4b59-8b94-8834be92e4ba.jpg\",\"img/0899/7f9d45d0-b2c6-40d3-aa41-c207db2c411b.jpg\"]","trial_type":"similarity","trial_index":67,"time_elapsed":610017,"internal_node_id":"0.0-6.0-61.0"},{"sim_score":5,"rt":5781,"stimulus":"[\"img/0860/524b2e98-5767-4d53-942c-ebae6925659b.jpg\",\"img/0875/ebf7653f-ff45-4e9f-af58-2c042ab3cd2b.jpg\"]","trial_type":"similarity","trial_index":68,"time_elapsed":616802,"internal_node_id":"0.0-6.0-62.0"},{"sim_score":3,"rt":7498,"stimulus":"[\"img/0868/5fa7f9d0-f0e5-454c-8224-74d964818f56.jpg\",\"img/0874/767f289c-9814-4496-803f-745cc8913d1f.jpg\"]","trial_type":"similarity","trial_index":69,"time_elapsed":625303,"internal_node_id":"0.0-6.0-63.0"},{"sim_score":5,"rt":8480,"stimulus":"[\"img/0758/e38fd80d-18d0-42f3-b848-f930788e8bd7.jpg\",\"img/0862/24cdc752-c2e5-4a17-86a6-6f2045d8553b.jpg\"]","trial_type":"similarity","trial_index":70,"time_elapsed":634787,"internal_node_id":"0.0-6.0-64.0"},{"sim_score":3,"rt":6077,"stimulus":"[\"img/0904/9d30eff1-46ef-4453-b11e-124ef8145c00.jpg\",\"img/0898/79233891-305a-4a6a-8ddf-5c8604858203.jpg\"]","trial_type":"similarity","trial_index":71,"time_elapsed":641866,"internal_node_id":"0.0-6.0-65.0"},{"sim_score":1,"rt":7534,"stimulus":"[\"img/0881/db77fe00-aeb0-4d1d-aa66-f3a96fd077e4.jpg\",\"img/0866/a15b02be-11bb-43e3-b0e0-ecc3bd7dfc49.jpg\"]","trial_type":"similarity","trial_index":72,"time_elapsed":650417,"internal_node_id":"0.0-6.0-66.0"},{"sim_score":1,"rt":4615,"stimulus":"[\"img/0867/aa05d113-fc19-4756-a8eb-7878f580bc92.jpg\",\"img/0898/82231d4c-218b-4d0a-b50d-35a49b524e97.jpg\"]","trial_type":"similarity","trial_index":73,"time_elapsed":656038,"internal_node_id":"0.0-6.0-67.0"},{"sim_score":7,"rt":5159,"stimulus":"[\"img/0902/c920f0e1-1c81-480f-a164-c77f2dc6ce9a.jpg\",\"img/0764/713cc27e-2338-4486-bfe9-5f5725fbd7a0.jpg\"]","trial_type":"similarity","trial_index":74,"time_elapsed":662200,"internal_node_id":"0.0-6.0-68.0"},{"sim_score":5,"rt":5363,"stimulus":"[\"img/0875/fb732ab5-013a-4366-9f65-27811ed157e9.jpg\",\"img/0867/7d1c497b-c1b3-4ed8-abb5-d7f73306015f.jpg\"]","trial_type":"similarity","trial_index":75,"time_elapsed":668568,"internal_node_id":"0.0-6.0-69.0"},{"sim_score":7,"rt":4627,"stimulus":"[\"img/0766/2746b119-4bba-463e-acf0-88136dc6600c.jpg\",\"img/0764/62fafeea-6274-48ce-976f-35d3d3484c65.jpg\"]","trial_type":"similarity","trial_index":76,"time_elapsed":674198,"internal_node_id":"0.0-6.0-70.0"},{"sim_score":6,"rt":6530,"stimulus":"[\"img/0894/5ff3c4f6-52e2-4075-8679-be0312e59703.jpg\",\"img/0867/6e19c858-b606-45b2-a4c6-910a73f1d82c.jpg\"]","trial_type":"similarity","trial_index":77,"time_elapsed":681731,"internal_node_id":"0.0-6.0-71.0"},{"sim_score":4,"rt":6174,"stimulus":"[\"img/0875/03c3c331-738b-4446-af92-3d7386b08c2e.jpg\",\"img/0764/ef0e64c6-d0dd-4dc6-87b6-ce5c0665f421.jpg\"]","trial_type":"similarity","trial_index":78,"time_elapsed":688909,"internal_node_id":"0.0-6.0-72.0"},{"sim_score":4,"rt":6779,"stimulus":"[\"img/0867/a749dddb-69f0-44a6-acdc-2bf295cf6dcc.jpg\",\"img/0866/93a27239-8317-4e08-98ca-d8b1ff298e07.jpg\"]","trial_type":"similarity","trial_index":79,"time_elapsed":696690,"internal_node_id":"0.0-6.0-73.0"},{"sim_score":1,"rt":5072,"stimulus":"[\"img/0903/776b74ee-a8ab-4ab8-a78d-097c0747538d.jpg\",\"img/0758/6cd8c362-ae2a-41eb-80a3-3a4f7ace1530.jpg\"]","trial_type":"similarity","trial_index":80,"time_elapsed":702783,"internal_node_id":"0.0-6.0-74.0"},{"sim_score":1,"rt":4509,"stimulus":"[\"img/0766/79767d11-b612-4e8a-9e4b-a8ac95bb6a54.jpg\",\"img/0868/293079b8-7e0c-4afd-a390-1e5d35fe3ded.jpg\"]","trial_type":"similarity","trial_index":81,"time_elapsed":708296,"internal_node_id":"0.0-6.0-75.0"},{"sim_score":1,"rt":5847,"stimulus":"[\"img/0874/93d1f8dc-acf2-4f03-bd8d-8ec35df276ed.jpg\",\"img/0766/e8052e17-9dae-4139-802b-6e590cb2d526.jpg\"]","trial_type":"similarity","trial_index":82,"time_elapsed":715149,"internal_node_id":"0.0-6.0-76.0"},{"sim_score":1,"rt":4871,"stimulus":"[\"img/0881/0c7068da-d0d9-4103-bda1-74ef7a2b32c3.jpg\",\"img/0868/15dd6fd7-791e-4b53-b203-195d617521a4.jpg\"]","trial_type":"similarity","trial_index":83,"time_elapsed":721024,"internal_node_id":"0.0-6.0-77.0"},{"sim_score":1,"rt":5506,"stimulus":"[\"img/0758/2fa3e613-e676-4e6e-bd12-705327eeb3e1.jpg\",\"img/0901/31c032fd-3c3d-4882-a226-da9a80198937.jpg\"]","trial_type":"similarity","trial_index":84,"time_elapsed":727533,"internal_node_id":"0.0-6.0-78.0"},{"sim_score":2,"rt":6137,"stimulus":"[\"img/0881/4da99fdd-1f40-4bbb-8e21-8833eef313f5.jpg\",\"img/0898/40f99fb2-64d2-4e72-8a7f-a1cf60741e69.jpg\"]","trial_type":"similarity","trial_index":85,"time_elapsed":734672,"internal_node_id":"0.0-6.0-79.0"},{"sim_score":3,"rt":5410,"stimulus":"[\"img/0867/1719a35d-f085-48c0-9099-16c94fe418b4.jpg\",\"img/0758/6e95579b-5166-487c-b8cb-e417c6a218e3.jpg\"]","trial_type":"similarity","trial_index":86,"time_elapsed":741086,"internal_node_id":"0.0-6.0-80.0"},{"sim_score":3,"rt":4704,"stimulus":"[\"img/0769/35364db7-e0d5-40ef-93dc-faf9dfb95136.jpg\",\"img/0899/8abe6c69-822c-436c-9bf2-96c818b49ba5.jpg\"]","trial_type":"similarity","trial_index":87,"time_elapsed":746794,"internal_node_id":"0.0-6.0-81.0"},{"sim_score":3,"rt":6042,"stimulus":"[\"img/0903/97a42b34-5462-4665-88c7-83c014b33d24.jpg\",\"img/0903/8635cf25-2648-4fe9-8c42-79d2598e999c.jpg\"]","trial_type":"similarity","trial_index":88,"time_elapsed":753840,"internal_node_id":"0.0-6.0-82.0"},{"sim_score":2,"rt":4285,"stimulus":"[\"img/0867/5e07b34d-b40f-4b1c-ac10-49975bace45f.jpg\",\"img/0766/71b81ebd-0937-4d7f-b8bf-c4e46a4728fd.jpg\"]","trial_type":"similarity","trial_index":89,"time_elapsed":777709,"internal_node_id":"0.0-6.0-83.0"},{"sim_score":3,"rt":5643,"stimulus":"[\"img/0902/962f645e-9b55-4628-9b50-c703422bfe1a.jpg\",\"img/0867/f8488a47-94ee-4166-952c-44e16cf172f6.jpg\"]","trial_type":"similarity","trial_index":90,"time_elapsed":784357,"internal_node_id":"0.0-6.0-84.0"},{"sim_score":1,"rt":4144,"stimulus":"[\"img/0901/b13fa50f-dbe0-4d0f-8647-6ac0fd8f40bd.jpg\",\"img/0875/527ced51-8e53-4aab-ab05-86df219104c0.jpg\"]","trial_type":"similarity","trial_index":91,"time_elapsed":789505,"internal_node_id":"0.0-6.0-85.0"},{"sim_score":3,"rt":5379,"stimulus":"[\"img/0764/b328441c-f81c-486c-9eae-b947c70ba7cd.jpg\",\"img/0866/be24ab58-230e-4db8-9f45-ff04c9aec6bb.jpg\"]","trial_type":"similarity","trial_index":92,"time_elapsed":795887,"internal_node_id":"0.0-6.0-86.0"},{"sim_score":5,"rt":4435,"stimulus":"[\"img/0901/58978a6d-a3e2-4c59-8d62-f60693ecc0f6.jpg\",\"img/0894/c505c65a-cde2-4f2c-8cde-f8676f7c894d.jpg\"]","trial_type":"similarity","trial_index":93,"time_elapsed":801325,"internal_node_id":"0.0-6.0-87.0"},{"sim_score":4,"rt":6243,"stimulus":"[\"img/0898/68476bbb-34a1-42d9-8bc1-deab783d4489.jpg\",\"img/0769/35f2dd39-40aa-498e-b401-9f1ef2622d00.jpg\"]","trial_type":"similarity","trial_index":94,"time_elapsed":808571,"internal_node_id":"0.0-6.0-88.0"},{"sim_score":5,"rt":5492,"stimulus":"[\"img/0769/11518cb3-13ea-4dd0-890c-30cfab728ade.jpg\",\"img/0894/b422d5c6-3c5a-49ae-a53e-7e88ac993f49.jpg\"]","trial_type":"similarity","trial_index":95,"time_elapsed":815069,"internal_node_id":"0.0-6.0-89.0"},{"sim_score":6,"rt":4488,"stimulus":"[\"img/0862/1c20f772-3a51-4a80-aac0-f57dc9f86c28.jpg\",\"img/0874/85eb9b8a-c4c6-4e5a-b8e7-363a87a82054.jpg\"]","trial_type":"similarity","trial_index":96,"time_elapsed":820563,"internal_node_id":"0.0-6.0-90.0"},{"sim_score":5,"rt":4635,"stimulus":"[\"img/0894/38cf335f-f76f-4349-8d65-e20cd6859565.jpg\",\"img/0766/908bc45b-7c9e-4f95-806e-86b196ebcb2c.jpg\"]","trial_type":"similarity","trial_index":97,"time_elapsed":826202,"internal_node_id":"0.0-6.0-91.0"},{"sim_score":5,"rt":4854,"stimulus":"[\"img/0874/7e4f2150-3b59-4a36-b5da-a4e0ba410531.jpg\",\"img/0867/f26f6b60-f772-4f4c-95a4-addc62cfd692.jpg\"]","trial_type":"similarity","trial_index":98,"time_elapsed":832064,"internal_node_id":"0.0-6.0-92.0"},{"sim_score":2,"rt":5152,"stimulus":"[\"img/0899/66ab3178-c3fe-4455-ad17-d5952b08e018.jpg\",\"img/0868/1a62b2b2-18f5-466e-b564-5176a57c565e.jpg\"]","trial_type":"similarity","trial_index":99,"time_elapsed":838236,"internal_node_id":"0.0-6.0-93.0"},{"sim_score":3,"rt":6136,"stimulus":"[\"img/0903/0e5c2854-42aa-48c0-9c3d-6e1ad2a400bd.jpg\",\"img/0862/92fcd8a4-8193-4a6a-ae09-dd4a6338b0df.jpg\"]","trial_type":"similarity","trial_index":100,"time_elapsed":845376,"internal_node_id":"0.0-6.0-94.0"},{"sim_score":2,"rt":5370,"stimulus":"[\"img/0899/b45c550b-96c3-4255-ad59-48a2b4db1c1e.jpg\",\"img/0766/d3bab2fc-ddcc-40a0-bb72-c0d0ebe19978.jpg\"]","trial_type":"similarity","trial_index":101,"time_elapsed":851750,"internal_node_id":"0.0-6.0-95.0"},{"sim_score":6,"rt":4778,"stimulus":"[\"img/0867/cc72ed48-7704-422c-86d6-467a1145287a.jpg\",\"img/0868/4bd5105a-d2c3-4f82-8c80-57196106ba53.jpg\"]","trial_type":"similarity","trial_index":102,"time_elapsed":857531,"internal_node_id":"0.0-6.0-96.0"},{"sim_score":3,"rt":6019,"stimulus":"[\"img/0862/ad593cc7-cabe-4bb7-8e14-8a447a0717b4.jpg\",\"img/0901/d6d15b1c-4a30-4f74-a3fd-d4c8ee4169ca.jpg\"]","trial_type":"similarity","trial_index":103,"time_elapsed":864553,"internal_node_id":"0.0-6.0-97.0"},{"sim_score":2,"rt":4492,"stimulus":"[\"img/0875/42910c99-5463-450a-a0f8-d4d060a11455.jpg\",\"img/0766/d8221e53-2300-4d99-ae1b-0bfb0eabe579.jpg\"]","trial_type":"similarity","trial_index":104,"time_elapsed":870046,"internal_node_id":"0.0-6.0-98.0"},{"sim_score":7,"rt":4355,"stimulus":"[\"img/0758/b76ceca7-95ac-46e4-ac13-da02c8e93be9.jpg\",\"img/0874/3ce41e7c-40c8-4d58-a546-171114521796.jpg\"]","trial_type":"similarity","trial_index":105,"time_elapsed":875417,"internal_node_id":"0.0-6.0-99.0"},{"sim_score":5,"rt":6641,"stimulus":"[\"img/0904/65e2b70a-b184-4da3-b5c0-5038bdf9469a.jpg\",\"img/0868/7b212364-ff5f-4e28-9241-7eb6ea00161b.jpg\"]","trial_type":"similarity","trial_index":106,"time_elapsed":883064,"internal_node_id":"0.0-6.0-100.0"},{"sim_score":3,"rt":5756,"stimulus":"[\"img/0903/aa842abe-6fa3-448a-bf71-88d3ad28663b.jpg\",\"img/0866/a04d37f0-99dd-478a-b6c6-58b215138f84.jpg\"]","trial_type":"similarity","trial_index":107,"time_elapsed":889825,"internal_node_id":"0.0-6.0-101.0"},{"sim_score":3,"rt":5566,"stimulus":"[\"img/0868/8b0b8473-e2c0-4331-aa56-c3a5c29369da.jpg\",\"img/0769/04347740-f8f6-48bb-887a-f68babd0a0d4.jpg\"]","trial_type":"similarity","trial_index":108,"time_elapsed":896395,"internal_node_id":"0.0-6.0-102.0"},{"sim_score":6,"rt":6637,"stimulus":"[\"img/0902/12452bb1-b8c0-4e4d-ad4d-47e279e5933c.jpg\",\"img/0899/56a605c3-d0a2-4215-89e1-779279d85a7c.jpg\"]","trial_type":"similarity","trial_index":109,"time_elapsed":904035,"internal_node_id":"0.0-6.0-103.0"},{"sim_score":3,"rt":5371,"stimulus":"[\"img/0868/d98ca254-b195-477f-b57e-5760a2717db8.jpg\",\"img/0862/e697469a-ec19-4414-b972-7b9f3564785b.jpg\"]","trial_type":"similarity","trial_index":110,"time_elapsed":910409,"internal_node_id":"0.0-6.0-104.0"},{"sim_score":7,"rt":5669,"stimulus":"[\"img/0903/4cbdc464-e562-4ec2-9bb6-15f894fdf528.jpg\",\"img/0894/7dd6ff43-f8fc-408a-8a41-a2b261871820.jpg\"]","trial_type":"similarity","trial_index":111,"time_elapsed":917082,"internal_node_id":"0.0-6.0-105.0"},{"sim_score":7,"rt":4566,"stimulus":"[\"img/0864/8ddd2e30-a1d0-479f-9cbe-591213023893.jpg\",\"img/0874/adf9a8f1-c40b-402b-b95b-1e85a54a7b62.jpg\"]","trial_type":"similarity","trial_index":112,"time_elapsed":922651,"internal_node_id":"0.0-6.0-106.0"},{"sim_score":3,"rt":4611,"stimulus":"[\"img/0862/de9ad88c-b522-430a-8ee9-eb06a9f85df5.jpg\",\"img/0902/04a6ad4a-afc6-4871-8225-56b299af7b6b.jpg\"]","trial_type":"similarity","trial_index":113,"time_elapsed":928266,"internal_node_id":"0.0-6.0-107.0"},{"sim_score":6,"rt":6106,"stimulus":"[\"img/0904/09934646-45d2-4147-8fec-64a22a5ac822.jpg\",\"img/0903/2c7b4aed-6038-4aac-958a-e3e58341c313.jpg\"]","trial_type":"similarity","trial_index":114,"time_elapsed":935374,"internal_node_id":"0.0-6.0-108.0"},{"sim_score":2,"rt":3653,"stimulus":"[\"img/0764/1f95ab5f-fb65-4d70-b5db-d6bd6351a8aa.jpg\",\"img/0864/3651d070-2fc5-4848-b6a6-088a2d9ac5c9.jpg\"]","trial_type":"similarity","trial_index":115,"time_elapsed":940030,"internal_node_id":"0.0-6.0-109.0"},{"sim_score":1,"rt":4574,"stimulus":"[\"img/0866/620cd1aa-0800-4414-8f6e-90342e7a99ad.jpg\",\"img/0894/2217bdcd-23a7-42d3-823b-23f2488d7e87.jpg\"]","trial_type":"similarity","trial_index":116,"time_elapsed":945608,"internal_node_id":"0.0-6.0-110.0"},{"sim_score":5,"rt":5607,"stimulus":"[\"img/0899/93494f3b-d539-4075-b027-d82e344563da.jpg\",\"img/0903/6f343da5-00d9-4d50-89d1-2ed24cdb8319.jpg\"]","trial_type":"similarity","trial_index":117,"time_elapsed":952218,"internal_node_id":"0.0-6.0-111.0"},{"sim_score":7,"rt":5550,"stimulus":"[\"img/0902/51493fab-2a10-4385-aa88-bee3db441626.jpg\",\"img/0904/b7c2a2c8-df33-4473-b3d4-ff7147c60db3.jpg\"]","trial_type":"similarity","trial_index":118,"time_elapsed":958772,"internal_node_id":"0.0-6.0-112.0"},{"sim_score":3,"rt":5738,"stimulus":"[\"img/0864/5f74a653-3bdc-4308-8cca-ac667dc22e1f.jpg\",\"img/0860/99c589b9-9140-4d17-90c0-b344323edcda.jpg\"]","trial_type":"similarity","trial_index":119,"time_elapsed":965514,"internal_node_id":"0.0-6.0-113.0"},{"sim_score":1,"rt":3583,"stimulus":"[\"img/0860/29a21a9f-54bb-4093-ad3f-04823ceaa89f.jpg\",\"img/0899/fef567a2-c121-4481-9af0-ff108d199bbf.jpg\"]","trial_type":"similarity","trial_index":120,"time_elapsed":970100,"internal_node_id":"0.0-6.0-114.0"},{"sim_score":3,"rt":6246,"stimulus":"[\"img/0881/62a64f90-7a72-4aee-a1a1-0c548ac9bdda.jpg\",\"img/0903/8fcafe03-43df-4c45-9da5-0df3a1eeccc5.jpg\"]","trial_type":"similarity","trial_index":121,"time_elapsed":977350,"internal_node_id":"0.0-6.0-115.0"},{"sim_score":1,"rt":4731,"stimulus":"[\"img/0894/9b1333fd-3561-43bf-aee5-99b7b7ca3dc3.jpg\",\"img/0874/31e22c7c-99aa-40b1-bf03-dd73fa2df4d6.jpg\"]","trial_type":"similarity","trial_index":122,"time_elapsed":983085,"internal_node_id":"0.0-6.0-116.0"},{"sim_score":3,"rt":6181,"stimulus":"[\"img/0881/6b1189e6-232d-4042-8885-16dc7b10e0d4.jpg\",\"img/0862/f43ceabf-acc1-4107-b857-5d1849808f93.jpg\"]","trial_type":"similarity","trial_index":123,"time_elapsed":990270,"internal_node_id":"0.0-6.0-117.0"},{"sim_score":4,"rt":5799,"stimulus":"[\"img/0868/4a8a45ed-2c4f-421b-9564-409a33ecd26c.jpg\",\"img/0875/dbdd643e-6d0e-4a5c-ab57-b9c29b9c981a.jpg\"]","trial_type":"similarity","trial_index":124,"time_elapsed":997073,"internal_node_id":"0.0-6.0-118.0"},{"sim_score":5,"rt":4612,"stimulus":"[\"img/0860/18dfed73-e36b-4487-a8bd-0b8cff8e3668.jpg\",\"img/0758/eabcd7a8-56ad-4fd2-bc24-90f6b7b33265.jpg\"]","trial_type":"similarity","trial_index":125,"time_elapsed":1002688,"internal_node_id":"0.0-6.0-119.0"},{"sim_score":6,"rt":5646,"stimulus":"[\"img/0864/e02eddb5-f468-499c-91bf-f7be3ffe979b.jpg\",\"img/0875/3ecb367d-e9eb-4826-8aaa-7aa72fb98019.jpg\"]","trial_type":"similarity","trial_index":126,"time_elapsed":1009339,"internal_node_id":"0.0-6.0-120.0"},{"sim_score":3,"rt":5752,"stimulus":"[\"img/0898/0c7dde4f-efce-4b7a-9387-6921635b7890.jpg\",\"img/0866/8efcaa46-83ab-4dee-a35f-850402aa21ae.jpg\"]","trial_type":"similarity","trial_index":127,"time_elapsed":1016094,"internal_node_id":"0.0-6.0-121.0"},{"sim_score":1,"rt":4295,"stimulus":"[\"img/0874/8cdb1c07-1c32-46d2-981c-3636560fa6e5.jpg\",\"img/0904/0d17b811-063e-416e-a23c-3b3cfa4fcce5.jpg\"]","trial_type":"similarity","trial_index":128,"time_elapsed":1021393,"internal_node_id":"0.0-6.0-122.0"},{"sim_score":4,"rt":4034,"stimulus":"[\"img/0904/06dacdc5-2206-4fb8-92b7-88042d22833c.jpg\",\"img/0864/65210d57-1153-4657-886a-32e758f49b4a.jpg\"]","trial_type":"similarity","trial_index":129,"time_elapsed":1026430,"internal_node_id":"0.0-6.0-123.0"},{"sim_score":6,"rt":7849,"stimulus":"[\"img/0894/e5edf723-72a5-4673-8441-6c1734a8929b.jpg\",\"img/0902/b56db912-c3c0-4fc2-b325-d640acd7cb58.jpg\"]","trial_type":"similarity","trial_index":130,"time_elapsed":1035282,"internal_node_id":"0.0-6.0-124.0"},{"sim_score":2,"rt":6403,"stimulus":"[\"img/0868/83b4350a-3b70-4cea-b7f5-b5b56f3050a8.jpg\",\"img/0864/300bb811-8b3c-4c42-8653-6097c3725197.jpg\"]","trial_type":"similarity","trial_index":131,"time_elapsed":1060012,"internal_node_id":"0.0-6.0-125.0"},{"sim_score":1,"rt":3863,"stimulus":"[\"img/0899/9de5e857-aa9a-4e0c-8ba2-46d79bd069a4.jpg\",\"img/0866/f756f7d1-9ad8-4a34-9ef6-7a443d705bfe.jpg\"]","trial_type":"similarity","trial_index":132,"time_elapsed":1064879,"internal_node_id":"0.0-6.0-126.0"},{"sim_score":1,"rt":4230,"stimulus":"[\"img/0875/a4935837-7d3c-4df6-88c1-36a94d4991ca.jpg\",\"img/0904/96e503ea-6630-4996-85f2-0237688ce441.jpg\"]","trial_type":"similarity","trial_index":133,"time_elapsed":1070113,"internal_node_id":"0.0-6.0-127.0"},{"sim_score":3,"rt":5254,"stimulus":"[\"img/0867/2e1a0b58-cdb1-4107-a14e-452530d7b9b0.jpg\",\"img/0899/d8f2dd94-570e-4e8c-a087-d96090fb9e8c.jpg\"]","trial_type":"similarity","trial_index":134,"time_elapsed":1076371,"internal_node_id":"0.0-6.0-128.0"},{"sim_score":6,"rt":4722,"stimulus":"[\"img/0901/b123d109-47b4-4f9a-80c9-9bb16da42efa.jpg\",\"img/0867/c66898ba-b71b-4d50-84f9-f7f84853a98d.jpg\"]","trial_type":"similarity","trial_index":135,"time_elapsed":1082097,"internal_node_id":"0.0-6.0-129.0"},{"sim_score":4,"rt":6887,"stimulus":"[\"img/0864/a248adb3-c70b-4652-b7a3-776d2a1e904b.jpg\",\"img/0769/38a88f69-28fd-4bbd-99f0-f4c02bfd3995.jpg\"]","trial_type":"similarity","trial_index":136,"time_elapsed":1089988,"internal_node_id":"0.0-6.0-130.0"},{"sim_score":2,"rt":5158,"stimulus":"[\"img/0903/ea75f240-fb62-4edb-a709-83e858b202c0.jpg\",\"img/0868/0d3abd3a-b6c3-4584-a9f7-e2da63748b3d.jpg\"]","trial_type":"similarity","trial_index":137,"time_elapsed":1096153,"internal_node_id":"0.0-6.0-131.0"},{"sim_score":5,"rt":5603,"stimulus":"[\"img/0864/87c467d3-abca-482f-ad80-3766c21b1bb3.jpg\",\"img/0867/a498eef3-9fa4-4ab2-9778-4ae82ac40dc5.jpg\"]","trial_type":"similarity","trial_index":138,"time_elapsed":1102761,"internal_node_id":"0.0-6.0-132.0"},{"sim_score":7,"rt":5571,"stimulus":"[\"img/0901/0f670aef-ac36-496d-8142-ee5fdb21dd82.jpg\",\"img/0860/c47fdead-eb02-4989-b078-26f4852f44fe.jpg\"]","trial_type":"similarity","trial_index":139,"time_elapsed":1109335,"internal_node_id":"0.0-6.0-133.0"},{"sim_score":3,"rt":5231,"stimulus":"[\"img/0881/e046471a-35b4-4159-bbf7-3cfd201bef66.jpg\",\"img/0766/33519c22-aaa4-49d7-8d49-ab551db1945e.jpg\"]","trial_type":"similarity","trial_index":140,"time_elapsed":1115569,"internal_node_id":"0.0-6.0-134.0"},{"sim_score":1,"rt":3934,"stimulus":"[\"img/0903/72197c2b-403e-4a26-b391-f1aa8dea4b76.jpg\",\"img/0864/9b2490c5-a282-400a-9736-e1a0ecbf1cb7.jpg\"]","trial_type":"similarity","trial_index":141,"time_elapsed":1120506,"internal_node_id":"0.0-6.0-135.0"},{"sim_score":1,"rt":4169,"stimulus":"[\"img/0758/821c68d3-5cb0-4eae-8659-30e6263fca39.jpg\",\"img/0894/5a49e858-2850-4892-9a06-e9f0efb5f94d.jpg\"]","trial_type":"similarity","trial_index":142,"time_elapsed":1125678,"internal_node_id":"0.0-6.0-136.0"},{"sim_score":6,"rt":5574,"stimulus":"[\"img/0769/057eb0a0-aa5b-40c7-9852-21444f68d767.jpg\",\"img/0860/c3379ff7-0763-48fe-a1ec-7ea3d611bc7a.jpg\"]","trial_type":"similarity","trial_index":143,"time_elapsed":1132257,"internal_node_id":"0.0-6.0-137.0"},{"sim_score":5,"rt":4924,"stimulus":"[\"img/0904/e9423a8c-f946-43ad-ab7b-931acef870e2.jpg\",\"img/0766/a0270213-fa0e-4972-8b56-228c3e01ff90.jpg\"]","trial_type":"similarity","trial_index":144,"time_elapsed":1138184,"internal_node_id":"0.0-6.0-138.0"},{"sim_score":4,"rt":7365,"stimulus":"[\"img/0868/c8ac40c7-6904-4e13-8d61-c75d3052dc4e.jpg\",\"img/0860/fd4662f9-4c03-4d79-8593-06735e55a64b.jpg\"]","trial_type":"similarity","trial_index":145,"time_elapsed":1146553,"internal_node_id":"0.0-6.0-139.0"},{"sim_score":3,"rt":5510,"stimulus":"[\"img/0758/f61ecdf8-a7d4-4db0-b84d-be46f7cfaffc.jpg\",\"img/0864/6f631579-acf1-415c-a42c-1207f62a8d99.jpg\"]","trial_type":"similarity","trial_index":146,"time_elapsed":1153068,"internal_node_id":"0.0-6.0-140.0"},{"sim_score":6,"rt":4848,"stimulus":"[\"img/0867/bf560d4f-dee3-4f11-a385-705cc1aa5f3c.jpg\",\"img/0867/8ba0c5a7-c7e4-42cf-a80a-543763b90779.jpg\"]","trial_type":"similarity","trial_index":147,"time_elapsed":1158918,"internal_node_id":"0.0-6.0-141.0"},{"sim_score":7,"rt":4591,"stimulus":"[\"img/0898/08c72dac-f8ad-407a-9ce6-8c9a5d679c3a.jpg\",\"img/0898/ec565187-2e31-4fdd-9a5c-153d0c789ae0.jpg\"]","trial_type":"similarity","trial_index":148,"time_elapsed":1164513,"internal_node_id":"0.0-6.0-142.0"},{"sim_score":4,"rt":6582,"stimulus":"[\"img/0866/4a87911a-d5be-4d4e-ab8e-3d1f581bf507.jpg\",\"img/0769/f6396414-6788-4d59-9683-de153298d89c.jpg\"]","trial_type":"similarity","trial_index":149,"time_elapsed":1172095,"internal_node_id":"0.0-6.0-143.0"},{"sim_score":1,"rt":5182,"stimulus":"[\"img/0860/4c530c3c-6aab-492a-94d1-9c01797bde40.jpg\",\"img/0898/cd3aaa3f-efa9-4ab3-8d6f-a6a9273ddf42.jpg\"]","trial_type":"similarity","trial_index":150,"time_elapsed":1178280,"internal_node_id":"0.0-6.0-144.0"},{"sim_score":1,"rt":4824,"stimulus":"[\"img/0766/f5f78e4e-d88f-4866-951a-118ba9fec4d0.jpg\",\"img/0864/5f33e097-23e3-4002-882d-76e8cb15f451.jpg\"]","trial_type":"similarity","trial_index":151,"time_elapsed":1184108,"internal_node_id":"0.0-6.0-145.0"},{"sim_score":1,"rt":4902,"stimulus":"[\"img/0860/15b24a61-25be-4356-9eac-5ce95d0cb4a4.jpg\",\"img/0903/e2e55a9e-0397-4dc0-8adf-4a54cfefe1fe.jpg\"]","trial_type":"similarity","trial_index":152,"time_elapsed":1190014,"internal_node_id":"0.0-6.0-146.0"},{"sim_score":1,"rt":6599,"stimulus":"[\"img/0867/ac1797e4-8afc-48fe-b252-86d1defb1cca.jpg\",\"img/0764/83c93cce-18d1-4aa7-9e23-2c268afe0a46.jpg\"]","trial_type":"similarity","trial_index":153,"time_elapsed":1197617,"internal_node_id":"0.0-6.0-147.0"},{"sim_score":6,"rt":4324,"stimulus":"[\"img/0769/76eaa4a3-dfe9-4dc1-9efb-caebe86264e1.jpg\",\"img/0904/24fc38fe-842c-4831-ad8a-b1de5c25c0a8.jpg\"]","trial_type":"similarity","trial_index":154,"time_elapsed":1202944,"internal_node_id":"0.0-6.0-148.0"},{"sim_score":6,"rt":5410,"stimulus":"[\"img/0764/29072395-f595-4e3c-83d3-ff87010039fa.jpg\",\"img/0901/443f2e59-199b-4f7b-9de9-c44ad97326a5.jpg\"]","trial_type":"similarity","trial_index":155,"time_elapsed":1209358,"internal_node_id":"0.0-6.0-149.0"},{"sim_score":4,"rt":7083,"stimulus":"[\"img/0904/1d10df11-b5c8-4370-9a6b-097a7f965895.jpg\",\"img/0899/ddf96ade-692e-4602-bd22-dedbb46401bc.jpg\"]","trial_type":"similarity","trial_index":156,"time_elapsed":1217445,"internal_node_id":"0.0-6.0-150.0"},{"sim_score":2,"rt":4714,"stimulus":"[\"img/0862/a0a3a7ba-7798-46a3-b4ca-05e1f6e581d0.jpg\",\"img/0867/179ab87a-8eac-4c52-a41f-2e48e3120f09.jpg\"]","trial_type":"similarity","trial_index":157,"time_elapsed":1223162,"internal_node_id":"0.0-6.0-151.0"},{"sim_score":6,"rt":5673,"stimulus":"[\"img/0766/d14acac4-7db1-4b07-8f8f-302437326fc0.jpg\",\"img/0766/ef3b15ce-abb7-4292-ad93-aec8e8b50520.jpg\"]","trial_type":"similarity","trial_index":158,"time_elapsed":1229839,"internal_node_id":"0.0-6.0-152.0"},{"sim_score":2,"rt":3800,"stimulus":"[\"img/0862/5d887e9f-89e2-4ebc-80a0-6d46fe6480db.jpg\",\"img/0894/492d2f29-d7b9-4422-8be8-47fd58bfaa8b.jpg\"]","trial_type":"similarity","trial_index":159,"time_elapsed":1234643,"internal_node_id":"0.0-6.0-153.0"},{"sim_score":5,"rt":5521,"stimulus":"[\"img/0899/a048912c-b12c-40e3-90af-46b69b0cc4fe.jpg\",\"img/0901/7c16dd9c-44ad-4d5b-990c-6a0b9b48b1b1.jpg\"]","trial_type":"similarity","trial_index":160,"time_elapsed":1241167,"internal_node_id":"0.0-6.0-154.0"},{"sim_score":7,"rt":5848,"stimulus":"[\"img/0874/1016b306-087c-4afc-aa08-fa527b28dc76.jpg\",\"img/0874/99f6563c-8a8d-4c1c-a41d-667b618c3fd5.jpg\"]","trial_type":"similarity","trial_index":161,"time_elapsed":1248018,"internal_node_id":"0.0-6.0-155.0"},{"sim_score":5,"rt":5613,"stimulus":"[\"img/0860/5383b320-1518-4095-a58e-5cc1ae30b64c.jpg\",\"img/0867/98d8cd96-1476-4fe0-a3a3-04f875500a1b.jpg\"]","trial_type":"similarity","trial_index":162,"time_elapsed":1254635,"internal_node_id":"0.0-6.0-156.0"},{"sim_score":3,"rt":5996,"stimulus":"[\"img/0901/8bb79e82-9c43-4b6f-a655-40655519598b.jpg\",\"img/0881/c843e210-bdfe-4a7c-8bbe-fcea1f90fe1c.jpg\"]","trial_type":"similarity","trial_index":163,"time_elapsed":1261635,"internal_node_id":"0.0-6.0-157.0"},{"sim_score":5,"rt":6137,"stimulus":"[\"img/0903/6a87dbad-9b8d-4ff5-9c41-03c9aa24f0c3.jpg\",\"img/0902/b03129ba-b087-4558-af37-e8399d6217d6.jpg\"]","trial_type":"similarity","trial_index":164,"time_elapsed":1268776,"internal_node_id":"0.0-6.0-158.0"},{"sim_score":2,"rt":3620,"stimulus":"[\"img/0860/e14d67c1-6d92-4f1e-9257-c8607159c19c.jpg\",\"img/0764/ec2dd087-c471-4370-b570-95a542506a96.jpg\"]","trial_type":"similarity","trial_index":165,"time_elapsed":1273399,"internal_node_id":"0.0-6.0-159.0"},{"sim_score":2,"rt":4974,"stimulus":"[\"img/0902/d5e25767-e8ec-45f3-ac0a-7b4a6f7a9edc.jpg\",\"img/0875/cff79b3a-a797-4393-9757-6275f999ec04.jpg\"]","trial_type":"similarity","trial_index":166,"time_elapsed":1279376,"internal_node_id":"0.0-6.0-160.0"},{"sim_score":4,"rt":5736,"stimulus":"[\"img/0898/04e39a7a-fcf6-4156-ab0e-f5871f335e1c.jpg\",\"img/0862/92f0146c-20c4-482e-aef5-adb693790338.jpg\"]","trial_type":"similarity","trial_index":167,"time_elapsed":1286115,"internal_node_id":"0.0-6.0-161.0"},{"sim_score":7,"rt":5378,"stimulus":"[\"img/0894/151063aa-6472-4745-837b-36603aba5966.jpg\",\"img/0875/34132396-d896-4c2d-8087-646dd867e769.jpg\"]","trial_type":"similarity","trial_index":168,"time_elapsed":1292496,"internal_node_id":"0.0-6.0-162.0"},{"sim_score":6,"rt":4121,"stimulus":"[\"img/0866/02f5e6b9-52b7-448c-9708-5b460d0c9a23.jpg\",\"img/0864/6e846d43-94a6-4b37-a268-65eda979f052.jpg\"]","trial_type":"similarity","trial_index":169,"time_elapsed":1297620,"internal_node_id":"0.0-6.0-163.0"},{"sim_score":1,"rt":3218,"stimulus":"[\"img/0766/0025de5e-f620-4079-8a0f-00326ff3a6b0.jpg\",\"img/0862/cdaed51d-9e2f-4807-801a-4663c40077e2.jpg\"]","trial_type":"similarity","trial_index":170,"time_elapsed":1301841,"internal_node_id":"0.0-6.0-164.0"},{"sim_score":5,"rt":5496,"stimulus":"[\"img/0866/c446214b-a368-4c65-ae39-ea46894256ab.jpg\",\"img/0874/a82926a3-0b43-4add-803c-d5f9ea7798ee.jpg\"]","trial_type":"similarity","trial_index":171,"time_elapsed":1308341,"internal_node_id":"0.0-6.0-165.0"},{"sim_score":7,"rt":4706,"stimulus":"[\"img/0862/064818ee-13d5-4618-bb24-21c7368ea278.jpg\",\"img/0860/17b44a7d-c5ca-479f-9e87-f65a64f5c80e.jpg\"]","trial_type":"similarity","trial_index":172,"time_elapsed":1314052,"internal_node_id":"0.0-6.0-166.0"},{"sim_score":5,"rt":5050,"stimulus":"[\"img/0766/aaec5f42-7f0a-4a16-aeca-488d757acbcc.jpg\",\"img/0901/4ca4f962-40c0-4c59-b14a-3cd7b8c9029b.jpg\"]","trial_type":"similarity","trial_index":173,"time_elapsed":1332690,"internal_node_id":"0.0-6.0-167.0"},{"sim_score":2,"rt":5394,"stimulus":"[\"img/0862/f188d4f0-76a4-4102-818c-a209969d73a5.jpg\",\"img/0862/00c06b00-3b73-44e9-bc1e-c5aafb438321.jpg\"]","trial_type":"similarity","trial_index":174,"time_elapsed":1339089,"internal_node_id":"0.0-6.0-168.0"},{"sim_score":5,"rt":5415,"stimulus":"[\"img/0894/1b3888e6-cf36-4c4a-a039-187aa5cb71ac.jpg\",\"img/0764/c84fbfa8-521c-407a-9bd3-24f7308d896c.jpg\"]","trial_type":"similarity","trial_index":175,"time_elapsed":1345507,"internal_node_id":"0.0-6.0-169.0"},{"sim_score":1,"rt":4590,"stimulus":"[\"img/0874/eba003b4-cdab-4eee-8bc3-f064c7d94165.jpg\",\"img/0898/4184e5a2-84ea-4f36-9b42-ae58646f6f87.jpg\"]","trial_type":"similarity","trial_index":176,"time_elapsed":1351101,"internal_node_id":"0.0-6.0-170.0"},{"sim_score":3,"rt":4521,"stimulus":"[\"img/0860/31ff6436-98bf-4652-bed2-40f627229568.jpg\",\"img/0766/c23b5a20-e50f-4d85-841f-cf89212a4348.jpg\"]","trial_type":"similarity","trial_index":177,"time_elapsed":1356625,"internal_node_id":"0.0-6.0-171.0"},{"sim_score":4,"rt":5465,"stimulus":"[\"img/0898/6cd3830b-d44e-4915-be2b-88d31424b91c.jpg\",\"img/0864/ef9cbca0-4be8-435d-ad49-977259e80409.jpg\"]","trial_type":"similarity","trial_index":178,"time_elapsed":1363093,"internal_node_id":"0.0-6.0-172.0"},{"sim_score":3,"rt":5589,"stimulus":"[\"img/0881/2a8413be-fec2-4de6-88ad-614dd4cccc9d.jpg\",\"img/0764/438c0217-036f-43c9-9b87-f43144e46011.jpg\"]","trial_type":"similarity","trial_index":179,"time_elapsed":1369685,"internal_node_id":"0.0-6.0-173.0"},{"sim_score":5,"rt":7005,"stimulus":"[\"img/0898/e167334e-cc1d-4986-b3b1-c7bc7da64baa.jpg\",\"img/0868/4e626425-63c8-484a-8a1d-e66ee4e0bef8.jpg\"]","trial_type":"similarity","trial_index":180,"time_elapsed":1377694,"internal_node_id":"0.0-6.0-174.0"},{"sim_score":7,"rt":4574,"stimulus":"[\"img/0864/c3b63e8f-ea39-4d70-a1f2-b3fe4be8eb75.jpg\",\"img/0864/4bd81bc6-c13d-46df-95a9-485886dc7c1b.jpg\"]","trial_type":"similarity","trial_index":181,"time_elapsed":1383272,"internal_node_id":"0.0-6.0-175.0"},{"sim_score":3,"rt":5872,"stimulus":"[\"img/0899/f95cbdb4-f804-4f5d-ad76-373ad343e658.jpg\",\"img/0862/4f0a3b4c-afbf-486e-b248-1d54982f54b4.jpg\"]","trial_type":"similarity","trial_index":182,"time_elapsed":1390149,"internal_node_id":"0.0-6.0-176.0"},{"sim_score":5,"rt":5345,"stimulus":"[\"img/0875/90da8d75-108a-44ad-b999-e21fee3860d3.jpg\",\"img/0758/3ddd05d3-557e-4ee7-8b78-9d2d681d8ae2.jpg\"]","trial_type":"similarity","trial_index":183,"time_elapsed":1396497,"internal_node_id":"0.0-6.0-177.0"},{"sim_score":3,"rt":5707,"stimulus":"[\"img/0866/d493a2c8-66eb-44b4-be02-2f327b700b7c.jpg\",\"img/0901/b453df0b-4c39-49bb-8ced-6127efffa898.jpg\"]","trial_type":"similarity","trial_index":184,"time_elapsed":1403209,"internal_node_id":"0.0-6.0-178.0"},{"sim_score":5,"rt":7986,"stimulus":"[\"img/0769/50985283-d353-4abc-9abe-14a91d56ebe6.jpg\",\"img/0874/2c9464dd-8a23-4baa-ac94-1ba3af5c15cc.jpg\"]","trial_type":"similarity","trial_index":185,"time_elapsed":1412198,"internal_node_id":"0.0-6.0-179.0"},{"sim_score":5,"rt":5112,"stimulus":"[\"img/0875/8521fd58-3b1e-4dc5-97ae-804edfa6734a.jpg\",\"img/0881/48ed65a5-471f-41af-86ec-3793805c116d.jpg\"]","trial_type":"similarity","trial_index":186,"time_elapsed":1418314,"internal_node_id":"0.0-6.0-180.0"},{"sim_score":6,"rt":7075,"stimulus":"[\"img/0866/23a224f3-2012-4fc8-8e0f-3c36f8de27fd.jpg\",\"img/0868/e0aff734-077f-40dd-9781-74821abd3621.jpg\"]","trial_type":"similarity","trial_index":187,"time_elapsed":1426393,"internal_node_id":"0.0-6.0-181.0"},{"sim_score":3,"rt":5269,"stimulus":"[\"img/0899/0433d056-aa30-4f8a-9aa1-abbb951e4edd.jpg\",\"img/0758/67c0be2f-9e91-48b3-8219-70ac0a1802fa.jpg\"]","trial_type":"similarity","trial_index":188,"time_elapsed":1432666,"internal_node_id":"0.0-6.0-182.0"},{"sim_score":5,"rt":5862,"stimulus":"[\"img/0874/c0378dac-9370-439a-8b79-db27c96fb390.jpg\",\"img/0875/2e13d160-eea1-416b-aff1-d37ab99ecc1d.jpg\"]","trial_type":"similarity","trial_index":189,"time_elapsed":1439531,"internal_node_id":"0.0-6.0-183.0"},{"sim_score":5,"rt":8522,"stimulus":"[\"img/0904/25365108-e038-4021-aac9-797f2063b337.jpg\",\"img/0862/7918ca67-5bd3-4606-a5ea-c39fb11a9297.jpg\"]","trial_type":"similarity","trial_index":190,"time_elapsed":1449057,"internal_node_id":"0.0-6.0-184.0"},{"sim_score":2,"rt":4713,"stimulus":"[\"img/0902/8af4182a-9af9-4212-a436-9195555112d6.jpg\",\"img/0766/2da002a4-05c9-4f5c-9ed7-433b4183e273.jpg\"]","trial_type":"similarity","trial_index":191,"time_elapsed":1454774,"internal_node_id":"0.0-6.0-185.0"},{"sim_score":3,"rt":6247,"stimulus":"[\"img/0758/a709631e-3705-4725-ac40-f0d916924f08.jpg\",\"img/0769/458d9c77-b844-40b5-bb1b-1e3bbd4da64e.jpg\"]","trial_type":"similarity","trial_index":192,"time_elapsed":1462024,"internal_node_id":"0.0-6.0-186.0"},{"sim_score":7,"rt":4304,"stimulus":"[\"img/0881/dea58fad-b4f1-41d9-bd3f-916eff19a3fd.jpg\",\"img/0881/566f45f8-5fed-4479-a60f-26377e60a62d.jpg\"]","trial_type":"similarity","trial_index":193,"time_elapsed":1467332,"internal_node_id":"0.0-6.0-187.0"},{"sim_score":5,"rt":4754,"stimulus":"[\"img/0758/7fba58df-2a7a-4b76-8a8f-62739f97f271.jpg\",\"img/0866/d266fece-59b3-46fa-b69f-96f6efb81b59.jpg\"]","trial_type":"similarity","trial_index":194,"time_elapsed":1473089,"internal_node_id":"0.0-6.0-188.0"},{"sim_score":6,"rt":5435,"stimulus":"[\"img/0764/d0bef2e0-e16b-4c82-9451-c1d16265eb67.jpg\",\"img/0898/01bfe666-3510-4fc7-964f-d00d28732dc8.jpg\"]","trial_type":"similarity","trial_index":195,"time_elapsed":1479528,"internal_node_id":"0.0-6.0-189.0"},{"sim_score":6,"rt":4981,"stimulus":"[\"img/0903/680ed18e-b311-4ecf-9b00-7dea32128334.jpg\",\"img/0901/233a6948-48eb-4b67-8259-222b916b2322.jpg\"]","trial_type":"similarity","trial_index":196,"time_elapsed":1485513,"internal_node_id":"0.0-6.0-190.0"},{"sim_score":7,"rt":3892,"stimulus":"[\"img/0902/30c420f5-c714-4681-ae5a-c0ba8f636a26.jpg\",\"img/0898/993d8f2d-bef7-4251-a193-0f93a32b7763.jpg\"]","trial_type":"similarity","trial_index":197,"time_elapsed":1490410,"internal_node_id":"0.0-6.0-191.0"},{"sim_score":1,"rt":5458,"stimulus":"[\"img/0864/ea327690-500b-4137-bf91-451b309fe6a5.jpg\",\"img/0901/a6776381-91fe-43f8-ab73-261d318f95fd.jpg\"]","trial_type":"similarity","trial_index":198,"time_elapsed":1496873,"internal_node_id":"0.0-6.0-192.0"},{"sim_score":3,"rt":5104,"stimulus":"[\"img/0894/b2d2f66e-e480-46da-a02a-6d0c6b285d78.jpg\",\"img/0881/609a5e93-38b5-4940-8627-2bf8fad7f802.jpg\"]","trial_type":"similarity","trial_index":199,"time_elapsed":1502980,"internal_node_id":"0.0-6.0-193.0"},{"sim_score":7,"rt":4260,"stimulus":"[\"img/0868/6a28c3b0-3d76-498a-9fb7-ddafc665eca8.jpg\",\"img/0868/77091fc7-a590-4ebb-b915-fdb2483a2399.jpg\"]","trial_type":"similarity","trial_index":200,"time_elapsed":1508244,"internal_node_id":"0.0-6.0-194.0"},{"sim_score":7,"rt":5638,"stimulus":"[\"img/0899/a05bea16-2bb4-4cb9-b8fb-4ff975db6971.jpg\",\"img/0764/1def7b22-b054-4ec2-860b-73d25691823b.jpg\"]","trial_type":"similarity","trial_index":201,"time_elapsed":1514886,"internal_node_id":"0.0-6.0-195.0"},{"sim_score":2,"rt":5300,"stimulus":"[\"img/0881/7e31e5dc-2240-4b1b-b5a0-3acd980099ef.jpg\",\"img/0904/d23dd7be-7fe8-4435-82f7-bd592c01e6a1.jpg\"]","trial_type":"similarity","trial_index":202,"time_elapsed":1521189,"internal_node_id":"0.0-6.0-196.0"},{"sim_score":3,"rt":6384,"stimulus":"[\"img/0864/e8bd659f-aa43-4748-877e-3118e8b4e189.jpg\",\"img/0902/af40b98b-3d23-4d95-b401-49ba5783ce39.jpg\"]","trial_type":"similarity","trial_index":203,"time_elapsed":1528577,"internal_node_id":"0.0-6.0-197.0"},{"sim_score":6,"rt":5606,"stimulus":"[\"img/0894/38f5931f-926d-414e-b498-66b188978b7a.jpg\",\"img/0904/2c98dc56-88d1-4fb5-a999-b6a7861f65f0.jpg\"]","trial_type":"similarity","trial_index":204,"time_elapsed":1535186,"internal_node_id":"0.0-6.0-198.0"},{"sim_score":7,"rt":4535,"stimulus":"[\"img/0901/1b86f2fc-7a1d-4aa8-9252-114f92edef3b.jpg\",\"img/0901/5b97abf9-f0c8-4fd1-b921-36d574779078.jpg\"]","trial_type":"similarity","trial_index":205,"time_elapsed":1540724,"internal_node_id":"0.0-6.0-199.0"},{"sim_score":4,"rt":5795,"stimulus":"[\"img/0894/3664e04c-c6d3-4c9b-afb6-25d89974b174.jpg\",\"img/0860/5bff793e-cbd5-4d7e-b628-0ac2b0e30b64.jpg\"]","trial_type":"similarity","trial_index":206,"time_elapsed":1547523,"internal_node_id":"0.0-6.0-200.0"},{"sim_score":7,"rt":4268,"stimulus":"[\"img/0898/661621d4-a14e-487c-8c74-354134a29710.jpg\",\"img/0903/5c6b1f57-b3a2-40f5-9fb1-82785e24b6a0.jpg\"]","trial_type":"similarity","trial_index":207,"time_elapsed":1552795,"internal_node_id":"0.0-6.0-201.0"},{"sim_score":2,"rt":4042,"stimulus":"[\"img/0864/1d15626a-2f7c-410f-819c-0fa2c967e95e.jpg\",\"img/0894/767a0eec-1064-46b1-b1aa-dfa02b0cd74e.jpg\"]","trial_type":"similarity","trial_index":208,"time_elapsed":1557841,"internal_node_id":"0.0-6.0-202.0"},{"sim_score":5,"rt":5958,"stimulus":"[\"img/0874/ca23d307-fc00-4d7d-9106-584c6eb21b4d.jpg\",\"img/0860/8fdba999-b946-4c7d-9891-336018b563ef.jpg\"]","trial_type":"similarity","trial_index":209,"time_elapsed":1564802,"internal_node_id":"0.0-6.0-203.0"},{"sim_score":3,"rt":5371,"stimulus":"[\"img/0862/fb26cb07-d5a9-4653-813c-f41609f26cd5.jpg\",\"img/0875/5a1e5100-0d94-4fec-bbe9-ca9894d2cf8e.jpg\"]","trial_type":"similarity","trial_index":210,"time_elapsed":1571176,"internal_node_id":"0.0-6.0-204.0"},{"sim_score":5,"rt":5934,"stimulus":"[\"img/0867/075e0f95-856b-4cbb-acf5-092393aaf04e.jpg\",\"img/0881/1407b85b-a1c6-45b1-9884-3b24203efadb.jpg\"]","trial_type":"similarity","trial_index":211,"time_elapsed":1578114,"internal_node_id":"0.0-6.0-205.0"},{"sim_score":4,"rt":6071,"stimulus":"[\"img/0901/f469cb1d-6d81-4a45-bab5-cd0b650c2b4f.jpg\",\"img/0902/40d0b6ec-3907-4573-b227-e7d8e9cad1c3.jpg\"]","trial_type":"similarity","trial_index":212,"time_elapsed":1585188,"internal_node_id":"0.0-6.0-206.0"},{"sim_score":1,"rt":3711,"stimulus":"[\"img/0899/0adc0bc3-6fca-4078-be6f-d45ddf1653d5.jpg\",\"img/0864/1ebbc554-99fa-49f9-8799-317375a79820.jpg\"]","trial_type":"similarity","trial_index":213,"time_elapsed":1589906,"internal_node_id":"0.0-6.0-207.0"},{"sim_score":2,"rt":5722,"stimulus":"[\"img/0901/548d1110-7cb8-42a2-9927-9798875c8b5c.jpg\",\"img/0769/ebef2ddc-ba59-4e0e-97f8-927864eb5081.jpg\"]","trial_type":"similarity","trial_index":214,"time_elapsed":1596631,"internal_node_id":"0.0-6.0-208.0"},{"sim_score":6,"rt":4514,"stimulus":"[\"img/0902/6730b12a-f0a7-4587-8c10-a32fae16565b.jpg\",\"img/0902/d3e55000-c839-4bf9-9b9b-4af0a9925af1.jpg\"]","trial_type":"similarity","trial_index":215,"time_elapsed":1612835,"internal_node_id":"0.0-6.0-209.0"},{"view_history":"[{\"page_index\":0,\"viewing_time\":9865}]","rt":9865,"trial_type":"instructions","trial_index":216,"time_elapsed":1623701,"internal_node_id":"0.0-7.0"},{"rt":57001,"responses":"{\"Q0\":\"Nashville Warbler\"}","answer":["Nashville Warbler"],"trial_type":"image-multi-choice","trial_index":217,"time_elapsed":1681762,"internal_node_id":"0.0-8.0-0.0"},{"rt":110946,"responses":"{\"Q0\":\"Black-and-white Warbler\"}","answer":["Black-and-white Warbler"],"trial_type":"image-multi-choice","trial_index":218,"time_elapsed":1793716,"internal_node_id":"0.0-8.0-1.0"},{"rt":17856,"responses":"{\"Q0\":\"Blackburnian Warbler\"}","answer":["Townsend's Warbler"],"trial_type":"image-multi-choice","trial_index":219,"time_elapsed":1812594,"internal_node_id":"0.0-8.0-2.0"},{"rt":62562,"responses":"{\"Q0\":\"White-throated Sparrow\"}","answer":["Lark Sparrow"],"trial_type":"image-multi-choice","trial_index":220,"time_elapsed":1876165,"internal_node_id":"0.0-8.0-3.0"},{"rt":115673,"responses":"{\"Q0\":\"Yellow Warbler\"}","answer":["Yellow Warbler"],"trial_type":"image-multi-choice","trial_index":221,"time_elapsed":1992845,"internal_node_id":"0.0-8.0-4.0"},{"rt":81338,"responses":"{\"Q0\":\"Tennessee Warbler\"}","answer":["Orange-crowned Warbler"],"trial_type":"image-multi-choice","trial_index":222,"time_elapsed":2075194,"internal_node_id":"0.0-8.0-5.0"},{"rt":64596,"responses":"{\"Q0\":\"White-throated Sparrow\"}","answer":["White-throated Sparrow"],"trial_type":"image-multi-choice","trial_index":223,"time_elapsed":2140801,"internal_node_id":"0.0-8.0-6.0"},{"rt":74769,"responses":"{\"Q0\":\"Song Sparrow\"}","answer":["Fox Sparrow"],"trial_type":"image-multi-choice","trial_index":224,"time_elapsed":2216582,"internal_node_id":"0.0-8.0-7.0"},{"rt":45704,"responses":"{\"Q0\":\"Song Sparrow\"}","answer":["Song Sparrow"],"trial_type":"image-multi-choice","trial_index":225,"time_elapsed":2263296,"internal_node_id":"0.0-8.0-8.0"},{"rt":50740,"responses":"{\"Q0\":\"Magnolia Warbler\"}","answer":["Blackburnian Warbler"],"trial_type":"image-multi-choice","trial_index":226,"time_elapsed":2315045,"internal_node_id":"0.0-8.0-9.0"},{"rt":171897,"responses":"{\"Q0\":\"Vesper Sparrow\"}","answer":["Vesper Sparrow"],"trial_type":"image-multi-choice","trial_index":227,"time_elapsed":2487952,"internal_node_id":"0.0-8.0-10.0"},{"rt":23681,"responses":"{\"Q0\":\"Lincoln's Sparrow\"}","answer":["White-crowned Sparrow"],"trial_type":"image-multi-choice","trial_index":228,"time_elapsed":2512642,"internal_node_id":"0.0-8.0-11.0"},{"rt":25520,"responses":"{\"Q0\":\"Swamp Sparrow\"}","answer":["American Tree Sparrow"],"trial_type":"image-multi-choice","trial_index":229,"time_elapsed":2539173,"internal_node_id":"0.0-8.0-12.0"},{"rt":59281,"responses":"{\"Q0\":\"Nashville Warbler\"}","answer":["Tennessee Warbler"],"trial_type":"image-multi-choice","trial_index":230,"time_elapsed":2599463,"internal_node_id":"0.0-8.0-13.0"},{"rt":7025,"responses":"{\"Q0\":\"Black-and-white Warbler\"}","answer":["Magnolia Warbler"],"trial_type":"image-multi-choice","trial_index":231,"time_elapsed":2607496,"internal_node_id":"0.0-8.0-14.0"},{"rt":42930,"responses":"{\"Q0\":\"Northern Waterthrush\"}","answer":["Northern Waterthrush"],"trial_type":"image-multi-choice","trial_index":232,"time_elapsed":2651435,"internal_node_id":"0.0-8.0-15.0"},{"rt":12906,"responses":"{\"Q0\":\"American Tree Sparrow\"}","answer":["Chipping Sparrow"],"trial_type":"image-multi-choice","trial_index":233,"time_elapsed":2665357,"internal_node_id":"0.0-8.0-16.0"},{"rt":5661,"responses":"{\"Q0\":\"Chipping Sparrow\"}","answer":["Swamp Sparrow"],"trial_type":"image-multi-choice","trial_index":234,"time_elapsed":2672035,"internal_node_id":"0.0-8.0-17.0"},{"rt":22773,"responses":"{\"Q0\":\"Ovenbird\"}","answer":["Lincoln's Sparrow"],"trial_type":"image-multi-choice","trial_index":235,"time_elapsed":2695818,"internal_node_id":"0.0-8.0-18.0"},{"rt":6707,"responses":"{\"Q0\":\"Ovenbird\"}","answer":["Ovenbird"],"trial_type":"image-multi-choice","trial_index":236,"time_elapsed":2703535,"internal_node_id":"0.0-8.0-19.0"}]