"view_history","rt","trial_type","trial_index","time_elapsed","internal_node_id","sim_score","stimulus","responses","answer"
"[{""page_index"":0,""viewing_time"":22685}]","22687","instructions","0","22689","0.0-0.0","","","",""
"","5469","similarity_demo","1","29181","0.0-1.0","5","[""img/866.jpg"",""img/868.jpg""]","",""
"[{""page_index"":0,""viewing_time"":7931}]","7931","instructions","2","38113","0.0-2.0","","","",""
"","3323","similarity_demo","3","42451","0.0-3.0","3","[""img/766.jpg"",""img/867.jpg""]","",""
"[{""page_index"":0,""viewing_time"":3957}]","3957","instructions","4","47409","0.0-4.0","","","",""
"[{""page_index"":0,""viewing_time"":31285}]","31286","instructions","5","79700","0.0-5.0","","","",""
"","4695","similarity","6","85430","0.0-6.0-0.0","3","[""img/0868/e0aff734-077f-40dd-9781-74821abd3621.jpg"",""img/0901/233a6948-48eb-4b67-8259-222b916b2322.jpg""]","",""
"","4018","similarity","7","90468","0.0-6.0-1.0","1","[""img/0769/e31b3bd8-efcb-413e-aa8c-75fac2b8f2ac.jpg"",""img/0867/f8159067-056c-41f1-a136-c529fe5e970a.jpg""]","",""
"","2838","similarity","8","94322","0.0-6.0-2.0","5","[""img/0766/f011ef45-fb48-44b8-8224-867ed2ccf786.jpg"",""img/0898/b3290bf9-215b-4b45-b21a-65bdf73f142f.jpg""]","",""
"","4740","similarity","9","100076","0.0-6.0-3.0","3","[""img/0902/eb3e7e71-8ff1-4b88-a6a7-47e2c1ce1683.jpg"",""img/0881/48ed65a5-471f-41af-86ec-3793805c116d.jpg""]","",""
"","4111","similarity","10","105202","0.0-6.0-4.0","6","[""img/0894/bd34223a-2f66-4e16-9d18-193a746b69ff.jpg"",""img/0894/0130a973-d993-41f8-874a-fee23d9ac11f.jpg""]","",""
"","6079","similarity","11","112299","0.0-6.0-5.0","5","[""img/0874/85eb9b8a-c4c6-4e5a-b8e7-363a87a82054.jpg"",""img/0899/ddf96ade-692e-4602-bd22-dedbb46401bc.jpg""]","",""
"","6728","similarity","12","120043","0.0-6.0-6.0","6","[""img/0904/2fd488e9-960f-41f7-8a44-33375f7d5051.jpg"",""img/0764/29072395-f595-4e3c-83d3-ff87010039fa.jpg""]","",""
"","2984","similarity","13","124045","0.0-6.0-7.0","6","[""img/0899/5b56dd3e-3f49-47cc-af84-16da6457753b.jpg"",""img/0898/08c72dac-f8ad-407a-9ce6-8c9a5d679c3a.jpg""]","",""
"","5749","similarity","14","130839","0.0-6.0-8.0","5","[""img/0874/adf9a8f1-c40b-402b-b95b-1e85a54a7b62.jpg"",""img/0903/0e5c2854-42aa-48c0-9c3d-6e1ad2a400bd.jpg""]","",""
"","3767","similarity","15","135618","0.0-6.0-9.0","7","[""img/0881/19e82c47-8e4b-45d2-a6c8-74181eb4155e.jpg"",""img/0758/caa93da2-9edf-49fa-96b9-32dedd8f5078.jpg""]","",""
"","3338","similarity","16","139971","0.0-6.0-10.0","5","[""img/0898/01bfe666-3510-4fc7-964f-d00d28732dc8.jpg"",""img/0901/4d1bed7e-3c4e-4f6c-ada9-4beb66ba9e39.jpg""]","",""
"","2628","similarity","17","143611","0.0-6.0-11.0","6","[""img/0903/b7e3723f-fd03-4f3d-8820-f19496463a34.jpg"",""img/0769/50985283-d353-4abc-9abe-14a91d56ebe6.jpg""]","",""
"","3109","similarity","18","147730","0.0-6.0-12.0","1","[""img/0764/39a9fc7e-b863-432c-9374-de43983f31a5.jpg"",""img/0868/179a5502-ab5c-478e-8263-5a1fbcc101d2.jpg""]","",""
"","3348","similarity","19","152094","0.0-6.0-13.0","3","[""img/0867/8ba0c5a7-c7e4-42cf-a80a-543763b90779.jpg"",""img/0903/f10e9eb5-0c21-4a6a-944c-5f10a6d0fa4d.jpg""]","",""
"","5261","similarity","20","158370","0.0-6.0-14.0","1","[""img/0766/91fc8c4d-862f-4d2b-b1a1-2db8d729b6b7.jpg"",""img/0758/53f35650-e455-4b53-8be4-c3c8271c6466.jpg""]","",""
"","14107","similarity","21","173490","0.0-6.0-15.0","5","[""img/0902/d1083f2c-5520-44ec-81a8-3f856fbf0e80.jpg"",""img/0860/fd4662f9-4c03-4d79-8593-06735e55a64b.jpg""]","",""
"","3269","similarity","22","177771","0.0-6.0-16.0","2","[""img/0769/91acb237-65a3-4d0b-9748-af5c7b83d3c7.jpg"",""img/0875/5a7c4e35-6514-4e12-8879-d16071da4cd6.jpg""]","",""
"","3339","similarity","23","182122","0.0-6.0-17.0","5","[""img/0904/2c98dc56-88d1-4fb5-a999-b6a7861f65f0.jpg"",""img/0866/07c9c966-3c8d-40e7-8128-92b2acbaed5d.jpg""]","",""
"","3579","similarity","24","186715","0.0-6.0-18.0","7","[""img/0875/f87b67d7-c33e-40d1-b281-248c4be1cb6e.jpg"",""img/0875/5a716432-c6ca-4b1c-955a-2b8ac25198ee.jpg""]","",""
"","3621","similarity","25","191346","0.0-6.0-19.0","7","[""img/0758/e1ba5e53-addc-436a-b428-d34fc1b130dc.jpg"",""img/0758/61d64021-9214-4951-bdf8-f871f9827cf9.jpg""]","",""
"","3948","similarity","26","196307","0.0-6.0-20.0","5","[""img/0902/168ebd47-9e82-4ab7-a18b-c3da85072db8.jpg"",""img/0874/bf14b896-e930-4fd9-9c05-2e83317a2773.jpg""]","",""
"","3785","similarity","27","201107","0.0-6.0-21.0","6","[""img/0764/f64dfa83-333d-494c-87b5-73e942f1766e.jpg"",""img/0769/35f2dd39-40aa-498e-b401-9f1ef2622d00.jpg""]","",""
"","4652","similarity","28","206771","0.0-6.0-22.0","3","[""img/0901/58ec7fa9-b466-4651-90aa-c082df0972de.jpg"",""img/0874/ca23d307-fc00-4d7d-9106-584c6eb21b4d.jpg""]","",""
"","4628","similarity","29","212411","0.0-6.0-23.0","3","[""img/0875/8521fd58-3b1e-4dc5-97ae-804edfa6734a.jpg"",""img/0903/39365c8e-a733-4801-ac7d-b87e38c3784b.jpg""]","",""
"","4298","similarity","30","217723","0.0-6.0-24.0","3","[""img/0769/3adfa417-3b90-4aab-b437-5eaa474189cb.jpg"",""img/0881/ed4c971f-0873-4fc8-b6d6-e8bbd82f0bcc.jpg""]","",""
"","5004","similarity","31","223738","0.0-6.0-25.0","3","[""img/0867/bf560d4f-dee3-4f11-a385-705cc1aa5f3c.jpg"",""img/0904/1d10df11-b5c8-4370-9a6b-097a7f965895.jpg""]","",""
"","4590","similarity","32","229338","0.0-6.0-26.0","5","[""img/0860/8277806e-b684-4474-8f7b-3fca946d7d4f.jpg"",""img/0881/609a5e93-38b5-4940-8627-2bf8fad7f802.jpg""]","",""
"","4306","similarity","33","234663","0.0-6.0-27.0","7","[""img/0866/8efcaa46-83ab-4dee-a35f-850402aa21ae.jpg"",""img/0866/0207e9a2-7dbb-40b5-9459-b472aaeceb2a.jpg""]","",""
"","4047","similarity","34","239722","0.0-6.0-28.0","3","[""img/0764/5c8fbafc-e62e-43ed-9b37-f73e8e45147d.jpg"",""img/0862/99a99e39-8355-44ec-b993-e7bcec111e1c.jpg""]","",""
"","3925","similarity","35","244658","0.0-6.0-29.0","3","[""img/0904/09dac84f-3d1c-4445-a68e-d0389fdbf1e9.jpg"",""img/0758/3ddd05d3-557e-4ee7-8b78-9d2d681d8ae2.jpg""]","",""
"","5021","similarity","36","250690","0.0-6.0-30.0","3","[""img/0894/b2d2f66e-e480-46da-a02a-6d0c6b285d78.jpg"",""img/0899/ad8268c5-8199-48d0-ad70-c5b6d6c599ec.jpg""]","",""
"","3007","similarity","37","254706","0.0-6.0-31.0","1","[""img/0860/c47fdead-eb02-4989-b078-26f4852f44fe.jpg"",""img/0904/25365108-e038-4021-aac9-797f2063b337.jpg""]","",""
"","5557","similarity","38","261273","0.0-6.0-32.0","4","[""img/0874/29830da7-be5f-44e5-b141-652a0ccf7269.jpg"",""img/0881/44e09805-5a25-4f17-a716-4ad4a331b174.jpg""]","",""
"","3374","similarity","39","265658","0.0-6.0-33.0","5","[""img/0881/20af39f5-373d-4a55-a437-2dc4c0382c46.jpg"",""img/0899/d60714ae-98d7-4564-8c98-94dba1351135.jpg""]","",""
"","5174","similarity","40","271842","0.0-6.0-34.0","4","[""img/0866/9b38d691-1802-4959-ab3f-fc902f0e4ea6.jpg"",""img/0862/92f0146c-20c4-482e-aef5-adb693790338.jpg""]","",""
"","3670","similarity","41","276522","0.0-6.0-35.0","2","[""img/0868/0d3abd3a-b6c3-4584-a9f7-e2da63748b3d.jpg"",""img/0894/4739e06d-c31e-4bf1-bf91-c97fa9afb456.jpg""]","",""
"","4494","similarity","42","282026","0.0-6.0-36.0","7","[""img/0860/5bff793e-cbd5-4d7e-b628-0ac2b0e30b64.jpg"",""img/0860/15b24a61-25be-4356-9eac-5ce95d0cb4a4.jpg""]","",""
"","3823","similarity","43","286857","0.0-6.0-37.0","5","[""img/0862/ad593cc7-cabe-4bb7-8e14-8a447a0717b4.jpg"",""img/0864/65210d57-1153-4657-886a-32e758f49b4a.jpg""]","",""
"","4207","similarity","44","292074","0.0-6.0-38.0","1","[""img/0766/214866ee-423d-4629-9bb9-41572bdc7dac.jpg"",""img/0866/d266fece-59b3-46fa-b69f-96f6efb81b59.jpg""]","",""
"","3358","similarity","45","296442","0.0-6.0-39.0","2","[""img/0875/d59ff733-eaff-4ee2-9443-06954dd0bcb6.jpg"",""img/0898/993d8f2d-bef7-4251-a193-0f93a32b7763.jpg""]","",""
"","4606","similarity","46","302058","0.0-6.0-40.0","6","[""img/0766/e8052e17-9dae-4139-802b-6e590cb2d526.jpg"",""img/0769/4680bcc3-8fbc-4643-8f9a-12aa0e780b64.jpg""]","",""
"","2502","similarity","47","323474","0.0-6.0-41.0","2","[""img/0874/99f6563c-8a8d-4c1c-a41d-667b618c3fd5.jpg"",""img/0764/e30dba15-e68a-4659-89db-e1654b52fe02.jpg""]","",""
"","2933","similarity","48","327419","0.0-6.0-42.0","2","[""img/0868/15dd6fd7-791e-4b53-b203-195d617521a4.jpg"",""img/0902/cf9dee9c-2bdf-4d64-9302-97f1660fe52c.jpg""]","",""
"","2297","similarity","49","330730","0.0-6.0-43.0","2","[""img/0875/5a1e5100-0d94-4fec-bbe9-ca9894d2cf8e.jpg"",""img/0899/8abe6c69-822c-436c-9bf2-96c818b49ba5.jpg""]","",""
"","2365","similarity","50","334106","0.0-6.0-44.0","4","[""img/0866/945c6710-d15b-4a5b-a8f6-69af0850357f.jpg"",""img/0860/702bd09d-df3a-40aa-a267-5f04474305b5.jpg""]","",""
"","2646","similarity","51","337762","0.0-6.0-45.0","6","[""img/0766/79767d11-b612-4e8a-9e4b-a8ac95bb6a54.jpg"",""img/0903/bf0a7d60-eca5-44b0-bafd-baf21db9904b.jpg""]","",""
"","6310","similarity","52","345082","0.0-6.0-46.0","4","[""img/0901/d6d15b1c-4a30-4f74-a3fd-d4c8ee4169ca.jpg"",""img/0904/6291eb43-c10c-4810-a36a-101d09868b04.jpg""]","",""
"","4531","similarity","53","350626","0.0-6.0-47.0","3","[""img/0758/a709631e-3705-4725-ac40-f0d916924f08.jpg"",""img/0902/0c760cc9-10ac-429e-8957-a7d51fc99683.jpg""]","",""
"","2709","similarity","54","354347","0.0-6.0-48.0","7","[""img/0764/958b8576-3a3b-4acc-96dc-06b74de69f37.jpg"",""img/0764/0e7ed062-f798-4366-8a24-6f430926f919.jpg""]","",""
"","3450","similarity","55","358810","0.0-6.0-49.0","1","[""img/0866/a04d37f0-99dd-478a-b6c6-58b215138f84.jpg"",""img/0902/8065aa6b-4aef-4368-afa2-02c6465ca582.jpg""]","",""
"","2541","similarity","56","362362","0.0-6.0-50.0","2","[""img/0764/50f1b062-d608-4bc0-ab25-b872dcf2ed93.jpg"",""img/0758/7ffbc76b-1fc1-432c-8f7e-9ec8d1b3f643.jpg""]","",""
"","2326","similarity","57","365698","0.0-6.0-51.0","6","[""img/0898/5f699581-3853-4547-856c-12f419ba5af7.jpg"",""img/0894/133a1636-d123-4893-873c-1718050f832a.jpg""]","",""
"","2654","similarity","58","369362","0.0-6.0-52.0","7","[""img/0875/527ced51-8e53-4aab-ab05-86df219104c0.jpg"",""img/0866/bf14b5bd-fb55-47db-86b9-4f8aeb9a6dad.jpg""]","",""
"","3605","similarity","59","373978","0.0-6.0-53.0","6","[""img/0904/65e2b70a-b184-4da3-b5c0-5038bdf9469a.jpg"",""img/0904/0d17b811-063e-416e-a23c-3b3cfa4fcce5.jpg""]","",""
"","3060","similarity","60","378050","0.0-6.0-54.0","5","[""img/0769/022c7e3b-c3f2-4119-b4bc-f22fa7cae18c.jpg"",""img/0769/8598a429-c671-4d2f-842c-32f681f5e412.jpg""]","",""
"","2622","similarity","61","381688","0.0-6.0-55.0","1","[""img/0898/661621d4-a14e-487c-8c74-354134a29710.jpg"",""img/0758/20497cbe-ddae-489e-86e2-ab06985ed07c.jpg""]","",""
"","4639","similarity","62","387338","0.0-6.0-56.0","6","[""img/0769/ebef2ddc-ba59-4e0e-97f8-927864eb5081.jpg"",""img/0902/9f543501-3cf1-45a7-a2f1-eeca87cc15b9.jpg""]","",""
"","2125","similarity","63","390474","0.0-6.0-57.0","7","[""img/0864/0f537697-a314-47c3-a8cc-8df23b7e536c.jpg"",""img/0881/f62bdcd1-a4b7-4d48-83da-d9c9e01c8727.jpg""]","",""
"","2966","similarity","64","394450","0.0-6.0-58.0","6","[""img/0758/eabcd7a8-56ad-4fd2-bc24-90f6b7b33265.jpg"",""img/0868/293079b8-7e0c-4afd-a390-1e5d35fe3ded.jpg""]","",""
"","3349","similarity","65","398810","0.0-6.0-59.0","5","[""img/0862/4f0a3b4c-afbf-486e-b248-1d54982f54b4.jpg"",""img/0769/688d0c52-ad73-4065-a5eb-f8c10d076bff.jpg""]","",""
"","2910","similarity","66","402730","0.0-6.0-60.0","5","[""img/0764/cffc80b0-4a90-4acb-a530-6f480f3ca303.jpg"",""img/0903/47e39de8-6959-469f-8be9-6999a6db207c.jpg""]","",""
"","4453","similarity","67","408194","0.0-6.0-61.0","6","[""img/0899/25ae6ec8-9565-49fe-a8bb-8d0666f52716.jpg"",""img/0899/565ccdd9-0933-4536-a625-3c0e25a713dd.jpg""]","",""
"","3438","similarity","68","412643","0.0-6.0-62.0","6","[""img/0860/c3379ff7-0763-48fe-a1ec-7ea3d611bc7a.jpg"",""img/0875/99698b4d-b4a1-44bc-8c83-8ea755bbbf61.jpg""]","",""
"","2630","similarity","69","416282","0.0-6.0-63.0","5","[""img/0868/4a8a45ed-2c4f-421b-9564-409a33ecd26c.jpg"",""img/0874/a3bc679d-619f-4db6-bb68-116dcb757d9c.jpg""]","",""
"","2398","similarity","70","419690","0.0-6.0-64.0","5","[""img/0758/ddc336e9-a8b6-4bb9-937a-c7e25e0e9250.jpg"",""img/0862/24cdc752-c2e5-4a17-86a6-6f2045d8553b.jpg""]","",""
"","3950","similarity","71","424651","0.0-6.0-65.0","6","[""img/0904/2f88ce53-02d0-4f95-a082-182c56a0eeb4.jpg"",""img/0898/e167334e-cc1d-4986-b3b1-c7bc7da64baa.jpg""]","",""
"","6053","similarity","72","431715","0.0-6.0-66.0","6","[""img/0881/c24f3051-eefa-42de-aba6-fccb56d93c70.jpg"",""img/0866/c446214b-a368-4c65-ae39-ea46894256ab.jpg""]","",""
"","2541","similarity","73","435266","0.0-6.0-67.0","1","[""img/0867/179ab87a-8eac-4c52-a41f-2e48e3120f09.jpg"",""img/0898/0af304a2-6a7a-4082-ab7c-4450cd08cc58.jpg""]","",""
"","2614","similarity","74","438889","0.0-6.0-68.0","4","[""img/0902/51493fab-2a10-4385-aa88-bee3db441626.jpg"",""img/0764/f2f23359-8e82-41d3-8900-5b9f4433991d.jpg""]","",""
"","3127","similarity","75","443026","0.0-6.0-69.0","4","[""img/0875/dbdd643e-6d0e-4a5c-ab57-b9c29b9c981a.jpg"",""img/0867/26611f4e-d694-4460-b7e2-43c62753ddc3.jpg""]","",""
"","4454","similarity","76","448490","0.0-6.0-70.0","7","[""img/0766/d919cedb-f9b7-4f30-83bb-3e9c65001ceb.jpg"",""img/0764/d0bef2e0-e16b-4c82-9451-c1d16265eb67.jpg""]","",""
"","4533","similarity","77","454035","0.0-6.0-71.0","5","[""img/0894/5f15154e-e72e-4ce5-aafb-bce6f0564006.jpg"",""img/0867/1719a35d-f085-48c0-9099-16c94fe418b4.jpg""]","",""
"","3845","similarity","78","458889","0.0-6.0-72.0","1","[""img/0875/cff79b3a-a797-4393-9757-6275f999ec04.jpg"",""img/0764/b8e23f4f-ff19-4472-ad9b-2f85548ebca0.jpg""]","",""
"","2286","similarity","79","462185","0.0-6.0-73.0","7","[""img/0867/075e0f95-856b-4cbb-acf5-092393aaf04e.jpg"",""img/0866/11a1d141-be5e-443c-98c1-a9d4d9e3dec0.jpg""]","",""
"","3375","similarity","80","466569","0.0-6.0-74.0","2","[""img/0903/c3cb4a01-2797-43ca-b216-88c67b323fbb.jpg"",""img/0758/e38fd80d-18d0-42f3-b848-f930788e8bd7.jpg""]","",""
"","3318","similarity","81","470897","0.0-6.0-75.0","1","[""img/0766/a1ed3f0f-e338-4a26-8fe4-4370f0c9fa6e.jpg"",""img/0868/6a28c3b0-3d76-498a-9fb7-ddafc665eca8.jpg""]","",""
"","4254","similarity","82","476162","0.0-6.0-76.0","2","[""img/0874/a82926a3-0b43-4add-803c-d5f9ea7798ee.jpg"",""img/0766/1bc0dccc-a5b5-4375-87fa-28360ca42b12.jpg""]","",""
"","3910","similarity","83","481081","0.0-6.0-77.0","5","[""img/0881/633c6f40-56d9-4b48-bf1c-ecd83116eabb.jpg"",""img/0868/fd307a36-9a3a-47d7-ab7c-f810d0b35040.jpg""]","",""
"","3975","similarity","84","486065","0.0-6.0-78.0","1","[""img/0758/335851a0-a55b-46d8-ab05-8463eda48349.jpg"",""img/0901/f1116359-1ff1-4638-b3b3-700918d36d18.jpg""]","",""
"","3966","similarity","85","491041","0.0-6.0-79.0","1","[""img/0881/0c7068da-d0d9-4103-bda1-74ef7a2b32c3.jpg"",""img/0898/c3cecf20-f7fd-45fa-97d0-dc0a63e8d6c0.jpg""]","",""
"","3543","similarity","86","495593","0.0-6.0-80.0","5","[""img/0867/f8488a47-94ee-4166-952c-44e16cf172f6.jpg"",""img/0758/b76ceca7-95ac-46e4-ac13-da02c8e93be9.jpg""]","",""
"","4118","similarity","87","500722","0.0-6.0-81.0","4","[""img/0769/965c3c44-d9e5-47c5-b61a-2bbdf4215d9a.jpg"",""img/0899/d8f2dd94-570e-4e8c-a087-d96090fb9e8c.jpg""]","",""
"","2846","similarity","88","504577","0.0-6.0-82.0","6","[""img/0903/6a87dbad-9b8d-4ff5-9c41-03c9aa24f0c3.jpg"",""img/0903/6f343da5-00d9-4d50-89d1-2ed24cdb8319.jpg""]","",""
"","6158","similarity","89","521873","0.0-6.0-83.0","3","[""img/0867/12264664-1860-46df-8c21-162b9817cdda.jpg"",""img/0766/69e486f7-dbef-456b-9d48-53d814248a28.jpg""]","",""
"","2661","similarity","90","525545","0.0-6.0-84.0","2","[""img/0902/12452bb1-b8c0-4e4d-ad4d-47e279e5933c.jpg"",""img/0867/cc72ed48-7704-422c-86d6-467a1145287a.jpg""]","",""
"","3630","similarity","91","530185","0.0-6.0-85.0","1","[""img/0901/da4fe30f-d12a-491e-96a2-5ab8ebaadd09.jpg"",""img/0875/a4935837-7d3c-4df6-88c1-36a94d4991ca.jpg""]","",""
"","5654","similarity","92","536849","0.0-6.0-86.0","2","[""img/0764/438c0217-036f-43c9-9b87-f43144e46011.jpg"",""img/0866/620cd1aa-0800-4414-8f6e-90342e7a99ad.jpg""]","",""
"","5014","similarity","93","542873","0.0-6.0-87.0","4","[""img/0901/548d1110-7cb8-42a2-9927-9798875c8b5c.jpg"",""img/0894/e2446cf5-cd48-486a-badc-76498e087fbe.jpg""]","",""
"","5198","similarity","94","549081","0.0-6.0-88.0","3","[""img/0898/26c41340-15bd-4ead-8fe4-c0d0ddca09c2.jpg"",""img/0769/3c1203c5-2ce7-466e-957a-8d77b5905460.jpg""]","",""
"","4966","similarity","95","555057","0.0-6.0-89.0","4","[""img/0769/47700831-0ca2-4fdd-a498-a3bc5a528f43.jpg"",""img/0894/6b2e9509-8699-42b7-9582-7741df0ba2d7.jpg""]","",""
"","5062","similarity","96","561129","0.0-6.0-90.0","4","[""img/0862/f188d4f0-76a4-4102-818c-a209969d73a5.jpg"",""img/0874/ca76a855-4e77-4f2f-872a-0a718153e7ed.jpg""]","",""
"","4398","similarity","97","566537","0.0-6.0-91.0","5","[""img/0894/7dd6ff43-f8fc-408a-8a41-a2b261871820.jpg"",""img/0766/0025de5e-f620-4079-8a0f-00326ff3a6b0.jpg""]","",""
"","4743","similarity","98","572293","0.0-6.0-92.0","4","[""img/0874/3ce41e7c-40c8-4d58-a546-171114521796.jpg"",""img/0867/2e1a0b58-cdb1-4107-a14e-452530d7b9b0.jpg""]","",""
"","3924","similarity","99","577240","0.0-6.0-93.0","2","[""img/0899/51a7a498-98c7-42d7-bca8-bc2d8f0b5831.jpg"",""img/0868/4bd5105a-d2c3-4f82-8c80-57196106ba53.jpg""]","",""
"","3119","similarity","100","581379","0.0-6.0-94.0","3","[""img/0903/d987e220-f3e6-4b6d-a270-fe6757041f6d.jpg"",""img/0862/a0a3a7ba-7798-46a3-b4ca-05e1f6e581d0.jpg""]","",""
"","4377","similarity","101","586770","0.0-6.0-95.0","7","[""img/0899/00715b3f-851b-420b-a26b-d7f79f7759a9.jpg"",""img/0766/d5d38751-8fa5-476f-93e9-86ed2d9045ef.jpg""]","",""
"","2394","similarity","102","590179","0.0-6.0-96.0","7","[""img/0867/c71dc569-f49c-4397-8381-68b8d726736d.jpg"",""img/0868/3a62db2d-97e9-44a3-b8e3-a48c6f0e423b.jpg""]","",""
"","3098","similarity","103","594291","0.0-6.0-97.0","2","[""img/0862/47ed5efd-4ec9-4b74-bb4e-a5f5cf0c3e7d.jpg"",""img/0901/71e551a2-9ce2-409c-9c7c-dd556a0791e9.jpg""]","",""
"","4788","similarity","104","600090","0.0-6.0-98.0","2","[""img/0875/ebf7653f-ff45-4e9f-af58-2c042ab3cd2b.jpg"",""img/0766/0bf3793e-c353-45e5-ac6f-753f5f484e10.jpg""]","",""
"","3803","similarity","105","604906","0.0-6.0-99.0","6","[""img/0758/d540bee6-b460-4c32-ac57-bc282742d7d4.jpg"",""img/0874/c0378dac-9370-439a-8b79-db27c96fb390.jpg""]","",""
"","4853","similarity","106","610772","0.0-6.0-100.0","4","[""img/0904/da170c1b-9651-4f08-b231-2bdd1d9a046f.jpg"",""img/0868/7b212364-ff5f-4e28-9241-7eb6ea00161b.jpg""]","",""
"","3147","similarity","107","614930","0.0-6.0-101.0","3","[""img/0903/b0df4094-a3be-4b5b-81bd-8d260f13f61b.jpg"",""img/0866/d493a2c8-66eb-44b4-be02-2f327b700b7c.jpg""]","",""
"","3659","similarity","108","619604","0.0-6.0-102.0","2","[""img/0868/09a9ef4d-d000-4cfa-a6aa-ebec7c2edeb4.jpg"",""img/0769/a1ce8d07-ba37-40de-bade-2778805521e0.jpg""]","",""
"","4123","similarity","109","624738","0.0-6.0-103.0","5","[""img/0902/d5e25767-e8ec-45f3-ac0a-7b4a6f7a9edc.jpg"",""img/0899/a05bea16-2bb4-4cb9-b8fb-4ff975db6971.jpg""]","",""
"","5059","similarity","110","630816","0.0-6.0-104.0","5","[""img/0868/77091fc7-a590-4ebb-b915-fdb2483a2399.jpg"",""img/0862/e697469a-ec19-4414-b972-7b9f3564785b.jpg""]","",""
"","4844","similarity","111","636684","0.0-6.0-105.0","6","[""img/0903/72197c2b-403e-4a26-b391-f1aa8dea4b76.jpg"",""img/0894/e5edf723-72a5-4673-8441-6c1734a8929b.jpg""]","",""
"","3675","similarity","112","641381","0.0-6.0-106.0","6","[""img/0864/6f631579-acf1-415c-a42c-1207f62a8d99.jpg"",""img/0874/eba003b4-cdab-4eee-8bc3-f064c7d94165.jpg""]","",""
"","3668","similarity","113","646067","0.0-6.0-107.0","3","[""img/0862/fad1d7c1-8187-43c3-942a-0fc12183e48e.jpg"",""img/0902/ca3160ba-ad5d-459f-a1b6-8b4f3c85ecd5.jpg""]","",""
"","5690","similarity","114","652771","0.0-6.0-108.0","5","[""img/0904/d23dd7be-7fe8-4435-82f7-bd592c01e6a1.jpg"",""img/0903/43ffd882-077a-40dd-a264-e58d519420a1.jpg""]","",""
"","3209","similarity","115","656995","0.0-6.0-109.0","3","[""img/0764/fb7d4a20-a475-465e-a74f-aa39a0d33d16.jpg"",""img/0864/0116ca98-293d-4fa6-a93b-5a6144ef64cc.jpg""]","",""
"","4756","similarity","116","662763","0.0-6.0-110.0","3","[""img/0866/93a27239-8317-4e08-98ca-d8b1ff298e07.jpg"",""img/0894/1b3888e6-cf36-4c4a-a039-187aa5cb71ac.jpg""]","",""
"","3818","similarity","117","667594","0.0-6.0-111.0","6","[""img/0899/0e1d936a-dbe2-4afc-9f19-7b7a1ae6c9ed.jpg"",""img/0903/9b60ef5b-234f-4239-892b-3d4c412accc2.jpg""]","",""
"","2707","similarity","118","671314","0.0-6.0-112.0","6","[""img/0902/417d8b4a-3c72-4adc-ac78-820e833316f2.jpg"",""img/0904/9dd5708f-3f8b-46a9-b49f-2f2fab87b357.jpg""]","",""
"","2613","similarity","119","674940","0.0-6.0-113.0","7","[""img/0864/66091c27-e588-4476-8af9-265dc6be4156.jpg"",""img/0860/94ef7afc-e0e6-4a15-98c6-0bfac82bc832.jpg""]","",""
"","3896","similarity","120","679850","0.0-6.0-114.0","3","[""img/0860/e8b8c51e-1834-4875-8b61-6c5bc9b178bd.jpg"",""img/0899/66ab3178-c3fe-4455-ad17-d5952b08e018.jpg""]","",""
"","4155","similarity","121","685018","0.0-6.0-115.0","2","[""img/0881/54ea8e77-c7e5-4197-b7fa-00b7020849a7.jpg"",""img/0903/aa842abe-6fa3-448a-bf71-88d3ad28663b.jpg""]","",""
"","6397","similarity","122","692427","0.0-6.0-116.0","5","[""img/0894/3adef67d-7676-4995-80b2-bb31b8aca3ef.jpg"",""img/0874/767f289c-9814-4496-803f-745cc8913d1f.jpg""]","",""
"","2665","similarity","123","696106","0.0-6.0-117.0","3","[""img/0881/f4e3e181-b3c9-4af2-a5a4-fc135ab70d2e.jpg"",""img/0862/92fcd8a4-8193-4a6a-ae09-dd4a6338b0df.jpg""]","",""
"","4814","similarity","124","701933","0.0-6.0-118.0","5","[""img/0868/83b4350a-3b70-4cea-b7f5-b5b56f3050a8.jpg"",""img/0875/3ecb367d-e9eb-4826-8aaa-7aa72fb98019.jpg""]","",""
"","2379","similarity","125","705331","0.0-6.0-119.0","7","[""img/0860/f44ba3fb-03a2-42f0-8509-2c1ded493086.jpg"",""img/0758/6e95579b-5166-487c-b8cb-e417c6a218e3.jpg""]","",""
"","2890","similarity","126","709234","0.0-6.0-120.0","6","[""img/0864/c3b63e8f-ea39-4d70-a1f2-b3fe4be8eb75.jpg"",""img/0875/fb732ab5-013a-4366-9f65-27811ed157e9.jpg""]","",""
"","3651","similarity","127","713899","0.0-6.0-121.0","2","[""img/0898/0c7dde4f-efce-4b7a-9387-6921635b7890.jpg"",""img/0866/be24ab58-230e-4db8-9f45-ff04c9aec6bb.jpg""]","",""
"","5353","similarity","128","720266","0.0-6.0-122.0","2","[""img/0874/93d1f8dc-acf2-4f03-bd8d-8ec35df276ed.jpg"",""img/0904/60d1a521-edf7-4696-9263-f21ac0e62a01.jpg""]","",""
"","4539","similarity","129","725818","0.0-6.0-123.0","2","[""img/0904/b5855d6a-7ef9-46ca-9215-6e9fa046e543.jpg"",""img/0864/3d4de670-b290-4285-9c3d-12a0e3af44e9.jpg""]","",""
"","4947","similarity","130","731780","0.0-6.0-124.0","6","[""img/0894/492d2f29-d7b9-4422-8be8-47fd58bfaa8b.jpg"",""img/0902/1a120fb9-dbd6-443e-ba91-b4aceab963da.jpg""]","",""
"","2481","similarity","131","757912","0.0-6.0-125.0","5","[""img/0868/5fa7f9d0-f0e5-454c-8224-74d964818f56.jpg"",""img/0864/ea327690-500b-4137-bf91-451b309fe6a5.jpg""]","",""
"","2338","similarity","132","761295","0.0-6.0-126.0","1","[""img/0899/0433d056-aa30-4f8a-9aa1-abbb951e4edd.jpg"",""img/0866/6f2a90d7-14f1-4f1b-bd64-fc0af6b9fe44.jpg""]","",""
"","2644","similarity","133","764954","0.0-6.0-127.0","1","[""img/0875/e7e66b13-b573-431e-b85e-288ce04a35a3.jpg"",""img/0904/09934646-45d2-4147-8fec-64a22a5ac822.jpg""]","",""
"","3821","similarity","134","769787","0.0-6.0-128.0","1","[""img/0867/f26f6b60-f772-4f4c-95a4-addc62cfd692.jpg"",""img/0899/9de5e857-aa9a-4e0c-8ba2-46d79bd069a4.jpg""]","",""
"","2580","similarity","135","773382","0.0-6.0-129.0","2","[""img/0901/0f670aef-ac36-496d-8142-ee5fdb21dd82.jpg"",""img/0867/5e07b34d-b40f-4b1c-ac10-49975bace45f.jpg""]","",""
"","5391","similarity","136","779795","0.0-6.0-130.0","5","[""img/0864/da39ad34-04e0-40d4-a724-c08d53e0ea09.jpg"",""img/0769/180213e5-1e50-4b4e-87b6-add77ba04d39.jpg""]","",""
"","2522","similarity","137","783331","0.0-6.0-131.0","3","[""img/0903/5c6b1f57-b3a2-40f5-9fb1-82785e24b6a0.jpg"",""img/0868/4e626425-63c8-484a-8a1d-e66ee4e0bef8.jpg""]","",""
"","2370","similarity","138","786716","0.0-6.0-132.0","5","[""img/0864/1ebbc554-99fa-49f9-8799-317375a79820.jpg"",""img/0867/85a96c62-548f-4994-9553-819e03c3135a.jpg""]","",""
"","3489","similarity","139","791220","0.0-6.0-133.0","6","[""img/0901/1b86f2fc-7a1d-4aa8-9252-114f92edef3b.jpg"",""img/0860/18dfed73-e36b-4487-a8bd-0b8cff8e3668.jpg""]","",""
"","3908","similarity","140","796138","0.0-6.0-134.0","3","[""img/0881/4bd34581-94d8-4e88-8c89-5cef864ca3be.jpg"",""img/0766/d3bab2fc-ddcc-40a0-bb72-c0d0ebe19978.jpg""]","",""
"","2866","similarity","141","800018","0.0-6.0-135.0","3","[""img/0903/36e4ab1f-caa9-40b3-8616-faada076df94.jpg"",""img/0864/e02eddb5-f468-499c-91bf-f7be3ffe979b.jpg""]","",""
"","3485","similarity","142","804515","0.0-6.0-136.0","3","[""img/0758/a085b443-b5d7-4cb2-9ad4-b9dab0fc23f1.jpg"",""img/0894/9b1333fd-3561-43bf-aee5-99b7b7ca3dc3.jpg""]","",""
"","2900","similarity","143","808426","0.0-6.0-137.0","2","[""img/0769/96556ef3-7fac-4c9d-8281-1cb0ea5081bc.jpg"",""img/0860/c7047cd2-7cc1-41b6-8a34-c0986774975f.jpg""]","",""
"","3668","similarity","144","813119","0.0-6.0-138.0","5","[""img/0904/ba8e689e-9ca6-4608-a2a1-3b0940666ae6.jpg"",""img/0766/2746b119-4bba-463e-acf0-88136dc6600c.jpg""]","",""
"","3457","similarity","145","817590","0.0-6.0-139.0","6","[""img/0868/8b0b8473-e2c0-4331-aa56-c3a5c29369da.jpg"",""img/0860/29a21a9f-54bb-4093-ad3f-04823ceaa89f.jpg""]","",""
"","3747","similarity","146","822355","0.0-6.0-140.0","7","[""img/0758/9fb5b2fe-3f00-4fe6-973c-1ce10d5f4cd5.jpg"",""img/0864/ef9cbca0-4be8-435d-ad49-977259e80409.jpg""]","",""
"","2418","similarity","147","825786","0.0-6.0-141.0","7","[""img/0867/50a1b60e-3a29-44bf-b606-d4bd3746fea9.jpg"",""img/0867/7d1c497b-c1b3-4ed8-abb5-d7f73306015f.jpg""]","",""
"","3210","similarity","148","830011","0.0-6.0-142.0","7","[""img/0898/40f99fb2-64d2-4e72-8a7f-a1cf60741e69.jpg"",""img/0898/b2732712-71c2-45d8-834f-2b2ed5504910.jpg""]","",""
"","3003","similarity","149","834029","0.0-6.0-143.0","3","[""img/0866/a15b02be-11bb-43e3-b0e0-ecc3bd7dfc49.jpg"",""img/0769/04347740-f8f6-48bb-887a-f68babd0a0d4.jpg""]","",""
"","2795","similarity","150","837844","0.0-6.0-144.0","4","[""img/0860/e14d67c1-6d92-4f1e-9257-c8607159c19c.jpg"",""img/0898/04e39a7a-fcf6-4156-ab0e-f5871f335e1c.jpg""]","",""
"","3408","similarity","151","842267","0.0-6.0-145.0","5","[""img/0766/1865bfc9-2410-4765-a804-3ae4ba2393d0.jpg"",""img/0864/c22faebd-9c53-47bc-ada3-b9a30c688e75.jpg""]","",""
"","1787","similarity","152","845067","0.0-6.0-146.0","4","[""img/0860/61fb959d-d4d9-4de4-9e4e-4fa62b4cfcd5.jpg"",""img/0903/365f176c-25a4-4973-bd3c-279bf1b39476.jpg""]","",""
"","2963","similarity","153","849042","0.0-6.0-147.0","1","[""img/0867/db7e032f-162b-46f5-ae67-2b29679adee4.jpg"",""img/0764/62fafeea-6274-48ce-976f-35d3d3484c65.jpg""]","",""
"","2981","similarity","154","853035","0.0-6.0-148.0","6","[""img/0769/f229321f-04dd-42d7-b14a-ffad6b509862.jpg"",""img/0904/b7c2a2c8-df33-4473-b3d4-ff7147c60db3.jpg""]","",""
"","4529","similarity","155","858578","0.0-6.0-149.0","2","[""img/0764/e42c1dc9-7831-4995-be19-7ca7b4d141fc.jpg"",""img/0901/fb0a8e69-7f19-4e6e-a6bb-a48f97f9b4f3.jpg""]","",""
"","4826","similarity","156","864419","0.0-6.0-150.0","7","[""img/0904/9b3568cc-3cf7-42be-9df3-fdafde7a58b8.jpg"",""img/0899/8de08897-b430-42fe-9d42-840670b80f94.jpg""]","",""
"","3844","similarity","157","869275","0.0-6.0-151.0","5","[""img/0862/847e5208-38ec-4f36-949c-296cdd7424ee.jpg"",""img/0867/98d8cd96-1476-4fe0-a3a3-04f875500a1b.jpg""]","",""
"","3024","similarity","158","873341","0.0-6.0-152.0","7","[""img/0766/af3be95e-e52e-4fae-899b-0ff02ec340aa.jpg"",""img/0766/27f54113-8561-4568-9ffe-0a1650ae65ec.jpg""]","",""
"","5475","similarity","159","879826","0.0-6.0-153.0","3","[""img/0862/e8cc3bdf-cc43-4565-bccf-492626c70953.jpg"",""img/0894/a3d4170b-b7d8-40e3-955f-87e76ed745fc.jpg""]","",""
"","2586","similarity","160","883425","0.0-6.0-154.0","3","[""img/0899/4408c14d-c168-4a7d-96f6-bc87bfb58f83.jpg"",""img/0901/c6c877e0-dd63-4e00-9657-33af29d55aab.jpg""]","",""
"","3126","similarity","161","887562","0.0-6.0-155.0","7","[""img/0874/3f471690-9788-4d03-90c7-f615aecef149.jpg"",""img/0874/2c9464dd-8a23-4baa-ac94-1ba3af5c15cc.jpg""]","",""
"","3307","similarity","162","891881","0.0-6.0-156.0","7","[""img/0860/8fdba999-b946-4c7d-9891-336018b563ef.jpg"",""img/0867/de92135f-5b65-4ed9-b245-188292c7c2f8.jpg""]","",""
"","2412","similarity","163","895309","0.0-6.0-157.0","6","[""img/0901/a6c90438-fa7c-4418-ac7c-16c2e772dd98.jpg"",""img/0881/84397291-bc14-4fbf-90e8-241e486ab0fe.jpg""]","",""
"","2081","similarity","164","898401","0.0-6.0-158.0","7","[""img/0903/f1fa0f8d-e62b-4b4a-a174-31a0fabfe61b.jpg"",""img/0902/07437a16-3d0f-4a5c-89ec-36d0efa4b3b8.jpg""]","",""
"","5847","similarity","165","905258","0.0-6.0-159.0","1","[""img/0860/524b2e98-5767-4d53-942c-ebae6925659b.jpg"",""img/0764/8740679b-b56f-4292-aece-14063457113a.jpg""]","",""
"","3638","similarity","166","909905","0.0-6.0-160.0","1","[""img/0902/10d99c89-71f7-4c81-a31e-dfc7c59f5232.jpg"",""img/0875/42910c99-5463-450a-a0f8-d4d060a11455.jpg""]","",""
"","3663","similarity","167","914578","0.0-6.0-161.0","2","[""img/0898/a8f16b02-e19f-423b-86c3-a36562ae1f9b.jpg"",""img/0862/eefa5588-9efd-4591-aa5f-a2e17c7d7bcc.jpg""]","",""
"","3390","similarity","168","918978","0.0-6.0-162.0","3","[""img/0894/e6385e52-6c35-43bd-b0af-bc803d107b11.jpg"",""img/0875/90da8d75-108a-44ad-b999-e21fee3860d3.jpg""]","",""
"","4645","similarity","169","924634","0.0-6.0-163.0","5","[""img/0866/f756f7d1-9ad8-4a34-9ef6-7a443d705bfe.jpg"",""img/0864/b3c4e378-28f0-4699-9338-2a257b4bca04.jpg""]","",""
"","2294","similarity","170","927937","0.0-6.0-164.0","2","[""img/0766/f3276cc4-65de-4c2d-88d5-6cfebce14b8f.jpg"",""img/0862/53a9cf7c-93c4-41b9-952f-07d17f7a17b2.jpg""]","",""
"","2998","similarity","171","931945","0.0-6.0-165.0","4","[""img/0866/4a87911a-d5be-4d4e-ab8e-3d1f581bf507.jpg"",""img/0874/995f0332-0439-4eb4-add3-957335dbf6d9.jpg""]","",""
"","4190","similarity","172","937146","0.0-6.0-166.0","6","[""img/0862/fb26cb07-d5a9-4653-813c-f41609f26cd5.jpg"",""img/0860/4c530c3c-6aab-492a-94d1-9c01797bde40.jpg""]","",""
"","4253","similarity","173","947601","0.0-6.0-167.0","5","[""img/0766/c23b5a20-e50f-4d85-841f-cf89212a4348.jpg"",""img/0901/a9b9c0a0-8aed-4888-a78a-65fb7e764d13.jpg""]","",""
"","3875","similarity","174","952490","0.0-6.0-168.0","7","[""img/0862/de9ad88c-b522-430a-8ee9-eb06a9f85df5.jpg"",""img/0862/f23038d4-c366-4f70-979f-66b62362efa4.jpg""]","",""
"","1629","similarity","175","955131","0.0-6.0-169.0","4","[""img/0894/1a010553-d598-4b06-a772-81f1e7b3addb.jpg"",""img/0764/6fbd1902-fa2a-48d8-bc11-705b8ab68d8f.jpg""]","",""
"","48389","similarity","176","1004529","0.0-6.0-170.0","4","[""img/0874/8cdb1c07-1c32-46d2-981c-3636560fa6e5.jpg"",""img/0898/8605a25b-6895-476d-8c13-df7a83f96093.jpg""]","",""
"","2806","similarity","177","1008345","0.0-6.0-171.0","1","[""img/0860/8a92e21b-6a32-4e4a-a445-2d5a487ed0a4.jpg"",""img/0766/26d3ae14-8275-4e08-99b2-a6598c193ddf.jpg""]","",""
"","4318","similarity","178","1013673","0.0-6.0-172.0","4","[""img/0898/a114b375-cb89-44ba-9498-74213f1ecdee.jpg"",""img/0864/5f74a653-3bdc-4308-8cca-ac667dc22e1f.jpg""]","",""
"","3813","similarity","179","1018497","0.0-6.0-173.0","1","[""img/0881/33d65d80-8a8e-4ecf-852d-0ad7725c17a2.jpg"",""img/0764/952d7adc-dc40-4aee-acce-18c2a1d02ea1.jpg""]","",""
"","2775","similarity","180","1022281","0.0-6.0-174.0","2","[""img/0898/82231d4c-218b-4d0a-b50d-35a49b524e97.jpg"",""img/0868/1a62b2b2-18f5-466e-b564-5176a57c565e.jpg""]","",""
"","2261","similarity","181","1025554","0.0-6.0-175.0","7","[""img/0864/afcba0a3-7e27-4757-b254-e9f05fad27e2.jpg"",""img/0864/e336a4c5-6648-4fd7-b2f6-93a3fb83f8c6.jpg""]","",""
"","5174","similarity","182","1031737","0.0-6.0-176.0","2","[""img/0899/57476fed-5962-4272-8fc9-b317bb777b54.jpg"",""img/0862/5d887e9f-89e2-4ebc-80a0-6d46fe6480db.jpg""]","",""
"","3632","similarity","183","1036378","0.0-6.0-177.0","6","[""img/0875/34132396-d896-4c2d-8087-646dd867e769.jpg"",""img/0758/d41c06bf-ebaf-454b-91c6-1a17f917b659.jpg""]","",""
"","2997","similarity","184","1040386","0.0-6.0-178.0","1","[""img/0866/02f5e6b9-52b7-448c-9708-5b460d0c9a23.jpg"",""img/0901/b453df0b-4c39-49bb-8ced-6127efffa898.jpg""]","",""
"","3126","similarity","185","1044521","0.0-6.0-179.0","1","[""img/0769/0fe124d3-bcad-45f6-b64d-8f6eb8ee5251.jpg"",""img/0874/1016b306-087c-4afc-aa08-fa527b28dc76.jpg""]","",""
"","4839","similarity","186","1050369","0.0-6.0-180.0","3","[""img/0875/03c3c331-738b-4446-af92-3d7386b08c2e.jpg"",""img/0881/c843e210-bdfe-4a7c-8bbe-fcea1f90fe1c.jpg""]","",""
"","2862","similarity","187","1054241","0.0-6.0-181.0","7","[""img/0866/386235d2-6857-41e7-88a8-25cfc3430025.jpg"",""img/0868/d98ca254-b195-477f-b57e-5760a2717db8.jpg""]","",""
"","3199","similarity","188","1058454","0.0-6.0-182.0","4","[""img/0899/4f7bc593-8ddd-4da3-a0b9-84da730d3370.jpg"",""img/0758/821c68d3-5cb0-4eae-8659-30e6263fca39.jpg""]","",""
"","2202","similarity","189","1061665","0.0-6.0-183.0","4","[""img/0874/31e22c7c-99aa-40b1-bf03-dd73fa2df4d6.jpg"",""img/0875/2e13d160-eea1-416b-aff1-d37ab99ecc1d.jpg""]","",""
"","6696","similarity","190","1069372","0.0-6.0-184.0","4","[""img/0904/24fc38fe-842c-4831-ad8a-b1de5c25c0a8.jpg"",""img/0862/cdaed51d-9e2f-4807-801a-4663c40077e2.jpg""]","",""
"","5764","similarity","191","1076145","0.0-6.0-185.0","7","[""img/0902/e5a46bda-30d1-41ca-b36d-b8529b5a63d1.jpg"",""img/0766/0b48f9e0-7d37-4161-8adb-4e3f5b6b7583.jpg""]","",""
"","2574","similarity","192","1079729","0.0-6.0-186.0","4","[""img/0758/6cd8c362-ae2a-41eb-80a3-3a4f7ace1530.jpg"",""img/0769/8056889f-2b14-4782-bb25-b4e8896ab65b.jpg""]","",""
"","2328","similarity","193","1083065","0.0-6.0-187.0","7","[""img/0881/ee44e27f-d662-4608-b265-e7ffa19b216f.jpg"",""img/0881/292e9b4b-fca0-4ba8-87f1-4048f9e37b7d.jpg""]","",""
"","3575","similarity","194","1087649","0.0-6.0-188.0","6","[""img/0758/2fa3e613-e676-4e6e-bd12-705327eeb3e1.jpg"",""img/0866/23a224f3-2012-4fc8-8e0f-3c36f8de27fd.jpg""]","",""
"","3998","similarity","195","1092657","0.0-6.0-189.0","7","[""img/0764/4952d0a0-c9be-471a-8ec7-94a37bf4051d.jpg"",""img/0898/6cd3830b-d44e-4915-be2b-88d31424b91c.jpg""]","",""
"","2518","similarity","196","1096185","0.0-6.0-190.0","4","[""img/0903/8635cf25-2648-4fe9-8c42-79d2598e999c.jpg"",""img/0901/1ede21d9-384f-4150-86b5-e1c57b5dc1d4.jpg""]","",""
"","2774","similarity","197","1099969","0.0-6.0-191.0","7","[""img/0902/af45fe42-178c-4c1a-99ef-256e87e3b092.jpg"",""img/0898/ec565187-2e31-4fdd-9a5c-153d0c789ae0.jpg""]","",""
"","5311","similarity","198","1106290","0.0-6.0-192.0","1","[""img/0864/e8bd659f-aa43-4748-877e-3118e8b4e189.jpg"",""img/0901/b13fa50f-dbe0-4d0f-8647-6ac0fd8f40bd.jpg""]","",""
"","4935","similarity","199","1112234","0.0-6.0-193.0","4","[""img/0894/5c7677b0-a4f1-479e-b274-7822c415175a.jpg"",""img/0881/db77fe00-aeb0-4d1d-aa66-f3a96fd077e4.jpg""]","",""
"","2917","similarity","200","1116161","0.0-6.0-194.0","7","[""img/0868/c8ac40c7-6904-4e13-8d61-c75d3052dc4e.jpg"",""img/0868/d6d1f30d-4323-435a-b194-7892521bc57e.jpg""]","",""
"","4439","similarity","201","1121617","0.0-6.0-195.0","7","[""img/0899/66bf4113-ee12-426c-84d2-ea410b6c803e.jpg"",""img/0764/974d52cc-6318-4e7a-b294-2f3e92ff800f.jpg""]","",""
"","2790","similarity","202","1125428","0.0-6.0-196.0","4","[""img/0881/b549bc99-a61c-4450-bab5-9efc3a197bf0.jpg"",""img/0904/4e58005d-a2ec-4aaa-b199-445343561396.jpg""]","",""
"","5329","similarity","203","1131773","0.0-6.0-197.0","1","[""img/0864/5f33e097-23e3-4002-882d-76e8cb15f451.jpg"",""img/0902/c920f0e1-1c81-480f-a164-c77f2dc6ce9a.jpg""]","",""
"","3932","similarity","204","1136723","0.0-6.0-198.0","4","[""img/0894/7f2f31fd-6618-41c6-b65a-0fd8b2851bc9.jpg"",""img/0904/73920552-103b-4c9c-9ece-e0b8376b4504.jpg""]","",""
"","2585","similarity","205","1140323","0.0-6.0-199.0","7","[""img/0901/a0d65c84-3f20-476a-92d1-0c01e8019cf4.jpg"",""img/0901/ae1e6ce4-2e10-4ca9-b1e7-21628637ab74.jpg""]","",""
"","2827","similarity","206","1144163","0.0-6.0-200.0","4","[""img/0894/b422d5c6-3c5a-49ae-a53e-7e88ac993f49.jpg"",""img/0860/4f695df5-afac-4da7-9875-fee39b0b24ad.jpg""]","",""
"","2363","similarity","207","1147539","0.0-6.0-201.0","7","[""img/0898/f3a3f225-1248-4ac7-b93b-f0ff28485bf3.jpg"",""img/0903/b0a3c45f-467e-412f-a183-c9c1827f2e63.jpg""]","",""
"","5684","similarity","208","1154234","0.0-6.0-202.0","4","[""img/0864/3651d070-2fc5-4848-b6a6-088a2d9ac5c9.jpg"",""img/0894/10f22b96-040c-44f4-950b-a4963f3f506c.jpg""]","",""
"","2553","similarity","209","1157802","0.0-6.0-203.0","4","[""img/0874/7e4f2150-3b59-4a36-b5da-a4e0ba410531.jpg"",""img/0860/99c589b9-9140-4d17-90c0-b344323edcda.jpg""]","",""
"","2221","similarity","210","1161034","0.0-6.0-204.0","4","[""img/0862/1c20f772-3a51-4a80-aac0-f57dc9f86c28.jpg"",""img/0875/2c361b79-c3d1-4eda-812e-bf03192407bf.jpg""]","",""
"","2237","similarity","211","1164283","0.0-6.0-205.0","4","[""img/0867/aa05d113-fc19-4756-a8eb-7878f580bc92.jpg"",""img/0881/14236cf2-6b95-48b8-9368-78af09d2d27f.jpg""]","",""
"","4371","similarity","212","1169667","0.0-6.0-206.0","6","[""img/0901/deff6cfb-0072-4490-bc3e-206bbcd3e8bf.jpg"",""img/0902/aa6fca32-82b0-4414-b20a-8f6f8aa5a2d2.jpg""]","",""
"","4756","similarity","213","1175436","0.0-6.0-207.0","3","[""img/0899/7f9d45d0-b2c6-40d3-aa41-c207db2c411b.jpg"",""img/0864/87c467d3-abca-482f-ad80-3766c21b1bb3.jpg""]","",""
"","3538","similarity","214","1179997","0.0-6.0-208.0","3","[""img/0901/d61f267a-c492-4db6-9bfb-61efd49cf072.jpg"",""img/0769/1ca58b80-2365-446d-9616-6c1719e6c46f.jpg""]","",""
"","3067","similarity","215","1190049","0.0-6.0-209.0","4","[""img/0902/bd89a85f-3853-4786-acd6-98818ee29f1c.jpg"",""img/0902/31abfa33-7cdb-44ad-968e-9f7b324d577a.jpg""]","",""
"[{""page_index"":0,""viewing_time"":5182}]","5183","instructions","216","1196233","0.0-7.0","","","",""
"","7429","image-multi-choice","217","1204710","0.0-8.0-0.0","","","{""Q0"":""Nashville Warbler""}","Nashville Warbler"
"","2963","image-multi-choice","218","1208708","0.0-8.0-1.0","","","{""Q0"":""Black-and-white Warbler""}","Black-and-white Warbler"
"","9193","image-multi-choice","219","1218948","0.0-8.0-2.0","","","{""Q0"":""Townsend's Warbler""}","Townsend's Warbler"
"","8720","image-multi-choice","220","1228708","0.0-8.0-3.0","","","{""Q0"":""Lark Sparrow""}","Lark Sparrow"
"","2946","image-multi-choice","221","1232692","0.0-8.0-4.0","","","{""Q0"":""Yellow Warbler""}","Yellow Warbler"
"","3217","image-multi-choice","222","1236948","0.0-8.0-5.0","","","{""Q0"":""Tennessee Warbler""}","Orange-crowned Warbler"
"","3032","image-multi-choice","223","1241012","0.0-8.0-6.0","","","{""Q0"":""White-throated Sparrow""}","White-throated Sparrow"
"","2492","image-multi-choice","224","1244531","0.0-8.0-7.0","","","{""Q0"":""Fox Sparrow""}","Fox Sparrow"
"","9090","image-multi-choice","225","1254652","0.0-8.0-8.0","","","{""Q0"":""Song Sparrow""}","Song Sparrow"
"","3533","image-multi-choice","226","1259211","0.0-8.0-9.0","","","{""Q0"":""Blackburnian Warbler""}","Blackburnian Warbler"
"","8572","image-multi-choice","227","1268812","0.0-8.0-10.0","","","{""Q0"":""Chipping Sparrow""}","Vesper Sparrow"
"","2860","image-multi-choice","228","1272706","0.0-8.0-11.0","","","{""Q0"":""White-crowned Sparrow""}","White-crowned Sparrow"
"","4310","image-multi-choice","229","1278048","0.0-8.0-12.0","","","{""Q0"":""American Tree Sparrow""}","American Tree Sparrow"
"","13387","image-multi-choice","230","1292484","0.0-8.0-13.0","","","{""Q0"":""Orange-crowned Warbler""}","Tennessee Warbler"
"","4264","image-multi-choice","231","1297787","0.0-8.0-14.0","","","{""Q0"":""Magnolia Warbler""}","Magnolia Warbler"
"","3108","image-multi-choice","232","1301939","0.0-8.0-15.0","","","{""Q0"":""Northern Waterthrush""}","Northern Waterthrush"
"","9845","image-multi-choice","233","1312827","0.0-8.0-16.0","","","{""Q0"":""Chipping Sparrow""}","Chipping Sparrow"
"","4824","image-multi-choice","234","1318685","0.0-8.0-17.0","","","{""Q0"":""Lincoln's Sparrow""}","Swamp Sparrow"
"","3124","image-multi-choice","235","1322851","0.0-8.0-18.0","","","{""Q0"":""Lincoln's Sparrow""}","Lincoln's Sparrow"
"","3797","image-multi-choice","236","1327679","0.0-8.0-19.0","","","{""Q0"":""Ovenbird""}","Ovenbird"
