"view_history","rt","trial_type","trial_index","time_elapsed","internal_node_id","sim_score","stimulus","responses","answer"
"[{""page_index"":0,""viewing_time"":31468}]","31469","instructions","0","31471","0.0-0.0","","","",""
"","9792","similarity_demo","1","42295","0.0-1.0","3","[""img/866.jpg"",""img/868.jpg""]","",""
"[{""page_index"":0,""viewing_time"":21637}]","21637","instructions","2","64948","0.0-2.0","","","",""
"","6794","similarity_demo","3","72781","0.0-3.0","2","[""img/766.jpg"",""img/867.jpg""]","",""
"[{""page_index"":0,""viewing_time"":8434}]","8434","instructions","4","82244","0.0-4.0","","","",""
"[{""page_index"":0,""viewing_time"":32667}]","32668","instructions","5","115964","0.0-5.0","","","",""
"","7006","similarity","6","123997","0.0-6.0-0.0","1","[""img/0868/4a8a45ed-2c4f-421b-9564-409a33ecd26c.jpg"",""img/0901/7d4a3388-488d-4e9b-9d32-9d0def7aae8d.jpg""]","",""
"","6190","similarity","7","131213","0.0-6.0-1.0","5","[""img/0769/14d393ce-e5be-4ca1-86ce-cc27d4b6074c.jpg"",""img/0867/075e0f95-856b-4cbb-acf5-092393aaf04e.jpg""]","",""
"","8947","similarity","8","141197","0.0-6.0-2.0","5","[""img/0766/71b81ebd-0937-4d7f-b8bf-c4e46a4728fd.jpg"",""img/0898/04e39a7a-fcf6-4156-ab0e-f5871f335e1c.jpg""]","",""
"","7018","similarity","9","149237","0.0-6.0-3.0","3","[""img/0902/51493fab-2a10-4385-aa88-bee3db441626.jpg"",""img/0881/33d65d80-8a8e-4ecf-852d-0ad7725c17a2.jpg""]","",""
"","6693","similarity","10","156965","0.0-6.0-4.0","6","[""img/0894/5a49e858-2850-4892-9a06-e9f0efb5f94d.jpg"",""img/0894/492d2f29-d7b9-4422-8be8-47fd58bfaa8b.jpg""]","",""
"","7704","similarity","11","165709","0.0-6.0-5.0","3","[""img/0874/767f289c-9814-4496-803f-745cc8913d1f.jpg"",""img/0899/f58b8d2f-b19d-4b59-8b94-8834be92e4ba.jpg""]","",""
"","6660","similarity","12","173397","0.0-6.0-6.0","5","[""img/0904/a8c3c7d2-9bcf-4347-9e03-8203adfc1fc5.jpg"",""img/0764/c01e2d65-6586-441b-bef5-3c96fcd85380.jpg""]","",""
"","7327","similarity","13","181748","0.0-6.0-7.0","6","[""img/0899/565ccdd9-0933-4536-a625-3c0e25a713dd.jpg"",""img/0898/4184e5a2-84ea-4f36-9b42-ae58646f6f87.jpg""]","",""
"","6771","similarity","14","189556","0.0-6.0-8.0","3","[""img/0874/995f0332-0439-4eb4-add3-957335dbf6d9.jpg"",""img/0903/2c7b4aed-6038-4aac-958a-e3e58341c313.jpg""]","",""
"","8794","similarity","15","199380","0.0-6.0-9.0","3","[""img/0881/1407b85b-a1c6-45b1-9884-3b24203efadb.jpg"",""img/0758/2fa3e613-e676-4e6e-bd12-705327eeb3e1.jpg""]","",""
"","5706","similarity","16","206124","0.0-6.0-10.0","7","[""img/0898/b2732712-71c2-45d8-834f-2b2ed5504910.jpg"",""img/0901/693e0535-ef7e-4d60-af9d-fac2f38e8307.jpg""]","",""
"","5600","similarity","17","212748","0.0-6.0-11.0","7","[""img/0903/8931c67c-a43d-47d3-a4c9-42aa2f81d344.jpg"",""img/0769/b664b502-a86c-46c1-ad6f-5ebffc2e1bd3.jpg""]","",""
"","5123","similarity","18","218892","0.0-6.0-12.0","1","[""img/0764/03c07b98-3f18-4b71-bb70-ecff564a78d1.jpg"",""img/0868/fd307a36-9a3a-47d7-ab7c-f810d0b35040.jpg""]","",""
"","8367","similarity","19","228284","0.0-6.0-13.0","5","[""img/0867/f8159067-056c-41f1-a136-c529fe5e970a.jpg"",""img/0903/43ffd882-077a-40dd-a264-e58d519420a1.jpg""]","",""
"","8103","similarity","20","237404","0.0-6.0-14.0","2","[""img/0766/717fd72f-a281-499b-a5ba-5e2ecc4d4866.jpg"",""img/0758/9fb5b2fe-3f00-4fe6-973c-1ce10d5f4cd5.jpg""]","",""
"","5521","similarity","21","243956","0.0-6.0-15.0","5","[""img/0902/511abb54-0094-4f4d-b6dc-3f2c97050521.jpg"",""img/0860/18dfed73-e36b-4487-a8bd-0b8cff8e3668.jpg""]","",""
"","7117","similarity","22","252100","0.0-6.0-16.0","4","[""img/0769/35364db7-e0d5-40ef-93dc-faf9dfb95136.jpg"",""img/0875/fb732ab5-013a-4366-9f65-27811ed157e9.jpg""]","",""
"","6087","similarity","23","259204","0.0-6.0-17.0","3","[""img/0904/0d17b811-063e-416e-a23c-3b3cfa4fcce5.jpg"",""img/0866/d493a2c8-66eb-44b4-be02-2f327b700b7c.jpg""]","",""
"","6819","similarity","24","267052","0.0-6.0-18.0","7","[""img/0875/2e13d160-eea1-416b-aff1-d37ab99ecc1d.jpg"",""img/0875/cff79b3a-a797-4393-9757-6275f999ec04.jpg""]","",""
"","6750","similarity","25","274820","0.0-6.0-19.0","7","[""img/0758/67c0be2f-9e91-48b3-8219-70ac0a1802fa.jpg"",""img/0758/eabcd7a8-56ad-4fd2-bc24-90f6b7b33265.jpg""]","",""
"","7483","similarity","26","283332","0.0-6.0-20.0","3","[""img/0902/30c420f5-c714-4681-ae5a-c0ba8f636a26.jpg"",""img/0874/8cdb1c07-1c32-46d2-981c-3636560fa6e5.jpg""]","",""
"","6455","similarity","27","290804","0.0-6.0-21.0","5","[""img/0764/978aede9-4590-4ad0-b234-135c83e5d669.jpg"",""img/0769/f6396414-6788-4d59-9683-de153298d89c.jpg""]","",""
"","5809","similarity","28","297644","0.0-6.0-22.0","2","[""img/0901/effc03f6-8f9d-46db-a66c-16fc83891c5c.jpg"",""img/0874/3f471690-9788-4d03-90c7-f615aecef149.jpg""]","",""
"","6111","similarity","29","304780","0.0-6.0-23.0","3","[""img/0875/34132396-d896-4c2d-8087-646dd867e769.jpg"",""img/0903/647ce311-8c71-479a-8361-961db1457139.jpg""]","",""
"","6497","similarity","30","312294","0.0-6.0-24.0","5","[""img/0769/9ea27d61-3d55-418c-8d14-82e90f656f01.jpg"",""img/0881/ed4c971f-0873-4fc8-b6d6-e8bbd82f0bcc.jpg""]","",""
"","7552","similarity","31","320867","0.0-6.0-25.0","4","[""img/0867/7d1c497b-c1b3-4ed8-abb5-d7f73306015f.jpg"",""img/0904/0d25eb24-bb20-4e8d-9787-8b489558b4cb.jpg""]","",""
"","6610","similarity","32","328491","0.0-6.0-26.0","2","[""img/0860/b03b963d-949b-4d8d-b19c-4950c89eeca2.jpg"",""img/0881/e6746727-7f89-47ec-b939-d98abe78372d.jpg""]","",""
"","6016","similarity","33","335547","0.0-6.0-27.0","6","[""img/0866/945c6710-d15b-4a5b-a8f6-69af0850357f.jpg"",""img/0866/f756f7d1-9ad8-4a34-9ef6-7a443d705bfe.jpg""]","",""
"","9199","similarity","34","345779","0.0-6.0-28.0","3","[""img/0764/b8e23f4f-ff19-4472-ad9b-2f85548ebca0.jpg"",""img/0862/a0a3a7ba-7798-46a3-b4ca-05e1f6e581d0.jpg""]","",""
"","4891","similarity","35","351692","0.0-6.0-29.0","1","[""img/0904/9dd5708f-3f8b-46a9-b49f-2f2fab87b357.jpg"",""img/0758/d540bee6-b460-4c32-ac57-bc282742d7d4.jpg""]","",""
"","8027","similarity","36","360747","0.0-6.0-30.0","3","[""img/0894/86201968-6e78-4d68-9b3a-d1692e066210.jpg"",""img/0899/f95cbdb4-f804-4f5d-ad76-373ad343e658.jpg""]","",""
"","8334","similarity","37","370099","0.0-6.0-31.0","3","[""img/0860/94ef7afc-e0e6-4a15-98c6-0bfac82bc832.jpg"",""img/0904/4d7d70a3-9477-4921-bda0-f9531d0a5c5b.jpg""]","",""
"","5421","similarity","38","376539","0.0-6.0-32.0","5","[""img/0874/99f6563c-8a8d-4c1c-a41d-667b618c3fd5.jpg"",""img/0881/44e09805-5a25-4f17-a716-4ad4a331b174.jpg""]","",""
"","5603","similarity","39","383155","0.0-6.0-33.0","3","[""img/0881/f8bd891e-aa09-4782-89db-33e7cb2b0cf1.jpg"",""img/0899/0e1d936a-dbe2-4afc-9f19-7b7a1ae6c9ed.jpg""]","",""
"","5786","similarity","40","389971","0.0-6.0-34.0","2","[""img/0866/c446214b-a368-4c65-ae39-ea46894256ab.jpg"",""img/0862/f23038d4-c366-4f70-979f-66b62362efa4.jpg""]","",""
"","6330","similarity","41","397315","0.0-6.0-35.0","2","[""img/0868/d98ca254-b195-477f-b57e-5760a2717db8.jpg"",""img/0894/b2d2f66e-e480-46da-a02a-6d0c6b285d78.jpg""]","",""
"","5515","similarity","42","403851","0.0-6.0-36.0","7","[""img/0860/61fb959d-d4d9-4de4-9e4e-4fa62b4cfcd5.jpg"",""img/0860/17b44a7d-c5ca-479f-9e87-f65a64f5c80e.jpg""]","",""
"","5844","similarity","43","410731","0.0-6.0-37.0","6","[""img/0862/47ed5efd-4ec9-4b74-bb4e-a5f5cf0c3e7d.jpg"",""img/0864/0116ca98-293d-4fa6-a93b-5a6144ef64cc.jpg""]","",""
"","5224","similarity","44","417059","0.0-6.0-38.0","3","[""img/0766/5d1b8041-c5a1-4b02-b4fe-3453d98a0d72.jpg"",""img/0866/6f2a90d7-14f1-4f1b-bd64-fc0af6b9fe44.jpg""]","",""
"","5437","similarity","45","423522","0.0-6.0-39.0","3","[""img/0875/ebf7653f-ff45-4e9f-af58-2c042ab3cd2b.jpg"",""img/0898/881e2a85-d5c2-49be-a0c6-8a6ce2c4af08.jpg""]","",""
"","5350","similarity","46","429898","0.0-6.0-40.0","5","[""img/0766/908bc45b-7c9e-4f95-806e-86b196ebcb2c.jpg"",""img/0769/11518cb3-13ea-4dd0-890c-30cfab728ade.jpg""]","",""
"","5428","similarity","47","461385","0.0-6.0-41.0","3","[""img/0874/ca23d307-fc00-4d7d-9106-584c6eb21b4d.jpg"",""img/0764/e48e6c6f-9e28-420f-836a-8043b2319bb4.jpg""]","",""
"","4793","similarity","48","467194","0.0-6.0-42.0","1","[""img/0868/5fa7f9d0-f0e5-454c-8224-74d964818f56.jpg"",""img/0902/3f0eeac5-c996-4026-a376-563ce8f28521.jpg""]","",""
"","6278","similarity","49","474490","0.0-6.0-43.0","2","[""img/0875/5a1e5100-0d94-4fec-bbe9-ca9894d2cf8e.jpg"",""img/0899/76ad07e2-ca25-45eb-84f2-8d80b8ca3e26.jpg""]","",""
"","6888","similarity","50","482402","0.0-6.0-44.0","4","[""img/0866/386235d2-6857-41e7-88a8-25cfc3430025.jpg"",""img/0860/87039971-2210-4aab-93c0-8e9b5f1655b2.jpg""]","",""
"","8187","similarity","51","491618","0.0-6.0-45.0","4","[""img/0766/75c3d627-4f3b-40d5-9d9c-10c8a62db644.jpg"",""img/0903/2a9c8033-3e70-47fa-816d-97ee1813a3a3.jpg""]","",""
"","9746","similarity","52","502394","0.0-6.0-46.0","5","[""img/0901/1b86f2fc-7a1d-4aa8-9252-114f92edef3b.jpg"",""img/0904/09934646-45d2-4147-8fec-64a22a5ac822.jpg""]","",""
"","6244","similarity","53","509674","0.0-6.0-47.0","2","[""img/0758/7ffbc76b-1fc1-432c-8f7e-9ec8d1b3f643.jpg"",""img/0902/c9c74d2d-9b82-42d7-a9d0-3b8ff67ff81e.jpg""]","",""
"","6195","similarity","54","516890","0.0-6.0-48.0","5","[""img/0764/39a9fc7e-b863-432c-9374-de43983f31a5.jpg"",""img/0764/f64dfa83-333d-494c-87b5-73e942f1766e.jpg""]","",""
"","4325","similarity","55","522226","0.0-6.0-49.0","1","[""img/0866/9b38d691-1802-4959-ab3f-fc902f0e4ea6.jpg"",""img/0902/417d8b4a-3c72-4adc-ac78-820e833316f2.jpg""]","",""
"","6120","similarity","56","529371","0.0-6.0-50.0","4","[""img/0764/7f4ee8e3-9315-4a57-be7d-db8454b33766.jpg"",""img/0758/a709631e-3705-4725-ac40-f0d916924f08.jpg""]","",""
"","7676","similarity","57","538074","0.0-6.0-51.0","6","[""img/0898/6cd3830b-d44e-4915-be2b-88d31424b91c.jpg"",""img/0894/38f5931f-926d-414e-b498-66b188978b7a.jpg""]","",""
"","5886","similarity","58","544986","0.0-6.0-52.0","2","[""img/0875/2c361b79-c3d1-4eda-812e-bf03192407bf.jpg"",""img/0866/07c9c966-3c8d-40e7-8128-92b2acbaed5d.jpg""]","",""
"","6371","similarity","59","552386","0.0-6.0-53.0","7","[""img/0904/5cceabc9-de1d-4c67-989b-c28a4ef77e79.jpg"",""img/0904/2fd488e9-960f-41f7-8a44-33375f7d5051.jpg""]","",""
"","7785","similarity","60","561186","0.0-6.0-54.0","7","[""img/0769/1afb527f-9887-428c-bd26-a12c2f9efb68.jpg"",""img/0769/82ab9db6-4578-4e79-874f-f09100439f09.jpg""]","",""
"","5307","similarity","61","567514","0.0-6.0-55.0","1","[""img/0898/5f699581-3853-4547-856c-12f419ba5af7.jpg"",""img/0758/dd559618-7f09-4a07-8018-d311c4a5ea29.jpg""]","",""
"","5811","similarity","62","574345","0.0-6.0-56.0","4","[""img/0769/8c7cf147-1780-4d5c-8ddf-5ea23ff03ac9.jpg"",""img/0902/fbef27fa-ac83-4936-ab78-9d1c20a383e1.jpg""]","",""
"","7109","similarity","63","582490","0.0-6.0-57.0","3","[""img/0864/e02eddb5-f468-499c-91bf-f7be3ffe979b.jpg"",""img/0881/84397291-bc14-4fbf-90e8-241e486ab0fe.jpg""]","",""
"","5504","similarity","64","589018","0.0-6.0-58.0","1","[""img/0758/3ddd05d3-557e-4ee7-8b78-9d2d681d8ae2.jpg"",""img/0868/1a62b2b2-18f5-466e-b564-5176a57c565e.jpg""]","",""
"","7676","similarity","65","597721","0.0-6.0-59.0","4","[""img/0862/fb26cb07-d5a9-4653-813c-f41609f26cd5.jpg"",""img/0769/1d8734c4-77ab-4165-9e71-5cfe672ff01c.jpg""]","",""
"","8311","similarity","66","607049","0.0-6.0-60.0","2","[""img/0764/c84fbfa8-521c-407a-9bd3-24f7308d896c.jpg"",""img/0903/3e9ee8a5-eb66-47f5-8973-8a5af1ddc87e.jpg""]","",""
"","5538","similarity","67","613617","0.0-6.0-61.0","7","[""img/0899/d8f2dd94-570e-4e8c-a087-d96090fb9e8c.jpg"",""img/0899/56a605c3-d0a2-4215-89e1-779279d85a7c.jpg""]","",""
"","7451","similarity","68","622081","0.0-6.0-62.0","5","[""img/0860/c7047cd2-7cc1-41b6-8a34-c0986774975f.jpg"",""img/0875/99698b4d-b4a1-44bc-8c83-8ea755bbbf61.jpg""]","",""
"","5687","similarity","69","628802","0.0-6.0-63.0","2","[""img/0868/7b212364-ff5f-4e28-9241-7eb6ea00161b.jpg"",""img/0874/a82926a3-0b43-4add-803c-d5f9ea7798ee.jpg""]","",""
"","7707","similarity","70","637537","0.0-6.0-64.0","5","[""img/0758/53f35650-e455-4b53-8be4-c3c8271c6466.jpg"",""img/0862/4f0a3b4c-afbf-486e-b248-1d54982f54b4.jpg""]","",""
"","5266","similarity","71","643833","0.0-6.0-65.0","7","[""img/0904/e9423a8c-f946-43ad-ab7b-931acef870e2.jpg"",""img/0898/c3cecf20-f7fd-45fa-97d0-dc0a63e8d6c0.jpg""]","",""
"","6281","similarity","72","651129","0.0-6.0-66.0","4","[""img/0881/633c6f40-56d9-4b48-bf1c-ecd83116eabb.jpg"",""img/0866/a15b02be-11bb-43e3-b0e0-ecc3bd7dfc49.jpg""]","",""
"","7452","similarity","73","659617","0.0-6.0-67.0","3","[""img/0867/de92135f-5b65-4ed9-b245-188292c7c2f8.jpg"",""img/0898/f3a3f225-1248-4ac7-b93b-f0ff28485bf3.jpg""]","",""
"","6062","similarity","74","666713","0.0-6.0-68.0","7","[""img/0902/24d10fe7-314f-4d5a-8c7b-b43121bba0a4.jpg"",""img/0764/1f95ab5f-fb65-4d70-b5db-d6bd6351a8aa.jpg""]","",""
"","6150","similarity","75","673905","0.0-6.0-69.0","7","[""img/0875/42910c99-5463-450a-a0f8-d4d060a11455.jpg"",""img/0867/179ab87a-8eac-4c52-a41f-2e48e3120f09.jpg""]","",""
"","5893","similarity","76","680825","0.0-6.0-70.0","7","[""img/0766/d3bab2fc-ddcc-40a0-bb72-c0d0ebe19978.jpg"",""img/0764/c80b3e06-2ee3-4326-9678-340607eb5348.jpg""]","",""
"","9162","similarity","77","691009","0.0-6.0-71.0","6","[""img/0894/11674fa4-285d-44e2-939f-2228c6a64080.jpg"",""img/0867/ac1797e4-8afc-48fe-b252-86d1defb1cca.jpg""]","",""
"","5624","similarity","78","697657","0.0-6.0-72.0","2","[""img/0875/e7e66b13-b573-431e-b85e-288ce04a35a3.jpg"",""img/0764/4bec8d92-75aa-475a-954d-8215dbe538f5.jpg""]","",""
"","5426","similarity","79","704105","0.0-6.0-73.0","7","[""img/0867/db7e032f-162b-46f5-ae67-2b29679adee4.jpg"",""img/0866/8efcaa46-83ab-4dee-a35f-850402aa21ae.jpg""]","",""
"","5615","similarity","80","710729","0.0-6.0-74.0","1","[""img/0903/470acfd5-5571-4a7b-b3a4-28d87e098138.jpg"",""img/0758/20497cbe-ddae-489e-86e2-ab06985ed07c.jpg""]","",""
"","8546","similarity","81","720313","0.0-6.0-75.0","1","[""img/0766/2da002a4-05c9-4f5c-9ed7-433b4183e273.jpg"",""img/0868/293079b8-7e0c-4afd-a390-1e5d35fe3ded.jpg""]","",""
"","6142","similarity","82","727472","0.0-6.0-76.0","3","[""img/0874/85eb9b8a-c4c6-4e5a-b8e7-363a87a82054.jpg"",""img/0766/ba35c0fc-4d5b-490d-959e-c94b279cdd02.jpg""]","",""
"","7407","similarity","83","735905","0.0-6.0-77.0","1","[""img/0881/405484ae-0d00-4b05-bc57-6420a36adfac.jpg"",""img/0868/09a9ef4d-d000-4cfa-a6aa-ebec7c2edeb4.jpg""]","",""
"","7132","similarity","84","744064","0.0-6.0-78.0","2","[""img/0758/d57c2592-a317-4f63-91be-91a3a9afd222.jpg"",""img/0901/da4fe30f-d12a-491e-96a2-5ab8ebaadd09.jpg""]","",""
"","5350","similarity","85","750448","0.0-6.0-79.0","1","[""img/0881/20af39f5-373d-4a55-a437-2dc4c0382c46.jpg"",""img/0898/661621d4-a14e-487c-8c74-354134a29710.jpg""]","",""
"","5287","similarity","86","756761","0.0-6.0-80.0","2","[""img/0867/98d8cd96-1476-4fe0-a3a3-04f875500a1b.jpg"",""img/0758/7fba58df-2a7a-4b76-8a8f-62739f97f271.jpg""]","",""
"","4893","similarity","87","762672","0.0-6.0-81.0","7","[""img/0769/9ea9ceb6-049e-4ad9-be8f-00645cd35803.jpg"",""img/0899/1b3457ea-87d4-4946-a01c-aac1863ed46c.jpg""]","",""
"","5142","similarity","88","768840","0.0-6.0-82.0","7","[""img/0903/b548d383-2a95-4575-8c13-647873751ff1.jpg"",""img/0903/c3cb4a01-2797-43ca-b216-88c67b323fbb.jpg""]","",""
"","4905","similarity","89","788903","0.0-6.0-83.0","1","[""img/0867/bf560d4f-dee3-4f11-a385-705cc1aa5f3c.jpg"",""img/0766/1bc0dccc-a5b5-4375-87fa-28360ca42b12.jpg""]","",""
"","6284","similarity","90","796216","0.0-6.0-84.0","2","[""img/0902/8065aa6b-4aef-4368-afa2-02c6465ca582.jpg"",""img/0867/5e07b34d-b40f-4b1c-ac10-49975bace45f.jpg""]","",""
"","4813","similarity","91","802056","0.0-6.0-85.0","1","[""img/0901/f469cb1d-6d81-4a45-bab5-cd0b650c2b4f.jpg"",""img/0875/5a716432-c6ca-4b1c-955a-2b8ac25198ee.jpg""]","",""
"","4886","similarity","92","807952","0.0-6.0-86.0","4","[""img/0764/952d7adc-dc40-4aee-acce-18c2a1d02ea1.jpg"",""img/0866/a04d37f0-99dd-478a-b6c6-58b215138f84.jpg""]","",""
"","5234","similarity","93","814208","0.0-6.0-87.0","4","[""img/0901/50e1d53e-a49f-4806-8610-be6dec5a2475.jpg"",""img/0894/e6385e52-6c35-43bd-b0af-bc803d107b11.jpg""]","",""
"","5407","similarity","94","820640","0.0-6.0-88.0","5","[""img/0898/224c1572-56b9-4f16-a9e4-6f3bc9c114bd.jpg"",""img/0769/4680bcc3-8fbc-4643-8f9a-12aa0e780b64.jpg""]","",""
"","5003","similarity","95","826672","0.0-6.0-89.0","6","[""img/0769/e8ed913b-8a88-44f6-9327-d34afec3116b.jpg"",""img/0894/661b9f9f-4bde-487a-b1ed-87085fde6948.jpg""]","",""
"","5837","similarity","96","833520","0.0-6.0-90.0","5","[""img/0862/ad593cc7-cabe-4bb7-8e14-8a447a0717b4.jpg"",""img/0874/adf9a8f1-c40b-402b-b95b-1e85a54a7b62.jpg""]","",""
"","5199","similarity","97","839744","0.0-6.0-91.0","6","[""img/0894/76c1201f-8524-4865-85e6-dda8cb4ac986.jpg"",""img/0766/f3276cc4-65de-4c2d-88d5-6cfebce14b8f.jpg""]","",""
"","4639","similarity","98","845424","0.0-6.0-92.0","1","[""img/0874/ca76a855-4e77-4f2f-872a-0a718153e7ed.jpg"",""img/0867/f8488a47-94ee-4166-952c-44e16cf172f6.jpg""]","",""
"","8058","similarity","99","854504","0.0-6.0-93.0","1","[""img/0899/8abe6c69-822c-436c-9bf2-96c818b49ba5.jpg"",""img/0868/3a62db2d-97e9-44a3-b8e3-a48c6f0e423b.jpg""]","",""
"","4762","similarity","100","860296","0.0-6.0-94.0","6","[""img/0903/71dbc325-b588-4297-a5cf-7f268a722ad9.jpg"",""img/0862/cdaed51d-9e2f-4807-801a-4663c40077e2.jpg""]","",""
"","4737","similarity","101","866072","0.0-6.0-95.0","5","[""img/0899/4f7bc593-8ddd-4da3-a0b9-84da730d3370.jpg"",""img/0766/d5d38751-8fa5-476f-93e9-86ed2d9045ef.jpg""]","",""
"","5077","similarity","102","872176","0.0-6.0-96.0","7","[""img/0867/50a1b60e-3a29-44bf-b606-d4bd3746fea9.jpg"",""img/0868/c8ac40c7-6904-4e13-8d61-c75d3052dc4e.jpg""]","",""
"","6010","similarity","103","879208","0.0-6.0-97.0","4","[""img/0862/f43ceabf-acc1-4107-b857-5d1849808f93.jpg"",""img/0901/c6c877e0-dd63-4e00-9657-33af29d55aab.jpg""]","",""
"","4891","similarity","104","885119","0.0-6.0-98.0","1","[""img/0875/90da8d75-108a-44ad-b999-e21fee3860d3.jpg"",""img/0766/dd3e18d0-0c98-4d05-b850-69976ee8cd75.jpg""]","",""
"","4984","similarity","105","891128","0.0-6.0-99.0","7","[""img/0758/caa93da2-9edf-49fa-96b9-32dedd8f5078.jpg"",""img/0874/a3bc679d-619f-4db6-bb68-116dcb757d9c.jpg""]","",""
"","6408","similarity","106","898568","0.0-6.0-100.0","2","[""img/0904/56e73f28-7e64-489b-a161-e6b1a063878d.jpg"",""img/0868/0d3abd3a-b6c3-4584-a9f7-e2da63748b3d.jpg""]","",""
"","4866","similarity","107","904463","0.0-6.0-101.0","2","[""img/0903/a0673b55-6040-47fe-9040-24bca27ca3c9.jpg"",""img/0866/bf14b5bd-fb55-47db-86b9-4f8aeb9a6dad.jpg""]","",""
"","6805","similarity","108","912303","0.0-6.0-102.0","2","[""img/0868/e0aff734-077f-40dd-9781-74821abd3621.jpg"",""img/0769/38a88f69-28fd-4bbd-99f0-f4c02bfd3995.jpg""]","",""
"","5726","similarity","109","919055","0.0-6.0-103.0","6","[""img/0902/6c2c243a-f663-45db-baf5-038d3d58c589.jpg"",""img/0899/66ab3178-c3fe-4455-ad17-d5952b08e018.jpg""]","",""
"","5749","similarity","110","925831","0.0-6.0-104.0","2","[""img/0868/15dd6fd7-791e-4b53-b203-195d617521a4.jpg"",""img/0862/7918ca67-5bd3-4606-a5ea-c39fb11a9297.jpg""]","",""
"","4923","similarity","111","931783","0.0-6.0-105.0","6","[""img/0903/5248eedd-7e6a-4d39-91b0-06ec227f3ed0.jpg"",""img/0894/7fb082e0-ce79-485c-9109-04367fb32275.jpg""]","",""
"","5373","similarity","112","938183","0.0-6.0-106.0","7","[""img/0864/afcba0a3-7e27-4757-b254-e9f05fad27e2.jpg"",""img/0874/93d1f8dc-acf2-4f03-bd8d-8ec35df276ed.jpg""]","",""
"","5587","similarity","113","944808","0.0-6.0-107.0","6","[""img/0862/92f0146c-20c4-482e-aef5-adb693790338.jpg"",""img/0902/962f645e-9b55-4628-9b50-c703422bfe1a.jpg""]","",""
"","5885","similarity","114","951711","0.0-6.0-108.0","7","[""img/0904/24fc38fe-842c-4831-ad8a-b1de5c25c0a8.jpg"",""img/0903/6138142e-c84e-45fc-9487-c974f3d4968a.jpg""]","",""
"","5547","similarity","115","958295","0.0-6.0-109.0","3","[""img/0764/c643e165-df19-459f-8c2b-8357bf432a17.jpg"",""img/0864/b3c4e378-28f0-4699-9338-2a257b4bca04.jpg""]","",""
"","6119","similarity","116","965448","0.0-6.0-110.0","5","[""img/0866/4a87911a-d5be-4d4e-ab8e-3d1f581bf507.jpg"",""img/0894/3664e04c-c6d3-4c9b-afb6-25d89974b174.jpg""]","",""
"","5731","similarity","117","972199","0.0-6.0-111.0","7","[""img/0899/7f9d45d0-b2c6-40d3-aa41-c207db2c411b.jpg"",""img/0903/680ed18e-b311-4ecf-9b00-7dea32128334.jpg""]","",""
"","5808","similarity","118","979023","0.0-6.0-112.0","7","[""img/0902/cf9dee9c-2bdf-4d64-9302-97f1660fe52c.jpg"",""img/0904/6291eb43-c10c-4810-a36a-101d09868b04.jpg""]","",""
"","7086","similarity","119","987135","0.0-6.0-113.0","6","[""img/0864/c3b63e8f-ea39-4d70-a1f2-b3fe4be8eb75.jpg"",""img/0860/f44ba3fb-03a2-42f0-8509-2c1ded493086.jpg""]","",""
"","6157","similarity","120","994311","0.0-6.0-114.0","5","[""img/0860/e14d67c1-6d92-4f1e-9257-c8607159c19c.jpg"",""img/0899/06b0fc99-0581-461a-9913-d1a5a941ac61.jpg""]","",""
"","6078","similarity","121","1001407","0.0-6.0-115.0","2","[""img/0881/7e31e5dc-2240-4b1b-b5a0-3acd980099ef.jpg"",""img/0903/0e5c2854-42aa-48c0-9c3d-6e1ad2a400bd.jpg""]","",""
"","5930","similarity","122","1008358","0.0-6.0-116.0","4","[""img/0894/10f22b96-040c-44f4-950b-a4963f3f506c.jpg"",""img/0874/c0378dac-9370-439a-8b79-db27c96fb390.jpg""]","",""
"","5339","similarity","123","1014735","0.0-6.0-117.0","4","[""img/0881/344de456-b358-4887-bd0e-e4c3278af887.jpg"",""img/0862/1c20f772-3a51-4a80-aac0-f57dc9f86c28.jpg""]","",""
"","6887","similarity","124","1022655","0.0-6.0-118.0","4","[""img/0868/4e626425-63c8-484a-8a1d-e66ee4e0bef8.jpg"",""img/0875/d59ff733-eaff-4ee2-9443-06954dd0bcb6.jpg""]","",""
"","7485","similarity","125","1031151","0.0-6.0-119.0","5","[""img/0860/29a21a9f-54bb-4093-ad3f-04823ceaa89f.jpg"",""img/0758/e1ba5e53-addc-436a-b428-d34fc1b130dc.jpg""]","",""
"","5395","similarity","126","1037575","0.0-6.0-120.0","3","[""img/0864/8ddd2e30-a1d0-479f-9cbe-591213023893.jpg"",""img/0875/a4935837-7d3c-4df6-88c1-36a94d4991ca.jpg""]","",""
"","7170","similarity","127","1045766","0.0-6.0-121.0","2","[""img/0898/cd3aaa3f-efa9-4ab3-8d6f-a6a9273ddf42.jpg"",""img/0866/d266fece-59b3-46fa-b69f-96f6efb81b59.jpg""]","",""
"","6912","similarity","128","1053710","0.0-6.0-122.0","3","[""img/0874/7e4f2150-3b59-4a36-b5da-a4e0ba410531.jpg"",""img/0904/2f88ce53-02d0-4f95-a082-182c56a0eeb4.jpg""]","",""
"","6507","similarity","129","1061246","0.0-6.0-123.0","2","[""img/0904/09dac84f-3d1c-4445-a68e-d0389fdbf1e9.jpg"",""img/0864/65210d57-1153-4657-886a-32e758f49b4a.jpg""]","",""
"","5616","similarity","130","1067895","0.0-6.0-124.0","7","[""img/0894/7f2f31fd-6618-41c6-b65a-0fd8b2851bc9.jpg"",""img/0902/794606a0-d8a8-4e58-8bf8-9d114ed5a548.jpg""]","",""
"","5215","similarity","131","1084037","0.0-6.0-125.0","2","[""img/0868/d6d1f30d-4323-435a-b194-7892521bc57e.jpg"",""img/0864/87c467d3-abca-482f-ad80-3766c21b1bb3.jpg""]","",""
"","5304","similarity","132","1090366","0.0-6.0-126.0","2","[""img/0899/7b7380d5-d2be-44e5-a09a-c1756f87ef71.jpg"",""img/0866/620cd1aa-0800-4414-8f6e-90342e7a99ad.jpg""]","",""
"","7285","similarity","133","1098678","0.0-6.0-127.0","2","[""img/0875/f87b67d7-c33e-40d1-b281-248c4be1cb6e.jpg"",""img/0904/b7c2a2c8-df33-4473-b3d4-ff7147c60db3.jpg""]","",""
"","3856","similarity","134","1103550","0.0-6.0-128.0","1","[""img/0867/c66898ba-b71b-4d50-84f9-f7f84853a98d.jpg"",""img/0899/a05bea16-2bb4-4cb9-b8fb-4ff975db6971.jpg""]","",""
"","4515","similarity","135","1109094","0.0-6.0-129.0","2","[""img/0901/58978a6d-a3e2-4c59-8d62-f60693ecc0f6.jpg"",""img/0867/26611f4e-d694-4460-b7e2-43c62753ddc3.jpg""]","",""
"","6063","similarity","136","1116174","0.0-6.0-130.0","2","[""img/0864/ef9cbca0-4be8-435d-ad49-977259e80409.jpg"",""img/0769/3c1efec9-f8fd-487d-8955-4be88e48c832.jpg""]","",""
"","5250","similarity","137","1122446","0.0-6.0-131.0","1","[""img/0903/aa842abe-6fa3-448a-bf71-88d3ad28663b.jpg"",""img/0868/77091fc7-a590-4ebb-b915-fdb2483a2399.jpg""]","",""
"","4590","similarity","138","1128062","0.0-6.0-132.0","1","[""img/0864/300bb811-8b3c-4c42-8653-6097c3725197.jpg"",""img/0867/a749dddb-69f0-44a6-acdc-2bf295cf6dcc.jpg""]","",""
"","5416","similarity","139","1134502","0.0-6.0-133.0","4","[""img/0901/04a53755-6da5-44d4-a7a6-48a6bc0a2280.jpg"",""img/0860/c47fdead-eb02-4989-b078-26f4852f44fe.jpg""]","",""
"","6959","similarity","140","1142494","0.0-6.0-134.0","2","[""img/0881/292e9b4b-fca0-4ba8-87f1-4048f9e37b7d.jpg"",""img/0766/91fc8c4d-862f-4d2b-b1a1-2db8d729b6b7.jpg""]","",""
"","5199","similarity","141","1148726","0.0-6.0-135.0","2","[""img/0903/b7e3723f-fd03-4f3d-8820-f19496463a34.jpg"",""img/0864/c22faebd-9c53-47bc-ada3-b9a30c688e75.jpg""]","",""
"","9113","similarity","142","1158870","0.0-6.0-136.0","2","[""img/0758/b76ceca7-95ac-46e4-ac13-da02c8e93be9.jpg"",""img/0894/bd34223a-2f66-4e16-9d18-193a746b69ff.jpg""]","",""
"","8872","similarity","143","1168766","0.0-6.0-137.0","2","[""img/0769/688d0c52-ad73-4065-a5eb-f8c10d076bff.jpg"",""img/0860/15b24a61-25be-4356-9eac-5ce95d0cb4a4.jpg""]","",""
"","5683","similarity","144","1175470","0.0-6.0-138.0","2","[""img/0904/63dd06dd-dccb-47ba-9740-eb33239e18a7.jpg"",""img/0766/26d3ae14-8275-4e08-99b2-a6598c193ddf.jpg""]","",""
"","4137","similarity","145","1180630","0.0-6.0-139.0","4","[""img/0868/8b0b8473-e2c0-4331-aa56-c3a5c29369da.jpg"",""img/0860/e8b8c51e-1834-4875-8b61-6c5bc9b178bd.jpg""]","",""
"","7033","similarity","146","1188694","0.0-6.0-140.0","7","[""img/0758/335851a0-a55b-46d8-ab05-8463eda48349.jpg"",""img/0864/3651d070-2fc5-4848-b6a6-088a2d9ac5c9.jpg""]","",""
"","5276","similarity","147","1195006","0.0-6.0-141.0","7","[""img/0867/f26f6b60-f772-4f4c-95a4-addc62cfd692.jpg"",""img/0867/6e19c858-b606-45b2-a4c6-910a73f1d82c.jpg""]","",""
"","6109","similarity","148","1202134","0.0-6.0-142.0","7","[""img/0898/82231d4c-218b-4d0a-b50d-35a49b524e97.jpg"",""img/0898/a8f16b02-e19f-423b-86c3-a36562ae1f9b.jpg""]","",""
"","6911","similarity","149","1210061","0.0-6.0-143.0","2","[""img/0866/93a27239-8317-4e08-98ca-d8b1ff298e07.jpg"",""img/0769/f73c5138-2f4c-4354-981c-129dff9cc734.jpg""]","",""
"","5502","similarity","150","1216582","0.0-6.0-144.0","5","[""img/0860/9593362c-9fe5-4d12-9735-6000a11f6aa5.jpg"",""img/0898/40f99fb2-64d2-4e72-8a7f-a1cf60741e69.jpg""]","",""
"","6889","similarity","151","1224485","0.0-6.0-145.0","1","[""img/0766/6d32752d-aa05-40dc-9541-640b6e9d6fa1.jpg"",""img/0864/5f33e097-23e3-4002-882d-76e8cb15f451.jpg""]","",""
"","5868","similarity","152","1231397","0.0-6.0-146.0","2","[""img/0860/8fdba999-b946-4c7d-9891-336018b563ef.jpg"",""img/0903/07b445ee-0cdb-4d2c-a23b-d727613f4059.jpg""]","",""
"","6437","similarity","153","1238853","0.0-6.0-147.0","2","[""img/0867/1719a35d-f085-48c0-9099-16c94fe418b4.jpg"",""img/0764/5c8fbafc-e62e-43ed-9b37-f73e8e45147d.jpg""]","",""
"","5813","similarity","154","1245693","0.0-6.0-148.0","5","[""img/0769/c7cfacc3-7f07-46ff-9f5d-8073f4c4679b.jpg"",""img/0904/b5855d6a-7ef9-46ca-9215-6e9fa046e543.jpg""]","",""
"","6887","similarity","155","1253613","0.0-6.0-149.0","2","[""img/0764/29072395-f595-4e3c-83d3-ff87010039fa.jpg"",""img/0901/2a953e50-d237-405c-a38d-5ed21494c968.jpg""]","",""
"","6449","similarity","156","1261095","0.0-6.0-150.0","5","[""img/0904/73920552-103b-4c9c-9ece-e0b8376b4504.jpg"",""img/0899/57476fed-5962-4272-8fc9-b317bb777b54.jpg""]","",""
"","8116","similarity","157","1270245","0.0-6.0-151.0","2","[""img/0862/ba89835a-408c-480b-8594-ed4ffa97eb5c.jpg"",""img/0867/c71dc569-f49c-4397-8381-68b8d726736d.jpg""]","",""
"","5381","similarity","158","1276645","0.0-6.0-152.0","7","[""img/0766/0b48f9e0-7d37-4161-8adb-4e3f5b6b7583.jpg"",""img/0766/e8052e17-9dae-4139-802b-6e590cb2d526.jpg""]","",""
"","6015","similarity","159","1283693","0.0-6.0-153.0","6","[""img/0862/fad1d7c1-8187-43c3-942a-0fc12183e48e.jpg"",""img/0894/133a1636-d123-4893-873c-1718050f832a.jpg""]","",""
"","4471","similarity","160","1289197","0.0-6.0-154.0","1","[""img/0899/9de5e857-aa9a-4e0c-8ba2-46d79bd069a4.jpg"",""img/0901/4ca4f962-40c0-4c59-b14a-3cd7b8c9029b.jpg""]","",""
"","7721","similarity","161","1297933","0.0-6.0-155.0","6","[""img/0874/2c9464dd-8a23-4baa-ac94-1ba3af5c15cc.jpg"",""img/0874/29830da7-be5f-44e5-b141-652a0ccf7269.jpg""]","",""
"","6313","similarity","162","1305261","0.0-6.0-156.0","5","[""img/0860/d9a0d117-6d1d-41c0-8fec-9aff0fd9e9f2.jpg"",""img/0867/12264664-1860-46df-8c21-162b9817cdda.jpg""]","",""
"","4833","similarity","163","1311117","0.0-6.0-157.0","1","[""img/0901/5b97abf9-f0c8-4fd1-b921-36d574779078.jpg"",""img/0881/dea58fad-b4f1-41d9-bd3f-916eff19a3fd.jpg""]","",""
"","5174","similarity","164","1317324","0.0-6.0-158.0","7","[""img/0903/8fcafe03-43df-4c45-9da5-0df3a1eeccc5.jpg"",""img/0902/d3e55000-c839-4bf9-9b9b-4af0a9925af1.jpg""]","",""
"","4490","similarity","165","1322844","0.0-6.0-159.0","4","[""img/0860/71e1aad0-2cdf-43bb-94a4-a8c016997c30.jpg"",""img/0764/06ea144f-f4f3-4a14-ba47-f20f35c561e0.jpg""]","",""
"","10021","similarity","166","1333884","0.0-6.0-160.0","2","[""img/0902/d2c34af0-8c50-437d-8cc3-619195a3e8ba.jpg"",""img/0875/8521fd58-3b1e-4dc5-97ae-804edfa6734a.jpg""]","",""
"","6617","similarity","167","1341532","0.0-6.0-161.0","6","[""img/0898/ec565187-2e31-4fdd-9a5c-153d0c789ae0.jpg"",""img/0862/847e5208-38ec-4f36-949c-296cdd7424ee.jpg""]","",""
"","5802","similarity","168","1348364","0.0-6.0-162.0","4","[""img/0894/05161000-f476-499b-a878-c13c7f347fd9.jpg"",""img/0875/3ecb367d-e9eb-4826-8aaa-7aa72fb98019.jpg""]","",""
"","5802","similarity","169","1355180","0.0-6.0-163.0","2","[""img/0866/23a224f3-2012-4fc8-8e0f-3c36f8de27fd.jpg"",""img/0864/1ebbc554-99fa-49f9-8799-317375a79820.jpg""]","",""
"","6191","similarity","170","1362404","0.0-6.0-164.0","3","[""img/0766/aaec5f42-7f0a-4a16-aeca-488d757acbcc.jpg"",""img/0862/eefa5588-9efd-4591-aa5f-a2e17c7d7bcc.jpg""]","",""
"","5977","similarity","171","1369397","0.0-6.0-165.0","1","[""img/0866/be24ab58-230e-4db8-9f45-ff04c9aec6bb.jpg"",""img/0874/1016b306-087c-4afc-aa08-fa527b28dc76.jpg""]","",""
"","6811","similarity","172","1377236","0.0-6.0-166.0","6","[""img/0862/99a99e39-8355-44ec-b993-e7bcec111e1c.jpg"",""img/0860/fd4662f9-4c03-4d79-8593-06735e55a64b.jpg""]","",""
"","9670","similarity","173","1397636","0.0-6.0-167.0","1","[""img/0766/a1ed3f0f-e338-4a26-8fe4-4370f0c9fa6e.jpg"",""img/0901/ae1e6ce4-2e10-4ca9-b1e7-21628637ab74.jpg""]","",""
"","5907","similarity","174","1404572","0.0-6.0-168.0","7","[""img/0862/00c06b00-3b73-44e9-bc1e-c5aafb438321.jpg"",""img/0862/064818ee-13d5-4618-bb24-21c7368ea278.jpg""]","",""
"","4924","similarity","175","1410532","0.0-6.0-169.0","4","[""img/0894/b422d5c6-3c5a-49ae-a53e-7e88ac993f49.jpg"",""img/0764/d0bef2e0-e16b-4c82-9451-c1d16265eb67.jpg""]","",""
"","9225","similarity","176","1420788","0.0-6.0-170.0","1","[""img/0874/3ce41e7c-40c8-4d58-a546-171114521796.jpg"",""img/0898/0c7dde4f-efce-4b7a-9387-6921635b7890.jpg""]","",""
"","5329","similarity","177","1427140","0.0-6.0-171.0","1","[""img/0860/4c530c3c-6aab-492a-94d1-9c01797bde40.jpg"",""img/0766/fd064894-7147-4af5-97e9-2089d5472656.jpg""]","",""
"","6761","similarity","178","1434924","0.0-6.0-172.0","4","[""img/0898/0af304a2-6a7a-4082-ab7c-4450cd08cc58.jpg"",""img/0864/da39ad34-04e0-40d4-a724-c08d53e0ea09.jpg""]","",""
"","5351","similarity","179","1441308","0.0-6.0-173.0","4","[""img/0881/7e822106-76f7-4b10-a805-14dc68b2cfaf.jpg"",""img/0764/5d6fa3ce-9083-410c-bbdb-336a49b94cfc.jpg""]","",""
"","4973","similarity","180","1447316","0.0-6.0-174.0","1","[""img/0898/a114b375-cb89-44ba-9498-74213f1ecdee.jpg"",""img/0868/179a5502-ab5c-478e-8263-5a1fbcc101d2.jpg""]","",""
"","5126","similarity","181","1453468","0.0-6.0-175.0","7","[""img/0864/3d4de670-b290-4285-9c3d-12a0e3af44e9.jpg"",""img/0864/5f74a653-3bdc-4308-8cca-ac667dc22e1f.jpg""]","",""
"","6177","similarity","182","1460668","0.0-6.0-176.0","3","[""img/0899/51a7a498-98c7-42d7-bca8-bc2d8f0b5831.jpg"",""img/0862/ee3b7bff-4a70-4e84-9bea-4a565e456acb.jpg""]","",""
"","6560","similarity","183","1468251","0.0-6.0-177.0","1","[""img/0875/527ced51-8e53-4aab-ab05-86df219104c0.jpg"",""img/0758/61d64021-9214-4951-bdf8-f871f9827cf9.jpg""]","",""
"","6213","similarity","184","1475484","0.0-6.0-178.0","1","[""img/0866/0207e9a2-7dbb-40b5-9459-b472aaeceb2a.jpg"",""img/0901/08d6d1d1-c043-43c4-bb08-d45e062822b9.jpg""]","",""
"","6270","similarity","185","1482779","0.0-6.0-179.0","5","[""img/0769/662ab839-88d1-4ebf-af05-9b2980cad943.jpg"",""img/0874/31e22c7c-99aa-40b1-bf03-dd73fa2df4d6.jpg""]","",""
"","6843","similarity","186","1490652","0.0-6.0-180.0","2","[""img/0875/5a7c4e35-6514-4e12-8879-d16071da4cd6.jpg"",""img/0881/ee44e27f-d662-4608-b265-e7ffa19b216f.jpg""]","",""
"","8879","similarity","187","1500556","0.0-6.0-181.0","6","[""img/0866/11a1d141-be5e-443c-98c1-a9d4d9e3dec0.jpg"",""img/0868/83b4350a-3b70-4cea-b7f5-b5b56f3050a8.jpg""]","",""
"","6346","similarity","188","1507939","0.0-6.0-182.0","5","[""img/0899/5b56dd3e-3f49-47cc-af84-16da6457753b.jpg"",""img/0758/7ee8bc8f-c40b-4b3a-84ec-3e83580622d4.jpg""]","",""
"","5524","similarity","189","1514483","0.0-6.0-183.0","6","[""img/0874/bf14b896-e930-4fd9-9c05-2e83317a2773.jpg"",""img/0875/03c3c331-738b-4446-af92-3d7386b08c2e.jpg""]","",""
"","6188","similarity","190","1521699","0.0-6.0-184.0","4","[""img/0904/696ebb60-8891-417a-91fd-c53218907a95.jpg"",""img/0862/24cdc752-c2e5-4a17-86a6-6f2045d8553b.jpg""]","",""
"","6019","similarity","191","1528747","0.0-6.0-185.0","3","[""img/0902/1a120fb9-dbd6-443e-ba91-b4aceab963da.jpg"",""img/0766/60033a74-9919-47e5-913c-71d0d483e7e5.jpg""]","",""
"","6826","similarity","192","1536587","0.0-6.0-186.0","4","[""img/0758/d41c06bf-ebaf-454b-91c6-1a17f917b659.jpg"",""img/0769/48a1144d-fbda-4809-991b-fc8424a32ee4.jpg""]","",""
"","4715","similarity","193","1542340","0.0-6.0-187.0","6","[""img/0881/6b1189e6-232d-4042-8885-16dc7b10e0d4.jpg"",""img/0881/2a8413be-fec2-4de6-88ad-614dd4cccc9d.jpg""]","",""
"","5841","similarity","194","1549211","0.0-6.0-188.0","2","[""img/0758/f61ecdf8-a7d4-4db0-b84d-be46f7cfaffc.jpg"",""img/0866/02f5e6b9-52b7-448c-9708-5b460d0c9a23.jpg""]","",""
"","7780","similarity","195","1558003","0.0-6.0-189.0","5","[""img/0764/d7f3ac54-318a-4dac-a06b-62bed34d01a4.jpg"",""img/0898/08c72dac-f8ad-407a-9ce6-8c9a5d679c3a.jpg""]","",""
"","7551","similarity","196","1566579","0.0-6.0-190.0","6","[""img/0903/c708d08f-a108-4e04-8288-c3fcf6375db4.jpg"",""img/0901/1ede21d9-384f-4150-86b5-e1c57b5dc1d4.jpg""]","",""
"","5660","similarity","197","1573259","0.0-6.0-191.0","6","[""img/0902/94ee9c53-a9a2-4f95-b9b7-794a5fc62bb6.jpg"",""img/0898/68476bbb-34a1-42d9-8bc1-deab783d4489.jpg""]","",""
"","7051","similarity","198","1581347","0.0-6.0-192.0","2","[""img/0864/66091c27-e588-4476-8af9-265dc6be4156.jpg"",""img/0901/a0d65c84-3f20-476a-92d1-0c01e8019cf4.jpg""]","",""
"","6799","similarity","199","1589179","0.0-6.0-193.0","1","[""img/0894/3adef67d-7676-4995-80b2-bb31b8aca3ef.jpg"",""img/0881/5fe04dd0-5c74-47b7-99c8-b068db9ca26a.jpg""]","",""
"","6090","similarity","200","1596291","0.0-6.0-194.0","7","[""img/0868/6a28c3b0-3d76-498a-9fb7-ddafc665eca8.jpg"",""img/0868/4bd5105a-d2c3-4f82-8c80-57196106ba53.jpg""]","",""
"","5611","similarity","201","1602923","0.0-6.0-195.0","6","[""img/0899/4408c14d-c168-4a7d-96f6-bc87bfb58f83.jpg"",""img/0764/a3226bc4-dcc3-4608-bde8-1414d685ce5c.jpg""]","",""
"","6194","similarity","202","1610139","0.0-6.0-196.0","5","[""img/0881/e046471a-35b4-4159-bbf7-3cfd201bef66.jpg"",""img/0904/60d1a521-edf7-4696-9263-f21ac0e62a01.jpg""]","",""
"","6108","similarity","203","1617275","0.0-6.0-197.0","6","[""img/0864/1d15626a-2f7c-410f-819c-0fa2c967e95e.jpg"",""img/0902/22ed3536-288b-452e-9777-0fa0ab94deb0.jpg""]","",""
"","6142","similarity","204","1624435","0.0-6.0-198.0","5","[""img/0894/6b2e9509-8699-42b7-9582-7741df0ba2d7.jpg"",""img/0904/65e2b70a-b184-4da3-b5c0-5038bdf9469a.jpg""]","",""
"","5378","similarity","205","1630851","0.0-6.0-199.0","7","[""img/0901/b123d109-47b4-4f9a-80c9-9bb16da42efa.jpg"",""img/0901/71e551a2-9ce2-409c-9c7c-dd556a0791e9.jpg""]","",""
"","5632","similarity","206","1637506","0.0-6.0-200.0","4","[""img/0894/792c83e9-a747-4000-bc72-5663d2439edb.jpg"",""img/0860/5383b320-1518-4095-a58e-5cc1ae30b64c.jpg""]","",""
"","5341","similarity","207","1643883","0.0-6.0-201.0","7","[""img/0898/993d8f2d-bef7-4251-a193-0f93a32b7763.jpg"",""img/0903/8f7f9939-b8e6-433f-93dd-b362496c80a7.jpg""]","",""
"","8424","similarity","208","1653346","0.0-6.0-202.0","1","[""img/0864/4bd81bc6-c13d-46df-95a9-485886dc7c1b.jpg"",""img/0894/2d2db7b3-e8a3-499b-b63a-14f51bf73882.jpg""]","",""
"","6231","similarity","209","1660602","0.0-6.0-203.0","2","[""img/0874/eba003b4-cdab-4eee-8bc3-f064c7d94165.jpg"",""img/0860/8a92e21b-6a32-4e4a-a445-2d5a487ed0a4.jpg""]","",""
"","5491","similarity","210","1667130","0.0-6.0-204.0","6","[""img/0862/57b6f83f-c763-4858-830d-102f97bfefbf.jpg"",""img/0875/dbdd643e-6d0e-4a5c-ab57-b9c29b9c981a.jpg""]","",""
"","6738","similarity","211","1674879","0.0-6.0-205.0","1","[""img/0867/85a96c62-548f-4994-9553-819e03c3135a.jpg"",""img/0881/f62bdcd1-a4b7-4d48-83da-d9c9e01c8727.jpg""]","",""
"","4971","similarity","212","1680874","0.0-6.0-206.0","5","[""img/0901/d6d15b1c-4a30-4f74-a3fd-d4c8ee4169ca.jpg"",""img/0902/d1083f2c-5520-44ec-81a8-3f856fbf0e80.jpg""]","",""
"","4858","similarity","213","1686746","0.0-6.0-207.0","7","[""img/0899/93494f3b-d539-4075-b027-d82e344563da.jpg"",""img/0864/f92649a2-0590-4d31-9a7a-1bfb81666a2d.jpg""]","",""
"","4433","similarity","214","1692210","0.0-6.0-208.0","1","[""img/0901/0f670aef-ac36-496d-8142-ee5fdb21dd82.jpg"",""img/0769/f229321f-04dd-42d7-b14a-ffad6b509862.jpg""]","",""
"","5793","similarity","215","1709177","0.0-6.0-209.0","7","[""img/0902/cdec1bc6-7f90-4f72-9e01-f5a4111bac1d.jpg"",""img/0902/168ebd47-9e82-4ab7-a18b-c3da85072db8.jpg""]","",""
"[{""page_index"":0,""viewing_time"":8764}]","8764","instructions","216","1718961","0.0-7.0","","","",""
"","64932","image-multi-choice","217","1784968","0.0-8.0-0.0","","","{""Q0"":""Orange-crowned Warbler""}","Nashville Warbler"
"","13026","image-multi-choice","218","1799043","0.0-8.0-1.0","","","{""Q0"":""Black-and-white Warbler""}","Black-and-white Warbler"
"","42424","image-multi-choice","219","1842523","0.0-8.0-2.0","","","{""Q0"":""Townsend's Warbler""}","Townsend's Warbler"
"","9268","image-multi-choice","220","1852842","0.0-8.0-3.0","","","{""Q0"":""Lark Sparrow""}","Lark Sparrow"
"","65744","image-multi-choice","221","1919658","0.0-8.0-4.0","","","{""Q0"":""Yellow Warbler""}","Yellow Warbler"
"","30281","image-multi-choice","222","1951001","0.0-8.0-5.0","","","{""Q0"":""Tennessee Warbler""}","Orange-crowned Warbler"
"","5996","image-multi-choice","223","1958049","0.0-8.0-6.0","","","{""Q0"":""White-throated Sparrow""}","White-throated Sparrow"
"","4857","image-multi-choice","224","1963962","0.0-8.0-7.0","","","{""Q0"":""Fox Sparrow""}","Fox Sparrow"
"","11650","image-multi-choice","225","1976681","0.0-8.0-8.0","","","{""Q0"":""Swamp Sparrow""}","Song Sparrow"
"","8927","image-multi-choice","226","1986657","0.0-8.0-9.0","","","{""Q0"":""Blackburnian Warbler""}","Blackburnian Warbler"
"","8605","image-multi-choice","227","1996313","0.0-8.0-10.0","","","{""Q0"":""Vesper Sparrow""}","Vesper Sparrow"
"","4906","image-multi-choice","228","2002281","0.0-8.0-11.0","","","{""Q0"":""White-crowned Sparrow""}","White-crowned Sparrow"
"","36492","image-multi-choice","229","2039849","0.0-8.0-12.0","","","{""Q0"":""Lincoln's Sparrow""}","American Tree Sparrow"
"","37920","image-multi-choice","230","2078825","0.0-8.0-13.0","","","{""Q0"":""Nashville Warbler""}","Tennessee Warbler"
"","9848","image-multi-choice","231","2089737","0.0-8.0-14.0","","","{""Q0"":""Magnolia Warbler""}","Magnolia Warbler"
"","93862","image-multi-choice","232","2184657","0.0-8.0-15.0","","","{""Q0"":""Ovenbird""}","Northern Waterthrush"
"","54068","image-multi-choice","233","2239784","0.0-8.0-16.0","","","{""Q0"":""Chipping Sparrow""}","Chipping Sparrow"
"","9071","image-multi-choice","234","2249927","0.0-8.0-17.0","","","{""Q0"":""Swamp Sparrow""}","Swamp Sparrow"
"","8381","image-multi-choice","235","2259368","0.0-8.0-18.0","","","{""Q0"":""Lincoln's Sparrow""}","Lincoln's Sparrow"
"","7862","image-multi-choice","236","2268297","0.0-8.0-19.0","","","{""Q0"":""Ovenbird""}","Ovenbird"
