"view_history","rt","trial_type","trial_index","time_elapsed","internal_node_id","sim_score","stimulus","responses","answer"
"[{""page_index"":0,""viewing_time"":18816}]","18818","instructions","0","18819","0.0-0.0","","","",""
"","10363","similarity_demo","1","30194","0.0-1.0","5","[""img/866.jpg"",""img/868.jpg""]","",""
"[{""page_index"":0,""viewing_time"":9837}]","9837","instructions","2","41031","0.0-2.0","","","",""
"","4700","similarity_demo","3","46736","0.0-3.0","2","[""img/766.jpg"",""img/867.jpg""]","",""
"[{""page_index"":0,""viewing_time"":4214}]","4214","instructions","4","51951","0.0-4.0","","","",""
"[{""page_index"":0,""viewing_time"":34774}]","34776","instructions","5","87729","0.0-5.0","","","",""
"","5148","similarity","6","93889","0.0-6.0-0.0","5","[""img/0868/77091fc7-a590-4ebb-b915-fdb2483a2399.jpg"",""img/0901/168eb52c-c415-43f1-b5c8-e76e1a1ec247.jpg""]","",""
"","5633","similarity","7","100529","0.0-6.0-1.0","4","[""img/0769/8c7cf147-1780-4d5c-8ddf-5ea23ff03ac9.jpg"",""img/0867/db7e032f-162b-46f5-ae67-2b29679adee4.jpg""]","",""
"","4490","similarity","8","106025","0.0-6.0-2.0","6","[""img/0766/fd74fdbb-ea40-4f3a-a091-38d08dfd636e.jpg"",""img/0898/04e39a7a-fcf6-4156-ab0e-f5871f335e1c.jpg""]","",""
"","4738","similarity","9","111768","0.0-6.0-3.0","5","[""img/0902/07437a16-3d0f-4a5c-89ec-36d0efa4b3b8.jpg"",""img/0881/292e9b4b-fca0-4ba8-87f1-4048f9e37b7d.jpg""]","",""
"","5064","similarity","10","117840","0.0-6.0-4.0","6","[""img/0894/792c83e9-a747-4000-bc72-5663d2439edb.jpg"",""img/0894/133a1636-d123-4893-873c-1718050f832a.jpg""]","",""
"","6306","similarity","11","125152","0.0-6.0-5.0","6","[""img/0874/1016b306-087c-4afc-aa08-fa527b28dc76.jpg"",""img/0899/a048912c-b12c-40e3-90af-46b69b0cc4fe.jpg""]","",""
"","4827","similarity","12","130984","0.0-6.0-6.0","3","[""img/0904/0d25eb24-bb20-4e8d-9787-8b489558b4cb.jpg"",""img/0764/d0bef2e0-e16b-4c82-9451-c1d16265eb67.jpg""]","",""
"","5842","similarity","13","137832","0.0-6.0-7.0","5","[""img/0899/ad8268c5-8199-48d0-ad70-c5b6d6c599ec.jpg"",""img/0898/68476bbb-34a1-42d9-8bc1-deab783d4489.jpg""]","",""
"","4657","similarity","14","143501","0.0-6.0-8.0","3","[""img/0874/a3bc679d-619f-4db6-bb68-116dcb757d9c.jpg"",""img/0903/5ea5bbe0-f238-4724-abe7-9ed8dee8c0ba.jpg""]","",""
"","6377","similarity","15","150889","0.0-6.0-9.0","6","[""img/0881/ee44e27f-d662-4608-b265-e7ffa19b216f.jpg"",""img/0758/dd559618-7f09-4a07-8018-d311c4a5ea29.jpg""]","",""
"","4147","similarity","16","156042","0.0-6.0-10.0","3","[""img/0898/40f99fb2-64d2-4e72-8a7f-a1cf60741e69.jpg"",""img/0901/148b747a-7392-437e-8823-33053c5dff3f.jpg""]","",""
"","4799","similarity","17","161848","0.0-6.0-11.0","2","[""img/0903/b7e3723f-fd03-4f3d-8820-f19496463a34.jpg"",""img/0769/35f2dd39-40aa-498e-b401-9f1ef2622d00.jpg""]","",""
"","4761","similarity","18","167615","0.0-6.0-12.0","1","[""img/0764/d7f3ac54-318a-4dac-a06b-62bed34d01a4.jpg"",""img/0868/0d3abd3a-b6c3-4584-a9f7-e2da63748b3d.jpg""]","",""
"","4196","similarity","19","172816","0.0-6.0-13.0","4","[""img/0867/98d8cd96-1476-4fe0-a3a3-04f875500a1b.jpg"",""img/0903/4cbdc464-e562-4ec2-9bb6-15f894fdf528.jpg""]","",""
"","5523","similarity","20","179344","0.0-6.0-14.0","5","[""img/0766/a1ed3f0f-e338-4a26-8fe4-4370f0c9fa6e.jpg"",""img/0758/3ddd05d3-557e-4ee7-8b78-9d2d681d8ae2.jpg""]","",""
"","4754","similarity","21","185104","0.0-6.0-15.0","3","[""img/0902/a323b62d-2fd5-4ac8-acc6-35b768f3c3f2.jpg"",""img/0860/4c530c3c-6aab-492a-94d1-9c01797bde40.jpg""]","",""
"","5992","similarity","22","192103","0.0-6.0-16.0","6","[""img/0769/c7cfacc3-7f07-46ff-9f5d-8073f4c4679b.jpg"",""img/0875/d59ff733-eaff-4ee2-9443-06954dd0bcb6.jpg""]","",""
"","4572","similarity","23","197694","0.0-6.0-17.0","1","[""img/0904/6291eb43-c10c-4810-a36a-101d09868b04.jpg"",""img/0866/386235d2-6857-41e7-88a8-25cfc3430025.jpg""]","",""
"","4619","similarity","24","203320","0.0-6.0-18.0","6","[""img/0875/99698b4d-b4a1-44bc-8c83-8ea755bbbf61.jpg"",""img/0875/5a1e5100-0d94-4fec-bbe9-ca9894d2cf8e.jpg""]","",""
"","5362","similarity","25","209687","0.0-6.0-19.0","7","[""img/0758/f61ecdf8-a7d4-4db0-b84d-be46f7cfaffc.jpg"",""img/0758/e38fd80d-18d0-42f3-b848-f930788e8bd7.jpg""]","",""
"","4087","similarity","26","214783","0.0-6.0-20.0","3","[""img/0902/7499db23-3a41-41ea-ab5b-6ab4d4c3ed35.jpg"",""img/0874/995f0332-0439-4eb4-add3-957335dbf6d9.jpg""]","",""
"","4531","similarity","27","220319","0.0-6.0-21.0","5","[""img/0764/1f95ab5f-fb65-4d70-b5db-d6bd6351a8aa.jpg"",""img/0769/82ab9db6-4578-4e79-874f-f09100439f09.jpg""]","",""
"","5995","similarity","28","227322","0.0-6.0-22.0","5","[""img/0901/deff6cfb-0072-4490-bc3e-206bbcd3e8bf.jpg"",""img/0874/bf14b896-e930-4fd9-9c05-2e83317a2773.jpg""]","",""
"","4715","similarity","29","233042","0.0-6.0-23.0","2","[""img/0875/dbdd643e-6d0e-4a5c-ab57-b9c29b9c981a.jpg"",""img/0903/776b74ee-a8ab-4ab8-a78d-097c0747538d.jpg""]","",""
"","5743","similarity","30","239791","0.0-6.0-24.0","5","[""img/0769/3adfa417-3b90-4aab-b437-5eaa474189cb.jpg"",""img/0881/609a5e93-38b5-4940-8627-2bf8fad7f802.jpg""]","",""
"","5147","similarity","31","245943","0.0-6.0-25.0","3","[""img/0867/de92135f-5b65-4ed9-b245-188292c7c2f8.jpg"",""img/0904/b7c2a2c8-df33-4473-b3d4-ff7147c60db3.jpg""]","",""
"","5667","similarity","32","252615","0.0-6.0-26.0","5","[""img/0860/61fb959d-d4d9-4de4-9e4e-4fa62b4cfcd5.jpg"",""img/0881/14236cf2-6b95-48b8-9368-78af09d2d27f.jpg""]","",""
"","5052","similarity","33","258671","0.0-6.0-27.0","7","[""img/0866/620cd1aa-0800-4414-8f6e-90342e7a99ad.jpg"",""img/0866/23a224f3-2012-4fc8-8e0f-3c36f8de27fd.jpg""]","",""
"","4593","similarity","34","264271","0.0-6.0-28.0","5","[""img/0764/978aede9-4590-4ad0-b234-135c83e5d669.jpg"",""img/0862/de9ad88c-b522-430a-8ee9-eb06a9f85df5.jpg""]","",""
"","4738","similarity","35","270015","0.0-6.0-29.0","2","[""img/0904/a8c3c7d2-9bcf-4347-9e03-8203adfc1fc5.jpg"",""img/0758/6cd8c362-ae2a-41eb-80a3-3a4f7ace1530.jpg""]","",""
"","4643","similarity","36","275662","0.0-6.0-30.0","5","[""img/0894/e6385e52-6c35-43bd-b0af-bc803d107b11.jpg"",""img/0899/0e1d936a-dbe2-4afc-9f19-7b7a1ae6c9ed.jpg""]","",""
"","3643","similarity","37","280310","0.0-6.0-31.0","2","[""img/0860/5383b320-1518-4095-a58e-5cc1ae30b64c.jpg"",""img/0904/da170c1b-9651-4f08-b231-2bdd1d9a046f.jpg""]","",""
"","3189","similarity","38","284502","0.0-6.0-32.0","5","[""img/0874/29830da7-be5f-44e5-b141-652a0ccf7269.jpg"",""img/0881/405484ae-0d00-4b05-bc57-6420a36adfac.jpg""]","",""
"","4532","similarity","39","290041","0.0-6.0-33.0","5","[""img/0881/4bd34581-94d8-4e88-8c89-5cef864ca3be.jpg"",""img/0899/1b3457ea-87d4-4946-a01c-aac1863ed46c.jpg""]","",""
"","4617","similarity","40","295662","0.0-6.0-34.0","6","[""img/0866/07c9c966-3c8d-40e7-8128-92b2acbaed5d.jpg"",""img/0862/e8cc3bdf-cc43-4565-bccf-492626c70953.jpg""]","",""
"","4630","similarity","41","301294","0.0-6.0-35.0","6","[""img/0868/179a5502-ab5c-478e-8263-5a1fbcc101d2.jpg"",""img/0894/6b2e9509-8699-42b7-9582-7741df0ba2d7.jpg""]","",""
"","6036","similarity","42","308337","0.0-6.0-36.0","6","[""img/0860/15b24a61-25be-4356-9eac-5ce95d0cb4a4.jpg"",""img/0860/17b44a7d-c5ca-479f-9e87-f65a64f5c80e.jpg""]","",""
"","5026","similarity","43","314367","0.0-6.0-37.0","6","[""img/0862/f23038d4-c366-4f70-979f-66b62362efa4.jpg"",""img/0864/e02eddb5-f468-499c-91bf-f7be3ffe979b.jpg""]","",""
"","4532","similarity","44","319902","0.0-6.0-38.0","1","[""img/0766/110832e5-2646-4bd0-a94e-5df8cc314269.jpg"",""img/0866/4a87911a-d5be-4d4e-ab8e-3d1f581bf507.jpg""]","",""
"","7035","similarity","45","327941","0.0-6.0-39.0","5","[""img/0875/90da8d75-108a-44ad-b999-e21fee3860d3.jpg"",""img/0898/08c72dac-f8ad-407a-9ce6-8c9a5d679c3a.jpg""]","",""
"","5556","similarity","46","334502","0.0-6.0-40.0","2","[""img/0766/ae0fce93-fe8d-4aa1-87ca-4c3e4b889f2f.jpg"",""img/0769/b664b502-a86c-46c1-ad6f-5ebffc2e1bd3.jpg""]","",""
"","5996","similarity","47","359021","0.0-6.0-41.0","5","[""img/0874/767f289c-9814-4496-803f-745cc8913d1f.jpg"",""img/0764/6fbd1902-fa2a-48d8-bc11-705b8ab68d8f.jpg""]","",""
"","4338","similarity","48","364367","0.0-6.0-42.0","2","[""img/0868/fd307a36-9a3a-47d7-ab7c-f810d0b35040.jpg"",""img/0902/82d20e8c-2162-47a6-925b-52906558c046.jpg""]","",""
"","3394","similarity","49","368766","0.0-6.0-43.0","1","[""img/0875/a4935837-7d3c-4df6-88c1-36a94d4991ca.jpg"",""img/0899/f95cbdb4-f804-4f5d-ad76-373ad343e658.jpg""]","",""
"","4874","similarity","50","374646","0.0-6.0-44.0","1","[""img/0866/02f5e6b9-52b7-448c-9708-5b460d0c9a23.jpg"",""img/0860/524b2e98-5767-4d53-942c-ebae6925659b.jpg""]","",""
"","6187","similarity","51","381838","0.0-6.0-45.0","6","[""img/0766/c23b5a20-e50f-4d85-841f-cf89212a4348.jpg"",""img/0903/24477210-856c-4550-9de0-9f85a32762eb.jpg""]","",""
"","3427","similarity","52","386270","0.0-6.0-46.0","5","[""img/0901/5b97abf9-f0c8-4fd1-b921-36d574779078.jpg"",""img/0904/96e503ea-6630-4996-85f2-0237688ce441.jpg""]","",""
"","5060","similarity","53","392334","0.0-6.0-47.0","5","[""img/0758/9fb5b2fe-3f00-4fe6-973c-1ce10d5f4cd5.jpg"",""img/0902/97022122-01e4-46c3-a34f-c6260ad28428.jpg""]","",""
"","4563","similarity","54","397902","0.0-6.0-48.0","7","[""img/0764/ba0c0955-acbb-457d-b1c2-f006b88121d5.jpg"",""img/0764/6ef77040-1fae-4afa-bfe7-eda98e6d0376.jpg""]","",""
"","4307","similarity","55","403213","0.0-6.0-49.0","1","[""img/0866/a04d37f0-99dd-478a-b6c6-58b215138f84.jpg"",""img/0902/af45fe42-178c-4c1a-99ef-256e87e3b092.jpg""]","",""
"","4083","similarity","56","408301","0.0-6.0-50.0","4","[""img/0764/e42c1dc9-7831-4995-be19-7ca7b4d141fc.jpg"",""img/0758/b76ceca7-95ac-46e4-ac13-da02c8e93be9.jpg""]","",""
"","5252","similarity","57","414557","0.0-6.0-51.0","4","[""img/0898/cd3aaa3f-efa9-4ab3-8d6f-a6a9273ddf42.jpg"",""img/0894/38f5931f-926d-414e-b498-66b188978b7a.jpg""]","",""
"","5012","similarity","58","420574","0.0-6.0-52.0","6","[""img/0875/5a716432-c6ca-4b1c-955a-2b8ac25198ee.jpg"",""img/0866/be24ab58-230e-4db8-9f45-ff04c9aec6bb.jpg""]","",""
"","4436","similarity","59","426014","0.0-6.0-53.0","3","[""img/0904/4d7d70a3-9477-4921-bda0-f9531d0a5c5b.jpg"",""img/0904/fe746a3f-8458-48d0-8a13-8cba2a9df9f8.jpg""]","",""
"","5172","similarity","60","432189","0.0-6.0-54.0","4","[""img/0769/6c0bac4c-5f59-43c7-898c-3ca93cf55cfe.jpg"",""img/0769/96556ef3-7fac-4c9d-8281-1cb0ea5081bc.jpg""]","",""
"","4324","similarity","61","437517","0.0-6.0-55.0","1","[""img/0898/5f699581-3853-4547-856c-12f419ba5af7.jpg"",""img/0758/61d64021-9214-4951-bdf8-f871f9827cf9.jpg""]","",""
"","5669","similarity","62","444191","0.0-6.0-56.0","5","[""img/0769/48a1144d-fbda-4809-991b-fc8424a32ee4.jpg"",""img/0902/27b84584-948a-485b-8749-cb09929ef631.jpg""]","",""
"","5250","similarity","63","450448","0.0-6.0-57.0","5","[""img/0864/3651d070-2fc5-4848-b6a6-088a2d9ac5c9.jpg"",""img/0881/1407b85b-a1c6-45b1-9884-3b24203efadb.jpg""]","",""
"","5062","similarity","64","456520","0.0-6.0-58.0","4","[""img/0758/d540bee6-b460-4c32-ac57-bc282742d7d4.jpg"",""img/0868/1a62b2b2-18f5-466e-b564-5176a57c565e.jpg""]","",""
"","5006","similarity","65","462536","0.0-6.0-59.0","5","[""img/0862/d0ca4c78-fc35-46ed-bdcc-8e124283c53e.jpg"",""img/0769/662ab839-88d1-4ebf-af05-9b2980cad943.jpg""]","",""
"","5837","similarity","66","469382","0.0-6.0-60.0","3","[""img/0764/b8e23f4f-ff19-4472-ad9b-2f85548ebca0.jpg"",""img/0903/8635cf25-2648-4fe9-8c42-79d2598e999c.jpg""]","",""
"","4658","similarity","67","475046","0.0-6.0-61.0","7","[""img/0899/66ab3178-c3fe-4455-ad17-d5952b08e018.jpg"",""img/0899/93494f3b-d539-4075-b027-d82e344563da.jpg""]","",""
"","5483","similarity","68","481535","0.0-6.0-62.0","3","[""img/0860/87039971-2210-4aab-93c0-8e9b5f1655b2.jpg"",""img/0875/42910c99-5463-450a-a0f8-d4d060a11455.jpg""]","",""
"","4273","similarity","69","486813","0.0-6.0-63.0","5","[""img/0868/c8ac40c7-6904-4e13-8d61-c75d3052dc4e.jpg"",""img/0874/ca76a855-4e77-4f2f-872a-0a718153e7ed.jpg""]","",""
"","5602","similarity","70","493422","0.0-6.0-64.0","6","[""img/0758/d57c2592-a317-4f63-91be-91a3a9afd222.jpg"",""img/0862/1c20f772-3a51-4a80-aac0-f57dc9f86c28.jpg""]","",""
"","5556","similarity","71","499982","0.0-6.0-65.0","3","[""img/0904/e9423a8c-f946-43ad-ab7b-931acef870e2.jpg"",""img/0898/79233891-305a-4a6a-8ddf-5c8604858203.jpg""]","",""
"","6370","similarity","72","507358","0.0-6.0-66.0","4","[""img/0881/d1982897-8d8d-4704-a940-1ee5d07a1f15.jpg"",""img/0866/9b38d691-1802-4959-ab3f-fc902f0e4ea6.jpg""]","",""
"","4602","similarity","73","512966","0.0-6.0-67.0","3","[""img/0867/f26f6b60-f772-4f4c-95a4-addc62cfd692.jpg"",""img/0898/993d8f2d-bef7-4251-a193-0f93a32b7763.jpg""]","",""
"","5673","similarity","74","519662","0.0-6.0-68.0","4","[""img/0902/04a6ad4a-afc6-4871-8225-56b299af7b6b.jpg"",""img/0764/55b3fab1-b809-4d38-a461-3f40ce062f52.jpg""]","",""
"","6254","similarity","75","526929","0.0-6.0-69.0","4","[""img/0875/527ced51-8e53-4aab-ab05-86df219104c0.jpg"",""img/0867/f8159067-056c-41f1-a136-c529fe5e970a.jpg""]","",""
"","6068","similarity","76","534007","0.0-6.0-70.0","4","[""img/0766/a0270213-fa0e-4972-8b56-228c3e01ff90.jpg"",""img/0764/a86eed5b-d0af-4c3f-8c7a-26e98e98cf1a.jpg""]","",""
"","5152","similarity","77","540166","0.0-6.0-71.0","5","[""img/0894/492d2f29-d7b9-4422-8be8-47fd58bfaa8b.jpg"",""img/0867/aa05d113-fc19-4756-a8eb-7878f580bc92.jpg""]","",""
"","4242","similarity","78","545413","0.0-6.0-72.0","3","[""img/0875/e7e66b13-b573-431e-b85e-288ce04a35a3.jpg"",""img/0764/b328441c-f81c-486c-9eae-b947c70ba7cd.jpg""]","",""
"","6954","similarity","79","553373","0.0-6.0-73.0","6","[""img/0867/12264664-1860-46df-8c21-162b9817cdda.jpg"",""img/0866/945c6710-d15b-4a5b-a8f6-69af0850357f.jpg""]","",""
"","5976","similarity","80","560358","0.0-6.0-74.0","2","[""img/0903/a0673b55-6040-47fe-9040-24bca27ca3c9.jpg"",""img/0758/2fa3e613-e676-4e6e-bd12-705327eeb3e1.jpg""]","",""
"","5649","similarity","81","567013","0.0-6.0-75.0","1","[""img/0766/dd3e18d0-0c98-4d05-b850-69976ee8cd75.jpg"",""img/0868/3a62db2d-97e9-44a3-b8e3-a48c6f0e423b.jpg""]","",""
"","5635","similarity","82","573653","0.0-6.0-76.0","7","[""img/0874/adf9a8f1-c40b-402b-b95b-1e85a54a7b62.jpg"",""img/0766/aaec5f42-7f0a-4a16-aeca-488d757acbcc.jpg""]","",""
"","3938","similarity","83","578598","0.0-6.0-77.0","1","[""img/0881/5fe04dd0-5c74-47b7-99c8-b068db9ca26a.jpg"",""img/0868/d6d1f30d-4323-435a-b194-7892521bc57e.jpg""]","",""
"","4201","similarity","84","583820","0.0-6.0-78.0","1","[""img/0758/53f35650-e455-4b53-8be4-c3c8271c6466.jpg"",""img/0901/50e1d53e-a49f-4806-8610-be6dec5a2475.jpg""]","",""
"","5380","similarity","85","590205","0.0-6.0-79.0","5","[""img/0881/f4e3e181-b3c9-4af2-a5a4-fc135ab70d2e.jpg"",""img/0898/6cd3830b-d44e-4915-be2b-88d31424b91c.jpg""]","",""
"","3641","similarity","86","594853","0.0-6.0-80.0","3","[""img/0867/c66898ba-b71b-4d50-84f9-f7f84853a98d.jpg"",""img/0758/7fba58df-2a7a-4b76-8a8f-62739f97f271.jpg""]","",""
"","4108","similarity","87","599964","0.0-6.0-81.0","7","[""img/0769/bb8c4e53-6f32-4814-97ee-392d4decfb2e.jpg"",""img/0899/0adc0bc3-6fca-4078-be6f-d45ddf1653d5.jpg""]","",""
"","5995","similarity","88","606964","0.0-6.0-82.0","5","[""img/0903/3e9ee8a5-eb66-47f5-8973-8a5af1ddc87e.jpg"",""img/0903/470acfd5-5571-4a7b-b3a4-28d87e098138.jpg""]","",""
"","5244","similarity","89","625452","0.0-6.0-83.0","2","[""img/0867/1719a35d-f085-48c0-9099-16c94fe418b4.jpg"",""img/0766/214866ee-423d-4629-9bb9-41572bdc7dac.jpg""]","",""
"","4524","similarity","90","630981","0.0-6.0-84.0","6","[""img/0902/71c03003-03ef-4b0f-8229-e0c857150a5d.jpg"",""img/0867/7d1c497b-c1b3-4ed8-abb5-d7f73306015f.jpg""]","",""
"","5555","similarity","91","637540","0.0-6.0-85.0","6","[""img/0901/33b51a81-06d9-46d9-9d4f-5a2d6d6b8058.jpg"",""img/0875/ebf7653f-ff45-4e9f-af58-2c042ab3cd2b.jpg""]","",""
"","3979","similarity","92","642524","0.0-6.0-86.0","1","[""img/0764/56441045-b648-4ede-9632-3e9c0227080b.jpg"",""img/0866/8efcaa46-83ab-4dee-a35f-850402aa21ae.jpg""]","",""
"","4179","similarity","93","647708","0.0-6.0-87.0","2","[""img/0901/0adb3bd6-d758-4ba7-9723-3ad6cac05bd5.jpg"",""img/0894/10f22b96-040c-44f4-950b-a4963f3f506c.jpg""]","",""
"","3713","similarity","94","652429","0.0-6.0-88.0","6","[""img/0898/8605a25b-6895-476d-8c13-df7a83f96093.jpg"",""img/0769/a1ce8d07-ba37-40de-bade-2778805521e0.jpg""]","",""
"","5297","similarity","95","658733","0.0-6.0-89.0","6","[""img/0769/f2740c58-7c02-433f-920b-746b0b75435b.jpg"",""img/0894/767a0eec-1064-46b1-b1aa-dfa02b0cd74e.jpg""]","",""
"","3482","similarity","96","663220","0.0-6.0-90.0","7","[""img/0862/fb26cb07-d5a9-4653-813c-f41609f26cd5.jpg"",""img/0874/93d1f8dc-acf2-4f03-bd8d-8ec35df276ed.jpg""]","",""
"","4557","similarity","97","668780","0.0-6.0-91.0","6","[""img/0894/a3d4170b-b7d8-40e3-955f-87e76ed745fc.jpg"",""img/0766/ba35c0fc-4d5b-490d-959e-c94b279cdd02.jpg""]","",""
"","7155","similarity","98","676940","0.0-6.0-92.0","4","[""img/0874/31e22c7c-99aa-40b1-bf03-dd73fa2df4d6.jpg"",""img/0867/50a1b60e-3a29-44bf-b606-d4bd3746fea9.jpg""]","",""
"","4092","similarity","99","682038","0.0-6.0-93.0","1","[""img/0899/51a7a498-98c7-42d7-bca8-bc2d8f0b5831.jpg"",""img/0868/6a28c3b0-3d76-498a-9fb7-ddafc665eca8.jpg""]","",""
"","4553","similarity","100","687598","0.0-6.0-94.0","6","[""img/0903/8931c67c-a43d-47d3-a4c9-42aa2f81d344.jpg"",""img/0862/847e5208-38ec-4f36-949c-296cdd7424ee.jpg""]","",""
"","4577","similarity","101","693179","0.0-6.0-95.0","6","[""img/0899/d8f2dd94-570e-4e8c-a087-d96090fb9e8c.jpg"",""img/0766/db750ba0-ce04-46e1-b601-e1b80212bad2.jpg""]","",""
"","3580","similarity","102","697764","0.0-6.0-96.0","7","[""img/0867/2e1a0b58-cdb1-4107-a14e-452530d7b9b0.jpg"",""img/0868/15dd6fd7-791e-4b53-b203-195d617521a4.jpg""]","",""
"","4227","similarity","103","702999","0.0-6.0-97.0","4","[""img/0862/eefa5588-9efd-4591-aa5f-a2e17c7d7bcc.jpg"",""img/0901/b453df0b-4c39-49bb-8ced-6127efffa898.jpg""]","",""
"","3095","similarity","104","707100","0.0-6.0-98.0","2","[""img/0875/2c361b79-c3d1-4eda-812e-bf03192407bf.jpg"",""img/0766/af3be95e-e52e-4fae-899b-0ff02ec340aa.jpg""]","",""
"","3284","similarity","105","711388","0.0-6.0-99.0","7","[""img/0758/a085b443-b5d7-4cb2-9ad4-b9dab0fc23f1.jpg"",""img/0874/eba003b4-cdab-4eee-8bc3-f064c7d94165.jpg""]","",""
"","4451","similarity","106","716844","0.0-6.0-100.0","7","[""img/0904/9b3568cc-3cf7-42be-9df3-fdafde7a58b8.jpg"",""img/0868/d98ca254-b195-477f-b57e-5760a2717db8.jpg""]","",""
"","4018","similarity","107","721868","0.0-6.0-101.0","4","[""img/0903/5995f4a8-fa82-46f8-8760-fd7800a5ca34.jpg"",""img/0866/a15b02be-11bb-43e3-b0e0-ecc3bd7dfc49.jpg""]","",""
"","6940","similarity","108","729812","0.0-6.0-102.0","5","[""img/0868/293079b8-7e0c-4afd-a390-1e5d35fe3ded.jpg"",""img/0769/180213e5-1e50-4b4e-87b6-add77ba04d39.jpg""]","",""
"","4738","similarity","109","735555","0.0-6.0-103.0","6","[""img/0902/8065aa6b-4aef-4368-afa2-02c6465ca582.jpg"",""img/0899/ddf96ade-692e-4602-bd22-dedbb46401bc.jpg""]","",""
"","3997","similarity","110","740555","0.0-6.0-104.0","2","[""img/0868/7b212364-ff5f-4e28-9241-7eb6ea00161b.jpg"",""img/0862/e697469a-ec19-4414-b972-7b9f3564785b.jpg""]","",""
"","4597","similarity","111","746155","0.0-6.0-105.0","2","[""img/0903/f1fa0f8d-e62b-4b4a-a174-31a0fabfe61b.jpg"",""img/0894/bd34223a-2f66-4e16-9d18-193a746b69ff.jpg""]","",""
"","5260","similarity","112","752419","0.0-6.0-106.0","2","[""img/0864/afcba0a3-7e27-4757-b254-e9f05fad27e2.jpg"",""img/0874/85eb9b8a-c4c6-4e5a-b8e7-363a87a82054.jpg""]","",""
"","4612","similarity","113","758035","0.0-6.0-107.0","4","[""img/0862/57b6f83f-c763-4858-830d-102f97bfefbf.jpg"",""img/0902/e5a46bda-30d1-41ca-b36d-b8529b5a63d1.jpg""]","",""
"","3541","similarity","114","762580","0.0-6.0-108.0","7","[""img/0904/65e2b70a-b184-4da3-b5c0-5038bdf9469a.jpg"",""img/0903/07b445ee-0cdb-4d2c-a23b-d727613f4059.jpg""]","",""
"","4028","similarity","115","767611","0.0-6.0-109.0","4","[""img/0764/c0b03adb-bd0a-4b96-a915-a827c2fd5211.jpg"",""img/0864/ea327690-500b-4137-bf91-451b309fe6a5.jpg""]","",""
"","5525","similarity","116","774139","0.0-6.0-110.0","3","[""img/0866/f756f7d1-9ad8-4a34-9ef6-7a443d705bfe.jpg"",""img/0894/6aa5545f-fa7d-4286-bbaa-aaf34dc7ec96.jpg""]","",""
"","4644","similarity","117","779787","0.0-6.0-111.0","6","[""img/0899/66bf4113-ee12-426c-84d2-ea410b6c803e.jpg"",""img/0903/59defeb8-98bd-4570-a2f8-9bd189e68ef4.jpg""]","",""
"","3389","similarity","118","784179","0.0-6.0-112.0","4","[""img/0902/f3cfec34-482c-4bdb-9c92-19ea6cfce183.jpg"",""img/0904/9dd5708f-3f8b-46a9-b49f-2f2fab87b357.jpg""]","",""
"","4613","similarity","119","789795","0.0-6.0-113.0","7","[""img/0864/0116ca98-293d-4fa6-a93b-5a6144ef64cc.jpg"",""img/0860/9593362c-9fe5-4d12-9735-6000a11f6aa5.jpg""]","",""
"","5196","similarity","120","795995","0.0-6.0-114.0","2","[""img/0860/8fdba999-b946-4c7d-9891-336018b563ef.jpg"",""img/0899/06b0fc99-0581-461a-9913-d1a5a941ac61.jpg""]","",""
"","4485","similarity","121","801483","0.0-6.0-115.0","4","[""img/0881/e6746727-7f89-47ec-b939-d98abe78372d.jpg"",""img/0903/aa842abe-6fa3-448a-bf71-88d3ad28663b.jpg""]","",""
"","4100","similarity","122","806587","0.0-6.0-116.0","2","[""img/0894/0130a973-d993-41f8-874a-fee23d9ac11f.jpg"",""img/0874/3ce41e7c-40c8-4d58-a546-171114521796.jpg""]","",""
"","3940","similarity","123","811530","0.0-6.0-117.0","5","[""img/0881/84397291-bc14-4fbf-90e8-241e486ab0fe.jpg"",""img/0862/ee3b7bff-4a70-4e84-9bea-4a565e456acb.jpg""]","",""
"","3388","similarity","124","815923","0.0-6.0-118.0","7","[""img/0868/09a9ef4d-d000-4cfa-a6aa-ebec7c2edeb4.jpg"",""img/0875/2e13d160-eea1-416b-aff1-d37ab99ecc1d.jpg""]","",""
"","5243","similarity","125","822171","0.0-6.0-119.0","6","[""img/0860/c5ccd1a4-4bb7-48e1-9b25-72cfaf06909b.jpg"",""img/0758/20497cbe-ddae-489e-86e2-ab06985ed07c.jpg""]","",""
"","4141","similarity","126","827315","0.0-6.0-120.0","1","[""img/0864/f92649a2-0590-4d31-9a7a-1bfb81666a2d.jpg"",""img/0875/f87b67d7-c33e-40d1-b281-248c4be1cb6e.jpg""]","",""
"","4755","similarity","127","833075","0.0-6.0-121.0","3","[""img/0898/661621d4-a14e-487c-8c74-354134a29710.jpg"",""img/0866/11a1d141-be5e-443c-98c1-a9d4d9e3dec0.jpg""]","",""
"","4580","similarity","128","838658","0.0-6.0-122.0","4","[""img/0874/a82926a3-0b43-4add-803c-d5f9ea7798ee.jpg"",""img/0904/1d10df11-b5c8-4370-9a6b-097a7f965895.jpg""]","",""
"","5420","similarity","129","845083","0.0-6.0-123.0","5","[""img/0904/60d1a521-edf7-4696-9263-f21ac0e62a01.jpg"",""img/0864/b3c4e378-28f0-4699-9338-2a257b4bca04.jpg""]","",""
"","4972","similarity","130","851058","0.0-6.0-124.0","3","[""img/0894/5c7677b0-a4f1-479e-b274-7822c415175a.jpg"",""img/0902/2a7ac123-414a-476a-9a96-4757b924baef.jpg""]","",""
"","4765","similarity","131","864281","0.0-6.0-125.0","7","[""img/0868/5fa7f9d0-f0e5-454c-8224-74d964818f56.jpg"",""img/0864/87c467d3-abca-482f-ad80-3766c21b1bb3.jpg""]","",""
"","3724","similarity","132","869010","0.0-6.0-126.0","2","[""img/0899/76ad07e2-ca25-45eb-84f2-8d80b8ca3e26.jpg"",""img/0866/0207e9a2-7dbb-40b5-9459-b472aaeceb2a.jpg""]","",""
"","2669","similarity","133","872682","0.0-6.0-127.0","1","[""img/0875/5a7c4e35-6514-4e12-8879-d16071da4cd6.jpg"",""img/0904/09934646-45d2-4147-8fec-64a22a5ac822.jpg""]","",""
"","3780","similarity","134","877466","0.0-6.0-128.0","3","[""img/0867/c71dc569-f49c-4397-8381-68b8d726736d.jpg"",""img/0899/7f9d45d0-b2c6-40d3-aa41-c207db2c411b.jpg""]","",""
"","3237","similarity","135","881707","0.0-6.0-129.0","7","[""img/0901/1ede21d9-384f-4150-86b5-e1c57b5dc1d4.jpg"",""img/0867/179ab87a-8eac-4c52-a41f-2e48e3120f09.jpg""]","",""
"","2924","similarity","136","885634","0.0-6.0-130.0","7","[""img/0864/6f631579-acf1-415c-a42c-1207f62a8d99.jpg"",""img/0769/e31b3bd8-efcb-413e-aa8c-75fac2b8f2ac.jpg""]","",""
"","3476","similarity","137","890115","0.0-6.0-131.0","3","[""img/0903/6a87dbad-9b8d-4ff5-9c41-03c9aa24f0c3.jpg"",""img/0868/4a8a45ed-2c4f-421b-9564-409a33ecd26c.jpg""]","",""
"","5116","similarity","138","896234","0.0-6.0-132.0","4","[""img/0864/9b2490c5-a282-400a-9736-e1a0ecbf1cb7.jpg"",""img/0867/075e0f95-856b-4cbb-acf5-092393aaf04e.jpg""]","",""
"","4348","similarity","139","901586","0.0-6.0-133.0","7","[""img/0901/4ca4f962-40c0-4c59-b14a-3cd7b8c9029b.jpg"",""img/0860/5bff793e-cbd5-4d7e-b628-0ac2b0e30b64.jpg""]","",""
"","3830","similarity","140","906419","0.0-6.0-134.0","1","[""img/0881/dea58fad-b4f1-41d9-bd3f-916eff19a3fd.jpg"",""img/0766/33519c22-aaa4-49d7-8d49-ab551db1945e.jpg""]","",""
"","4372","similarity","141","911794","0.0-6.0-135.0","1","[""img/0903/c3cb4a01-2797-43ca-b216-88c67b323fbb.jpg"",""img/0864/8ddd2e30-a1d0-479f-9cbe-591213023893.jpg""]","",""
"","3212","similarity","142","916010","0.0-6.0-136.0","5","[""img/0758/821c68d3-5cb0-4eae-8659-30e6263fca39.jpg"",""img/0894/86201968-6e78-4d68-9b3a-d1692e066210.jpg""]","",""
"","5109","similarity","143","922122","0.0-6.0-137.0","4","[""img/0769/458d9c77-b844-40b5-bb1b-1e3bbd4da64e.jpg"",""img/0860/fd4662f9-4c03-4d79-8593-06735e55a64b.jpg""]","",""
"","3909","similarity","144","927034","0.0-6.0-138.0","2","[""img/0904/0d17b811-063e-416e-a23c-3b3cfa4fcce5.jpg"",""img/0766/51d3aab4-3d09-4dda-b99d-3dc7aaabc6f2.jpg""]","",""
"","3604","similarity","145","931642","0.0-6.0-139.0","7","[""img/0868/8b0b8473-e2c0-4331-aa56-c3a5c29369da.jpg"",""img/0860/d9a0d117-6d1d-41c0-8fec-9aff0fd9e9f2.jpg""]","",""
"","4141","similarity","146","936786","0.0-6.0-140.0","5","[""img/0758/65d426d6-3ff6-415d-8654-a43b83ecc4fe.jpg"",""img/0864/4bd81bc6-c13d-46df-95a9-485886dc7c1b.jpg""]","",""
"","3477","similarity","147","941266","0.0-6.0-141.0","7","[""img/0867/8ba0c5a7-c7e4-42cf-a80a-543763b90779.jpg"",""img/0867/a498eef3-9fa4-4ab2-9778-4ae82ac40dc5.jpg""]","",""
"","3901","similarity","148","946170","0.0-6.0-142.0","7","[""img/0898/a8f16b02-e19f-423b-86c3-a36562ae1f9b.jpg"",""img/0898/4184e5a2-84ea-4f36-9b42-ae58646f6f87.jpg""]","",""
"","3085","similarity","149","950258","0.0-6.0-143.0","3","[""img/0866/c446214b-a368-4c65-ae39-ea46894256ab.jpg"",""img/0769/3c1efec9-f8fd-487d-8955-4be88e48c832.jpg""]","",""
"","3340","similarity","150","954602","0.0-6.0-144.0","2","[""img/0860/29a21a9f-54bb-4093-ad3f-04823ceaa89f.jpg"",""img/0898/c3cecf20-f7fd-45fa-97d0-dc0a63e8d6c0.jpg""]","",""
"","4404","similarity","151","960009","0.0-6.0-145.0","4","[""img/0766/989c5c7f-1aff-4442-ac63-9d46acf4a891.jpg"",""img/0864/5f33e097-23e3-4002-882d-76e8cb15f451.jpg""]","",""
"","4722","similarity","152","965737","0.0-6.0-146.0","6","[""img/0860/18dfed73-e36b-4487-a8bd-0b8cff8e3668.jpg"",""img/0903/647ce311-8c71-479a-8361-961db1457139.jpg""]","",""
"","3221","similarity","153","969962","0.0-6.0-147.0","7","[""img/0867/ac1797e4-8afc-48fe-b252-86d1defb1cca.jpg"",""img/0764/39a9fc7e-b863-432c-9374-de43983f31a5.jpg""]","",""
"","3021","similarity","154","973986","0.0-6.0-148.0","2","[""img/0769/91acb237-65a3-4d0b-9748-af5c7b83d3c7.jpg"",""img/0904/d23dd7be-7fe8-4435-82f7-bd592c01e6a1.jpg""]","",""
"","3564","similarity","155","978554","0.0-6.0-149.0","1","[""img/0764/f990b2e8-ecee-481e-be7c-0239fce350e2.jpg"",""img/0901/58ec7fa9-b466-4651-90aa-c082df0972de.jpg""]","",""
"","3788","similarity","156","983346","0.0-6.0-150.0","3","[""img/0904/56e73f28-7e64-489b-a161-e6b1a063878d.jpg"",""img/0899/8abe6c69-822c-436c-9bf2-96c818b49ba5.jpg""]","",""
"","3794","similarity","157","988146","0.0-6.0-151.0","6","[""img/0862/92fcd8a4-8193-4a6a-ae09-dd4a6338b0df.jpg"",""img/0867/cc72ed48-7704-422c-86d6-467a1145287a.jpg""]","",""
"","3501","similarity","158","992650","0.0-6.0-152.0","7","[""img/0766/79767d11-b612-4e8a-9e4b-a8ac95bb6a54.jpg"",""img/0766/fd064894-7147-4af5-97e9-2089d5472656.jpg""]","",""
"","5500","similarity","159","999153","0.0-6.0-153.0","4","[""img/0862/24cdc752-c2e5-4a17-86a6-6f2045d8553b.jpg"",""img/0894/e5edf723-72a5-4673-8441-6c1734a8929b.jpg""]","",""
"","3603","similarity","160","1003761","0.0-6.0-154.0","2","[""img/0899/b45c550b-96c3-4255-ad59-48a2b4db1c1e.jpg"",""img/0901/443f2e59-199b-4f7b-9de9-c44ad97326a5.jpg""]","",""
"","5741","similarity","161","1010513","0.0-6.0-155.0","4","[""img/0874/2c9464dd-8a23-4baa-ac94-1ba3af5c15cc.jpg"",""img/0874/8cdb1c07-1c32-46d2-981c-3636560fa6e5.jpg""]","",""
"","3908","similarity","162","1015425","0.0-6.0-156.0","1","[""img/0860/e8b8c51e-1834-4875-8b61-6c5bc9b178bd.jpg"",""img/0867/26611f4e-d694-4460-b7e2-43c62753ddc3.jpg""]","",""
"","5669","similarity","163","1022099","0.0-6.0-157.0","5","[""img/0901/548d1110-7cb8-42a2-9927-9798875c8b5c.jpg"",""img/0881/445edb15-bd7f-4af3-8bd5-c6ad9677bb31.jpg""]","",""
"","4707","similarity","164","1027809","0.0-6.0-158.0","6","[""img/0903/b4a0f61e-a964-4b79-a9a7-f767a8f92f34.jpg"",""img/0902/12452bb1-b8c0-4e4d-ad4d-47e279e5933c.jpg""]","",""
"","3925","similarity","165","1032737","0.0-6.0-159.0","4","[""img/0860/71e1aad0-2cdf-43bb-94a4-a8c016997c30.jpg"",""img/0764/ef0e64c6-d0dd-4dc6-87b6-ce5c0665f421.jpg""]","",""
"","4772","similarity","166","1038514","0.0-6.0-160.0","3","[""img/0902/7f1dcd35-237a-4995-9e42-7f63f3f434d4.jpg"",""img/0875/fb732ab5-013a-4366-9f65-27811ed157e9.jpg""]","",""
"","4596","similarity","167","1044113","0.0-6.0-161.0","3","[""img/0898/881e2a85-d5c2-49be-a0c6-8a6ce2c4af08.jpg"",""img/0862/ba89835a-408c-480b-8594-ed4ffa97eb5c.jpg""]","",""
"","4861","similarity","168","1049977","0.0-6.0-162.0","6","[""img/0894/5ff3c4f6-52e2-4075-8679-be0312e59703.jpg"",""img/0875/03c3c331-738b-4446-af92-3d7386b08c2e.jpg""]","",""
"","3398","similarity","169","1054385","0.0-6.0-163.0","7","[""img/0866/d266fece-59b3-46fa-b69f-96f6efb81b59.jpg"",""img/0864/efcfbb1b-8197-44c9-b723-40d6c608dd3c.jpg""]","",""
"","3957","similarity","170","1059345","0.0-6.0-164.0","7","[""img/0766/3c526a07-9e0a-4ae2-8142-00085f0127da.jpg"",""img/0862/47ed5efd-4ec9-4b74-bb4e-a5f5cf0c3e7d.jpg""]","",""
"","4403","similarity","171","1064757","0.0-6.0-165.0","6","[""img/0866/6f2a90d7-14f1-4f1b-bd64-fc0af6b9fe44.jpg"",""img/0874/c0378dac-9370-439a-8b79-db27c96fb390.jpg""]","",""
"","3796","similarity","172","1069606","0.0-6.0-166.0","3","[""img/0862/00c06b00-3b73-44e9-bc1e-c5aafb438321.jpg"",""img/0860/e14d67c1-6d92-4f1e-9257-c8607159c19c.jpg""]","",""
"","3748","similarity","173","1081658","0.0-6.0-167.0","1","[""img/0766/60033a74-9919-47e5-913c-71d0d483e7e5.jpg"",""img/0901/a6c90438-fa7c-4418-ac7c-16c2e772dd98.jpg""]","",""
"","3851","similarity","174","1086523","0.0-6.0-168.0","7","[""img/0862/7918ca67-5bd3-4606-a5ea-c39fb11a9297.jpg"",""img/0862/fad1d7c1-8187-43c3-942a-0fc12183e48e.jpg""]","",""
"","4312","similarity","175","1091842","0.0-6.0-169.0","6","[""img/0894/1a010553-d598-4b06-a772-81f1e7b3addb.jpg"",""img/0764/ca9829fe-aaf8-45b8-b98a-6bae751c63dd.jpg""]","",""
"","2965","similarity","176","1095813","0.0-6.0-170.0","6","[""img/0874/7e4f2150-3b59-4a36-b5da-a4e0ba410531.jpg"",""img/0898/a114b375-cb89-44ba-9498-74213f1ecdee.jpg""]","",""
"","4206","similarity","177","1101028","0.0-6.0-171.0","6","[""img/0860/31ff6436-98bf-4652-bed2-40f627229568.jpg"",""img/0766/2746b119-4bba-463e-acf0-88136dc6600c.jpg""]","",""
"","4030","similarity","178","1106066","0.0-6.0-172.0","3","[""img/0898/224c1572-56b9-4f16-a9e4-6f3bc9c114bd.jpg"",""img/0864/6e846d43-94a6-4b37-a268-65eda979f052.jpg""]","",""
"","6300","similarity","179","1113378","0.0-6.0-173.0","5","[""img/0881/e046471a-35b4-4159-bbf7-3cfd201bef66.jpg"",""img/0764/3297a811-ea8b-4d74-9547-59cecab7293a.jpg""]","",""
"","4579","similarity","180","1118961","0.0-6.0-174.0","1","[""img/0898/f3a3f225-1248-4ac7-b93b-f0ff28485bf3.jpg"",""img/0868/83b4350a-3b70-4cea-b7f5-b5b56f3050a8.jpg""]","",""
"","5563","similarity","181","1125531","0.0-6.0-175.0","7","[""img/0864/c22faebd-9c53-47bc-ada3-b9a30c688e75.jpg"",""img/0864/da39ad34-04e0-40d4-a724-c08d53e0ea09.jpg""]","",""
"","4352","similarity","182","1130904","0.0-6.0-176.0","2","[""img/0899/57476fed-5962-4272-8fc9-b317bb777b54.jpg"",""img/0862/53a9cf7c-93c4-41b9-952f-07d17f7a17b2.jpg""]","",""
"","6253","similarity","183","1138164","0.0-6.0-177.0","5","[""img/0875/34132396-d896-4c2d-8087-646dd867e769.jpg"",""img/0758/7ffbc76b-1fc1-432c-8f7e-9ec8d1b3f643.jpg""]","",""
"","3668","similarity","184","1142842","0.0-6.0-178.0","6","[""img/0866/d493a2c8-66eb-44b4-be02-2f327b700b7c.jpg"",""img/0901/31c032fd-3c3d-4882-a226-da9a80198937.jpg""]","",""
"","4089","similarity","185","1147938","0.0-6.0-179.0","7","[""img/0769/14d393ce-e5be-4ca1-86ce-cc27d4b6074c.jpg"",""img/0874/ca23d307-fc00-4d7d-9106-584c6eb21b4d.jpg""]","",""
"","9754","similarity","186","1158698","0.0-6.0-180.0","5","[""img/0875/cff79b3a-a797-4393-9757-6275f999ec04.jpg"",""img/0881/633c6f40-56d9-4b48-bf1c-ecd83116eabb.jpg""]","",""
"","4097","similarity","187","1163802","0.0-6.0-181.0","6","[""img/0866/bf14b5bd-fb55-47db-86b9-4f8aeb9a6dad.jpg"",""img/0868/4e626425-63c8-484a-8a1d-e66ee4e0bef8.jpg""]","",""
"","9869","similarity","188","1174682","0.0-6.0-182.0","4","[""img/0899/4f7bc593-8ddd-4da3-a0b9-84da730d3370.jpg"",""img/0758/a709631e-3705-4725-ac40-f0d916924f08.jpg""]","",""
"","4121","similarity","189","1179809","0.0-6.0-183.0","6","[""img/0874/3f471690-9788-4d03-90c7-f615aecef149.jpg"",""img/0875/3ecb367d-e9eb-4826-8aaa-7aa72fb98019.jpg""]","",""
"","5675","similarity","190","1186489","0.0-6.0-184.0","4","[""img/0904/73920552-103b-4c9c-9ece-e0b8376b4504.jpg"",""img/0862/92f0146c-20c4-482e-aef5-adb693790338.jpg""]","",""
"","4171","similarity","191","1191665","0.0-6.0-185.0","7","[""img/0902/1f4a4c62-68c1-4993-b213-05652a173ed1.jpg"",""img/0766/5d6e0d1d-4369-41f0-a64c-91f3503055c7.jpg""]","",""
"","3641","similarity","192","1196328","0.0-6.0-186.0","5","[""img/0758/e1ba5e53-addc-436a-b428-d34fc1b130dc.jpg"",""img/0769/04347740-f8f6-48bb-887a-f68babd0a0d4.jpg""]","",""
"","3408","similarity","193","1200742","0.0-6.0-187.0","2","[""img/0881/b1a136f7-8511-4d3a-a0f6-3879acf1e1a1.jpg"",""img/0881/667e2147-d457-4f32-aa5f-6ab86e5848f1.jpg""]","",""
"","3901","similarity","194","1205657","0.0-6.0-188.0","6","[""img/0758/7ee8bc8f-c40b-4b3a-84ec-3e83580622d4.jpg"",""img/0866/93a27239-8317-4e08-98ca-d8b1ff298e07.jpg""]","",""
"","4267","similarity","195","1210929","0.0-6.0-189.0","2","[""img/0764/438c0217-036f-43c9-9b87-f43144e46011.jpg"",""img/0898/82231d4c-218b-4d0a-b50d-35a49b524e97.jpg""]","",""
"","4796","similarity","196","1216728","0.0-6.0-190.0","5","[""img/0903/d987e220-f3e6-4b6d-a270-fe6757041f6d.jpg"",""img/0901/12da1841-e611-435c-9719-109413d536a8.jpg""]","",""
"","4180","similarity","197","1221919","0.0-6.0-191.0","7","[""img/0902/794606a0-d8a8-4e58-8bf8-9d114ed5a548.jpg"",""img/0898/ec565187-2e31-4fdd-9a5c-153d0c789ae0.jpg""]","",""
"","5525","similarity","198","1228449","0.0-6.0-192.0","3","[""img/0864/1d15626a-2f7c-410f-819c-0fa2c967e95e.jpg"",""img/0901/a6776381-91fe-43f8-ab73-261d318f95fd.jpg""]","",""
"","5178","similarity","199","1234632","0.0-6.0-193.0","3","[""img/0894/43216a7f-27bc-4b5a-8841-d122a30da9d9.jpg"",""img/0881/c843e210-bdfe-4a7c-8bbe-fcea1f90fe1c.jpg""]","",""
"","10101","similarity","200","1245736","0.0-6.0-194.0","4","[""img/0868/e0aff734-077f-40dd-9781-74821abd3621.jpg"",""img/0868/4bd5105a-d2c3-4f82-8c80-57196106ba53.jpg""]","",""
"","6692","similarity","201","1253433","0.0-6.0-195.0","6","[""img/0899/d60714ae-98d7-4564-8c98-94dba1351135.jpg"",""img/0764/17b088f8-3053-4140-b544-d15654cc79ef.jpg""]","",""
"","3700","similarity","202","1258136","0.0-6.0-196.0","5","[""img/0881/62a64f90-7a72-4aee-a1a1-0c548ac9bdda.jpg"",""img/0904/25365108-e038-4021-aac9-797f2063b337.jpg""]","",""
"","3459","similarity","203","1262600","0.0-6.0-197.0","2","[""img/0864/ef9cbca0-4be8-435d-ad49-977259e80409.jpg"",""img/0902/b03129ba-b087-4558-af37-e8399d6217d6.jpg""]","",""
"","4796","similarity","204","1268400","0.0-6.0-198.0","7","[""img/0894/4739e06d-c31e-4bf1-bf91-c97fa9afb456.jpg"",""img/0904/5cceabc9-de1d-4c67-989b-c28a4ef77e79.jpg""]","",""
"","3403","similarity","205","1272808","0.0-6.0-199.0","7","[""img/0901/00acf6c1-b66e-4060-bb04-4caf29b5a8b0.jpg"",""img/0901/6e2957f8-f5ab-46f4-87cc-bb50155a098b.jpg""]","",""
"","4141","similarity","206","1277952","0.0-6.0-200.0","6","[""img/0894/661b9f9f-4bde-487a-b1ed-87085fde6948.jpg"",""img/0860/8a92e21b-6a32-4e4a-a445-2d5a487ed0a4.jpg""]","",""
"","2965","similarity","207","1281920","0.0-6.0-201.0","7","[""img/0898/0c7dde4f-efce-4b7a-9387-6921635b7890.jpg"",""img/0903/9b60ef5b-234f-4239-892b-3d4c412accc2.jpg""]","",""
"","3283","similarity","208","1286208","0.0-6.0-202.0","3","[""img/0864/0f537697-a314-47c3-a8cc-8df23b7e536c.jpg"",""img/0894/e2446cf5-cd48-486a-badc-76498e087fbe.jpg""]","",""
"","3979","similarity","209","1291193","0.0-6.0-203.0","5","[""img/0874/99f6563c-8a8d-4c1c-a41d-667b618c3fd5.jpg"",""img/0860/4a022222-056d-461c-ab02-39fac9647552.jpg""]","",""
"","4010","similarity","210","1296209","0.0-6.0-204.0","2","[""img/0862/e0f1a4e9-e1b6-45f7-af67-89f334e6630d.jpg"",""img/0875/8521fd58-3b1e-4dc5-97ae-804edfa6734a.jpg""]","",""
"","4012","similarity","211","1301224","0.0-6.0-205.0","6","[""img/0867/6e19c858-b606-45b2-a4c6-910a73f1d82c.jpg"",""img/0881/d373cb9f-a719-4549-a2a4-82def79fb2a5.jpg""]","",""
"","3113","similarity","212","1305344","0.0-6.0-206.0","7","[""img/0901/ae1e6ce4-2e10-4ca9-b1e7-21628637ab74.jpg"",""img/0902/94ee9c53-a9a2-4f95-b9b7-794a5fc62bb6.jpg""]","",""
"","4364","similarity","213","1310712","0.0-6.0-207.0","7","[""img/0899/a05bea16-2bb4-4cb9-b8fb-4ff975db6971.jpg"",""img/0864/66091c27-e588-4476-8af9-265dc6be4156.jpg""]","",""
"","4588","similarity","214","1316303","0.0-6.0-208.0","5","[""img/0901/a9b9c0a0-8aed-4888-a78a-65fb7e764d13.jpg"",""img/0769/0fe124d3-bcad-45f6-b64d-8f6eb8ee5251.jpg""]","",""
"","3492","similarity","215","1329920","0.0-6.0-209.0","7","[""img/0902/94198618-7047-4dc9-ad04-85f4ba913067.jpg"",""img/0902/aa6fca32-82b0-4414-b20a-8f6f8aa5a2d2.jpg""]","",""
"[{""page_index"":0,""viewing_time"":6574}]","6575","instructions","216","1337495","0.0-7.0","","","",""
"","49457","image-multi-choice","217","1387973","0.0-8.0-0.0","","","{""Q0"":""Ovenbird""}","Nashville Warbler"
"","27006","image-multi-choice","218","1416002","0.0-8.0-1.0","","","{""Q0"":""American Tree Sparrow""}","Black-and-white Warbler"
"","10468","image-multi-choice","219","1427491","0.0-8.0-2.0","","","{""Q0"":""Blackburnian Warbler""}","Townsend's Warbler"
"","8332","image-multi-choice","220","1436834","0.0-8.0-3.0","","","{""Q0"":""Vesper Sparrow""}","Lark Sparrow"
"","35557","image-multi-choice","221","1473409","0.0-8.0-4.0","","","{""Q0"":""Song Sparrow""}","Yellow Warbler"
"","5923","image-multi-choice","222","1480346","0.0-8.0-5.0","","","{""Q0"":""Tennessee Warbler""}","Orange-crowned Warbler"
"","10837","image-multi-choice","223","1492193","0.0-8.0-6.0","","","{""Q0"":""Lark Sparrow""}","White-throated Sparrow"
"","10402","image-multi-choice","224","1503609","0.0-8.0-7.0","","","{""Q0"":""Blackburnian Warbler""}","Fox Sparrow"
"","25141","image-multi-choice","225","1529761","0.0-8.0-8.0","","","{""Q0"":""Lincoln's Sparrow""}","Song Sparrow"
"","6306","image-multi-choice","226","1537081","0.0-8.0-9.0","","","{""Q0"":""Tennessee Warbler""}","Blackburnian Warbler"
"","41688","image-multi-choice","227","1579781","0.0-8.0-10.0","","","{""Q0"":""Northern Waterthrush""}","Vesper Sparrow"
"","7301","image-multi-choice","228","1588096","0.0-8.0-11.0","","","{""Q0"":""White-crowned Sparrow""}","White-crowned Sparrow"
"","35029","image-multi-choice","229","1624138","0.0-8.0-12.0","","","{""Q0"":""Townsend's Warbler""}","American Tree Sparrow"
"","7564","image-multi-choice","230","1632713","0.0-8.0-13.0","","","{""Q0"":""White-throated Sparrow""}","Tennessee Warbler"
"","9636","image-multi-choice","231","1643360","0.0-8.0-14.0","","","{""Q0"":""White-throated Sparrow""}","Magnolia Warbler"
"","14454","image-multi-choice","232","1658828","0.0-8.0-15.0","","","{""Q0"":""Magnolia Warbler""}","Northern Waterthrush"
"","12362","image-multi-choice","233","1672220","0.0-8.0-16.0","","","{""Q0"":""Yellow Warbler""}","Chipping Sparrow"
"","8914","image-multi-choice","234","1682163","0.0-8.0-17.0","","","{""Q0"":""Song Sparrow""}","Swamp Sparrow"
"","7322","image-multi-choice","235","1690505","0.0-8.0-18.0","","","{""Q0"":""Tennessee Warbler""}","Lincoln's Sparrow"
"","9158","image-multi-choice","236","1700682","0.0-8.0-19.0","","","{""Q0"":""Chipping Sparrow""}","Ovenbird"
