[{"view_history":"[{\"page_index\":0,\"viewing_time\":11155}]","rt":11156,"trial_type":"instructions","trial_index":0,"time_elapsed":11156,"internal_node_id":"0.0-0.0"},{"sim_score":3,"rt":7374,"stimulus":"[\"img/866.jpg\",\"img/868.jpg\"]","trial_type":"similarity_demo","trial_index":1,"time_elapsed":19538,"internal_node_id":"0.0-1.0"},{"view_history":"[{\"page_index\":0,\"viewing_time\":12294}]","rt":12294,"trial_type":"instructions","trial_index":2,"time_elapsed":32833,"internal_node_id":"0.0-2.0"},{"sim_score":1,"rt":6253,"stimulus":"[\"img/766.jpg\",\"img/867.jpg\"]","trial_type":"similarity_demo","trial_index":3,"time_elapsed":40090,"internal_node_id":"0.0-3.0"},{"view_history":"[{\"page_index\":0,\"viewing_time\":7780}]","rt":7780,"trial_type":"instructions","trial_index":4,"time_elapsed":48876,"internal_node_id":"0.0-4.0"},{"view_history":"[{\"page_index\":0,\"viewing_time\":12687}]","rt":12687,"trial_type":"instructions","trial_index":5,"time_elapsed":62567,"internal_node_id":"0.0-5.0"},{"sim_score":1,"rt":4981,"stimulus":"[\"img/0868/d6d1f30d-4323-435a-b194-7892521bc57e.jpg\",\"img/0901/1e23ffbd-19de-4c4f-aa23-c54aaa3319a3.jpg\"]","trial_type":"similarity","trial_index":6,"time_elapsed":68554,"internal_node_id":"0.0-6.0-0.0"},{"sim_score":3,"rt":4516,"stimulus":"[\"img/0769/057eb0a0-aa5b-40c7-9852-21444f68d767.jpg\",\"img/0867/6e19c858-b606-45b2-a4c6-910a73f1d82c.jpg\"]","trial_type":"similarity","trial_index":7,"time_elapsed":74076,"internal_node_id":"0.0-6.0-1.0"},{"sim_score":6,"rt":6252,"stimulus":"[\"img/0766/fd74fdbb-ea40-4f3a-a091-38d08dfd636e.jpg\",\"img/0898/a114b375-cb89-44ba-9498-74213f1ecdee.jpg\"]","trial_type":"similarity","trial_index":8,"time_elapsed":81333,"internal_node_id":"0.0-6.0-2.0"},{"sim_score":6,"rt":4047,"stimulus":"[\"img/0902/417d8b4a-3c72-4adc-ac78-820e833316f2.jpg\",\"img/0881/2a8413be-fec2-4de6-88ad-614dd4cccc9d.jpg\"]","trial_type":"similarity","trial_index":9,"time_elapsed":86384,"internal_node_id":"0.0-6.0-3.0"},{"sim_score":6,"rt":4836,"stimulus":"[\"img/0894/a98416c0-51e2-4960-85da-d81d8688b9d5.jpg\",\"img/0894/5a49e858-2850-4892-9a06-e9f0efb5f94d.jpg\"]","trial_type":"similarity","trial_index":10,"time_elapsed":92223,"internal_node_id":"0.0-6.0-4.0"},{"sim_score":3,"rt":5870,"stimulus":"[\"img/0874/a82926a3-0b43-4add-803c-d5f9ea7798ee.jpg\",\"img/0899/4408c14d-c168-4a7d-96f6-bc87bfb58f83.jpg\"]","trial_type":"similarity","trial_index":11,"time_elapsed":99097,"internal_node_id":"0.0-6.0-5.0"},{"sim_score":5,"rt":4948,"stimulus":"[\"img/0904/96e503ea-6630-4996-85f2-0237688ce441.jpg\",\"img/0764/c0b03adb-bd0a-4b96-a915-a827c2fd5211.jpg\"]","trial_type":"similarity","trial_index":12,"time_elapsed":105048,"internal_node_id":"0.0-6.0-6.0"},{"sim_score":5,"rt":3820,"stimulus":"[\"img/0899/f95cbdb4-f804-4f5d-ad76-373ad343e658.jpg\",\"img/0898/81b08535-2020-4c15-9ce4-2f1e460755ae.jpg\"]","trial_type":"similarity","trial_index":13,"time_elapsed":109874,"internal_node_id":"0.0-6.0-7.0"},{"sim_score":2,"rt":3777,"stimulus":"[\"img/0874/99f6563c-8a8d-4c1c-a41d-667b618c3fd5.jpg\",\"img/0903/6138142e-c84e-45fc-9487-c974f3d4968a.jpg\"]","trial_type":"similarity","trial_index":14,"time_elapsed":114655,"internal_node_id":"0.0-6.0-8.0"},{"sim_score":6,"rt":4192,"stimulus":"[\"img/0881/344de456-b358-4887-bd0e-e4c3278af887.jpg\",\"img/0758/dd559618-7f09-4a07-8018-d311c4a5ea29.jpg\"]","trial_type":"similarity","trial_index":15,"time_elapsed":119853,"internal_node_id":"0.0-6.0-9.0"},{"sim_score":2,"rt":6534,"stimulus":"[\"img/0898/01bfe666-3510-4fc7-964f-d00d28732dc8.jpg\",\"img/0901/71e551a2-9ce2-409c-9c7c-dd556a0791e9.jpg\"]","trial_type":"similarity","trial_index":16,"time_elapsed":127391,"internal_node_id":"0.0-6.0-10.0"},{"sim_score":5,"rt":4011,"stimulus":"[\"img/0903/bf0a7d60-eca5-44b0-bafd-baf21db9904b.jpg\",\"img/0769/bb8c4e53-6f32-4814-97ee-392d4decfb2e.jpg\"]","trial_type":"similarity","trial_index":17,"time_elapsed":132408,"internal_node_id":"0.0-6.0-11.0"},{"sim_score":1,"rt":3676,"stimulus":"[\"img/0764/39a9fc7e-b863-432c-9374-de43983f31a5.jpg\",\"img/0868/7b212364-ff5f-4e28-9241-7eb6ea00161b.jpg\"]","trial_type":"similarity","trial_index":18,"time_elapsed":137088,"internal_node_id":"0.0-6.0-12.0"},{"sim_score":1,"rt":3744,"stimulus":"[\"img/0867/de92135f-5b65-4ed9-b245-188292c7c2f8.jpg\",\"img/0903/8931c67c-a43d-47d3-a4c9-42aa2f81d344.jpg\"]","trial_type":"similarity","trial_index":19,"time_elapsed":141835,"internal_node_id":"0.0-6.0-13.0"},{"sim_score":4,"rt":3890,"stimulus":"[\"img/0766/26d3ae14-8275-4e08-99b2-a6598c193ddf.jpg\",\"img/0758/67c0be2f-9e91-48b3-8219-70ac0a1802fa.jpg\"]","trial_type":"similarity","trial_index":20,"time_elapsed":146729,"internal_node_id":"0.0-6.0-14.0"},{"sim_score":2,"rt":5691,"stimulus":"[\"img/0902/e5a46bda-30d1-41ca-b36d-b8529b5a63d1.jpg\",\"img/0860/8277806e-b684-4474-8f7b-3fca946d7d4f.jpg\"]","trial_type":"similarity","trial_index":21,"time_elapsed":153423,"internal_node_id":"0.0-6.0-15.0"},{"sim_score":2,"rt":4409,"stimulus":"[\"img/0769/e31b3bd8-efcb-413e-aa8c-75fac2b8f2ac.jpg\",\"img/0875/99698b4d-b4a1-44bc-8c83-8ea755bbbf61.jpg\"]","trial_type":"similarity","trial_index":22,"time_elapsed":158834,"internal_node_id":"0.0-6.0-16.0"},{"sim_score":1,"rt":4014,"stimulus":"[\"img/0904/b5855d6a-7ef9-46ca-9215-6e9fa046e543.jpg\",\"img/0866/a04d37f0-99dd-478a-b6c6-58b215138f84.jpg\"]","trial_type":"similarity","trial_index":23,"time_elapsed":163852,"internal_node_id":"0.0-6.0-17.0"},{"sim_score":7,"rt":5612,"stimulus":"[\"img/0875/03c3c331-738b-4446-af92-3d7386b08c2e.jpg\",\"img/0875/5a1e5100-0d94-4fec-bbe9-ca9894d2cf8e.jpg\"]","trial_type":"similarity","trial_index":24,"time_elapsed":170467,"internal_node_id":"0.0-6.0-18.0"},{"sim_score":7,"rt":4381,"stimulus":"[\"img/0758/d41c06bf-ebaf-454b-91c6-1a17f917b659.jpg\",\"img/0758/a085b443-b5d7-4cb2-9ad4-b9dab0fc23f1.jpg\"]","trial_type":"similarity","trial_index":25,"time_elapsed":175855,"internal_node_id":"0.0-6.0-19.0"},{"sim_score":2,"rt":5756,"stimulus":"[\"img/0902/95a36b6b-9601-4fa5-8fd9-606ea62f9425.jpg\",\"img/0874/767f289c-9814-4496-803f-745cc8913d1f.jpg\"]","trial_type":"similarity","trial_index":26,"time_elapsed":182617,"internal_node_id":"0.0-6.0-20.0"},{"sim_score":2,"rt":4484,"stimulus":"[\"img/0764/b887d7c6-aa81-4637-af8e-05135757ac59.jpg\",\"img/0769/75f7e514-0548-4329-b1e4-93c05e74f038.jpg\"]","trial_type":"similarity","trial_index":27,"time_elapsed":188107,"internal_node_id":"0.0-6.0-21.0"},{"sim_score":1,"rt":3363,"stimulus":"[\"img/0901/58978a6d-a3e2-4c59-8d62-f60693ecc0f6.jpg\",\"img/0874/a3bc679d-619f-4db6-bb68-116dcb757d9c.jpg\"]","trial_type":"similarity","trial_index":28,"time_elapsed":192472,"internal_node_id":"0.0-6.0-22.0"},{"sim_score":1,"rt":5928,"stimulus":"[\"img/0875/34132396-d896-4c2d-8087-646dd867e769.jpg\",\"img/0903/ea75f240-fb62-4edb-a709-83e858b202c0.jpg\"]","trial_type":"similarity","trial_index":29,"time_elapsed":199402,"internal_node_id":"0.0-6.0-23.0"},{"sim_score":5,"rt":4506,"stimulus":"[\"img/0769/8598a429-c671-4d2f-842c-32f681f5e412.jpg\",\"img/0881/20af39f5-373d-4a55-a437-2dc4c0382c46.jpg\"]","trial_type":"similarity","trial_index":30,"time_elapsed":204914,"internal_node_id":"0.0-6.0-24.0"},{"sim_score":1,"rt":3505,"stimulus":"[\"img/0867/c71dc569-f49c-4397-8381-68b8d726736d.jpg\",\"img/0904/e9423a8c-f946-43ad-ab7b-931acef870e2.jpg\"]","trial_type":"similarity","trial_index":31,"time_elapsed":209425,"internal_node_id":"0.0-6.0-25.0"},{"sim_score":1,"rt":3833,"stimulus":"[\"img/0860/f44ba3fb-03a2-42f0-8509-2c1ded493086.jpg\",\"img/0881/7e822106-76f7-4b10-a805-14dc68b2cfaf.jpg\"]","trial_type":"similarity","trial_index":32,"time_elapsed":214263,"internal_node_id":"0.0-6.0-26.0"},{"sim_score":6,"rt":4027,"stimulus":"[\"img/0866/386235d2-6857-41e7-88a8-25cfc3430025.jpg\",\"img/0866/f756f7d1-9ad8-4a34-9ef6-7a443d705bfe.jpg\"]","trial_type":"similarity","trial_index":33,"time_elapsed":219292,"internal_node_id":"0.0-6.0-27.0"},{"sim_score":2,"rt":6096,"stimulus":"[\"img/0764/55b3fab1-b809-4d38-a461-3f40ce062f52.jpg\",\"img/0862/ad593cc7-cabe-4bb7-8e14-8a447a0717b4.jpg\"]","trial_type":"similarity","trial_index":34,"time_elapsed":226391,"internal_node_id":"0.0-6.0-28.0"},{"sim_score":2,"rt":4315,"stimulus":"[\"img/0904/60d1a521-edf7-4696-9263-f21ac0e62a01.jpg\",\"img/0758/20497cbe-ddae-489e-86e2-ab06985ed07c.jpg\"]","trial_type":"similarity","trial_index":35,"time_elapsed":231712,"internal_node_id":"0.0-6.0-29.0"},{"sim_score":2,"rt":3329,"stimulus":"[\"img/0894/bd34223a-2f66-4e16-9d18-193a746b69ff.jpg\",\"img/0899/ddf96ade-692e-4602-bd22-dedbb46401bc.jpg\"]","trial_type":"similarity","trial_index":36,"time_elapsed":236045,"internal_node_id":"0.0-6.0-30.0"},{"sim_score":2,"rt":2896,"stimulus":"[\"img/0860/9593362c-9fe5-4d12-9735-6000a11f6aa5.jpg\",\"img/0904/9b3568cc-3cf7-42be-9df3-fdafde7a58b8.jpg\"]","trial_type":"similarity","trial_index":37,"time_elapsed":239947,"internal_node_id":"0.0-6.0-31.0"},{"sim_score":5,"rt":3923,"stimulus":"[\"img/0874/adf9a8f1-c40b-402b-b95b-1e85a54a7b62.jpg\",\"img/0881/f7a8cc63-8842-40a4-9ff8-fe530310d62c.jpg\"]","trial_type":"similarity","trial_index":38,"time_elapsed":244874,"internal_node_id":"0.0-6.0-32.0"},{"sim_score":6,"rt":3034,"stimulus":"[\"img/0881/db77fe00-aeb0-4d1d-aa66-f3a96fd077e4.jpg\",\"img/0899/66bf4113-ee12-426c-84d2-ea410b6c803e.jpg\"]","trial_type":"similarity","trial_index":39,"time_elapsed":248914,"internal_node_id":"0.0-6.0-33.0"},{"sim_score":2,"rt":3594,"stimulus":"[\"img/0866/9b38d691-1802-4959-ab3f-fc902f0e4ea6.jpg\",\"img/0862/d0ca4c78-fc35-46ed-bdcc-8e124283c53e.jpg\"]","trial_type":"similarity","trial_index":40,"time_elapsed":253514,"internal_node_id":"0.0-6.0-34.0"},{"sim_score":2,"rt":3036,"stimulus":"[\"img/0868/e0aff734-077f-40dd-9781-74821abd3621.jpg\",\"img/0894/661b9f9f-4bde-487a-b1ed-87085fde6948.jpg\"]","trial_type":"similarity","trial_index":41,"time_elapsed":257553,"internal_node_id":"0.0-6.0-35.0"},{"sim_score":7,"rt":3428,"stimulus":"[\"img/0860/4c530c3c-6aab-492a-94d1-9c01797bde40.jpg\",\"img/0860/5bff793e-cbd5-4d7e-b628-0ac2b0e30b64.jpg\"]","trial_type":"similarity","trial_index":42,"time_elapsed":261986,"internal_node_id":"0.0-6.0-36.0"},{"sim_score":3,"rt":5598,"stimulus":"[\"img/0862/00c06b00-3b73-44e9-bc1e-c5aafb438321.jpg\",\"img/0864/ea327690-500b-4137-bf91-451b309fe6a5.jpg\"]","trial_type":"similarity","trial_index":43,"time_elapsed":268589,"internal_node_id":"0.0-6.0-37.0"},{"sim_score":2,"rt":2777,"stimulus":"[\"img/0766/f3276cc4-65de-4c2d-88d5-6cfebce14b8f.jpg\",\"img/0866/6f2a90d7-14f1-4f1b-bd64-fc0af6b9fe44.jpg\"]","trial_type":"similarity","trial_index":44,"time_elapsed":272369,"internal_node_id":"0.0-6.0-38.0"},{"sim_score":1,"rt":3349,"stimulus":"[\"img/0875/8521fd58-3b1e-4dc5-97ae-804edfa6734a.jpg\",\"img/0898/04e39a7a-fcf6-4156-ab0e-f5871f335e1c.jpg\"]","trial_type":"similarity","trial_index":45,"time_elapsed":276723,"internal_node_id":"0.0-6.0-39.0"},{"sim_score":6,"rt":3312,"stimulus":"[\"img/0766/a754e4b6-5019-4cf4-8f58-34c20547a1f5.jpg\",\"img/0769/da36e3f7-2337-434f-ab57-11822dd7eed7.jpg\"]","trial_type":"similarity","trial_index":46,"time_elapsed":281043,"internal_node_id":"0.0-6.0-40.0"},{"sim_score":6,"rt":3595,"stimulus":"[\"img/0874/ca23d307-fc00-4d7d-9106-584c6eb21b4d.jpg\",\"img/0764/d0bef2e0-e16b-4c82-9451-c1d16265eb67.jpg\"]","trial_type":"similarity","trial_index":47,"time_elapsed":308853,"internal_node_id":"0.0-6.0-41.0"},{"sim_score":2,"rt":4371,"stimulus":"[\"img/0868/179a5502-ab5c-478e-8263-5a1fbcc101d2.jpg\",\"img/0902/b56db912-c3c0-4fc2-b325-d640acd7cb58.jpg\"]","trial_type":"similarity","trial_index":48,"time_elapsed":314231,"internal_node_id":"0.0-6.0-42.0"},{"sim_score":1,"rt":3394,"stimulus":"[\"img/0875/2c361b79-c3d1-4eda-812e-bf03192407bf.jpg\",\"img/0899/8de08897-b430-42fe-9d42-840670b80f94.jpg\"]","trial_type":"similarity","trial_index":49,"time_elapsed":318629,"internal_node_id":"0.0-6.0-43.0"},{"sim_score":2,"rt":5778,"stimulus":"[\"img/0866/a15b02be-11bb-43e3-b0e0-ecc3bd7dfc49.jpg\",\"img/0860/d9a0d117-6d1d-41c0-8fec-9aff0fd9e9f2.jpg\"]","trial_type":"similarity","trial_index":50,"time_elapsed":325413,"internal_node_id":"0.0-6.0-44.0"},{"sim_score":6,"rt":3776,"stimulus":"[\"img/0766/00891401-e4c9-4ce1-bc19-f70740d174bc.jpg\",\"img/0903/680ed18e-b311-4ecf-9b00-7dea32128334.jpg\"]","trial_type":"similarity","trial_index":51,"time_elapsed":330194,"internal_node_id":"0.0-6.0-45.0"},{"sim_score":6,"rt":3125,"stimulus":"[\"img/0901/d61f267a-c492-4db6-9bfb-61efd49cf072.jpg\",\"img/0904/696ebb60-8891-417a-91fd-c53218907a95.jpg\"]","trial_type":"similarity","trial_index":52,"time_elapsed":334323,"internal_node_id":"0.0-6.0-46.0"},{"sim_score":2,"rt":4629,"stimulus":"[\"img/0758/ddc336e9-a8b6-4bb9-937a-c7e25e0e9250.jpg\",\"img/0902/7f1dcd35-237a-4995-9e42-7f63f3f434d4.jpg\"]","trial_type":"similarity","trial_index":53,"time_elapsed":339959,"internal_node_id":"0.0-6.0-47.0"},{"sim_score":7,"rt":3756,"stimulus":"[\"img/0764/f9f890e6-3c2f-40cd-84e9-85e0b54cb28e.jpg\",\"img/0764/ef0e64c6-d0dd-4dc6-87b6-ce5c0665f421.jpg\"]","trial_type":"similarity","trial_index":54,"time_elapsed":344718,"internal_node_id":"0.0-6.0-48.0"},{"sim_score":1,"rt":4217,"stimulus":"[\"img/0866/be24ab58-230e-4db8-9f45-ff04c9aec6bb.jpg\",\"img/0902/0eb85fbc-27c8-41df-9d0b-a5f9efd417d1.jpg\"]","trial_type":"similarity","trial_index":55,"time_elapsed":349938,"internal_node_id":"0.0-6.0-49.0"},{"sim_score":1,"rt":3391,"stimulus":"[\"img/0764/c643e165-df19-459f-8c2b-8357bf432a17.jpg\",\"img/0758/f61ecdf8-a7d4-4db0-b84d-be46f7cfaffc.jpg\"]","trial_type":"similarity","trial_index":56,"time_elapsed":354337,"internal_node_id":"0.0-6.0-50.0"},{"sim_score":1,"rt":4352,"stimulus":"[\"img/0898/79233891-305a-4a6a-8ddf-5c8604858203.jpg\",\"img/0894/5f15154e-e72e-4ce5-aafb-bce6f0564006.jpg\"]","trial_type":"similarity","trial_index":57,"time_elapsed":359692,"internal_node_id":"0.0-6.0-51.0"},{"sim_score":1,"rt":4079,"stimulus":"[\"img/0875/2e13d160-eea1-416b-aff1-d37ab99ecc1d.jpg\",\"img/0866/0207e9a2-7dbb-40b5-9459-b472aaeceb2a.jpg\"]","trial_type":"similarity","trial_index":58,"time_elapsed":364777,"internal_node_id":"0.0-6.0-52.0"},{"sim_score":6,"rt":3989,"stimulus":"[\"img/0904/73920552-103b-4c9c-9ece-e0b8376b4504.jpg\",\"img/0904/1d10df11-b5c8-4370-9a6b-097a7f965895.jpg\"]","trial_type":"similarity","trial_index":59,"time_elapsed":369772,"internal_node_id":"0.0-6.0-53.0"},{"sim_score":7,"rt":5589,"stimulus":"[\"img/0769/ebef2ddc-ba59-4e0e-97f8-927864eb5081.jpg\",\"img/0769/965c3c44-d9e5-47c5-b61a-2bbdf4215d9a.jpg\"]","trial_type":"similarity","trial_index":60,"time_elapsed":376364,"internal_node_id":"0.0-6.0-54.0"},{"sim_score":5,"rt":3799,"stimulus":"[\"img/0898/993d8f2d-bef7-4251-a193-0f93a32b7763.jpg\",\"img/0758/821c68d3-5cb0-4eae-8659-30e6263fca39.jpg\"]","trial_type":"similarity","trial_index":61,"time_elapsed":381168,"internal_node_id":"0.0-6.0-55.0"},{"sim_score":7,"rt":2863,"stimulus":"[\"img/0769/5bd04f55-d091-4f57-85db-38426f26bd1a.jpg\",\"img/0902/04a6ad4a-afc6-4871-8225-56b299af7b6b.jpg\"]","trial_type":"similarity","trial_index":62,"time_elapsed":385039,"internal_node_id":"0.0-6.0-56.0"},{"sim_score":5,"rt":3857,"stimulus":"[\"img/0864/da39ad34-04e0-40d4-a724-c08d53e0ea09.jpg\",\"img/0881/1407b85b-a1c6-45b1-9884-3b24203efadb.jpg\"]","trial_type":"similarity","trial_index":63,"time_elapsed":389898,"internal_node_id":"0.0-6.0-57.0"},{"sim_score":2,"rt":5417,"stimulus":"[\"img/0758/6cd8c362-ae2a-41eb-80a3-3a4f7ace1530.jpg\",\"img/0868/3a62db2d-97e9-44a3-b8e3-a48c6f0e423b.jpg\"]","trial_type":"similarity","trial_index":64,"time_elapsed":396322,"internal_node_id":"0.0-6.0-58.0"},{"sim_score":1,"rt":4363,"stimulus":"[\"img/0862/fad1d7c1-8187-43c3-942a-0fc12183e48e.jpg\",\"img/0769/ecda2fb3-556b-43ba-8a67-e87dd75ff2b4.jpg\"]","trial_type":"similarity","trial_index":65,"time_elapsed":401689,"internal_node_id":"0.0-6.0-59.0"},{"sim_score":6,"rt":5698,"stimulus":"[\"img/0764/da207710-e7e4-4f42-b2e6-99b5f357f433.jpg\",\"img/0903/71dbc325-b588-4297-a5cf-7f268a722ad9.jpg\"]","trial_type":"similarity","trial_index":66,"time_elapsed":408393,"internal_node_id":"0.0-6.0-60.0"},{"sim_score":7,"rt":4442,"stimulus":"[\"img/0899/8abe6c69-822c-436c-9bf2-96c818b49ba5.jpg\",\"img/0899/76ad07e2-ca25-45eb-84f2-8d80b8ca3e26.jpg\"]","trial_type":"similarity","trial_index":67,"time_elapsed":413838,"internal_node_id":"0.0-6.0-61.0"},{"sim_score":1,"rt":5328,"stimulus":"[\"img/0860/524b2e98-5767-4d53-942c-ebae6925659b.jpg\",\"img/0875/d59ff733-eaff-4ee2-9443-06954dd0bcb6.jpg\"]","trial_type":"similarity","trial_index":68,"time_elapsed":420172,"internal_node_id":"0.0-6.0-62.0"},{"sim_score":3,"rt":4834,"stimulus":"[\"img/0868/0d3abd3a-b6c3-4584-a9f7-e2da63748b3d.jpg\",\"img/0874/93d1f8dc-acf2-4f03-bd8d-8ec35df276ed.jpg\"]","trial_type":"similarity","trial_index":69,"time_elapsed":426011,"internal_node_id":"0.0-6.0-63.0"},{"sim_score":5,"rt":3809,"stimulus":"[\"img/0758/b76ceca7-95ac-46e4-ac13-da02c8e93be9.jpg\",\"img/0862/5d887e9f-89e2-4ebc-80a0-6d46fe6480db.jpg\"]","trial_type":"similarity","trial_index":70,"time_elapsed":430826,"internal_node_id":"0.0-6.0-64.0"},{"sim_score":5,"rt":3069,"stimulus":"[\"img/0904/0d17b811-063e-416e-a23c-3b3cfa4fcce5.jpg\",\"img/0898/8605a25b-6895-476d-8c13-df7a83f96093.jpg\"]","trial_type":"similarity","trial_index":71,"time_elapsed":434898,"internal_node_id":"0.0-6.0-65.0"},{"sim_score":5,"rt":4383,"stimulus":"[\"img/0881/d373cb9f-a719-4549-a2a4-82def79fb2a5.jpg\",\"img/0866/8efcaa46-83ab-4dee-a35f-850402aa21ae.jpg\"]","trial_type":"similarity","trial_index":72,"time_elapsed":440287,"internal_node_id":"0.0-6.0-66.0"},{"sim_score":2,"rt":3395,"stimulus":"[\"img/0867/179ab87a-8eac-4c52-a41f-2e48e3120f09.jpg\",\"img/0898/cd3aaa3f-efa9-4ab3-8d6f-a6a9273ddf42.jpg\"]","trial_type":"similarity","trial_index":73,"time_elapsed":444686,"internal_node_id":"0.0-6.0-67.0"},{"sim_score":5,"rt":3101,"stimulus":"[\"img/0902/168ebd47-9e82-4ab7-a18b-c3da85072db8.jpg\",\"img/0764/bc3865c9-9004-4582-88a7-048478673f97.jpg\"]","trial_type":"similarity","trial_index":74,"time_elapsed":448792,"internal_node_id":"0.0-6.0-68.0"},{"sim_score":6,"rt":4093,"stimulus":"[\"img/0875/fb732ab5-013a-4366-9f65-27811ed157e9.jpg\",\"img/0867/7d1c497b-c1b3-4ed8-abb5-d7f73306015f.jpg\"]","trial_type":"similarity","trial_index":75,"time_elapsed":453888,"internal_node_id":"0.0-6.0-69.0"},{"sim_score":7,"rt":2990,"stimulus":"[\"img/0766/5d6e0d1d-4369-41f0-a64c-91f3503055c7.jpg\",\"img/0764/ec2dd087-c471-4370-b570-95a542506a96.jpg\"]","trial_type":"similarity","trial_index":76,"time_elapsed":457882,"internal_node_id":"0.0-6.0-70.0"},{"sim_score":2,"rt":4262,"stimulus":"[\"img/0894/133a1636-d123-4893-873c-1718050f832a.jpg\",\"img/0867/26611f4e-d694-4460-b7e2-43c62753ddc3.jpg\"]","trial_type":"similarity","trial_index":77,"time_elapsed":463147,"internal_node_id":"0.0-6.0-71.0"},{"sim_score":1,"rt":3430,"stimulus":"[\"img/0875/527ced51-8e53-4aab-ab05-86df219104c0.jpg\",\"img/0764/6ef77040-1fae-4afa-bfe7-eda98e6d0376.jpg\"]","trial_type":"similarity","trial_index":78,"time_elapsed":467579,"internal_node_id":"0.0-6.0-72.0"},{"sim_score":2,"rt":3303,"stimulus":"[\"img/0867/f8488a47-94ee-4166-952c-44e16cf172f6.jpg\",\"img/0866/02f5e6b9-52b7-448c-9708-5b460d0c9a23.jpg\"]","trial_type":"similarity","trial_index":79,"time_elapsed":471888,"internal_node_id":"0.0-6.0-73.0"},{"sim_score":3,"rt":4565,"stimulus":"[\"img/0903/b4a0f61e-a964-4b79-a9a7-f767a8f92f34.jpg\",\"img/0758/d57c2592-a317-4f63-91be-91a3a9afd222.jpg\"]","trial_type":"similarity","trial_index":80,"time_elapsed":477457,"internal_node_id":"0.0-6.0-74.0"},{"sim_score":1,"rt":3054,"stimulus":"[\"img/0766/2746b119-4bba-463e-acf0-88136dc6600c.jpg\",\"img/0868/6a28c3b0-3d76-498a-9fb7-ddafc665eca8.jpg\"]","trial_type":"similarity","trial_index":81,"time_elapsed":481518,"internal_node_id":"0.0-6.0-75.0"},{"sim_score":3,"rt":4014,"stimulus":"[\"img/0874/eba003b4-cdab-4eee-8bc3-f064c7d94165.jpg\",\"img/0766/d5d38751-8fa5-476f-93e9-86ed2d9045ef.jpg\"]","trial_type":"similarity","trial_index":82,"time_elapsed":486536,"internal_node_id":"0.0-6.0-76.0"},{"sim_score":2,"rt":3876,"stimulus":"[\"img/0881/e6746727-7f89-47ec-b939-d98abe78372d.jpg\",\"img/0868/fd307a36-9a3a-47d7-ab7c-f810d0b35040.jpg\"]","trial_type":"similarity","trial_index":83,"time_elapsed":491418,"internal_node_id":"0.0-6.0-77.0"},{"sim_score":1,"rt":3362,"stimulus":"[\"img/0758/61d64021-9214-4951-bdf8-f871f9827cf9.jpg\",\"img/0901/693e0535-ef7e-4d60-af9d-fac2f38e8307.jpg\"]","trial_type":"similarity","trial_index":84,"time_elapsed":495783,"internal_node_id":"0.0-6.0-78.0"},{"sim_score":2,"rt":3279,"stimulus":"[\"img/0881/292e9b4b-fca0-4ba8-87f1-4048f9e37b7d.jpg\",\"img/0898/5f699581-3853-4547-856c-12f419ba5af7.jpg\"]","trial_type":"similarity","trial_index":85,"time_elapsed":500069,"internal_node_id":"0.0-6.0-79.0"},{"sim_score":1,"rt":2943,"stimulus":"[\"img/0867/db7e032f-162b-46f5-ae67-2b29679adee4.jpg\",\"img/0758/d540bee6-b460-4c32-ac57-bc282742d7d4.jpg\"]","trial_type":"similarity","trial_index":86,"time_elapsed":504018,"internal_node_id":"0.0-6.0-80.0"},{"sim_score":5,"rt":3722,"stimulus":"[\"img/0769/8c7cf147-1780-4d5c-8ddf-5ea23ff03ac9.jpg\",\"img/0899/7b7380d5-d2be-44e5-a09a-c1756f87ef71.jpg\"]","trial_type":"similarity","trial_index":87,"time_elapsed":508743,"internal_node_id":"0.0-6.0-81.0"},{"sim_score":6,"rt":3475,"stimulus":"[\"img/0903/f67c4ab9-f8c2-4fcd-848a-a54a7b031002.jpg\",\"img/0903/5ea5bbe0-f238-4724-abe7-9ed8dee8c0ba.jpg\"]","trial_type":"similarity","trial_index":88,"time_elapsed":513221,"internal_node_id":"0.0-6.0-82.0"},{"sim_score":3,"rt":4427,"stimulus":"[\"img/0867/f8159067-056c-41f1-a136-c529fe5e970a.jpg\",\"img/0766/2e1cf445-9aef-40e7-92f4-5facf48b64c5.jpg\"]","trial_type":"similarity","trial_index":89,"time_elapsed":522997,"internal_node_id":"0.0-6.0-83.0"},{"sim_score":1,"rt":5148,"stimulus":"[\"img/0902/9f543501-3cf1-45a7-a2f1-eeca87cc15b9.jpg\",\"img/0867/c66898ba-b71b-4d50-84f9-f7f84853a98d.jpg\"]","trial_type":"similarity","trial_index":90,"time_elapsed":529151,"internal_node_id":"0.0-6.0-84.0"},{"sim_score":2,"rt":4631,"stimulus":"[\"img/0901/ae1e6ce4-2e10-4ca9-b1e7-21628637ab74.jpg\",\"img/0875/f87b67d7-c33e-40d1-b281-248c4be1cb6e.jpg\"]","trial_type":"similarity","trial_index":91,"time_elapsed":534787,"internal_node_id":"0.0-6.0-85.0"},{"sim_score":1,"rt":3146,"stimulus":"[\"img/0764/e0788029-9d7f-414c-b747-46d2a99f7c86.jpg\",\"img/0866/4a87911a-d5be-4d4e-ab8e-3d1f581bf507.jpg\"]","trial_type":"similarity","trial_index":92,"time_elapsed":538938,"internal_node_id":"0.0-6.0-86.0"},{"sim_score":2,"rt":5217,"stimulus":"[\"img/0901/b123d109-47b4-4f9a-80c9-9bb16da42efa.jpg\",\"img/0894/8cadb87a-7001-4e47-99fb-1867bebf1668.jpg\"]","trial_type":"similarity","trial_index":93,"time_elapsed":545160,"internal_node_id":"0.0-6.0-87.0"},{"sim_score":6,"rt":3900,"stimulus":"[\"img/0898/0c7dde4f-efce-4b7a-9387-6921635b7890.jpg\",\"img/0769/f2740c58-7c02-433f-920b-746b0b75435b.jpg\"]","trial_type":"similarity","trial_index":94,"time_elapsed":550065,"internal_node_id":"0.0-6.0-88.0"},{"sim_score":5,"rt":3607,"stimulus":"[\"img/0769/f73c5138-2f4c-4354-981c-129dff9cc734.jpg\",\"img/0894/1b3888e6-cf36-4c4a-a039-187aa5cb71ac.jpg\"]","trial_type":"similarity","trial_index":95,"time_elapsed":554677,"internal_node_id":"0.0-6.0-89.0"},{"sim_score":5,"rt":4982,"stimulus":"[\"img/0862/847e5208-38ec-4f36-949c-296cdd7424ee.jpg\",\"img/0874/2c9464dd-8a23-4baa-ac94-1ba3af5c15cc.jpg\"]","trial_type":"similarity","trial_index":96,"time_elapsed":560662,"internal_node_id":"0.0-6.0-90.0"},{"sim_score":5,"rt":5208,"stimulus":"[\"img/0894/3664e04c-c6d3-4c9b-afb6-25d89974b174.jpg\",\"img/0766/d919cedb-f9b7-4f30-83bb-3e9c65001ceb.jpg\"]","trial_type":"similarity","trial_index":97,"time_elapsed":566872,"internal_node_id":"0.0-6.0-91.0"},{"sim_score":5,"rt":3756,"stimulus":"[\"img/0874/3ce41e7c-40c8-4d58-a546-171114521796.jpg\",\"img/0867/98d8cd96-1476-4fe0-a3a3-04f875500a1b.jpg\"]","trial_type":"similarity","trial_index":98,"time_elapsed":571631,"internal_node_id":"0.0-6.0-92.0"},{"sim_score":2,"rt":6274,"stimulus":"[\"img/0899/1b3457ea-87d4-4946-a01c-aac1863ed46c.jpg\",\"img/0868/293079b8-7e0c-4afd-a390-1e5d35fe3ded.jpg\"]","trial_type":"similarity","trial_index":99,"time_elapsed":578909,"internal_node_id":"0.0-6.0-93.0"},{"sim_score":3,"rt":6027,"stimulus":"[\"img/0903/36e4ab1f-caa9-40b3-8616-faada076df94.jpg\",\"img/0862/57b6f83f-c763-4858-830d-102f97bfefbf.jpg\"]","trial_type":"similarity","trial_index":100,"time_elapsed":585941,"internal_node_id":"0.0-6.0-94.0"},{"sim_score":5,"rt":4026,"stimulus":"[\"img/0899/4f7bc593-8ddd-4da3-a0b9-84da730d3370.jpg\",\"img/0766/09f646c8-a69e-4ed3-879c-8d29b04ad7f9.jpg\"]","trial_type":"similarity","trial_index":101,"time_elapsed":590970,"internal_node_id":"0.0-6.0-95.0"},{"sim_score":7,"rt":3497,"stimulus":"[\"img/0867/bf560d4f-dee3-4f11-a385-705cc1aa5f3c.jpg\",\"img/0868/c8ac40c7-6904-4e13-8d61-c75d3052dc4e.jpg\"]","trial_type":"similarity","trial_index":102,"time_elapsed":595470,"internal_node_id":"0.0-6.0-96.0"},{"sim_score":3,"rt":5283,"stimulus":"[\"img/0862/99a99e39-8355-44ec-b993-e7bcec111e1c.jpg\",\"img/0901/4d1bed7e-3c4e-4f6c-ada9-4beb66ba9e39.jpg\"]","trial_type":"similarity","trial_index":103,"time_elapsed":601758,"internal_node_id":"0.0-6.0-97.0"},{"sim_score":1,"rt":5094,"stimulus":"[\"img/0875/e7e66b13-b573-431e-b85e-288ce04a35a3.jpg\",\"img/0766/535849cc-ff5d-4df9-8f31-0ce94a97d571.jpg\"]","trial_type":"similarity","trial_index":104,"time_elapsed":607856,"internal_node_id":"0.0-6.0-98.0"},{"sim_score":6,"rt":4890,"stimulus":"[\"img/0758/9fb5b2fe-3f00-4fe6-973c-1ce10d5f4cd5.jpg\",\"img/0874/1016b306-087c-4afc-aa08-fa527b28dc76.jpg\"]","trial_type":"similarity","trial_index":105,"time_elapsed":613751,"internal_node_id":"0.0-6.0-99.0"},{"sim_score":2,"rt":3373,"stimulus":"[\"img/0904/4e58005d-a2ec-4aaa-b199-445343561396.jpg\",\"img/0868/83b4350a-3b70-4cea-b7f5-b5b56f3050a8.jpg\"]","trial_type":"similarity","trial_index":106,"time_elapsed":618127,"internal_node_id":"0.0-6.0-100.0"},{"sim_score":4,"rt":5263,"stimulus":"[\"img/0903/4cbdc464-e562-4ec2-9bb6-15f894fdf528.jpg\",\"img/0866/07c9c966-3c8d-40e7-8128-92b2acbaed5d.jpg\"]","trial_type":"similarity","trial_index":107,"time_elapsed":624394,"internal_node_id":"0.0-6.0-101.0"},{"sim_score":2,"rt":4124,"stimulus":"[\"img/0868/5fa7f9d0-f0e5-454c-8224-74d964818f56.jpg\",\"img/0769/387a9744-d6a7-42b8-bab8-33007ec434aa.jpg\"]","trial_type":"similarity","trial_index":108,"time_elapsed":629523,"internal_node_id":"0.0-6.0-102.0"},{"sim_score":6,"rt":3880,"stimulus":"[\"img/0902/82d20e8c-2162-47a6-925b-52906558c046.jpg\",\"img/0899/d8f2dd94-570e-4e8c-a087-d96090fb9e8c.jpg\"]","trial_type":"similarity","trial_index":109,"time_elapsed":634406,"internal_node_id":"0.0-6.0-103.0"},{"sim_score":2,"rt":4934,"stimulus":"[\"img/0868/4e626425-63c8-484a-8a1d-e66ee4e0bef8.jpg\",\"img/0862/cdaed51d-9e2f-4807-801a-4663c40077e2.jpg\"]","trial_type":"similarity","trial_index":110,"time_elapsed":640346,"internal_node_id":"0.0-6.0-104.0"},{"sim_score":6,"rt":3092,"stimulus":"[\"img/0903/72197c2b-403e-4a26-b391-f1aa8dea4b76.jpg\",\"img/0894/2217bdcd-23a7-42d3-823b-23f2488d7e87.jpg\"]","trial_type":"similarity","trial_index":111,"time_elapsed":644441,"internal_node_id":"0.0-6.0-105.0"},{"sim_score":6,"rt":4060,"stimulus":"[\"img/0864/c22faebd-9c53-47bc-ada3-b9a30c688e75.jpg\",\"img/0874/bf14b896-e930-4fd9-9c05-2e83317a2773.jpg\"]","trial_type":"similarity","trial_index":112,"time_elapsed":649504,"internal_node_id":"0.0-6.0-106.0"},{"sim_score":2,"rt":4486,"stimulus":"[\"img/0862/47ed5efd-4ec9-4b74-bb4e-a5f5cf0c3e7d.jpg\",\"img/0902/b76efc44-a50f-4dac-b997-ff0222376067.jpg\"]","trial_type":"similarity","trial_index":113,"time_elapsed":654993,"internal_node_id":"0.0-6.0-107.0"},{"sim_score":4,"rt":5004,"stimulus":"[\"img/0904/09934646-45d2-4147-8fec-64a22a5ac822.jpg\",\"img/0903/12bd8657-92e6-4c36-a06c-597e7a1d51f3.jpg\"]","trial_type":"similarity","trial_index":114,"time_elapsed":661001,"internal_node_id":"0.0-6.0-108.0"},{"sim_score":2,"rt":4036,"stimulus":"[\"img/0764/7f4ee8e3-9315-4a57-be7d-db8454b33766.jpg\",\"img/0864/9b2490c5-a282-400a-9736-e1a0ecbf1cb7.jpg\"]","trial_type":"similarity","trial_index":115,"time_elapsed":666041,"internal_node_id":"0.0-6.0-109.0"},{"sim_score":2,"rt":3306,"stimulus":"[\"img/0866/23a224f3-2012-4fc8-8e0f-3c36f8de27fd.jpg\",\"img/0894/e6385e52-6c35-43bd-b0af-bc803d107b11.jpg\"]","trial_type":"similarity","trial_index":116,"time_elapsed":670350,"internal_node_id":"0.0-6.0-110.0"},{"sim_score":5,"rt":4250,"stimulus":"[\"img/0899/ad8268c5-8199-48d0-ad70-c5b6d6c599ec.jpg\",\"img/0903/f45a103c-9bfe-49fd-ad96-bdd8d2589195.jpg\"]","trial_type":"similarity","trial_index":117,"time_elapsed":675604,"internal_node_id":"0.0-6.0-111.0"},{"sim_score":5,"rt":4427,"stimulus":"[\"img/0902/0db94c50-f1fb-4091-953c-29ca0466bee2.jpg\",\"img/0904/9dd5708f-3f8b-46a9-b49f-2f2fab87b357.jpg\"]","trial_type":"similarity","trial_index":118,"time_elapsed":681037,"internal_node_id":"0.0-6.0-112.0"},{"sim_score":2,"rt":4588,"stimulus":"[\"img/0864/5f74a653-3bdc-4308-8cca-ac667dc22e1f.jpg\",\"img/0860/61fb959d-d4d9-4de4-9e4e-4fa62b4cfcd5.jpg\"]","trial_type":"similarity","trial_index":119,"time_elapsed":686628,"internal_node_id":"0.0-6.0-113.0"},{"sim_score":2,"rt":3912,"stimulus":"[\"img/0860/8fdba999-b946-4c7d-9891-336018b563ef.jpg\",\"img/0899/9de5e857-aa9a-4e0c-8ba2-46d79bd069a4.jpg\"]","trial_type":"similarity","trial_index":120,"time_elapsed":691545,"internal_node_id":"0.0-6.0-114.0"},{"sim_score":3,"rt":4642,"stimulus":"[\"img/0881/dea58fad-b4f1-41d9-bd3f-916eff19a3fd.jpg\",\"img/0903/0a92ec52-4e87-410a-857a-4455cde56a70.jpg\"]","trial_type":"similarity","trial_index":121,"time_elapsed":697192,"internal_node_id":"0.0-6.0-115.0"},{"sim_score":3,"rt":4090,"stimulus":"[\"img/0894/a3d4170b-b7d8-40e3-955f-87e76ed745fc.jpg\",\"img/0874/29830da7-be5f-44e5-b141-652a0ccf7269.jpg\"]","trial_type":"similarity","trial_index":122,"time_elapsed":702288,"internal_node_id":"0.0-6.0-116.0"},{"sim_score":3,"rt":4203,"stimulus":"[\"img/0881/445edb15-bd7f-4af3-8bd5-c6ad9677bb31.jpg\",\"img/0862/f23038d4-c366-4f70-979f-66b62362efa4.jpg\"]","trial_type":"similarity","trial_index":123,"time_elapsed":707497,"internal_node_id":"0.0-6.0-117.0"},{"sim_score":5,"rt":4946,"stimulus":"[\"img/0868/4a8a45ed-2c4f-421b-9564-409a33ecd26c.jpg\",\"img/0875/5a7c4e35-6514-4e12-8879-d16071da4cd6.jpg\"]","trial_type":"similarity","trial_index":124,"time_elapsed":713449,"internal_node_id":"0.0-6.0-118.0"},{"sim_score":1,"rt":3756,"stimulus":"[\"img/0860/94ef7afc-e0e6-4a15-98c6-0bfac82bc832.jpg\",\"img/0758/eabcd7a8-56ad-4fd2-bc24-90f6b7b33265.jpg\"]","trial_type":"similarity","trial_index":125,"time_elapsed":718207,"internal_node_id":"0.0-6.0-119.0"},{"sim_score":1,"rt":3181,"stimulus":"[\"img/0864/0116ca98-293d-4fa6-a93b-5a6144ef64cc.jpg\",\"img/0875/a4935837-7d3c-4df6-88c1-36a94d4991ca.jpg\"]","trial_type":"similarity","trial_index":126,"time_elapsed":722392,"internal_node_id":"0.0-6.0-120.0"},{"sim_score":2,"rt":4385,"stimulus":"[\"img/0898/b2732712-71c2-45d8-834f-2b2ed5504910.jpg\",\"img/0866/93a27239-8317-4e08-98ca-d8b1ff298e07.jpg\"]","trial_type":"similarity","trial_index":127,"time_elapsed":727781,"internal_node_id":"0.0-6.0-121.0"},{"sim_score":2,"rt":6322,"stimulus":"[\"img/0874/7e4f2150-3b59-4a36-b5da-a4e0ba410531.jpg\",\"img/0904/da170c1b-9651-4f08-b231-2bdd1d9a046f.jpg\"]","trial_type":"similarity","trial_index":128,"time_elapsed":735104,"internal_node_id":"0.0-6.0-122.0"},{"sim_score":1,"rt":4259,"stimulus":"[\"img/0904/2f88ce53-02d0-4f95-a082-182c56a0eeb4.jpg\",\"img/0864/b3c4e378-28f0-4699-9338-2a257b4bca04.jpg\"]","trial_type":"similarity","trial_index":129,"time_elapsed":740370,"internal_node_id":"0.0-6.0-123.0"},{"sim_score":6,"rt":4801,"stimulus":"[\"img/0894/5ff3c4f6-52e2-4075-8679-be0312e59703.jpg\",\"img/0902/44cd9b7e-fdfb-4f78-90de-8d4c9d279365.jpg\"]","trial_type":"similarity","trial_index":130,"time_elapsed":746174,"internal_node_id":"0.0-6.0-124.0"},{"sim_score":2,"rt":4937,"stimulus":"[\"img/0868/d98ca254-b195-477f-b57e-5760a2717db8.jpg\",\"img/0864/f92649a2-0590-4d31-9a7a-1bfb81666a2d.jpg\"]","trial_type":"similarity","trial_index":131,"time_elapsed":758156,"internal_node_id":"0.0-6.0-125.0"},{"sim_score":1,"rt":3811,"stimulus":"[\"img/0899/00715b3f-851b-420b-a26b-d7f79f7759a9.jpg\",\"img/0866/620cd1aa-0800-4414-8f6e-90342e7a99ad.jpg\"]","trial_type":"similarity","trial_index":132,"time_elapsed":762971,"internal_node_id":"0.0-6.0-126.0"},{"sim_score":2,"rt":5057,"stimulus":"[\"img/0875/dbdd643e-6d0e-4a5c-ab57-b9c29b9c981a.jpg\",\"img/0904/5aec2708-cf14-4a58-aa30-9a8a61c1be0e.jpg\"]","trial_type":"similarity","trial_index":133,"time_elapsed":769035,"internal_node_id":"0.0-6.0-127.0"},{"sim_score":1,"rt":3453,"stimulus":"[\"img/0867/85a96c62-548f-4994-9553-819e03c3135a.jpg\",\"img/0899/0433d056-aa30-4f8a-9aa1-abbb951e4edd.jpg\"]","trial_type":"similarity","trial_index":134,"time_elapsed":773490,"internal_node_id":"0.0-6.0-128.0"},{"sim_score":3,"rt":5609,"stimulus":"[\"img/0901/d6d15b1c-4a30-4f74-a3fd-d4c8ee4169ca.jpg\",\"img/0867/075e0f95-856b-4cbb-acf5-092393aaf04e.jpg\"]","trial_type":"similarity","trial_index":135,"time_elapsed":780106,"internal_node_id":"0.0-6.0-129.0"},{"sim_score":3,"rt":3301,"stimulus":"[\"img/0864/6e846d43-94a6-4b37-a268-65eda979f052.jpg\",\"img/0769/11518cb3-13ea-4dd0-890c-30cfab728ade.jpg\"]","trial_type":"similarity","trial_index":136,"time_elapsed":784414,"internal_node_id":"0.0-6.0-130.0"},{"sim_score":4,"rt":5465,"stimulus":"[\"img/0903/8c358e9e-a4f4-466e-8b93-7aec0d2358e8.jpg\",\"img/0868/4bd5105a-d2c3-4f82-8c80-57196106ba53.jpg\"]","trial_type":"similarity","trial_index":137,"time_elapsed":790882,"internal_node_id":"0.0-6.0-131.0"},{"sim_score":4,"rt":4170,"stimulus":"[\"img/0864/0f537697-a314-47c3-a8cc-8df23b7e536c.jpg\",\"img/0867/50a1b60e-3a29-44bf-b606-d4bd3746fea9.jpg\"]","trial_type":"similarity","trial_index":138,"time_elapsed":796057,"internal_node_id":"0.0-6.0-132.0"},{"sim_score":3,"rt":5046,"stimulus":"[\"img/0901/b9141736-3041-4385-a586-b1fe911c76a5.jpg\",\"img/0860/71e1aad0-2cdf-43bb-94a4-a8c016997c30.jpg\"]","trial_type":"similarity","trial_index":139,"time_elapsed":802110,"internal_node_id":"0.0-6.0-133.0"},{"sim_score":4,"rt":2653,"stimulus":"[\"img/0881/f62bdcd1-a4b7-4d48-83da-d9c9e01c8727.jpg\",\"img/0766/aaec5f42-7f0a-4a16-aeca-488d757acbcc.jpg\"]","trial_type":"similarity","trial_index":140,"time_elapsed":805766,"internal_node_id":"0.0-6.0-134.0"},{"sim_score":4,"rt":4003,"stimulus":"[\"img/0903/31b5a5f4-b695-4af1-bad2-a19650a05498.jpg\",\"img/0864/e336a4c5-6648-4fd7-b2f6-93a3fb83f8c6.jpg\"]","trial_type":"similarity","trial_index":141,"time_elapsed":810772,"internal_node_id":"0.0-6.0-135.0"},{"sim_score":3,"rt":3347,"stimulus":"[\"img/0758/3ddd05d3-557e-4ee7-8b78-9d2d681d8ae2.jpg\",\"img/0894/e2446cf5-cd48-486a-badc-76498e087fbe.jpg\"]","trial_type":"similarity","trial_index":142,"time_elapsed":815126,"internal_node_id":"0.0-6.0-136.0"},{"sim_score":3,"rt":3531,"stimulus":"[\"img/0769/48a1144d-fbda-4809-991b-fc8424a32ee4.jpg\",\"img/0860/fd4662f9-4c03-4d79-8593-06735e55a64b.jpg\"]","trial_type":"similarity","trial_index":143,"time_elapsed":819660,"internal_node_id":"0.0-6.0-137.0"},{"sim_score":5,"rt":3227,"stimulus":"[\"img/0904/65e2b70a-b184-4da3-b5c0-5038bdf9469a.jpg\",\"img/0766/af3be95e-e52e-4fae-899b-0ff02ec340aa.jpg\"]","trial_type":"similarity","trial_index":144,"time_elapsed":823890,"internal_node_id":"0.0-6.0-138.0"},{"sim_score":2,"rt":3352,"stimulus":"[\"img/0868/15dd6fd7-791e-4b53-b203-195d617521a4.jpg\",\"img/0860/17b44a7d-c5ca-479f-9e87-f65a64f5c80e.jpg\"]","trial_type":"similarity","trial_index":145,"time_elapsed":828244,"internal_node_id":"0.0-6.0-139.0"},{"sim_score":6,"rt":4105,"stimulus":"[\"img/0758/2fa3e613-e676-4e6e-bd12-705327eeb3e1.jpg\",\"img/0864/4bd81bc6-c13d-46df-95a9-485886dc7c1b.jpg\"]","trial_type":"similarity","trial_index":146,"time_elapsed":833351,"internal_node_id":"0.0-6.0-140.0"},{"sim_score":3,"rt":5395,"stimulus":"[\"img/0867/12264664-1860-46df-8c21-162b9817cdda.jpg\",\"img/0867/1719a35d-f085-48c0-9099-16c94fe418b4.jpg\"]","trial_type":"similarity","trial_index":147,"time_elapsed":839752,"internal_node_id":"0.0-6.0-141.0"},{"sim_score":7,"rt":3462,"stimulus":"[\"img/0898/26c41340-15bd-4ead-8fe4-c0d0ddca09c2.jpg\",\"img/0898/224c1572-56b9-4f16-a9e4-6f3bc9c114bd.jpg\"]","trial_type":"similarity","trial_index":148,"time_elapsed":844219,"internal_node_id":"0.0-6.0-142.0"},{"sim_score":5,"rt":6468,"stimulus":"[\"img/0866/d266fece-59b3-46fa-b69f-96f6efb81b59.jpg\",\"img/0769/0fe124d3-bcad-45f6-b64d-8f6eb8ee5251.jpg\"]","trial_type":"similarity","trial_index":149,"time_elapsed":851689,"internal_node_id":"0.0-6.0-143.0"},{"sim_score":2,"rt":4690,"stimulus":"[\"img/0860/5383b320-1518-4095-a58e-5cc1ae30b64c.jpg\",\"img/0898/4184e5a2-84ea-4f36-9b42-ae58646f6f87.jpg\"]","trial_type":"similarity","trial_index":150,"time_elapsed":857381,"internal_node_id":"0.0-6.0-144.0"},{"sim_score":3,"rt":4226,"stimulus":"[\"img/0766/79767d11-b612-4e8a-9e4b-a8ac95bb6a54.jpg\",\"img/0864/66091c27-e588-4476-8af9-265dc6be4156.jpg\"]","trial_type":"similarity","trial_index":151,"time_elapsed":862612,"internal_node_id":"0.0-6.0-145.0"},{"sim_score":2,"rt":5848,"stimulus":"[\"img/0860/c3379ff7-0763-48fe-a1ec-7ea3d611bc7a.jpg\",\"img/0903/07b445ee-0cdb-4d2c-a23b-d727613f4059.jpg\"]","trial_type":"similarity","trial_index":152,"time_elapsed":869464,"internal_node_id":"0.0-6.0-146.0"},{"sim_score":1,"rt":4151,"stimulus":"[\"img/0867/2e1a0b58-cdb1-4107-a14e-452530d7b9b0.jpg\",\"img/0764/f713847b-4832-42d1-8fb3-e17e37fd745c.jpg\"]","trial_type":"similarity","trial_index":153,"time_elapsed":874616,"internal_node_id":"0.0-6.0-147.0"},{"sim_score":6,"rt":5499,"stimulus":"[\"img/0769/3c1203c5-2ce7-466e-957a-8d77b5905460.jpg\",\"img/0904/fe746a3f-8458-48d0-8a13-8cba2a9df9f8.jpg\"]","trial_type":"similarity","trial_index":154,"time_elapsed":881119,"internal_node_id":"0.0-6.0-148.0"},{"sim_score":4,"rt":5633,"stimulus":"[\"img/0764/ca957454-126a-4bd3-b29c-7174a24c25dc.jpg\",\"img/0901/58ec7fa9-b466-4651-90aa-c082df0972de.jpg\"]","trial_type":"similarity","trial_index":155,"time_elapsed":887756,"internal_node_id":"0.0-6.0-149.0"},{"sim_score":5,"rt":3618,"stimulus":"[\"img/0904/24fc38fe-842c-4831-ad8a-b1de5c25c0a8.jpg\",\"img/0899/fef567a2-c121-4481-9af0-ff108d199bbf.jpg\"]","trial_type":"similarity","trial_index":156,"time_elapsed":892380,"internal_node_id":"0.0-6.0-150.0"},{"sim_score":3,"rt":3854,"stimulus":"[\"img/0862/92fcd8a4-8193-4a6a-ae09-dd4a6338b0df.jpg\",\"img/0867/a749dddb-69f0-44a6-acdc-2bf295cf6dcc.jpg\"]","trial_type":"similarity","trial_index":157,"time_elapsed":897240,"internal_node_id":"0.0-6.0-151.0"},{"sim_score":6,"rt":4981,"stimulus":"[\"img/0766/f011ef45-fb48-44b8-8224-867ed2ccf786.jpg\",\"img/0766/33aa9ebb-c9f5-418f-8c8b-c77861889568.jpg\"]","trial_type":"similarity","trial_index":158,"time_elapsed":903225,"internal_node_id":"0.0-6.0-152.0"},{"sim_score":2,"rt":3695,"stimulus":"[\"img/0862/f188d4f0-76a4-4102-818c-a209969d73a5.jpg\",\"img/0894/6b2e9509-8699-42b7-9582-7741df0ba2d7.jpg\"]","trial_type":"similarity","trial_index":159,"time_elapsed":907927,"internal_node_id":"0.0-6.0-153.0"},{"sim_score":3,"rt":4799,"stimulus":"[\"img/0899/25ae6ec8-9565-49fe-a8bb-8d0666f52716.jpg\",\"img/0901/bc47e078-bda4-40ed-b89a-bbd819164b95.jpg\"]","trial_type":"similarity","trial_index":160,"time_elapsed":913733,"internal_node_id":"0.0-6.0-154.0"},{"sim_score":7,"rt":5238,"stimulus":"[\"img/0874/995f0332-0439-4eb4-add3-957335dbf6d9.jpg\",\"img/0874/c0378dac-9370-439a-8b79-db27c96fb390.jpg\"]","trial_type":"similarity","trial_index":161,"time_elapsed":919976,"internal_node_id":"0.0-6.0-155.0"},{"sim_score":2,"rt":5523,"stimulus":"[\"img/0860/4a022222-056d-461c-ab02-39fac9647552.jpg\",\"img/0867/cc72ed48-7704-422c-86d6-467a1145287a.jpg\"]","trial_type":"similarity","trial_index":162,"time_elapsed":926501,"internal_node_id":"0.0-6.0-156.0"},{"sim_score":2,"rt":3948,"stimulus":"[\"img/0901/2a953e50-d237-405c-a38d-5ed21494c968.jpg\",\"img/0881/5fe04dd0-5c74-47b7-99c8-b068db9ca26a.jpg\"]","trial_type":"similarity","trial_index":163,"time_elapsed":931451,"internal_node_id":"0.0-6.0-157.0"},{"sim_score":5,"rt":4172,"stimulus":"[\"img/0903/5248eedd-7e6a-4d39-91b0-06ec227f3ed0.jpg\",\"img/0902/22ed3536-288b-452e-9777-0fa0ab94deb0.jpg\"]","trial_type":"similarity","trial_index":164,"time_elapsed":936626,"internal_node_id":"0.0-6.0-158.0"},{"sim_score":2,"rt":2864,"stimulus":"[\"img/0860/29a21a9f-54bb-4093-ad3f-04823ceaa89f.jpg\",\"img/0764/8389e74f-e0e0-435d-945f-da1f4c92ccb6.jpg\"]","trial_type":"similarity","trial_index":165,"time_elapsed":940496,"internal_node_id":"0.0-6.0-159.0"},{"sim_score":2,"rt":5770,"stimulus":"[\"img/0902/97022122-01e4-46c3-a34f-c6260ad28428.jpg\",\"img/0875/90da8d75-108a-44ad-b999-e21fee3860d3.jpg\"]","trial_type":"similarity","trial_index":166,"time_elapsed":947268,"internal_node_id":"0.0-6.0-160.0"},{"sim_score":3,"rt":2866,"stimulus":"[\"img/0898/a8f16b02-e19f-423b-86c3-a36562ae1f9b.jpg\",\"img/0862/24cdc752-c2e5-4a17-86a6-6f2045d8553b.jpg\"]","trial_type":"similarity","trial_index":167,"time_elapsed":951138,"internal_node_id":"0.0-6.0-161.0"},{"sim_score":2,"rt":3675,"stimulus":"[\"img/0894/05161000-f476-499b-a878-c13c7f347fd9.jpg\",\"img/0875/42910c99-5463-450a-a0f8-d4d060a11455.jpg\"]","trial_type":"similarity","trial_index":168,"time_elapsed":955818,"internal_node_id":"0.0-6.0-162.0"},{"sim_score":2,"rt":4228,"stimulus":"[\"img/0866/945c6710-d15b-4a5b-a8f6-69af0850357f.jpg\",\"img/0864/87c467d3-abca-482f-ad80-3766c21b1bb3.jpg\"]","trial_type":"similarity","trial_index":169,"time_elapsed":961050,"internal_node_id":"0.0-6.0-163.0"},{"sim_score":2,"rt":3857,"stimulus":"[\"img/0766/e8052e17-9dae-4139-802b-6e590cb2d526.jpg\",\"img/0862/de9ad88c-b522-430a-8ee9-eb06a9f85df5.jpg\"]","trial_type":"similarity","trial_index":170,"time_elapsed":965910,"internal_node_id":"0.0-6.0-164.0"},{"sim_score":1,"rt":3066,"stimulus":"[\"img/0866/11a1d141-be5e-443c-98c1-a9d4d9e3dec0.jpg\",\"img/0874/8cdb1c07-1c32-46d2-981c-3636560fa6e5.jpg\"]","trial_type":"similarity","trial_index":171,"time_elapsed":969982,"internal_node_id":"0.0-6.0-165.0"},{"sim_score":7,"rt":2979,"stimulus":"[\"img/0862/e8cc3bdf-cc43-4565-bccf-492626c70953.jpg\",\"img/0860/c47fdead-eb02-4989-b078-26f4852f44fe.jpg\"]","trial_type":"similarity","trial_index":172,"time_elapsed":973965,"internal_node_id":"0.0-6.0-166.0"},{"sim_score":3,"rt":3170,"stimulus":"[\"img/0766/989c5c7f-1aff-4442-ac63-9d46acf4a891.jpg\",\"img/0901/168eb52c-c415-43f1-b5c8-e76e1a1ec247.jpg\"]","trial_type":"similarity","trial_index":173,"time_elapsed":981277,"internal_node_id":"0.0-6.0-167.0"},{"sim_score":6,"rt":4417,"stimulus":"[\"img/0862/92f0146c-20c4-482e-aef5-adb693790338.jpg\",\"img/0862/e0f1a4e9-e1b6-45f7-af67-89f334e6630d.jpg\"]","trial_type":"similarity","trial_index":174,"time_elapsed":986700,"internal_node_id":"0.0-6.0-168.0"},{"sim_score":5,"rt":4227,"stimulus":"[\"img/0894/9b1333fd-3561-43bf-aee5-99b7b7ca3dc3.jpg\",\"img/0764/c80b3e06-2ee3-4326-9678-340607eb5348.jpg\"]","trial_type":"similarity","trial_index":175,"time_elapsed":991931,"internal_node_id":"0.0-6.0-169.0"},{"sim_score":1,"rt":4555,"stimulus":"[\"img/0874/31e22c7c-99aa-40b1-bf03-dd73fa2df4d6.jpg\",\"img/0898/661621d4-a14e-487c-8c74-354134a29710.jpg\"]","trial_type":"similarity","trial_index":176,"time_elapsed":997489,"internal_node_id":"0.0-6.0-170.0"},{"sim_score":1,"rt":3662,"stimulus":"[\"img/0860/18dfed73-e36b-4487-a8bd-0b8cff8e3668.jpg\",\"img/0766/6d32752d-aa05-40dc-9541-640b6e9d6fa1.jpg\"]","trial_type":"similarity","trial_index":177,"time_elapsed":1002157,"internal_node_id":"0.0-6.0-171.0"},{"sim_score":1,"rt":5847,"stimulus":"[\"img/0898/b3290bf9-215b-4b45-b21a-65bdf73f142f.jpg\",\"img/0864/1d15626a-2f7c-410f-819c-0fa2c967e95e.jpg\"]","trial_type":"similarity","trial_index":178,"time_elapsed":1009008,"internal_node_id":"0.0-6.0-172.0"},{"sim_score":2,"rt":4363,"stimulus":"[\"img/0881/54ea8e77-c7e5-4197-b7fa-00b7020849a7.jpg\",\"img/0764/4eff630a-6426-4f8d-b2ba-b4d9842a0962.jpg\"]","trial_type":"similarity","trial_index":179,"time_elapsed":1014375,"internal_node_id":"0.0-6.0-173.0"},{"sim_score":1,"rt":3797,"stimulus":"[\"img/0898/c3cecf20-f7fd-45fa-97d0-dc0a63e8d6c0.jpg\",\"img/0868/77091fc7-a590-4ebb-b915-fdb2483a2399.jpg\"]","trial_type":"similarity","trial_index":180,"time_elapsed":1019179,"internal_node_id":"0.0-6.0-174.0"},{"sim_score":6,"rt":4667,"stimulus":"[\"img/0864/49150900-7f25-4ce8-8d10-9b47a71d1997.jpg\",\"img/0864/efcfbb1b-8197-44c9-b723-40d6c608dd3c.jpg\"]","trial_type":"similarity","trial_index":181,"time_elapsed":1024848,"internal_node_id":"0.0-6.0-175.0"},{"sim_score":2,"rt":4778,"stimulus":"[\"img/0899/93494f3b-d539-4075-b027-d82e344563da.jpg\",\"img/0862/4f0a3b4c-afbf-486e-b248-1d54982f54b4.jpg\"]","trial_type":"similarity","trial_index":182,"time_elapsed":1030631,"internal_node_id":"0.0-6.0-176.0"},{"sim_score":3,"rt":3171,"stimulus":"[\"img/0875/cff79b3a-a797-4393-9757-6275f999ec04.jpg\",\"img/0758/e38fd80d-18d0-42f3-b848-f930788e8bd7.jpg\"]","trial_type":"similarity","trial_index":183,"time_elapsed":1034805,"internal_node_id":"0.0-6.0-177.0"},{"sim_score":1,"rt":2867,"stimulus":"[\"img/0866/bf14b5bd-fb55-47db-86b9-4f8aeb9a6dad.jpg\",\"img/0901/6e2957f8-f5ab-46f4-87cc-bb50155a098b.jpg\"]","trial_type":"similarity","trial_index":184,"time_elapsed":1038675,"internal_node_id":"0.0-6.0-178.0"},{"sim_score":3,"rt":4959,"stimulus":"[\"img/0769/d1be2815-fa79-46e8-b5c3-7d81caaca490.jpg\",\"img/0874/3f471690-9788-4d03-90c7-f615aecef149.jpg\"]","trial_type":"similarity","trial_index":185,"time_elapsed":1044637,"internal_node_id":"0.0-6.0-179.0"},{"sim_score":2,"rt":2686,"stimulus":"[\"img/0875/5a716432-c6ca-4b1c-955a-2b8ac25198ee.jpg\",\"img/0881/f4e3e181-b3c9-4af2-a5a4-fc135ab70d2e.jpg\"]","trial_type":"similarity","trial_index":186,"time_elapsed":1048327,"internal_node_id":"0.0-6.0-180.0"},{"sim_score":5,"rt":3337,"stimulus":"[\"img/0866/c446214b-a368-4c65-ae39-ea46894256ab.jpg\",\"img/0868/09a9ef4d-d000-4cfa-a6aa-ebec7c2edeb4.jpg\"]","trial_type":"similarity","trial_index":187,"time_elapsed":1052670,"internal_node_id":"0.0-6.0-181.0"},{"sim_score":3,"rt":4980,"stimulus":"[\"img/0899/51a7a498-98c7-42d7-bca8-bc2d8f0b5831.jpg\",\"img/0758/caa93da2-9edf-49fa-96b9-32dedd8f5078.jpg\"]","trial_type":"similarity","trial_index":188,"time_elapsed":1058655,"internal_node_id":"0.0-6.0-182.0"},{"sim_score":1,"rt":2528,"stimulus":"[\"img/0874/ca76a855-4e77-4f2f-872a-0a718153e7ed.jpg\",\"img/0875/3ecb367d-e9eb-4826-8aaa-7aa72fb98019.jpg\"]","trial_type":"similarity","trial_index":189,"time_elapsed":1062188,"internal_node_id":"0.0-6.0-183.0"},{"sim_score":2,"rt":5292,"stimulus":"[\"img/0904/d23dd7be-7fe8-4435-82f7-bd592c01e6a1.jpg\",\"img/0862/064818ee-13d5-4618-bb24-21c7368ea278.jpg\"]","trial_type":"similarity","trial_index":190,"time_elapsed":1068487,"internal_node_id":"0.0-6.0-184.0"},{"sim_score":5,"rt":3494,"stimulus":"[\"img/0902/aa6fca32-82b0-4414-b20a-8f6f8aa5a2d2.jpg\",\"img/0766/a1ed3f0f-e338-4a26-8fe4-4370f0c9fa6e.jpg\"]","trial_type":"similarity","trial_index":191,"time_elapsed":1072987,"internal_node_id":"0.0-6.0-185.0"},{"sim_score":3,"rt":3237,"stimulus":"[\"img/0758/7fba58df-2a7a-4b76-8a8f-62739f97f271.jpg\",\"img/0769/a3cfbdeb-acb3-4eac-87fb-4b117f42d4f8.jpg\"]","trial_type":"similarity","trial_index":192,"time_elapsed":1077229,"internal_node_id":"0.0-6.0-186.0"},{"sim_score":5,"rt":5552,"stimulus":"[\"img/0881/ed4c971f-0873-4fc8-b6d6-e8bbd82f0bcc.jpg\",\"img/0881/f037e3b0-09cb-4a83-b2d9-6a71fe474e63.jpg\"]","trial_type":"similarity","trial_index":193,"time_elapsed":1083787,"internal_node_id":"0.0-6.0-187.0"},{"sim_score":3,"rt":3550,"stimulus":"[\"img/0758/6e95579b-5166-487c-b8cb-e417c6a218e3.jpg\",\"img/0866/d493a2c8-66eb-44b4-be02-2f327b700b7c.jpg\"]","trial_type":"similarity","trial_index":194,"time_elapsed":1088344,"internal_node_id":"0.0-6.0-188.0"},{"sim_score":2,"rt":4494,"stimulus":"[\"img/0764/c84fbfa8-521c-407a-9bd3-24f7308d896c.jpg\",\"img/0898/82231d4c-218b-4d0a-b50d-35a49b524e97.jpg\"]","trial_type":"similarity","trial_index":195,"time_elapsed":1093844,"internal_node_id":"0.0-6.0-189.0"},{"sim_score":1,"rt":3045,"stimulus":"[\"img/0903/8f7f9939-b8e6-433f-93dd-b362496c80a7.jpg\",\"img/0901/548d1110-7cb8-42a2-9927-9798875c8b5c.jpg\"]","trial_type":"similarity","trial_index":196,"time_elapsed":1097895,"internal_node_id":"0.0-6.0-190.0"},{"sim_score":7,"rt":3697,"stimulus":"[\"img/0902/d2c34af0-8c50-437d-8cc3-619195a3e8ba.jpg\",\"img/0898/ec565187-2e31-4fdd-9a5c-153d0c789ae0.jpg\"]","trial_type":"similarity","trial_index":197,"time_elapsed":1102598,"internal_node_id":"0.0-6.0-191.0"},{"sim_score":2,"rt":3034,"stimulus":"[\"img/0864/e8bd659f-aa43-4748-877e-3118e8b4e189.jpg\",\"img/0901/a2d7b2f6-396b-4d91-8403-de5361c74af7.jpg\"]","trial_type":"similarity","trial_index":198,"time_elapsed":1106636,"internal_node_id":"0.0-6.0-192.0"},{"sim_score":5,"rt":3134,"stimulus":"[\"img/0894/10f22b96-040c-44f4-950b-a4963f3f506c.jpg\",\"img/0881/4bd34581-94d8-4e88-8c89-5cef864ca3be.jpg\"]","trial_type":"similarity","trial_index":199,"time_elapsed":1110776,"internal_node_id":"0.0-6.0-193.0"},{"sim_score":6,"rt":2855,"stimulus":"[\"img/0868/8b0b8473-e2c0-4331-aa56-c3a5c29369da.jpg\",\"img/0868/1a62b2b2-18f5-466e-b564-5176a57c565e.jpg\"]","trial_type":"similarity","trial_index":200,"time_elapsed":1114635,"internal_node_id":"0.0-6.0-194.0"},{"sim_score":5,"rt":3539,"stimulus":"[\"img/0899/0e1d936a-dbe2-4afc-9f19-7b7a1ae6c9ed.jpg\",\"img/0764/50f1b062-d608-4bc0-ab25-b872dcf2ed93.jpg\"]","trial_type":"similarity","trial_index":201,"time_elapsed":1119180,"internal_node_id":"0.0-6.0-195.0"},{"sim_score":4,"rt":3419,"stimulus":"[\"img/0881/609a5e93-38b5-4940-8627-2bf8fad7f802.jpg\",\"img/0904/06dacdc5-2206-4fb8-92b7-88042d22833c.jpg\"]","trial_type":"similarity","trial_index":202,"time_elapsed":1123601,"internal_node_id":"0.0-6.0-196.0"},{"sim_score":3,"rt":2902,"stimulus":"[\"img/0864/6f631579-acf1-415c-a42c-1207f62a8d99.jpg\",\"img/0902/2a7ac123-414a-476a-9a96-4757b924baef.jpg\"]","trial_type":"similarity","trial_index":203,"time_elapsed":1127505,"internal_node_id":"0.0-6.0-197.0"},{"sim_score":6,"rt":2856,"stimulus":"[\"img/0894/c505c65a-cde2-4f2c-8cde-f8676f7c894d.jpg\",\"img/0904/5cceabc9-de1d-4c67-989b-c28a4ef77e79.jpg\"]","trial_type":"similarity","trial_index":204,"time_elapsed":1131364,"internal_node_id":"0.0-6.0-198.0"},{"sim_score":7,"rt":3471,"stimulus":"[\"img/0901/4ca4f962-40c0-4c59-b14a-3cd7b8c9029b.jpg\",\"img/0901/08d6d1d1-c043-43c4-bb08-d45e062822b9.jpg\"]","trial_type":"similarity","trial_index":205,"time_elapsed":1135841,"internal_node_id":"0.0-6.0-199.0"},{"sim_score":2,"rt":4070,"stimulus":"[\"img/0894/86201968-6e78-4d68-9b3a-d1692e066210.jpg\",\"img/0860/4f695df5-afac-4da7-9875-fee39b0b24ad.jpg\"]","trial_type":"similarity","trial_index":206,"time_elapsed":1140914,"internal_node_id":"0.0-6.0-200.0"},{"sim_score":2,"rt":3946,"stimulus":"[\"img/0898/68476bbb-34a1-42d9-8bc1-deab783d4489.jpg\",\"img/0903/b0a3c45f-467e-412f-a183-c9c1827f2e63.jpg\"]","trial_type":"similarity","trial_index":207,"time_elapsed":1145865,"internal_node_id":"0.0-6.0-201.0"},{"sim_score":1,"rt":3225,"stimulus":"[\"img/0864/ef9cbca0-4be8-435d-ad49-977259e80409.jpg\",\"img/0894/767a0eec-1064-46b1-b1aa-dfa02b0cd74e.jpg\"]","trial_type":"similarity","trial_index":208,"time_elapsed":1150095,"internal_node_id":"0.0-6.0-202.0"},{"sim_score":1,"rt":4227,"stimulus":"[\"img/0874/85eb9b8a-c4c6-4e5a-b8e7-363a87a82054.jpg\",\"img/0860/c7047cd2-7cc1-41b6-8a34-c0986774975f.jpg\"]","trial_type":"similarity","trial_index":209,"time_elapsed":1155326,"internal_node_id":"0.0-6.0-203.0"},{"sim_score":1,"rt":3055,"stimulus":"[\"img/0862/fb26cb07-d5a9-4653-813c-f41609f26cd5.jpg\",\"img/0875/ebf7653f-ff45-4e9f-af58-2c042ab3cd2b.jpg\"]","trial_type":"similarity","trial_index":210,"time_elapsed":1159387,"internal_node_id":"0.0-6.0-204.0"},{"sim_score":3,"rt":2879,"stimulus":"[\"img/0867/5e07b34d-b40f-4b1c-ac10-49975bace45f.jpg\",\"img/0881/62a64f90-7a72-4aee-a1a1-0c548ac9bdda.jpg\"]","trial_type":"similarity","trial_index":211,"time_elapsed":1163268,"internal_node_id":"0.0-6.0-205.0"},{"sim_score":4,"rt":3720,"stimulus":"[\"img/0901/effc03f6-8f9d-46db-a66c-16fc83891c5c.jpg\",\"img/0902/3f0eeac5-c996-4026-a376-563ce8f28521.jpg\"]","trial_type":"similarity","trial_index":212,"time_elapsed":1167993,"internal_node_id":"0.0-6.0-206.0"},{"sim_score":2,"rt":3406,"stimulus":"[\"img/0899/66ab3178-c3fe-4455-ad17-d5952b08e018.jpg\",\"img/0864/3651d070-2fc5-4848-b6a6-088a2d9ac5c9.jpg\"]","trial_type":"similarity","trial_index":213,"time_elapsed":1172404,"internal_node_id":"0.0-6.0-207.0"},{"sim_score":2,"rt":2943,"stimulus":"[\"img/0901/148b747a-7392-437e-8823-33053c5dff3f.jpg\",\"img/0769/91acb237-65a3-4d0b-9748-af5c7b83d3c7.jpg\"]","trial_type":"similarity","trial_index":214,"time_elapsed":1176352,"internal_node_id":"0.0-6.0-208.0"},{"sim_score":5,"rt":3259,"stimulus":"[\"img/0902/7499db23-3a41-41ea-ab5b-6ab4d4c3ed35.jpg\",\"img/0902/24d10fe7-314f-4d5a-8c7b-b43121bba0a4.jpg\"]","trial_type":"similarity","trial_index":215,"time_elapsed":1186083,"internal_node_id":"0.0-6.0-209.0"},{"view_history":"[{\"page_index\":0,\"viewing_time\":4331}]","rt":4332,"trial_type":"instructions","trial_index":216,"time_elapsed":1191416,"internal_node_id":"0.0-7.0"},{"rt":32550,"responses":"{\"Q0\":\"Orange-crowned Warbler\"}","answer":["Nashville Warbler"],"trial_type":"image-multi-choice","trial_index":217,"time_elapsed":1224976,"internal_node_id":"0.0-8.0-0.0"},{"rt":7314,"responses":"{\"Q0\":\"Black-and-white Warbler\"}","answer":["Black-and-white Warbler"],"trial_type":"image-multi-choice","trial_index":218,"time_elapsed":1233300,"internal_node_id":"0.0-8.0-1.0"},{"rt":11848,"responses":"{\"Q0\":\"Blackburnian Warbler\"}","answer":["Townsend's Warbler"],"trial_type":"image-multi-choice","trial_index":219,"time_elapsed":1246159,"internal_node_id":"0.0-8.0-2.0"},{"rt":22459,"responses":"{\"Q0\":\"Lark Sparrow\"}","answer":["Lark Sparrow"],"trial_type":"image-multi-choice","trial_index":220,"time_elapsed":1269626,"internal_node_id":"0.0-8.0-3.0"},{"rt":6607,"responses":"{\"Q0\":\"Yellow Warbler\"}","answer":["Yellow Warbler"],"trial_type":"image-multi-choice","trial_index":221,"time_elapsed":1277243,"internal_node_id":"0.0-8.0-4.0"},{"rt":30862,"responses":"{\"Q0\":\"Orange-crowned Warbler\"}","answer":["Orange-crowned Warbler"],"trial_type":"image-multi-choice","trial_index":222,"time_elapsed":1309113,"internal_node_id":"0.0-8.0-5.0"},{"rt":7813,"responses":"{\"Q0\":\"White-throated Sparrow\"}","answer":["White-throated Sparrow"],"trial_type":"image-multi-choice","trial_index":223,"time_elapsed":1317934,"internal_node_id":"0.0-8.0-6.0"},{"rt":8643,"responses":"{\"Q0\":\"Fox Sparrow\"}","answer":["Fox Sparrow"],"trial_type":"image-multi-choice","trial_index":224,"time_elapsed":1327586,"internal_node_id":"0.0-8.0-7.0"},{"rt":21749,"responses":"{\"Q0\":\"Song Sparrow\"}","answer":["Song Sparrow"],"trial_type":"image-multi-choice","trial_index":225,"time_elapsed":1350345,"internal_node_id":"0.0-8.0-8.0"},{"rt":14734,"responses":"{\"Q0\":\"Townsend's Warbler\"}","answer":["Blackburnian Warbler"],"trial_type":"image-multi-choice","trial_index":226,"time_elapsed":1366084,"internal_node_id":"0.0-8.0-9.0"},{"rt":9756,"responses":"{\"Q0\":\"Lincoln's Sparrow\"}","answer":["Vesper Sparrow"],"trial_type":"image-multi-choice","trial_index":227,"time_elapsed":1376850,"internal_node_id":"0.0-8.0-10.0"},{"rt":6712,"responses":"{\"Q0\":\"White-throated Sparrow\"}","answer":["White-crowned Sparrow"],"trial_type":"image-multi-choice","trial_index":228,"time_elapsed":1384568,"internal_node_id":"0.0-8.0-11.0"},{"rt":13774,"responses":"{\"Q0\":\"Vesper Sparrow\"}","answer":["American Tree Sparrow"],"trial_type":"image-multi-choice","trial_index":229,"time_elapsed":1399350,"internal_node_id":"0.0-8.0-12.0"},{"rt":25658,"responses":"{\"Q0\":\"Nashville Warbler\"}","answer":["Tennessee Warbler"],"trial_type":"image-multi-choice","trial_index":230,"time_elapsed":1426013,"internal_node_id":"0.0-8.0-13.0"},{"rt":11546,"responses":"{\"Q0\":\"Tennessee Warbler\"}","answer":["Magnolia Warbler"],"trial_type":"image-multi-choice","trial_index":231,"time_elapsed":1438568,"internal_node_id":"0.0-8.0-14.0"},{"rt":8386,"responses":"{\"Q0\":\"Northern Waterthrush\"}","answer":["Northern Waterthrush"],"trial_type":"image-multi-choice","trial_index":232,"time_elapsed":1447961,"internal_node_id":"0.0-8.0-15.0"},{"rt":11841,"responses":"{\"Q0\":\"Swamp Sparrow\"}","answer":["Chipping Sparrow"],"trial_type":"image-multi-choice","trial_index":233,"time_elapsed":1460809,"internal_node_id":"0.0-8.0-16.0"},{"rt":16070,"responses":"{\"Q0\":\"Chipping Sparrow\"}","answer":["Swamp Sparrow"],"trial_type":"image-multi-choice","trial_index":234,"time_elapsed":1477886,"internal_node_id":"0.0-8.0-17.0"},{"rt":8026,"responses":"{\"Q0\":\"American Tree Sparrow\"}","answer":["Lincoln's Sparrow"],"trial_type":"image-multi-choice","trial_index":235,"time_elapsed":1486920,"internal_node_id":"0.0-8.0-18.0"},{"rt":5126,"responses":"{\"Q0\":\"Ovenbird\"}","answer":["Ovenbird"],"trial_type":"image-multi-choice","trial_index":236,"time_elapsed":1493051,"internal_node_id":"0.0-8.0-19.0"}]