[{"view_history":"[{\"page_index\":0,\"viewing_time\":39718}]","rt":39718,"trial_type":"instructions","trial_index":0,"time_elapsed":39718,"internal_node_id":"0.0-0.0"},{"sim_score":3,"rt":9269,"stimulus":"[\"img/866.jpg\",\"img/868.jpg\"]","trial_type":"similarity_demo","trial_index":1,"time_elapsed":49998,"internal_node_id":"0.0-1.0"},{"view_history":"[{\"page_index\":0,\"viewing_time\":26813}]","rt":26813,"trial_type":"instructions","trial_index":2,"time_elapsed":77812,"internal_node_id":"0.0-2.0"},{"sim_score":4,"rt":8891,"stimulus":"[\"img/766.jpg\",\"img/867.jpg\"]","trial_type":"similarity_demo","trial_index":3,"time_elapsed":87709,"internal_node_id":"0.0-3.0"},{"view_history":"[{\"page_index\":0,\"viewing_time\":13533}]","rt":13533,"trial_type":"instructions","trial_index":4,"time_elapsed":102248,"internal_node_id":"0.0-4.0"},{"view_history":"[{\"page_index\":0,\"viewing_time\":76780}]","rt":76780,"trial_type":"instructions","trial_index":5,"time_elapsed":180029,"internal_node_id":"0.0-5.0"},{"sim_score":2,"rt":10206,"stimulus":"[\"img/0868/8b0b8473-e2c0-4331-aa56-c3a5c29369da.jpg\",\"img/0901/33b51a81-06d9-46d9-9d4f-5a2d6d6b8058.jpg\"]","trial_type":"similarity","trial_index":6,"time_elapsed":191246,"internal_node_id":"0.0-6.0-0.0"},{"sim_score":4,"rt":7438,"stimulus":"[\"img/0769/96556ef3-7fac-4c9d-8281-1cb0ea5081bc.jpg\",\"img/0867/bf560d4f-dee3-4f11-a385-705cc1aa5f3c.jpg\"]","trial_type":"similarity","trial_index":7,"time_elapsed":199698,"internal_node_id":"0.0-6.0-1.0"},{"sim_score":6,"rt":8253,"stimulus":"[\"img/0766/f3276cc4-65de-4c2d-88d5-6cfebce14b8f.jpg\",\"img/0898/4184e5a2-84ea-4f36-9b42-ae58646f6f87.jpg\"]","trial_type":"similarity","trial_index":8,"time_elapsed":208958,"internal_node_id":"0.0-6.0-2.0"},{"sim_score":6,"rt":8364,"stimulus":"[\"img/0902/2a7ac123-414a-476a-9a96-4757b924baef.jpg\",\"img/0881/4da99fdd-1f40-4bbb-8e21-8833eef313f5.jpg\"]","trial_type":"similarity","trial_index":9,"time_elapsed":218341,"internal_node_id":"0.0-6.0-3.0"},{"sim_score":4,"rt":8804,"stimulus":"[\"img/0894/86201968-6e78-4d68-9b3a-d1692e066210.jpg\",\"img/0894/5c7677b0-a4f1-479e-b274-7822c415175a.jpg\"]","trial_type":"similarity","trial_index":10,"time_elapsed":228162,"internal_node_id":"0.0-6.0-4.0"},{"sim_score":2,"rt":8496,"stimulus":"[\"img/0874/eba003b4-cdab-4eee-8bc3-f064c7d94165.jpg\",\"img/0899/f58b8d2f-b19d-4b59-8b94-8834be92e4ba.jpg\"]","trial_type":"similarity","trial_index":11,"time_elapsed":237677,"internal_node_id":"0.0-6.0-5.0"},{"sim_score":5,"rt":7016,"stimulus":"[\"img/0904/09934646-45d2-4147-8fec-64a22a5ac822.jpg\",\"img/0764/fb92924f-5cfe-4b89-b130-0cce8cc5636b.jpg\"]","trial_type":"similarity","trial_index":12,"time_elapsed":245701,"internal_node_id":"0.0-6.0-6.0"},{"sim_score":5,"rt":11051,"stimulus":"[\"img/0899/56a605c3-d0a2-4215-89e1-779279d85a7c.jpg\",\"img/0898/79233891-305a-4a6a-8ddf-5c8604858203.jpg\"]","trial_type":"similarity","trial_index":13,"time_elapsed":257770,"internal_node_id":"0.0-6.0-7.0"},{"sim_score":6,"rt":7462,"stimulus":"[\"img/0874/a82926a3-0b43-4add-803c-d5f9ea7798ee.jpg\",\"img/0903/bf0a7d60-eca5-44b0-bafd-baf21db9904b.jpg\"]","trial_type":"similarity","trial_index":14,"time_elapsed":266237,"internal_node_id":"0.0-6.0-8.0"},{"sim_score":7,"rt":5661,"stimulus":"[\"img/0881/7e31e5dc-2240-4b1b-b5a0-3acd980099ef.jpg\",\"img/0758/821c68d3-5cb0-4eae-8659-30e6263fca39.jpg\"]","trial_type":"similarity","trial_index":15,"time_elapsed":272909,"internal_node_id":"0.0-6.0-9.0"},{"sim_score":6,"rt":6039,"stimulus":"[\"img/0898/f3a3f225-1248-4ac7-b93b-f0ff28485bf3.jpg\",\"img/0901/b123d109-47b4-4f9a-80c9-9bb16da42efa.jpg\"]","trial_type":"similarity","trial_index":16,"time_elapsed":279953,"internal_node_id":"0.0-6.0-10.0"},{"sim_score":6,"rt":8704,"stimulus":"[\"img/0903/2a9c8033-3e70-47fa-816d-97ee1813a3a3.jpg\",\"img/0769/f73c5138-2f4c-4354-981c-129dff9cc734.jpg\"]","trial_type":"similarity","trial_index":17,"time_elapsed":289660,"internal_node_id":"0.0-6.0-11.0"},{"sim_score":2,"rt":6063,"stimulus":"[\"img/0764/438c0217-036f-43c9-9b87-f43144e46011.jpg\",\"img/0868/15dd6fd7-791e-4b53-b203-195d617521a4.jpg\"]","trial_type":"similarity","trial_index":18,"time_elapsed":296741,"internal_node_id":"0.0-6.0-12.0"},{"sim_score":2,"rt":8094,"stimulus":"[\"img/0867/1719a35d-f085-48c0-9099-16c94fe418b4.jpg\",\"img/0903/07b445ee-0cdb-4d2c-a23b-d727613f4059.jpg\"]","trial_type":"similarity","trial_index":19,"time_elapsed":305848,"internal_node_id":"0.0-6.0-13.0"},{"sim_score":2,"rt":6392,"stimulus":"[\"img/0766/d14acac4-7db1-4b07-8f8f-302437326fc0.jpg\",\"img/0758/3ddd05d3-557e-4ee7-8b78-9d2d681d8ae2.jpg\"]","trial_type":"similarity","trial_index":20,"time_elapsed":313244,"internal_node_id":"0.0-6.0-14.0"},{"sim_score":3,"rt":7097,"stimulus":"[\"img/0902/8af4182a-9af9-4212-a436-9195555112d6.jpg\",\"img/0860/5383b320-1518-4095-a58e-5cc1ae30b64c.jpg\"]","trial_type":"similarity","trial_index":21,"time_elapsed":321352,"internal_node_id":"0.0-6.0-15.0"},{"sim_score":6,"rt":5984,"stimulus":"[\"img/0769/c34b7763-8ff2-46d5-9e92-f1d8f3bedbd8.jpg\",\"img/0875/42910c99-5463-450a-a0f8-d4d060a11455.jpg\"]","trial_type":"similarity","trial_index":22,"time_elapsed":328352,"internal_node_id":"0.0-6.0-16.0"},{"sim_score":6,"rt":6423,"stimulus":"[\"img/0904/2f88ce53-02d0-4f95-a082-182c56a0eeb4.jpg\",\"img/0866/c446214b-a368-4c65-ae39-ea46894256ab.jpg\"]","trial_type":"similarity","trial_index":23,"time_elapsed":335780,"internal_node_id":"0.0-6.0-17.0"},{"sim_score":7,"rt":6752,"stimulus":"[\"img/0875/03c3c331-738b-4446-af92-3d7386b08c2e.jpg\",\"img/0875/527ced51-8e53-4aab-ab05-86df219104c0.jpg\"]","trial_type":"similarity","trial_index":24,"time_elapsed":343540,"internal_node_id":"0.0-6.0-18.0"},{"sim_score":7,"rt":5340,"stimulus":"[\"img/0758/caa93da2-9edf-49fa-96b9-32dedd8f5078.jpg\",\"img/0758/7fba58df-2a7a-4b76-8a8f-62739f97f271.jpg\"]","trial_type":"similarity","trial_index":25,"time_elapsed":349888,"internal_node_id":"0.0-6.0-19.0"},{"sim_score":4,"rt":5870,"stimulus":"[\"img/0902/d2c34af0-8c50-437d-8cc3-619195a3e8ba.jpg\",\"img/0874/31e22c7c-99aa-40b1-bf03-dd73fa2df4d6.jpg\"]","trial_type":"similarity","trial_index":26,"time_elapsed":356764,"internal_node_id":"0.0-6.0-20.0"},{"sim_score":4,"rt":8793,"stimulus":"[\"img/0764/c01e2d65-6586-441b-bef5-3c96fcd85380.jpg\",\"img/0769/7c50e5f5-cc38-4d48-b009-fbe17bcea61c.jpg\"]","trial_type":"similarity","trial_index":27,"time_elapsed":366568,"internal_node_id":"0.0-6.0-21.0"},{"sim_score":1,"rt":6565,"stimulus":"[\"img/0901/6e2957f8-f5ab-46f4-87cc-bb50155a098b.jpg\",\"img/0874/ca76a855-4e77-4f2f-872a-0a718153e7ed.jpg\"]","trial_type":"similarity","trial_index":28,"time_elapsed":374140,"internal_node_id":"0.0-6.0-22.0"},{"sim_score":3,"rt":6659,"stimulus":"[\"img/0875/3ecb367d-e9eb-4826-8aaa-7aa72fb98019.jpg\",\"img/0903/2c7b4aed-6038-4aac-958a-e3e58341c313.jpg\"]","trial_type":"similarity","trial_index":29,"time_elapsed":381812,"internal_node_id":"0.0-6.0-23.0"},{"sim_score":6,"rt":7240,"stimulus":"[\"img/0769/b664b502-a86c-46c1-ad6f-5ebffc2e1bd3.jpg\",\"img/0881/dea58fad-b4f1-41d9-bd3f-916eff19a3fd.jpg\"]","trial_type":"similarity","trial_index":30,"time_elapsed":390056,"internal_node_id":"0.0-6.0-24.0"},{"sim_score":7,"rt":5044,"stimulus":"[\"img/0867/85a96c62-548f-4994-9553-819e03c3135a.jpg\",\"img/0904/06dacdc5-2206-4fb8-92b7-88042d22833c.jpg\"]","trial_type":"similarity","trial_index":31,"time_elapsed":396112,"internal_node_id":"0.0-6.0-25.0"},{"sim_score":7,"rt":4782,"stimulus":"[\"img/0860/18dfed73-e36b-4487-a8bd-0b8cff8e3668.jpg\",\"img/0881/7e822106-76f7-4b10-a805-14dc68b2cfaf.jpg\"]","trial_type":"similarity","trial_index":32,"time_elapsed":401904,"internal_node_id":"0.0-6.0-26.0"},{"sim_score":7,"rt":4628,"stimulus":"[\"img/0866/386235d2-6857-41e7-88a8-25cfc3430025.jpg\",\"img/0866/93a27239-8317-4e08-98ca-d8b1ff298e07.jpg\"]","trial_type":"similarity","trial_index":33,"time_elapsed":407537,"internal_node_id":"0.0-6.0-27.0"},{"sim_score":2,"rt":5330,"stimulus":"[\"img/0764/d7f3ac54-318a-4dac-a06b-62bed34d01a4.jpg\",\"img/0862/064818ee-13d5-4618-bb24-21c7368ea278.jpg\"]","trial_type":"similarity","trial_index":34,"time_elapsed":413882,"internal_node_id":"0.0-6.0-28.0"},{"sim_score":6,"rt":6831,"stimulus":"[\"img/0904/da170c1b-9651-4f08-b231-2bdd1d9a046f.jpg\",\"img/0758/d57c2592-a317-4f63-91be-91a3a9afd222.jpg\"]","trial_type":"similarity","trial_index":35,"time_elapsed":421717,"internal_node_id":"0.0-6.0-29.0"},{"sim_score":5,"rt":8695,"stimulus":"[\"img/0894/e5edf723-72a5-4673-8441-6c1734a8929b.jpg\",\"img/0899/565ccdd9-0933-4536-a625-3c0e25a713dd.jpg\"]","trial_type":"similarity","trial_index":36,"time_elapsed":431429,"internal_node_id":"0.0-6.0-30.0"},{"sim_score":4,"rt":8112,"stimulus":"[\"img/0860/99c589b9-9140-4d17-90c0-b344323edcda.jpg\",\"img/0904/5aec2708-cf14-4a58-aa30-9a8a61c1be0e.jpg\"]","trial_type":"similarity","trial_index":37,"time_elapsed":440557,"internal_node_id":"0.0-6.0-31.0"},{"sim_score":7,"rt":4459,"stimulus":"[\"img/0874/7e4f2150-3b59-4a36-b5da-a4e0ba410531.jpg\",\"img/0881/f037e3b0-09cb-4a83-b2d9-6a71fe474e63.jpg\"]","trial_type":"similarity","trial_index":38,"time_elapsed":446021,"internal_node_id":"0.0-6.0-32.0"},{"sim_score":3,"rt":5193,"stimulus":"[\"img/0881/20af39f5-373d-4a55-a437-2dc4c0382c46.jpg\",\"img/0899/0e1d936a-dbe2-4afc-9f19-7b7a1ae6c9ed.jpg\"]","trial_type":"similarity","trial_index":39,"time_elapsed":452217,"internal_node_id":"0.0-6.0-33.0"},{"sim_score":6,"rt":5648,"stimulus":"[\"img/0866/f756f7d1-9ad8-4a34-9ef6-7a443d705bfe.jpg\",\"img/0862/d0ca4c78-fc35-46ed-bdcc-8e124283c53e.jpg\"]","trial_type":"similarity","trial_index":40,"time_elapsed":458874,"internal_node_id":"0.0-6.0-34.0"},{"sim_score":2,"rt":6316,"stimulus":"[\"img/0868/09a9ef4d-d000-4cfa-a6aa-ebec7c2edeb4.jpg\",\"img/0894/3adef67d-7676-4995-80b2-bb31b8aca3ef.jpg\"]","trial_type":"similarity","trial_index":41,"time_elapsed":466202,"internal_node_id":"0.0-6.0-35.0"},{"sim_score":7,"rt":4997,"stimulus":"[\"img/0860/524b2e98-5767-4d53-942c-ebae6925659b.jpg\",\"img/0860/29a21a9f-54bb-4093-ad3f-04823ceaa89f.jpg\"]","trial_type":"similarity","trial_index":42,"time_elapsed":472204,"internal_node_id":"0.0-6.0-36.0"},{"sim_score":7,"rt":4867,"stimulus":"[\"img/0862/847e5208-38ec-4f36-949c-296cdd7424ee.jpg\",\"img/0864/e8bd659f-aa43-4748-877e-3118e8b4e189.jpg\"]","trial_type":"similarity","trial_index":43,"time_elapsed":478080,"internal_node_id":"0.0-6.0-37.0"},{"sim_score":1,"rt":5162,"stimulus":"[\"img/0766/006035d8-c736-4daf-bbe4-a9e373af9da6.jpg\",\"img/0866/6f2a90d7-14f1-4f1b-bd64-fc0af6b9fe44.jpg\"]","trial_type":"similarity","trial_index":44,"time_elapsed":484260,"internal_node_id":"0.0-6.0-38.0"},{"sim_score":2,"rt":7382,"stimulus":"[\"img/0875/5a716432-c6ca-4b1c-955a-2b8ac25198ee.jpg\",\"img/0898/a114b375-cb89-44ba-9498-74213f1ecdee.jpg\"]","trial_type":"similarity","trial_index":45,"time_elapsed":492656,"internal_node_id":"0.0-6.0-39.0"},{"sim_score":7,"rt":6123,"stimulus":"[\"img/0766/33aa9ebb-c9f5-418f-8c8b-c77861889568.jpg\",\"img/0769/11518cb3-13ea-4dd0-890c-30cfab728ade.jpg\"]","trial_type":"similarity","trial_index":46,"time_elapsed":499788,"internal_node_id":"0.0-6.0-40.0"},{"sim_score":2,"rt":5503,"stimulus":"[\"img/0874/85eb9b8a-c4c6-4e5a-b8e7-363a87a82054.jpg\",\"img/0764/4eff630a-6426-4f8d-b2ba-b4d9842a0962.jpg\"]","trial_type":"similarity","trial_index":47,"time_elapsed":550388,"internal_node_id":"0.0-6.0-41.0"},{"sim_score":4,"rt":7987,"stimulus":"[\"img/0868/5fa7f9d0-f0e5-454c-8224-74d964818f56.jpg\",\"img/0902/24d10fe7-314f-4d5a-8c7b-b43121bba0a4.jpg\"]","trial_type":"similarity","trial_index":48,"time_elapsed":559392,"internal_node_id":"0.0-6.0-42.0"},{"sim_score":1,"rt":7480,"stimulus":"[\"img/0875/a4935837-7d3c-4df6-88c1-36a94d4991ca.jpg\",\"img/0899/93494f3b-d539-4075-b027-d82e344563da.jpg\"]","trial_type":"similarity","trial_index":49,"time_elapsed":567884,"internal_node_id":"0.0-6.0-43.0"},{"sim_score":7,"rt":5922,"stimulus":"[\"img/0866/bf14b5bd-fb55-47db-86b9-4f8aeb9a6dad.jpg\",\"img/0860/4a022222-056d-461c-ab02-39fac9647552.jpg\"]","trial_type":"similarity","trial_index":50,"time_elapsed":574816,"internal_node_id":"0.0-6.0-44.0"},{"sim_score":2,"rt":6638,"stimulus":"[\"img/0766/00891401-e4c9-4ce1-bc19-f70740d174bc.jpg\",\"img/0903/e2e55a9e-0397-4dc0-8adf-4a54cfefe1fe.jpg\"]","trial_type":"similarity","trial_index":51,"time_elapsed":582460,"internal_node_id":"0.0-6.0-45.0"},{"sim_score":3,"rt":9973,"stimulus":"[\"img/0901/fb0a8e69-7f19-4e6e-a6bb-a48f97f9b4f3.jpg\",\"img/0904/4b8daf2a-13a9-4ea9-9e0b-b265b6e933e7.jpg\"]","trial_type":"similarity","trial_index":52,"time_elapsed":593437,"internal_node_id":"0.0-6.0-46.0"},{"sim_score":1,"rt":6128,"stimulus":"[\"img/0758/d41c06bf-ebaf-454b-91c6-1a17f917b659.jpg\",\"img/0902/af40b98b-3d23-4d95-b401-49ba5783ce39.jpg\"]","trial_type":"similarity","trial_index":53,"time_elapsed":600585,"internal_node_id":"0.0-6.0-47.0"},{"sim_score":7,"rt":13417,"stimulus":"[\"img/0764/a3226bc4-dcc3-4608-bde8-1414d685ce5c.jpg\",\"img/0764/ba0c0955-acbb-457d-b1c2-f006b88121d5.jpg\"]","trial_type":"similarity","trial_index":54,"time_elapsed":615017,"internal_node_id":"0.0-6.0-48.0"},{"sim_score":1,"rt":5993,"stimulus":"[\"img/0866/07c9c966-3c8d-40e7-8128-92b2acbaed5d.jpg\",\"img/0902/62f11694-7ed7-4cb7-8a73-9e95c43824e7.jpg\"]","trial_type":"similarity","trial_index":55,"time_elapsed":622013,"internal_node_id":"0.0-6.0-49.0"},{"sim_score":1,"rt":8488,"stimulus":"[\"img/0764/713cc27e-2338-4486-bfe9-5f5725fbd7a0.jpg\",\"img/0758/e1ba5e53-addc-436a-b428-d34fc1b130dc.jpg\"]","trial_type":"similarity","trial_index":56,"time_elapsed":631505,"internal_node_id":"0.0-6.0-50.0"},{"sim_score":1,"rt":6151,"stimulus":"[\"img/0898/881e2a85-d5c2-49be-a0c6-8a6ce2c4af08.jpg\",\"img/0894/6b2e9509-8699-42b7-9582-7741df0ba2d7.jpg\"]","trial_type":"similarity","trial_index":57,"time_elapsed":638665,"internal_node_id":"0.0-6.0-51.0"},{"sim_score":7,"rt":3951,"stimulus":"[\"img/0875/d59ff733-eaff-4ee2-9443-06954dd0bcb6.jpg\",\"img/0866/02f5e6b9-52b7-448c-9708-5b460d0c9a23.jpg\"]","trial_type":"similarity","trial_index":58,"time_elapsed":643621,"internal_node_id":"0.0-6.0-52.0"},{"sim_score":7,"rt":6342,"stimulus":"[\"img/0904/9d30eff1-46ef-4453-b11e-124ef8145c00.jpg\",\"img/0904/0d25eb24-bb20-4e8d-9787-8b489558b4cb.jpg\"]","trial_type":"similarity","trial_index":59,"time_elapsed":650969,"internal_node_id":"0.0-6.0-53.0"},{"sim_score":4,"rt":11351,"stimulus":"[\"img/0769/db94b61b-a5a7-4861-9d32-7b02ad194fb0.jpg\",\"img/0769/ecda2fb3-556b-43ba-8a67-e87dd75ff2b4.jpg\"]","trial_type":"similarity","trial_index":60,"time_elapsed":663325,"internal_node_id":"0.0-6.0-54.0"},{"sim_score":5,"rt":8096,"stimulus":"[\"img/0898/661621d4-a14e-487c-8c74-354134a29710.jpg\",\"img/0758/2fa3e613-e676-4e6e-bd12-705327eeb3e1.jpg\"]","trial_type":"similarity","trial_index":61,"time_elapsed":672427,"internal_node_id":"0.0-6.0-55.0"},{"sim_score":6,"rt":6086,"stimulus":"[\"img/0769/f6396414-6788-4d59-9683-de153298d89c.jpg\",\"img/0902/f3cfec34-482c-4bdb-9c92-19ea6cfce183.jpg\"]","trial_type":"similarity","trial_index":62,"time_elapsed":679517,"internal_node_id":"0.0-6.0-56.0"},{"sim_score":7,"rt":5367,"stimulus":"[\"img/0864/3d4de670-b290-4285-9c3d-12a0e3af44e9.jpg\",\"img/0881/e046471a-35b4-4159-bbf7-3cfd201bef66.jpg\"]","trial_type":"similarity","trial_index":63,"time_elapsed":685889,"internal_node_id":"0.0-6.0-57.0"},{"sim_score":7,"rt":6759,"stimulus":"[\"img/0758/7ffbc76b-1fc1-432c-8f7e-9ec8d1b3f643.jpg\",\"img/0868/fd307a36-9a3a-47d7-ab7c-f810d0b35040.jpg\"]","trial_type":"similarity","trial_index":64,"time_elapsed":693653,"internal_node_id":"0.0-6.0-58.0"},{"sim_score":1,"rt":5835,"stimulus":"[\"img/0862/47ed5efd-4ec9-4b74-bb4e-a5f5cf0c3e7d.jpg\",\"img/0769/a3cfbdeb-acb3-4eac-87fb-4b117f42d4f8.jpg\"]","trial_type":"similarity","trial_index":65,"time_elapsed":700493,"internal_node_id":"0.0-6.0-59.0"},{"sim_score":2,"rt":6195,"stimulus":"[\"img/0764/56441045-b648-4ede-9632-3e9c0227080b.jpg\",\"img/0903/5248eedd-7e6a-4d39-91b0-06ec227f3ed0.jpg\"]","trial_type":"similarity","trial_index":66,"time_elapsed":707692,"internal_node_id":"0.0-6.0-60.0"},{"sim_score":7,"rt":7139,"stimulus":"[\"img/0899/8abe6c69-822c-436c-9bf2-96c818b49ba5.jpg\",\"img/0899/a05bea16-2bb4-4cb9-b8fb-4ff975db6971.jpg\"]","trial_type":"similarity","trial_index":67,"time_elapsed":715836,"internal_node_id":"0.0-6.0-61.0"},{"sim_score":7,"rt":4404,"stimulus":"[\"img/0860/c3379ff7-0763-48fe-a1ec-7ea3d611bc7a.jpg\",\"img/0875/90da8d75-108a-44ad-b999-e21fee3860d3.jpg\"]","trial_type":"similarity","trial_index":68,"time_elapsed":721244,"internal_node_id":"0.0-6.0-62.0"},{"sim_score":7,"rt":4867,"stimulus":"[\"img/0868/7b212364-ff5f-4e28-9241-7eb6ea00161b.jpg\",\"img/0874/995f0332-0439-4eb4-add3-957335dbf6d9.jpg\"]","trial_type":"similarity","trial_index":69,"time_elapsed":727116,"internal_node_id":"0.0-6.0-63.0"},{"sim_score":7,"rt":4963,"stimulus":"[\"img/0758/53f35650-e455-4b53-8be4-c3c8271c6466.jpg\",\"img/0862/4f0a3b4c-afbf-486e-b248-1d54982f54b4.jpg\"]","trial_type":"similarity","trial_index":70,"time_elapsed":733084,"internal_node_id":"0.0-6.0-64.0"},{"sim_score":5,"rt":8821,"stimulus":"[\"img/0904/73920552-103b-4c9c-9ece-e0b8376b4504.jpg\",\"img/0898/b3290bf9-215b-4b45-b21a-65bdf73f142f.jpg\"]","trial_type":"similarity","trial_index":71,"time_elapsed":742908,"internal_node_id":"0.0-6.0-65.0"},{"sim_score":7,"rt":4952,"stimulus":"[\"img/0881/f4e3e181-b3c9-4af2-a5a4-fc135ab70d2e.jpg\",\"img/0866/620cd1aa-0800-4414-8f6e-90342e7a99ad.jpg\"]","trial_type":"similarity","trial_index":72,"time_elapsed":748864,"internal_node_id":"0.0-6.0-66.0"},{"sim_score":2,"rt":5351,"stimulus":"[\"img/0867/f8159067-056c-41f1-a136-c529fe5e970a.jpg\",\"img/0898/a8f16b02-e19f-423b-86c3-a36562ae1f9b.jpg\"]","trial_type":"similarity","trial_index":73,"time_elapsed":755220,"internal_node_id":"0.0-6.0-67.0"},{"sim_score":6,"rt":6971,"stimulus":"[\"img/0902/fbef27fa-ac83-4936-ab78-9d1c20a383e1.jpg\",\"img/0764/c0b03adb-bd0a-4b96-a915-a827c2fd5211.jpg\"]","trial_type":"similarity","trial_index":74,"time_elapsed":763196,"internal_node_id":"0.0-6.0-68.0"},{"sim_score":7,"rt":3531,"stimulus":"[\"img/0875/cff79b3a-a797-4393-9757-6275f999ec04.jpg\",\"img/0867/6e19c858-b606-45b2-a4c6-910a73f1d82c.jpg\"]","trial_type":"similarity","trial_index":75,"time_elapsed":767733,"internal_node_id":"0.0-6.0-69.0"},{"sim_score":7,"rt":5823,"stimulus":"[\"img/0766/a1ed3f0f-e338-4a26-8fe4-4370f0c9fa6e.jpg\",\"img/0764/da207710-e7e4-4f42-b2e6-99b5f357f433.jpg\"]","trial_type":"similarity","trial_index":76,"time_elapsed":774561,"internal_node_id":"0.0-6.0-70.0"},{"sim_score":7,"rt":5640,"stimulus":"[\"img/0894/8cadb87a-7001-4e47-99fb-1867bebf1668.jpg\",\"img/0867/f26f6b60-f772-4f4c-95a4-addc62cfd692.jpg\"]","trial_type":"similarity","trial_index":77,"time_elapsed":781208,"internal_node_id":"0.0-6.0-71.0"},{"sim_score":1,"rt":4936,"stimulus":"[\"img/0875/f87b67d7-c33e-40d1-b281-248c4be1cb6e.jpg\",\"img/0764/c643e165-df19-459f-8c2b-8357bf432a17.jpg\"]","trial_type":"similarity","trial_index":78,"time_elapsed":787149,"internal_node_id":"0.0-6.0-72.0"},{"sim_score":7,"rt":3756,"stimulus":"[\"img/0867/c71dc569-f49c-4397-8381-68b8d726736d.jpg\",\"img/0866/0207e9a2-7dbb-40b5-9459-b472aaeceb2a.jpg\"]","trial_type":"similarity","trial_index":79,"time_elapsed":791909,"internal_node_id":"0.0-6.0-73.0"},{"sim_score":1,"rt":5614,"stimulus":"[\"img/0903/b7e3723f-fd03-4f3d-8820-f19496463a34.jpg\",\"img/0758/a085b443-b5d7-4cb2-9ad4-b9dab0fc23f1.jpg\"]","trial_type":"similarity","trial_index":80,"time_elapsed":798529,"internal_node_id":"0.0-6.0-74.0"},{"sim_score":1,"rt":4075,"stimulus":"[\"img/0766/79767d11-b612-4e8a-9e4b-a8ac95bb6a54.jpg\",\"img/0868/d6d1f30d-4323-435a-b194-7892521bc57e.jpg\"]","trial_type":"similarity","trial_index":81,"time_elapsed":803610,"internal_node_id":"0.0-6.0-75.0"},{"sim_score":1,"rt":4215,"stimulus":"[\"img/0874/8cdb1c07-1c32-46d2-981c-3636560fa6e5.jpg\",\"img/0766/09f646c8-a69e-4ed3-879c-8d29b04ad7f9.jpg\"]","trial_type":"similarity","trial_index":82,"time_elapsed":808829,"internal_node_id":"0.0-6.0-76.0"},{"sim_score":7,"rt":6503,"stimulus":"[\"img/0881/33d65d80-8a8e-4ecf-852d-0ad7725c17a2.jpg\",\"img/0868/4e626425-63c8-484a-8a1d-e66ee4e0bef8.jpg\"]","trial_type":"similarity","trial_index":83,"time_elapsed":816337,"internal_node_id":"0.0-6.0-77.0"},{"sim_score":2,"rt":5801,"stimulus":"[\"img/0758/d540bee6-b460-4c32-ac57-bc282742d7d4.jpg\",\"img/0901/0adb3bd6-d758-4ba7-9723-3ad6cac05bd5.jpg\"]","trial_type":"similarity","trial_index":84,"time_elapsed":823145,"internal_node_id":"0.0-6.0-78.0"},{"sim_score":2,"rt":6222,"stimulus":"[\"img/0881/4bd34581-94d8-4e88-8c89-5cef864ca3be.jpg\",\"img/0898/ec565187-2e31-4fdd-9a5c-153d0c789ae0.jpg\"]","trial_type":"similarity","trial_index":85,"time_elapsed":830375,"internal_node_id":"0.0-6.0-79.0"},{"sim_score":7,"rt":5938,"stimulus":"[\"img/0867/26611f4e-d694-4460-b7e2-43c62753ddc3.jpg\",\"img/0758/61d64021-9214-4951-bdf8-f871f9827cf9.jpg\"]","trial_type":"similarity","trial_index":86,"time_elapsed":837317,"internal_node_id":"0.0-6.0-80.0"},{"sim_score":1,"rt":6254,"stimulus":"[\"img/0769/35f2dd39-40aa-498e-b401-9f1ef2622d00.jpg\",\"img/0899/b45c550b-96c3-4255-ad59-48a2b4db1c1e.jpg\"]","trial_type":"similarity","trial_index":87,"time_elapsed":844576,"internal_node_id":"0.0-6.0-81.0"},{"sim_score":2,"rt":6947,"stimulus":"[\"img/0903/43ffd882-077a-40dd-a264-e58d519420a1.jpg\",\"img/0903/6f343da5-00d9-4d50-89d1-2ed24cdb8319.jpg\"]","trial_type":"similarity","trial_index":88,"time_elapsed":852529,"internal_node_id":"0.0-6.0-82.0"},{"sim_score":1,"rt":3968,"stimulus":"[\"img/0867/a498eef3-9fa4-4ab2-9778-4ae82ac40dc5.jpg\",\"img/0766/d3bab2fc-ddcc-40a0-bb72-c0d0ebe19978.jpg\"]","trial_type":"similarity","trial_index":89,"time_elapsed":878729,"internal_node_id":"0.0-6.0-83.0"},{"sim_score":2,"rt":7227,"stimulus":"[\"img/0902/b03fee99-d5ca-4bf8-871c-a4a743a39842.jpg\",\"img/0867/98d8cd96-1476-4fe0-a3a3-04f875500a1b.jpg\"]","trial_type":"similarity","trial_index":90,"time_elapsed":886967,"internal_node_id":"0.0-6.0-84.0"},{"sim_score":4,"rt":5166,"stimulus":"[\"img/0901/50e1d53e-a49f-4806-8610-be6dec5a2475.jpg\",\"img/0875/5a1e5100-0d94-4fec-bbe9-ca9894d2cf8e.jpg\"]","trial_type":"similarity","trial_index":91,"time_elapsed":893139,"internal_node_id":"0.0-6.0-85.0"},{"sim_score":1,"rt":6799,"stimulus":"[\"img/0764/978aede9-4590-4ad0-b234-135c83e5d669.jpg\",\"img/0866/a04d37f0-99dd-478a-b6c6-58b215138f84.jpg\"]","trial_type":"similarity","trial_index":92,"time_elapsed":900944,"internal_node_id":"0.0-6.0-86.0"},{"sim_score":7,"rt":5897,"stimulus":"[\"img/0901/08d6d1d1-c043-43c4-bb08-d45e062822b9.jpg\",\"img/0894/38f5931f-926d-414e-b498-66b188978b7a.jpg\"]","trial_type":"similarity","trial_index":93,"time_elapsed":907844,"internal_node_id":"0.0-6.0-87.0"},{"sim_score":6,"rt":5791,"stimulus":"[\"img/0898/68476bbb-34a1-42d9-8bc1-deab783d4489.jpg\",\"img/0769/e31b3bd8-efcb-413e-aa8c-75fac2b8f2ac.jpg\"]","trial_type":"similarity","trial_index":94,"time_elapsed":914640,"internal_node_id":"0.0-6.0-88.0"},{"sim_score":7,"rt":8062,"stimulus":"[\"img/0769/1afb527f-9887-428c-bd26-a12c2f9efb68.jpg\",\"img/0894/5a49e858-2850-4892-9a06-e9f0efb5f94d.jpg\"]","trial_type":"similarity","trial_index":95,"time_elapsed":923707,"internal_node_id":"0.0-6.0-89.0"},{"sim_score":6,"rt":7490,"stimulus":"[\"img/0862/eefa5588-9efd-4591-aa5f-a2e17c7d7bcc.jpg\",\"img/0874/3ce41e7c-40c8-4d58-a546-171114521796.jpg\"]","trial_type":"similarity","trial_index":96,"time_elapsed":932205,"internal_node_id":"0.0-6.0-90.0"},{"sim_score":6,"rt":9983,"stimulus":"[\"img/0894/9b1333fd-3561-43bf-aee5-99b7b7ca3dc3.jpg\",\"img/0766/60033a74-9919-47e5-913c-71d0d483e7e5.jpg\"]","trial_type":"similarity","trial_index":97,"time_elapsed":943192,"internal_node_id":"0.0-6.0-91.0"},{"sim_score":5,"rt":6672,"stimulus":"[\"img/0874/2c9464dd-8a23-4baa-ac94-1ba3af5c15cc.jpg\",\"img/0867/a749dddb-69f0-44a6-acdc-2bf295cf6dcc.jpg\"]","trial_type":"similarity","trial_index":98,"time_elapsed":950868,"internal_node_id":"0.0-6.0-92.0"},{"sim_score":1,"rt":5106,"stimulus":"[\"img/0899/06b0fc99-0581-461a-9913-d1a5a941ac61.jpg\",\"img/0868/4a8a45ed-2c4f-421b-9564-409a33ecd26c.jpg\"]","trial_type":"similarity","trial_index":99,"time_elapsed":956980,"internal_node_id":"0.0-6.0-93.0"},{"sim_score":3,"rt":5798,"stimulus":"[\"img/0903/6b5dcc60-3ad3-4962-93e5-e6cf768477af.jpg\",\"img/0862/fad1d7c1-8187-43c3-942a-0fc12183e48e.jpg\"]","trial_type":"similarity","trial_index":100,"time_elapsed":963781,"internal_node_id":"0.0-6.0-94.0"},{"sim_score":7,"rt":5971,"stimulus":"[\"img/0899/76ad07e2-ca25-45eb-84f2-8d80b8ca3e26.jpg\",\"img/0766/91fc8c4d-862f-4d2b-b1a1-2db8d729b6b7.jpg\"]","trial_type":"similarity","trial_index":101,"time_elapsed":970757,"internal_node_id":"0.0-6.0-95.0"},{"sim_score":7,"rt":6913,"stimulus":"[\"img/0867/5e07b34d-b40f-4b1c-ac10-49975bace45f.jpg\",\"img/0868/e0aff734-077f-40dd-9781-74821abd3621.jpg\"]","trial_type":"similarity","trial_index":102,"time_elapsed":978672,"internal_node_id":"0.0-6.0-96.0"},{"sim_score":2,"rt":5996,"stimulus":"[\"img/0862/f188d4f0-76a4-4102-818c-a209969d73a5.jpg\",\"img/0901/da4fe30f-d12a-491e-96a2-5ab8ebaadd09.jpg\"]","trial_type":"similarity","trial_index":103,"time_elapsed":985676,"internal_node_id":"0.0-6.0-97.0"},{"sim_score":1,"rt":5173,"stimulus":"[\"img/0875/34132396-d896-4c2d-8087-646dd867e769.jpg\",\"img/0766/b84598d0-5b41-4841-88b0-b441b48289f5.jpg\"]","trial_type":"similarity","trial_index":104,"time_elapsed":991857,"internal_node_id":"0.0-6.0-98.0"},{"sim_score":5,"rt":5374,"stimulus":"[\"img/0758/7ee8bc8f-c40b-4b3a-84ec-3e83580622d4.jpg\",\"img/0874/3f471690-9788-4d03-90c7-f615aecef149.jpg\"]","trial_type":"similarity","trial_index":105,"time_elapsed":998245,"internal_node_id":"0.0-6.0-99.0"},{"sim_score":6,"rt":7535,"stimulus":"[\"img/0904/2fd488e9-960f-41f7-8a44-33375f7d5051.jpg\",\"img/0868/179a5502-ab5c-478e-8263-5a1fbcc101d2.jpg\"]","trial_type":"similarity","trial_index":106,"time_elapsed":1006785,"internal_node_id":"0.0-6.0-100.0"},{"sim_score":5,"rt":6677,"stimulus":"[\"img/0903/6138142e-c84e-45fc-9487-c974f3d4968a.jpg\",\"img/0866/be24ab58-230e-4db8-9f45-ff04c9aec6bb.jpg\"]","trial_type":"similarity","trial_index":107,"time_elapsed":1014477,"internal_node_id":"0.0-6.0-101.0"},{"sim_score":3,"rt":5875,"stimulus":"[\"img/0868/83b4350a-3b70-4cea-b7f5-b5b56f3050a8.jpg\",\"img/0769/82ab9db6-4578-4e79-874f-f09100439f09.jpg\"]","trial_type":"similarity","trial_index":108,"time_elapsed":1021356,"internal_node_id":"0.0-6.0-102.0"},{"sim_score":5,"rt":7307,"stimulus":"[\"img/0902/97022122-01e4-46c3-a34f-c6260ad28428.jpg\",\"img/0899/25ae6ec8-9565-49fe-a8bb-8d0666f52716.jpg\"]","trial_type":"similarity","trial_index":109,"time_elapsed":1029681,"internal_node_id":"0.0-6.0-103.0"},{"sim_score":7,"rt":6308,"stimulus":"[\"img/0868/293079b8-7e0c-4afd-a390-1e5d35fe3ded.jpg\",\"img/0862/a0a3a7ba-7798-46a3-b4ca-05e1f6e581d0.jpg\"]","trial_type":"similarity","trial_index":110,"time_elapsed":1036992,"internal_node_id":"0.0-6.0-104.0"},{"sim_score":3,"rt":6597,"stimulus":"[\"img/0903/776b74ee-a8ab-4ab8-a78d-097c0747538d.jpg\",\"img/0894/7dd6ff43-f8fc-408a-8a41-a2b261871820.jpg\"]","trial_type":"similarity","trial_index":111,"time_elapsed":1044592,"internal_node_id":"0.0-6.0-105.0"},{"sim_score":7,"rt":5563,"stimulus":"[\"img/0864/65210d57-1153-4657-886a-32e758f49b4a.jpg\",\"img/0874/1016b306-087c-4afc-aa08-fa527b28dc76.jpg\"]","trial_type":"similarity","trial_index":112,"time_elapsed":1051168,"internal_node_id":"0.0-6.0-106.0"},{"sim_score":2,"rt":5779,"stimulus":"[\"img/0862/5d887e9f-89e2-4ebc-80a0-6d46fe6480db.jpg\",\"img/0902/511abb54-0094-4f4d-b6dc-3f2c97050521.jpg\"]","trial_type":"similarity","trial_index":113,"time_elapsed":1057960,"internal_node_id":"0.0-6.0-107.0"},{"sim_score":3,"rt":5372,"stimulus":"[\"img/0904/65e2b70a-b184-4da3-b5c0-5038bdf9469a.jpg\",\"img/0903/31b5a5f4-b695-4af1-bad2-a19650a05498.jpg\"]","trial_type":"similarity","trial_index":114,"time_elapsed":1064336,"internal_node_id":"0.0-6.0-108.0"},{"sim_score":1,"rt":5081,"stimulus":"[\"img/0764/5d6fa3ce-9083-410c-bbdb-336a49b94cfc.jpg\",\"img/0864/da39ad34-04e0-40d4-a724-c08d53e0ea09.jpg\"]","trial_type":"similarity","trial_index":115,"time_elapsed":1070436,"internal_node_id":"0.0-6.0-109.0"},{"sim_score":1,"rt":5722,"stimulus":"[\"img/0866/a15b02be-11bb-43e3-b0e0-ecc3bd7dfc49.jpg\",\"img/0894/7fb082e0-ce79-485c-9109-04367fb32275.jpg\"]","trial_type":"similarity","trial_index":116,"time_elapsed":1077172,"internal_node_id":"0.0-6.0-110.0"},{"sim_score":3,"rt":5131,"stimulus":"[\"img/0899/fd9efb43-701f-4cd6-baaa-4c38315f4bdc.jpg\",\"img/0903/470acfd5-5571-4a7b-b3a4-28d87e098138.jpg\"]","trial_type":"similarity","trial_index":117,"time_elapsed":1083309,"internal_node_id":"0.0-6.0-111.0"},{"sim_score":3,"rt":6466,"stimulus":"[\"img/0902/c920f0e1-1c81-480f-a164-c77f2dc6ce9a.jpg\",\"img/0904/09dac84f-3d1c-4445-a68e-d0389fdbf1e9.jpg\"]","trial_type":"similarity","trial_index":118,"time_elapsed":1090785,"internal_node_id":"0.0-6.0-112.0"},{"sim_score":6,"rt":4547,"stimulus":"[\"img/0864/4bd81bc6-c13d-46df-95a9-485886dc7c1b.jpg\",\"img/0860/8fdba999-b946-4c7d-9891-336018b563ef.jpg\"]","trial_type":"similarity","trial_index":119,"time_elapsed":1096348,"internal_node_id":"0.0-6.0-113.0"},{"sim_score":2,"rt":5381,"stimulus":"[\"img/0860/94ef7afc-e0e6-4a15-98c6-0bfac82bc832.jpg\",\"img/0899/a048912c-b12c-40e3-90af-46b69b0cc4fe.jpg\"]","trial_type":"similarity","trial_index":120,"time_elapsed":1102736,"internal_node_id":"0.0-6.0-114.0"},{"sim_score":2,"rt":5432,"stimulus":"[\"img/0881/292e9b4b-fca0-4ba8-87f1-4048f9e37b7d.jpg\",\"img/0903/0a92ec52-4e87-410a-857a-4455cde56a70.jpg\"]","trial_type":"similarity","trial_index":121,"time_elapsed":1109176,"internal_node_id":"0.0-6.0-115.0"},{"sim_score":6,"rt":6137,"stimulus":"[\"img/0894/bd34223a-2f66-4e16-9d18-193a746b69ff.jpg\",\"img/0874/99f6563c-8a8d-4c1c-a41d-667b618c3fd5.jpg\"]","trial_type":"similarity","trial_index":122,"time_elapsed":1116320,"internal_node_id":"0.0-6.0-116.0"},{"sim_score":7,"rt":4532,"stimulus":"[\"img/0881/f6bd3b96-dc40-4e99-8681-bc3a35cf896d.jpg\",\"img/0862/de9ad88c-b522-430a-8ee9-eb06a9f85df5.jpg\"]","trial_type":"similarity","trial_index":123,"time_elapsed":1121864,"internal_node_id":"0.0-6.0-117.0"},{"sim_score":7,"rt":5192,"stimulus":"[\"img/0868/c8ac40c7-6904-4e13-8d61-c75d3052dc4e.jpg\",\"img/0875/8521fd58-3b1e-4dc5-97ae-804edfa6734a.jpg\"]","trial_type":"similarity","trial_index":124,"time_elapsed":1128068,"internal_node_id":"0.0-6.0-118.0"},{"sim_score":6,"rt":4782,"stimulus":"[\"img/0860/c47fdead-eb02-4989-b078-26f4852f44fe.jpg\",\"img/0758/335851a0-a55b-46d8-ab05-8463eda48349.jpg\"]","trial_type":"similarity","trial_index":125,"time_elapsed":1133868,"internal_node_id":"0.0-6.0-119.0"},{"sim_score":5,"rt":5945,"stimulus":"[\"img/0864/c3b63e8f-ea39-4d70-a1f2-b3fe4be8eb75.jpg\",\"img/0875/5a7c4e35-6514-4e12-8879-d16071da4cd6.jpg\"]","trial_type":"similarity","trial_index":126,"time_elapsed":1140820,"internal_node_id":"0.0-6.0-120.0"},{"sim_score":2,"rt":4678,"stimulus":"[\"img/0898/e167334e-cc1d-4986-b3b1-c7bc7da64baa.jpg\",\"img/0866/d493a2c8-66eb-44b4-be02-2f327b700b7c.jpg\"]","trial_type":"similarity","trial_index":127,"time_elapsed":1146504,"internal_node_id":"0.0-6.0-121.0"},{"sim_score":3,"rt":6049,"stimulus":"[\"img/0874/93d1f8dc-acf2-4f03-bd8d-8ec35df276ed.jpg\",\"img/0904/696ebb60-8891-417a-91fd-c53218907a95.jpg\"]","trial_type":"similarity","trial_index":128,"time_elapsed":1153564,"internal_node_id":"0.0-6.0-122.0"},{"sim_score":3,"rt":7904,"stimulus":"[\"img/0904/fe746a3f-8458-48d0-8a13-8cba2a9df9f8.jpg\",\"img/0864/0116ca98-293d-4fa6-a93b-5a6144ef64cc.jpg\"]","trial_type":"similarity","trial_index":129,"time_elapsed":1162472,"internal_node_id":"0.0-6.0-123.0"},{"sim_score":5,"rt":7927,"stimulus":"[\"img/0894/133a1636-d123-4893-873c-1718050f832a.jpg\",\"img/0902/3b243e54-0803-4c29-af42-4037c2118495.jpg\"]","trial_type":"similarity","trial_index":130,"time_elapsed":1171416,"internal_node_id":"0.0-6.0-124.0"},{"sim_score":7,"rt":4708,"stimulus":"[\"img/0868/77091fc7-a590-4ebb-b915-fdb2483a2399.jpg\",\"img/0864/a248adb3-c70b-4652-b7a3-776d2a1e904b.jpg\"]","trial_type":"similarity","trial_index":131,"time_elapsed":1190421,"internal_node_id":"0.0-6.0-125.0"},{"sim_score":2,"rt":6226,"stimulus":"[\"img/0899/66ab3178-c3fe-4455-ad17-d5952b08e018.jpg\",\"img/0866/8efcaa46-83ab-4dee-a35f-850402aa21ae.jpg\"]","trial_type":"similarity","trial_index":132,"time_elapsed":1197669,"internal_node_id":"0.0-6.0-126.0"},{"sim_score":3,"rt":5811,"stimulus":"[\"img/0875/99698b4d-b4a1-44bc-8c83-8ea755bbbf61.jpg\",\"img/0904/d23dd7be-7fe8-4435-82f7-bd592c01e6a1.jpg\"]","trial_type":"similarity","trial_index":133,"time_elapsed":1204492,"internal_node_id":"0.0-6.0-127.0"},{"sim_score":3,"rt":5892,"stimulus":"[\"img/0867/7d1c497b-c1b3-4ed8-abb5-d7f73306015f.jpg\",\"img/0899/57476fed-5962-4272-8fc9-b317bb777b54.jpg\"]","trial_type":"similarity","trial_index":134,"time_elapsed":1211400,"internal_node_id":"0.0-6.0-128.0"},{"sim_score":2,"rt":6331,"stimulus":"[\"img/0901/148b747a-7392-437e-8823-33053c5dff3f.jpg\",\"img/0867/8ba0c5a7-c7e4-42cf-a80a-543763b90779.jpg\"]","trial_type":"similarity","trial_index":135,"time_elapsed":1218736,"internal_node_id":"0.0-6.0-129.0"},{"sim_score":4,"rt":6440,"stimulus":"[\"img/0864/afcba0a3-7e27-4757-b254-e9f05fad27e2.jpg\",\"img/0769/bb8c4e53-6f32-4814-97ee-392d4decfb2e.jpg\"]","trial_type":"similarity","trial_index":136,"time_elapsed":1226189,"internal_node_id":"0.0-6.0-130.0"},{"sim_score":4,"rt":5370,"stimulus":"[\"img/0903/b0a3c45f-467e-412f-a183-c9c1827f2e63.jpg\",\"img/0868/4bd5105a-d2c3-4f82-8c80-57196106ba53.jpg\"]","trial_type":"similarity","trial_index":137,"time_elapsed":1232568,"internal_node_id":"0.0-6.0-131.0"},{"sim_score":6,"rt":8089,"stimulus":"[\"img/0864/f92649a2-0590-4d31-9a7a-1bfb81666a2d.jpg\",\"img/0867/12264664-1860-46df-8c21-162b9817cdda.jpg\"]","trial_type":"similarity","trial_index":138,"time_elapsed":1241676,"internal_node_id":"0.0-6.0-132.0"},{"sim_score":6,"rt":6944,"stimulus":"[\"img/0901/4f9cffe0-c0be-4d7f-bacd-9d51efd19b4a.jpg\",\"img/0860/fd4662f9-4c03-4d79-8593-06735e55a64b.jpg\"]","trial_type":"similarity","trial_index":139,"time_elapsed":1249640,"internal_node_id":"0.0-6.0-133.0"},{"sim_score":6,"rt":7552,"stimulus":"[\"img/0881/ed4c971f-0873-4fc8-b6d6-e8bbd82f0bcc.jpg\",\"img/0766/110832e5-2646-4bd0-a94e-5df8cc314269.jpg\"]","trial_type":"similarity","trial_index":140,"time_elapsed":1258204,"internal_node_id":"0.0-6.0-134.0"},{"sim_score":4,"rt":7039,"stimulus":"[\"img/0903/0e5c2854-42aa-48c0-9c3d-6e1ad2a400bd.jpg\",\"img/0864/c22faebd-9c53-47bc-ada3-b9a30c688e75.jpg\"]","trial_type":"similarity","trial_index":141,"time_elapsed":1266252,"internal_node_id":"0.0-6.0-135.0"},{"sim_score":3,"rt":5274,"stimulus":"[\"img/0758/20497cbe-ddae-489e-86e2-ab06985ed07c.jpg\",\"img/0894/3664e04c-c6d3-4c9b-afb6-25d89974b174.jpg\"]","trial_type":"similarity","trial_index":142,"time_elapsed":1272532,"internal_node_id":"0.0-6.0-136.0"},{"sim_score":5,"rt":7833,"stimulus":"[\"img/0769/9ea9ceb6-049e-4ad9-be8f-00645cd35803.jpg\",\"img/0860/9593362c-9fe5-4d12-9735-6000a11f6aa5.jpg\"]","trial_type":"similarity","trial_index":143,"time_elapsed":1281381,"internal_node_id":"0.0-6.0-137.0"},{"sim_score":5,"rt":7979,"stimulus":"[\"img/0904/24fc38fe-842c-4831-ad8a-b1de5c25c0a8.jpg\",\"img/0766/fd064894-7147-4af5-97e9-2089d5472656.jpg\"]","trial_type":"similarity","trial_index":144,"time_elapsed":1290364,"internal_node_id":"0.0-6.0-138.0"},{"sim_score":6,"rt":8459,"stimulus":"[\"img/0868/0d3abd3a-b6c3-4584-a9f7-e2da63748b3d.jpg\",\"img/0860/c7047cd2-7cc1-41b6-8a34-c0986774975f.jpg\"]","trial_type":"similarity","trial_index":145,"time_elapsed":1299832,"internal_node_id":"0.0-6.0-139.0"},{"sim_score":7,"rt":5429,"stimulus":"[\"img/0758/65d426d6-3ff6-415d-8654-a43b83ecc4fe.jpg\",\"img/0864/49150900-7f25-4ce8-8d10-9b47a71d1997.jpg\"]","trial_type":"similarity","trial_index":146,"time_elapsed":1306265,"internal_node_id":"0.0-6.0-140.0"},{"sim_score":7,"rt":5395,"stimulus":"[\"img/0867/50a1b60e-3a29-44bf-b606-d4bd3746fea9.jpg\",\"img/0867/cc72ed48-7704-422c-86d6-467a1145287a.jpg\"]","trial_type":"similarity","trial_index":147,"time_elapsed":1312668,"internal_node_id":"0.0-6.0-141.0"},{"sim_score":6,"rt":5989,"stimulus":"[\"img/0898/0af304a2-6a7a-4082-ab7c-4450cd08cc58.jpg\",\"img/0898/82231d4c-218b-4d0a-b50d-35a49b524e97.jpg\"]","trial_type":"similarity","trial_index":148,"time_elapsed":1319673,"internal_node_id":"0.0-6.0-142.0"},{"sim_score":3,"rt":7257,"stimulus":"[\"img/0866/23a224f3-2012-4fc8-8e0f-3c36f8de27fd.jpg\",\"img/0769/5bd04f55-d091-4f57-85db-38426f26bd1a.jpg\"]","trial_type":"similarity","trial_index":149,"time_elapsed":1327945,"internal_node_id":"0.0-6.0-143.0"},{"sim_score":4,"rt":11886,"stimulus":"[\"img/0860/e14d67c1-6d92-4f1e-9257-c8607159c19c.jpg\",\"img/0898/8605a25b-6895-476d-8c13-df7a83f96093.jpg\"]","trial_type":"similarity","trial_index":150,"time_elapsed":1340848,"internal_node_id":"0.0-6.0-144.0"},{"sim_score":1,"rt":4737,"stimulus":"[\"img/0766/908bc45b-7c9e-4f95-806e-86b196ebcb2c.jpg\",\"img/0864/ea327690-500b-4137-bf91-451b309fe6a5.jpg\"]","trial_type":"similarity","trial_index":151,"time_elapsed":1346588,"internal_node_id":"0.0-6.0-145.0"},{"sim_score":3,"rt":6622,"stimulus":"[\"img/0860/f44ba3fb-03a2-42f0-8509-2c1ded493086.jpg\",\"img/0903/ea75f240-fb62-4edb-a709-83e858b202c0.jpg\"]","trial_type":"similarity","trial_index":152,"time_elapsed":1354221,"internal_node_id":"0.0-6.0-146.0"},{"sim_score":1,"rt":5702,"stimulus":"[\"img/0867/f8488a47-94ee-4166-952c-44e16cf172f6.jpg\",\"img/0764/d7c215ab-ea9a-45be-8d5f-417d5b9a8a17.jpg\"]","trial_type":"similarity","trial_index":153,"time_elapsed":1360936,"internal_node_id":"0.0-6.0-147.0"},{"sim_score":5,"rt":6777,"stimulus":"[\"img/0769/057eb0a0-aa5b-40c7-9852-21444f68d767.jpg\",\"img/0904/a8c3c7d2-9bcf-4347-9e03-8203adfc1fc5.jpg\"]","trial_type":"similarity","trial_index":154,"time_elapsed":1368730,"internal_node_id":"0.0-6.0-148.0"},{"sim_score":7,"rt":6992,"stimulus":"[\"img/0764/ca9829fe-aaf8-45b8-b98a-6bae751c63dd.jpg\",\"img/0901/f469cb1d-6d81-4a45-bab5-cd0b650c2b4f.jpg\"]","trial_type":"similarity","trial_index":155,"time_elapsed":1376736,"internal_node_id":"0.0-6.0-149.0"},{"sim_score":6,"rt":6268,"stimulus":"[\"img/0904/4d7d70a3-9477-4921-bda0-f9531d0a5c5b.jpg\",\"img/0899/f95cbdb4-f804-4f5d-ad76-373ad343e658.jpg\"]","trial_type":"similarity","trial_index":156,"time_elapsed":1384020,"internal_node_id":"0.0-6.0-150.0"},{"sim_score":6,"rt":6732,"stimulus":"[\"img/0862/1c20f772-3a51-4a80-aac0-f57dc9f86c28.jpg\",\"img/0867/de92135f-5b65-4ed9-b245-188292c7c2f8.jpg\"]","trial_type":"similarity","trial_index":157,"time_elapsed":1391756,"internal_node_id":"0.0-6.0-151.0"},{"sim_score":7,"rt":6344,"stimulus":"[\"img/0766/ef3b15ce-abb7-4292-ad93-aec8e8b50520.jpg\",\"img/0766/fd74fdbb-ea40-4f3a-a091-38d08dfd636e.jpg\"]","trial_type":"similarity","trial_index":158,"time_elapsed":1399112,"internal_node_id":"0.0-6.0-152.0"},{"sim_score":2,"rt":7684,"stimulus":"[\"img/0862/cdaed51d-9e2f-4807-801a-4663c40077e2.jpg\",\"img/0894/2d2db7b3-e8a3-499b-b63a-14f51bf73882.jpg\"]","trial_type":"similarity","trial_index":159,"time_elapsed":1407800,"internal_node_id":"0.0-6.0-153.0"},{"sim_score":6,"rt":5539,"stimulus":"[\"img/0899/9de5e857-aa9a-4e0c-8ba2-46d79bd069a4.jpg\",\"img/0901/c6df1a21-44ed-47c2-960e-7c52220e329e.jpg\"]","trial_type":"similarity","trial_index":160,"time_elapsed":1414348,"internal_node_id":"0.0-6.0-154.0"},{"sim_score":5,"rt":8263,"stimulus":"[\"img/0874/a3bc679d-619f-4db6-bb68-116dcb757d9c.jpg\",\"img/0874/adf9a8f1-c40b-402b-b95b-1e85a54a7b62.jpg\"]","trial_type":"similarity","trial_index":161,"time_elapsed":1423624,"internal_node_id":"0.0-6.0-155.0"},{"sim_score":6,"rt":5183,"stimulus":"[\"img/0860/5bff793e-cbd5-4d7e-b628-0ac2b0e30b64.jpg\",\"img/0867/2e1a0b58-cdb1-4107-a14e-452530d7b9b0.jpg\"]","trial_type":"similarity","trial_index":162,"time_elapsed":1429820,"internal_node_id":"0.0-6.0-156.0"},{"sim_score":2,"rt":5503,"stimulus":"[\"img/0901/2a953e50-d237-405c-a38d-5ed21494c968.jpg\",\"img/0881/633c6f40-56d9-4b48-bf1c-ecd83116eabb.jpg\"]","trial_type":"similarity","trial_index":163,"time_elapsed":1436332,"internal_node_id":"0.0-6.0-157.0"},{"sim_score":2,"rt":5446,"stimulus":"[\"img/0903/97a42b34-5462-4665-88c7-83c014b33d24.jpg\",\"img/0902/1a120fb9-dbd6-443e-ba91-b4aceab963da.jpg\"]","trial_type":"similarity","trial_index":164,"time_elapsed":1442796,"internal_node_id":"0.0-6.0-158.0"},{"sim_score":3,"rt":6542,"stimulus":"[\"img/0860/8277806e-b684-4474-8f7b-3fca946d7d4f.jpg\",\"img/0764/23ea9375-f801-4a96-9925-7d453da887c7.jpg\"]","trial_type":"similarity","trial_index":165,"time_elapsed":1450349,"internal_node_id":"0.0-6.0-159.0"},{"sim_score":1,"rt":4939,"stimulus":"[\"img/0902/04a6ad4a-afc6-4871-8225-56b299af7b6b.jpg\",\"img/0875/fb732ab5-013a-4366-9f65-27811ed157e9.jpg\"]","trial_type":"similarity","trial_index":166,"time_elapsed":1456296,"internal_node_id":"0.0-6.0-160.0"},{"sim_score":3,"rt":6858,"stimulus":"[\"img/0898/6cd3830b-d44e-4915-be2b-88d31424b91c.jpg\",\"img/0862/ad593cc7-cabe-4bb7-8e14-8a447a0717b4.jpg\"]","trial_type":"similarity","trial_index":167,"time_elapsed":1464160,"internal_node_id":"0.0-6.0-161.0"},{"sim_score":2,"rt":6197,"stimulus":"[\"img/0894/4739e06d-c31e-4bf1-bf91-c97fa9afb456.jpg\",\"img/0875/2e13d160-eea1-416b-aff1-d37ab99ecc1d.jpg\"]","trial_type":"similarity","trial_index":168,"time_elapsed":1471368,"internal_node_id":"0.0-6.0-162.0"},{"sim_score":6,"rt":5421,"stimulus":"[\"img/0866/945c6710-d15b-4a5b-a8f6-69af0850357f.jpg\",\"img/0864/9b2490c5-a282-400a-9736-e1a0ecbf1cb7.jpg\"]","trial_type":"similarity","trial_index":169,"time_elapsed":1477796,"internal_node_id":"0.0-6.0-163.0"},{"sim_score":5,"rt":8229,"stimulus":"[\"img/0766/d512b99c-a2dc-40d7-8e86-827323a0cbcf.jpg\",\"img/0862/e0f1a4e9-e1b6-45f7-af67-89f334e6630d.jpg\"]","trial_type":"similarity","trial_index":170,"time_elapsed":1487032,"internal_node_id":"0.0-6.0-164.0"},{"sim_score":6,"rt":6562,"stimulus":"[\"img/0866/9b38d691-1802-4959-ab3f-fc902f0e4ea6.jpg\",\"img/0874/29830da7-be5f-44e5-b141-652a0ccf7269.jpg\"]","trial_type":"similarity","trial_index":171,"time_elapsed":1494599,"internal_node_id":"0.0-6.0-165.0"},{"sim_score":7,"rt":5729,"stimulus":"[\"img/0862/ee3b7bff-4a70-4e84-9bea-4a565e456acb.jpg\",\"img/0860/31ff6436-98bf-4652-bed2-40f627229568.jpg\"]","trial_type":"similarity","trial_index":172,"time_elapsed":1501347,"internal_node_id":"0.0-6.0-166.0"},{"sim_score":6,"rt":10799,"stimulus":"[\"img/0766/33519c22-aaa4-49d7-8d49-ab551db1945e.jpg\",\"img/0901/4ca4f962-40c0-4c59-b14a-3cd7b8c9029b.jpg\"]","trial_type":"similarity","trial_index":173,"time_elapsed":1532396,"internal_node_id":"0.0-6.0-167.0"},{"sim_score":7,"rt":5620,"stimulus":"[\"img/0862/f23038d4-c366-4f70-979f-66b62362efa4.jpg\",\"img/0862/fb26cb07-d5a9-4653-813c-f41609f26cd5.jpg\"]","trial_type":"similarity","trial_index":174,"time_elapsed":1539024,"internal_node_id":"0.0-6.0-168.0"},{"sim_score":6,"rt":8554,"stimulus":"[\"img/0894/5f15154e-e72e-4ce5-aafb-bce6f0564006.jpg\",\"img/0764/e30dba15-e68a-4659-89db-e1654b52fe02.jpg\"]","trial_type":"similarity","trial_index":175,"time_elapsed":1548596,"internal_node_id":"0.0-6.0-169.0"},{"sim_score":2,"rt":4942,"stimulus":"[\"img/0874/bf14b896-e930-4fd9-9c05-2e83317a2773.jpg\",\"img/0898/40f99fb2-64d2-4e72-8a7f-a1cf60741e69.jpg\"]","trial_type":"similarity","trial_index":176,"time_elapsed":1554548,"internal_node_id":"0.0-6.0-170.0"},{"sim_score":4,"rt":5827,"stimulus":"[\"img/0860/61fb959d-d4d9-4de4-9e4e-4fa62b4cfcd5.jpg\",\"img/0766/1bc0dccc-a5b5-4375-87fa-28360ca42b12.jpg\"]","trial_type":"similarity","trial_index":177,"time_elapsed":1561388,"internal_node_id":"0.0-6.0-171.0"},{"sim_score":3,"rt":7322,"stimulus":"[\"img/0898/81b08535-2020-4c15-9ce4-2f1e460755ae.jpg\",\"img/0864/66091c27-e588-4476-8af9-265dc6be4156.jpg\"]","trial_type":"similarity","trial_index":178,"time_elapsed":1569716,"internal_node_id":"0.0-6.0-172.0"},{"sim_score":5,"rt":5276,"stimulus":"[\"img/0881/db77fe00-aeb0-4d1d-aa66-f3a96fd077e4.jpg\",\"img/0764/974d52cc-6318-4e7a-b294-2f3e92ff800f.jpg\"]","trial_type":"similarity","trial_index":179,"time_elapsed":1575996,"internal_node_id":"0.0-6.0-173.0"},{"sim_score":2,"rt":5726,"stimulus":"[\"img/0898/993d8f2d-bef7-4251-a193-0f93a32b7763.jpg\",\"img/0868/d98ca254-b195-477f-b57e-5760a2717db8.jpg\"]","trial_type":"similarity","trial_index":180,"time_elapsed":1582724,"internal_node_id":"0.0-6.0-174.0"},{"sim_score":6,"rt":6469,"stimulus":"[\"img/0864/b3c4e378-28f0-4699-9338-2a257b4bca04.jpg\",\"img/0864/e02eddb5-f468-499c-91bf-f7be3ffe979b.jpg\"]","trial_type":"similarity","trial_index":181,"time_elapsed":1590204,"internal_node_id":"0.0-6.0-175.0"},{"sim_score":4,"rt":4974,"stimulus":"[\"img/0899/0433d056-aa30-4f8a-9aa1-abbb951e4edd.jpg\",\"img/0862/92fcd8a4-8193-4a6a-ae09-dd4a6338b0df.jpg\"]","trial_type":"similarity","trial_index":182,"time_elapsed":1596192,"internal_node_id":"0.0-6.0-176.0"},{"sim_score":5,"rt":6431,"stimulus":"[\"img/0875/2c361b79-c3d1-4eda-812e-bf03192407bf.jpg\",\"img/0758/6cd8c362-ae2a-41eb-80a3-3a4f7ace1530.jpg\"]","trial_type":"similarity","trial_index":183,"time_elapsed":1603628,"internal_node_id":"0.0-6.0-177.0"},{"sim_score":2,"rt":6045,"stimulus":"[\"img/0866/d266fece-59b3-46fa-b69f-96f6efb81b59.jpg\",\"img/0901/effc03f6-8f9d-46db-a66c-16fc83891c5c.jpg\"]","trial_type":"similarity","trial_index":184,"time_elapsed":1610688,"internal_node_id":"0.0-6.0-178.0"},{"sim_score":4,"rt":6587,"stimulus":"[\"img/0769/da36e3f7-2337-434f-ab57-11822dd7eed7.jpg\",\"img/0874/767f289c-9814-4496-803f-745cc8913d1f.jpg\"]","trial_type":"similarity","trial_index":185,"time_elapsed":1618283,"internal_node_id":"0.0-6.0-179.0"},{"sim_score":5,"rt":8388,"stimulus":"[\"img/0875/e7e66b13-b573-431e-b85e-288ce04a35a3.jpg\",\"img/0881/1407b85b-a1c6-45b1-9884-3b24203efadb.jpg\"]","trial_type":"similarity","trial_index":186,"time_elapsed":1627675,"internal_node_id":"0.0-6.0-180.0"},{"sim_score":7,"rt":4714,"stimulus":"[\"img/0866/11a1d141-be5e-443c-98c1-a9d4d9e3dec0.jpg\",\"img/0868/3a62db2d-97e9-44a3-b8e3-a48c6f0e423b.jpg\"]","trial_type":"similarity","trial_index":187,"time_elapsed":1633407,"internal_node_id":"0.0-6.0-181.0"},{"sim_score":3,"rt":6404,"stimulus":"[\"img/0899/d8f2dd94-570e-4e8c-a087-d96090fb9e8c.jpg\",\"img/0758/a709631e-3705-4725-ac40-f0d916924f08.jpg\"]","trial_type":"similarity","trial_index":188,"time_elapsed":1640827,"internal_node_id":"0.0-6.0-182.0"},{"sim_score":5,"rt":6630,"stimulus":"[\"img/0874/ca23d307-fc00-4d7d-9106-584c6eb21b4d.jpg\",\"img/0875/dbdd643e-6d0e-4a5c-ab57-b9c29b9c981a.jpg\"]","trial_type":"similarity","trial_index":189,"time_elapsed":1648471,"internal_node_id":"0.0-6.0-183.0"},{"sim_score":4,"rt":8425,"stimulus":"[\"img/0904/b5855d6a-7ef9-46ca-9215-6e9fa046e543.jpg\",\"img/0862/92f0146c-20c4-482e-aef5-adb693790338.jpg\"]","trial_type":"similarity","trial_index":190,"time_elapsed":1657903,"internal_node_id":"0.0-6.0-184.0"},{"sim_score":6,"rt":6551,"stimulus":"[\"img/0902/a323b62d-2fd5-4ac8-acc6-35b768f3c3f2.jpg\",\"img/0766/0bf3793e-c353-45e5-ac6f-753f5f484e10.jpg\"]","trial_type":"similarity","trial_index":191,"time_elapsed":1665459,"internal_node_id":"0.0-6.0-185.0"},{"sim_score":2,"rt":4839,"stimulus":"[\"img/0758/9fb5b2fe-3f00-4fe6-973c-1ce10d5f4cd5.jpg\",\"img/0769/1ca58b80-2365-446d-9616-6c1719e6c46f.jpg\"]","trial_type":"similarity","trial_index":192,"time_elapsed":1671311,"internal_node_id":"0.0-6.0-186.0"},{"sim_score":7,"rt":5561,"stimulus":"[\"img/0881/609a5e93-38b5-4940-8627-2bf8fad7f802.jpg\",\"img/0881/d373cb9f-a719-4549-a2a4-82def79fb2a5.jpg\"]","trial_type":"similarity","trial_index":193,"time_elapsed":1677879,"internal_node_id":"0.0-6.0-187.0"},{"sim_score":4,"rt":33693,"stimulus":"[\"img/0758/dd559618-7f09-4a07-8018-d311c4a5ea29.jpg\",\"img/0866/4a87911a-d5be-4d4e-ab8e-3d1f581bf507.jpg\"]","trial_type":"similarity","trial_index":194,"time_elapsed":1712579,"internal_node_id":"0.0-6.0-188.0"},{"sim_score":5,"rt":6316,"stimulus":"[\"img/0764/e42c1dc9-7831-4995-be19-7ca7b4d141fc.jpg\",\"img/0898/26c41340-15bd-4ead-8fe4-c0d0ddca09c2.jpg\"]","trial_type":"similarity","trial_index":195,"time_elapsed":1719903,"internal_node_id":"0.0-6.0-189.0"},{"sim_score":4,"rt":8776,"stimulus":"[\"img/0903/3e9ee8a5-eb66-47f5-8973-8a5af1ddc87e.jpg\",\"img/0901/58ec7fa9-b466-4651-90aa-c082df0972de.jpg\"]","trial_type":"similarity","trial_index":196,"time_elapsed":1729699,"internal_node_id":"0.0-6.0-190.0"},{"sim_score":5,"rt":5782,"stimulus":"[\"img/0902/418b716e-63e5-4c77-93e9-95b1f5a3ddf0.jpg\",\"img/0898/5f699581-3853-4547-856c-12f419ba5af7.jpg\"]","trial_type":"similarity","trial_index":197,"time_elapsed":1736487,"internal_node_id":"0.0-6.0-191.0"},{"sim_score":3,"rt":5358,"stimulus":"[\"img/0864/8ddd2e30-a1d0-479f-9cbe-591213023893.jpg\",\"img/0901/71e551a2-9ce2-409c-9c7c-dd556a0791e9.jpg\"]","trial_type":"similarity","trial_index":198,"time_elapsed":1742851,"internal_node_id":"0.0-6.0-192.0"},{"sim_score":1,"rt":5356,"stimulus":"[\"img/0894/767a0eec-1064-46b1-b1aa-dfa02b0cd74e.jpg\",\"img/0881/54ea8e77-c7e5-4197-b7fa-00b7020849a7.jpg\"]","trial_type":"similarity","trial_index":199,"time_elapsed":1749211,"internal_node_id":"0.0-6.0-193.0"},{"sim_score":7,"rt":5709,"stimulus":"[\"img/0868/6a28c3b0-3d76-498a-9fb7-ddafc665eca8.jpg\",\"img/0868/1a62b2b2-18f5-466e-b564-5176a57c565e.jpg\"]","trial_type":"similarity","trial_index":200,"time_elapsed":1755931,"internal_node_id":"0.0-6.0-194.0"},{"sim_score":6,"rt":7364,"stimulus":"[\"img/0899/ad8268c5-8199-48d0-ad70-c5b6d6c599ec.jpg\",\"img/0764/5c8fbafc-e62e-43ed-9b37-f73e8e45147d.jpg\"]","trial_type":"similarity","trial_index":201,"time_elapsed":1764299,"internal_node_id":"0.0-6.0-195.0"},{"sim_score":1,"rt":5826,"stimulus":"[\"img/0881/0c7068da-d0d9-4103-bda1-74ef7a2b32c3.jpg\",\"img/0904/25365108-e038-4021-aac9-797f2063b337.jpg\"]","trial_type":"similarity","trial_index":202,"time_elapsed":1771143,"internal_node_id":"0.0-6.0-196.0"},{"sim_score":3,"rt":5840,"stimulus":"[\"img/0864/1ebbc554-99fa-49f9-8799-317375a79820.jpg\",\"img/0902/d5e25767-e8ec-45f3-ac0a-7b4a6f7a9edc.jpg\"]","trial_type":"similarity","trial_index":203,"time_elapsed":1777988,"internal_node_id":"0.0-6.0-197.0"},{"sim_score":3,"rt":6561,"stimulus":"[\"img/0894/1b3888e6-cf36-4c4a-a039-187aa5cb71ac.jpg\",\"img/0904/0d17b811-063e-416e-a23c-3b3cfa4fcce5.jpg\"]","trial_type":"similarity","trial_index":204,"time_elapsed":1785551,"internal_node_id":"0.0-6.0-198.0"},{"sim_score":7,"rt":5795,"stimulus":"[\"img/0901/bc47e078-bda4-40ed-b89a-bbd819164b95.jpg\",\"img/0901/548d1110-7cb8-42a2-9927-9798875c8b5c.jpg\"]","trial_type":"similarity","trial_index":205,"time_elapsed":1792352,"internal_node_id":"0.0-6.0-199.0"},{"sim_score":5,"rt":6725,"stimulus":"[\"img/0894/e2446cf5-cd48-486a-badc-76498e087fbe.jpg\",\"img/0860/e8b8c51e-1834-4875-8b61-6c5bc9b178bd.jpg\"]","trial_type":"similarity","trial_index":206,"time_elapsed":1800084,"internal_node_id":"0.0-6.0-200.0"},{"sim_score":5,"rt":5960,"stimulus":"[\"img/0898/cd3aaa3f-efa9-4ab3-8d6f-a6a9273ddf42.jpg\",\"img/0903/6a87dbad-9b8d-4ff5-9c41-03c9aa24f0c3.jpg\"]","trial_type":"similarity","trial_index":207,"time_elapsed":1807048,"internal_node_id":"0.0-6.0-201.0"},{"sim_score":7,"rt":4738,"stimulus":"[\"img/0864/5f74a653-3bdc-4308-8cca-ac667dc22e1f.jpg\",\"img/0894/151063aa-6472-4745-837b-36603aba5966.jpg\"]","trial_type":"similarity","trial_index":208,"time_elapsed":1812796,"internal_node_id":"0.0-6.0-202.0"},{"sim_score":5,"rt":5701,"stimulus":"[\"img/0874/c0378dac-9370-439a-8b79-db27c96fb390.jpg\",\"img/0860/b03b963d-949b-4d8d-b19c-4950c89eeca2.jpg\"]","trial_type":"similarity","trial_index":209,"time_elapsed":1819504,"internal_node_id":"0.0-6.0-203.0"},{"sim_score":5,"rt":7804,"stimulus":"[\"img/0862/ba89835a-408c-480b-8594-ed4ffa97eb5c.jpg\",\"img/0875/ebf7653f-ff45-4e9f-af58-2c042ab3cd2b.jpg\"]","trial_type":"similarity","trial_index":210,"time_elapsed":1828312,"internal_node_id":"0.0-6.0-204.0"},{"sim_score":6,"rt":5225,"stimulus":"[\"img/0867/075e0f95-856b-4cbb-acf5-092393aaf04e.jpg\",\"img/0881/6b1189e6-232d-4042-8885-16dc7b10e0d4.jpg\"]","trial_type":"similarity","trial_index":211,"time_elapsed":1834548,"internal_node_id":"0.0-6.0-205.0"},{"sim_score":6,"rt":4619,"stimulus":"[\"img/0901/00acf6c1-b66e-4060-bb04-4caf29b5a8b0.jpg\",\"img/0902/12452bb1-b8c0-4e4d-ad4d-47e279e5933c.jpg\"]","trial_type":"similarity","trial_index":212,"time_elapsed":1840172,"internal_node_id":"0.0-6.0-206.0"},{"sim_score":3,"rt":5078,"stimulus":"[\"img/0899/4408c14d-c168-4a7d-96f6-bc87bfb58f83.jpg\",\"img/0864/6e846d43-94a6-4b37-a268-65eda979f052.jpg\"]","trial_type":"similarity","trial_index":213,"time_elapsed":1846256,"internal_node_id":"0.0-6.0-207.0"},{"sim_score":5,"rt":5180,"stimulus":"[\"img/0901/3db47171-0139-4235-82cd-0b1787b6775f.jpg\",\"img/0769/d1be2815-fa79-46e8-b5c3-7d81caaca490.jpg\"]","trial_type":"similarity","trial_index":214,"time_elapsed":1852444,"internal_node_id":"0.0-6.0-208.0"},{"sim_score":5,"rt":5768,"stimulus":"[\"img/0902/27b84584-948a-485b-8749-cb09929ef631.jpg\",\"img/0902/2db723b6-130f-454c-8c8d-88829edbcd65.jpg\"]","trial_type":"similarity","trial_index":215,"time_elapsed":1987195,"internal_node_id":"0.0-6.0-209.0"},{"view_history":"[{\"page_index\":0,\"viewing_time\":17468}]","rt":17469,"trial_type":"instructions","trial_index":216,"time_elapsed":2005667,"internal_node_id":"0.0-7.0"},{"rt":64714,"responses":"{\"Q0\":\"Nashville Warbler\"}","answer":["Nashville Warbler"],"trial_type":"image-multi-choice","trial_index":217,"time_elapsed":2071410,"internal_node_id":"0.0-8.0-0.0"},{"rt":72033,"responses":"{\"Q0\":\"Townsend's Warbler\"}","answer":["Black-and-white Warbler"],"trial_type":"image-multi-choice","trial_index":218,"time_elapsed":2144465,"internal_node_id":"0.0-8.0-1.0"},{"rt":48826,"responses":"{\"Q0\":\"Magnolia Warbler\"}","answer":["Townsend's Warbler"],"trial_type":"image-multi-choice","trial_index":219,"time_elapsed":2194300,"internal_node_id":"0.0-8.0-2.0"},{"rt":8871,"responses":"{\"Q0\":\"Lark Sparrow\"}","answer":["Lark Sparrow"],"trial_type":"image-multi-choice","trial_index":220,"time_elapsed":2204192,"internal_node_id":"0.0-8.0-3.0"},{"rt":4847,"responses":"{\"Q0\":\"Yellow Warbler\"}","answer":["Yellow Warbler"],"trial_type":"image-multi-choice","trial_index":221,"time_elapsed":2210048,"internal_node_id":"0.0-8.0-4.0"},{"rt":15397,"responses":"{\"Q0\":\"Tennessee Warbler\"}","answer":["Orange-crowned Warbler"],"trial_type":"image-multi-choice","trial_index":222,"time_elapsed":2226452,"internal_node_id":"0.0-8.0-5.0"},{"rt":16764,"responses":"{\"Q0\":\"White-crowned Sparrow\"}","answer":["White-throated Sparrow"],"trial_type":"image-multi-choice","trial_index":223,"time_elapsed":2244228,"internal_node_id":"0.0-8.0-6.0"},{"rt":9319,"responses":"{\"Q0\":\"Fox Sparrow\"}","answer":["Fox Sparrow"],"trial_type":"image-multi-choice","trial_index":224,"time_elapsed":2254568,"internal_node_id":"0.0-8.0-7.0"},{"rt":17104,"responses":"{\"Q0\":\"Song Sparrow\"}","answer":["Song Sparrow"],"trial_type":"image-multi-choice","trial_index":225,"time_elapsed":2272693,"internal_node_id":"0.0-8.0-8.0"},{"rt":19733,"responses":"{\"Q0\":\"Blackburnian Warbler\"}","answer":["Blackburnian Warbler"],"trial_type":"image-multi-choice","trial_index":226,"time_elapsed":2293451,"internal_node_id":"0.0-8.0-9.0"},{"rt":18798,"responses":"{\"Q0\":\"Lincoln's Sparrow\"}","answer":["Vesper Sparrow"],"trial_type":"image-multi-choice","trial_index":227,"time_elapsed":2313259,"internal_node_id":"0.0-8.0-10.0"},{"rt":27535,"responses":"{\"Q0\":\"White-crowned Sparrow\"}","answer":["White-crowned Sparrow"],"trial_type":"image-multi-choice","trial_index":228,"time_elapsed":2341812,"internal_node_id":"0.0-8.0-11.0"},{"rt":22803,"responses":"{\"Q0\":\"Chipping Sparrow\"}","answer":["American Tree Sparrow"],"trial_type":"image-multi-choice","trial_index":229,"time_elapsed":2365632,"internal_node_id":"0.0-8.0-12.0"},{"rt":66182,"responses":"{\"Q0\":\"Tennessee Warbler\"}","answer":["Tennessee Warbler"],"trial_type":"image-multi-choice","trial_index":230,"time_elapsed":2432836,"internal_node_id":"0.0-8.0-13.0"},{"rt":15798,"responses":"{\"Q0\":\"Magnolia Warbler\"}","answer":["Magnolia Warbler"],"trial_type":"image-multi-choice","trial_index":231,"time_elapsed":2449654,"internal_node_id":"0.0-8.0-14.0"},{"rt":19645,"responses":"{\"Q0\":\"Northern Waterthrush\"}","answer":["Northern Waterthrush"],"trial_type":"image-multi-choice","trial_index":232,"time_elapsed":2470312,"internal_node_id":"0.0-8.0-15.0"},{"rt":58001,"responses":"{\"Q0\":\"Swamp Sparrow\"}","answer":["Chipping Sparrow"],"trial_type":"image-multi-choice","trial_index":233,"time_elapsed":2529334,"internal_node_id":"0.0-8.0-16.0"},{"rt":46493,"responses":"{\"Q0\":\"Vesper Sparrow\"}","answer":["Swamp Sparrow"],"trial_type":"image-multi-choice","trial_index":234,"time_elapsed":2576837,"internal_node_id":"0.0-8.0-17.0"},{"rt":55048,"responses":"{\"Q0\":\"Lincoln's Sparrow\"}","answer":["Lincoln's Sparrow"],"trial_type":"image-multi-choice","trial_index":235,"time_elapsed":2632896,"internal_node_id":"0.0-8.0-18.0"},{"rt":18243,"responses":"{\"Q0\":\"Ovenbird\"}","answer":["Ovenbird"],"trial_type":"image-multi-choice","trial_index":236,"time_elapsed":2652152,"internal_node_id":"0.0-8.0-19.0"}]