"view_history","rt","trial_type","trial_index","time_elapsed","internal_node_id","sim_score","stimulus","responses","answer"
"[{""page_index"":0,""viewing_time"":1273}]","1274","instructions","0","1275","0.0-0.0","","","",""
"","4173","similarity_demo","1","6460","0.0-1.0","7","[""img/866.jpg"",""img/868.jpg""]","",""
"[{""page_index"":0,""viewing_time"":5731}]","5732","instructions","2","13193","0.0-2.0","","","",""
"","3834","similarity_demo","3","18034","0.0-3.0","1","[""img/766.jpg"",""img/867.jpg""]","",""
"[{""page_index"":0,""viewing_time"":1801}]","1802","instructions","4","20837","0.0-4.0","","","",""
"[{""page_index"":0,""viewing_time"":3953}]","3953","instructions","5","25792","0.0-5.0","","","",""
"","4578","similarity","6","31378","0.0-6.0-0.0","3","[""img/0868/293079b8-7e0c-4afd-a390-1e5d35fe3ded.jpg"",""img/0901/00acf6c1-b66e-4060-bb04-4caf29b5a8b0.jpg""]","",""
"","3313","similarity","7","35700","0.0-6.0-1.0","3","[""img/0769/8056889f-2b14-4782-bb25-b4e8896ab65b.jpg"",""img/0867/f8488a47-94ee-4166-952c-44e16cf172f6.jpg""]","",""
"","4804","similarity","8","41513","0.0-6.0-2.0","5","[""img/0766/2746b119-4bba-463e-acf0-88136dc6600c.jpg"",""img/0898/c3cecf20-f7fd-45fa-97d0-dc0a63e8d6c0.jpg""]","",""
"","4792","similarity","9","47311","0.0-6.0-3.0","3","[""img/0902/d2c34af0-8c50-437d-8cc3-619195a3e8ba.jpg"",""img/0881/84397291-bc14-4fbf-90e8-241e486ab0fe.jpg""]","",""
"","3635","similarity","10","51951","0.0-6.0-4.0","7","[""img/0894/38f5931f-926d-414e-b498-66b188978b7a.jpg"",""img/0894/a98416c0-51e2-4960-85da-d81d8688b9d5.jpg""]","",""
"","3132","similarity","11","56089","0.0-6.0-5.0","3","[""img/0874/8cdb1c07-1c32-46d2-981c-3636560fa6e5.jpg"",""img/0899/66ab3178-c3fe-4455-ad17-d5952b08e018.jpg""]","",""
"","3492","similarity","12","60586","0.0-6.0-6.0","5","[""img/0904/2f88ce53-02d0-4f95-a082-182c56a0eeb4.jpg"",""img/0764/f9f890e6-3c2f-40cd-84e9-85e0b54cb28e.jpg""]","",""
"","3343","similarity","13","64935","0.0-6.0-7.0","6","[""img/0899/00715b3f-851b-420b-a26b-d7f79f7759a9.jpg"",""img/0898/82231d4c-218b-4d0a-b50d-35a49b524e97.jpg""]","",""
"","2747","similarity","14","68689","0.0-6.0-8.0","3","[""img/0874/a82926a3-0b43-4add-803c-d5f9ea7798ee.jpg"",""img/0903/aa842abe-6fa3-448a-bf71-88d3ad28663b.jpg""]","",""
"","3533","similarity","15","73229","0.0-6.0-9.0","6","[""img/0881/f6bd3b96-dc40-4e99-8681-bc3a35cf896d.jpg"",""img/0758/61d64021-9214-4951-bdf8-f871f9827cf9.jpg""]","",""
"","3295","similarity","16","77529","0.0-6.0-10.0","6","[""img/0898/993d8f2d-bef7-4251-a193-0f93a32b7763.jpg"",""img/0901/f469cb1d-6d81-4a45-bab5-cd0b650c2b4f.jpg""]","",""
"","3785","similarity","17","82318","0.0-6.0-11.0","5","[""img/0903/71dbc325-b588-4297-a5cf-7f268a722ad9.jpg"",""img/0769/022c7e3b-c3f2-4119-b4bc-f22fa7cae18c.jpg""]","",""
"","3398","similarity","18","86722","0.0-6.0-12.0","3","[""img/0764/06ea144f-f4f3-4a14-ba47-f20f35c561e0.jpg"",""img/0868/d98ca254-b195-477f-b57e-5760a2717db8.jpg""]","",""
"","3883","similarity","19","91608","0.0-6.0-13.0","2","[""img/0867/5e07b34d-b40f-4b1c-ac10-49975bace45f.jpg"",""img/0903/005ad0de-4f52-433c-b515-dbe8d46184a3.jpg""]","",""
"","3979","similarity","20","96591","0.0-6.0-14.0","6","[""img/0766/0b48f9e0-7d37-4161-8adb-4e3f5b6b7583.jpg"",""img/0758/caa93da2-9edf-49fa-96b9-32dedd8f5078.jpg""]","",""
"","3578","similarity","21","101175","0.0-6.0-15.0","6","[""img/0902/0c760cc9-10ac-429e-8957-a7d51fc99683.jpg"",""img/0860/c5ccd1a4-4bb7-48e1-9b25-72cfaf06909b.jpg""]","",""
"","3521","similarity","22","105701","0.0-6.0-16.0","2","[""img/0769/180213e5-1e50-4b4e-87b6-add77ba04d39.jpg"",""img/0875/e7e66b13-b573-431e-b85e-288ce04a35a3.jpg""]","",""
"","3244","similarity","23","109950","0.0-6.0-17.0","2","[""img/0904/25365108-e038-4021-aac9-797f2063b337.jpg"",""img/0866/6f2a90d7-14f1-4f1b-bd64-fc0af6b9fe44.jpg""]","",""
"","3566","similarity","24","114521","0.0-6.0-18.0","7","[""img/0875/fb732ab5-013a-4366-9f65-27811ed157e9.jpg"",""img/0875/d59ff733-eaff-4ee2-9443-06954dd0bcb6.jpg""]","",""
"","3509","similarity","25","119035","0.0-6.0-19.0","6","[""img/0758/d57c2592-a317-4f63-91be-91a3a9afd222.jpg"",""img/0758/7ee8bc8f-c40b-4b3a-84ec-3e83580622d4.jpg""]","",""
"","3918","similarity","26","123958","0.0-6.0-20.0","5","[""img/0902/2a7ac123-414a-476a-9a96-4757b924baef.jpg"",""img/0874/1016b306-087c-4afc-aa08-fa527b28dc76.jpg""]","",""
"","3234","similarity","27","128197","0.0-6.0-21.0","7","[""img/0764/c0b03adb-bd0a-4b96-a915-a827c2fd5211.jpg"",""img/0769/f73c5138-2f4c-4354-981c-129dff9cc734.jpg""]","",""
"","5075","similarity","28","134277","0.0-6.0-22.0","6","[""img/0901/7c16dd9c-44ad-4d5b-990c-6a0b9b48b1b1.jpg"",""img/0874/ca23d307-fc00-4d7d-9106-584c6eb21b4d.jpg""]","",""
"","4011","similarity","29","139293","0.0-6.0-23.0","6","[""img/0875/527ced51-8e53-4aab-ab05-86df219104c0.jpg"",""img/0903/6138142e-c84e-45fc-9487-c974f3d4968a.jpg""]","",""
"","4255","similarity","30","144553","0.0-6.0-24.0","5","[""img/0769/bb8c4e53-6f32-4814-97ee-392d4decfb2e.jpg"",""img/0881/48ed65a5-471f-41af-86ec-3793805c116d.jpg""]","",""
"","3265","similarity","31","148823","0.0-6.0-25.0","3","[""img/0867/6e19c858-b606-45b2-a4c6-910a73f1d82c.jpg"",""img/0904/0d17b811-063e-416e-a23c-3b3cfa4fcce5.jpg""]","",""
"","4309","similarity","32","154138","0.0-6.0-26.0","6","[""img/0860/524b2e98-5767-4d53-942c-ebae6925659b.jpg"",""img/0881/4bd34581-94d8-4e88-8c89-5cef864ca3be.jpg""]","",""
"","3978","similarity","33","159121","0.0-6.0-27.0","7","[""img/0866/c446214b-a368-4c65-ae39-ea46894256ab.jpg"",""img/0866/0207e9a2-7dbb-40b5-9459-b472aaeceb2a.jpg""]","",""
"","4152","similarity","34","164278","0.0-6.0-28.0","6","[""img/0764/fb7d4a20-a475-465e-a74f-aa39a0d33d16.jpg"",""img/0862/92fcd8a4-8193-4a6a-ae09-dd4a6338b0df.jpg""]","",""
"","3338","similarity","35","168620","0.0-6.0-29.0","2","[""img/0904/2c98dc56-88d1-4fb5-a999-b6a7861f65f0.jpg"",""img/0758/ddc336e9-a8b6-4bb9-937a-c7e25e0e9250.jpg""]","",""
"","4491","similarity","36","174117","0.0-6.0-30.0","5","[""img/0894/6aa5545f-fa7d-4286-bbaa-aaf34dc7ec96.jpg"",""img/0899/51a7a498-98c7-42d7-bca8-bc2d8f0b5831.jpg""]","",""
"","4638","similarity","37","179761","0.0-6.0-31.0","5","[""img/0860/f44ba3fb-03a2-42f0-8509-2c1ded493086.jpg"",""img/0904/9b3568cc-3cf7-42be-9df3-fdafde7a58b8.jpg""]","",""
"","3516","similarity","38","184281","0.0-6.0-32.0","7","[""img/0874/3ce41e7c-40c8-4d58-a546-171114521796.jpg"",""img/0881/f62bdcd1-a4b7-4d48-83da-d9c9e01c8727.jpg""]","",""
"","9304","similarity","39","194592","0.0-6.0-33.0","7","[""img/0881/5fe04dd0-5c74-47b7-99c8-b068db9ca26a.jpg"",""img/0899/7b7380d5-d2be-44e5-a09a-c1756f87ef71.jpg""]","",""
"","5258","similarity","40","200856","0.0-6.0-34.0","3","[""img/0866/945c6710-d15b-4a5b-a8f6-69af0850357f.jpg"",""img/0862/e0f1a4e9-e1b6-45f7-af67-89f334e6630d.jpg""]","",""
"","5383","similarity","41","207245","0.0-6.0-35.0","3","[""img/0868/5fa7f9d0-f0e5-454c-8224-74d964818f56.jpg"",""img/0894/4739e06d-c31e-4bf1-bf91-c97fa9afb456.jpg""]","",""
"","3623","similarity","42","211874","0.0-6.0-36.0","6","[""img/0860/94ef7afc-e0e6-4a15-98c6-0bfac82bc832.jpg"",""img/0860/61fb959d-d4d9-4de4-9e4e-4fa62b4cfcd5.jpg""]","",""
"","4849","similarity","43","230719","0.0-6.0-37.0","2","[""img/0862/eefa5588-9efd-4591-aa5f-a2e17c7d7bcc.jpg"",""img/0864/b3c4e378-28f0-4699-9338-2a257b4bca04.jpg""]","",""
"","3806","similarity","44","235531","0.0-6.0-38.0","1","[""img/0766/c23b5a20-e50f-4d85-841f-cf89212a4348.jpg"",""img/0866/a15b02be-11bb-43e3-b0e0-ecc3bd7dfc49.jpg""]","",""
"","4761","similarity","45","241297","0.0-6.0-39.0","6","[""img/0875/03c3c331-738b-4446-af92-3d7386b08c2e.jpg"",""img/0898/8605a25b-6895-476d-8c13-df7a83f96093.jpg""]","",""
"","4063","similarity","46","246365","0.0-6.0-40.0","6","[""img/0766/6d32752d-aa05-40dc-9541-640b6e9d6fa1.jpg"",""img/0769/4680bcc3-8fbc-4643-8f9a-12aa0e780b64.jpg""]","",""
"","4850","similarity","47","252221","0.0-6.0-41.0","7","[""img/0874/29830da7-be5f-44e5-b141-652a0ccf7269.jpg"",""img/0764/8389e74f-e0e0-435d-945f-da1f4c92ccb6.jpg""]","",""
"","3014","similarity","48","256241","0.0-6.0-42.0","3","[""img/0868/77091fc7-a590-4ebb-b915-fdb2483a2399.jpg"",""img/0902/2db723b6-130f-454c-8c8d-88829edbcd65.jpg""]","",""
"","4745","similarity","49","261991","0.0-6.0-43.0","4","[""img/0875/f87b67d7-c33e-40d1-b281-248c4be1cb6e.jpg"",""img/0899/5b56dd3e-3f49-47cc-af84-16da6457753b.jpg""]","",""
"","4299","similarity","50","267296","0.0-6.0-44.0","2","[""img/0866/d266fece-59b3-46fa-b69f-96f6efb81b59.jpg"",""img/0860/4a022222-056d-461c-ab02-39fac9647552.jpg""]","",""
"","3291","similarity","51","271594","0.0-6.0-45.0","5","[""img/0766/b84598d0-5b41-4841-88b0-b441b48289f5.jpg"",""img/0903/8f7f9939-b8e6-433f-93dd-b362496c80a7.jpg""]","",""
"","3259","similarity","52","275859","0.0-6.0-46.0","5","[""img/0901/3db47171-0139-4235-82cd-0b1787b6775f.jpg"",""img/0904/09dac84f-3d1c-4445-a68e-d0389fdbf1e9.jpg""]","",""
"","2509","similarity","53","279374","0.0-6.0-47.0","5","[""img/0758/335851a0-a55b-46d8-ab05-8463eda48349.jpg"",""img/0902/aa6fca32-82b0-4414-b20a-8f6f8aa5a2d2.jpg""]","",""
"","4034","similarity","54","284413","0.0-6.0-48.0","6","[""img/0764/952d7adc-dc40-4aee-acce-18c2a1d02ea1.jpg"",""img/0764/c80b3e06-2ee3-4326-9678-340607eb5348.jpg""]","",""
"","3231","similarity","55","288650","0.0-6.0-49.0","2","[""img/0866/07c9c966-3c8d-40e7-8128-92b2acbaed5d.jpg"",""img/0902/9f543501-3cf1-45a7-a2f1-eeca87cc15b9.jpg""]","",""
"","5178","similarity","56","294833","0.0-6.0-50.0","3","[""img/0764/438c0217-036f-43c9-9b87-f43144e46011.jpg"",""img/0758/a709631e-3705-4725-ac40-f0d916924f08.jpg""]","",""
"","4406","similarity","57","300244","0.0-6.0-51.0","6","[""img/0898/68476bbb-34a1-42d9-8bc1-deab783d4489.jpg"",""img/0894/38cf335f-f76f-4349-8d65-e20cd6859565.jpg""]","",""
"","3729","similarity","58","304977","0.0-6.0-52.0","3","[""img/0875/ebf7653f-ff45-4e9f-af58-2c042ab3cd2b.jpg"",""img/0866/a04d37f0-99dd-478a-b6c6-58b215138f84.jpg""]","",""
"","3690","similarity","59","309672","0.0-6.0-53.0","6","[""img/0904/6291eb43-c10c-4810-a36a-101d09868b04.jpg"",""img/0904/0d25eb24-bb20-4e8d-9787-8b489558b4cb.jpg""]","",""
"","4762","similarity","60","315440","0.0-6.0-54.0","7","[""img/0769/1ca58b80-2365-446d-9616-6c1719e6c46f.jpg"",""img/0769/0fe124d3-bcad-45f6-b64d-8f6eb8ee5251.jpg""]","",""
"","3085","similarity","61","319532","0.0-6.0-55.0","3","[""img/0898/81b08535-2020-4c15-9ce4-2f1e460755ae.jpg"",""img/0758/65d426d6-3ff6-415d-8654-a43b83ecc4fe.jpg""]","",""
"","4707","similarity","62","325245","0.0-6.0-56.0","6","[""img/0769/387a9744-d6a7-42b8-bab8-33007ec434aa.jpg"",""img/0902/07437a16-3d0f-4a5c-89ec-36d0efa4b3b8.jpg""]","",""
"","3572","similarity","63","329824","0.0-6.0-57.0","6","[""img/0864/c22faebd-9c53-47bc-ada3-b9a30c688e75.jpg"",""img/0881/6b1189e6-232d-4042-8885-16dc7b10e0d4.jpg""]","",""
"","2883","similarity","64","333712","0.0-6.0-58.0","1","[""img/0758/20497cbe-ddae-489e-86e2-ab06985ed07c.jpg"",""img/0868/15dd6fd7-791e-4b53-b203-195d617521a4.jpg""]","",""
"","4697","similarity","65","339414","0.0-6.0-59.0","5","[""img/0862/57b6f83f-c763-4858-830d-102f97bfefbf.jpg"",""img/0769/9ea27d61-3d55-418c-8d14-82e90f656f01.jpg""]","",""
"","4199","similarity","66","344619","0.0-6.0-60.0","6","[""img/0764/974d52cc-6318-4e7a-b294-2f3e92ff800f.jpg"",""img/0903/6378ee1e-3d2b-48d2-87be-bebda32c8268.jpg""]","",""
"","4576","similarity","67","350198","0.0-6.0-61.0","7","[""img/0899/8abe6c69-822c-436c-9bf2-96c818b49ba5.jpg"",""img/0899/a05bea16-2bb4-4cb9-b8fb-4ff975db6971.jpg""]","",""
"","5191","similarity","68","356395","0.0-6.0-62.0","6","[""img/0860/4f695df5-afac-4da7-9875-fee39b0b24ad.jpg"",""img/0875/a4935837-7d3c-4df6-88c1-36a94d4991ca.jpg""]","",""
"","6409","similarity","69","363809","0.0-6.0-63.0","2","[""img/0868/fd307a36-9a3a-47d7-ab7c-f810d0b35040.jpg"",""img/0874/767f289c-9814-4496-803f-745cc8913d1f.jpg""]","",""
"","4746","similarity","70","369560","0.0-6.0-64.0","1","[""img/0758/2fa3e613-e676-4e6e-bd12-705327eeb3e1.jpg"",""img/0862/92f0146c-20c4-482e-aef5-adb693790338.jpg""]","",""
"","3338","similarity","71","373903","0.0-6.0-65.0","6","[""img/0904/4b8daf2a-13a9-4ea9-9e0b-b265b6e933e7.jpg"",""img/0898/5f699581-3853-4547-856c-12f419ba5af7.jpg""]","",""
"","3336","similarity","72","378244","0.0-6.0-66.0","1","[""img/0881/1407b85b-a1c6-45b1-9884-3b24203efadb.jpg"",""img/0866/4a87911a-d5be-4d4e-ab8e-3d1f581bf507.jpg""]","",""
"","3973","similarity","73","383222","0.0-6.0-67.0","3","[""img/0867/a749dddb-69f0-44a6-acdc-2bf295cf6dcc.jpg"",""img/0898/08c72dac-f8ad-407a-9ce6-8c9a5d679c3a.jpg""]","",""
"","5232","similarity","74","389460","0.0-6.0-68.0","3","[""img/0902/4e0baa32-988e-46f6-989d-f669225ab645.jpg"",""img/0764/62fafeea-6274-48ce-976f-35d3d3484c65.jpg""]","",""
"","2551","similarity","75","393016","0.0-6.0-69.0","6","[""img/0875/5a7c4e35-6514-4e12-8879-d16071da4cd6.jpg"",""img/0867/c71dc569-f49c-4397-8381-68b8d726736d.jpg""]","",""
"","4380","similarity","76","398401","0.0-6.0-70.0","7","[""img/0766/908bc45b-7c9e-4f95-806e-86b196ebcb2c.jpg"",""img/0764/a3226bc4-dcc3-4608-bde8-1414d685ce5c.jpg""]","",""
"","2965","similarity","77","402371","0.0-6.0-71.0","2","[""img/0894/2d2db7b3-e8a3-499b-b63a-14f51bf73882.jpg"",""img/0867/f26f6b60-f772-4f4c-95a4-addc62cfd692.jpg""]","",""
"","4924","similarity","78","408300","0.0-6.0-72.0","2","[""img/0875/8521fd58-3b1e-4dc5-97ae-804edfa6734a.jpg"",""img/0764/b887d7c6-aa81-4637-af8e-05135757ac59.jpg""]","",""
"","3271","similarity","79","412577","0.0-6.0-73.0","6","[""img/0867/7d1c497b-c1b3-4ed8-abb5-d7f73306015f.jpg"",""img/0866/93a27239-8317-4e08-98ca-d8b1ff298e07.jpg""]","",""
"","4120","similarity","80","417703","0.0-6.0-74.0","5","[""img/0903/72197c2b-403e-4a26-b391-f1aa8dea4b76.jpg"",""img/0758/3ddd05d3-557e-4ee7-8b78-9d2d681d8ae2.jpg""]","",""
"","4182","similarity","81","668331","0.0-6.0-75.0","4","[""img/0766/2e1cf445-9aef-40e7-92f4-5facf48b64c5.jpg"",""img/0868/6a28c3b0-3d76-498a-9fb7-ddafc665eca8.jpg""]","",""
"","3994","similarity","82","673332","0.0-6.0-76.0","7","[""img/0874/93d1f8dc-acf2-4f03-bd8d-8ec35df276ed.jpg"",""img/0766/e8052e17-9dae-4139-802b-6e590cb2d526.jpg""]","",""
"","2702","similarity","83","677039","0.0-6.0-77.0","1","[""img/0881/14236cf2-6b95-48b8-9368-78af09d2d27f.jpg"",""img/0868/d6d1f30d-4323-435a-b194-7892521bc57e.jpg""]","",""
"","5637","similarity","84","683682","0.0-6.0-78.0","6","[""img/0758/821c68d3-5cb0-4eae-8659-30e6263fca39.jpg"",""img/0901/effc03f6-8f9d-46db-a66c-16fc83891c5c.jpg""]","",""
"","3655","similarity","85","688345","0.0-6.0-79.0","3","[""img/0881/b1a136f7-8511-4d3a-a0f6-3879acf1e1a1.jpg"",""img/0898/e167334e-cc1d-4986-b3b1-c7bc7da64baa.jpg""]","",""
"","2620","similarity","86","691971","0.0-6.0-80.0","1","[""img/0867/de92135f-5b65-4ed9-b245-188292c7c2f8.jpg"",""img/0758/d41c06bf-ebaf-454b-91c6-1a17f917b659.jpg""]","",""
"","4733","similarity","87","697709","0.0-6.0-81.0","6","[""img/0769/75f7e514-0548-4329-b1e4-93c05e74f038.jpg"",""img/0899/565ccdd9-0933-4536-a625-3c0e25a713dd.jpg""]","",""
"","3056","similarity","88","701772","0.0-6.0-82.0","7","[""img/0903/0a92ec52-4e87-410a-857a-4455cde56a70.jpg"",""img/0903/5ea5bbe0-f238-4724-abe7-9ed8dee8c0ba.jpg""]","",""
"","2853","similarity","89","705630","0.0-6.0-83.0","2","[""img/0867/ac1797e4-8afc-48fe-b252-86d1defb1cca.jpg"",""img/0766/27f54113-8561-4568-9ffe-0a1650ae65ec.jpg""]","",""
"","3611","similarity","90","710246","0.0-6.0-84.0","1","[""img/0902/1f4a4c62-68c1-4993-b213-05652a173ed1.jpg"",""img/0867/db7e032f-162b-46f5-ae67-2b29679adee4.jpg""]","",""
"","3844","similarity","91","715095","0.0-6.0-85.0","3","[""img/0901/b13fa50f-dbe0-4d0f-8647-6ac0fd8f40bd.jpg"",""img/0875/99698b4d-b4a1-44bc-8c83-8ea755bbbf61.jpg""]","",""
"","3407","similarity","92","719508","0.0-6.0-86.0","2","[""img/0764/3297a811-ea8b-4d74-9547-59cecab7293a.jpg"",""img/0866/d493a2c8-66eb-44b4-be02-2f327b700b7c.jpg""]","",""
"","4270","similarity","93","724782","0.0-6.0-87.0","5","[""img/0901/548d1110-7cb8-42a2-9927-9798875c8b5c.jpg"",""img/0894/3adef67d-7676-4995-80b2-bb31b8aca3ef.jpg""]","",""
"","2946","similarity","94","728733","0.0-6.0-88.0","4","[""img/0898/224c1572-56b9-4f16-a9e4-6f3bc9c114bd.jpg"",""img/0769/76eaa4a3-dfe9-4dc1-9efb-caebe86264e1.jpg""]","",""
"","4994","similarity","95","734732","0.0-6.0-89.0","6","[""img/0769/aad494cc-674d-4a08-9bfa-24a88ebe3c79.jpg"",""img/0894/bd34223a-2f66-4e16-9d18-193a746b69ff.jpg""]","",""
"","4347","similarity","96","740085","0.0-6.0-90.0","7","[""img/0862/5d887e9f-89e2-4ebc-80a0-6d46fe6480db.jpg"",""img/0874/bf14b896-e930-4fd9-9c05-2e83317a2773.jpg""]","",""
"","5121","similarity","97","746212","0.0-6.0-91.0","4","[""img/0894/767a0eec-1064-46b1-b1aa-dfa02b0cd74e.jpg"",""img/0766/33aa9ebb-c9f5-418f-8c8b-c77861889568.jpg""]","",""
"","2850","similarity","98","750067","0.0-6.0-92.0","3","[""img/0874/c0378dac-9370-439a-8b79-db27c96fb390.jpg"",""img/0867/26611f4e-d694-4460-b7e2-43c62753ddc3.jpg""]","",""
"","3980","similarity","99","755051","0.0-6.0-93.0","2","[""img/0899/0adc0bc3-6fca-4078-be6f-d45ddf1653d5.jpg"",""img/0868/3a62db2d-97e9-44a3-b8e3-a48c6f0e423b.jpg""]","",""
"","4426","similarity","100","760482","0.0-6.0-94.0","6","[""img/0903/14f179a2-8786-48a2-8377-88d1d404341b.jpg"",""img/0862/f43ceabf-acc1-4107-b857-5d1849808f93.jpg""]","",""
"","4422","similarity","101","765909","0.0-6.0-95.0","7","[""img/0899/4f7bc593-8ddd-4da3-a0b9-84da730d3370.jpg"",""img/0766/26d3ae14-8275-4e08-99b2-a6598c193ddf.jpg""]","",""
"","4215","similarity","102","771130","0.0-6.0-96.0","6","[""img/0867/075e0f95-856b-4cbb-acf5-092393aaf04e.jpg"",""img/0868/4e626425-63c8-484a-8a1d-e66ee4e0bef8.jpg""]","",""
"","2876","similarity","103","775011","0.0-6.0-97.0","6","[""img/0862/cdaed51d-9e2f-4807-801a-4663c40077e2.jpg"",""img/0901/08d6d1d1-c043-43c4-bb08-d45e062822b9.jpg""]","",""
"","3632","similarity","104","779650","0.0-6.0-98.0","5","[""img/0875/2c361b79-c3d1-4eda-812e-bf03192407bf.jpg"",""img/0766/a754e4b6-5019-4cf4-8f58-34c20547a1f5.jpg""]","",""
"","3505","similarity","105","784160","0.0-6.0-99.0","6","[""img/0758/eabcd7a8-56ad-4fd2-bc24-90f6b7b33265.jpg"",""img/0874/eba003b4-cdab-4eee-8bc3-f064c7d94165.jpg""]","",""
"","5047","similarity","106","790213","0.0-6.0-100.0","4","[""img/0904/e9423a8c-f946-43ad-ab7b-931acef870e2.jpg"",""img/0868/0d3abd3a-b6c3-4584-a9f7-e2da63748b3d.jpg""]","",""
"","3860","similarity","107","795078","0.0-6.0-101.0","3","[""img/0903/36e4ab1f-caa9-40b3-8616-faada076df94.jpg"",""img/0866/23a224f3-2012-4fc8-8e0f-3c36f8de27fd.jpg""]","",""
"","3666","similarity","108","799748","0.0-6.0-102.0","5","[""img/0868/179a5502-ab5c-478e-8263-5a1fbcc101d2.jpg"",""img/0769/35364db7-e0d5-40ef-93dc-faf9dfb95136.jpg""]","",""
"","3569","similarity","109","804321","0.0-6.0-103.0","5","[""img/0902/5b45a7a0-81c8-4a71-aaa2-2ce09adb5a29.jpg"",""img/0899/1b3457ea-87d4-4946-a01c-aac1863ed46c.jpg""]","",""
"","4129","similarity","110","809455","0.0-6.0-104.0","3","[""img/0868/7b212364-ff5f-4e28-9241-7eb6ea00161b.jpg"",""img/0862/d0ca4c78-fc35-46ed-bdcc-8e124283c53e.jpg""]","",""
"","3094","similarity","111","813554","0.0-6.0-105.0","6","[""img/0903/5248eedd-7e6a-4d39-91b0-06ec227f3ed0.jpg"",""img/0894/2217bdcd-23a7-42d3-823b-23f2488d7e87.jpg""]","",""
"","5332","similarity","112","819892","0.0-6.0-106.0","7","[""img/0864/1d15626a-2f7c-410f-819c-0fa2c967e95e.jpg"",""img/0874/adf9a8f1-c40b-402b-b95b-1e85a54a7b62.jpg""]","",""
"","3202","similarity","113","824099","0.0-6.0-107.0","7","[""img/0862/f23038d4-c366-4f70-979f-66b62362efa4.jpg"",""img/0902/7499db23-3a41-41ea-ab5b-6ab4d4c3ed35.jpg""]","",""
"","3178","similarity","114","828282","0.0-6.0-108.0","6","[""img/0904/24fc38fe-842c-4831-ad8a-b1de5c25c0a8.jpg"",""img/0903/b7e3723f-fd03-4f3d-8820-f19496463a34.jpg""]","",""
"","5906","similarity","115","835193","0.0-6.0-109.0","6","[""img/0764/23ea9375-f801-4a96-9925-7d453da887c7.jpg"",""img/0864/5f33e097-23e3-4002-882d-76e8cb15f451.jpg""]","",""
"","4717","similarity","116","840915","0.0-6.0-110.0","6","[""img/0866/02f5e6b9-52b7-448c-9708-5b460d0c9a23.jpg"",""img/0894/76c1201f-8524-4865-85e6-dda8cb4ac986.jpg""]","",""
"","3026","similarity","117","844954","0.0-6.0-111.0","6","[""img/0899/56a605c3-d0a2-4215-89e1-779279d85a7c.jpg"",""img/0903/39365c8e-a733-4801-ac7d-b87e38c3784b.jpg""]","",""
"","5773","similarity","118","851735","0.0-6.0-112.0","7","[""img/0902/ca3160ba-ad5d-459f-a1b6-8b4f3c85ecd5.jpg"",""img/0904/96e503ea-6630-4996-85f2-0237688ce441.jpg""]","",""
"","6507","similarity","119","917302","0.0-6.0-113.0","4","[""img/0864/ea327690-500b-4137-bf91-451b309fe6a5.jpg"",""img/0860/e14d67c1-6d92-4f1e-9257-c8607159c19c.jpg""]","",""
"","3265","similarity","120","921574","0.0-6.0-114.0","6","[""img/0860/29a21a9f-54bb-4093-ad3f-04823ceaa89f.jpg"",""img/0899/0433d056-aa30-4f8a-9aa1-abbb951e4edd.jpg""]","",""
"","6378","similarity","121","928958","0.0-6.0-115.0","6","[""img/0881/292e9b4b-fca0-4ba8-87f1-4048f9e37b7d.jpg"",""img/0903/59defeb8-98bd-4570-a2f8-9bd189e68ef4.jpg""]","",""
"","4084","similarity","122","934047","0.0-6.0-116.0","3","[""img/0894/151063aa-6472-4745-837b-36603aba5966.jpg"",""img/0874/7e4f2150-3b59-4a36-b5da-a4e0ba410531.jpg""]","",""
"","3954","similarity","123","939008","0.0-6.0-117.0","6","[""img/0881/f8bd891e-aa09-4782-89db-33e7cb2b0cf1.jpg"",""img/0862/4f0a3b4c-afbf-486e-b248-1d54982f54b4.jpg""]","",""
"","4722","similarity","124","944736","0.0-6.0-118.0","6","[""img/0868/1a62b2b2-18f5-466e-b564-5176a57c565e.jpg"",""img/0875/dbdd643e-6d0e-4a5c-ab57-b9c29b9c981a.jpg""]","",""
"","3180","similarity","125","948921","0.0-6.0-119.0","3","[""img/0860/4c530c3c-6aab-492a-94d1-9c01797bde40.jpg"",""img/0758/a085b443-b5d7-4cb2-9ad4-b9dab0fc23f1.jpg""]","",""
"","3152","similarity","126","953077","0.0-6.0-120.0","2","[""img/0864/65210d57-1153-4657-886a-32e758f49b4a.jpg"",""img/0875/cff79b3a-a797-4393-9757-6275f999ec04.jpg""]","",""
"","2897","similarity","127","956979","0.0-6.0-121.0","2","[""img/0898/b2732712-71c2-45d8-834f-2b2ed5504910.jpg"",""img/0866/11a1d141-be5e-443c-98c1-a9d4d9e3dec0.jpg""]","",""
"","3325","similarity","128","961310","0.0-6.0-122.0","4","[""img/0874/99f6563c-8a8d-4c1c-a41d-667b618c3fd5.jpg"",""img/0904/65e2b70a-b184-4da3-b5c0-5038bdf9469a.jpg""]","",""
"","4601","similarity","129","966915","0.0-6.0-123.0","3","[""img/0904/4d7d70a3-9477-4921-bda0-f9531d0a5c5b.jpg"",""img/0864/da39ad34-04e0-40d4-a724-c08d53e0ea09.jpg""]","",""
"","1756","similarity","130","969676","0.0-6.0-124.0","4","[""img/0894/b422d5c6-3c5a-49ae-a53e-7e88ac993f49.jpg"",""img/0902/3f0eeac5-c996-4026-a376-563ce8f28521.jpg""]","",""
"","2724","similarity","131","973407","0.0-6.0-125.0","1","[""img/0868/83b4350a-3b70-4cea-b7f5-b5b56f3050a8.jpg"",""img/0864/66091c27-e588-4476-8af9-265dc6be4156.jpg""]","",""
"","3215","similarity","132","977628","0.0-6.0-126.0","3","[""img/0899/fef567a2-c121-4481-9af0-ff108d199bbf.jpg"",""img/0866/bf14b5bd-fb55-47db-86b9-4f8aeb9a6dad.jpg""]","",""
"","3789","similarity","133","982421","0.0-6.0-127.0","5","[""img/0875/5a716432-c6ca-4b1c-955a-2b8ac25198ee.jpg"",""img/0904/1d10df11-b5c8-4370-9a6b-097a7f965895.jpg""]","",""
"","4643","similarity","134","988071","0.0-6.0-128.0","3","[""img/0867/12264664-1860-46df-8c21-162b9817cdda.jpg"",""img/0899/f95cbdb4-f804-4f5d-ad76-373ad343e658.jpg""]","",""
"","3288","similarity","135","992367","0.0-6.0-129.0","1","[""img/0901/a2d7b2f6-396b-4d91-8403-de5361c74af7.jpg"",""img/0867/f8159067-056c-41f1-a136-c529fe5e970a.jpg""]","",""
"","4988","similarity","136","998360","0.0-6.0-130.0","4","[""img/0864/3d4de670-b290-4285-9c3d-12a0e3af44e9.jpg"",""img/0769/5bd04f55-d091-4f57-85db-38426f26bd1a.jpg""]","",""
"","3617","similarity","137","1002984","0.0-6.0-131.0","3","[""img/0903/f10e9eb5-0c21-4a6a-944c-5f10a6d0fa4d.jpg"",""img/0868/4a8a45ed-2c4f-421b-9564-409a33ecd26c.jpg""]","",""
"","2951","similarity","138","1006942","0.0-6.0-132.0","1","[""img/0864/6e846d43-94a6-4b37-a268-65eda979f052.jpg"",""img/0867/8ba0c5a7-c7e4-42cf-a80a-543763b90779.jpg""]","",""
"","3841","similarity","139","1011788","0.0-6.0-133.0","5","[""img/0901/58ec7fa9-b466-4651-90aa-c082df0972de.jpg"",""img/0860/99c589b9-9140-4d17-90c0-b344323edcda.jpg""]","",""
"","4045","similarity","140","1016838","0.0-6.0-134.0","6","[""img/0881/db77fe00-aeb0-4d1d-aa66-f3a96fd077e4.jpg"",""img/0766/0025de5e-f620-4079-8a0f-00326ff3a6b0.jpg""]","",""
"","3440","similarity","141","1021283","0.0-6.0-135.0","4","[""img/0903/c3cb4a01-2797-43ca-b216-88c67b323fbb.jpg"",""img/0864/8ddd2e30-a1d0-479f-9cbe-591213023893.jpg""]","",""
"","2562","similarity","142","1024851","0.0-6.0-136.0","5","[""img/0758/7ffbc76b-1fc1-432c-8f7e-9ec8d1b3f643.jpg"",""img/0894/e2446cf5-cd48-486a-badc-76498e087fbe.jpg""]","",""
"","3714","similarity","143","1029572","0.0-6.0-137.0","2","[""img/0769/8c7cf147-1780-4d5c-8ddf-5ea23ff03ac9.jpg"",""img/0860/31ff6436-98bf-4652-bed2-40f627229568.jpg""]","",""
"","2880","similarity","144","1033457","0.0-6.0-138.0","3","[""img/0904/5cceabc9-de1d-4c67-989b-c28a4ef77e79.jpg"",""img/0766/0bf3793e-c353-45e5-ac6f-753f5f484e10.jpg""]","",""
"","4057","similarity","145","1038518","0.0-6.0-139.0","2","[""img/0868/e0aff734-077f-40dd-9781-74821abd3621.jpg"",""img/0860/e8b8c51e-1834-4875-8b61-6c5bc9b178bd.jpg""]","",""
"","4406","similarity","146","1043929","0.0-6.0-140.0","7","[""img/0758/b76ceca7-95ac-46e4-ac13-da02c8e93be9.jpg"",""img/0864/ef9cbca0-4be8-435d-ad49-977259e80409.jpg""]","",""
"","3810","similarity","147","1048744","0.0-6.0-141.0","6","[""img/0867/1719a35d-f085-48c0-9099-16c94fe418b4.jpg"",""img/0867/179ab87a-8eac-4c52-a41f-2e48e3120f09.jpg""]","",""
"","3292","similarity","148","1053042","0.0-6.0-142.0","7","[""img/0898/6cd3830b-d44e-4915-be2b-88d31424b91c.jpg"",""img/0898/ec565187-2e31-4fdd-9a5c-153d0c789ae0.jpg""]","",""
"","3488","similarity","149","1057535","0.0-6.0-143.0","3","[""img/0866/8efcaa46-83ab-4dee-a35f-850402aa21ae.jpg"",""img/0769/db94b61b-a5a7-4861-9d32-7b02ad194fb0.jpg""]","",""
"","5985","similarity","150","1064526","0.0-6.0-144.0","5","[""img/0860/17b44a7d-c5ca-479f-9e87-f65a64f5c80e.jpg"",""img/0898/f3a3f225-1248-4ac7-b93b-f0ff28485bf3.jpg""]","",""
"","3438","similarity","151","1068969","0.0-6.0-145.0","3","[""img/0766/db750ba0-ce04-46e1-b601-e1b80212bad2.jpg"",""img/0864/e8bd659f-aa43-4748-877e-3118e8b4e189.jpg""]","",""
"","3583","similarity","152","1073556","0.0-6.0-146.0","7","[""img/0860/fd4662f9-4c03-4d79-8593-06735e55a64b.jpg"",""img/0903/43ffd882-077a-40dd-a264-e58d519420a1.jpg""]","",""
"","3347","similarity","153","1077909","0.0-6.0-147.0","3","[""img/0867/bf560d4f-dee3-4f11-a385-705cc1aa5f3c.jpg"",""img/0764/56441045-b648-4ede-9632-3e9c0227080b.jpg""]","",""
"","4504","similarity","154","1083418","0.0-6.0-148.0","6","[""img/0769/11518cb3-13ea-4dd0-890c-30cfab728ade.jpg"",""img/0904/73920552-103b-4c9c-9ece-e0b8376b4504.jpg""]","",""
"","3494","similarity","155","1087917","0.0-6.0-149.0","2","[""img/0764/bc3865c9-9004-4582-88a7-048478673f97.jpg"",""img/0901/148b747a-7392-437e-8823-33053c5dff3f.jpg""]","",""
"","5374","similarity","156","1094296","0.0-6.0-150.0","7","[""img/0904/b7c2a2c8-df33-4473-b3d4-ff7147c60db3.jpg"",""img/0899/76ad07e2-ca25-45eb-84f2-8d80b8ca3e26.jpg""]","",""
"","3951","similarity","157","1109892","0.0-6.0-151.0","2","[""img/0862/00c06b00-3b73-44e9-bc1e-c5aafb438321.jpg"",""img/0867/cc72ed48-7704-422c-86d6-467a1145287a.jpg""]","",""
"","3182","similarity","158","1114082","0.0-6.0-152.0","7","[""img/0766/fd064894-7147-4af5-97e9-2089d5472656.jpg"",""img/0766/aaec5f42-7f0a-4a16-aeca-488d757acbcc.jpg""]","",""
"","3633","similarity","159","1118719","0.0-6.0-153.0","2","[""img/0862/99a99e39-8355-44ec-b993-e7bcec111e1c.jpg"",""img/0894/43216a7f-27bc-4b5a-8841-d122a30da9d9.jpg""]","",""
"","2631","similarity","160","1122356","0.0-6.0-154.0","6","[""img/0899/8de08897-b430-42fe-9d42-840670b80f94.jpg"",""img/0901/4d1bed7e-3c4e-4f6c-ada9-4beb66ba9e39.jpg""]","",""
"","3431","similarity","161","1126791","0.0-6.0-155.0","5","[""img/0874/31e22c7c-99aa-40b1-bf03-dd73fa2df4d6.jpg"",""img/0874/995f0332-0439-4eb4-add3-957335dbf6d9.jpg""]","",""
"","3430","similarity","162","1131225","0.0-6.0-156.0","5","[""img/0860/15b24a61-25be-4356-9eac-5ce95d0cb4a4.jpg"",""img/0867/98d8cd96-1476-4fe0-a3a3-04f875500a1b.jpg""]","",""
"","3616","similarity","163","1135847","0.0-6.0-157.0","3","[""img/0901/1ede21d9-384f-4150-86b5-e1c57b5dc1d4.jpg"",""img/0881/ed4c971f-0873-4fc8-b6d6-e8bbd82f0bcc.jpg""]","",""
"","4070","similarity","164","1140921","0.0-6.0-158.0","7","[""img/0903/24477210-856c-4550-9de0-9f85a32762eb.jpg"",""img/0902/95a36b6b-9601-4fa5-8fd9-606ea62f9425.jpg""]","",""
"","4599","similarity","165","1146524","0.0-6.0-159.0","3","[""img/0860/5383b320-1518-4095-a58e-5cc1ae30b64c.jpg"",""img/0764/c84fbfa8-521c-407a-9bd3-24f7308d896c.jpg""]","",""
"","3776","similarity","166","1151306","0.0-6.0-160.0","1","[""img/0902/b03fee99-d5ca-4bf8-871c-a4a743a39842.jpg"",""img/0875/90da8d75-108a-44ad-b999-e21fee3860d3.jpg""]","",""
"","4597","similarity","167","1156912","0.0-6.0-161.0","2","[""img/0898/79233891-305a-4a6a-8ddf-5c8604858203.jpg"",""img/0862/a0a3a7ba-7798-46a3-b4ca-05e1f6e581d0.jpg""]","",""
"","4211","similarity","168","1162129","0.0-6.0-162.0","5","[""img/0894/1b3888e6-cf36-4c4a-a039-187aa5cb71ac.jpg"",""img/0875/5a1e5100-0d94-4fec-bbe9-ca9894d2cf8e.jpg""]","",""
"","3567","similarity","169","1166701","0.0-6.0-163.0","4","[""img/0866/f756f7d1-9ad8-4a34-9ef6-7a443d705bfe.jpg"",""img/0864/9b2490c5-a282-400a-9736-e1a0ecbf1cb7.jpg""]","",""
"","5147","similarity","170","1172854","0.0-6.0-164.0","5","[""img/0766/f011ef45-fb48-44b8-8224-867ed2ccf786.jpg"",""img/0862/de9ad88c-b522-430a-8ee9-eb06a9f85df5.jpg""]","",""
"","3329","similarity","171","1177188","0.0-6.0-165.0","2","[""img/0866/9b38d691-1802-4959-ab3f-fc902f0e4ea6.jpg"",""img/0874/85eb9b8a-c4c6-4e5a-b8e7-363a87a82054.jpg""]","",""
"","3985","similarity","172","1182178","0.0-6.0-166.0","4","[""img/0862/7918ca67-5bd3-4606-a5ea-c39fb11a9297.jpg"",""img/0860/8a92e21b-6a32-4e4a-a445-2d5a487ed0a4.jpg""]","",""
"","3188","similarity","173","1186372","0.0-6.0-167.0","5","[""img/0766/d3bab2fc-ddcc-40a0-bb72-c0d0ebe19978.jpg"",""img/0901/4f9cffe0-c0be-4d7f-bacd-9d51efd19b4a.jpg""]","",""
"","2853","similarity","174","1190230","0.0-6.0-168.0","7","[""img/0862/ee3b7bff-4a70-4e84-9bea-4a565e456acb.jpg"",""img/0862/24cdc752-c2e5-4a17-86a6-6f2045d8553b.jpg""]","",""
"","4697","similarity","175","1195933","0.0-6.0-169.0","7","[""img/0894/10f22b96-040c-44f4-950b-a4963f3f506c.jpg"",""img/0764/55b3fab1-b809-4d38-a461-3f40ce062f52.jpg""]","",""
"","5241","similarity","176","1202180","0.0-6.0-170.0","3","[""img/0874/a3bc679d-619f-4db6-bb68-116dcb757d9c.jpg"",""img/0898/04e39a7a-fcf6-4156-ab0e-f5871f335e1c.jpg""]","",""
"","3547","similarity","177","1206732","0.0-6.0-171.0","6","[""img/0860/702bd09d-df3a-40aa-a267-5f04474305b5.jpg"",""img/0766/af3be95e-e52e-4fae-899b-0ff02ec340aa.jpg""]","",""
"","4690","similarity","178","1212430","0.0-6.0-172.0","2","[""img/0898/40f99fb2-64d2-4e72-8a7f-a1cf60741e69.jpg"",""img/0864/49150900-7f25-4ce8-8d10-9b47a71d1997.jpg""]","",""
"","5276","similarity","179","1218711","0.0-6.0-173.0","6","[""img/0881/f4e3e181-b3c9-4af2-a5a4-fc135ab70d2e.jpg"",""img/0764/4bec8d92-75aa-475a-954d-8215dbe538f5.jpg""]","",""
"","3510","similarity","180","1223226","0.0-6.0-174.0","3","[""img/0898/26c41340-15bd-4ead-8fe4-c0d0ddca09c2.jpg"",""img/0868/8b0b8473-e2c0-4331-aa56-c3a5c29369da.jpg""]","",""
"","2730","similarity","181","1226960","0.0-6.0-175.0","6","[""img/0864/1ebbc554-99fa-49f9-8799-317375a79820.jpg"",""img/0864/e336a4c5-6648-4fd7-b2f6-93a3fb83f8c6.jpg""]","",""
"","5283","similarity","182","1233249","0.0-6.0-176.0","6","[""img/0899/d60714ae-98d7-4564-8c98-94dba1351135.jpg"",""img/0862/53a9cf7c-93c4-41b9-952f-07d17f7a17b2.jpg""]","",""
"","2956","similarity","183","1237212","0.0-6.0-177.0","2","[""img/0875/3ecb367d-e9eb-4826-8aaa-7aa72fb98019.jpg"",""img/0758/f61ecdf8-a7d4-4db0-b84d-be46f7cfaffc.jpg""]","",""
"","3451","similarity","184","1241669","0.0-6.0-178.0","1","[""img/0866/620cd1aa-0800-4414-8f6e-90342e7a99ad.jpg"",""img/0901/ae1e6ce4-2e10-4ca9-b1e7-21628637ab74.jpg""]","",""
"","4615","similarity","185","1247289","0.0-6.0-179.0","7","[""img/0769/c7cfacc3-7f07-46ff-9f5d-8073f4c4679b.jpg"",""img/0874/2c9464dd-8a23-4baa-ac94-1ba3af5c15cc.jpg""]","",""
"","4674","similarity","186","1252968","0.0-6.0-180.0","2","[""img/0875/34132396-d896-4c2d-8087-646dd867e769.jpg"",""img/0881/d373cb9f-a719-4549-a2a4-82def79fb2a5.jpg""]","",""
"","4000","similarity","187","1257972","0.0-6.0-181.0","6","[""img/0866/be24ab58-230e-4db8-9f45-ff04c9aec6bb.jpg"",""img/0868/4bd5105a-d2c3-4f82-8c80-57196106ba53.jpg""]","",""
"","3823","similarity","188","1262800","0.0-6.0-182.0","5","[""img/0899/93494f3b-d539-4075-b027-d82e344563da.jpg"",""img/0758/6cd8c362-ae2a-41eb-80a3-3a4f7ace1530.jpg""]","",""
"","4098","similarity","189","1267903","0.0-6.0-183.0","5","[""img/0874/3f471690-9788-4d03-90c7-f615aecef149.jpg"",""img/0875/2e13d160-eea1-416b-aff1-d37ab99ecc1d.jpg""]","",""
"","4149","similarity","190","1273056","0.0-6.0-184.0","7","[""img/0904/09934646-45d2-4147-8fec-64a22a5ac822.jpg"",""img/0862/e8cc3bdf-cc43-4565-bccf-492626c70953.jpg""]","",""
"","5595","similarity","191","1279656","0.0-6.0-185.0","2","[""img/0902/24d10fe7-314f-4d5a-8c7b-b43121bba0a4.jpg"",""img/0766/60033a74-9919-47e5-913c-71d0d483e7e5.jpg""]","",""
"","5196","similarity","192","1285857","0.0-6.0-186.0","2","[""img/0758/53f35650-e455-4b53-8be4-c3c8271c6466.jpg"",""img/0769/8598a429-c671-4d2f-842c-32f681f5e412.jpg""]","",""
"","3857","similarity","193","1290718","0.0-6.0-187.0","7","[""img/0881/2a8413be-fec2-4de6-88ad-614dd4cccc9d.jpg"",""img/0881/344de456-b358-4887-bd0e-e4c3278af887.jpg""]","",""
"","3523","similarity","194","1295245","0.0-6.0-188.0","1","[""img/0758/7fba58df-2a7a-4b76-8a8f-62739f97f271.jpg"",""img/0866/386235d2-6857-41e7-88a8-25cfc3430025.jpg""]","",""
"","4492","similarity","195","1305155","0.0-6.0-189.0","2","[""img/0764/e48e6c6f-9e28-420f-836a-8043b2319bb4.jpg"",""img/0898/881e2a85-d5c2-49be-a0c6-8a6ce2c4af08.jpg""]","",""
"","426346","similarity","196","1732511","0.0-6.0-190.0","4","[""img/0903/ea75f240-fb62-4edb-a709-83e858b202c0.jpg"",""img/0901/233a6948-48eb-4b67-8259-222b916b2322.jpg""]","",""
"","3574","similarity","197","1737093","0.0-6.0-191.0","6","[""img/0902/27b84584-948a-485b-8749-cb09929ef631.jpg"",""img/0898/4184e5a2-84ea-4f36-9b42-ae58646f6f87.jpg""]","",""
"","4059","similarity","198","1742158","0.0-6.0-192.0","1","[""img/0864/4bd81bc6-c13d-46df-95a9-485886dc7c1b.jpg"",""img/0901/bc47e078-bda4-40ed-b89a-bbd819164b95.jpg""]","",""
"","5016","similarity","199","1748180","0.0-6.0-193.0","7","[""img/0894/86201968-6e78-4d68-9b3a-d1692e066210.jpg"",""img/0881/d1982897-8d8d-4704-a940-1ee5d07a1f15.jpg""]","",""
"","4259","similarity","200","1753446","0.0-6.0-194.0","7","[""img/0868/c8ac40c7-6904-4e13-8d61-c75d3052dc4e.jpg"",""img/0868/09a9ef4d-d000-4cfa-a6aa-ebec7c2edeb4.jpg""]","",""
"","4665","similarity","201","1759117","0.0-6.0-195.0","7","[""img/0899/06b0fc99-0581-461a-9913-d1a5a941ac61.jpg"",""img/0764/ca9829fe-aaf8-45b8-b98a-6bae751c63dd.jpg""]","",""
"","3984","similarity","202","1764105","0.0-6.0-196.0","6","[""img/0881/62a64f90-7a72-4aee-a1a1-0c548ac9bdda.jpg"",""img/0904/696ebb60-8891-417a-91fd-c53218907a95.jpg""]","",""
"","4346","similarity","203","1769458","0.0-6.0-197.0","6","[""img/0864/3651d070-2fc5-4848-b6a6-088a2d9ac5c9.jpg"",""img/0902/3b243e54-0803-4c29-af42-4037c2118495.jpg""]","",""
"","4805","similarity","204","1775268","0.0-6.0-198.0","3","[""img/0894/7fb082e0-ce79-485c-9109-04367fb32275.jpg"",""img/0904/a8c3c7d2-9bcf-4347-9e03-8203adfc1fc5.jpg""]","",""
"","3369","similarity","205","1779642","0.0-6.0-199.0","7","[""img/0901/0adb3bd6-d758-4ba7-9723-3ad6cac05bd5.jpg"",""img/0901/d4d09bf5-093e-4050-838e-7c738be8e63c.jpg""]","",""
"","3874","similarity","206","1784522","0.0-6.0-200.0","3","[""img/0894/1a010553-d598-4b06-a772-81f1e7b3addb.jpg"",""img/0860/c47fdead-eb02-4989-b078-26f4852f44fe.jpg""]","",""
"","3208","similarity","207","1788736","0.0-6.0-201.0","7","[""img/0898/cd3aaa3f-efa9-4ab3-8d6f-a6a9273ddf42.jpg"",""img/0903/f45a103c-9bfe-49fd-ad96-bdd8d2589195.jpg""]","",""
"","3923","similarity","208","1793664","0.0-6.0-202.0","5","[""img/0864/300bb811-8b3c-4c42-8653-6097c3725197.jpg"",""img/0894/c505c65a-cde2-4f2c-8cde-f8676f7c894d.jpg""]","",""
"","4443","similarity","209","1799114","0.0-6.0-203.0","2","[""img/0874/ca76a855-4e77-4f2f-872a-0a718153e7ed.jpg"",""img/0860/8fdba999-b946-4c7d-9891-336018b563ef.jpg""]","",""
"","3091","similarity","210","1803210","0.0-6.0-204.0","1","[""img/0862/ad593cc7-cabe-4bb7-8e14-8a447a0717b4.jpg"",""img/0875/42910c99-5463-450a-a0f8-d4d060a11455.jpg""]","",""
"","3139","similarity","211","1807356","0.0-6.0-205.0","1","[""img/0867/c66898ba-b71b-4d50-84f9-f7f84853a98d.jpg"",""img/0881/e046471a-35b4-4159-bbf7-3cfd201bef66.jpg""]","",""
"","3138","similarity","212","1811499","0.0-6.0-206.0","6","[""img/0901/1b86f2fc-7a1d-4aa8-9252-114f92edef3b.jpg"",""img/0902/6c2c243a-f663-45db-baf5-038d3d58c589.jpg""]","",""
"","3304","similarity","213","1815808","0.0-6.0-207.0","5","[""img/0899/57476fed-5962-4272-8fc9-b317bb777b54.jpg"",""img/0864/0f537697-a314-47c3-a8cc-8df23b7e536c.jpg""]","",""
"","3106","similarity","214","1819920","0.0-6.0-208.0","4","[""img/0901/deff6cfb-0072-4490-bc3e-206bbcd3e8bf.jpg"",""img/0769/f229321f-04dd-42d7-b14a-ffad6b509862.jpg""]","",""
"","4094","similarity","215","1825020","0.0-6.0-209.0","6","[""img/0902/c018bd7a-d91a-4192-aea4-7259cfcdb6c4.jpg"",""img/0902/82d20e8c-2162-47a6-925b-52906558c046.jpg""]","",""
"[{""page_index"":0,""viewing_time"":10204}]","10205","instructions","216","1836226","0.0-7.0","","","",""
"","20150","image-multi-choice","217","1857395","0.0-8.0-0.0","","","{""Q0"":""Tennessee Warbler""}","Nashville Warbler"
"","5576","image-multi-choice","218","1863985","0.0-8.0-1.0","","","{""Q0"":""Magnolia Warbler""}","Black-and-white Warbler"
"","4708","image-multi-choice","219","1869707","0.0-8.0-2.0","","","{""Q0"":""Orange-crowned Warbler""}","Townsend's Warbler"
"","3734","image-multi-choice","220","1874454","0.0-8.0-3.0","","","{""Q0"":""Lark Sparrow""}","Lark Sparrow"
"","16075","image-multi-choice","221","1891541","0.0-8.0-4.0","","","{""Q0"":""Yellow Warbler""}","Yellow Warbler"
"","4311","image-multi-choice","222","1896866","0.0-8.0-5.0","","","{""Q0"":""Northern Waterthrush""}","Orange-crowned Warbler"
"","3886","image-multi-choice","223","1901769","0.0-8.0-6.0","","","{""Q0"":""Swamp Sparrow""}","White-throated Sparrow"
"","3448","image-multi-choice","224","1906229","0.0-8.0-7.0","","","{""Q0"":""White-throated Sparrow""}","Fox Sparrow"
"","3419","image-multi-choice","225","1910660","0.0-8.0-8.0","","","{""Q0"":""Vesper Sparrow""}","Song Sparrow"
"","4261","image-multi-choice","226","1915934","0.0-8.0-9.0","","","{""Q0"":""Song Sparrow""}","Blackburnian Warbler"
"","3223","image-multi-choice","227","1920171","0.0-8.0-10.0","","","{""Q0"":""Lark Sparrow""}","Vesper Sparrow"
"","3149","image-multi-choice","228","1924333","0.0-8.0-11.0","","","{""Q0"":""Fox Sparrow""}","White-crowned Sparrow"
"","3015","image-multi-choice","229","1928362","0.0-8.0-12.0","","","{""Q0"":""Lincoln's Sparrow""}","American Tree Sparrow"
"","5522","image-multi-choice","230","1934898","0.0-8.0-13.0","","","{""Q0"":""Blackburnian Warbler""}","Tennessee Warbler"
"","6057","image-multi-choice","231","1941969","0.0-8.0-14.0","","","{""Q0"":""Black-and-white Warbler""}","Magnolia Warbler"
"","5079","image-multi-choice","232","1948061","0.0-8.0-15.0","","","{""Q0"":""Chipping Sparrow""}","Northern Waterthrush"
"","3884","image-multi-choice","233","1952958","0.0-8.0-16.0","","","{""Q0"":""White-crowned Sparrow""}","Chipping Sparrow"
"","2737","image-multi-choice","234","1956707","0.0-8.0-17.0","","","{""Q0"":""White-throated Sparrow""}","Swamp Sparrow"
"","4036","image-multi-choice","235","1961756","0.0-8.0-18.0","","","{""Q0"":""Lincoln's Sparrow""}","Lincoln's Sparrow"
"","2703","image-multi-choice","236","1965472","0.0-8.0-19.0","","","{""Q0"":""American Tree Sparrow""}","Ovenbird"
