[{"view_history":"[{\"page_index\":0,\"viewing_time\":1273}]","rt":1274,"trial_type":"instructions","trial_index":0,"time_elapsed":1275,"internal_node_id":"0.0-0.0"},{"sim_score":7,"rt":4173,"stimulus":"[\"img/866.jpg\",\"img/868.jpg\"]","trial_type":"similarity_demo","trial_index":1,"time_elapsed":6460,"internal_node_id":"0.0-1.0"},{"view_history":"[{\"page_index\":0,\"viewing_time\":5731}]","rt":5732,"trial_type":"instructions","trial_index":2,"time_elapsed":13193,"internal_node_id":"0.0-2.0"},{"sim_score":1,"rt":3834,"stimulus":"[\"img/766.jpg\",\"img/867.jpg\"]","trial_type":"similarity_demo","trial_index":3,"time_elapsed":18034,"internal_node_id":"0.0-3.0"},{"view_history":"[{\"page_index\":0,\"viewing_time\":1801}]","rt":1802,"trial_type":"instructions","trial_index":4,"time_elapsed":20837,"internal_node_id":"0.0-4.0"},{"view_history":"[{\"page_index\":0,\"viewing_time\":3953}]","rt":3953,"trial_type":"instructions","trial_index":5,"time_elapsed":25792,"internal_node_id":"0.0-5.0"},{"sim_score":3,"rt":4578,"stimulus":"[\"img/0868/293079b8-7e0c-4afd-a390-1e5d35fe3ded.jpg\",\"img/0901/00acf6c1-b66e-4060-bb04-4caf29b5a8b0.jpg\"]","trial_type":"similarity","trial_index":6,"time_elapsed":31378,"internal_node_id":"0.0-6.0-0.0"},{"sim_score":3,"rt":3313,"stimulus":"[\"img/0769/8056889f-2b14-4782-bb25-b4e8896ab65b.jpg\",\"img/0867/f8488a47-94ee-4166-952c-44e16cf172f6.jpg\"]","trial_type":"similarity","trial_index":7,"time_elapsed":35700,"internal_node_id":"0.0-6.0-1.0"},{"sim_score":5,"rt":4804,"stimulus":"[\"img/0766/2746b119-4bba-463e-acf0-88136dc6600c.jpg\",\"img/0898/c3cecf20-f7fd-45fa-97d0-dc0a63e8d6c0.jpg\"]","trial_type":"similarity","trial_index":8,"time_elapsed":41513,"internal_node_id":"0.0-6.0-2.0"},{"sim_score":3,"rt":4792,"stimulus":"[\"img/0902/d2c34af0-8c50-437d-8cc3-619195a3e8ba.jpg\",\"img/0881/84397291-bc14-4fbf-90e8-241e486ab0fe.jpg\"]","trial_type":"similarity","trial_index":9,"time_elapsed":47311,"internal_node_id":"0.0-6.0-3.0"},{"sim_score":7,"rt":3635,"stimulus":"[\"img/0894/38f5931f-926d-414e-b498-66b188978b7a.jpg\",\"img/0894/a98416c0-51e2-4960-85da-d81d8688b9d5.jpg\"]","trial_type":"similarity","trial_index":10,"time_elapsed":51951,"internal_node_id":"0.0-6.0-4.0"},{"sim_score":3,"rt":3132,"stimulus":"[\"img/0874/8cdb1c07-1c32-46d2-981c-3636560fa6e5.jpg\",\"img/0899/66ab3178-c3fe-4455-ad17-d5952b08e018.jpg\"]","trial_type":"similarity","trial_index":11,"time_elapsed":56089,"internal_node_id":"0.0-6.0-5.0"},{"sim_score":5,"rt":3492,"stimulus":"[\"img/0904/2f88ce53-02d0-4f95-a082-182c56a0eeb4.jpg\",\"img/0764/f9f890e6-3c2f-40cd-84e9-85e0b54cb28e.jpg\"]","trial_type":"similarity","trial_index":12,"time_elapsed":60586,"internal_node_id":"0.0-6.0-6.0"},{"sim_score":6,"rt":3343,"stimulus":"[\"img/0899/00715b3f-851b-420b-a26b-d7f79f7759a9.jpg\",\"img/0898/82231d4c-218b-4d0a-b50d-35a49b524e97.jpg\"]","trial_type":"similarity","trial_index":13,"time_elapsed":64935,"internal_node_id":"0.0-6.0-7.0"},{"sim_score":3,"rt":2747,"stimulus":"[\"img/0874/a82926a3-0b43-4add-803c-d5f9ea7798ee.jpg\",\"img/0903/aa842abe-6fa3-448a-bf71-88d3ad28663b.jpg\"]","trial_type":"similarity","trial_index":14,"time_elapsed":68689,"internal_node_id":"0.0-6.0-8.0"},{"sim_score":6,"rt":3533,"stimulus":"[\"img/0881/f6bd3b96-dc40-4e99-8681-bc3a35cf896d.jpg\",\"img/0758/61d64021-9214-4951-bdf8-f871f9827cf9.jpg\"]","trial_type":"similarity","trial_index":15,"time_elapsed":73229,"internal_node_id":"0.0-6.0-9.0"},{"sim_score":6,"rt":3295,"stimulus":"[\"img/0898/993d8f2d-bef7-4251-a193-0f93a32b7763.jpg\",\"img/0901/f469cb1d-6d81-4a45-bab5-cd0b650c2b4f.jpg\"]","trial_type":"similarity","trial_index":16,"time_elapsed":77529,"internal_node_id":"0.0-6.0-10.0"},{"sim_score":5,"rt":3785,"stimulus":"[\"img/0903/71dbc325-b588-4297-a5cf-7f268a722ad9.jpg\",\"img/0769/022c7e3b-c3f2-4119-b4bc-f22fa7cae18c.jpg\"]","trial_type":"similarity","trial_index":17,"time_elapsed":82318,"internal_node_id":"0.0-6.0-11.0"},{"sim_score":3,"rt":3398,"stimulus":"[\"img/0764/06ea144f-f4f3-4a14-ba47-f20f35c561e0.jpg\",\"img/0868/d98ca254-b195-477f-b57e-5760a2717db8.jpg\"]","trial_type":"similarity","trial_index":18,"time_elapsed":86722,"internal_node_id":"0.0-6.0-12.0"},{"sim_score":2,"rt":3883,"stimulus":"[\"img/0867/5e07b34d-b40f-4b1c-ac10-49975bace45f.jpg\",\"img/0903/005ad0de-4f52-433c-b515-dbe8d46184a3.jpg\"]","trial_type":"similarity","trial_index":19,"time_elapsed":91608,"internal_node_id":"0.0-6.0-13.0"},{"sim_score":6,"rt":3979,"stimulus":"[\"img/0766/0b48f9e0-7d37-4161-8adb-4e3f5b6b7583.jpg\",\"img/0758/caa93da2-9edf-49fa-96b9-32dedd8f5078.jpg\"]","trial_type":"similarity","trial_index":20,"time_elapsed":96591,"internal_node_id":"0.0-6.0-14.0"},{"sim_score":6,"rt":3578,"stimulus":"[\"img/0902/0c760cc9-10ac-429e-8957-a7d51fc99683.jpg\",\"img/0860/c5ccd1a4-4bb7-48e1-9b25-72cfaf06909b.jpg\"]","trial_type":"similarity","trial_index":21,"time_elapsed":101175,"internal_node_id":"0.0-6.0-15.0"},{"sim_score":2,"rt":3521,"stimulus":"[\"img/0769/180213e5-1e50-4b4e-87b6-add77ba04d39.jpg\",\"img/0875/e7e66b13-b573-431e-b85e-288ce04a35a3.jpg\"]","trial_type":"similarity","trial_index":22,"time_elapsed":105701,"internal_node_id":"0.0-6.0-16.0"},{"sim_score":2,"rt":3244,"stimulus":"[\"img/0904/25365108-e038-4021-aac9-797f2063b337.jpg\",\"img/0866/6f2a90d7-14f1-4f1b-bd64-fc0af6b9fe44.jpg\"]","trial_type":"similarity","trial_index":23,"time_elapsed":109950,"internal_node_id":"0.0-6.0-17.0"},{"sim_score":7,"rt":3566,"stimulus":"[\"img/0875/fb732ab5-013a-4366-9f65-27811ed157e9.jpg\",\"img/0875/d59ff733-eaff-4ee2-9443-06954dd0bcb6.jpg\"]","trial_type":"similarity","trial_index":24,"time_elapsed":114521,"internal_node_id":"0.0-6.0-18.0"},{"sim_score":6,"rt":3509,"stimulus":"[\"img/0758/d57c2592-a317-4f63-91be-91a3a9afd222.jpg\",\"img/0758/7ee8bc8f-c40b-4b3a-84ec-3e83580622d4.jpg\"]","trial_type":"similarity","trial_index":25,"time_elapsed":119035,"internal_node_id":"0.0-6.0-19.0"},{"sim_score":5,"rt":3918,"stimulus":"[\"img/0902/2a7ac123-414a-476a-9a96-4757b924baef.jpg\",\"img/0874/1016b306-087c-4afc-aa08-fa527b28dc76.jpg\"]","trial_type":"similarity","trial_index":26,"time_elapsed":123958,"internal_node_id":"0.0-6.0-20.0"},{"sim_score":7,"rt":3234,"stimulus":"[\"img/0764/c0b03adb-bd0a-4b96-a915-a827c2fd5211.jpg\",\"img/0769/f73c5138-2f4c-4354-981c-129dff9cc734.jpg\"]","trial_type":"similarity","trial_index":27,"time_elapsed":128197,"internal_node_id":"0.0-6.0-21.0"},{"sim_score":6,"rt":5075,"stimulus":"[\"img/0901/7c16dd9c-44ad-4d5b-990c-6a0b9b48b1b1.jpg\",\"img/0874/ca23d307-fc00-4d7d-9106-584c6eb21b4d.jpg\"]","trial_type":"similarity","trial_index":28,"time_elapsed":134277,"internal_node_id":"0.0-6.0-22.0"},{"sim_score":6,"rt":4011,"stimulus":"[\"img/0875/527ced51-8e53-4aab-ab05-86df219104c0.jpg\",\"img/0903/6138142e-c84e-45fc-9487-c974f3d4968a.jpg\"]","trial_type":"similarity","trial_index":29,"time_elapsed":139293,"internal_node_id":"0.0-6.0-23.0"},{"sim_score":5,"rt":4255,"stimulus":"[\"img/0769/bb8c4e53-6f32-4814-97ee-392d4decfb2e.jpg\",\"img/0881/48ed65a5-471f-41af-86ec-3793805c116d.jpg\"]","trial_type":"similarity","trial_index":30,"time_elapsed":144553,"internal_node_id":"0.0-6.0-24.0"},{"sim_score":3,"rt":3265,"stimulus":"[\"img/0867/6e19c858-b606-45b2-a4c6-910a73f1d82c.jpg\",\"img/0904/0d17b811-063e-416e-a23c-3b3cfa4fcce5.jpg\"]","trial_type":"similarity","trial_index":31,"time_elapsed":148823,"internal_node_id":"0.0-6.0-25.0"},{"sim_score":6,"rt":4309,"stimulus":"[\"img/0860/524b2e98-5767-4d53-942c-ebae6925659b.jpg\",\"img/0881/4bd34581-94d8-4e88-8c89-5cef864ca3be.jpg\"]","trial_type":"similarity","trial_index":32,"time_elapsed":154138,"internal_node_id":"0.0-6.0-26.0"},{"sim_score":7,"rt":3978,"stimulus":"[\"img/0866/c446214b-a368-4c65-ae39-ea46894256ab.jpg\",\"img/0866/0207e9a2-7dbb-40b5-9459-b472aaeceb2a.jpg\"]","trial_type":"similarity","trial_index":33,"time_elapsed":159121,"internal_node_id":"0.0-6.0-27.0"},{"sim_score":6,"rt":4152,"stimulus":"[\"img/0764/fb7d4a20-a475-465e-a74f-aa39a0d33d16.jpg\",\"img/0862/92fcd8a4-8193-4a6a-ae09-dd4a6338b0df.jpg\"]","trial_type":"similarity","trial_index":34,"time_elapsed":164278,"internal_node_id":"0.0-6.0-28.0"},{"sim_score":2,"rt":3338,"stimulus":"[\"img/0904/2c98dc56-88d1-4fb5-a999-b6a7861f65f0.jpg\",\"img/0758/ddc336e9-a8b6-4bb9-937a-c7e25e0e9250.jpg\"]","trial_type":"similarity","trial_index":35,"time_elapsed":168620,"internal_node_id":"0.0-6.0-29.0"},{"sim_score":5,"rt":4491,"stimulus":"[\"img/0894/6aa5545f-fa7d-4286-bbaa-aaf34dc7ec96.jpg\",\"img/0899/51a7a498-98c7-42d7-bca8-bc2d8f0b5831.jpg\"]","trial_type":"similarity","trial_index":36,"time_elapsed":174117,"internal_node_id":"0.0-6.0-30.0"},{"sim_score":5,"rt":4638,"stimulus":"[\"img/0860/f44ba3fb-03a2-42f0-8509-2c1ded493086.jpg\",\"img/0904/9b3568cc-3cf7-42be-9df3-fdafde7a58b8.jpg\"]","trial_type":"similarity","trial_index":37,"time_elapsed":179761,"internal_node_id":"0.0-6.0-31.0"},{"sim_score":7,"rt":3516,"stimulus":"[\"img/0874/3ce41e7c-40c8-4d58-a546-171114521796.jpg\",\"img/0881/f62bdcd1-a4b7-4d48-83da-d9c9e01c8727.jpg\"]","trial_type":"similarity","trial_index":38,"time_elapsed":184281,"internal_node_id":"0.0-6.0-32.0"},{"sim_score":7,"rt":9304,"stimulus":"[\"img/0881/5fe04dd0-5c74-47b7-99c8-b068db9ca26a.jpg\",\"img/0899/7b7380d5-d2be-44e5-a09a-c1756f87ef71.jpg\"]","trial_type":"similarity","trial_index":39,"time_elapsed":194592,"internal_node_id":"0.0-6.0-33.0"},{"sim_score":3,"rt":5258,"stimulus":"[\"img/0866/945c6710-d15b-4a5b-a8f6-69af0850357f.jpg\",\"img/0862/e0f1a4e9-e1b6-45f7-af67-89f334e6630d.jpg\"]","trial_type":"similarity","trial_index":40,"time_elapsed":200856,"internal_node_id":"0.0-6.0-34.0"},{"sim_score":3,"rt":5383,"stimulus":"[\"img/0868/5fa7f9d0-f0e5-454c-8224-74d964818f56.jpg\",\"img/0894/4739e06d-c31e-4bf1-bf91-c97fa9afb456.jpg\"]","trial_type":"similarity","trial_index":41,"time_elapsed":207245,"internal_node_id":"0.0-6.0-35.0"},{"sim_score":6,"rt":3623,"stimulus":"[\"img/0860/94ef7afc-e0e6-4a15-98c6-0bfac82bc832.jpg\",\"img/0860/61fb959d-d4d9-4de4-9e4e-4fa62b4cfcd5.jpg\"]","trial_type":"similarity","trial_index":42,"time_elapsed":211874,"internal_node_id":"0.0-6.0-36.0"},{"sim_score":2,"rt":4849,"stimulus":"[\"img/0862/eefa5588-9efd-4591-aa5f-a2e17c7d7bcc.jpg\",\"img/0864/b3c4e378-28f0-4699-9338-2a257b4bca04.jpg\"]","trial_type":"similarity","trial_index":43,"time_elapsed":230719,"internal_node_id":"0.0-6.0-37.0"},{"sim_score":1,"rt":3806,"stimulus":"[\"img/0766/c23b5a20-e50f-4d85-841f-cf89212a4348.jpg\",\"img/0866/a15b02be-11bb-43e3-b0e0-ecc3bd7dfc49.jpg\"]","trial_type":"similarity","trial_index":44,"time_elapsed":235531,"internal_node_id":"0.0-6.0-38.0"},{"sim_score":6,"rt":4761,"stimulus":"[\"img/0875/03c3c331-738b-4446-af92-3d7386b08c2e.jpg\",\"img/0898/8605a25b-6895-476d-8c13-df7a83f96093.jpg\"]","trial_type":"similarity","trial_index":45,"time_elapsed":241297,"internal_node_id":"0.0-6.0-39.0"},{"sim_score":6,"rt":4063,"stimulus":"[\"img/0766/6d32752d-aa05-40dc-9541-640b6e9d6fa1.jpg\",\"img/0769/4680bcc3-8fbc-4643-8f9a-12aa0e780b64.jpg\"]","trial_type":"similarity","trial_index":46,"time_elapsed":246365,"internal_node_id":"0.0-6.0-40.0"},{"sim_score":7,"rt":4850,"stimulus":"[\"img/0874/29830da7-be5f-44e5-b141-652a0ccf7269.jpg\",\"img/0764/8389e74f-e0e0-435d-945f-da1f4c92ccb6.jpg\"]","trial_type":"similarity","trial_index":47,"time_elapsed":252221,"internal_node_id":"0.0-6.0-41.0"},{"sim_score":3,"rt":3014,"stimulus":"[\"img/0868/77091fc7-a590-4ebb-b915-fdb2483a2399.jpg\",\"img/0902/2db723b6-130f-454c-8c8d-88829edbcd65.jpg\"]","trial_type":"similarity","trial_index":48,"time_elapsed":256241,"internal_node_id":"0.0-6.0-42.0"},{"sim_score":4,"rt":4745,"stimulus":"[\"img/0875/f87b67d7-c33e-40d1-b281-248c4be1cb6e.jpg\",\"img/0899/5b56dd3e-3f49-47cc-af84-16da6457753b.jpg\"]","trial_type":"similarity","trial_index":49,"time_elapsed":261991,"internal_node_id":"0.0-6.0-43.0"},{"sim_score":2,"rt":4299,"stimulus":"[\"img/0866/d266fece-59b3-46fa-b69f-96f6efb81b59.jpg\",\"img/0860/4a022222-056d-461c-ab02-39fac9647552.jpg\"]","trial_type":"similarity","trial_index":50,"time_elapsed":267296,"internal_node_id":"0.0-6.0-44.0"},{"sim_score":5,"rt":3291,"stimulus":"[\"img/0766/b84598d0-5b41-4841-88b0-b441b48289f5.jpg\",\"img/0903/8f7f9939-b8e6-433f-93dd-b362496c80a7.jpg\"]","trial_type":"similarity","trial_index":51,"time_elapsed":271594,"internal_node_id":"0.0-6.0-45.0"},{"sim_score":5,"rt":3259,"stimulus":"[\"img/0901/3db47171-0139-4235-82cd-0b1787b6775f.jpg\",\"img/0904/09dac84f-3d1c-4445-a68e-d0389fdbf1e9.jpg\"]","trial_type":"similarity","trial_index":52,"time_elapsed":275859,"internal_node_id":"0.0-6.0-46.0"},{"sim_score":5,"rt":2509,"stimulus":"[\"img/0758/335851a0-a55b-46d8-ab05-8463eda48349.jpg\",\"img/0902/aa6fca32-82b0-4414-b20a-8f6f8aa5a2d2.jpg\"]","trial_type":"similarity","trial_index":53,"time_elapsed":279374,"internal_node_id":"0.0-6.0-47.0"},{"sim_score":6,"rt":4034,"stimulus":"[\"img/0764/952d7adc-dc40-4aee-acce-18c2a1d02ea1.jpg\",\"img/0764/c80b3e06-2ee3-4326-9678-340607eb5348.jpg\"]","trial_type":"similarity","trial_index":54,"time_elapsed":284413,"internal_node_id":"0.0-6.0-48.0"},{"sim_score":2,"rt":3231,"stimulus":"[\"img/0866/07c9c966-3c8d-40e7-8128-92b2acbaed5d.jpg\",\"img/0902/9f543501-3cf1-45a7-a2f1-eeca87cc15b9.jpg\"]","trial_type":"similarity","trial_index":55,"time_elapsed":288650,"internal_node_id":"0.0-6.0-49.0"},{"sim_score":3,"rt":5178,"stimulus":"[\"img/0764/438c0217-036f-43c9-9b87-f43144e46011.jpg\",\"img/0758/a709631e-3705-4725-ac40-f0d916924f08.jpg\"]","trial_type":"similarity","trial_index":56,"time_elapsed":294833,"internal_node_id":"0.0-6.0-50.0"},{"sim_score":6,"rt":4406,"stimulus":"[\"img/0898/68476bbb-34a1-42d9-8bc1-deab783d4489.jpg\",\"img/0894/38cf335f-f76f-4349-8d65-e20cd6859565.jpg\"]","trial_type":"similarity","trial_index":57,"time_elapsed":300244,"internal_node_id":"0.0-6.0-51.0"},{"sim_score":3,"rt":3729,"stimulus":"[\"img/0875/ebf7653f-ff45-4e9f-af58-2c042ab3cd2b.jpg\",\"img/0866/a04d37f0-99dd-478a-b6c6-58b215138f84.jpg\"]","trial_type":"similarity","trial_index":58,"time_elapsed":304977,"internal_node_id":"0.0-6.0-52.0"},{"sim_score":6,"rt":3690,"stimulus":"[\"img/0904/6291eb43-c10c-4810-a36a-101d09868b04.jpg\",\"img/0904/0d25eb24-bb20-4e8d-9787-8b489558b4cb.jpg\"]","trial_type":"similarity","trial_index":59,"time_elapsed":309672,"internal_node_id":"0.0-6.0-53.0"},{"sim_score":7,"rt":4762,"stimulus":"[\"img/0769/1ca58b80-2365-446d-9616-6c1719e6c46f.jpg\",\"img/0769/0fe124d3-bcad-45f6-b64d-8f6eb8ee5251.jpg\"]","trial_type":"similarity","trial_index":60,"time_elapsed":315440,"internal_node_id":"0.0-6.0-54.0"},{"sim_score":3,"rt":3085,"stimulus":"[\"img/0898/81b08535-2020-4c15-9ce4-2f1e460755ae.jpg\",\"img/0758/65d426d6-3ff6-415d-8654-a43b83ecc4fe.jpg\"]","trial_type":"similarity","trial_index":61,"time_elapsed":319532,"internal_node_id":"0.0-6.0-55.0"},{"sim_score":6,"rt":4707,"stimulus":"[\"img/0769/387a9744-d6a7-42b8-bab8-33007ec434aa.jpg\",\"img/0902/07437a16-3d0f-4a5c-89ec-36d0efa4b3b8.jpg\"]","trial_type":"similarity","trial_index":62,"time_elapsed":325245,"internal_node_id":"0.0-6.0-56.0"},{"sim_score":6,"rt":3572,"stimulus":"[\"img/0864/c22faebd-9c53-47bc-ada3-b9a30c688e75.jpg\",\"img/0881/6b1189e6-232d-4042-8885-16dc7b10e0d4.jpg\"]","trial_type":"similarity","trial_index":63,"time_elapsed":329824,"internal_node_id":"0.0-6.0-57.0"},{"sim_score":1,"rt":2883,"stimulus":"[\"img/0758/20497cbe-ddae-489e-86e2-ab06985ed07c.jpg\",\"img/0868/15dd6fd7-791e-4b53-b203-195d617521a4.jpg\"]","trial_type":"similarity","trial_index":64,"time_elapsed":333712,"internal_node_id":"0.0-6.0-58.0"},{"sim_score":5,"rt":4697,"stimulus":"[\"img/0862/57b6f83f-c763-4858-830d-102f97bfefbf.jpg\",\"img/0769/9ea27d61-3d55-418c-8d14-82e90f656f01.jpg\"]","trial_type":"similarity","trial_index":65,"time_elapsed":339414,"internal_node_id":"0.0-6.0-59.0"},{"sim_score":6,"rt":4199,"stimulus":"[\"img/0764/974d52cc-6318-4e7a-b294-2f3e92ff800f.jpg\",\"img/0903/6378ee1e-3d2b-48d2-87be-bebda32c8268.jpg\"]","trial_type":"similarity","trial_index":66,"time_elapsed":344619,"internal_node_id":"0.0-6.0-60.0"},{"sim_score":7,"rt":4576,"stimulus":"[\"img/0899/8abe6c69-822c-436c-9bf2-96c818b49ba5.jpg\",\"img/0899/a05bea16-2bb4-4cb9-b8fb-4ff975db6971.jpg\"]","trial_type":"similarity","trial_index":67,"time_elapsed":350198,"internal_node_id":"0.0-6.0-61.0"},{"sim_score":6,"rt":5191,"stimulus":"[\"img/0860/4f695df5-afac-4da7-9875-fee39b0b24ad.jpg\",\"img/0875/a4935837-7d3c-4df6-88c1-36a94d4991ca.jpg\"]","trial_type":"similarity","trial_index":68,"time_elapsed":356395,"internal_node_id":"0.0-6.0-62.0"},{"sim_score":2,"rt":6409,"stimulus":"[\"img/0868/fd307a36-9a3a-47d7-ab7c-f810d0b35040.jpg\",\"img/0874/767f289c-9814-4496-803f-745cc8913d1f.jpg\"]","trial_type":"similarity","trial_index":69,"time_elapsed":363809,"internal_node_id":"0.0-6.0-63.0"},{"sim_score":1,"rt":4746,"stimulus":"[\"img/0758/2fa3e613-e676-4e6e-bd12-705327eeb3e1.jpg\",\"img/0862/92f0146c-20c4-482e-aef5-adb693790338.jpg\"]","trial_type":"similarity","trial_index":70,"time_elapsed":369560,"internal_node_id":"0.0-6.0-64.0"},{"sim_score":6,"rt":3338,"stimulus":"[\"img/0904/4b8daf2a-13a9-4ea9-9e0b-b265b6e933e7.jpg\",\"img/0898/5f699581-3853-4547-856c-12f419ba5af7.jpg\"]","trial_type":"similarity","trial_index":71,"time_elapsed":373903,"internal_node_id":"0.0-6.0-65.0"},{"sim_score":1,"rt":3336,"stimulus":"[\"img/0881/1407b85b-a1c6-45b1-9884-3b24203efadb.jpg\",\"img/0866/4a87911a-d5be-4d4e-ab8e-3d1f581bf507.jpg\"]","trial_type":"similarity","trial_index":72,"time_elapsed":378244,"internal_node_id":"0.0-6.0-66.0"},{"sim_score":3,"rt":3973,"stimulus":"[\"img/0867/a749dddb-69f0-44a6-acdc-2bf295cf6dcc.jpg\",\"img/0898/08c72dac-f8ad-407a-9ce6-8c9a5d679c3a.jpg\"]","trial_type":"similarity","trial_index":73,"time_elapsed":383222,"internal_node_id":"0.0-6.0-67.0"},{"sim_score":3,"rt":5232,"stimulus":"[\"img/0902/4e0baa32-988e-46f6-989d-f669225ab645.jpg\",\"img/0764/62fafeea-6274-48ce-976f-35d3d3484c65.jpg\"]","trial_type":"similarity","trial_index":74,"time_elapsed":389460,"internal_node_id":"0.0-6.0-68.0"},{"sim_score":6,"rt":2551,"stimulus":"[\"img/0875/5a7c4e35-6514-4e12-8879-d16071da4cd6.jpg\",\"img/0867/c71dc569-f49c-4397-8381-68b8d726736d.jpg\"]","trial_type":"similarity","trial_index":75,"time_elapsed":393016,"internal_node_id":"0.0-6.0-69.0"},{"sim_score":7,"rt":4380,"stimulus":"[\"img/0766/908bc45b-7c9e-4f95-806e-86b196ebcb2c.jpg\",\"img/0764/a3226bc4-dcc3-4608-bde8-1414d685ce5c.jpg\"]","trial_type":"similarity","trial_index":76,"time_elapsed":398401,"internal_node_id":"0.0-6.0-70.0"},{"sim_score":2,"rt":2965,"stimulus":"[\"img/0894/2d2db7b3-e8a3-499b-b63a-14f51bf73882.jpg\",\"img/0867/f26f6b60-f772-4f4c-95a4-addc62cfd692.jpg\"]","trial_type":"similarity","trial_index":77,"time_elapsed":402371,"internal_node_id":"0.0-6.0-71.0"},{"sim_score":2,"rt":4924,"stimulus":"[\"img/0875/8521fd58-3b1e-4dc5-97ae-804edfa6734a.jpg\",\"img/0764/b887d7c6-aa81-4637-af8e-05135757ac59.jpg\"]","trial_type":"similarity","trial_index":78,"time_elapsed":408300,"internal_node_id":"0.0-6.0-72.0"},{"sim_score":6,"rt":3271,"stimulus":"[\"img/0867/7d1c497b-c1b3-4ed8-abb5-d7f73306015f.jpg\",\"img/0866/93a27239-8317-4e08-98ca-d8b1ff298e07.jpg\"]","trial_type":"similarity","trial_index":79,"time_elapsed":412577,"internal_node_id":"0.0-6.0-73.0"},{"sim_score":5,"rt":4120,"stimulus":"[\"img/0903/72197c2b-403e-4a26-b391-f1aa8dea4b76.jpg\",\"img/0758/3ddd05d3-557e-4ee7-8b78-9d2d681d8ae2.jpg\"]","trial_type":"similarity","trial_index":80,"time_elapsed":417703,"internal_node_id":"0.0-6.0-74.0"},{"sim_score":4,"rt":4182,"stimulus":"[\"img/0766/2e1cf445-9aef-40e7-92f4-5facf48b64c5.jpg\",\"img/0868/6a28c3b0-3d76-498a-9fb7-ddafc665eca8.jpg\"]","trial_type":"similarity","trial_index":81,"time_elapsed":668331,"internal_node_id":"0.0-6.0-75.0"},{"sim_score":7,"rt":3994,"stimulus":"[\"img/0874/93d1f8dc-acf2-4f03-bd8d-8ec35df276ed.jpg\",\"img/0766/e8052e17-9dae-4139-802b-6e590cb2d526.jpg\"]","trial_type":"similarity","trial_index":82,"time_elapsed":673332,"internal_node_id":"0.0-6.0-76.0"},{"sim_score":1,"rt":2702,"stimulus":"[\"img/0881/14236cf2-6b95-48b8-9368-78af09d2d27f.jpg\",\"img/0868/d6d1f30d-4323-435a-b194-7892521bc57e.jpg\"]","trial_type":"similarity","trial_index":83,"time_elapsed":677039,"internal_node_id":"0.0-6.0-77.0"},{"sim_score":6,"rt":5637,"stimulus":"[\"img/0758/821c68d3-5cb0-4eae-8659-30e6263fca39.jpg\",\"img/0901/effc03f6-8f9d-46db-a66c-16fc83891c5c.jpg\"]","trial_type":"similarity","trial_index":84,"time_elapsed":683682,"internal_node_id":"0.0-6.0-78.0"},{"sim_score":3,"rt":3655,"stimulus":"[\"img/0881/b1a136f7-8511-4d3a-a0f6-3879acf1e1a1.jpg\",\"img/0898/e167334e-cc1d-4986-b3b1-c7bc7da64baa.jpg\"]","trial_type":"similarity","trial_index":85,"time_elapsed":688345,"internal_node_id":"0.0-6.0-79.0"},{"sim_score":1,"rt":2620,"stimulus":"[\"img/0867/de92135f-5b65-4ed9-b245-188292c7c2f8.jpg\",\"img/0758/d41c06bf-ebaf-454b-91c6-1a17f917b659.jpg\"]","trial_type":"similarity","trial_index":86,"time_elapsed":691971,"internal_node_id":"0.0-6.0-80.0"},{"sim_score":6,"rt":4733,"stimulus":"[\"img/0769/75f7e514-0548-4329-b1e4-93c05e74f038.jpg\",\"img/0899/565ccdd9-0933-4536-a625-3c0e25a713dd.jpg\"]","trial_type":"similarity","trial_index":87,"time_elapsed":697709,"internal_node_id":"0.0-6.0-81.0"},{"sim_score":7,"rt":3056,"stimulus":"[\"img/0903/0a92ec52-4e87-410a-857a-4455cde56a70.jpg\",\"img/0903/5ea5bbe0-f238-4724-abe7-9ed8dee8c0ba.jpg\"]","trial_type":"similarity","trial_index":88,"time_elapsed":701772,"internal_node_id":"0.0-6.0-82.0"},{"sim_score":2,"rt":2853,"stimulus":"[\"img/0867/ac1797e4-8afc-48fe-b252-86d1defb1cca.jpg\",\"img/0766/27f54113-8561-4568-9ffe-0a1650ae65ec.jpg\"]","trial_type":"similarity","trial_index":89,"time_elapsed":705630,"internal_node_id":"0.0-6.0-83.0"},{"sim_score":1,"rt":3611,"stimulus":"[\"img/0902/1f4a4c62-68c1-4993-b213-05652a173ed1.jpg\",\"img/0867/db7e032f-162b-46f5-ae67-2b29679adee4.jpg\"]","trial_type":"similarity","trial_index":90,"time_elapsed":710246,"internal_node_id":"0.0-6.0-84.0"},{"sim_score":3,"rt":3844,"stimulus":"[\"img/0901/b13fa50f-dbe0-4d0f-8647-6ac0fd8f40bd.jpg\",\"img/0875/99698b4d-b4a1-44bc-8c83-8ea755bbbf61.jpg\"]","trial_type":"similarity","trial_index":91,"time_elapsed":715095,"internal_node_id":"0.0-6.0-85.0"},{"sim_score":2,"rt":3407,"stimulus":"[\"img/0764/3297a811-ea8b-4d74-9547-59cecab7293a.jpg\",\"img/0866/d493a2c8-66eb-44b4-be02-2f327b700b7c.jpg\"]","trial_type":"similarity","trial_index":92,"time_elapsed":719508,"internal_node_id":"0.0-6.0-86.0"},{"sim_score":5,"rt":4270,"stimulus":"[\"img/0901/548d1110-7cb8-42a2-9927-9798875c8b5c.jpg\",\"img/0894/3adef67d-7676-4995-80b2-bb31b8aca3ef.jpg\"]","trial_type":"similarity","trial_index":93,"time_elapsed":724782,"internal_node_id":"0.0-6.0-87.0"},{"sim_score":4,"rt":2946,"stimulus":"[\"img/0898/224c1572-56b9-4f16-a9e4-6f3bc9c114bd.jpg\",\"img/0769/76eaa4a3-dfe9-4dc1-9efb-caebe86264e1.jpg\"]","trial_type":"similarity","trial_index":94,"time_elapsed":728733,"internal_node_id":"0.0-6.0-88.0"},{"sim_score":6,"rt":4994,"stimulus":"[\"img/0769/aad494cc-674d-4a08-9bfa-24a88ebe3c79.jpg\",\"img/0894/bd34223a-2f66-4e16-9d18-193a746b69ff.jpg\"]","trial_type":"similarity","trial_index":95,"time_elapsed":734732,"internal_node_id":"0.0-6.0-89.0"},{"sim_score":7,"rt":4347,"stimulus":"[\"img/0862/5d887e9f-89e2-4ebc-80a0-6d46fe6480db.jpg\",\"img/0874/bf14b896-e930-4fd9-9c05-2e83317a2773.jpg\"]","trial_type":"similarity","trial_index":96,"time_elapsed":740085,"internal_node_id":"0.0-6.0-90.0"},{"sim_score":4,"rt":5121,"stimulus":"[\"img/0894/767a0eec-1064-46b1-b1aa-dfa02b0cd74e.jpg\",\"img/0766/33aa9ebb-c9f5-418f-8c8b-c77861889568.jpg\"]","trial_type":"similarity","trial_index":97,"time_elapsed":746212,"internal_node_id":"0.0-6.0-91.0"},{"sim_score":3,"rt":2850,"stimulus":"[\"img/0874/c0378dac-9370-439a-8b79-db27c96fb390.jpg\",\"img/0867/26611f4e-d694-4460-b7e2-43c62753ddc3.jpg\"]","trial_type":"similarity","trial_index":98,"time_elapsed":750067,"internal_node_id":"0.0-6.0-92.0"},{"sim_score":2,"rt":3980,"stimulus":"[\"img/0899/0adc0bc3-6fca-4078-be6f-d45ddf1653d5.jpg\",\"img/0868/3a62db2d-97e9-44a3-b8e3-a48c6f0e423b.jpg\"]","trial_type":"similarity","trial_index":99,"time_elapsed":755051,"internal_node_id":"0.0-6.0-93.0"},{"sim_score":6,"rt":4426,"stimulus":"[\"img/0903/14f179a2-8786-48a2-8377-88d1d404341b.jpg\",\"img/0862/f43ceabf-acc1-4107-b857-5d1849808f93.jpg\"]","trial_type":"similarity","trial_index":100,"time_elapsed":760482,"internal_node_id":"0.0-6.0-94.0"},{"sim_score":7,"rt":4422,"stimulus":"[\"img/0899/4f7bc593-8ddd-4da3-a0b9-84da730d3370.jpg\",\"img/0766/26d3ae14-8275-4e08-99b2-a6598c193ddf.jpg\"]","trial_type":"similarity","trial_index":101,"time_elapsed":765909,"internal_node_id":"0.0-6.0-95.0"},{"sim_score":6,"rt":4215,"stimulus":"[\"img/0867/075e0f95-856b-4cbb-acf5-092393aaf04e.jpg\",\"img/0868/4e626425-63c8-484a-8a1d-e66ee4e0bef8.jpg\"]","trial_type":"similarity","trial_index":102,"time_elapsed":771130,"internal_node_id":"0.0-6.0-96.0"},{"sim_score":6,"rt":2876,"stimulus":"[\"img/0862/cdaed51d-9e2f-4807-801a-4663c40077e2.jpg\",\"img/0901/08d6d1d1-c043-43c4-bb08-d45e062822b9.jpg\"]","trial_type":"similarity","trial_index":103,"time_elapsed":775011,"internal_node_id":"0.0-6.0-97.0"},{"sim_score":5,"rt":3632,"stimulus":"[\"img/0875/2c361b79-c3d1-4eda-812e-bf03192407bf.jpg\",\"img/0766/a754e4b6-5019-4cf4-8f58-34c20547a1f5.jpg\"]","trial_type":"similarity","trial_index":104,"time_elapsed":779650,"internal_node_id":"0.0-6.0-98.0"},{"sim_score":6,"rt":3505,"stimulus":"[\"img/0758/eabcd7a8-56ad-4fd2-bc24-90f6b7b33265.jpg\",\"img/0874/eba003b4-cdab-4eee-8bc3-f064c7d94165.jpg\"]","trial_type":"similarity","trial_index":105,"time_elapsed":784160,"internal_node_id":"0.0-6.0-99.0"},{"sim_score":4,"rt":5047,"stimulus":"[\"img/0904/e9423a8c-f946-43ad-ab7b-931acef870e2.jpg\",\"img/0868/0d3abd3a-b6c3-4584-a9f7-e2da63748b3d.jpg\"]","trial_type":"similarity","trial_index":106,"time_elapsed":790213,"internal_node_id":"0.0-6.0-100.0"},{"sim_score":3,"rt":3860,"stimulus":"[\"img/0903/36e4ab1f-caa9-40b3-8616-faada076df94.jpg\",\"img/0866/23a224f3-2012-4fc8-8e0f-3c36f8de27fd.jpg\"]","trial_type":"similarity","trial_index":107,"time_elapsed":795078,"internal_node_id":"0.0-6.0-101.0"},{"sim_score":5,"rt":3666,"stimulus":"[\"img/0868/179a5502-ab5c-478e-8263-5a1fbcc101d2.jpg\",\"img/0769/35364db7-e0d5-40ef-93dc-faf9dfb95136.jpg\"]","trial_type":"similarity","trial_index":108,"time_elapsed":799748,"internal_node_id":"0.0-6.0-102.0"},{"sim_score":5,"rt":3569,"stimulus":"[\"img/0902/5b45a7a0-81c8-4a71-aaa2-2ce09adb5a29.jpg\",\"img/0899/1b3457ea-87d4-4946-a01c-aac1863ed46c.jpg\"]","trial_type":"similarity","trial_index":109,"time_elapsed":804321,"internal_node_id":"0.0-6.0-103.0"},{"sim_score":3,"rt":4129,"stimulus":"[\"img/0868/7b212364-ff5f-4e28-9241-7eb6ea00161b.jpg\",\"img/0862/d0ca4c78-fc35-46ed-bdcc-8e124283c53e.jpg\"]","trial_type":"similarity","trial_index":110,"time_elapsed":809455,"internal_node_id":"0.0-6.0-104.0"},{"sim_score":6,"rt":3094,"stimulus":"[\"img/0903/5248eedd-7e6a-4d39-91b0-06ec227f3ed0.jpg\",\"img/0894/2217bdcd-23a7-42d3-823b-23f2488d7e87.jpg\"]","trial_type":"similarity","trial_index":111,"time_elapsed":813554,"internal_node_id":"0.0-6.0-105.0"},{"sim_score":7,"rt":5332,"stimulus":"[\"img/0864/1d15626a-2f7c-410f-819c-0fa2c967e95e.jpg\",\"img/0874/adf9a8f1-c40b-402b-b95b-1e85a54a7b62.jpg\"]","trial_type":"similarity","trial_index":112,"time_elapsed":819892,"internal_node_id":"0.0-6.0-106.0"},{"sim_score":7,"rt":3202,"stimulus":"[\"img/0862/f23038d4-c366-4f70-979f-66b62362efa4.jpg\",\"img/0902/7499db23-3a41-41ea-ab5b-6ab4d4c3ed35.jpg\"]","trial_type":"similarity","trial_index":113,"time_elapsed":824099,"internal_node_id":"0.0-6.0-107.0"},{"sim_score":6,"rt":3178,"stimulus":"[\"img/0904/24fc38fe-842c-4831-ad8a-b1de5c25c0a8.jpg\",\"img/0903/b7e3723f-fd03-4f3d-8820-f19496463a34.jpg\"]","trial_type":"similarity","trial_index":114,"time_elapsed":828282,"internal_node_id":"0.0-6.0-108.0"},{"sim_score":6,"rt":5906,"stimulus":"[\"img/0764/23ea9375-f801-4a96-9925-7d453da887c7.jpg\",\"img/0864/5f33e097-23e3-4002-882d-76e8cb15f451.jpg\"]","trial_type":"similarity","trial_index":115,"time_elapsed":835193,"internal_node_id":"0.0-6.0-109.0"},{"sim_score":6,"rt":4717,"stimulus":"[\"img/0866/02f5e6b9-52b7-448c-9708-5b460d0c9a23.jpg\",\"img/0894/76c1201f-8524-4865-85e6-dda8cb4ac986.jpg\"]","trial_type":"similarity","trial_index":116,"time_elapsed":840915,"internal_node_id":"0.0-6.0-110.0"},{"sim_score":6,"rt":3026,"stimulus":"[\"img/0899/56a605c3-d0a2-4215-89e1-779279d85a7c.jpg\",\"img/0903/39365c8e-a733-4801-ac7d-b87e38c3784b.jpg\"]","trial_type":"similarity","trial_index":117,"time_elapsed":844954,"internal_node_id":"0.0-6.0-111.0"},{"sim_score":7,"rt":5773,"stimulus":"[\"img/0902/ca3160ba-ad5d-459f-a1b6-8b4f3c85ecd5.jpg\",\"img/0904/96e503ea-6630-4996-85f2-0237688ce441.jpg\"]","trial_type":"similarity","trial_index":118,"time_elapsed":851735,"internal_node_id":"0.0-6.0-112.0"},{"sim_score":4,"rt":6507,"stimulus":"[\"img/0864/ea327690-500b-4137-bf91-451b309fe6a5.jpg\",\"img/0860/e14d67c1-6d92-4f1e-9257-c8607159c19c.jpg\"]","trial_type":"similarity","trial_index":119,"time_elapsed":917302,"internal_node_id":"0.0-6.0-113.0"},{"sim_score":6,"rt":3265,"stimulus":"[\"img/0860/29a21a9f-54bb-4093-ad3f-04823ceaa89f.jpg\",\"img/0899/0433d056-aa30-4f8a-9aa1-abbb951e4edd.jpg\"]","trial_type":"similarity","trial_index":120,"time_elapsed":921574,"internal_node_id":"0.0-6.0-114.0"},{"sim_score":6,"rt":6378,"stimulus":"[\"img/0881/292e9b4b-fca0-4ba8-87f1-4048f9e37b7d.jpg\",\"img/0903/59defeb8-98bd-4570-a2f8-9bd189e68ef4.jpg\"]","trial_type":"similarity","trial_index":121,"time_elapsed":928958,"internal_node_id":"0.0-6.0-115.0"},{"sim_score":3,"rt":4084,"stimulus":"[\"img/0894/151063aa-6472-4745-837b-36603aba5966.jpg\",\"img/0874/7e4f2150-3b59-4a36-b5da-a4e0ba410531.jpg\"]","trial_type":"similarity","trial_index":122,"time_elapsed":934047,"internal_node_id":"0.0-6.0-116.0"},{"sim_score":6,"rt":3954,"stimulus":"[\"img/0881/f8bd891e-aa09-4782-89db-33e7cb2b0cf1.jpg\",\"img/0862/4f0a3b4c-afbf-486e-b248-1d54982f54b4.jpg\"]","trial_type":"similarity","trial_index":123,"time_elapsed":939008,"internal_node_id":"0.0-6.0-117.0"},{"sim_score":6,"rt":4722,"stimulus":"[\"img/0868/1a62b2b2-18f5-466e-b564-5176a57c565e.jpg\",\"img/0875/dbdd643e-6d0e-4a5c-ab57-b9c29b9c981a.jpg\"]","trial_type":"similarity","trial_index":124,"time_elapsed":944736,"internal_node_id":"0.0-6.0-118.0"},{"sim_score":3,"rt":3180,"stimulus":"[\"img/0860/4c530c3c-6aab-492a-94d1-9c01797bde40.jpg\",\"img/0758/a085b443-b5d7-4cb2-9ad4-b9dab0fc23f1.jpg\"]","trial_type":"similarity","trial_index":125,"time_elapsed":948921,"internal_node_id":"0.0-6.0-119.0"},{"sim_score":2,"rt":3152,"stimulus":"[\"img/0864/65210d57-1153-4657-886a-32e758f49b4a.jpg\",\"img/0875/cff79b3a-a797-4393-9757-6275f999ec04.jpg\"]","trial_type":"similarity","trial_index":126,"time_elapsed":953077,"internal_node_id":"0.0-6.0-120.0"},{"sim_score":2,"rt":2897,"stimulus":"[\"img/0898/b2732712-71c2-45d8-834f-2b2ed5504910.jpg\",\"img/0866/11a1d141-be5e-443c-98c1-a9d4d9e3dec0.jpg\"]","trial_type":"similarity","trial_index":127,"time_elapsed":956979,"internal_node_id":"0.0-6.0-121.0"},{"sim_score":4,"rt":3325,"stimulus":"[\"img/0874/99f6563c-8a8d-4c1c-a41d-667b618c3fd5.jpg\",\"img/0904/65e2b70a-b184-4da3-b5c0-5038bdf9469a.jpg\"]","trial_type":"similarity","trial_index":128,"time_elapsed":961310,"internal_node_id":"0.0-6.0-122.0"},{"sim_score":3,"rt":4601,"stimulus":"[\"img/0904/4d7d70a3-9477-4921-bda0-f9531d0a5c5b.jpg\",\"img/0864/da39ad34-04e0-40d4-a724-c08d53e0ea09.jpg\"]","trial_type":"similarity","trial_index":129,"time_elapsed":966915,"internal_node_id":"0.0-6.0-123.0"},{"sim_score":4,"rt":1756,"stimulus":"[\"img/0894/b422d5c6-3c5a-49ae-a53e-7e88ac993f49.jpg\",\"img/0902/3f0eeac5-c996-4026-a376-563ce8f28521.jpg\"]","trial_type":"similarity","trial_index":130,"time_elapsed":969676,"internal_node_id":"0.0-6.0-124.0"},{"sim_score":1,"rt":2724,"stimulus":"[\"img/0868/83b4350a-3b70-4cea-b7f5-b5b56f3050a8.jpg\",\"img/0864/66091c27-e588-4476-8af9-265dc6be4156.jpg\"]","trial_type":"similarity","trial_index":131,"time_elapsed":973407,"internal_node_id":"0.0-6.0-125.0"},{"sim_score":3,"rt":3215,"stimulus":"[\"img/0899/fef567a2-c121-4481-9af0-ff108d199bbf.jpg\",\"img/0866/bf14b5bd-fb55-47db-86b9-4f8aeb9a6dad.jpg\"]","trial_type":"similarity","trial_index":132,"time_elapsed":977628,"internal_node_id":"0.0-6.0-126.0"},{"sim_score":5,"rt":3789,"stimulus":"[\"img/0875/5a716432-c6ca-4b1c-955a-2b8ac25198ee.jpg\",\"img/0904/1d10df11-b5c8-4370-9a6b-097a7f965895.jpg\"]","trial_type":"similarity","trial_index":133,"time_elapsed":982421,"internal_node_id":"0.0-6.0-127.0"},{"sim_score":3,"rt":4643,"stimulus":"[\"img/0867/12264664-1860-46df-8c21-162b9817cdda.jpg\",\"img/0899/f95cbdb4-f804-4f5d-ad76-373ad343e658.jpg\"]","trial_type":"similarity","trial_index":134,"time_elapsed":988071,"internal_node_id":"0.0-6.0-128.0"},{"sim_score":1,"rt":3288,"stimulus":"[\"img/0901/a2d7b2f6-396b-4d91-8403-de5361c74af7.jpg\",\"img/0867/f8159067-056c-41f1-a136-c529fe5e970a.jpg\"]","trial_type":"similarity","trial_index":135,"time_elapsed":992367,"internal_node_id":"0.0-6.0-129.0"},{"sim_score":4,"rt":4988,"stimulus":"[\"img/0864/3d4de670-b290-4285-9c3d-12a0e3af44e9.jpg\",\"img/0769/5bd04f55-d091-4f57-85db-38426f26bd1a.jpg\"]","trial_type":"similarity","trial_index":136,"time_elapsed":998360,"internal_node_id":"0.0-6.0-130.0"},{"sim_score":3,"rt":3617,"stimulus":"[\"img/0903/f10e9eb5-0c21-4a6a-944c-5f10a6d0fa4d.jpg\",\"img/0868/4a8a45ed-2c4f-421b-9564-409a33ecd26c.jpg\"]","trial_type":"similarity","trial_index":137,"time_elapsed":1002984,"internal_node_id":"0.0-6.0-131.0"},{"sim_score":1,"rt":2951,"stimulus":"[\"img/0864/6e846d43-94a6-4b37-a268-65eda979f052.jpg\",\"img/0867/8ba0c5a7-c7e4-42cf-a80a-543763b90779.jpg\"]","trial_type":"similarity","trial_index":138,"time_elapsed":1006942,"internal_node_id":"0.0-6.0-132.0"},{"sim_score":5,"rt":3841,"stimulus":"[\"img/0901/58ec7fa9-b466-4651-90aa-c082df0972de.jpg\",\"img/0860/99c589b9-9140-4d17-90c0-b344323edcda.jpg\"]","trial_type":"similarity","trial_index":139,"time_elapsed":1011788,"internal_node_id":"0.0-6.0-133.0"},{"sim_score":6,"rt":4045,"stimulus":"[\"img/0881/db77fe00-aeb0-4d1d-aa66-f3a96fd077e4.jpg\",\"img/0766/0025de5e-f620-4079-8a0f-00326ff3a6b0.jpg\"]","trial_type":"similarity","trial_index":140,"time_elapsed":1016838,"internal_node_id":"0.0-6.0-134.0"},{"sim_score":4,"rt":3440,"stimulus":"[\"img/0903/c3cb4a01-2797-43ca-b216-88c67b323fbb.jpg\",\"img/0864/8ddd2e30-a1d0-479f-9cbe-591213023893.jpg\"]","trial_type":"similarity","trial_index":141,"time_elapsed":1021283,"internal_node_id":"0.0-6.0-135.0"},{"sim_score":5,"rt":2562,"stimulus":"[\"img/0758/7ffbc76b-1fc1-432c-8f7e-9ec8d1b3f643.jpg\",\"img/0894/e2446cf5-cd48-486a-badc-76498e087fbe.jpg\"]","trial_type":"similarity","trial_index":142,"time_elapsed":1024851,"internal_node_id":"0.0-6.0-136.0"},{"sim_score":2,"rt":3714,"stimulus":"[\"img/0769/8c7cf147-1780-4d5c-8ddf-5ea23ff03ac9.jpg\",\"img/0860/31ff6436-98bf-4652-bed2-40f627229568.jpg\"]","trial_type":"similarity","trial_index":143,"time_elapsed":1029572,"internal_node_id":"0.0-6.0-137.0"},{"sim_score":3,"rt":2880,"stimulus":"[\"img/0904/5cceabc9-de1d-4c67-989b-c28a4ef77e79.jpg\",\"img/0766/0bf3793e-c353-45e5-ac6f-753f5f484e10.jpg\"]","trial_type":"similarity","trial_index":144,"time_elapsed":1033457,"internal_node_id":"0.0-6.0-138.0"},{"sim_score":2,"rt":4057,"stimulus":"[\"img/0868/e0aff734-077f-40dd-9781-74821abd3621.jpg\",\"img/0860/e8b8c51e-1834-4875-8b61-6c5bc9b178bd.jpg\"]","trial_type":"similarity","trial_index":145,"time_elapsed":1038518,"internal_node_id":"0.0-6.0-139.0"},{"sim_score":7,"rt":4406,"stimulus":"[\"img/0758/b76ceca7-95ac-46e4-ac13-da02c8e93be9.jpg\",\"img/0864/ef9cbca0-4be8-435d-ad49-977259e80409.jpg\"]","trial_type":"similarity","trial_index":146,"time_elapsed":1043929,"internal_node_id":"0.0-6.0-140.0"},{"sim_score":6,"rt":3810,"stimulus":"[\"img/0867/1719a35d-f085-48c0-9099-16c94fe418b4.jpg\",\"img/0867/179ab87a-8eac-4c52-a41f-2e48e3120f09.jpg\"]","trial_type":"similarity","trial_index":147,"time_elapsed":1048744,"internal_node_id":"0.0-6.0-141.0"},{"sim_score":7,"rt":3292,"stimulus":"[\"img/0898/6cd3830b-d44e-4915-be2b-88d31424b91c.jpg\",\"img/0898/ec565187-2e31-4fdd-9a5c-153d0c789ae0.jpg\"]","trial_type":"similarity","trial_index":148,"time_elapsed":1053042,"internal_node_id":"0.0-6.0-142.0"},{"sim_score":3,"rt":3488,"stimulus":"[\"img/0866/8efcaa46-83ab-4dee-a35f-850402aa21ae.jpg\",\"img/0769/db94b61b-a5a7-4861-9d32-7b02ad194fb0.jpg\"]","trial_type":"similarity","trial_index":149,"time_elapsed":1057535,"internal_node_id":"0.0-6.0-143.0"},{"sim_score":5,"rt":5985,"stimulus":"[\"img/0860/17b44a7d-c5ca-479f-9e87-f65a64f5c80e.jpg\",\"img/0898/f3a3f225-1248-4ac7-b93b-f0ff28485bf3.jpg\"]","trial_type":"similarity","trial_index":150,"time_elapsed":1064526,"internal_node_id":"0.0-6.0-144.0"},{"sim_score":3,"rt":3438,"stimulus":"[\"img/0766/db750ba0-ce04-46e1-b601-e1b80212bad2.jpg\",\"img/0864/e8bd659f-aa43-4748-877e-3118e8b4e189.jpg\"]","trial_type":"similarity","trial_index":151,"time_elapsed":1068969,"internal_node_id":"0.0-6.0-145.0"},{"sim_score":7,"rt":3583,"stimulus":"[\"img/0860/fd4662f9-4c03-4d79-8593-06735e55a64b.jpg\",\"img/0903/43ffd882-077a-40dd-a264-e58d519420a1.jpg\"]","trial_type":"similarity","trial_index":152,"time_elapsed":1073556,"internal_node_id":"0.0-6.0-146.0"},{"sim_score":3,"rt":3347,"stimulus":"[\"img/0867/bf560d4f-dee3-4f11-a385-705cc1aa5f3c.jpg\",\"img/0764/56441045-b648-4ede-9632-3e9c0227080b.jpg\"]","trial_type":"similarity","trial_index":153,"time_elapsed":1077909,"internal_node_id":"0.0-6.0-147.0"},{"sim_score":6,"rt":4504,"stimulus":"[\"img/0769/11518cb3-13ea-4dd0-890c-30cfab728ade.jpg\",\"img/0904/73920552-103b-4c9c-9ece-e0b8376b4504.jpg\"]","trial_type":"similarity","trial_index":154,"time_elapsed":1083418,"internal_node_id":"0.0-6.0-148.0"},{"sim_score":2,"rt":3494,"stimulus":"[\"img/0764/bc3865c9-9004-4582-88a7-048478673f97.jpg\",\"img/0901/148b747a-7392-437e-8823-33053c5dff3f.jpg\"]","trial_type":"similarity","trial_index":155,"time_elapsed":1087917,"internal_node_id":"0.0-6.0-149.0"},{"sim_score":7,"rt":5374,"stimulus":"[\"img/0904/b7c2a2c8-df33-4473-b3d4-ff7147c60db3.jpg\",\"img/0899/76ad07e2-ca25-45eb-84f2-8d80b8ca3e26.jpg\"]","trial_type":"similarity","trial_index":156,"time_elapsed":1094296,"internal_node_id":"0.0-6.0-150.0"},{"sim_score":2,"rt":3951,"stimulus":"[\"img/0862/00c06b00-3b73-44e9-bc1e-c5aafb438321.jpg\",\"img/0867/cc72ed48-7704-422c-86d6-467a1145287a.jpg\"]","trial_type":"similarity","trial_index":157,"time_elapsed":1109892,"internal_node_id":"0.0-6.0-151.0"},{"sim_score":7,"rt":3182,"stimulus":"[\"img/0766/fd064894-7147-4af5-97e9-2089d5472656.jpg\",\"img/0766/aaec5f42-7f0a-4a16-aeca-488d757acbcc.jpg\"]","trial_type":"similarity","trial_index":158,"time_elapsed":1114082,"internal_node_id":"0.0-6.0-152.0"},{"sim_score":2,"rt":3633,"stimulus":"[\"img/0862/99a99e39-8355-44ec-b993-e7bcec111e1c.jpg\",\"img/0894/43216a7f-27bc-4b5a-8841-d122a30da9d9.jpg\"]","trial_type":"similarity","trial_index":159,"time_elapsed":1118719,"internal_node_id":"0.0-6.0-153.0"},{"sim_score":6,"rt":2631,"stimulus":"[\"img/0899/8de08897-b430-42fe-9d42-840670b80f94.jpg\",\"img/0901/4d1bed7e-3c4e-4f6c-ada9-4beb66ba9e39.jpg\"]","trial_type":"similarity","trial_index":160,"time_elapsed":1122356,"internal_node_id":"0.0-6.0-154.0"},{"sim_score":5,"rt":3431,"stimulus":"[\"img/0874/31e22c7c-99aa-40b1-bf03-dd73fa2df4d6.jpg\",\"img/0874/995f0332-0439-4eb4-add3-957335dbf6d9.jpg\"]","trial_type":"similarity","trial_index":161,"time_elapsed":1126791,"internal_node_id":"0.0-6.0-155.0"},{"sim_score":5,"rt":3430,"stimulus":"[\"img/0860/15b24a61-25be-4356-9eac-5ce95d0cb4a4.jpg\",\"img/0867/98d8cd96-1476-4fe0-a3a3-04f875500a1b.jpg\"]","trial_type":"similarity","trial_index":162,"time_elapsed":1131225,"internal_node_id":"0.0-6.0-156.0"},{"sim_score":3,"rt":3616,"stimulus":"[\"img/0901/1ede21d9-384f-4150-86b5-e1c57b5dc1d4.jpg\",\"img/0881/ed4c971f-0873-4fc8-b6d6-e8bbd82f0bcc.jpg\"]","trial_type":"similarity","trial_index":163,"time_elapsed":1135847,"internal_node_id":"0.0-6.0-157.0"},{"sim_score":7,"rt":4070,"stimulus":"[\"img/0903/24477210-856c-4550-9de0-9f85a32762eb.jpg\",\"img/0902/95a36b6b-9601-4fa5-8fd9-606ea62f9425.jpg\"]","trial_type":"similarity","trial_index":164,"time_elapsed":1140921,"internal_node_id":"0.0-6.0-158.0"},{"sim_score":3,"rt":4599,"stimulus":"[\"img/0860/5383b320-1518-4095-a58e-5cc1ae30b64c.jpg\",\"img/0764/c84fbfa8-521c-407a-9bd3-24f7308d896c.jpg\"]","trial_type":"similarity","trial_index":165,"time_elapsed":1146524,"internal_node_id":"0.0-6.0-159.0"},{"sim_score":1,"rt":3776,"stimulus":"[\"img/0902/b03fee99-d5ca-4bf8-871c-a4a743a39842.jpg\",\"img/0875/90da8d75-108a-44ad-b999-e21fee3860d3.jpg\"]","trial_type":"similarity","trial_index":166,"time_elapsed":1151306,"internal_node_id":"0.0-6.0-160.0"},{"sim_score":2,"rt":4597,"stimulus":"[\"img/0898/79233891-305a-4a6a-8ddf-5c8604858203.jpg\",\"img/0862/a0a3a7ba-7798-46a3-b4ca-05e1f6e581d0.jpg\"]","trial_type":"similarity","trial_index":167,"time_elapsed":1156912,"internal_node_id":"0.0-6.0-161.0"},{"sim_score":5,"rt":4211,"stimulus":"[\"img/0894/1b3888e6-cf36-4c4a-a039-187aa5cb71ac.jpg\",\"img/0875/5a1e5100-0d94-4fec-bbe9-ca9894d2cf8e.jpg\"]","trial_type":"similarity","trial_index":168,"time_elapsed":1162129,"internal_node_id":"0.0-6.0-162.0"},{"sim_score":4,"rt":3567,"stimulus":"[\"img/0866/f756f7d1-9ad8-4a34-9ef6-7a443d705bfe.jpg\",\"img/0864/9b2490c5-a282-400a-9736-e1a0ecbf1cb7.jpg\"]","trial_type":"similarity","trial_index":169,"time_elapsed":1166701,"internal_node_id":"0.0-6.0-163.0"},{"sim_score":5,"rt":5147,"stimulus":"[\"img/0766/f011ef45-fb48-44b8-8224-867ed2ccf786.jpg\",\"img/0862/de9ad88c-b522-430a-8ee9-eb06a9f85df5.jpg\"]","trial_type":"similarity","trial_index":170,"time_elapsed":1172854,"internal_node_id":"0.0-6.0-164.0"},{"sim_score":2,"rt":3329,"stimulus":"[\"img/0866/9b38d691-1802-4959-ab3f-fc902f0e4ea6.jpg\",\"img/0874/85eb9b8a-c4c6-4e5a-b8e7-363a87a82054.jpg\"]","trial_type":"similarity","trial_index":171,"time_elapsed":1177188,"internal_node_id":"0.0-6.0-165.0"},{"sim_score":4,"rt":3985,"stimulus":"[\"img/0862/7918ca67-5bd3-4606-a5ea-c39fb11a9297.jpg\",\"img/0860/8a92e21b-6a32-4e4a-a445-2d5a487ed0a4.jpg\"]","trial_type":"similarity","trial_index":172,"time_elapsed":1182178,"internal_node_id":"0.0-6.0-166.0"},{"sim_score":5,"rt":3188,"stimulus":"[\"img/0766/d3bab2fc-ddcc-40a0-bb72-c0d0ebe19978.jpg\",\"img/0901/4f9cffe0-c0be-4d7f-bacd-9d51efd19b4a.jpg\"]","trial_type":"similarity","trial_index":173,"time_elapsed":1186372,"internal_node_id":"0.0-6.0-167.0"},{"sim_score":7,"rt":2853,"stimulus":"[\"img/0862/ee3b7bff-4a70-4e84-9bea-4a565e456acb.jpg\",\"img/0862/24cdc752-c2e5-4a17-86a6-6f2045d8553b.jpg\"]","trial_type":"similarity","trial_index":174,"time_elapsed":1190230,"internal_node_id":"0.0-6.0-168.0"},{"sim_score":7,"rt":4697,"stimulus":"[\"img/0894/10f22b96-040c-44f4-950b-a4963f3f506c.jpg\",\"img/0764/55b3fab1-b809-4d38-a461-3f40ce062f52.jpg\"]","trial_type":"similarity","trial_index":175,"time_elapsed":1195933,"internal_node_id":"0.0-6.0-169.0"},{"sim_score":3,"rt":5241,"stimulus":"[\"img/0874/a3bc679d-619f-4db6-bb68-116dcb757d9c.jpg\",\"img/0898/04e39a7a-fcf6-4156-ab0e-f5871f335e1c.jpg\"]","trial_type":"similarity","trial_index":176,"time_elapsed":1202180,"internal_node_id":"0.0-6.0-170.0"},{"sim_score":6,"rt":3547,"stimulus":"[\"img/0860/702bd09d-df3a-40aa-a267-5f04474305b5.jpg\",\"img/0766/af3be95e-e52e-4fae-899b-0ff02ec340aa.jpg\"]","trial_type":"similarity","trial_index":177,"time_elapsed":1206732,"internal_node_id":"0.0-6.0-171.0"},{"sim_score":2,"rt":4690,"stimulus":"[\"img/0898/40f99fb2-64d2-4e72-8a7f-a1cf60741e69.jpg\",\"img/0864/49150900-7f25-4ce8-8d10-9b47a71d1997.jpg\"]","trial_type":"similarity","trial_index":178,"time_elapsed":1212430,"internal_node_id":"0.0-6.0-172.0"},{"sim_score":6,"rt":5276,"stimulus":"[\"img/0881/f4e3e181-b3c9-4af2-a5a4-fc135ab70d2e.jpg\",\"img/0764/4bec8d92-75aa-475a-954d-8215dbe538f5.jpg\"]","trial_type":"similarity","trial_index":179,"time_elapsed":1218711,"internal_node_id":"0.0-6.0-173.0"},{"sim_score":3,"rt":3510,"stimulus":"[\"img/0898/26c41340-15bd-4ead-8fe4-c0d0ddca09c2.jpg\",\"img/0868/8b0b8473-e2c0-4331-aa56-c3a5c29369da.jpg\"]","trial_type":"similarity","trial_index":180,"time_elapsed":1223226,"internal_node_id":"0.0-6.0-174.0"},{"sim_score":6,"rt":2730,"stimulus":"[\"img/0864/1ebbc554-99fa-49f9-8799-317375a79820.jpg\",\"img/0864/e336a4c5-6648-4fd7-b2f6-93a3fb83f8c6.jpg\"]","trial_type":"similarity","trial_index":181,"time_elapsed":1226960,"internal_node_id":"0.0-6.0-175.0"},{"sim_score":6,"rt":5283,"stimulus":"[\"img/0899/d60714ae-98d7-4564-8c98-94dba1351135.jpg\",\"img/0862/53a9cf7c-93c4-41b9-952f-07d17f7a17b2.jpg\"]","trial_type":"similarity","trial_index":182,"time_elapsed":1233249,"internal_node_id":"0.0-6.0-176.0"},{"sim_score":2,"rt":2956,"stimulus":"[\"img/0875/3ecb367d-e9eb-4826-8aaa-7aa72fb98019.jpg\",\"img/0758/f61ecdf8-a7d4-4db0-b84d-be46f7cfaffc.jpg\"]","trial_type":"similarity","trial_index":183,"time_elapsed":1237212,"internal_node_id":"0.0-6.0-177.0"},{"sim_score":1,"rt":3451,"stimulus":"[\"img/0866/620cd1aa-0800-4414-8f6e-90342e7a99ad.jpg\",\"img/0901/ae1e6ce4-2e10-4ca9-b1e7-21628637ab74.jpg\"]","trial_type":"similarity","trial_index":184,"time_elapsed":1241669,"internal_node_id":"0.0-6.0-178.0"},{"sim_score":7,"rt":4615,"stimulus":"[\"img/0769/c7cfacc3-7f07-46ff-9f5d-8073f4c4679b.jpg\",\"img/0874/2c9464dd-8a23-4baa-ac94-1ba3af5c15cc.jpg\"]","trial_type":"similarity","trial_index":185,"time_elapsed":1247289,"internal_node_id":"0.0-6.0-179.0"},{"sim_score":2,"rt":4674,"stimulus":"[\"img/0875/34132396-d896-4c2d-8087-646dd867e769.jpg\",\"img/0881/d373cb9f-a719-4549-a2a4-82def79fb2a5.jpg\"]","trial_type":"similarity","trial_index":186,"time_elapsed":1252968,"internal_node_id":"0.0-6.0-180.0"},{"sim_score":6,"rt":4000,"stimulus":"[\"img/0866/be24ab58-230e-4db8-9f45-ff04c9aec6bb.jpg\",\"img/0868/4bd5105a-d2c3-4f82-8c80-57196106ba53.jpg\"]","trial_type":"similarity","trial_index":187,"time_elapsed":1257972,"internal_node_id":"0.0-6.0-181.0"},{"sim_score":5,"rt":3823,"stimulus":"[\"img/0899/93494f3b-d539-4075-b027-d82e344563da.jpg\",\"img/0758/6cd8c362-ae2a-41eb-80a3-3a4f7ace1530.jpg\"]","trial_type":"similarity","trial_index":188,"time_elapsed":1262800,"internal_node_id":"0.0-6.0-182.0"},{"sim_score":5,"rt":4098,"stimulus":"[\"img/0874/3f471690-9788-4d03-90c7-f615aecef149.jpg\",\"img/0875/2e13d160-eea1-416b-aff1-d37ab99ecc1d.jpg\"]","trial_type":"similarity","trial_index":189,"time_elapsed":1267903,"internal_node_id":"0.0-6.0-183.0"},{"sim_score":7,"rt":4149,"stimulus":"[\"img/0904/09934646-45d2-4147-8fec-64a22a5ac822.jpg\",\"img/0862/e8cc3bdf-cc43-4565-bccf-492626c70953.jpg\"]","trial_type":"similarity","trial_index":190,"time_elapsed":1273056,"internal_node_id":"0.0-6.0-184.0"},{"sim_score":2,"rt":5595,"stimulus":"[\"img/0902/24d10fe7-314f-4d5a-8c7b-b43121bba0a4.jpg\",\"img/0766/60033a74-9919-47e5-913c-71d0d483e7e5.jpg\"]","trial_type":"similarity","trial_index":191,"time_elapsed":1279656,"internal_node_id":"0.0-6.0-185.0"},{"sim_score":2,"rt":5196,"stimulus":"[\"img/0758/53f35650-e455-4b53-8be4-c3c8271c6466.jpg\",\"img/0769/8598a429-c671-4d2f-842c-32f681f5e412.jpg\"]","trial_type":"similarity","trial_index":192,"time_elapsed":1285857,"internal_node_id":"0.0-6.0-186.0"},{"sim_score":7,"rt":3857,"stimulus":"[\"img/0881/2a8413be-fec2-4de6-88ad-614dd4cccc9d.jpg\",\"img/0881/344de456-b358-4887-bd0e-e4c3278af887.jpg\"]","trial_type":"similarity","trial_index":193,"time_elapsed":1290718,"internal_node_id":"0.0-6.0-187.0"},{"sim_score":1,"rt":3523,"stimulus":"[\"img/0758/7fba58df-2a7a-4b76-8a8f-62739f97f271.jpg\",\"img/0866/386235d2-6857-41e7-88a8-25cfc3430025.jpg\"]","trial_type":"similarity","trial_index":194,"time_elapsed":1295245,"internal_node_id":"0.0-6.0-188.0"},{"sim_score":2,"rt":4492,"stimulus":"[\"img/0764/e48e6c6f-9e28-420f-836a-8043b2319bb4.jpg\",\"img/0898/881e2a85-d5c2-49be-a0c6-8a6ce2c4af08.jpg\"]","trial_type":"similarity","trial_index":195,"time_elapsed":1305155,"internal_node_id":"0.0-6.0-189.0"},{"sim_score":4,"rt":426346,"stimulus":"[\"img/0903/ea75f240-fb62-4edb-a709-83e858b202c0.jpg\",\"img/0901/233a6948-48eb-4b67-8259-222b916b2322.jpg\"]","trial_type":"similarity","trial_index":196,"time_elapsed":1732511,"internal_node_id":"0.0-6.0-190.0"},{"sim_score":6,"rt":3574,"stimulus":"[\"img/0902/27b84584-948a-485b-8749-cb09929ef631.jpg\",\"img/0898/4184e5a2-84ea-4f36-9b42-ae58646f6f87.jpg\"]","trial_type":"similarity","trial_index":197,"time_elapsed":1737093,"internal_node_id":"0.0-6.0-191.0"},{"sim_score":1,"rt":4059,"stimulus":"[\"img/0864/4bd81bc6-c13d-46df-95a9-485886dc7c1b.jpg\",\"img/0901/bc47e078-bda4-40ed-b89a-bbd819164b95.jpg\"]","trial_type":"similarity","trial_index":198,"time_elapsed":1742158,"internal_node_id":"0.0-6.0-192.0"},{"sim_score":7,"rt":5016,"stimulus":"[\"img/0894/86201968-6e78-4d68-9b3a-d1692e066210.jpg\",\"img/0881/d1982897-8d8d-4704-a940-1ee5d07a1f15.jpg\"]","trial_type":"similarity","trial_index":199,"time_elapsed":1748180,"internal_node_id":"0.0-6.0-193.0"},{"sim_score":7,"rt":4259,"stimulus":"[\"img/0868/c8ac40c7-6904-4e13-8d61-c75d3052dc4e.jpg\",\"img/0868/09a9ef4d-d000-4cfa-a6aa-ebec7c2edeb4.jpg\"]","trial_type":"similarity","trial_index":200,"time_elapsed":1753446,"internal_node_id":"0.0-6.0-194.0"},{"sim_score":7,"rt":4665,"stimulus":"[\"img/0899/06b0fc99-0581-461a-9913-d1a5a941ac61.jpg\",\"img/0764/ca9829fe-aaf8-45b8-b98a-6bae751c63dd.jpg\"]","trial_type":"similarity","trial_index":201,"time_elapsed":1759117,"internal_node_id":"0.0-6.0-195.0"},{"sim_score":6,"rt":3984,"stimulus":"[\"img/0881/62a64f90-7a72-4aee-a1a1-0c548ac9bdda.jpg\",\"img/0904/696ebb60-8891-417a-91fd-c53218907a95.jpg\"]","trial_type":"similarity","trial_index":202,"time_elapsed":1764105,"internal_node_id":"0.0-6.0-196.0"},{"sim_score":6,"rt":4346,"stimulus":"[\"img/0864/3651d070-2fc5-4848-b6a6-088a2d9ac5c9.jpg\",\"img/0902/3b243e54-0803-4c29-af42-4037c2118495.jpg\"]","trial_type":"similarity","trial_index":203,"time_elapsed":1769458,"internal_node_id":"0.0-6.0-197.0"},{"sim_score":3,"rt":4805,"stimulus":"[\"img/0894/7fb082e0-ce79-485c-9109-04367fb32275.jpg\",\"img/0904/a8c3c7d2-9bcf-4347-9e03-8203adfc1fc5.jpg\"]","trial_type":"similarity","trial_index":204,"time_elapsed":1775268,"internal_node_id":"0.0-6.0-198.0"},{"sim_score":7,"rt":3369,"stimulus":"[\"img/0901/0adb3bd6-d758-4ba7-9723-3ad6cac05bd5.jpg\",\"img/0901/d4d09bf5-093e-4050-838e-7c738be8e63c.jpg\"]","trial_type":"similarity","trial_index":205,"time_elapsed":1779642,"internal_node_id":"0.0-6.0-199.0"},{"sim_score":3,"rt":3874,"stimulus":"[\"img/0894/1a010553-d598-4b06-a772-81f1e7b3addb.jpg\",\"img/0860/c47fdead-eb02-4989-b078-26f4852f44fe.jpg\"]","trial_type":"similarity","trial_index":206,"time_elapsed":1784522,"internal_node_id":"0.0-6.0-200.0"},{"sim_score":7,"rt":3208,"stimulus":"[\"img/0898/cd3aaa3f-efa9-4ab3-8d6f-a6a9273ddf42.jpg\",\"img/0903/f45a103c-9bfe-49fd-ad96-bdd8d2589195.jpg\"]","trial_type":"similarity","trial_index":207,"time_elapsed":1788736,"internal_node_id":"0.0-6.0-201.0"},{"sim_score":5,"rt":3923,"stimulus":"[\"img/0864/300bb811-8b3c-4c42-8653-6097c3725197.jpg\",\"img/0894/c505c65a-cde2-4f2c-8cde-f8676f7c894d.jpg\"]","trial_type":"similarity","trial_index":208,"time_elapsed":1793664,"internal_node_id":"0.0-6.0-202.0"},{"sim_score":2,"rt":4443,"stimulus":"[\"img/0874/ca76a855-4e77-4f2f-872a-0a718153e7ed.jpg\",\"img/0860/8fdba999-b946-4c7d-9891-336018b563ef.jpg\"]","trial_type":"similarity","trial_index":209,"time_elapsed":1799114,"internal_node_id":"0.0-6.0-203.0"},{"sim_score":1,"rt":3091,"stimulus":"[\"img/0862/ad593cc7-cabe-4bb7-8e14-8a447a0717b4.jpg\",\"img/0875/42910c99-5463-450a-a0f8-d4d060a11455.jpg\"]","trial_type":"similarity","trial_index":210,"time_elapsed":1803210,"internal_node_id":"0.0-6.0-204.0"},{"sim_score":1,"rt":3139,"stimulus":"[\"img/0867/c66898ba-b71b-4d50-84f9-f7f84853a98d.jpg\",\"img/0881/e046471a-35b4-4159-bbf7-3cfd201bef66.jpg\"]","trial_type":"similarity","trial_index":211,"time_elapsed":1807356,"internal_node_id":"0.0-6.0-205.0"},{"sim_score":6,"rt":3138,"stimulus":"[\"img/0901/1b86f2fc-7a1d-4aa8-9252-114f92edef3b.jpg\",\"img/0902/6c2c243a-f663-45db-baf5-038d3d58c589.jpg\"]","trial_type":"similarity","trial_index":212,"time_elapsed":1811499,"internal_node_id":"0.0-6.0-206.0"},{"sim_score":5,"rt":3304,"stimulus":"[\"img/0899/57476fed-5962-4272-8fc9-b317bb777b54.jpg\",\"img/0864/0f537697-a314-47c3-a8cc-8df23b7e536c.jpg\"]","trial_type":"similarity","trial_index":213,"time_elapsed":1815808,"internal_node_id":"0.0-6.0-207.0"},{"sim_score":4,"rt":3106,"stimulus":"[\"img/0901/deff6cfb-0072-4490-bc3e-206bbcd3e8bf.jpg\",\"img/0769/f229321f-04dd-42d7-b14a-ffad6b509862.jpg\"]","trial_type":"similarity","trial_index":214,"time_elapsed":1819920,"internal_node_id":"0.0-6.0-208.0"},{"sim_score":6,"rt":4094,"stimulus":"[\"img/0902/c018bd7a-d91a-4192-aea4-7259cfcdb6c4.jpg\",\"img/0902/82d20e8c-2162-47a6-925b-52906558c046.jpg\"]","trial_type":"similarity","trial_index":215,"time_elapsed":1825020,"internal_node_id":"0.0-6.0-209.0"},{"view_history":"[{\"page_index\":0,\"viewing_time\":10204}]","rt":10205,"trial_type":"instructions","trial_index":216,"time_elapsed":1836226,"internal_node_id":"0.0-7.0"},{"rt":20150,"responses":"{\"Q0\":\"Tennessee Warbler\"}","answer":["Nashville Warbler"],"trial_type":"image-multi-choice","trial_index":217,"time_elapsed":1857395,"internal_node_id":"0.0-8.0-0.0"},{"rt":5576,"responses":"{\"Q0\":\"Magnolia Warbler\"}","answer":["Black-and-white Warbler"],"trial_type":"image-multi-choice","trial_index":218,"time_elapsed":1863985,"internal_node_id":"0.0-8.0-1.0"},{"rt":4708,"responses":"{\"Q0\":\"Orange-crowned Warbler\"}","answer":["Townsend's Warbler"],"trial_type":"image-multi-choice","trial_index":219,"time_elapsed":1869707,"internal_node_id":"0.0-8.0-2.0"},{"rt":3734,"responses":"{\"Q0\":\"Lark Sparrow\"}","answer":["Lark Sparrow"],"trial_type":"image-multi-choice","trial_index":220,"time_elapsed":1874454,"internal_node_id":"0.0-8.0-3.0"},{"rt":16075,"responses":"{\"Q0\":\"Yellow Warbler\"}","answer":["Yellow Warbler"],"trial_type":"image-multi-choice","trial_index":221,"time_elapsed":1891541,"internal_node_id":"0.0-8.0-4.0"},{"rt":4311,"responses":"{\"Q0\":\"Northern Waterthrush\"}","answer":["Orange-crowned Warbler"],"trial_type":"image-multi-choice","trial_index":222,"time_elapsed":1896866,"internal_node_id":"0.0-8.0-5.0"},{"rt":3886,"responses":"{\"Q0\":\"Swamp Sparrow\"}","answer":["White-throated Sparrow"],"trial_type":"image-multi-choice","trial_index":223,"time_elapsed":1901769,"internal_node_id":"0.0-8.0-6.0"},{"rt":3448,"responses":"{\"Q0\":\"White-throated Sparrow\"}","answer":["Fox Sparrow"],"trial_type":"image-multi-choice","trial_index":224,"time_elapsed":1906229,"internal_node_id":"0.0-8.0-7.0"},{"rt":3419,"responses":"{\"Q0\":\"Vesper Sparrow\"}","answer":["Song Sparrow"],"trial_type":"image-multi-choice","trial_index":225,"time_elapsed":1910660,"internal_node_id":"0.0-8.0-8.0"},{"rt":4261,"responses":"{\"Q0\":\"Song Sparrow\"}","answer":["Blackburnian Warbler"],"trial_type":"image-multi-choice","trial_index":226,"time_elapsed":1915934,"internal_node_id":"0.0-8.0-9.0"},{"rt":3223,"responses":"{\"Q0\":\"Lark Sparrow\"}","answer":["Vesper Sparrow"],"trial_type":"image-multi-choice","trial_index":227,"time_elapsed":1920171,"internal_node_id":"0.0-8.0-10.0"},{"rt":3149,"responses":"{\"Q0\":\"Fox Sparrow\"}","answer":["White-crowned Sparrow"],"trial_type":"image-multi-choice","trial_index":228,"time_elapsed":1924333,"internal_node_id":"0.0-8.0-11.0"},{"rt":3015,"responses":"{\"Q0\":\"Lincoln's Sparrow\"}","answer":["American Tree Sparrow"],"trial_type":"image-multi-choice","trial_index":229,"time_elapsed":1928362,"internal_node_id":"0.0-8.0-12.0"},{"rt":5522,"responses":"{\"Q0\":\"Blackburnian Warbler\"}","answer":["Tennessee Warbler"],"trial_type":"image-multi-choice","trial_index":230,"time_elapsed":1934898,"internal_node_id":"0.0-8.0-13.0"},{"rt":6057,"responses":"{\"Q0\":\"Black-and-white Warbler\"}","answer":["Magnolia Warbler"],"trial_type":"image-multi-choice","trial_index":231,"time_elapsed":1941969,"internal_node_id":"0.0-8.0-14.0"},{"rt":5079,"responses":"{\"Q0\":\"Chipping Sparrow\"}","answer":["Northern Waterthrush"],"trial_type":"image-multi-choice","trial_index":232,"time_elapsed":1948061,"internal_node_id":"0.0-8.0-15.0"},{"rt":3884,"responses":"{\"Q0\":\"White-crowned Sparrow\"}","answer":["Chipping Sparrow"],"trial_type":"image-multi-choice","trial_index":233,"time_elapsed":1952958,"internal_node_id":"0.0-8.0-16.0"},{"rt":2737,"responses":"{\"Q0\":\"White-throated Sparrow\"}","answer":["Swamp Sparrow"],"trial_type":"image-multi-choice","trial_index":234,"time_elapsed":1956707,"internal_node_id":"0.0-8.0-17.0"},{"rt":4036,"responses":"{\"Q0\":\"Lincoln's Sparrow\"}","answer":["Lincoln's Sparrow"],"trial_type":"image-multi-choice","trial_index":235,"time_elapsed":1961756,"internal_node_id":"0.0-8.0-18.0"},{"rt":2703,"responses":"{\"Q0\":\"American Tree Sparrow\"}","answer":["Ovenbird"],"trial_type":"image-multi-choice","trial_index":236,"time_elapsed":1965472,"internal_node_id":"0.0-8.0-19.0"}]