"view_history","rt","trial_type","trial_index","time_elapsed","internal_node_id","sim_score","stimulus","responses","answer"
"[{""page_index"":0,""viewing_time"":32860}]","32860","instructions","0","32861","0.0-0.0","","","",""
"","6431","similarity_demo","1","40297","0.0-1.0","3","[""img/866.jpg"",""img/868.jpg""]","",""
"[{""page_index"":0,""viewing_time"":20417}]","20418","instructions","2","61716","0.0-2.0","","","",""
"","5387","similarity_demo","3","68106","0.0-3.0","1","[""img/766.jpg"",""img/867.jpg""]","",""
"[{""page_index"":0,""viewing_time"":7210}]","7210","instructions","4","76318","0.0-4.0","","","",""
"[{""page_index"":0,""viewing_time"":22917}]","22917","instructions","5","100236","0.0-5.0","","","",""
"","6208","similarity","6","107448","0.0-6.0-0.0","3","[""img/0868/77091fc7-a590-4ebb-b915-fdb2483a2399.jpg"",""img/0901/33b51a81-06d9-46d9-9d4f-5a2d6d6b8058.jpg""]","",""
"","4521","similarity","7","112972","0.0-6.0-1.0","3","[""img/0769/47700831-0ca2-4fdd-a498-a3bc5a528f43.jpg"",""img/0867/c71dc569-f49c-4397-8381-68b8d726736d.jpg""]","",""
"","3879","similarity","8","117854","0.0-6.0-2.0","6","[""img/0766/71b81ebd-0937-4d7f-b8bf-c4e46a4728fd.jpg"",""img/0898/4184e5a2-84ea-4f36-9b42-ae58646f6f87.jpg""]","",""
"","4555","similarity","9","123411","0.0-6.0-3.0","6","[""img/0902/417d8b4a-3c72-4adc-ac78-820e833316f2.jpg"",""img/0881/1407b85b-a1c6-45b1-9884-3b24203efadb.jpg""]","",""
"","4780","similarity","10","129194","0.0-6.0-4.0","7","[""img/0894/5f15154e-e72e-4ce5-aafb-bce6f0564006.jpg"",""img/0894/8cadb87a-7001-4e47-99fb-1867bebf1668.jpg""]","",""
"","4386","similarity","11","134583","0.0-6.0-5.0","3","[""img/0874/31e22c7c-99aa-40b1-bf03-dd73fa2df4d6.jpg"",""img/0899/0adc0bc3-6fca-4078-be6f-d45ddf1653d5.jpg""]","",""
"","5567","similarity","12","141153","0.0-6.0-6.0","7","[""img/0904/5cceabc9-de1d-4c67-989b-c28a4ef77e79.jpg"",""img/0764/21e3292f-01ad-4238-828b-61b817857d16.jpg""]","",""
"","3768","similarity","13","145923","0.0-6.0-7.0","6","[""img/0899/8de08897-b430-42fe-9d42-840670b80f94.jpg"",""img/0898/0c7dde4f-efce-4b7a-9387-6921635b7890.jpg""]","",""
"","3734","similarity","14","150659","0.0-6.0-8.0","5","[""img/0874/2c9464dd-8a23-4baa-ac94-1ba3af5c15cc.jpg"",""img/0903/5248eedd-7e6a-4d39-91b0-06ec227f3ed0.jpg""]","",""
"","3847","similarity","15","155508","0.0-6.0-9.0","7","[""img/0881/e6746727-7f89-47ec-b939-d98abe78372d.jpg"",""img/0758/2fa3e613-e676-4e6e-bd12-705327eeb3e1.jpg""]","",""
"","3362","similarity","16","159873","0.0-6.0-10.0","6","[""img/0898/6cd3830b-d44e-4915-be2b-88d31424b91c.jpg"",""img/0901/58ec7fa9-b466-4651-90aa-c082df0972de.jpg""]","",""
"","2372","similarity","17","163247","0.0-6.0-11.0","6","[""img/0903/5ea5bbe0-f238-4724-abe7-9ed8dee8c0ba.jpg"",""img/0769/0fe124d3-bcad-45f6-b64d-8f6eb8ee5251.jpg""]","",""
"","2598","similarity","18","166848","0.0-6.0-12.0","1","[""img/0764/1f95ab5f-fb65-4d70-b5db-d6bd6351a8aa.jpg"",""img/0868/5fa7f9d0-f0e5-454c-8224-74d964818f56.jpg""]","",""
"","2597","similarity","19","170448","0.0-6.0-13.0","3","[""img/0867/bf560d4f-dee3-4f11-a385-705cc1aa5f3c.jpg"",""img/0903/2a9c8033-3e70-47fa-816d-97ee1813a3a3.jpg""]","",""
"","2822","similarity","20","174273","0.0-6.0-14.0","2","[""img/0766/69e486f7-dbef-456b-9d48-53d814248a28.jpg"",""img/0758/dd559618-7f09-4a07-8018-d311c4a5ea29.jpg""]","",""
"","5624","similarity","21","180899","0.0-6.0-15.0","3","[""img/0902/0db94c50-f1fb-4091-953c-29ca0466bee2.jpg"",""img/0860/71e1aad0-2cdf-43bb-94a4-a8c016997c30.jpg""]","",""
"","2530","similarity","22","184431","0.0-6.0-16.0","1","[""img/0769/48a1144d-fbda-4809-991b-fc8424a32ee4.jpg"",""img/0875/e7e66b13-b573-431e-b85e-288ce04a35a3.jpg""]","",""
"","2496","similarity","23","187930","0.0-6.0-17.0","2","[""img/0904/2f88ce53-02d0-4f95-a082-182c56a0eeb4.jpg"",""img/0866/d266fece-59b3-46fa-b69f-96f6efb81b59.jpg""]","",""
"","2789","similarity","24","191721","0.0-6.0-18.0","7","[""img/0875/99698b4d-b4a1-44bc-8c83-8ea755bbbf61.jpg"",""img/0875/527ced51-8e53-4aab-ab05-86df219104c0.jpg""]","",""
"","1991","similarity","25","194714","0.0-6.0-19.0","7","[""img/0758/7fba58df-2a7a-4b76-8a8f-62739f97f271.jpg"",""img/0758/eabcd7a8-56ad-4fd2-bc24-90f6b7b33265.jpg""]","",""
"","2192","similarity","26","197909","0.0-6.0-20.0","3","[""img/0902/bd89a85f-3853-4786-acd6-98818ee29f1c.jpg"",""img/0874/3f471690-9788-4d03-90c7-f615aecef149.jpg""]","",""
"","3329","similarity","27","202240","0.0-6.0-21.0","5","[""img/0764/e0788029-9d7f-414c-b747-46d2a99f7c86.jpg"",""img/0769/14d393ce-e5be-4ca1-86ce-cc27d4b6074c.jpg""]","",""
"","2306","similarity","28","205548","0.0-6.0-22.0","2","[""img/0901/62315ff5-ed95-46b4-b099-92552079659b.jpg"",""img/0874/c0378dac-9370-439a-8b79-db27c96fb390.jpg""]","",""
"","2407","similarity","29","208957","0.0-6.0-23.0","1","[""img/0875/ebf7653f-ff45-4e9f-af58-2c042ab3cd2b.jpg"",""img/0903/0a92ec52-4e87-410a-857a-4455cde56a70.jpg""]","",""
"","2912","similarity","30","212872","0.0-6.0-24.0","2","[""img/0769/022c7e3b-c3f2-4119-b4bc-f22fa7cae18c.jpg"",""img/0881/14236cf2-6b95-48b8-9368-78af09d2d27f.jpg""]","",""
"","5218","similarity","31","219093","0.0-6.0-25.0","1","[""img/0867/c66898ba-b71b-4d50-84f9-f7f84853a98d.jpg"",""img/0904/0d25eb24-bb20-4e8d-9787-8b489558b4cb.jpg""]","",""
"","3205","similarity","32","223300","0.0-6.0-26.0","5","[""img/0860/c3379ff7-0763-48fe-a1ec-7ea3d611bc7a.jpg"",""img/0881/f4e3e181-b3c9-4af2-a5a4-fc135ab70d2e.jpg""]","",""
"","2406","similarity","33","226709","0.0-6.0-27.0","6","[""img/0866/d493a2c8-66eb-44b4-be02-2f327b700b7c.jpg"",""img/0866/02f5e6b9-52b7-448c-9708-5b460d0c9a23.jpg""]","",""
"","4151","similarity","34","231861","0.0-6.0-28.0","2","[""img/0764/7f4ee8e3-9315-4a57-be7d-db8454b33766.jpg"",""img/0862/1c20f772-3a51-4a80-aac0-f57dc9f86c28.jpg""]","",""
"","4274","similarity","35","237138","0.0-6.0-29.0","2","[""img/0904/5aec2708-cf14-4a58-aa30-9a8a61c1be0e.jpg"",""img/0758/ddc336e9-a8b6-4bb9-937a-c7e25e0e9250.jpg""]","",""
"","2518","similarity","36","240659","0.0-6.0-30.0","6","[""img/0894/4739e06d-c31e-4bf1-bf91-c97fa9afb456.jpg"",""img/0899/4408c14d-c168-4a7d-96f6-bc87bfb58f83.jpg""]","",""
"","2901","similarity","37","244563","0.0-6.0-31.0","3","[""img/0860/4a022222-056d-461c-ab02-39fac9647552.jpg"",""img/0904/56e73f28-7e64-489b-a161-e6b1a063878d.jpg""]","",""
"","2901","similarity","38","248467","0.0-6.0-32.0","7","[""img/0874/1016b306-087c-4afc-aa08-fa527b28dc76.jpg"",""img/0881/f8bd891e-aa09-4782-89db-33e7cb2b0cf1.jpg""]","",""
"","2721","similarity","39","252190","0.0-6.0-33.0","2","[""img/0881/c843e210-bdfe-4a7c-8bbe-fcea1f90fe1c.jpg"",""img/0899/f95cbdb4-f804-4f5d-ad76-373ad343e658.jpg""]","",""
"","2991","similarity","40","256184","0.0-6.0-34.0","4","[""img/0866/93a27239-8317-4e08-98ca-d8b1ff298e07.jpg"",""img/0862/f23038d4-c366-4f70-979f-66b62362efa4.jpg""]","",""
"","3239","similarity","41","260425","0.0-6.0-35.0","1","[""img/0868/c8ac40c7-6904-4e13-8d61-c75d3052dc4e.jpg"",""img/0894/2d2db7b3-e8a3-499b-b63a-14f51bf73882.jpg""]","",""
"","2215","similarity","42","263643","0.0-6.0-36.0","7","[""img/0860/94ef7afc-e0e6-4a15-98c6-0bfac82bc832.jpg"",""img/0860/fd4662f9-4c03-4d79-8593-06735e55a64b.jpg""]","",""
"","3588","similarity","43","268233","0.0-6.0-37.0","5","[""img/0862/fb26cb07-d5a9-4653-813c-f41609f26cd5.jpg"",""img/0864/0116ca98-293d-4fa6-a93b-5a6144ef64cc.jpg""]","",""
"","2879","similarity","44","272114","0.0-6.0-38.0","2","[""img/0766/fd064894-7147-4af5-97e9-2089d5472656.jpg"",""img/0866/a04d37f0-99dd-478a-b6c6-58b215138f84.jpg""]","",""
"","3273","similarity","45","276389","0.0-6.0-39.0","1","[""img/0875/fb732ab5-013a-4366-9f65-27811ed157e9.jpg"",""img/0898/881e2a85-d5c2-49be-a0c6-8a6ce2c4af08.jpg""]","",""
"","2451","similarity","46","279843","0.0-6.0-40.0","5","[""img/0766/0b48f9e0-7d37-4161-8adb-4e3f5b6b7583.jpg"",""img/0769/6c0bac4c-5f59-43c7-898c-3ca93cf55cfe.jpg""]","",""
"","5331","similarity","47","295964","0.0-6.0-41.0","3","[""img/0874/ca23d307-fc00-4d7d-9106-584c6eb21b4d.jpg"",""img/0764/e48e6c6f-9e28-420f-836a-8043b2319bb4.jpg""]","",""
"","3679","similarity","48","300644","0.0-6.0-42.0","1","[""img/0868/83b4350a-3b70-4cea-b7f5-b5b56f3050a8.jpg"",""img/0902/aa6fca32-82b0-4414-b20a-8f6f8aa5a2d2.jpg""]","",""
"","2428","similarity","49","304075","0.0-6.0-43.0","1","[""img/0875/cff79b3a-a797-4393-9757-6275f999ec04.jpg"",""img/0899/a05bea16-2bb4-4cb9-b8fb-4ff975db6971.jpg""]","",""
"","3013","similarity","50","308092","0.0-6.0-44.0","5","[""img/0866/f756f7d1-9ad8-4a34-9ef6-7a443d705bfe.jpg"",""img/0860/9593362c-9fe5-4d12-9735-6000a11f6aa5.jpg""]","",""
"","2293","similarity","51","311388","0.0-6.0-45.0","6","[""img/0766/908bc45b-7c9e-4f95-806e-86b196ebcb2c.jpg"",""img/0903/31b5a5f4-b695-4af1-bad2-a19650a05498.jpg""]","",""
"","3936","similarity","52","316327","0.0-6.0-46.0","5","[""img/0901/4d1bed7e-3c4e-4f6c-ada9-4beb66ba9e39.jpg"",""img/0904/ba8e689e-9ca6-4608-a2a1-3b0940666ae6.jpg""]","",""
"","4556","similarity","53","321884","0.0-6.0-47.0","5","[""img/0758/caa93da2-9edf-49fa-96b9-32dedd8f5078.jpg"",""img/0902/eb3e7e71-8ff1-4b88-a6a7-47e2c1ce1683.jpg""]","",""
"","2000","similarity","54","324888","0.0-6.0-48.0","7","[""img/0764/974d52cc-6318-4e7a-b294-2f3e92ff800f.jpg"",""img/0764/a86eed5b-d0af-4c3f-8c7a-26e98e98cf1a.jpg""]","",""
"","2778","similarity","55","328668","0.0-6.0-49.0","2","[""img/0866/8efcaa46-83ab-4dee-a35f-850402aa21ae.jpg"",""img/0902/511abb54-0094-4f4d-b6dc-3f2c97050521.jpg""]","",""
"","2835","similarity","56","332504","0.0-6.0-50.0","1","[""img/0764/fb7d4a20-a475-465e-a74f-aa39a0d33d16.jpg"",""img/0758/a709631e-3705-4725-ac40-f0d916924f08.jpg""]","",""
"","2823","similarity","57","336329","0.0-6.0-51.0","6","[""img/0898/04e39a7a-fcf6-4156-ab0e-f5871f335e1c.jpg"",""img/0894/5ff3c4f6-52e2-4075-8679-be0312e59703.jpg""]","",""
"","2530","similarity","58","339862","0.0-6.0-52.0","5","[""img/0875/2c361b79-c3d1-4eda-812e-bf03192407bf.jpg"",""img/0866/386235d2-6857-41e7-88a8-25cfc3430025.jpg""]","",""
"","4004","similarity","59","344868","0.0-6.0-53.0","7","[""img/0904/6291eb43-c10c-4810-a36a-101d09868b04.jpg"",""img/0904/0d17b811-063e-416e-a23c-3b3cfa4fcce5.jpg""]","",""
"","3161","similarity","60","349031","0.0-6.0-54.0","6","[""img/0769/96556ef3-7fac-4c9d-8281-1cb0ea5081bc.jpg"",""img/0769/1d8734c4-77ab-4165-9e71-5cfe672ff01c.jpg""]","",""
"","3599","similarity","61","353632","0.0-6.0-55.0","1","[""img/0898/e167334e-cc1d-4986-b3b1-c7bc7da64baa.jpg"",""img/0758/65d426d6-3ff6-415d-8654-a43b83ecc4fe.jpg""]","",""
"","2575","similarity","62","357210","0.0-6.0-56.0","5","[""img/0769/bb8c4e53-6f32-4814-97ee-392d4decfb2e.jpg"",""img/0902/40d0b6ec-3907-4573-b227-e7d8e9cad1c3.jpg""]","",""
"","3723","similarity","63","361934","0.0-6.0-57.0","6","[""img/0864/1ebbc554-99fa-49f9-8799-317375a79820.jpg"",""img/0881/b549bc99-a61c-4450-bab5-9efc3a197bf0.jpg""]","",""
"","2103","similarity","64","365040","0.0-6.0-58.0","5","[""img/0758/67c0be2f-9e91-48b3-8219-70ac0a1802fa.jpg"",""img/0868/e0aff734-077f-40dd-9781-74821abd3621.jpg""]","",""
"","3250","similarity","65","369292","0.0-6.0-59.0","3","[""img/0862/e0f1a4e9-e1b6-45f7-af67-89f334e6630d.jpg"",""img/0769/b664b502-a86c-46c1-ad6f-5ebffc2e1bd3.jpg""]","",""
"","3104","similarity","66","373398","0.0-6.0-60.0","5","[""img/0764/da207710-e7e4-4f42-b2e6-99b5f357f433.jpg"",""img/0903/680ed18e-b311-4ecf-9b00-7dea32128334.jpg""]","",""
"","3756","similarity","67","378157","0.0-6.0-61.0","6","[""img/0899/fd9efb43-701f-4cd6-baaa-4c38315f4bdc.jpg"",""img/0899/56a605c3-d0a2-4215-89e1-779279d85a7c.jpg""]","",""
"","2564","similarity","68","381723","0.0-6.0-62.0","5","[""img/0860/f44ba3fb-03a2-42f0-8509-2c1ded493086.jpg"",""img/0875/a4935837-7d3c-4df6-88c1-36a94d4991ca.jpg""]","",""
"","3711","similarity","69","386437","0.0-6.0-63.0","5","[""img/0868/15dd6fd7-791e-4b53-b203-195d617521a4.jpg"",""img/0874/bf14b896-e930-4fd9-9c05-2e83317a2773.jpg""]","",""
"","2317","similarity","70","389756","0.0-6.0-64.0","5","[""img/0758/9fb5b2fe-3f00-4fe6-973c-1ce10d5f4cd5.jpg"",""img/0862/00c06b00-3b73-44e9-bc1e-c5aafb438321.jpg""]","",""
"","2766","similarity","71","393525","0.0-6.0-65.0","6","[""img/0904/2fd488e9-960f-41f7-8a44-33375f7d5051.jpg"",""img/0898/661621d4-a14e-487c-8c74-354134a29710.jpg""]","",""
"","2001","similarity","72","396528","0.0-6.0-66.0","6","[""img/0881/84397291-bc14-4fbf-90e8-241e486ab0fe.jpg"",""img/0866/0207e9a2-7dbb-40b5-9459-b472aaeceb2a.jpg""]","",""
"","2328","similarity","73","399858","0.0-6.0-67.0","1","[""img/0867/179ab87a-8eac-4c52-a41f-2e48e3120f09.jpg"",""img/0898/224c1572-56b9-4f16-a9e4-6f3bc9c114bd.jpg""]","",""
"","2811","similarity","74","403672","0.0-6.0-68.0","7","[""img/0902/a6fb6dd5-696c-47ec-be7d-d7b88f1544f1.jpg"",""img/0764/c643e165-df19-459f-8c2b-8357bf432a17.jpg""]","",""
"","1799","similarity","75","406474","0.0-6.0-69.0","6","[""img/0875/8521fd58-3b1e-4dc5-97ae-804edfa6734a.jpg"",""img/0867/6e19c858-b606-45b2-a4c6-910a73f1d82c.jpg""]","",""
"","3374","similarity","76","410850","0.0-6.0-70.0","5","[""img/0766/33519c22-aaa4-49d7-8d49-ab551db1945e.jpg"",""img/0764/06ea144f-f4f3-4a14-ba47-f20f35c561e0.jpg""]","",""
"","2968","similarity","77","414821","0.0-6.0-71.0","3","[""img/0894/151063aa-6472-4745-837b-36603aba5966.jpg"",""img/0867/075e0f95-856b-4cbb-acf5-092393aaf04e.jpg""]","",""
"","2428","similarity","78","418252","0.0-6.0-72.0","1","[""img/0875/5a7c4e35-6514-4e12-8879-d16071da4cd6.jpg"",""img/0764/83c93cce-18d1-4aa7-9e23-2c268afe0a46.jpg""]","",""
"","2710","similarity","79","421965","0.0-6.0-73.0","6","[""img/0867/f26f6b60-f772-4f4c-95a4-addc62cfd692.jpg"",""img/0866/6f2a90d7-14f1-4f1b-bd64-fc0af6b9fe44.jpg""]","",""
"","2653","similarity","80","425621","0.0-6.0-74.0","1","[""img/0903/ea75f240-fb62-4edb-a709-83e858b202c0.jpg"",""img/0758/53f35650-e455-4b53-8be4-c3c8271c6466.jpg""]","",""
"","2192","similarity","81","428816","0.0-6.0-75.0","1","[""img/0766/5d6e0d1d-4369-41f0-a64c-91f3503055c7.jpg"",""img/0868/6a28c3b0-3d76-498a-9fb7-ddafc665eca8.jpg""]","",""
"","2428","similarity","82","432247","0.0-6.0-76.0","2","[""img/0874/ca76a855-4e77-4f2f-872a-0a718153e7ed.jpg"",""img/0766/51d3aab4-3d09-4dda-b99d-3dc7aaabc6f2.jpg""]","",""
"","3633","similarity","83","436882","0.0-6.0-77.0","5","[""img/0881/e046471a-35b4-4159-bbf7-3cfd201bef66.jpg"",""img/0868/1a62b2b2-18f5-466e-b564-5176a57c565e.jpg""]","",""
"","4566","similarity","84","442451","0.0-6.0-78.0","2","[""img/0758/6cd8c362-ae2a-41eb-80a3-3a4f7ace1530.jpg"",""img/0901/4ca4f962-40c0-4c59-b14a-3cd7b8c9029b.jpg""]","",""
"","3182","similarity","85","446636","0.0-6.0-79.0","2","[""img/0881/d373cb9f-a719-4549-a2a4-82def79fb2a5.jpg"",""img/0898/81b08535-2020-4c15-9ce4-2f1e460755ae.jpg""]","",""
"","2272","similarity","86","449910","0.0-6.0-80.0","5","[""img/0867/8ba0c5a7-c7e4-42cf-a80a-543763b90779.jpg"",""img/0758/821c68d3-5cb0-4eae-8659-30e6263fca39.jpg""]","",""
"","3509","similarity","87","454421","0.0-6.0-81.0","7","[""img/0769/76eaa4a3-dfe9-4dc1-9efb-caebe86264e1.jpg"",""img/0899/76ad07e2-ca25-45eb-84f2-8d80b8ca3e26.jpg""]","",""
"","2406","similarity","88","457830","0.0-6.0-82.0","7","[""img/0903/3e9ee8a5-eb66-47f5-8973-8a5af1ddc87e.jpg"",""img/0903/e2e55a9e-0397-4dc0-8adf-4a54cfefe1fe.jpg""]","",""
"","2372","similarity","89","464411","0.0-6.0-83.0","2","[""img/0867/1719a35d-f085-48c0-9099-16c94fe418b4.jpg"",""img/0766/ba35c0fc-4d5b-490d-959e-c94b279cdd02.jpg""]","",""
"","2081","similarity","90","467494","0.0-6.0-84.0","2","[""img/0902/44cd9b7e-fdfb-4f78-90de-8d4c9d279365.jpg"",""img/0867/50a1b60e-3a29-44bf-b606-d4bd3746fea9.jpg""]","",""
"","3397","similarity","91","471892","0.0-6.0-85.0","1","[""img/0901/168eb52c-c415-43f1-b5c8-e76e1a1ec247.jpg"",""img/0875/f87b67d7-c33e-40d1-b281-248c4be1cb6e.jpg""]","",""
"","2497","similarity","92","475391","0.0-6.0-86.0","1","[""img/0764/978aede9-4590-4ad0-b234-135c83e5d669.jpg"",""img/0866/11a1d141-be5e-443c-98c1-a9d4d9e3dec0.jpg""]","",""
"","3453","similarity","93","479846","0.0-6.0-87.0","5","[""img/0901/b453df0b-4c39-49bb-8ced-6127efffa898.jpg"",""img/0894/76c1201f-8524-4865-85e6-dda8cb4ac986.jpg""]","",""
"","2305","similarity","94","483154","0.0-6.0-88.0","6","[""img/0898/26c41340-15bd-4ead-8fe4-c0d0ddca09c2.jpg"",""img/0769/4a1d0b52-3fe8-40fb-bb1c-c814fe49a68c.jpg""]","",""
"","2530","similarity","95","486686","0.0-6.0-89.0","5","[""img/0769/878531fd-e0e8-4ad1-b9ad-f018bb104ca0.jpg"",""img/0894/7fb082e0-ce79-485c-9109-04367fb32275.jpg""]","",""
"","2193","similarity","96","489881","0.0-6.0-90.0","5","[""img/0862/847e5208-38ec-4f36-949c-296cdd7424ee.jpg"",""img/0874/3ce41e7c-40c8-4d58-a546-171114521796.jpg""]","",""
"","2362","similarity","97","493245","0.0-6.0-91.0","6","[""img/0894/a3d4170b-b7d8-40e3-955f-87e76ed745fc.jpg"",""img/0766/0bf3793e-c353-45e5-ac6f-753f5f484e10.jpg""]","",""
"","2237","similarity","98","496485","0.0-6.0-92.0","5","[""img/0874/eba003b4-cdab-4eee-8bc3-f064c7d94165.jpg"",""img/0867/7d1c497b-c1b3-4ed8-abb5-d7f73306015f.jpg""]","",""
"","2642","similarity","99","500130","0.0-6.0-93.0","2","[""img/0899/b45c550b-96c3-4255-ad59-48a2b4db1c1e.jpg"",""img/0868/7b212364-ff5f-4e28-9241-7eb6ea00161b.jpg""]","",""
"","2170","similarity","100","503303","0.0-6.0-94.0","3","[""img/0903/647ce311-8c71-479a-8361-961db1457139.jpg"",""img/0862/7918ca67-5bd3-4606-a5ea-c39fb11a9297.jpg""]","",""
"","2193","similarity","101","506498","0.0-6.0-95.0","5","[""img/0899/66ab3178-c3fe-4455-ad17-d5952b08e018.jpg"",""img/0766/a1ed3f0f-e338-4a26-8fe4-4370f0c9fa6e.jpg""]","",""
"","2248","similarity","102","509749","0.0-6.0-96.0","7","[""img/0867/26611f4e-d694-4460-b7e2-43c62753ddc3.jpg"",""img/0868/3a62db2d-97e9-44a3-b8e3-a48c6f0e423b.jpg""]","",""
"","2080","similarity","103","512831","0.0-6.0-97.0","5","[""img/0862/5d887e9f-89e2-4ebc-80a0-6d46fe6480db.jpg"",""img/0901/12da1841-e611-435c-9719-109413d536a8.jpg""]","",""
"","2844","similarity","104","516679","0.0-6.0-98.0","2","[""img/0875/5a716432-c6ca-4b1c-955a-2b8ac25198ee.jpg"",""img/0766/79767d11-b612-4e8a-9e4b-a8ac95bb6a54.jpg""]","",""
"","2237","similarity","105","519919","0.0-6.0-99.0","6","[""img/0758/7ee8bc8f-c40b-4b3a-84ec-3e83580622d4.jpg"",""img/0874/29830da7-be5f-44e5-b141-652a0ccf7269.jpg""]","",""
"","2418","similarity","106","523339","0.0-6.0-100.0","2","[""img/0904/696ebb60-8891-417a-91fd-c53218907a95.jpg"",""img/0868/fd307a36-9a3a-47d7-ab7c-f810d0b35040.jpg""]","",""
"","2845","similarity","107","527187","0.0-6.0-101.0","2","[""img/0903/59defeb8-98bd-4570-a2f8-9bd189e68ef4.jpg"",""img/0866/945c6710-d15b-4a5b-a8f6-69af0850357f.jpg""]","",""
"","2754","similarity","108","530944","0.0-6.0-102.0","3","[""img/0868/293079b8-7e0c-4afd-a390-1e5d35fe3ded.jpg"",""img/0769/5bd04f55-d091-4f57-85db-38426f26bd1a.jpg""]","",""
"","3509","similarity","109","535455","0.0-6.0-103.0","5","[""img/0902/962f645e-9b55-4628-9b50-c703422bfe1a.jpg"",""img/0899/4f7bc593-8ddd-4da3-a0b9-84da730d3370.jpg""]","",""
"","3576","similarity","110","540034","0.0-6.0-104.0","5","[""img/0868/0d3abd3a-b6c3-4584-a9f7-e2da63748b3d.jpg"",""img/0862/57b6f83f-c763-4858-830d-102f97bfefbf.jpg""]","",""
"","2474","similarity","111","543510","0.0-6.0-105.0","5","[""img/0903/8931c67c-a43d-47d3-a4c9-42aa2f81d344.jpg"",""img/0894/10f22b96-040c-44f4-950b-a4963f3f506c.jpg""]","",""
"","2935","similarity","112","547448","0.0-6.0-106.0","6","[""img/0864/49150900-7f25-4ce8-8d10-9b47a71d1997.jpg"",""img/0874/a3bc679d-619f-4db6-bb68-116dcb757d9c.jpg""]","",""
"","4691","similarity","113","553140","0.0-6.0-107.0","3","[""img/0862/ee3b7bff-4a70-4e84-9bea-4a565e456acb.jpg"",""img/0902/95a36b6b-9601-4fa5-8fd9-606ea62f9425.jpg""]","",""
"","2138","similarity","114","556279","0.0-6.0-108.0","7","[""img/0904/25365108-e038-4021-aac9-797f2063b337.jpg"",""img/0903/24477210-856c-4550-9de0-9f85a32762eb.jpg""]","",""
"","2811","similarity","115","560093","0.0-6.0-109.0","2","[""img/0764/0e7ed062-f798-4366-8a24-6f430926f919.jpg"",""img/0864/afcba0a3-7e27-4757-b254-e9f05fad27e2.jpg""]","",""
"","2361","similarity","116","563457","0.0-6.0-110.0","2","[""img/0866/c446214b-a368-4c65-ae39-ea46894256ab.jpg"",""img/0894/05161000-f476-499b-a878-c13c7f347fd9.jpg""]","",""
"","2721","similarity","117","567181","0.0-6.0-111.0","5","[""img/0899/93494f3b-d539-4075-b027-d82e344563da.jpg"",""img/0903/776b74ee-a8ab-4ab8-a78d-097c0747538d.jpg""]","",""
"","2484","similarity","118","570668","0.0-6.0-112.0","7","[""img/0902/51493fab-2a10-4385-aa88-bee3db441626.jpg"",""img/0904/1d10df11-b5c8-4370-9a6b-097a7f965895.jpg""]","",""
"","2351","similarity","119","574021","0.0-6.0-113.0","5","[""img/0864/65210d57-1153-4657-886a-32e758f49b4a.jpg"",""img/0860/4f695df5-afac-4da7-9875-fee39b0b24ad.jpg""]","",""
"","2428","similarity","120","577452","0.0-6.0-114.0","2","[""img/0860/524b2e98-5767-4d53-942c-ebae6925659b.jpg"",""img/0899/ad8268c5-8199-48d0-ad70-c5b6d6c599ec.jpg""]","",""
"","3047","similarity","121","581502","0.0-6.0-115.0","2","[""img/0881/4bd34581-94d8-4e88-8c89-5cef864ca3be.jpg"",""img/0903/72197c2b-403e-4a26-b391-f1aa8dea4b76.jpg""]","",""
"","2642","similarity","122","585147","0.0-6.0-116.0","2","[""img/0894/9b1333fd-3561-43bf-aee5-99b7b7ca3dc3.jpg"",""img/0874/85eb9b8a-c4c6-4e5a-b8e7-363a87a82054.jpg""]","",""
"","1843","similarity","123","587993","0.0-6.0-117.0","5","[""img/0881/f62bdcd1-a4b7-4d48-83da-d9c9e01c8727.jpg"",""img/0862/47ed5efd-4ec9-4b74-bb4e-a5f5cf0c3e7d.jpg""]","",""
"","2406","similarity","124","591402","0.0-6.0-118.0","6","[""img/0868/8b0b8473-e2c0-4331-aa56-c3a5c29369da.jpg"",""img/0875/42910c99-5463-450a-a0f8-d4d060a11455.jpg""]","",""
"","2496","similarity","125","594901","0.0-6.0-119.0","5","[""img/0860/c7047cd2-7cc1-41b6-8a34-c0986774975f.jpg"",""img/0758/d57c2592-a317-4f63-91be-91a3a9afd222.jpg""]","",""
"","2496","similarity","126","598399","0.0-6.0-120.0","5","[""img/0864/300bb811-8b3c-4c42-8653-6097c3725197.jpg"",""img/0875/2e13d160-eea1-416b-aff1-d37ab99ecc1d.jpg""]","",""
"","2845","similarity","127","602247","0.0-6.0-121.0","3","[""img/0898/8605a25b-6895-476d-8c13-df7a83f96093.jpg"",""img/0866/a15b02be-11bb-43e3-b0e0-ecc3bd7dfc49.jpg""]","",""
"","3002","similarity","128","606252","0.0-6.0-122.0","3","[""img/0874/adf9a8f1-c40b-402b-b95b-1e85a54a7b62.jpg"",""img/0904/60d1a521-edf7-4696-9263-f21ac0e62a01.jpg""]","",""
"","2901","similarity","129","610156","0.0-6.0-123.0","3","[""img/0904/4e58005d-a2ec-4aaa-b199-445343561396.jpg"",""img/0864/efcfbb1b-8197-44c9-b723-40d6c608dd3c.jpg""]","",""
"","3250","similarity","130","614408","0.0-6.0-124.0","5","[""img/0894/5c7677b0-a4f1-479e-b274-7822c415175a.jpg"",""img/0902/9f543501-3cf1-45a7-a2f1-eeca87cc15b9.jpg""]","",""
"","2463","similarity","131","619245","0.0-6.0-125.0","5","[""img/0868/09a9ef4d-d000-4cfa-a6aa-ebec7c2edeb4.jpg"",""img/0864/5f74a653-3bdc-4308-8cca-ac667dc22e1f.jpg""]","",""
"","3352","similarity","132","623599","0.0-6.0-126.0","2","[""img/0899/ddf96ade-692e-4602-bd22-dedbb46401bc.jpg"",""img/0866/620cd1aa-0800-4414-8f6e-90342e7a99ad.jpg""]","",""
"","3272","similarity","133","627875","0.0-6.0-127.0","2","[""img/0875/d59ff733-eaff-4ee2-9443-06954dd0bcb6.jpg"",""img/0904/2c98dc56-88d1-4fb5-a999-b6a7861f65f0.jpg""]","",""
"","2293","similarity","134","631171","0.0-6.0-128.0","2","[""img/0867/de92135f-5b65-4ed9-b245-188292c7c2f8.jpg"",""img/0899/0e1d936a-dbe2-4afc-9f19-7b7a1ae6c9ed.jpg""]","",""
"","2418","similarity","135","634591","0.0-6.0-129.0","3","[""img/0901/b13fa50f-dbe0-4d0f-8647-6ac0fd8f40bd.jpg"",""img/0867/98d8cd96-1476-4fe0-a3a3-04f875500a1b.jpg""]","",""
"","3272","similarity","136","638866","0.0-6.0-130.0","2","[""img/0864/da39ad34-04e0-40d4-a724-c08d53e0ea09.jpg"",""img/0769/35364db7-e0d5-40ef-93dc-faf9dfb95136.jpg""]","",""
"","2721","similarity","137","642590","0.0-6.0-131.0","1","[""img/0903/36e4ab1f-caa9-40b3-8616-faada076df94.jpg"",""img/0868/4e626425-63c8-484a-8a1d-e66ee4e0bef8.jpg""]","",""
"","2226","similarity","138","645819","0.0-6.0-132.0","5","[""img/0864/c3b63e8f-ea39-4d70-a1f2-b3fe4be8eb75.jpg"",""img/0867/5e07b34d-b40f-4b1c-ac10-49975bace45f.jpg""]","",""
"","3892","similarity","139","650714","0.0-6.0-133.0","3","[""img/0901/5b97abf9-f0c8-4fd1-b921-36d574779078.jpg"",""img/0860/8fdba999-b946-4c7d-9891-336018b563ef.jpg""]","",""
"","2777","similarity","140","654492","0.0-6.0-134.0","2","[""img/0881/0c7068da-d0d9-4103-bda1-74ef7a2b32c3.jpg"",""img/0766/91fc8c4d-862f-4d2b-b1a1-2db8d729b6b7.jpg""]","",""
"","2823","similarity","141","658317","0.0-6.0-135.0","2","[""img/0903/bf0a7d60-eca5-44b0-bafd-baf21db9904b.jpg"",""img/0864/1d15626a-2f7c-410f-819c-0fa2c967e95e.jpg""]","",""
"","3654","similarity","142","662975","0.0-6.0-136.0","1","[""img/0758/d540bee6-b460-4c32-ac57-bc282742d7d4.jpg"",""img/0894/38f5931f-926d-414e-b498-66b188978b7a.jpg""]","",""
"","2417","similarity","143","666395","0.0-6.0-137.0","3","[""img/0769/c34b7763-8ff2-46d5-9e92-f1d8f3bedbd8.jpg"",""img/0860/61fb959d-d4d9-4de4-9e4e-4fa62b4cfcd5.jpg""]","",""
"","2530","similarity","144","669927","0.0-6.0-138.0","6","[""img/0904/24fc38fe-842c-4831-ad8a-b1de5c25c0a8.jpg"",""img/0766/d5d38751-8fa5-476f-93e9-86ed2d9045ef.jpg""]","",""
"","2317","similarity","145","673246","0.0-6.0-139.0","5","[""img/0868/d98ca254-b195-477f-b57e-5760a2717db8.jpg"",""img/0860/c5ccd1a4-4bb7-48e1-9b25-72cfaf06909b.jpg""]","",""
"","2575","similarity","146","676824","0.0-6.0-140.0","7","[""img/0758/b76ceca7-95ac-46e4-ac13-da02c8e93be9.jpg"",""img/0864/3651d070-2fc5-4848-b6a6-088a2d9ac5c9.jpg""]","",""
"","2563","similarity","147","680390","0.0-6.0-141.0","7","[""img/0867/2e1a0b58-cdb1-4107-a14e-452530d7b9b0.jpg"",""img/0867/12264664-1860-46df-8c21-162b9817cdda.jpg""]","",""
"","4431","similarity","148","685824","0.0-6.0-142.0","7","[""img/0898/b3290bf9-215b-4b45-b21a-65bdf73f142f.jpg"",""img/0898/b2732712-71c2-45d8-834f-2b2ed5504910.jpg""]","",""
"","3791","similarity","149","690616","0.0-6.0-143.0","3","[""img/0866/07c9c966-3c8d-40e7-8128-92b2acbaed5d.jpg"",""img/0769/a3cfbdeb-acb3-4eac-87fb-4b117f42d4f8.jpg""]","",""
"","2339","similarity","150","693957","0.0-6.0-144.0","2","[""img/0860/d9a0d117-6d1d-41c0-8fec-9aff0fd9e9f2.jpg"",""img/0898/0af304a2-6a7a-4082-ab7c-4450cd08cc58.jpg""]","",""
"","2091","similarity","151","697051","0.0-6.0-145.0","1","[""img/0766/c23b5a20-e50f-4d85-841f-cf89212a4348.jpg"",""img/0864/ea327690-500b-4137-bf91-451b309fe6a5.jpg""]","",""
"","2744","similarity","152","700798","0.0-6.0-146.0","3","[""img/0860/87039971-2210-4aab-93c0-8e9b5f1655b2.jpg"",""img/0903/b4a0f61e-a964-4b79-a9a7-f767a8f92f34.jpg""]","",""
"","6231","similarity","153","708031","0.0-6.0-147.0","2","[""img/0867/a749dddb-69f0-44a6-acdc-2bf295cf6dcc.jpg"",""img/0764/b8e23f4f-ff19-4472-ad9b-2f85548ebca0.jpg""]","",""
"","2654","similarity","154","711688","0.0-6.0-148.0","5","[""img/0769/688d0c52-ad73-4065-a5eb-f8c10d076bff.jpg"",""img/0904/9d30eff1-46ef-4453-b11e-124ef8145c00.jpg""]","",""
"","2170","similarity","155","714860","0.0-6.0-149.0","5","[""img/0764/cbdc4f20-3a9a-4211-9b40-090699e0abcc.jpg"",""img/0901/443f2e59-199b-4f7b-9de9-c44ad97326a5.jpg""]","",""
"","2406","similarity","156","718269","0.0-6.0-150.0","6","[""img/0904/b7c2a2c8-df33-4473-b3d4-ff7147c60db3.jpg"",""img/0899/7f9d45d0-b2c6-40d3-aa41-c207db2c411b.jpg""]","",""
"","2181","similarity","157","721453","0.0-6.0-151.0","5","[""img/0862/f188d4f0-76a4-4102-818c-a209969d73a5.jpg"",""img/0867/85a96c62-548f-4994-9553-819e03c3135a.jpg""]","",""
"","2486","similarity","158","724940","0.0-6.0-152.0","6","[""img/0766/60033a74-9919-47e5-913c-71d0d483e7e5.jpg"",""img/0766/75c3d627-4f3b-40d5-9d9c-10c8a62db644.jpg""]","",""
"","2519","similarity","159","728461","0.0-6.0-153.0","3","[""img/0862/ad593cc7-cabe-4bb7-8e14-8a447a0717b4.jpg"",""img/0894/7dd6ff43-f8fc-408a-8a41-a2b261871820.jpg""]","",""
"","2317","similarity","160","731780","0.0-6.0-154.0","3","[""img/0899/1b3457ea-87d4-4946-a01c-aac1863ed46c.jpg"",""img/0901/3db47171-0139-4235-82cd-0b1787b6775f.jpg""]","",""
"","6040","similarity","161","738823","0.0-6.0-155.0","7","[""img/0874/7e4f2150-3b59-4a36-b5da-a4e0ba410531.jpg"",""img/0874/99f6563c-8a8d-4c1c-a41d-667b618c3fd5.jpg""]","",""
"","2260","similarity","162","742085","0.0-6.0-156.0","5","[""img/0860/5383b320-1518-4095-a58e-5cc1ae30b64c.jpg"",""img/0867/a498eef3-9fa4-4ab2-9778-4ae82ac40dc5.jpg""]","",""
"","5253","similarity","163","748340","0.0-6.0-157.0","3","[""img/0901/6e2957f8-f5ab-46f4-87cc-bb50155a098b.jpg"",""img/0881/7e822106-76f7-4b10-a805-14dc68b2cfaf.jpg""]","",""
"","2824","similarity","164","752165","0.0-6.0-158.0","6","[""img/0903/f1fa0f8d-e62b-4b4a-a174-31a0fabfe61b.jpg"",""img/0902/2a7ac123-414a-476a-9a96-4757b924baef.jpg""]","",""
"","3103","similarity","165","756272","0.0-6.0-159.0","2","[""img/0860/4c530c3c-6aab-492a-94d1-9c01797bde40.jpg"",""img/0764/8389e74f-e0e0-435d-945f-da1f4c92ccb6.jpg""]","",""
"","2192","similarity","166","759467","0.0-6.0-160.0","1","[""img/0902/01b41522-de46-4c3a-b0af-a61b2682b40e.jpg"",""img/0875/34132396-d896-4c2d-8087-646dd867e769.jpg""]","",""
"","2777","similarity","167","763247","0.0-6.0-161.0","3","[""img/0898/c3cecf20-f7fd-45fa-97d0-dc0a63e8d6c0.jpg"",""img/0862/e697469a-ec19-4414-b972-7b9f3564785b.jpg""]","",""
"","3633","similarity","168","767882","0.0-6.0-162.0","2","[""img/0894/1b3888e6-cf36-4c4a-a039-187aa5cb71ac.jpg"",""img/0875/3ecb367d-e9eb-4826-8aaa-7aa72fb98019.jpg""]","",""
"","1810","similarity","169","770694","0.0-6.0-163.0","5","[""img/0866/bf14b5bd-fb55-47db-86b9-4f8aeb9a6dad.jpg"",""img/0864/b3c4e378-28f0-4699-9338-2a257b4bca04.jpg""]","",""
"","2304","similarity","170","774002","0.0-6.0-164.0","3","[""img/0766/1bc0dccc-a5b5-4375-87fa-28360ca42b12.jpg"",""img/0862/f43ceabf-acc1-4107-b857-5d1849808f93.jpg""]","",""
"","1833","similarity","171","776837","0.0-6.0-165.0","5","[""img/0866/4a87911a-d5be-4d4e-ab8e-3d1f581bf507.jpg"",""img/0874/995f0332-0439-4eb4-add3-957335dbf6d9.jpg""]","",""
"","2957","similarity","172","780797","0.0-6.0-166.0","6","[""img/0862/92f0146c-20c4-482e-aef5-adb693790338.jpg"",""img/0860/18dfed73-e36b-4487-a8bd-0b8cff8e3668.jpg""]","",""
"","2113","similarity","173","784914","0.0-6.0-167.0","5","[""img/0766/d919cedb-f9b7-4f30-83bb-3e9c65001ceb.jpg"",""img/0901/58978a6d-a3e2-4c59-8d62-f60693ecc0f6.jpg""]","",""
"","2710","similarity","174","788627","0.0-6.0-168.0","7","[""img/0862/99a99e39-8355-44ec-b993-e7bcec111e1c.jpg"",""img/0862/fad1d7c1-8187-43c3-942a-0fc12183e48e.jpg""]","",""
"","2170","similarity","175","791799","0.0-6.0-169.0","6","[""img/0894/6b2e9509-8699-42b7-9582-7741df0ba2d7.jpg"",""img/0764/23ea9375-f801-4a96-9925-7d453da887c7.jpg""]","",""
"","2879","similarity","176","795681","0.0-6.0-170.0","2","[""img/0874/767f289c-9814-4496-803f-745cc8913d1f.jpg"",""img/0898/f3a3f225-1248-4ac7-b93b-f0ff28485bf3.jpg""]","",""
"","4308","similarity","177","800991","0.0-6.0-171.0","1","[""img/0860/8a92e21b-6a32-4e4a-a445-2d5a487ed0a4.jpg"",""img/0766/5d1b8041-c5a1-4b02-b4fe-3453d98a0d72.jpg""]","",""
"","3520","similarity","178","805513","0.0-6.0-172.0","2","[""img/0898/cd3aaa3f-efa9-4ab3-8d6f-a6a9273ddf42.jpg"",""img/0864/87c467d3-abca-482f-ad80-3766c21b1bb3.jpg""]","",""
"","3194","similarity","179","809709","0.0-6.0-173.0","1","[""img/0881/d1982897-8d8d-4704-a940-1ee5d07a1f15.jpg"",""img/0764/8740679b-b56f-4292-aece-14063457113a.jpg""]","",""
"","3025","similarity","180","813737","0.0-6.0-174.0","2","[""img/0898/68476bbb-34a1-42d9-8bc1-deab783d4489.jpg"",""img/0868/4bd5105a-d2c3-4f82-8c80-57196106ba53.jpg""]","",""
"","2677","similarity","181","817416","0.0-6.0-175.0","7","[""img/0864/a248adb3-c70b-4652-b7a3-776d2a1e904b.jpg"",""img/0864/ef9cbca0-4be8-435d-ad49-977259e80409.jpg""]","",""
"","3869","similarity","182","822287","0.0-6.0-176.0","1","[""img/0899/06b0fc99-0581-461a-9913-d1a5a941ac61.jpg"",""img/0862/a0a3a7ba-7798-46a3-b4ca-05e1f6e581d0.jpg""]","",""
"","2327","similarity","183","825617","0.0-6.0-177.0","6","[""img/0875/dbdd643e-6d0e-4a5c-ab57-b9c29b9c981a.jpg"",""img/0758/20497cbe-ddae-489e-86e2-ab06985ed07c.jpg""]","",""
"","3250","similarity","184","829870","0.0-6.0-178.0","2","[""img/0866/23a224f3-2012-4fc8-8e0f-3c36f8de27fd.jpg"",""img/0901/d61f267a-c492-4db6-9bfb-61efd49cf072.jpg""]","",""
"","3902","similarity","185","834775","0.0-6.0-179.0","3","[""img/0769/ecda2fb3-556b-43ba-8a67-e87dd75ff2b4.jpg"",""img/0874/93d1f8dc-acf2-4f03-bd8d-8ec35df276ed.jpg""]","",""
"","2125","similarity","186","837902","0.0-6.0-180.0","6","[""img/0875/90da8d75-108a-44ad-b999-e21fee3860d3.jpg"",""img/0881/633c6f40-56d9-4b48-bf1c-ecd83116eabb.jpg""]","",""
"","2024","similarity","187","840928","0.0-6.0-181.0","6","[""img/0866/be24ab58-230e-4db8-9f45-ff04c9aec6bb.jpg"",""img/0868/d6d1f30d-4323-435a-b194-7892521bc57e.jpg""]","",""
"","3464","similarity","188","845395","0.0-6.0-182.0","2","[""img/0899/57476fed-5962-4272-8fc9-b317bb777b54.jpg"",""img/0758/6e95579b-5166-487c-b8cb-e417c6a218e3.jpg""]","",""
"","1866","similarity","189","848263","0.0-6.0-183.0","5","[""img/0874/a82926a3-0b43-4add-803c-d5f9ea7798ee.jpg"",""img/0875/5a1e5100-0d94-4fec-bbe9-ca9894d2cf8e.jpg""]","",""
"","3475","similarity","190","852741","0.0-6.0-184.0","3","[""img/0904/63dd06dd-dccb-47ba-9740-eb33239e18a7.jpg"",""img/0862/d0ca4c78-fc35-46ed-bdcc-8e124283c53e.jpg""]","",""
"","4465","similarity","191","858209","0.0-6.0-185.0","5","[""img/0902/31abfa33-7cdb-44ad-968e-9f7b324d577a.jpg"",""img/0766/ea09dd5a-d24d-4e97-a099-7da3db1baef1.jpg""]","",""
"","2979","similarity","192","862191","0.0-6.0-186.0","3","[""img/0758/3ddd05d3-557e-4ee7-8b78-9d2d681d8ae2.jpg"",""img/0769/180213e5-1e50-4b4e-87b6-add77ba04d39.jpg""]","",""
"","2654","similarity","193","865847","0.0-6.0-187.0","7","[""img/0881/609a5e93-38b5-4940-8627-2bf8fad7f802.jpg"",""img/0881/f6bd3b96-dc40-4e99-8681-bc3a35cf896d.jpg""]","",""
"","2114","similarity","194","868964","0.0-6.0-188.0","5","[""img/0758/e38fd80d-18d0-42f3-b848-f930788e8bd7.jpg"",""img/0866/9b38d691-1802-4959-ab3f-fc902f0e4ea6.jpg""]","",""
"","3598","similarity","195","873565","0.0-6.0-189.0","5","[""img/0764/3297a811-ea8b-4d74-9547-59cecab7293a.jpg"",""img/0898/a114b375-cb89-44ba-9498-74213f1ecdee.jpg""]","",""
"","2192","similarity","196","876760","0.0-6.0-190.0","6","[""img/0903/6a87dbad-9b8d-4ff5-9c41-03c9aa24f0c3.jpg"",""img/0901/da4fe30f-d12a-491e-96a2-5ab8ebaadd09.jpg""]","",""
"","2136","similarity","197","879899","0.0-6.0-191.0","6","[""img/0902/04a6ad4a-afc6-4871-8225-56b299af7b6b.jpg"",""img/0898/a8f16b02-e19f-423b-86c3-a36562ae1f9b.jpg""]","",""
"","3847","similarity","198","884747","0.0-6.0-192.0","2","[""img/0864/8ddd2e30-a1d0-479f-9cbe-591213023893.jpg"",""img/0901/31c032fd-3c3d-4882-a226-da9a80198937.jpg""]","",""
"","3114","similarity","199","888865","0.0-6.0-193.0","2","[""img/0894/a98416c0-51e2-4960-85da-d81d8688b9d5.jpg"",""img/0881/292e9b4b-fca0-4ba8-87f1-4048f9e37b7d.jpg""]","",""
"","2496","similarity","200","892364","0.0-6.0-194.0","7","[""img/0868/179a5502-ab5c-478e-8263-5a1fbcc101d2.jpg"",""img/0868/4a8a45ed-2c4f-421b-9564-409a33ecd26c.jpg""]","",""
"","3733","similarity","201","897100","0.0-6.0-195.0","5","[""img/0899/fef567a2-c121-4481-9af0-ff108d199bbf.jpg"",""img/0764/f2f23359-8e82-41d3-8900-5b9f4433991d.jpg""]","",""
"","2710","similarity","202","900813","0.0-6.0-196.0","2","[""img/0881/33d65d80-8a8e-4ecf-852d-0ad7725c17a2.jpg"",""img/0904/e9423a8c-f946-43ad-ab7b-931acef870e2.jpg""]","",""
"","2676","similarity","203","904491","0.0-6.0-197.0","1","[""img/0864/e336a4c5-6648-4fd7-b2f6-93a3fb83f8c6.jpg"",""img/0902/6c2c243a-f663-45db-baf5-038d3d58c589.jpg""]","",""
"","2338","similarity","204","907833","0.0-6.0-198.0","7","[""img/0894/b2d2f66e-e480-46da-a02a-6d0c6b285d78.jpg"",""img/0904/d23dd7be-7fe8-4435-82f7-bd592c01e6a1.jpg""]","",""
"","2328","similarity","205","911163","0.0-6.0-199.0","7","[""img/0901/f469cb1d-6d81-4a45-bab5-cd0b650c2b4f.jpg"",""img/0901/a2d7b2f6-396b-4d91-8403-de5361c74af7.jpg""]","",""
"","2439","similarity","206","914605","0.0-6.0-200.0","2","[""img/0894/0130a973-d993-41f8-874a-fee23d9ac11f.jpg"",""img/0860/15b24a61-25be-4356-9eac-5ce95d0cb4a4.jpg""]","",""
"","3892","similarity","207","919499","0.0-6.0-201.0","7","[""img/0898/40f99fb2-64d2-4e72-8a7f-a1cf60741e69.jpg"",""img/0903/70d764d9-1f35-4da7-a35d-4cc39834d270.jpg""]","",""
"","5051","similarity","208","925551","0.0-6.0-202.0","1","[""img/0864/4bd81bc6-c13d-46df-95a9-485886dc7c1b.jpg"",""img/0894/3664e04c-c6d3-4c9b-afb6-25d89974b174.jpg""]","",""
"","3036","similarity","209","929590","0.0-6.0-203.0","5","[""img/0874/8cdb1c07-1c32-46d2-981c-3636560fa6e5.jpg"",""img/0860/8277806e-b684-4474-8f7b-3fca946d7d4f.jpg""]","",""
"","2338","similarity","210","932932","0.0-6.0-204.0","5","[""img/0862/de9ad88c-b522-430a-8ee9-eb06a9f85df5.jpg"",""img/0875/03c3c331-738b-4446-af92-3d7386b08c2e.jpg""]","",""
"","2575","similarity","211","936509","0.0-6.0-205.0","6","[""img/0867/f8159067-056c-41f1-a136-c529fe5e970a.jpg"",""img/0881/7e31e5dc-2240-4b1b-b5a0-3acd980099ef.jpg""]","",""
"","2823","similarity","212","940334","0.0-6.0-206.0","7","[""img/0901/a373612d-67e2-4fec-9764-21d3d6ef6359.jpg"",""img/0902/5b45a7a0-81c8-4a71-aaa2-2ce09adb5a29.jpg""]","",""
"","2462","similarity","213","943799","0.0-6.0-207.0","3","[""img/0899/0433d056-aa30-4f8a-9aa1-abbb951e4edd.jpg"",""img/0864/9b2490c5-a282-400a-9736-e1a0ecbf1cb7.jpg""]","",""
"","2946","similarity","214","947748","0.0-6.0-208.0","5","[""img/0901/693e0535-ef7e-4d60-af9d-fac2f38e8307.jpg"",""img/0769/04347740-f8f6-48bb-887a-f68babd0a0d4.jpg""]","",""
"","4015","similarity","215","953766","0.0-6.0-209.0","7","[""img/0902/7499db23-3a41-41ea-ab5b-6ab4d4c3ed35.jpg"",""img/0902/d5e25767-e8ec-45f3-ac0a-7b4a6f7a9edc.jpg""]","",""
"[{""page_index"":0,""viewing_time"":5467}]","5467","instructions","216","960235","0.0-7.0","","","",""
"","16894","image-multi-choice","217","978136","0.0-8.0-0.0","","","{""Q0"":""Tennessee Warbler""}","Nashville Warbler"
"","45491","image-multi-choice","218","1024632","0.0-8.0-1.0","","","{""Q0"":""Blackburnian Warbler""}","Black-and-white Warbler"
"","9501","image-multi-choice","219","1035140","0.0-8.0-2.0","","","{""Q0"":""Blackburnian Warbler""}","Townsend's Warbler"
"","5789","image-multi-choice","220","1041935","0.0-8.0-3.0","","","{""Q0"":""Lark Sparrow""}","Lark Sparrow"
"","19021","image-multi-choice","221","1061960","0.0-8.0-4.0","","","{""Q0"":""Yellow Warbler""}","Yellow Warbler"
"","14184","image-multi-choice","222","1077147","0.0-8.0-5.0","","","{""Q0"":""Nashville Warbler""}","Orange-crowned Warbler"
"","10436","image-multi-choice","223","1088588","0.0-8.0-6.0","","","{""Q0"":""White-throated Sparrow""}","White-throated Sparrow"
"","3710","image-multi-choice","224","1093302","0.0-8.0-7.0","","","{""Q0"":""Fox Sparrow""}","Fox Sparrow"
"","17985","image-multi-choice","225","1112292","0.0-8.0-8.0","","","{""Q0"":""American Tree Sparrow""}","Song Sparrow"
"","12294","image-multi-choice","226","1125590","0.0-8.0-9.0","","","{""Q0"":""Magnolia Warbler""}","Blackburnian Warbler"
"","9088","image-multi-choice","227","1135681","0.0-8.0-10.0","","","{""Q0"":""Lincoln's Sparrow""}","Vesper Sparrow"
"","4226","image-multi-choice","228","1140912","0.0-8.0-11.0","","","{""Q0"":""White-crowned Sparrow""}","White-crowned Sparrow"
"","6026","image-multi-choice","229","1147944","0.0-8.0-12.0","","","{""Q0"":""Swamp Sparrow""}","American Tree Sparrow"
"","8311","image-multi-choice","230","1157259","0.0-8.0-13.0","","","{""Q0"":""Townsend's Warbler""}","Tennessee Warbler"
"","10594","image-multi-choice","231","1168857","0.0-8.0-14.0","","","{""Q0"":""Blackburnian Warbler""}","Magnolia Warbler"
"","5441","image-multi-choice","232","1175304","0.0-8.0-15.0","","","{""Q0"":""Northern Waterthrush""}","Northern Waterthrush"
"","3641","image-multi-choice","233","1179950","0.0-8.0-16.0","","","{""Q0"":""Chipping Sparrow""}","Chipping Sparrow"
"","8142","image-multi-choice","234","1189096","0.0-8.0-17.0","","","{""Q0"":""Swamp Sparrow""}","Swamp Sparrow"
"","8490","image-multi-choice","235","1198591","0.0-8.0-18.0","","","{""Q0"":""Vesper Sparrow""}","Lincoln's Sparrow"
"","5915","image-multi-choice","236","1205510","0.0-8.0-19.0","","","{""Q0"":""Ovenbird""}","Ovenbird"
