[{"view_history":"[{\"page_index\":0,\"viewing_time\":32860}]","rt":32860,"trial_type":"instructions","trial_index":0,"time_elapsed":32861,"internal_node_id":"0.0-0.0"},{"sim_score":3,"rt":6431,"stimulus":"[\"img/866.jpg\",\"img/868.jpg\"]","trial_type":"similarity_demo","trial_index":1,"time_elapsed":40297,"internal_node_id":"0.0-1.0"},{"view_history":"[{\"page_index\":0,\"viewing_time\":20417}]","rt":20418,"trial_type":"instructions","trial_index":2,"time_elapsed":61716,"internal_node_id":"0.0-2.0"},{"sim_score":1,"rt":5387,"stimulus":"[\"img/766.jpg\",\"img/867.jpg\"]","trial_type":"similarity_demo","trial_index":3,"time_elapsed":68106,"internal_node_id":"0.0-3.0"},{"view_history":"[{\"page_index\":0,\"viewing_time\":7210}]","rt":7210,"trial_type":"instructions","trial_index":4,"time_elapsed":76318,"internal_node_id":"0.0-4.0"},{"view_history":"[{\"page_index\":0,\"viewing_time\":22917}]","rt":22917,"trial_type":"instructions","trial_index":5,"time_elapsed":100236,"internal_node_id":"0.0-5.0"},{"sim_score":3,"rt":6208,"stimulus":"[\"img/0868/77091fc7-a590-4ebb-b915-fdb2483a2399.jpg\",\"img/0901/33b51a81-06d9-46d9-9d4f-5a2d6d6b8058.jpg\"]","trial_type":"similarity","trial_index":6,"time_elapsed":107448,"internal_node_id":"0.0-6.0-0.0"},{"sim_score":3,"rt":4521,"stimulus":"[\"img/0769/47700831-0ca2-4fdd-a498-a3bc5a528f43.jpg\",\"img/0867/c71dc569-f49c-4397-8381-68b8d726736d.jpg\"]","trial_type":"similarity","trial_index":7,"time_elapsed":112972,"internal_node_id":"0.0-6.0-1.0"},{"sim_score":6,"rt":3879,"stimulus":"[\"img/0766/71b81ebd-0937-4d7f-b8bf-c4e46a4728fd.jpg\",\"img/0898/4184e5a2-84ea-4f36-9b42-ae58646f6f87.jpg\"]","trial_type":"similarity","trial_index":8,"time_elapsed":117854,"internal_node_id":"0.0-6.0-2.0"},{"sim_score":6,"rt":4555,"stimulus":"[\"img/0902/417d8b4a-3c72-4adc-ac78-820e833316f2.jpg\",\"img/0881/1407b85b-a1c6-45b1-9884-3b24203efadb.jpg\"]","trial_type":"similarity","trial_index":9,"time_elapsed":123411,"internal_node_id":"0.0-6.0-3.0"},{"sim_score":7,"rt":4780,"stimulus":"[\"img/0894/5f15154e-e72e-4ce5-aafb-bce6f0564006.jpg\",\"img/0894/8cadb87a-7001-4e47-99fb-1867bebf1668.jpg\"]","trial_type":"similarity","trial_index":10,"time_elapsed":129194,"internal_node_id":"0.0-6.0-4.0"},{"sim_score":3,"rt":4386,"stimulus":"[\"img/0874/31e22c7c-99aa-40b1-bf03-dd73fa2df4d6.jpg\",\"img/0899/0adc0bc3-6fca-4078-be6f-d45ddf1653d5.jpg\"]","trial_type":"similarity","trial_index":11,"time_elapsed":134583,"internal_node_id":"0.0-6.0-5.0"},{"sim_score":7,"rt":5567,"stimulus":"[\"img/0904/5cceabc9-de1d-4c67-989b-c28a4ef77e79.jpg\",\"img/0764/21e3292f-01ad-4238-828b-61b817857d16.jpg\"]","trial_type":"similarity","trial_index":12,"time_elapsed":141153,"internal_node_id":"0.0-6.0-6.0"},{"sim_score":6,"rt":3768,"stimulus":"[\"img/0899/8de08897-b430-42fe-9d42-840670b80f94.jpg\",\"img/0898/0c7dde4f-efce-4b7a-9387-6921635b7890.jpg\"]","trial_type":"similarity","trial_index":13,"time_elapsed":145923,"internal_node_id":"0.0-6.0-7.0"},{"sim_score":5,"rt":3734,"stimulus":"[\"img/0874/2c9464dd-8a23-4baa-ac94-1ba3af5c15cc.jpg\",\"img/0903/5248eedd-7e6a-4d39-91b0-06ec227f3ed0.jpg\"]","trial_type":"similarity","trial_index":14,"time_elapsed":150659,"internal_node_id":"0.0-6.0-8.0"},{"sim_score":7,"rt":3847,"stimulus":"[\"img/0881/e6746727-7f89-47ec-b939-d98abe78372d.jpg\",\"img/0758/2fa3e613-e676-4e6e-bd12-705327eeb3e1.jpg\"]","trial_type":"similarity","trial_index":15,"time_elapsed":155508,"internal_node_id":"0.0-6.0-9.0"},{"sim_score":6,"rt":3362,"stimulus":"[\"img/0898/6cd3830b-d44e-4915-be2b-88d31424b91c.jpg\",\"img/0901/58ec7fa9-b466-4651-90aa-c082df0972de.jpg\"]","trial_type":"similarity","trial_index":16,"time_elapsed":159873,"internal_node_id":"0.0-6.0-10.0"},{"sim_score":6,"rt":2372,"stimulus":"[\"img/0903/5ea5bbe0-f238-4724-abe7-9ed8dee8c0ba.jpg\",\"img/0769/0fe124d3-bcad-45f6-b64d-8f6eb8ee5251.jpg\"]","trial_type":"similarity","trial_index":17,"time_elapsed":163247,"internal_node_id":"0.0-6.0-11.0"},{"sim_score":1,"rt":2598,"stimulus":"[\"img/0764/1f95ab5f-fb65-4d70-b5db-d6bd6351a8aa.jpg\",\"img/0868/5fa7f9d0-f0e5-454c-8224-74d964818f56.jpg\"]","trial_type":"similarity","trial_index":18,"time_elapsed":166848,"internal_node_id":"0.0-6.0-12.0"},{"sim_score":3,"rt":2597,"stimulus":"[\"img/0867/bf560d4f-dee3-4f11-a385-705cc1aa5f3c.jpg\",\"img/0903/2a9c8033-3e70-47fa-816d-97ee1813a3a3.jpg\"]","trial_type":"similarity","trial_index":19,"time_elapsed":170448,"internal_node_id":"0.0-6.0-13.0"},{"sim_score":2,"rt":2822,"stimulus":"[\"img/0766/69e486f7-dbef-456b-9d48-53d814248a28.jpg\",\"img/0758/dd559618-7f09-4a07-8018-d311c4a5ea29.jpg\"]","trial_type":"similarity","trial_index":20,"time_elapsed":174273,"internal_node_id":"0.0-6.0-14.0"},{"sim_score":3,"rt":5624,"stimulus":"[\"img/0902/0db94c50-f1fb-4091-953c-29ca0466bee2.jpg\",\"img/0860/71e1aad0-2cdf-43bb-94a4-a8c016997c30.jpg\"]","trial_type":"similarity","trial_index":21,"time_elapsed":180899,"internal_node_id":"0.0-6.0-15.0"},{"sim_score":1,"rt":2530,"stimulus":"[\"img/0769/48a1144d-fbda-4809-991b-fc8424a32ee4.jpg\",\"img/0875/e7e66b13-b573-431e-b85e-288ce04a35a3.jpg\"]","trial_type":"similarity","trial_index":22,"time_elapsed":184431,"internal_node_id":"0.0-6.0-16.0"},{"sim_score":2,"rt":2496,"stimulus":"[\"img/0904/2f88ce53-02d0-4f95-a082-182c56a0eeb4.jpg\",\"img/0866/d266fece-59b3-46fa-b69f-96f6efb81b59.jpg\"]","trial_type":"similarity","trial_index":23,"time_elapsed":187930,"internal_node_id":"0.0-6.0-17.0"},{"sim_score":7,"rt":2789,"stimulus":"[\"img/0875/99698b4d-b4a1-44bc-8c83-8ea755bbbf61.jpg\",\"img/0875/527ced51-8e53-4aab-ab05-86df219104c0.jpg\"]","trial_type":"similarity","trial_index":24,"time_elapsed":191721,"internal_node_id":"0.0-6.0-18.0"},{"sim_score":7,"rt":1991,"stimulus":"[\"img/0758/7fba58df-2a7a-4b76-8a8f-62739f97f271.jpg\",\"img/0758/eabcd7a8-56ad-4fd2-bc24-90f6b7b33265.jpg\"]","trial_type":"similarity","trial_index":25,"time_elapsed":194714,"internal_node_id":"0.0-6.0-19.0"},{"sim_score":3,"rt":2192,"stimulus":"[\"img/0902/bd89a85f-3853-4786-acd6-98818ee29f1c.jpg\",\"img/0874/3f471690-9788-4d03-90c7-f615aecef149.jpg\"]","trial_type":"similarity","trial_index":26,"time_elapsed":197909,"internal_node_id":"0.0-6.0-20.0"},{"sim_score":5,"rt":3329,"stimulus":"[\"img/0764/e0788029-9d7f-414c-b747-46d2a99f7c86.jpg\",\"img/0769/14d393ce-e5be-4ca1-86ce-cc27d4b6074c.jpg\"]","trial_type":"similarity","trial_index":27,"time_elapsed":202240,"internal_node_id":"0.0-6.0-21.0"},{"sim_score":2,"rt":2306,"stimulus":"[\"img/0901/62315ff5-ed95-46b4-b099-92552079659b.jpg\",\"img/0874/c0378dac-9370-439a-8b79-db27c96fb390.jpg\"]","trial_type":"similarity","trial_index":28,"time_elapsed":205548,"internal_node_id":"0.0-6.0-22.0"},{"sim_score":1,"rt":2407,"stimulus":"[\"img/0875/ebf7653f-ff45-4e9f-af58-2c042ab3cd2b.jpg\",\"img/0903/0a92ec52-4e87-410a-857a-4455cde56a70.jpg\"]","trial_type":"similarity","trial_index":29,"time_elapsed":208957,"internal_node_id":"0.0-6.0-23.0"},{"sim_score":2,"rt":2912,"stimulus":"[\"img/0769/022c7e3b-c3f2-4119-b4bc-f22fa7cae18c.jpg\",\"img/0881/14236cf2-6b95-48b8-9368-78af09d2d27f.jpg\"]","trial_type":"similarity","trial_index":30,"time_elapsed":212872,"internal_node_id":"0.0-6.0-24.0"},{"sim_score":1,"rt":5218,"stimulus":"[\"img/0867/c66898ba-b71b-4d50-84f9-f7f84853a98d.jpg\",\"img/0904/0d25eb24-bb20-4e8d-9787-8b489558b4cb.jpg\"]","trial_type":"similarity","trial_index":31,"time_elapsed":219093,"internal_node_id":"0.0-6.0-25.0"},{"sim_score":5,"rt":3205,"stimulus":"[\"img/0860/c3379ff7-0763-48fe-a1ec-7ea3d611bc7a.jpg\",\"img/0881/f4e3e181-b3c9-4af2-a5a4-fc135ab70d2e.jpg\"]","trial_type":"similarity","trial_index":32,"time_elapsed":223300,"internal_node_id":"0.0-6.0-26.0"},{"sim_score":6,"rt":2406,"stimulus":"[\"img/0866/d493a2c8-66eb-44b4-be02-2f327b700b7c.jpg\",\"img/0866/02f5e6b9-52b7-448c-9708-5b460d0c9a23.jpg\"]","trial_type":"similarity","trial_index":33,"time_elapsed":226709,"internal_node_id":"0.0-6.0-27.0"},{"sim_score":2,"rt":4151,"stimulus":"[\"img/0764/7f4ee8e3-9315-4a57-be7d-db8454b33766.jpg\",\"img/0862/1c20f772-3a51-4a80-aac0-f57dc9f86c28.jpg\"]","trial_type":"similarity","trial_index":34,"time_elapsed":231861,"internal_node_id":"0.0-6.0-28.0"},{"sim_score":2,"rt":4274,"stimulus":"[\"img/0904/5aec2708-cf14-4a58-aa30-9a8a61c1be0e.jpg\",\"img/0758/ddc336e9-a8b6-4bb9-937a-c7e25e0e9250.jpg\"]","trial_type":"similarity","trial_index":35,"time_elapsed":237138,"internal_node_id":"0.0-6.0-29.0"},{"sim_score":6,"rt":2518,"stimulus":"[\"img/0894/4739e06d-c31e-4bf1-bf91-c97fa9afb456.jpg\",\"img/0899/4408c14d-c168-4a7d-96f6-bc87bfb58f83.jpg\"]","trial_type":"similarity","trial_index":36,"time_elapsed":240659,"internal_node_id":"0.0-6.0-30.0"},{"sim_score":3,"rt":2901,"stimulus":"[\"img/0860/4a022222-056d-461c-ab02-39fac9647552.jpg\",\"img/0904/56e73f28-7e64-489b-a161-e6b1a063878d.jpg\"]","trial_type":"similarity","trial_index":37,"time_elapsed":244563,"internal_node_id":"0.0-6.0-31.0"},{"sim_score":7,"rt":2901,"stimulus":"[\"img/0874/1016b306-087c-4afc-aa08-fa527b28dc76.jpg\",\"img/0881/f8bd891e-aa09-4782-89db-33e7cb2b0cf1.jpg\"]","trial_type":"similarity","trial_index":38,"time_elapsed":248467,"internal_node_id":"0.0-6.0-32.0"},{"sim_score":2,"rt":2721,"stimulus":"[\"img/0881/c843e210-bdfe-4a7c-8bbe-fcea1f90fe1c.jpg\",\"img/0899/f95cbdb4-f804-4f5d-ad76-373ad343e658.jpg\"]","trial_type":"similarity","trial_index":39,"time_elapsed":252190,"internal_node_id":"0.0-6.0-33.0"},{"sim_score":4,"rt":2991,"stimulus":"[\"img/0866/93a27239-8317-4e08-98ca-d8b1ff298e07.jpg\",\"img/0862/f23038d4-c366-4f70-979f-66b62362efa4.jpg\"]","trial_type":"similarity","trial_index":40,"time_elapsed":256184,"internal_node_id":"0.0-6.0-34.0"},{"sim_score":1,"rt":3239,"stimulus":"[\"img/0868/c8ac40c7-6904-4e13-8d61-c75d3052dc4e.jpg\",\"img/0894/2d2db7b3-e8a3-499b-b63a-14f51bf73882.jpg\"]","trial_type":"similarity","trial_index":41,"time_elapsed":260425,"internal_node_id":"0.0-6.0-35.0"},{"sim_score":7,"rt":2215,"stimulus":"[\"img/0860/94ef7afc-e0e6-4a15-98c6-0bfac82bc832.jpg\",\"img/0860/fd4662f9-4c03-4d79-8593-06735e55a64b.jpg\"]","trial_type":"similarity","trial_index":42,"time_elapsed":263643,"internal_node_id":"0.0-6.0-36.0"},{"sim_score":5,"rt":3588,"stimulus":"[\"img/0862/fb26cb07-d5a9-4653-813c-f41609f26cd5.jpg\",\"img/0864/0116ca98-293d-4fa6-a93b-5a6144ef64cc.jpg\"]","trial_type":"similarity","trial_index":43,"time_elapsed":268233,"internal_node_id":"0.0-6.0-37.0"},{"sim_score":2,"rt":2879,"stimulus":"[\"img/0766/fd064894-7147-4af5-97e9-2089d5472656.jpg\",\"img/0866/a04d37f0-99dd-478a-b6c6-58b215138f84.jpg\"]","trial_type":"similarity","trial_index":44,"time_elapsed":272114,"internal_node_id":"0.0-6.0-38.0"},{"sim_score":1,"rt":3273,"stimulus":"[\"img/0875/fb732ab5-013a-4366-9f65-27811ed157e9.jpg\",\"img/0898/881e2a85-d5c2-49be-a0c6-8a6ce2c4af08.jpg\"]","trial_type":"similarity","trial_index":45,"time_elapsed":276389,"internal_node_id":"0.0-6.0-39.0"},{"sim_score":5,"rt":2451,"stimulus":"[\"img/0766/0b48f9e0-7d37-4161-8adb-4e3f5b6b7583.jpg\",\"img/0769/6c0bac4c-5f59-43c7-898c-3ca93cf55cfe.jpg\"]","trial_type":"similarity","trial_index":46,"time_elapsed":279843,"internal_node_id":"0.0-6.0-40.0"},{"sim_score":3,"rt":5331,"stimulus":"[\"img/0874/ca23d307-fc00-4d7d-9106-584c6eb21b4d.jpg\",\"img/0764/e48e6c6f-9e28-420f-836a-8043b2319bb4.jpg\"]","trial_type":"similarity","trial_index":47,"time_elapsed":295964,"internal_node_id":"0.0-6.0-41.0"},{"sim_score":1,"rt":3679,"stimulus":"[\"img/0868/83b4350a-3b70-4cea-b7f5-b5b56f3050a8.jpg\",\"img/0902/aa6fca32-82b0-4414-b20a-8f6f8aa5a2d2.jpg\"]","trial_type":"similarity","trial_index":48,"time_elapsed":300644,"internal_node_id":"0.0-6.0-42.0"},{"sim_score":1,"rt":2428,"stimulus":"[\"img/0875/cff79b3a-a797-4393-9757-6275f999ec04.jpg\",\"img/0899/a05bea16-2bb4-4cb9-b8fb-4ff975db6971.jpg\"]","trial_type":"similarity","trial_index":49,"time_elapsed":304075,"internal_node_id":"0.0-6.0-43.0"},{"sim_score":5,"rt":3013,"stimulus":"[\"img/0866/f756f7d1-9ad8-4a34-9ef6-7a443d705bfe.jpg\",\"img/0860/9593362c-9fe5-4d12-9735-6000a11f6aa5.jpg\"]","trial_type":"similarity","trial_index":50,"time_elapsed":308092,"internal_node_id":"0.0-6.0-44.0"},{"sim_score":6,"rt":2293,"stimulus":"[\"img/0766/908bc45b-7c9e-4f95-806e-86b196ebcb2c.jpg\",\"img/0903/31b5a5f4-b695-4af1-bad2-a19650a05498.jpg\"]","trial_type":"similarity","trial_index":51,"time_elapsed":311388,"internal_node_id":"0.0-6.0-45.0"},{"sim_score":5,"rt":3936,"stimulus":"[\"img/0901/4d1bed7e-3c4e-4f6c-ada9-4beb66ba9e39.jpg\",\"img/0904/ba8e689e-9ca6-4608-a2a1-3b0940666ae6.jpg\"]","trial_type":"similarity","trial_index":52,"time_elapsed":316327,"internal_node_id":"0.0-6.0-46.0"},{"sim_score":5,"rt":4556,"stimulus":"[\"img/0758/caa93da2-9edf-49fa-96b9-32dedd8f5078.jpg\",\"img/0902/eb3e7e71-8ff1-4b88-a6a7-47e2c1ce1683.jpg\"]","trial_type":"similarity","trial_index":53,"time_elapsed":321884,"internal_node_id":"0.0-6.0-47.0"},{"sim_score":7,"rt":2000,"stimulus":"[\"img/0764/974d52cc-6318-4e7a-b294-2f3e92ff800f.jpg\",\"img/0764/a86eed5b-d0af-4c3f-8c7a-26e98e98cf1a.jpg\"]","trial_type":"similarity","trial_index":54,"time_elapsed":324888,"internal_node_id":"0.0-6.0-48.0"},{"sim_score":2,"rt":2778,"stimulus":"[\"img/0866/8efcaa46-83ab-4dee-a35f-850402aa21ae.jpg\",\"img/0902/511abb54-0094-4f4d-b6dc-3f2c97050521.jpg\"]","trial_type":"similarity","trial_index":55,"time_elapsed":328668,"internal_node_id":"0.0-6.0-49.0"},{"sim_score":1,"rt":2835,"stimulus":"[\"img/0764/fb7d4a20-a475-465e-a74f-aa39a0d33d16.jpg\",\"img/0758/a709631e-3705-4725-ac40-f0d916924f08.jpg\"]","trial_type":"similarity","trial_index":56,"time_elapsed":332504,"internal_node_id":"0.0-6.0-50.0"},{"sim_score":6,"rt":2823,"stimulus":"[\"img/0898/04e39a7a-fcf6-4156-ab0e-f5871f335e1c.jpg\",\"img/0894/5ff3c4f6-52e2-4075-8679-be0312e59703.jpg\"]","trial_type":"similarity","trial_index":57,"time_elapsed":336329,"internal_node_id":"0.0-6.0-51.0"},{"sim_score":5,"rt":2530,"stimulus":"[\"img/0875/2c361b79-c3d1-4eda-812e-bf03192407bf.jpg\",\"img/0866/386235d2-6857-41e7-88a8-25cfc3430025.jpg\"]","trial_type":"similarity","trial_index":58,"time_elapsed":339862,"internal_node_id":"0.0-6.0-52.0"},{"sim_score":7,"rt":4004,"stimulus":"[\"img/0904/6291eb43-c10c-4810-a36a-101d09868b04.jpg\",\"img/0904/0d17b811-063e-416e-a23c-3b3cfa4fcce5.jpg\"]","trial_type":"similarity","trial_index":59,"time_elapsed":344868,"internal_node_id":"0.0-6.0-53.0"},{"sim_score":6,"rt":3161,"stimulus":"[\"img/0769/96556ef3-7fac-4c9d-8281-1cb0ea5081bc.jpg\",\"img/0769/1d8734c4-77ab-4165-9e71-5cfe672ff01c.jpg\"]","trial_type":"similarity","trial_index":60,"time_elapsed":349031,"internal_node_id":"0.0-6.0-54.0"},{"sim_score":1,"rt":3599,"stimulus":"[\"img/0898/e167334e-cc1d-4986-b3b1-c7bc7da64baa.jpg\",\"img/0758/65d426d6-3ff6-415d-8654-a43b83ecc4fe.jpg\"]","trial_type":"similarity","trial_index":61,"time_elapsed":353632,"internal_node_id":"0.0-6.0-55.0"},{"sim_score":5,"rt":2575,"stimulus":"[\"img/0769/bb8c4e53-6f32-4814-97ee-392d4decfb2e.jpg\",\"img/0902/40d0b6ec-3907-4573-b227-e7d8e9cad1c3.jpg\"]","trial_type":"similarity","trial_index":62,"time_elapsed":357210,"internal_node_id":"0.0-6.0-56.0"},{"sim_score":6,"rt":3723,"stimulus":"[\"img/0864/1ebbc554-99fa-49f9-8799-317375a79820.jpg\",\"img/0881/b549bc99-a61c-4450-bab5-9efc3a197bf0.jpg\"]","trial_type":"similarity","trial_index":63,"time_elapsed":361934,"internal_node_id":"0.0-6.0-57.0"},{"sim_score":5,"rt":2103,"stimulus":"[\"img/0758/67c0be2f-9e91-48b3-8219-70ac0a1802fa.jpg\",\"img/0868/e0aff734-077f-40dd-9781-74821abd3621.jpg\"]","trial_type":"similarity","trial_index":64,"time_elapsed":365040,"internal_node_id":"0.0-6.0-58.0"},{"sim_score":3,"rt":3250,"stimulus":"[\"img/0862/e0f1a4e9-e1b6-45f7-af67-89f334e6630d.jpg\",\"img/0769/b664b502-a86c-46c1-ad6f-5ebffc2e1bd3.jpg\"]","trial_type":"similarity","trial_index":65,"time_elapsed":369292,"internal_node_id":"0.0-6.0-59.0"},{"sim_score":5,"rt":3104,"stimulus":"[\"img/0764/da207710-e7e4-4f42-b2e6-99b5f357f433.jpg\",\"img/0903/680ed18e-b311-4ecf-9b00-7dea32128334.jpg\"]","trial_type":"similarity","trial_index":66,"time_elapsed":373398,"internal_node_id":"0.0-6.0-60.0"},{"sim_score":6,"rt":3756,"stimulus":"[\"img/0899/fd9efb43-701f-4cd6-baaa-4c38315f4bdc.jpg\",\"img/0899/56a605c3-d0a2-4215-89e1-779279d85a7c.jpg\"]","trial_type":"similarity","trial_index":67,"time_elapsed":378157,"internal_node_id":"0.0-6.0-61.0"},{"sim_score":5,"rt":2564,"stimulus":"[\"img/0860/f44ba3fb-03a2-42f0-8509-2c1ded493086.jpg\",\"img/0875/a4935837-7d3c-4df6-88c1-36a94d4991ca.jpg\"]","trial_type":"similarity","trial_index":68,"time_elapsed":381723,"internal_node_id":"0.0-6.0-62.0"},{"sim_score":5,"rt":3711,"stimulus":"[\"img/0868/15dd6fd7-791e-4b53-b203-195d617521a4.jpg\",\"img/0874/bf14b896-e930-4fd9-9c05-2e83317a2773.jpg\"]","trial_type":"similarity","trial_index":69,"time_elapsed":386437,"internal_node_id":"0.0-6.0-63.0"},{"sim_score":5,"rt":2317,"stimulus":"[\"img/0758/9fb5b2fe-3f00-4fe6-973c-1ce10d5f4cd5.jpg\",\"img/0862/00c06b00-3b73-44e9-bc1e-c5aafb438321.jpg\"]","trial_type":"similarity","trial_index":70,"time_elapsed":389756,"internal_node_id":"0.0-6.0-64.0"},{"sim_score":6,"rt":2766,"stimulus":"[\"img/0904/2fd488e9-960f-41f7-8a44-33375f7d5051.jpg\",\"img/0898/661621d4-a14e-487c-8c74-354134a29710.jpg\"]","trial_type":"similarity","trial_index":71,"time_elapsed":393525,"internal_node_id":"0.0-6.0-65.0"},{"sim_score":6,"rt":2001,"stimulus":"[\"img/0881/84397291-bc14-4fbf-90e8-241e486ab0fe.jpg\",\"img/0866/0207e9a2-7dbb-40b5-9459-b472aaeceb2a.jpg\"]","trial_type":"similarity","trial_index":72,"time_elapsed":396528,"internal_node_id":"0.0-6.0-66.0"},{"sim_score":1,"rt":2328,"stimulus":"[\"img/0867/179ab87a-8eac-4c52-a41f-2e48e3120f09.jpg\",\"img/0898/224c1572-56b9-4f16-a9e4-6f3bc9c114bd.jpg\"]","trial_type":"similarity","trial_index":73,"time_elapsed":399858,"internal_node_id":"0.0-6.0-67.0"},{"sim_score":7,"rt":2811,"stimulus":"[\"img/0902/a6fb6dd5-696c-47ec-be7d-d7b88f1544f1.jpg\",\"img/0764/c643e165-df19-459f-8c2b-8357bf432a17.jpg\"]","trial_type":"similarity","trial_index":74,"time_elapsed":403672,"internal_node_id":"0.0-6.0-68.0"},{"sim_score":6,"rt":1799,"stimulus":"[\"img/0875/8521fd58-3b1e-4dc5-97ae-804edfa6734a.jpg\",\"img/0867/6e19c858-b606-45b2-a4c6-910a73f1d82c.jpg\"]","trial_type":"similarity","trial_index":75,"time_elapsed":406474,"internal_node_id":"0.0-6.0-69.0"},{"sim_score":5,"rt":3374,"stimulus":"[\"img/0766/33519c22-aaa4-49d7-8d49-ab551db1945e.jpg\",\"img/0764/06ea144f-f4f3-4a14-ba47-f20f35c561e0.jpg\"]","trial_type":"similarity","trial_index":76,"time_elapsed":410850,"internal_node_id":"0.0-6.0-70.0"},{"sim_score":3,"rt":2968,"stimulus":"[\"img/0894/151063aa-6472-4745-837b-36603aba5966.jpg\",\"img/0867/075e0f95-856b-4cbb-acf5-092393aaf04e.jpg\"]","trial_type":"similarity","trial_index":77,"time_elapsed":414821,"internal_node_id":"0.0-6.0-71.0"},{"sim_score":1,"rt":2428,"stimulus":"[\"img/0875/5a7c4e35-6514-4e12-8879-d16071da4cd6.jpg\",\"img/0764/83c93cce-18d1-4aa7-9e23-2c268afe0a46.jpg\"]","trial_type":"similarity","trial_index":78,"time_elapsed":418252,"internal_node_id":"0.0-6.0-72.0"},{"sim_score":6,"rt":2710,"stimulus":"[\"img/0867/f26f6b60-f772-4f4c-95a4-addc62cfd692.jpg\",\"img/0866/6f2a90d7-14f1-4f1b-bd64-fc0af6b9fe44.jpg\"]","trial_type":"similarity","trial_index":79,"time_elapsed":421965,"internal_node_id":"0.0-6.0-73.0"},{"sim_score":1,"rt":2653,"stimulus":"[\"img/0903/ea75f240-fb62-4edb-a709-83e858b202c0.jpg\",\"img/0758/53f35650-e455-4b53-8be4-c3c8271c6466.jpg\"]","trial_type":"similarity","trial_index":80,"time_elapsed":425621,"internal_node_id":"0.0-6.0-74.0"},{"sim_score":1,"rt":2192,"stimulus":"[\"img/0766/5d6e0d1d-4369-41f0-a64c-91f3503055c7.jpg\",\"img/0868/6a28c3b0-3d76-498a-9fb7-ddafc665eca8.jpg\"]","trial_type":"similarity","trial_index":81,"time_elapsed":428816,"internal_node_id":"0.0-6.0-75.0"},{"sim_score":2,"rt":2428,"stimulus":"[\"img/0874/ca76a855-4e77-4f2f-872a-0a718153e7ed.jpg\",\"img/0766/51d3aab4-3d09-4dda-b99d-3dc7aaabc6f2.jpg\"]","trial_type":"similarity","trial_index":82,"time_elapsed":432247,"internal_node_id":"0.0-6.0-76.0"},{"sim_score":5,"rt":3633,"stimulus":"[\"img/0881/e046471a-35b4-4159-bbf7-3cfd201bef66.jpg\",\"img/0868/1a62b2b2-18f5-466e-b564-5176a57c565e.jpg\"]","trial_type":"similarity","trial_index":83,"time_elapsed":436882,"internal_node_id":"0.0-6.0-77.0"},{"sim_score":2,"rt":4566,"stimulus":"[\"img/0758/6cd8c362-ae2a-41eb-80a3-3a4f7ace1530.jpg\",\"img/0901/4ca4f962-40c0-4c59-b14a-3cd7b8c9029b.jpg\"]","trial_type":"similarity","trial_index":84,"time_elapsed":442451,"internal_node_id":"0.0-6.0-78.0"},{"sim_score":2,"rt":3182,"stimulus":"[\"img/0881/d373cb9f-a719-4549-a2a4-82def79fb2a5.jpg\",\"img/0898/81b08535-2020-4c15-9ce4-2f1e460755ae.jpg\"]","trial_type":"similarity","trial_index":85,"time_elapsed":446636,"internal_node_id":"0.0-6.0-79.0"},{"sim_score":5,"rt":2272,"stimulus":"[\"img/0867/8ba0c5a7-c7e4-42cf-a80a-543763b90779.jpg\",\"img/0758/821c68d3-5cb0-4eae-8659-30e6263fca39.jpg\"]","trial_type":"similarity","trial_index":86,"time_elapsed":449910,"internal_node_id":"0.0-6.0-80.0"},{"sim_score":7,"rt":3509,"stimulus":"[\"img/0769/76eaa4a3-dfe9-4dc1-9efb-caebe86264e1.jpg\",\"img/0899/76ad07e2-ca25-45eb-84f2-8d80b8ca3e26.jpg\"]","trial_type":"similarity","trial_index":87,"time_elapsed":454421,"internal_node_id":"0.0-6.0-81.0"},{"sim_score":7,"rt":2406,"stimulus":"[\"img/0903/3e9ee8a5-eb66-47f5-8973-8a5af1ddc87e.jpg\",\"img/0903/e2e55a9e-0397-4dc0-8adf-4a54cfefe1fe.jpg\"]","trial_type":"similarity","trial_index":88,"time_elapsed":457830,"internal_node_id":"0.0-6.0-82.0"},{"sim_score":2,"rt":2372,"stimulus":"[\"img/0867/1719a35d-f085-48c0-9099-16c94fe418b4.jpg\",\"img/0766/ba35c0fc-4d5b-490d-959e-c94b279cdd02.jpg\"]","trial_type":"similarity","trial_index":89,"time_elapsed":464411,"internal_node_id":"0.0-6.0-83.0"},{"sim_score":2,"rt":2081,"stimulus":"[\"img/0902/44cd9b7e-fdfb-4f78-90de-8d4c9d279365.jpg\",\"img/0867/50a1b60e-3a29-44bf-b606-d4bd3746fea9.jpg\"]","trial_type":"similarity","trial_index":90,"time_elapsed":467494,"internal_node_id":"0.0-6.0-84.0"},{"sim_score":1,"rt":3397,"stimulus":"[\"img/0901/168eb52c-c415-43f1-b5c8-e76e1a1ec247.jpg\",\"img/0875/f87b67d7-c33e-40d1-b281-248c4be1cb6e.jpg\"]","trial_type":"similarity","trial_index":91,"time_elapsed":471892,"internal_node_id":"0.0-6.0-85.0"},{"sim_score":1,"rt":2497,"stimulus":"[\"img/0764/978aede9-4590-4ad0-b234-135c83e5d669.jpg\",\"img/0866/11a1d141-be5e-443c-98c1-a9d4d9e3dec0.jpg\"]","trial_type":"similarity","trial_index":92,"time_elapsed":475391,"internal_node_id":"0.0-6.0-86.0"},{"sim_score":5,"rt":3453,"stimulus":"[\"img/0901/b453df0b-4c39-49bb-8ced-6127efffa898.jpg\",\"img/0894/76c1201f-8524-4865-85e6-dda8cb4ac986.jpg\"]","trial_type":"similarity","trial_index":93,"time_elapsed":479846,"internal_node_id":"0.0-6.0-87.0"},{"sim_score":6,"rt":2305,"stimulus":"[\"img/0898/26c41340-15bd-4ead-8fe4-c0d0ddca09c2.jpg\",\"img/0769/4a1d0b52-3fe8-40fb-bb1c-c814fe49a68c.jpg\"]","trial_type":"similarity","trial_index":94,"time_elapsed":483154,"internal_node_id":"0.0-6.0-88.0"},{"sim_score":5,"rt":2530,"stimulus":"[\"img/0769/878531fd-e0e8-4ad1-b9ad-f018bb104ca0.jpg\",\"img/0894/7fb082e0-ce79-485c-9109-04367fb32275.jpg\"]","trial_type":"similarity","trial_index":95,"time_elapsed":486686,"internal_node_id":"0.0-6.0-89.0"},{"sim_score":5,"rt":2193,"stimulus":"[\"img/0862/847e5208-38ec-4f36-949c-296cdd7424ee.jpg\",\"img/0874/3ce41e7c-40c8-4d58-a546-171114521796.jpg\"]","trial_type":"similarity","trial_index":96,"time_elapsed":489881,"internal_node_id":"0.0-6.0-90.0"},{"sim_score":6,"rt":2362,"stimulus":"[\"img/0894/a3d4170b-b7d8-40e3-955f-87e76ed745fc.jpg\",\"img/0766/0bf3793e-c353-45e5-ac6f-753f5f484e10.jpg\"]","trial_type":"similarity","trial_index":97,"time_elapsed":493245,"internal_node_id":"0.0-6.0-91.0"},{"sim_score":5,"rt":2237,"stimulus":"[\"img/0874/eba003b4-cdab-4eee-8bc3-f064c7d94165.jpg\",\"img/0867/7d1c497b-c1b3-4ed8-abb5-d7f73306015f.jpg\"]","trial_type":"similarity","trial_index":98,"time_elapsed":496485,"internal_node_id":"0.0-6.0-92.0"},{"sim_score":2,"rt":2642,"stimulus":"[\"img/0899/b45c550b-96c3-4255-ad59-48a2b4db1c1e.jpg\",\"img/0868/7b212364-ff5f-4e28-9241-7eb6ea00161b.jpg\"]","trial_type":"similarity","trial_index":99,"time_elapsed":500130,"internal_node_id":"0.0-6.0-93.0"},{"sim_score":3,"rt":2170,"stimulus":"[\"img/0903/647ce311-8c71-479a-8361-961db1457139.jpg\",\"img/0862/7918ca67-5bd3-4606-a5ea-c39fb11a9297.jpg\"]","trial_type":"similarity","trial_index":100,"time_elapsed":503303,"internal_node_id":"0.0-6.0-94.0"},{"sim_score":5,"rt":2193,"stimulus":"[\"img/0899/66ab3178-c3fe-4455-ad17-d5952b08e018.jpg\",\"img/0766/a1ed3f0f-e338-4a26-8fe4-4370f0c9fa6e.jpg\"]","trial_type":"similarity","trial_index":101,"time_elapsed":506498,"internal_node_id":"0.0-6.0-95.0"},{"sim_score":7,"rt":2248,"stimulus":"[\"img/0867/26611f4e-d694-4460-b7e2-43c62753ddc3.jpg\",\"img/0868/3a62db2d-97e9-44a3-b8e3-a48c6f0e423b.jpg\"]","trial_type":"similarity","trial_index":102,"time_elapsed":509749,"internal_node_id":"0.0-6.0-96.0"},{"sim_score":5,"rt":2080,"stimulus":"[\"img/0862/5d887e9f-89e2-4ebc-80a0-6d46fe6480db.jpg\",\"img/0901/12da1841-e611-435c-9719-109413d536a8.jpg\"]","trial_type":"similarity","trial_index":103,"time_elapsed":512831,"internal_node_id":"0.0-6.0-97.0"},{"sim_score":2,"rt":2844,"stimulus":"[\"img/0875/5a716432-c6ca-4b1c-955a-2b8ac25198ee.jpg\",\"img/0766/79767d11-b612-4e8a-9e4b-a8ac95bb6a54.jpg\"]","trial_type":"similarity","trial_index":104,"time_elapsed":516679,"internal_node_id":"0.0-6.0-98.0"},{"sim_score":6,"rt":2237,"stimulus":"[\"img/0758/7ee8bc8f-c40b-4b3a-84ec-3e83580622d4.jpg\",\"img/0874/29830da7-be5f-44e5-b141-652a0ccf7269.jpg\"]","trial_type":"similarity","trial_index":105,"time_elapsed":519919,"internal_node_id":"0.0-6.0-99.0"},{"sim_score":2,"rt":2418,"stimulus":"[\"img/0904/696ebb60-8891-417a-91fd-c53218907a95.jpg\",\"img/0868/fd307a36-9a3a-47d7-ab7c-f810d0b35040.jpg\"]","trial_type":"similarity","trial_index":106,"time_elapsed":523339,"internal_node_id":"0.0-6.0-100.0"},{"sim_score":2,"rt":2845,"stimulus":"[\"img/0903/59defeb8-98bd-4570-a2f8-9bd189e68ef4.jpg\",\"img/0866/945c6710-d15b-4a5b-a8f6-69af0850357f.jpg\"]","trial_type":"similarity","trial_index":107,"time_elapsed":527187,"internal_node_id":"0.0-6.0-101.0"},{"sim_score":3,"rt":2754,"stimulus":"[\"img/0868/293079b8-7e0c-4afd-a390-1e5d35fe3ded.jpg\",\"img/0769/5bd04f55-d091-4f57-85db-38426f26bd1a.jpg\"]","trial_type":"similarity","trial_index":108,"time_elapsed":530944,"internal_node_id":"0.0-6.0-102.0"},{"sim_score":5,"rt":3509,"stimulus":"[\"img/0902/962f645e-9b55-4628-9b50-c703422bfe1a.jpg\",\"img/0899/4f7bc593-8ddd-4da3-a0b9-84da730d3370.jpg\"]","trial_type":"similarity","trial_index":109,"time_elapsed":535455,"internal_node_id":"0.0-6.0-103.0"},{"sim_score":5,"rt":3576,"stimulus":"[\"img/0868/0d3abd3a-b6c3-4584-a9f7-e2da63748b3d.jpg\",\"img/0862/57b6f83f-c763-4858-830d-102f97bfefbf.jpg\"]","trial_type":"similarity","trial_index":110,"time_elapsed":540034,"internal_node_id":"0.0-6.0-104.0"},{"sim_score":5,"rt":2474,"stimulus":"[\"img/0903/8931c67c-a43d-47d3-a4c9-42aa2f81d344.jpg\",\"img/0894/10f22b96-040c-44f4-950b-a4963f3f506c.jpg\"]","trial_type":"similarity","trial_index":111,"time_elapsed":543510,"internal_node_id":"0.0-6.0-105.0"},{"sim_score":6,"rt":2935,"stimulus":"[\"img/0864/49150900-7f25-4ce8-8d10-9b47a71d1997.jpg\",\"img/0874/a3bc679d-619f-4db6-bb68-116dcb757d9c.jpg\"]","trial_type":"similarity","trial_index":112,"time_elapsed":547448,"internal_node_id":"0.0-6.0-106.0"},{"sim_score":3,"rt":4691,"stimulus":"[\"img/0862/ee3b7bff-4a70-4e84-9bea-4a565e456acb.jpg\",\"img/0902/95a36b6b-9601-4fa5-8fd9-606ea62f9425.jpg\"]","trial_type":"similarity","trial_index":113,"time_elapsed":553140,"internal_node_id":"0.0-6.0-107.0"},{"sim_score":7,"rt":2138,"stimulus":"[\"img/0904/25365108-e038-4021-aac9-797f2063b337.jpg\",\"img/0903/24477210-856c-4550-9de0-9f85a32762eb.jpg\"]","trial_type":"similarity","trial_index":114,"time_elapsed":556279,"internal_node_id":"0.0-6.0-108.0"},{"sim_score":2,"rt":2811,"stimulus":"[\"img/0764/0e7ed062-f798-4366-8a24-6f430926f919.jpg\",\"img/0864/afcba0a3-7e27-4757-b254-e9f05fad27e2.jpg\"]","trial_type":"similarity","trial_index":115,"time_elapsed":560093,"internal_node_id":"0.0-6.0-109.0"},{"sim_score":2,"rt":2361,"stimulus":"[\"img/0866/c446214b-a368-4c65-ae39-ea46894256ab.jpg\",\"img/0894/05161000-f476-499b-a878-c13c7f347fd9.jpg\"]","trial_type":"similarity","trial_index":116,"time_elapsed":563457,"internal_node_id":"0.0-6.0-110.0"},{"sim_score":5,"rt":2721,"stimulus":"[\"img/0899/93494f3b-d539-4075-b027-d82e344563da.jpg\",\"img/0903/776b74ee-a8ab-4ab8-a78d-097c0747538d.jpg\"]","trial_type":"similarity","trial_index":117,"time_elapsed":567181,"internal_node_id":"0.0-6.0-111.0"},{"sim_score":7,"rt":2484,"stimulus":"[\"img/0902/51493fab-2a10-4385-aa88-bee3db441626.jpg\",\"img/0904/1d10df11-b5c8-4370-9a6b-097a7f965895.jpg\"]","trial_type":"similarity","trial_index":118,"time_elapsed":570668,"internal_node_id":"0.0-6.0-112.0"},{"sim_score":5,"rt":2351,"stimulus":"[\"img/0864/65210d57-1153-4657-886a-32e758f49b4a.jpg\",\"img/0860/4f695df5-afac-4da7-9875-fee39b0b24ad.jpg\"]","trial_type":"similarity","trial_index":119,"time_elapsed":574021,"internal_node_id":"0.0-6.0-113.0"},{"sim_score":2,"rt":2428,"stimulus":"[\"img/0860/524b2e98-5767-4d53-942c-ebae6925659b.jpg\",\"img/0899/ad8268c5-8199-48d0-ad70-c5b6d6c599ec.jpg\"]","trial_type":"similarity","trial_index":120,"time_elapsed":577452,"internal_node_id":"0.0-6.0-114.0"},{"sim_score":2,"rt":3047,"stimulus":"[\"img/0881/4bd34581-94d8-4e88-8c89-5cef864ca3be.jpg\",\"img/0903/72197c2b-403e-4a26-b391-f1aa8dea4b76.jpg\"]","trial_type":"similarity","trial_index":121,"time_elapsed":581502,"internal_node_id":"0.0-6.0-115.0"},{"sim_score":2,"rt":2642,"stimulus":"[\"img/0894/9b1333fd-3561-43bf-aee5-99b7b7ca3dc3.jpg\",\"img/0874/85eb9b8a-c4c6-4e5a-b8e7-363a87a82054.jpg\"]","trial_type":"similarity","trial_index":122,"time_elapsed":585147,"internal_node_id":"0.0-6.0-116.0"},{"sim_score":5,"rt":1843,"stimulus":"[\"img/0881/f62bdcd1-a4b7-4d48-83da-d9c9e01c8727.jpg\",\"img/0862/47ed5efd-4ec9-4b74-bb4e-a5f5cf0c3e7d.jpg\"]","trial_type":"similarity","trial_index":123,"time_elapsed":587993,"internal_node_id":"0.0-6.0-117.0"},{"sim_score":6,"rt":2406,"stimulus":"[\"img/0868/8b0b8473-e2c0-4331-aa56-c3a5c29369da.jpg\",\"img/0875/42910c99-5463-450a-a0f8-d4d060a11455.jpg\"]","trial_type":"similarity","trial_index":124,"time_elapsed":591402,"internal_node_id":"0.0-6.0-118.0"},{"sim_score":5,"rt":2496,"stimulus":"[\"img/0860/c7047cd2-7cc1-41b6-8a34-c0986774975f.jpg\",\"img/0758/d57c2592-a317-4f63-91be-91a3a9afd222.jpg\"]","trial_type":"similarity","trial_index":125,"time_elapsed":594901,"internal_node_id":"0.0-6.0-119.0"},{"sim_score":5,"rt":2496,"stimulus":"[\"img/0864/300bb811-8b3c-4c42-8653-6097c3725197.jpg\",\"img/0875/2e13d160-eea1-416b-aff1-d37ab99ecc1d.jpg\"]","trial_type":"similarity","trial_index":126,"time_elapsed":598399,"internal_node_id":"0.0-6.0-120.0"},{"sim_score":3,"rt":2845,"stimulus":"[\"img/0898/8605a25b-6895-476d-8c13-df7a83f96093.jpg\",\"img/0866/a15b02be-11bb-43e3-b0e0-ecc3bd7dfc49.jpg\"]","trial_type":"similarity","trial_index":127,"time_elapsed":602247,"internal_node_id":"0.0-6.0-121.0"},{"sim_score":3,"rt":3002,"stimulus":"[\"img/0874/adf9a8f1-c40b-402b-b95b-1e85a54a7b62.jpg\",\"img/0904/60d1a521-edf7-4696-9263-f21ac0e62a01.jpg\"]","trial_type":"similarity","trial_index":128,"time_elapsed":606252,"internal_node_id":"0.0-6.0-122.0"},{"sim_score":3,"rt":2901,"stimulus":"[\"img/0904/4e58005d-a2ec-4aaa-b199-445343561396.jpg\",\"img/0864/efcfbb1b-8197-44c9-b723-40d6c608dd3c.jpg\"]","trial_type":"similarity","trial_index":129,"time_elapsed":610156,"internal_node_id":"0.0-6.0-123.0"},{"sim_score":5,"rt":3250,"stimulus":"[\"img/0894/5c7677b0-a4f1-479e-b274-7822c415175a.jpg\",\"img/0902/9f543501-3cf1-45a7-a2f1-eeca87cc15b9.jpg\"]","trial_type":"similarity","trial_index":130,"time_elapsed":614408,"internal_node_id":"0.0-6.0-124.0"},{"sim_score":5,"rt":2463,"stimulus":"[\"img/0868/09a9ef4d-d000-4cfa-a6aa-ebec7c2edeb4.jpg\",\"img/0864/5f74a653-3bdc-4308-8cca-ac667dc22e1f.jpg\"]","trial_type":"similarity","trial_index":131,"time_elapsed":619245,"internal_node_id":"0.0-6.0-125.0"},{"sim_score":2,"rt":3352,"stimulus":"[\"img/0899/ddf96ade-692e-4602-bd22-dedbb46401bc.jpg\",\"img/0866/620cd1aa-0800-4414-8f6e-90342e7a99ad.jpg\"]","trial_type":"similarity","trial_index":132,"time_elapsed":623599,"internal_node_id":"0.0-6.0-126.0"},{"sim_score":2,"rt":3272,"stimulus":"[\"img/0875/d59ff733-eaff-4ee2-9443-06954dd0bcb6.jpg\",\"img/0904/2c98dc56-88d1-4fb5-a999-b6a7861f65f0.jpg\"]","trial_type":"similarity","trial_index":133,"time_elapsed":627875,"internal_node_id":"0.0-6.0-127.0"},{"sim_score":2,"rt":2293,"stimulus":"[\"img/0867/de92135f-5b65-4ed9-b245-188292c7c2f8.jpg\",\"img/0899/0e1d936a-dbe2-4afc-9f19-7b7a1ae6c9ed.jpg\"]","trial_type":"similarity","trial_index":134,"time_elapsed":631171,"internal_node_id":"0.0-6.0-128.0"},{"sim_score":3,"rt":2418,"stimulus":"[\"img/0901/b13fa50f-dbe0-4d0f-8647-6ac0fd8f40bd.jpg\",\"img/0867/98d8cd96-1476-4fe0-a3a3-04f875500a1b.jpg\"]","trial_type":"similarity","trial_index":135,"time_elapsed":634591,"internal_node_id":"0.0-6.0-129.0"},{"sim_score":2,"rt":3272,"stimulus":"[\"img/0864/da39ad34-04e0-40d4-a724-c08d53e0ea09.jpg\",\"img/0769/35364db7-e0d5-40ef-93dc-faf9dfb95136.jpg\"]","trial_type":"similarity","trial_index":136,"time_elapsed":638866,"internal_node_id":"0.0-6.0-130.0"},{"sim_score":1,"rt":2721,"stimulus":"[\"img/0903/36e4ab1f-caa9-40b3-8616-faada076df94.jpg\",\"img/0868/4e626425-63c8-484a-8a1d-e66ee4e0bef8.jpg\"]","trial_type":"similarity","trial_index":137,"time_elapsed":642590,"internal_node_id":"0.0-6.0-131.0"},{"sim_score":5,"rt":2226,"stimulus":"[\"img/0864/c3b63e8f-ea39-4d70-a1f2-b3fe4be8eb75.jpg\",\"img/0867/5e07b34d-b40f-4b1c-ac10-49975bace45f.jpg\"]","trial_type":"similarity","trial_index":138,"time_elapsed":645819,"internal_node_id":"0.0-6.0-132.0"},{"sim_score":3,"rt":3892,"stimulus":"[\"img/0901/5b97abf9-f0c8-4fd1-b921-36d574779078.jpg\",\"img/0860/8fdba999-b946-4c7d-9891-336018b563ef.jpg\"]","trial_type":"similarity","trial_index":139,"time_elapsed":650714,"internal_node_id":"0.0-6.0-133.0"},{"sim_score":2,"rt":2777,"stimulus":"[\"img/0881/0c7068da-d0d9-4103-bda1-74ef7a2b32c3.jpg\",\"img/0766/91fc8c4d-862f-4d2b-b1a1-2db8d729b6b7.jpg\"]","trial_type":"similarity","trial_index":140,"time_elapsed":654492,"internal_node_id":"0.0-6.0-134.0"},{"sim_score":2,"rt":2823,"stimulus":"[\"img/0903/bf0a7d60-eca5-44b0-bafd-baf21db9904b.jpg\",\"img/0864/1d15626a-2f7c-410f-819c-0fa2c967e95e.jpg\"]","trial_type":"similarity","trial_index":141,"time_elapsed":658317,"internal_node_id":"0.0-6.0-135.0"},{"sim_score":1,"rt":3654,"stimulus":"[\"img/0758/d540bee6-b460-4c32-ac57-bc282742d7d4.jpg\",\"img/0894/38f5931f-926d-414e-b498-66b188978b7a.jpg\"]","trial_type":"similarity","trial_index":142,"time_elapsed":662975,"internal_node_id":"0.0-6.0-136.0"},{"sim_score":3,"rt":2417,"stimulus":"[\"img/0769/c34b7763-8ff2-46d5-9e92-f1d8f3bedbd8.jpg\",\"img/0860/61fb959d-d4d9-4de4-9e4e-4fa62b4cfcd5.jpg\"]","trial_type":"similarity","trial_index":143,"time_elapsed":666395,"internal_node_id":"0.0-6.0-137.0"},{"sim_score":6,"rt":2530,"stimulus":"[\"img/0904/24fc38fe-842c-4831-ad8a-b1de5c25c0a8.jpg\",\"img/0766/d5d38751-8fa5-476f-93e9-86ed2d9045ef.jpg\"]","trial_type":"similarity","trial_index":144,"time_elapsed":669927,"internal_node_id":"0.0-6.0-138.0"},{"sim_score":5,"rt":2317,"stimulus":"[\"img/0868/d98ca254-b195-477f-b57e-5760a2717db8.jpg\",\"img/0860/c5ccd1a4-4bb7-48e1-9b25-72cfaf06909b.jpg\"]","trial_type":"similarity","trial_index":145,"time_elapsed":673246,"internal_node_id":"0.0-6.0-139.0"},{"sim_score":7,"rt":2575,"stimulus":"[\"img/0758/b76ceca7-95ac-46e4-ac13-da02c8e93be9.jpg\",\"img/0864/3651d070-2fc5-4848-b6a6-088a2d9ac5c9.jpg\"]","trial_type":"similarity","trial_index":146,"time_elapsed":676824,"internal_node_id":"0.0-6.0-140.0"},{"sim_score":7,"rt":2563,"stimulus":"[\"img/0867/2e1a0b58-cdb1-4107-a14e-452530d7b9b0.jpg\",\"img/0867/12264664-1860-46df-8c21-162b9817cdda.jpg\"]","trial_type":"similarity","trial_index":147,"time_elapsed":680390,"internal_node_id":"0.0-6.0-141.0"},{"sim_score":7,"rt":4431,"stimulus":"[\"img/0898/b3290bf9-215b-4b45-b21a-65bdf73f142f.jpg\",\"img/0898/b2732712-71c2-45d8-834f-2b2ed5504910.jpg\"]","trial_type":"similarity","trial_index":148,"time_elapsed":685824,"internal_node_id":"0.0-6.0-142.0"},{"sim_score":3,"rt":3791,"stimulus":"[\"img/0866/07c9c966-3c8d-40e7-8128-92b2acbaed5d.jpg\",\"img/0769/a3cfbdeb-acb3-4eac-87fb-4b117f42d4f8.jpg\"]","trial_type":"similarity","trial_index":149,"time_elapsed":690616,"internal_node_id":"0.0-6.0-143.0"},{"sim_score":2,"rt":2339,"stimulus":"[\"img/0860/d9a0d117-6d1d-41c0-8fec-9aff0fd9e9f2.jpg\",\"img/0898/0af304a2-6a7a-4082-ab7c-4450cd08cc58.jpg\"]","trial_type":"similarity","trial_index":150,"time_elapsed":693957,"internal_node_id":"0.0-6.0-144.0"},{"sim_score":1,"rt":2091,"stimulus":"[\"img/0766/c23b5a20-e50f-4d85-841f-cf89212a4348.jpg\",\"img/0864/ea327690-500b-4137-bf91-451b309fe6a5.jpg\"]","trial_type":"similarity","trial_index":151,"time_elapsed":697051,"internal_node_id":"0.0-6.0-145.0"},{"sim_score":3,"rt":2744,"stimulus":"[\"img/0860/87039971-2210-4aab-93c0-8e9b5f1655b2.jpg\",\"img/0903/b4a0f61e-a964-4b79-a9a7-f767a8f92f34.jpg\"]","trial_type":"similarity","trial_index":152,"time_elapsed":700798,"internal_node_id":"0.0-6.0-146.0"},{"sim_score":2,"rt":6231,"stimulus":"[\"img/0867/a749dddb-69f0-44a6-acdc-2bf295cf6dcc.jpg\",\"img/0764/b8e23f4f-ff19-4472-ad9b-2f85548ebca0.jpg\"]","trial_type":"similarity","trial_index":153,"time_elapsed":708031,"internal_node_id":"0.0-6.0-147.0"},{"sim_score":5,"rt":2654,"stimulus":"[\"img/0769/688d0c52-ad73-4065-a5eb-f8c10d076bff.jpg\",\"img/0904/9d30eff1-46ef-4453-b11e-124ef8145c00.jpg\"]","trial_type":"similarity","trial_index":154,"time_elapsed":711688,"internal_node_id":"0.0-6.0-148.0"},{"sim_score":5,"rt":2170,"stimulus":"[\"img/0764/cbdc4f20-3a9a-4211-9b40-090699e0abcc.jpg\",\"img/0901/443f2e59-199b-4f7b-9de9-c44ad97326a5.jpg\"]","trial_type":"similarity","trial_index":155,"time_elapsed":714860,"internal_node_id":"0.0-6.0-149.0"},{"sim_score":6,"rt":2406,"stimulus":"[\"img/0904/b7c2a2c8-df33-4473-b3d4-ff7147c60db3.jpg\",\"img/0899/7f9d45d0-b2c6-40d3-aa41-c207db2c411b.jpg\"]","trial_type":"similarity","trial_index":156,"time_elapsed":718269,"internal_node_id":"0.0-6.0-150.0"},{"sim_score":5,"rt":2181,"stimulus":"[\"img/0862/f188d4f0-76a4-4102-818c-a209969d73a5.jpg\",\"img/0867/85a96c62-548f-4994-9553-819e03c3135a.jpg\"]","trial_type":"similarity","trial_index":157,"time_elapsed":721453,"internal_node_id":"0.0-6.0-151.0"},{"sim_score":6,"rt":2486,"stimulus":"[\"img/0766/60033a74-9919-47e5-913c-71d0d483e7e5.jpg\",\"img/0766/75c3d627-4f3b-40d5-9d9c-10c8a62db644.jpg\"]","trial_type":"similarity","trial_index":158,"time_elapsed":724940,"internal_node_id":"0.0-6.0-152.0"},{"sim_score":3,"rt":2519,"stimulus":"[\"img/0862/ad593cc7-cabe-4bb7-8e14-8a447a0717b4.jpg\",\"img/0894/7dd6ff43-f8fc-408a-8a41-a2b261871820.jpg\"]","trial_type":"similarity","trial_index":159,"time_elapsed":728461,"internal_node_id":"0.0-6.0-153.0"},{"sim_score":3,"rt":2317,"stimulus":"[\"img/0899/1b3457ea-87d4-4946-a01c-aac1863ed46c.jpg\",\"img/0901/3db47171-0139-4235-82cd-0b1787b6775f.jpg\"]","trial_type":"similarity","trial_index":160,"time_elapsed":731780,"internal_node_id":"0.0-6.0-154.0"},{"sim_score":7,"rt":6040,"stimulus":"[\"img/0874/7e4f2150-3b59-4a36-b5da-a4e0ba410531.jpg\",\"img/0874/99f6563c-8a8d-4c1c-a41d-667b618c3fd5.jpg\"]","trial_type":"similarity","trial_index":161,"time_elapsed":738823,"internal_node_id":"0.0-6.0-155.0"},{"sim_score":5,"rt":2260,"stimulus":"[\"img/0860/5383b320-1518-4095-a58e-5cc1ae30b64c.jpg\",\"img/0867/a498eef3-9fa4-4ab2-9778-4ae82ac40dc5.jpg\"]","trial_type":"similarity","trial_index":162,"time_elapsed":742085,"internal_node_id":"0.0-6.0-156.0"},{"sim_score":3,"rt":5253,"stimulus":"[\"img/0901/6e2957f8-f5ab-46f4-87cc-bb50155a098b.jpg\",\"img/0881/7e822106-76f7-4b10-a805-14dc68b2cfaf.jpg\"]","trial_type":"similarity","trial_index":163,"time_elapsed":748340,"internal_node_id":"0.0-6.0-157.0"},{"sim_score":6,"rt":2824,"stimulus":"[\"img/0903/f1fa0f8d-e62b-4b4a-a174-31a0fabfe61b.jpg\",\"img/0902/2a7ac123-414a-476a-9a96-4757b924baef.jpg\"]","trial_type":"similarity","trial_index":164,"time_elapsed":752165,"internal_node_id":"0.0-6.0-158.0"},{"sim_score":2,"rt":3103,"stimulus":"[\"img/0860/4c530c3c-6aab-492a-94d1-9c01797bde40.jpg\",\"img/0764/8389e74f-e0e0-435d-945f-da1f4c92ccb6.jpg\"]","trial_type":"similarity","trial_index":165,"time_elapsed":756272,"internal_node_id":"0.0-6.0-159.0"},{"sim_score":1,"rt":2192,"stimulus":"[\"img/0902/01b41522-de46-4c3a-b0af-a61b2682b40e.jpg\",\"img/0875/34132396-d896-4c2d-8087-646dd867e769.jpg\"]","trial_type":"similarity","trial_index":166,"time_elapsed":759467,"internal_node_id":"0.0-6.0-160.0"},{"sim_score":3,"rt":2777,"stimulus":"[\"img/0898/c3cecf20-f7fd-45fa-97d0-dc0a63e8d6c0.jpg\",\"img/0862/e697469a-ec19-4414-b972-7b9f3564785b.jpg\"]","trial_type":"similarity","trial_index":167,"time_elapsed":763247,"internal_node_id":"0.0-6.0-161.0"},{"sim_score":2,"rt":3633,"stimulus":"[\"img/0894/1b3888e6-cf36-4c4a-a039-187aa5cb71ac.jpg\",\"img/0875/3ecb367d-e9eb-4826-8aaa-7aa72fb98019.jpg\"]","trial_type":"similarity","trial_index":168,"time_elapsed":767882,"internal_node_id":"0.0-6.0-162.0"},{"sim_score":5,"rt":1810,"stimulus":"[\"img/0866/bf14b5bd-fb55-47db-86b9-4f8aeb9a6dad.jpg\",\"img/0864/b3c4e378-28f0-4699-9338-2a257b4bca04.jpg\"]","trial_type":"similarity","trial_index":169,"time_elapsed":770694,"internal_node_id":"0.0-6.0-163.0"},{"sim_score":3,"rt":2304,"stimulus":"[\"img/0766/1bc0dccc-a5b5-4375-87fa-28360ca42b12.jpg\",\"img/0862/f43ceabf-acc1-4107-b857-5d1849808f93.jpg\"]","trial_type":"similarity","trial_index":170,"time_elapsed":774002,"internal_node_id":"0.0-6.0-164.0"},{"sim_score":5,"rt":1833,"stimulus":"[\"img/0866/4a87911a-d5be-4d4e-ab8e-3d1f581bf507.jpg\",\"img/0874/995f0332-0439-4eb4-add3-957335dbf6d9.jpg\"]","trial_type":"similarity","trial_index":171,"time_elapsed":776837,"internal_node_id":"0.0-6.0-165.0"},{"sim_score":6,"rt":2957,"stimulus":"[\"img/0862/92f0146c-20c4-482e-aef5-adb693790338.jpg\",\"img/0860/18dfed73-e36b-4487-a8bd-0b8cff8e3668.jpg\"]","trial_type":"similarity","trial_index":172,"time_elapsed":780797,"internal_node_id":"0.0-6.0-166.0"},{"sim_score":5,"rt":2113,"stimulus":"[\"img/0766/d919cedb-f9b7-4f30-83bb-3e9c65001ceb.jpg\",\"img/0901/58978a6d-a3e2-4c59-8d62-f60693ecc0f6.jpg\"]","trial_type":"similarity","trial_index":173,"time_elapsed":784914,"internal_node_id":"0.0-6.0-167.0"},{"sim_score":7,"rt":2710,"stimulus":"[\"img/0862/99a99e39-8355-44ec-b993-e7bcec111e1c.jpg\",\"img/0862/fad1d7c1-8187-43c3-942a-0fc12183e48e.jpg\"]","trial_type":"similarity","trial_index":174,"time_elapsed":788627,"internal_node_id":"0.0-6.0-168.0"},{"sim_score":6,"rt":2170,"stimulus":"[\"img/0894/6b2e9509-8699-42b7-9582-7741df0ba2d7.jpg\",\"img/0764/23ea9375-f801-4a96-9925-7d453da887c7.jpg\"]","trial_type":"similarity","trial_index":175,"time_elapsed":791799,"internal_node_id":"0.0-6.0-169.0"},{"sim_score":2,"rt":2879,"stimulus":"[\"img/0874/767f289c-9814-4496-803f-745cc8913d1f.jpg\",\"img/0898/f3a3f225-1248-4ac7-b93b-f0ff28485bf3.jpg\"]","trial_type":"similarity","trial_index":176,"time_elapsed":795681,"internal_node_id":"0.0-6.0-170.0"},{"sim_score":1,"rt":4308,"stimulus":"[\"img/0860/8a92e21b-6a32-4e4a-a445-2d5a487ed0a4.jpg\",\"img/0766/5d1b8041-c5a1-4b02-b4fe-3453d98a0d72.jpg\"]","trial_type":"similarity","trial_index":177,"time_elapsed":800991,"internal_node_id":"0.0-6.0-171.0"},{"sim_score":2,"rt":3520,"stimulus":"[\"img/0898/cd3aaa3f-efa9-4ab3-8d6f-a6a9273ddf42.jpg\",\"img/0864/87c467d3-abca-482f-ad80-3766c21b1bb3.jpg\"]","trial_type":"similarity","trial_index":178,"time_elapsed":805513,"internal_node_id":"0.0-6.0-172.0"},{"sim_score":1,"rt":3194,"stimulus":"[\"img/0881/d1982897-8d8d-4704-a940-1ee5d07a1f15.jpg\",\"img/0764/8740679b-b56f-4292-aece-14063457113a.jpg\"]","trial_type":"similarity","trial_index":179,"time_elapsed":809709,"internal_node_id":"0.0-6.0-173.0"},{"sim_score":2,"rt":3025,"stimulus":"[\"img/0898/68476bbb-34a1-42d9-8bc1-deab783d4489.jpg\",\"img/0868/4bd5105a-d2c3-4f82-8c80-57196106ba53.jpg\"]","trial_type":"similarity","trial_index":180,"time_elapsed":813737,"internal_node_id":"0.0-6.0-174.0"},{"sim_score":7,"rt":2677,"stimulus":"[\"img/0864/a248adb3-c70b-4652-b7a3-776d2a1e904b.jpg\",\"img/0864/ef9cbca0-4be8-435d-ad49-977259e80409.jpg\"]","trial_type":"similarity","trial_index":181,"time_elapsed":817416,"internal_node_id":"0.0-6.0-175.0"},{"sim_score":1,"rt":3869,"stimulus":"[\"img/0899/06b0fc99-0581-461a-9913-d1a5a941ac61.jpg\",\"img/0862/a0a3a7ba-7798-46a3-b4ca-05e1f6e581d0.jpg\"]","trial_type":"similarity","trial_index":182,"time_elapsed":822287,"internal_node_id":"0.0-6.0-176.0"},{"sim_score":6,"rt":2327,"stimulus":"[\"img/0875/dbdd643e-6d0e-4a5c-ab57-b9c29b9c981a.jpg\",\"img/0758/20497cbe-ddae-489e-86e2-ab06985ed07c.jpg\"]","trial_type":"similarity","trial_index":183,"time_elapsed":825617,"internal_node_id":"0.0-6.0-177.0"},{"sim_score":2,"rt":3250,"stimulus":"[\"img/0866/23a224f3-2012-4fc8-8e0f-3c36f8de27fd.jpg\",\"img/0901/d61f267a-c492-4db6-9bfb-61efd49cf072.jpg\"]","trial_type":"similarity","trial_index":184,"time_elapsed":829870,"internal_node_id":"0.0-6.0-178.0"},{"sim_score":3,"rt":3902,"stimulus":"[\"img/0769/ecda2fb3-556b-43ba-8a67-e87dd75ff2b4.jpg\",\"img/0874/93d1f8dc-acf2-4f03-bd8d-8ec35df276ed.jpg\"]","trial_type":"similarity","trial_index":185,"time_elapsed":834775,"internal_node_id":"0.0-6.0-179.0"},{"sim_score":6,"rt":2125,"stimulus":"[\"img/0875/90da8d75-108a-44ad-b999-e21fee3860d3.jpg\",\"img/0881/633c6f40-56d9-4b48-bf1c-ecd83116eabb.jpg\"]","trial_type":"similarity","trial_index":186,"time_elapsed":837902,"internal_node_id":"0.0-6.0-180.0"},{"sim_score":6,"rt":2024,"stimulus":"[\"img/0866/be24ab58-230e-4db8-9f45-ff04c9aec6bb.jpg\",\"img/0868/d6d1f30d-4323-435a-b194-7892521bc57e.jpg\"]","trial_type":"similarity","trial_index":187,"time_elapsed":840928,"internal_node_id":"0.0-6.0-181.0"},{"sim_score":2,"rt":3464,"stimulus":"[\"img/0899/57476fed-5962-4272-8fc9-b317bb777b54.jpg\",\"img/0758/6e95579b-5166-487c-b8cb-e417c6a218e3.jpg\"]","trial_type":"similarity","trial_index":188,"time_elapsed":845395,"internal_node_id":"0.0-6.0-182.0"},{"sim_score":5,"rt":1866,"stimulus":"[\"img/0874/a82926a3-0b43-4add-803c-d5f9ea7798ee.jpg\",\"img/0875/5a1e5100-0d94-4fec-bbe9-ca9894d2cf8e.jpg\"]","trial_type":"similarity","trial_index":189,"time_elapsed":848263,"internal_node_id":"0.0-6.0-183.0"},{"sim_score":3,"rt":3475,"stimulus":"[\"img/0904/63dd06dd-dccb-47ba-9740-eb33239e18a7.jpg\",\"img/0862/d0ca4c78-fc35-46ed-bdcc-8e124283c53e.jpg\"]","trial_type":"similarity","trial_index":190,"time_elapsed":852741,"internal_node_id":"0.0-6.0-184.0"},{"sim_score":5,"rt":4465,"stimulus":"[\"img/0902/31abfa33-7cdb-44ad-968e-9f7b324d577a.jpg\",\"img/0766/ea09dd5a-d24d-4e97-a099-7da3db1baef1.jpg\"]","trial_type":"similarity","trial_index":191,"time_elapsed":858209,"internal_node_id":"0.0-6.0-185.0"},{"sim_score":3,"rt":2979,"stimulus":"[\"img/0758/3ddd05d3-557e-4ee7-8b78-9d2d681d8ae2.jpg\",\"img/0769/180213e5-1e50-4b4e-87b6-add77ba04d39.jpg\"]","trial_type":"similarity","trial_index":192,"time_elapsed":862191,"internal_node_id":"0.0-6.0-186.0"},{"sim_score":7,"rt":2654,"stimulus":"[\"img/0881/609a5e93-38b5-4940-8627-2bf8fad7f802.jpg\",\"img/0881/f6bd3b96-dc40-4e99-8681-bc3a35cf896d.jpg\"]","trial_type":"similarity","trial_index":193,"time_elapsed":865847,"internal_node_id":"0.0-6.0-187.0"},{"sim_score":5,"rt":2114,"stimulus":"[\"img/0758/e38fd80d-18d0-42f3-b848-f930788e8bd7.jpg\",\"img/0866/9b38d691-1802-4959-ab3f-fc902f0e4ea6.jpg\"]","trial_type":"similarity","trial_index":194,"time_elapsed":868964,"internal_node_id":"0.0-6.0-188.0"},{"sim_score":5,"rt":3598,"stimulus":"[\"img/0764/3297a811-ea8b-4d74-9547-59cecab7293a.jpg\",\"img/0898/a114b375-cb89-44ba-9498-74213f1ecdee.jpg\"]","trial_type":"similarity","trial_index":195,"time_elapsed":873565,"internal_node_id":"0.0-6.0-189.0"},{"sim_score":6,"rt":2192,"stimulus":"[\"img/0903/6a87dbad-9b8d-4ff5-9c41-03c9aa24f0c3.jpg\",\"img/0901/da4fe30f-d12a-491e-96a2-5ab8ebaadd09.jpg\"]","trial_type":"similarity","trial_index":196,"time_elapsed":876760,"internal_node_id":"0.0-6.0-190.0"},{"sim_score":6,"rt":2136,"stimulus":"[\"img/0902/04a6ad4a-afc6-4871-8225-56b299af7b6b.jpg\",\"img/0898/a8f16b02-e19f-423b-86c3-a36562ae1f9b.jpg\"]","trial_type":"similarity","trial_index":197,"time_elapsed":879899,"internal_node_id":"0.0-6.0-191.0"},{"sim_score":2,"rt":3847,"stimulus":"[\"img/0864/8ddd2e30-a1d0-479f-9cbe-591213023893.jpg\",\"img/0901/31c032fd-3c3d-4882-a226-da9a80198937.jpg\"]","trial_type":"similarity","trial_index":198,"time_elapsed":884747,"internal_node_id":"0.0-6.0-192.0"},{"sim_score":2,"rt":3114,"stimulus":"[\"img/0894/a98416c0-51e2-4960-85da-d81d8688b9d5.jpg\",\"img/0881/292e9b4b-fca0-4ba8-87f1-4048f9e37b7d.jpg\"]","trial_type":"similarity","trial_index":199,"time_elapsed":888865,"internal_node_id":"0.0-6.0-193.0"},{"sim_score":7,"rt":2496,"stimulus":"[\"img/0868/179a5502-ab5c-478e-8263-5a1fbcc101d2.jpg\",\"img/0868/4a8a45ed-2c4f-421b-9564-409a33ecd26c.jpg\"]","trial_type":"similarity","trial_index":200,"time_elapsed":892364,"internal_node_id":"0.0-6.0-194.0"},{"sim_score":5,"rt":3733,"stimulus":"[\"img/0899/fef567a2-c121-4481-9af0-ff108d199bbf.jpg\",\"img/0764/f2f23359-8e82-41d3-8900-5b9f4433991d.jpg\"]","trial_type":"similarity","trial_index":201,"time_elapsed":897100,"internal_node_id":"0.0-6.0-195.0"},{"sim_score":2,"rt":2710,"stimulus":"[\"img/0881/33d65d80-8a8e-4ecf-852d-0ad7725c17a2.jpg\",\"img/0904/e9423a8c-f946-43ad-ab7b-931acef870e2.jpg\"]","trial_type":"similarity","trial_index":202,"time_elapsed":900813,"internal_node_id":"0.0-6.0-196.0"},{"sim_score":1,"rt":2676,"stimulus":"[\"img/0864/e336a4c5-6648-4fd7-b2f6-93a3fb83f8c6.jpg\",\"img/0902/6c2c243a-f663-45db-baf5-038d3d58c589.jpg\"]","trial_type":"similarity","trial_index":203,"time_elapsed":904491,"internal_node_id":"0.0-6.0-197.0"},{"sim_score":7,"rt":2338,"stimulus":"[\"img/0894/b2d2f66e-e480-46da-a02a-6d0c6b285d78.jpg\",\"img/0904/d23dd7be-7fe8-4435-82f7-bd592c01e6a1.jpg\"]","trial_type":"similarity","trial_index":204,"time_elapsed":907833,"internal_node_id":"0.0-6.0-198.0"},{"sim_score":7,"rt":2328,"stimulus":"[\"img/0901/f469cb1d-6d81-4a45-bab5-cd0b650c2b4f.jpg\",\"img/0901/a2d7b2f6-396b-4d91-8403-de5361c74af7.jpg\"]","trial_type":"similarity","trial_index":205,"time_elapsed":911163,"internal_node_id":"0.0-6.0-199.0"},{"sim_score":2,"rt":2439,"stimulus":"[\"img/0894/0130a973-d993-41f8-874a-fee23d9ac11f.jpg\",\"img/0860/15b24a61-25be-4356-9eac-5ce95d0cb4a4.jpg\"]","trial_type":"similarity","trial_index":206,"time_elapsed":914605,"internal_node_id":"0.0-6.0-200.0"},{"sim_score":7,"rt":3892,"stimulus":"[\"img/0898/40f99fb2-64d2-4e72-8a7f-a1cf60741e69.jpg\",\"img/0903/70d764d9-1f35-4da7-a35d-4cc39834d270.jpg\"]","trial_type":"similarity","trial_index":207,"time_elapsed":919499,"internal_node_id":"0.0-6.0-201.0"},{"sim_score":1,"rt":5051,"stimulus":"[\"img/0864/4bd81bc6-c13d-46df-95a9-485886dc7c1b.jpg\",\"img/0894/3664e04c-c6d3-4c9b-afb6-25d89974b174.jpg\"]","trial_type":"similarity","trial_index":208,"time_elapsed":925551,"internal_node_id":"0.0-6.0-202.0"},{"sim_score":5,"rt":3036,"stimulus":"[\"img/0874/8cdb1c07-1c32-46d2-981c-3636560fa6e5.jpg\",\"img/0860/8277806e-b684-4474-8f7b-3fca946d7d4f.jpg\"]","trial_type":"similarity","trial_index":209,"time_elapsed":929590,"internal_node_id":"0.0-6.0-203.0"},{"sim_score":5,"rt":2338,"stimulus":"[\"img/0862/de9ad88c-b522-430a-8ee9-eb06a9f85df5.jpg\",\"img/0875/03c3c331-738b-4446-af92-3d7386b08c2e.jpg\"]","trial_type":"similarity","trial_index":210,"time_elapsed":932932,"internal_node_id":"0.0-6.0-204.0"},{"sim_score":6,"rt":2575,"stimulus":"[\"img/0867/f8159067-056c-41f1-a136-c529fe5e970a.jpg\",\"img/0881/7e31e5dc-2240-4b1b-b5a0-3acd980099ef.jpg\"]","trial_type":"similarity","trial_index":211,"time_elapsed":936509,"internal_node_id":"0.0-6.0-205.0"},{"sim_score":7,"rt":2823,"stimulus":"[\"img/0901/a373612d-67e2-4fec-9764-21d3d6ef6359.jpg\",\"img/0902/5b45a7a0-81c8-4a71-aaa2-2ce09adb5a29.jpg\"]","trial_type":"similarity","trial_index":212,"time_elapsed":940334,"internal_node_id":"0.0-6.0-206.0"},{"sim_score":3,"rt":2462,"stimulus":"[\"img/0899/0433d056-aa30-4f8a-9aa1-abbb951e4edd.jpg\",\"img/0864/9b2490c5-a282-400a-9736-e1a0ecbf1cb7.jpg\"]","trial_type":"similarity","trial_index":213,"time_elapsed":943799,"internal_node_id":"0.0-6.0-207.0"},{"sim_score":5,"rt":2946,"stimulus":"[\"img/0901/693e0535-ef7e-4d60-af9d-fac2f38e8307.jpg\",\"img/0769/04347740-f8f6-48bb-887a-f68babd0a0d4.jpg\"]","trial_type":"similarity","trial_index":214,"time_elapsed":947748,"internal_node_id":"0.0-6.0-208.0"},{"sim_score":7,"rt":4015,"stimulus":"[\"img/0902/7499db23-3a41-41ea-ab5b-6ab4d4c3ed35.jpg\",\"img/0902/d5e25767-e8ec-45f3-ac0a-7b4a6f7a9edc.jpg\"]","trial_type":"similarity","trial_index":215,"time_elapsed":953766,"internal_node_id":"0.0-6.0-209.0"},{"view_history":"[{\"page_index\":0,\"viewing_time\":5467}]","rt":5467,"trial_type":"instructions","trial_index":216,"time_elapsed":960235,"internal_node_id":"0.0-7.0"},{"rt":16894,"responses":"{\"Q0\":\"Tennessee Warbler\"}","answer":["Nashville Warbler"],"trial_type":"image-multi-choice","trial_index":217,"time_elapsed":978136,"internal_node_id":"0.0-8.0-0.0"},{"rt":45491,"responses":"{\"Q0\":\"Blackburnian Warbler\"}","answer":["Black-and-white Warbler"],"trial_type":"image-multi-choice","trial_index":218,"time_elapsed":1024632,"internal_node_id":"0.0-8.0-1.0"},{"rt":9501,"responses":"{\"Q0\":\"Blackburnian Warbler\"}","answer":["Townsend's Warbler"],"trial_type":"image-multi-choice","trial_index":219,"time_elapsed":1035140,"internal_node_id":"0.0-8.0-2.0"},{"rt":5789,"responses":"{\"Q0\":\"Lark Sparrow\"}","answer":["Lark Sparrow"],"trial_type":"image-multi-choice","trial_index":220,"time_elapsed":1041935,"internal_node_id":"0.0-8.0-3.0"},{"rt":19021,"responses":"{\"Q0\":\"Yellow Warbler\"}","answer":["Yellow Warbler"],"trial_type":"image-multi-choice","trial_index":221,"time_elapsed":1061960,"internal_node_id":"0.0-8.0-4.0"},{"rt":14184,"responses":"{\"Q0\":\"Nashville Warbler\"}","answer":["Orange-crowned Warbler"],"trial_type":"image-multi-choice","trial_index":222,"time_elapsed":1077147,"internal_node_id":"0.0-8.0-5.0"},{"rt":10436,"responses":"{\"Q0\":\"White-throated Sparrow\"}","answer":["White-throated Sparrow"],"trial_type":"image-multi-choice","trial_index":223,"time_elapsed":1088588,"internal_node_id":"0.0-8.0-6.0"},{"rt":3710,"responses":"{\"Q0\":\"Fox Sparrow\"}","answer":["Fox Sparrow"],"trial_type":"image-multi-choice","trial_index":224,"time_elapsed":1093302,"internal_node_id":"0.0-8.0-7.0"},{"rt":17985,"responses":"{\"Q0\":\"American Tree Sparrow\"}","answer":["Song Sparrow"],"trial_type":"image-multi-choice","trial_index":225,"time_elapsed":1112292,"internal_node_id":"0.0-8.0-8.0"},{"rt":12294,"responses":"{\"Q0\":\"Magnolia Warbler\"}","answer":["Blackburnian Warbler"],"trial_type":"image-multi-choice","trial_index":226,"time_elapsed":1125590,"internal_node_id":"0.0-8.0-9.0"},{"rt":9088,"responses":"{\"Q0\":\"Lincoln's Sparrow\"}","answer":["Vesper Sparrow"],"trial_type":"image-multi-choice","trial_index":227,"time_elapsed":1135681,"internal_node_id":"0.0-8.0-10.0"},{"rt":4226,"responses":"{\"Q0\":\"White-crowned Sparrow\"}","answer":["White-crowned Sparrow"],"trial_type":"image-multi-choice","trial_index":228,"time_elapsed":1140912,"internal_node_id":"0.0-8.0-11.0"},{"rt":6026,"responses":"{\"Q0\":\"Swamp Sparrow\"}","answer":["American Tree Sparrow"],"trial_type":"image-multi-choice","trial_index":229,"time_elapsed":1147944,"internal_node_id":"0.0-8.0-12.0"},{"rt":8311,"responses":"{\"Q0\":\"Townsend's Warbler\"}","answer":["Tennessee Warbler"],"trial_type":"image-multi-choice","trial_index":230,"time_elapsed":1157259,"internal_node_id":"0.0-8.0-13.0"},{"rt":10594,"responses":"{\"Q0\":\"Blackburnian Warbler\"}","answer":["Magnolia Warbler"],"trial_type":"image-multi-choice","trial_index":231,"time_elapsed":1168857,"internal_node_id":"0.0-8.0-14.0"},{"rt":5441,"responses":"{\"Q0\":\"Northern Waterthrush\"}","answer":["Northern Waterthrush"],"trial_type":"image-multi-choice","trial_index":232,"time_elapsed":1175304,"internal_node_id":"0.0-8.0-15.0"},{"rt":3641,"responses":"{\"Q0\":\"Chipping Sparrow\"}","answer":["Chipping Sparrow"],"trial_type":"image-multi-choice","trial_index":233,"time_elapsed":1179950,"internal_node_id":"0.0-8.0-16.0"},{"rt":8142,"responses":"{\"Q0\":\"Swamp Sparrow\"}","answer":["Swamp Sparrow"],"trial_type":"image-multi-choice","trial_index":234,"time_elapsed":1189096,"internal_node_id":"0.0-8.0-17.0"},{"rt":8490,"responses":"{\"Q0\":\"Vesper Sparrow\"}","answer":["Lincoln's Sparrow"],"trial_type":"image-multi-choice","trial_index":235,"time_elapsed":1198591,"internal_node_id":"0.0-8.0-18.0"},{"rt":5915,"responses":"{\"Q0\":\"Ovenbird\"}","answer":["Ovenbird"],"trial_type":"image-multi-choice","trial_index":236,"time_elapsed":1205510,"internal_node_id":"0.0-8.0-19.0"}]