[{"view_history":"[{\"page_index\":0,\"viewing_time\":12227}]","rt":12228,"trial_type":"instructions","trial_index":0,"time_elapsed":12229,"internal_node_id":"0.0-0.0"},{"sim_score":3,"rt":5521,"stimulus":"[\"img/866.jpg\",\"img/868.jpg\"]","trial_type":"similarity_demo","trial_index":1,"time_elapsed":18765,"internal_node_id":"0.0-1.0"},{"view_history":"[{\"page_index\":0,\"viewing_time\":12065}]","rt":12065,"trial_type":"instructions","trial_index":2,"time_elapsed":31844,"internal_node_id":"0.0-2.0"},{"sim_score":2,"rt":3081,"stimulus":"[\"img/766.jpg\",\"img/867.jpg\"]","trial_type":"similarity_demo","trial_index":3,"time_elapsed":35949,"internal_node_id":"0.0-3.0"},{"view_history":"[{\"page_index\":0,\"viewing_time\":7826}]","rt":7827,"trial_type":"instructions","trial_index":4,"time_elapsed":44789,"internal_node_id":"0.0-4.0"},{"view_history":"[{\"page_index\":0,\"viewing_time\":17479}]","rt":17479,"trial_type":"instructions","trial_index":5,"time_elapsed":63278,"internal_node_id":"0.0-5.0"},{"sim_score":2,"rt":3223,"stimulus":"[\"img/0868/4bd5105a-d2c3-4f82-8c80-57196106ba53.jpg\",\"img/0901/148b747a-7392-437e-8823-33053c5dff3f.jpg\"]","trial_type":"similarity","trial_index":6,"time_elapsed":67519,"internal_node_id":"0.0-6.0-0.0"},{"sim_score":2,"rt":3060,"stimulus":"[\"img/0769/4a1d0b52-3fe8-40fb-bb1c-c814fe49a68c.jpg\",\"img/0867/7d1c497b-c1b3-4ed8-abb5-d7f73306015f.jpg\"]","trial_type":"similarity","trial_index":7,"time_elapsed":71591,"internal_node_id":"0.0-6.0-1.0"},{"sim_score":3,"rt":3249,"stimulus":"[\"img/0766/69e486f7-dbef-456b-9d48-53d814248a28.jpg\",\"img/0898/04e39a7a-fcf6-4156-ab0e-f5871f335e1c.jpg\"]","trial_type":"similarity","trial_index":8,"time_elapsed":75864,"internal_node_id":"0.0-6.0-2.0"},{"sim_score":3,"rt":3049,"stimulus":"[\"img/0902/01b41522-de46-4c3a-b0af-a61b2682b40e.jpg\",\"img/0881/db77fe00-aeb0-4d1d-aa66-f3a96fd077e4.jpg\"]","trial_type":"similarity","trial_index":9,"time_elapsed":79936,"internal_node_id":"0.0-6.0-3.0"},{"sim_score":5,"rt":3640,"stimulus":"[\"img/0894/6aa5545f-fa7d-4286-bbaa-aaf34dc7ec96.jpg\",\"img/0894/5a49e858-2850-4892-9a06-e9f0efb5f94d.jpg\"]","trial_type":"similarity","trial_index":10,"time_elapsed":84592,"internal_node_id":"0.0-6.0-4.0"},{"sim_score":5,"rt":2985,"stimulus":"[\"img/0874/ca23d307-fc00-4d7d-9106-584c6eb21b4d.jpg\",\"img/0899/57476fed-5962-4272-8fc9-b317bb777b54.jpg\"]","trial_type":"similarity","trial_index":11,"time_elapsed":88592,"internal_node_id":"0.0-6.0-5.0"},{"sim_score":5,"rt":2714,"stimulus":"[\"img/0904/a8c3c7d2-9bcf-4347-9e03-8203adfc1fc5.jpg\",\"img/0764/b328441c-f81c-486c-9eae-b947c70ba7cd.jpg\"]","trial_type":"similarity","trial_index":12,"time_elapsed":92328,"internal_node_id":"0.0-6.0-6.0"},{"sim_score":5,"rt":2479,"stimulus":"[\"img/0899/b45c550b-96c3-4255-ad59-48a2b4db1c1e.jpg\",\"img/0898/81b08535-2020-4c15-9ce4-2f1e460755ae.jpg\"]","trial_type":"similarity","trial_index":13,"time_elapsed":95825,"internal_node_id":"0.0-6.0-7.0"},{"sim_score":5,"rt":2792,"stimulus":"[\"img/0874/85eb9b8a-c4c6-4e5a-b8e7-363a87a82054.jpg\",\"img/0903/150cf64c-0bd2-4674-abbb-a1387cf1f3e9.jpg\"]","trial_type":"similarity","trial_index":14,"time_elapsed":99633,"internal_node_id":"0.0-6.0-8.0"},{"sim_score":4,"rt":2620,"stimulus":"[\"img/0881/609a5e93-38b5-4940-8627-2bf8fad7f802.jpg\",\"img/0758/9fb5b2fe-3f00-4fe6-973c-1ce10d5f4cd5.jpg\"]","trial_type":"similarity","trial_index":15,"time_elapsed":103273,"internal_node_id":"0.0-6.0-9.0"},{"sim_score":5,"rt":2778,"stimulus":"[\"img/0898/79233891-305a-4a6a-8ddf-5c8604858203.jpg\",\"img/0901/3db47171-0139-4235-82cd-0b1787b6775f.jpg\"]","trial_type":"similarity","trial_index":16,"time_elapsed":107073,"internal_node_id":"0.0-6.0-10.0"},{"sim_score":2,"rt":2512,"stimulus":"[\"img/0903/c708d08f-a108-4e04-8288-c3fcf6375db4.jpg\",\"img/0769/e8ed913b-8a88-44f6-9327-d34afec3116b.jpg\"]","trial_type":"similarity","trial_index":17,"time_elapsed":110610,"internal_node_id":"0.0-6.0-11.0"},{"sim_score":2,"rt":2627,"stimulus":"[\"img/0764/7f4ee8e3-9315-4a57-be7d-db8454b33766.jpg\",\"img/0868/293079b8-7e0c-4afd-a390-1e5d35fe3ded.jpg\"]","trial_type":"similarity","trial_index":18,"time_elapsed":114250,"internal_node_id":"0.0-6.0-12.0"},{"sim_score":2,"rt":2862,"stimulus":"[\"img/0867/ac1797e4-8afc-48fe-b252-86d1defb1cca.jpg\",\"img/0903/647ce311-8c71-479a-8361-961db1457139.jpg\"]","trial_type":"similarity","trial_index":19,"time_elapsed":118130,"internal_node_id":"0.0-6.0-13.0"},{"sim_score":2,"rt":3358,"stimulus":"[\"img/0766/2da002a4-05c9-4f5c-9ed7-433b4183e273.jpg\",\"img/0758/335851a0-a55b-46d8-ab05-8463eda48349.jpg\"]","trial_type":"similarity","trial_index":20,"time_elapsed":122498,"internal_node_id":"0.0-6.0-14.0"},{"sim_score":2,"rt":3477,"stimulus":"[\"img/0902/7f1dcd35-237a-4995-9e42-7f63f3f434d4.jpg\",\"img/0860/d9a0d117-6d1d-41c0-8fec-9aff0fd9e9f2.jpg\"]","trial_type":"similarity","trial_index":21,"time_elapsed":126987,"internal_node_id":"0.0-6.0-15.0"},{"sim_score":3,"rt":3494,"stimulus":"[\"img/0769/ecda2fb3-556b-43ba-8a67-e87dd75ff2b4.jpg\",\"img/0875/2c361b79-c3d1-4eda-812e-bf03192407bf.jpg\"]","trial_type":"similarity","trial_index":22,"time_elapsed":131499,"internal_node_id":"0.0-6.0-16.0"},{"sim_score":3,"rt":3055,"stimulus":"[\"img/0904/2fd488e9-960f-41f7-8a44-33375f7d5051.jpg\",\"img/0866/07c9c966-3c8d-40e7-8128-92b2acbaed5d.jpg\"]","trial_type":"similarity","trial_index":23,"time_elapsed":135563,"internal_node_id":"0.0-6.0-17.0"},{"sim_score":5,"rt":2599,"stimulus":"[\"img/0875/90da8d75-108a-44ad-b999-e21fee3860d3.jpg\",\"img/0875/527ced51-8e53-4aab-ab05-86df219104c0.jpg\"]","trial_type":"similarity","trial_index":24,"time_elapsed":139180,"internal_node_id":"0.0-6.0-18.0"},{"sim_score":5,"rt":2819,"stimulus":"[\"img/0758/d57c2592-a317-4f63-91be-91a3a9afd222.jpg\",\"img/0758/b76ceca7-95ac-46e4-ac13-da02c8e93be9.jpg\"]","trial_type":"similarity","trial_index":25,"time_elapsed":143028,"internal_node_id":"0.0-6.0-19.0"},{"sim_score":3,"rt":2567,"stimulus":"[\"img/0902/c920f0e1-1c81-480f-a164-c77f2dc6ce9a.jpg\",\"img/0874/99f6563c-8a8d-4c1c-a41d-667b618c3fd5.jpg\"]","trial_type":"similarity","trial_index":26,"time_elapsed":146604,"internal_node_id":"0.0-6.0-20.0"},{"sim_score":3,"rt":3684,"stimulus":"[\"img/0764/c0b03adb-bd0a-4b96-a915-a827c2fd5211.jpg\",\"img/0769/1afb527f-9887-428c-bd26-a12c2f9efb68.jpg\"]","trial_type":"similarity","trial_index":27,"time_elapsed":151308,"internal_node_id":"0.0-6.0-21.0"},{"sim_score":3,"rt":3195,"stimulus":"[\"img/0901/a373612d-67e2-4fec-9764-21d3d6ef6359.jpg\",\"img/0874/8cdb1c07-1c32-46d2-981c-3636560fa6e5.jpg\"]","trial_type":"similarity","trial_index":28,"time_elapsed":155525,"internal_node_id":"0.0-6.0-22.0"},{"sim_score":5,"rt":2451,"stimulus":"[\"img/0875/8521fd58-3b1e-4dc5-97ae-804edfa6734a.jpg\",\"img/0903/8fcafe03-43df-4c45-9da5-0df3a1eeccc5.jpg\"]","trial_type":"similarity","trial_index":29,"time_elapsed":158989,"internal_node_id":"0.0-6.0-23.0"},{"sim_score":3,"rt":2742,"stimulus":"[\"img/0769/11518cb3-13ea-4dd0-890c-30cfab728ade.jpg\",\"img/0881/2a8413be-fec2-4de6-88ad-614dd4cccc9d.jpg\"]","trial_type":"similarity","trial_index":30,"time_elapsed":162741,"internal_node_id":"0.0-6.0-24.0"},{"sim_score":3,"rt":2530,"stimulus":"[\"img/0867/cc72ed48-7704-422c-86d6-467a1145287a.jpg\",\"img/0904/1d10df11-b5c8-4370-9a6b-097a7f965895.jpg\"]","trial_type":"similarity","trial_index":31,"time_elapsed":166285,"internal_node_id":"0.0-6.0-25.0"},{"sim_score":5,"rt":3056,"stimulus":"[\"img/0860/5383b320-1518-4095-a58e-5cc1ae30b64c.jpg\",\"img/0881/f037e3b0-09cb-4a83-b2d9-6a71fe474e63.jpg\"]","trial_type":"similarity","trial_index":32,"time_elapsed":170357,"internal_node_id":"0.0-6.0-26.0"},{"sim_score":4,"rt":3634,"stimulus":"[\"img/0866/a04d37f0-99dd-478a-b6c6-58b215138f84.jpg\",\"img/0866/23a224f3-2012-4fc8-8e0f-3c36f8de27fd.jpg\"]","trial_type":"similarity","trial_index":33,"time_elapsed":175006,"internal_node_id":"0.0-6.0-27.0"},{"sim_score":3,"rt":2937,"stimulus":"[\"img/0764/e0788029-9d7f-414c-b747-46d2a99f7c86.jpg\",\"img/0862/fad1d7c1-8187-43c3-942a-0fc12183e48e.jpg\"]","trial_type":"similarity","trial_index":34,"time_elapsed":178959,"internal_node_id":"0.0-6.0-28.0"},{"sim_score":3,"rt":2474,"stimulus":"[\"img/0904/9dd5708f-3f8b-46a9-b49f-2f2fab87b357.jpg\",\"img/0758/2fa3e613-e676-4e6e-bd12-705327eeb3e1.jpg\"]","trial_type":"similarity","trial_index":35,"time_elapsed":182446,"internal_node_id":"0.0-6.0-29.0"},{"sim_score":5,"rt":3372,"stimulus":"[\"img/0894/9b1333fd-3561-43bf-aee5-99b7b7ca3dc3.jpg\",\"img/0899/ddf96ade-692e-4602-bd22-dedbb46401bc.jpg\"]","trial_type":"similarity","trial_index":36,"time_elapsed":186839,"internal_node_id":"0.0-6.0-30.0"},{"sim_score":4,"rt":3002,"stimulus":"[\"img/0860/524b2e98-5767-4d53-942c-ebae6925659b.jpg\",\"img/0904/06dacdc5-2206-4fb8-92b7-88042d22833c.jpg\"]","trial_type":"similarity","trial_index":37,"time_elapsed":190879,"internal_node_id":"0.0-6.0-31.0"},{"sim_score":4,"rt":3520,"stimulus":"[\"img/0874/ca76a855-4e77-4f2f-872a-0a718153e7ed.jpg\",\"img/0881/d373cb9f-a719-4549-a2a4-82def79fb2a5.jpg\"]","trial_type":"similarity","trial_index":38,"time_elapsed":195415,"internal_node_id":"0.0-6.0-32.0"},{"sim_score":3,"rt":2563,"stimulus":"[\"img/0881/7e822106-76f7-4b10-a805-14dc68b2cfaf.jpg\",\"img/0899/8abe6c69-822c-436c-9bf2-96c818b49ba5.jpg\"]","trial_type":"similarity","trial_index":39,"time_elapsed":198991,"internal_node_id":"0.0-6.0-33.0"},{"sim_score":3,"rt":2397,"stimulus":"[\"img/0866/93a27239-8317-4e08-98ca-d8b1ff298e07.jpg\",\"img/0862/47ed5efd-4ec9-4b74-bb4e-a5f5cf0c3e7d.jpg\"]","trial_type":"similarity","trial_index":40,"time_elapsed":202400,"internal_node_id":"0.0-6.0-34.0"},{"sim_score":4,"rt":3675,"stimulus":"[\"img/0868/179a5502-ab5c-478e-8263-5a1fbcc101d2.jpg\",\"img/0894/767a0eec-1064-46b1-b1aa-dfa02b0cd74e.jpg\"]","trial_type":"similarity","trial_index":41,"time_elapsed":207088,"internal_node_id":"0.0-6.0-35.0"},{"sim_score":4,"rt":2432,"stimulus":"[\"img/0860/c7047cd2-7cc1-41b6-8a34-c0986774975f.jpg\",\"img/0860/99c589b9-9140-4d17-90c0-b344323edcda.jpg\"]","trial_type":"similarity","trial_index":42,"time_elapsed":210536,"internal_node_id":"0.0-6.0-36.0"},{"sim_score":4,"rt":2855,"stimulus":"[\"img/0862/5d887e9f-89e2-4ebc-80a0-6d46fe6480db.jpg\",\"img/0864/1d15626a-2f7c-410f-819c-0fa2c967e95e.jpg\"]","trial_type":"similarity","trial_index":43,"time_elapsed":214408,"internal_node_id":"0.0-6.0-37.0"},{"sim_score":3,"rt":2804,"stimulus":"[\"img/0766/26d3ae14-8275-4e08-99b2-a6598c193ddf.jpg\",\"img/0866/9b38d691-1802-4959-ab3f-fc902f0e4ea6.jpg\"]","trial_type":"similarity","trial_index":44,"time_elapsed":218233,"internal_node_id":"0.0-6.0-38.0"},{"sim_score":3,"rt":4064,"stimulus":"[\"img/0875/cff79b3a-a797-4393-9757-6275f999ec04.jpg\",\"img/0898/661621d4-a14e-487c-8c74-354134a29710.jpg\"]","trial_type":"similarity","trial_index":45,"time_elapsed":223313,"internal_node_id":"0.0-6.0-39.0"},{"sim_score":4,"rt":3669,"stimulus":"[\"img/0766/5d1b8041-c5a1-4b02-b4fe-3453d98a0d72.jpg\",\"img/0769/82ab9db6-4578-4e79-874f-f09100439f09.jpg\"]","trial_type":"similarity","trial_index":46,"time_elapsed":228001,"internal_node_id":"0.0-6.0-40.0"},{"sim_score":5,"rt":3309,"stimulus":"[\"img/0874/2c9464dd-8a23-4baa-ac94-1ba3af5c15cc.jpg\",\"img/0764/a86eed5b-d0af-4c3f-8c7a-26e98e98cf1a.jpg\"]","trial_type":"similarity","trial_index":47,"time_elapsed":234721,"internal_node_id":"0.0-6.0-41.0"},{"sim_score":2,"rt":2827,"stimulus":"[\"img/0868/09a9ef4d-d000-4cfa-a6aa-ebec7c2edeb4.jpg\",\"img/0902/40d0b6ec-3907-4573-b227-e7d8e9cad1c3.jpg\"]","trial_type":"similarity","trial_index":48,"time_elapsed":238570,"internal_node_id":"0.0-6.0-42.0"},{"sim_score":3,"rt":2588,"stimulus":"[\"img/0875/99698b4d-b4a1-44bc-8c83-8ea755bbbf61.jpg\",\"img/0899/7f9d45d0-b2c6-40d3-aa41-c207db2c411b.jpg\"]","trial_type":"similarity","trial_index":49,"time_elapsed":242170,"internal_node_id":"0.0-6.0-43.0"},{"sim_score":2,"rt":2626,"stimulus":"[\"img/0866/02f5e6b9-52b7-448c-9708-5b460d0c9a23.jpg\",\"img/0860/94ef7afc-e0e6-4a15-98c6-0bfac82bc832.jpg\"]","trial_type":"similarity","trial_index":50,"time_elapsed":245810,"internal_node_id":"0.0-6.0-44.0"},{"sim_score":2,"rt":2751,"stimulus":"[\"img/0766/5d6e0d1d-4369-41f0-a64c-91f3503055c7.jpg\",\"img/0903/81368973-de81-46f4-844f-b901f3bfd66d.jpg\"]","trial_type":"similarity","trial_index":51,"time_elapsed":249579,"internal_node_id":"0.0-6.0-45.0"},{"sim_score":2,"rt":3660,"stimulus":"[\"img/0901/d6d15b1c-4a30-4f74-a3fd-d4c8ee4169ca.jpg\",\"img/0904/4b8daf2a-13a9-4ea9-9e0b-b265b6e933e7.jpg\"]","trial_type":"similarity","trial_index":52,"time_elapsed":254251,"internal_node_id":"0.0-6.0-46.0"},{"sim_score":3,"rt":2997,"stimulus":"[\"img/0758/7ffbc76b-1fc1-432c-8f7e-9ec8d1b3f643.jpg\",\"img/0902/af45fe42-178c-4c1a-99ef-256e87e3b092.jpg\"]","trial_type":"similarity","trial_index":53,"time_elapsed":258259,"internal_node_id":"0.0-6.0-47.0"},{"sim_score":3,"rt":2908,"stimulus":"[\"img/0764/fb7d4a20-a475-465e-a74f-aa39a0d33d16.jpg\",\"img/0764/23ea9375-f801-4a96-9925-7d453da887c7.jpg\"]","trial_type":"similarity","trial_index":54,"time_elapsed":262179,"internal_node_id":"0.0-6.0-48.0"},{"sim_score":1,"rt":2150,"stimulus":"[\"img/0866/386235d2-6857-41e7-88a8-25cfc3430025.jpg\",\"img/0902/8af4182a-9af9-4212-a436-9195555112d6.jpg\"]","trial_type":"similarity","trial_index":55,"time_elapsed":265339,"internal_node_id":"0.0-6.0-49.0"},{"sim_score":1,"rt":2415,"stimulus":"[\"img/0764/cffc80b0-4a90-4acb-a530-6f480f3ca303.jpg\",\"img/0758/6cd8c362-ae2a-41eb-80a3-3a4f7ace1530.jpg\"]","trial_type":"similarity","trial_index":56,"time_elapsed":268772,"internal_node_id":"0.0-6.0-50.0"},{"sim_score":1,"rt":2340,"stimulus":"[\"img/0898/f3a3f225-1248-4ac7-b93b-f0ff28485bf3.jpg\",\"img/0894/b422d5c6-3c5a-49ae-a53e-7e88ac993f49.jpg\"]","trial_type":"similarity","trial_index":57,"time_elapsed":272124,"internal_node_id":"0.0-6.0-51.0"},{"sim_score":4,"rt":3205,"stimulus":"[\"img/0875/5a7c4e35-6514-4e12-8879-d16071da4cd6.jpg\",\"img/0866/11a1d141-be5e-443c-98c1-a9d4d9e3dec0.jpg\"]","trial_type":"similarity","trial_index":58,"time_elapsed":276348,"internal_node_id":"0.0-6.0-52.0"},{"sim_score":3,"rt":3051,"stimulus":"[\"img/0904/b5855d6a-7ef9-46ca-9215-6e9fa046e543.jpg\",\"img/0904/60d1a521-edf7-4696-9263-f21ac0e62a01.jpg\"]","trial_type":"similarity","trial_index":59,"time_elapsed":280413,"internal_node_id":"0.0-6.0-53.0"},{"sim_score":2,"rt":3680,"stimulus":"[\"img/0769/96556ef3-7fac-4c9d-8281-1cb0ea5081bc.jpg\",\"img/0769/0fe124d3-bcad-45f6-b64d-8f6eb8ee5251.jpg\"]","trial_type":"similarity","trial_index":60,"time_elapsed":285109,"internal_node_id":"0.0-6.0-54.0"},{"sim_score":4,"rt":3238,"stimulus":"[\"img/0898/0af304a2-6a7a-4082-ab7c-4450cd08cc58.jpg\",\"img/0758/e1ba5e53-addc-436a-b428-d34fc1b130dc.jpg\"]","trial_type":"similarity","trial_index":61,"time_elapsed":289365,"internal_node_id":"0.0-6.0-55.0"},{"sim_score":3,"rt":3816,"stimulus":"[\"img/0769/f73c5138-2f4c-4354-981c-129dff9cc734.jpg\",\"img/0902/0eb85fbc-27c8-41df-9d0b-a5f9efd417d1.jpg\"]","trial_type":"similarity","trial_index":62,"time_elapsed":294189,"internal_node_id":"0.0-6.0-56.0"},{"sim_score":5,"rt":4320,"stimulus":"[\"img/0864/5f74a653-3bdc-4308-8cca-ac667dc22e1f.jpg\",\"img/0881/6b1189e6-232d-4042-8885-16dc7b10e0d4.jpg\"]","trial_type":"similarity","trial_index":63,"time_elapsed":299526,"internal_node_id":"0.0-6.0-57.0"},{"sim_score":1,"rt":2575,"stimulus":"[\"img/0758/dd559618-7f09-4a07-8018-d311c4a5ea29.jpg\",\"img/0868/3a62db2d-97e9-44a3-b8e3-a48c6f0e423b.jpg\"]","trial_type":"similarity","trial_index":64,"time_elapsed":303110,"internal_node_id":"0.0-6.0-58.0"},{"sim_score":2,"rt":2622,"stimulus":"[\"img/0862/eefa5588-9efd-4591-aa5f-a2e17c7d7bcc.jpg\",\"img/0769/4680bcc3-8fbc-4643-8f9a-12aa0e780b64.jpg\"]","trial_type":"similarity","trial_index":65,"time_elapsed":306750,"internal_node_id":"0.0-6.0-59.0"},{"sim_score":3,"rt":3059,"stimulus":"[\"img/0764/ca9829fe-aaf8-45b8-b98a-6bae751c63dd.jpg\",\"img/0903/f67c4ab9-f8c2-4fcd-848a-a54a7b031002.jpg\"]","trial_type":"similarity","trial_index":66,"time_elapsed":310815,"internal_node_id":"0.0-6.0-60.0"},{"sim_score":2,"rt":3470,"stimulus":"[\"img/0899/4f7bc593-8ddd-4da3-a0b9-84da730d3370.jpg\",\"img/0899/66ab3178-c3fe-4455-ad17-d5952b08e018.jpg\"]","trial_type":"similarity","trial_index":67,"time_elapsed":315295,"internal_node_id":"0.0-6.0-61.0"},{"sim_score":2,"rt":3394,"stimulus":"[\"img/0860/15b24a61-25be-4356-9eac-5ce95d0cb4a4.jpg\",\"img/0875/5a1e5100-0d94-4fec-bbe9-ca9894d2cf8e.jpg\"]","trial_type":"similarity","trial_index":68,"time_elapsed":319703,"internal_node_id":"0.0-6.0-62.0"},{"sim_score":1,"rt":2543,"stimulus":"[\"img/0868/15dd6fd7-791e-4b53-b203-195d617521a4.jpg\",\"img/0874/c0378dac-9370-439a-8b79-db27c96fb390.jpg\"]","trial_type":"similarity","trial_index":69,"time_elapsed":323271,"internal_node_id":"0.0-6.0-63.0"},{"sim_score":1,"rt":2391,"stimulus":"[\"img/0758/61d64021-9214-4951-bdf8-f871f9827cf9.jpg\",\"img/0862/f188d4f0-76a4-4102-818c-a209969d73a5.jpg\"]","trial_type":"similarity","trial_index":70,"time_elapsed":326688,"internal_node_id":"0.0-6.0-64.0"},{"sim_score":1,"rt":3215,"stimulus":"[\"img/0904/b7c2a2c8-df33-4473-b3d4-ff7147c60db3.jpg\",\"img/0898/224c1572-56b9-4f16-a9e4-6f3bc9c114bd.jpg\"]","trial_type":"similarity","trial_index":71,"time_elapsed":330912,"internal_node_id":"0.0-6.0-65.0"},{"sim_score":2,"rt":2548,"stimulus":"[\"img/0881/f4e3e181-b3c9-4af2-a5a4-fc135ab70d2e.jpg\",\"img/0866/945c6710-d15b-4a5b-a8f6-69af0850357f.jpg\"]","trial_type":"similarity","trial_index":72,"time_elapsed":334480,"internal_node_id":"0.0-6.0-66.0"},{"sim_score":3,"rt":2692,"stimulus":"[\"img/0867/075e0f95-856b-4cbb-acf5-092393aaf04e.jpg\",\"img/0898/01bfe666-3510-4fc7-964f-d00d28732dc8.jpg\"]","trial_type":"similarity","trial_index":73,"time_elapsed":338192,"internal_node_id":"0.0-6.0-67.0"},{"sim_score":2,"rt":3087,"stimulus":"[\"img/0902/6c2c243a-f663-45db-baf5-038d3d58c589.jpg\",\"img/0764/03c07b98-3f18-4b71-bb70-ecff564a78d1.jpg\"]","trial_type":"similarity","trial_index":74,"time_elapsed":342288,"internal_node_id":"0.0-6.0-68.0"},{"sim_score":2,"rt":2402,"stimulus":"[\"img/0875/a4935837-7d3c-4df6-88c1-36a94d4991ca.jpg\",\"img/0867/db7e032f-162b-46f5-ae67-2b29679adee4.jpg\"]","trial_type":"similarity","trial_index":75,"time_elapsed":345713,"internal_node_id":"0.0-6.0-69.0"},{"sim_score":2,"rt":3946,"stimulus":"[\"img/0766/33519c22-aaa4-49d7-8d49-ab551db1945e.jpg\",\"img/0764/6c7fe363-2d37-418f-9e5e-a3273af5d4fb.jpg\"]","trial_type":"similarity","trial_index":76,"time_elapsed":350673,"internal_node_id":"0.0-6.0-70.0"},{"sim_score":3,"rt":3323,"stimulus":"[\"img/0894/10f22b96-040c-44f4-950b-a4963f3f506c.jpg\",\"img/0867/bf560d4f-dee3-4f11-a385-705cc1aa5f3c.jpg\"]","trial_type":"similarity","trial_index":77,"time_elapsed":355009,"internal_node_id":"0.0-6.0-71.0"},{"sim_score":4,"rt":2747,"stimulus":"[\"img/0875/f87b67d7-c33e-40d1-b281-248c4be1cb6e.jpg\",\"img/0764/8389e74f-e0e0-435d-945f-da1f4c92ccb6.jpg\"]","trial_type":"similarity","trial_index":78,"time_elapsed":358770,"internal_node_id":"0.0-6.0-72.0"},{"sim_score":2,"rt":3082,"stimulus":"[\"img/0867/a749dddb-69f0-44a6-acdc-2bf295cf6dcc.jpg\",\"img/0866/f756f7d1-9ad8-4a34-9ef6-7a443d705bfe.jpg\"]","trial_type":"similarity","trial_index":79,"time_elapsed":362874,"internal_node_id":"0.0-6.0-73.0"},{"sim_score":2,"rt":2817,"stimulus":"[\"img/0903/9b60ef5b-234f-4239-892b-3d4c412accc2.jpg\",\"img/0758/3ddd05d3-557e-4ee7-8b78-9d2d681d8ae2.jpg\"]","trial_type":"similarity","trial_index":80,"time_elapsed":366698,"internal_node_id":"0.0-6.0-74.0"},{"sim_score":2,"rt":2706,"stimulus":"[\"img/0766/535849cc-ff5d-4df9-8f31-0ce94a97d571.jpg\",\"img/0868/77091fc7-a590-4ebb-b915-fdb2483a2399.jpg\"]","trial_type":"similarity","trial_index":81,"time_elapsed":370418,"internal_node_id":"0.0-6.0-75.0"},{"sim_score":2,"rt":3044,"stimulus":"[\"img/0874/1016b306-087c-4afc-aa08-fa527b28dc76.jpg\",\"img/0766/908bc45b-7c9e-4f95-806e-86b196ebcb2c.jpg\"]","trial_type":"similarity","trial_index":82,"time_elapsed":374475,"internal_node_id":"0.0-6.0-76.0"},{"sim_score":2,"rt":2720,"stimulus":"[\"img/0881/f8bd891e-aa09-4782-89db-33e7cb2b0cf1.jpg\",\"img/0868/4a8a45ed-2c4f-421b-9564-409a33ecd26c.jpg\"]","trial_type":"similarity","trial_index":83,"time_elapsed":378211,"internal_node_id":"0.0-6.0-77.0"},{"sim_score":4,"rt":2699,"stimulus":"[\"img/0758/821c68d3-5cb0-4eae-8659-30e6263fca39.jpg\",\"img/0901/875dedb9-24c9-4443-9f8c-85e97d70ee5a.jpg\"]","trial_type":"similarity","trial_index":84,"time_elapsed":381915,"internal_node_id":"0.0-6.0-78.0"},{"sim_score":2,"rt":2837,"stimulus":"[\"img/0881/445edb15-bd7f-4af3-8bd5-c6ad9677bb31.jpg\",\"img/0898/08c72dac-f8ad-407a-9ce6-8c9a5d679c3a.jpg\"]","trial_type":"similarity","trial_index":85,"time_elapsed":385771,"internal_node_id":"0.0-6.0-79.0"},{"sim_score":2,"rt":2211,"stimulus":"[\"img/0867/c66898ba-b71b-4d50-84f9-f7f84853a98d.jpg\",\"img/0758/53f35650-e455-4b53-8be4-c3c8271c6466.jpg\"]","trial_type":"similarity","trial_index":86,"time_elapsed":389003,"internal_node_id":"0.0-6.0-80.0"},{"sim_score":2,"rt":2791,"stimulus":"[\"img/0769/75f7e514-0548-4329-b1e4-93c05e74f038.jpg\",\"img/0899/51a7a498-98c7-42d7-bca8-bc2d8f0b5831.jpg\"]","trial_type":"similarity","trial_index":87,"time_elapsed":392812,"internal_node_id":"0.0-6.0-81.0"},{"sim_score":2,"rt":2765,"stimulus":"[\"img/0903/5248eedd-7e6a-4d39-91b0-06ec227f3ed0.jpg\",\"img/0903/776b74ee-a8ab-4ab8-a78d-097c0747538d.jpg\"]","trial_type":"similarity","trial_index":88,"time_elapsed":396604,"internal_node_id":"0.0-6.0-82.0"},{"sim_score":2,"rt":2829,"stimulus":"[\"img/0867/2e1a0b58-cdb1-4107-a14e-452530d7b9b0.jpg\",\"img/0766/2746b119-4bba-463e-acf0-88136dc6600c.jpg\"]","trial_type":"similarity","trial_index":89,"time_elapsed":401836,"internal_node_id":"0.0-6.0-83.0"},{"sim_score":1,"rt":2506,"stimulus":"[\"img/0902/1f4a4c62-68c1-4993-b213-05652a173ed1.jpg\",\"img/0867/f8488a47-94ee-4166-952c-44e16cf172f6.jpg\"]","trial_type":"similarity","trial_index":90,"time_elapsed":405365,"internal_node_id":"0.0-6.0-84.0"},{"sim_score":2,"rt":2916,"stimulus":"[\"img/0901/a0d65c84-3f20-476a-92d1-0c01e8019cf4.jpg\",\"img/0875/ebf7653f-ff45-4e9f-af58-2c042ab3cd2b.jpg\"]","trial_type":"similarity","trial_index":91,"time_elapsed":409301,"internal_node_id":"0.0-6.0-85.0"},{"sim_score":2,"rt":2539,"stimulus":"[\"img/0764/55b3fab1-b809-4d38-a461-3f40ce062f52.jpg\",\"img/0866/c446214b-a368-4c65-ae39-ea46894256ab.jpg\"]","trial_type":"similarity","trial_index":92,"time_elapsed":412853,"internal_node_id":"0.0-6.0-86.0"},{"sim_score":2,"rt":3031,"stimulus":"[\"img/0901/548d1110-7cb8-42a2-9927-9798875c8b5c.jpg\",\"img/0894/0130a973-d993-41f8-874a-fee23d9ac11f.jpg\"]","trial_type":"similarity","trial_index":93,"time_elapsed":416901,"internal_node_id":"0.0-6.0-87.0"},{"sim_score":2,"rt":3354,"stimulus":"[\"img/0898/cd3aaa3f-efa9-4ab3-8d6f-a6a9273ddf42.jpg\",\"img/0769/f2740c58-7c02-433f-920b-746b0b75435b.jpg\"]","trial_type":"similarity","trial_index":94,"time_elapsed":421278,"internal_node_id":"0.0-6.0-88.0"},{"sim_score":2,"rt":3956,"stimulus":"[\"img/0769/965c3c44-d9e5-47c5-b61a-2bbdf4215d9a.jpg\",\"img/0894/5f15154e-e72e-4ce5-aafb-bce6f0564006.jpg\"]","trial_type":"similarity","trial_index":95,"time_elapsed":426246,"internal_node_id":"0.0-6.0-89.0"},{"sim_score":2,"rt":3030,"stimulus":"[\"img/0862/fb26cb07-d5a9-4653-813c-f41609f26cd5.jpg\",\"img/0874/bf14b896-e930-4fd9-9c05-2e83317a2773.jpg\"]","trial_type":"similarity","trial_index":96,"time_elapsed":430286,"internal_node_id":"0.0-6.0-90.0"},{"sim_score":2,"rt":3694,"stimulus":"[\"img/0894/2217bdcd-23a7-42d3-823b-23f2488d7e87.jpg\",\"img/0766/db750ba0-ce04-46e1-b601-e1b80212bad2.jpg\"]","trial_type":"similarity","trial_index":97,"time_elapsed":434990,"internal_node_id":"0.0-6.0-91.0"},{"sim_score":2,"rt":2897,"stimulus":"[\"img/0874/adf9a8f1-c40b-402b-b95b-1e85a54a7b62.jpg\",\"img/0867/f26f6b60-f772-4f4c-95a4-addc62cfd692.jpg\"]","trial_type":"similarity","trial_index":98,"time_elapsed":438911,"internal_node_id":"0.0-6.0-92.0"},{"sim_score":2,"rt":2293,"stimulus":"[\"img/0899/0433d056-aa30-4f8a-9aa1-abbb951e4edd.jpg\",\"img/0868/c8ac40c7-6904-4e13-8d61-c75d3052dc4e.jpg\"]","trial_type":"similarity","trial_index":99,"time_elapsed":442215,"internal_node_id":"0.0-6.0-93.0"},{"sim_score":2,"rt":2863,"stimulus":"[\"img/0903/365f176c-25a4-4973-bd3c-279bf1b39476.jpg\",\"img/0862/4f0a3b4c-afbf-486e-b248-1d54982f54b4.jpg\"]","trial_type":"similarity","trial_index":100,"time_elapsed":446087,"internal_node_id":"0.0-6.0-94.0"},{"sim_score":2,"rt":4010,"stimulus":"[\"img/0899/fef567a2-c121-4481-9af0-ff108d199bbf.jpg\",\"img/0766/717fd72f-a281-499b-a5ba-5e2ecc4d4866.jpg\"]","trial_type":"similarity","trial_index":101,"time_elapsed":451112,"internal_node_id":"0.0-6.0-95.0"},{"sim_score":3,"rt":4191,"stimulus":"[\"img/0867/12264664-1860-46df-8c21-162b9817cdda.jpg\",\"img/0868/0d3abd3a-b6c3-4584-a9f7-e2da63748b3d.jpg\"]","trial_type":"similarity","trial_index":102,"time_elapsed":456320,"internal_node_id":"0.0-6.0-96.0"},{"sim_score":5,"rt":3332,"stimulus":"[\"img/0862/f43ceabf-acc1-4107-b857-5d1849808f93.jpg\",\"img/0901/d61f267a-c492-4db6-9bfb-61efd49cf072.jpg\"]","trial_type":"similarity","trial_index":103,"time_elapsed":460664,"internal_node_id":"0.0-6.0-97.0"},{"sim_score":2,"rt":2743,"stimulus":"[\"img/0875/34132396-d896-4c2d-8087-646dd867e769.jpg\",\"img/0766/b84598d0-5b41-4841-88b0-b441b48289f5.jpg\"]","trial_type":"similarity","trial_index":104,"time_elapsed":464440,"internal_node_id":"0.0-6.0-98.0"},{"sim_score":5,"rt":2817,"stimulus":"[\"img/0758/20497cbe-ddae-489e-86e2-ab06985ed07c.jpg\",\"img/0874/7e4f2150-3b59-4a36-b5da-a4e0ba410531.jpg\"]","trial_type":"similarity","trial_index":105,"time_elapsed":468265,"internal_node_id":"0.0-6.0-99.0"},{"sim_score":1,"rt":3215,"stimulus":"[\"img/0904/4d7d70a3-9477-4921-bda0-f9531d0a5c5b.jpg\",\"img/0868/7b212364-ff5f-4e28-9241-7eb6ea00161b.jpg\"]","trial_type":"similarity","trial_index":106,"time_elapsed":472497,"internal_node_id":"0.0-6.0-100.0"},{"sim_score":1,"rt":2796,"stimulus":"[\"img/0903/3e9ee8a5-eb66-47f5-8973-8a5af1ddc87e.jpg\",\"img/0866/620cd1aa-0800-4414-8f6e-90342e7a99ad.jpg\"]","trial_type":"similarity","trial_index":107,"time_elapsed":476313,"internal_node_id":"0.0-6.0-101.0"},{"sim_score":1,"rt":2661,"stimulus":"[\"img/0868/d6d1f30d-4323-435a-b194-7892521bc57e.jpg\",\"img/0769/48a1144d-fbda-4809-991b-fc8424a32ee4.jpg\"]","trial_type":"similarity","trial_index":108,"time_elapsed":479985,"internal_node_id":"0.0-6.0-102.0"},{"sim_score":2,"rt":3438,"stimulus":"[\"img/0902/62f11694-7ed7-4cb7-8a73-9e95c43824e7.jpg\",\"img/0899/f95cbdb4-f804-4f5d-ad76-373ad343e658.jpg\"]","trial_type":"similarity","trial_index":109,"time_elapsed":484434,"internal_node_id":"0.0-6.0-103.0"},{"sim_score":1,"rt":2487,"stimulus":"[\"img/0868/5fa7f9d0-f0e5-454c-8224-74d964818f56.jpg\",\"img/0862/00c06b00-3b73-44e9-bc1e-c5aafb438321.jpg\"]","trial_type":"similarity","trial_index":110,"time_elapsed":487930,"internal_node_id":"0.0-6.0-104.0"},{"sim_score":2,"rt":3535,"stimulus":"[\"img/0903/ea75f240-fb62-4edb-a709-83e858b202c0.jpg\",\"img/0894/38cf335f-f76f-4349-8d65-e20cd6859565.jpg\"]","trial_type":"similarity","trial_index":111,"time_elapsed":492474,"internal_node_id":"0.0-6.0-105.0"},{"sim_score":2,"rt":3429,"stimulus":"[\"img/0864/ef9cbca0-4be8-435d-ad49-977259e80409.jpg\",\"img/0874/eba003b4-cdab-4eee-8bc3-f064c7d94165.jpg\"]","trial_type":"similarity","trial_index":112,"time_elapsed":496915,"internal_node_id":"0.0-6.0-106.0"},{"sim_score":2,"rt":3215,"stimulus":"[\"img/0862/de9ad88c-b522-430a-8ee9-eb06a9f85df5.jpg\",\"img/0902/8065aa6b-4aef-4368-afa2-02c6465ca582.jpg\"]","trial_type":"similarity","trial_index":113,"time_elapsed":501147,"internal_node_id":"0.0-6.0-107.0"},{"sim_score":5,"rt":3354,"stimulus":"[\"img/0904/65e2b70a-b184-4da3-b5c0-5038bdf9469a.jpg\",\"img/0903/2a9c8033-3e70-47fa-816d-97ee1813a3a3.jpg\"]","trial_type":"similarity","trial_index":114,"time_elapsed":505515,"internal_node_id":"0.0-6.0-108.0"},{"sim_score":3,"rt":3762,"stimulus":"[\"img/0764/f990b2e8-ecee-481e-be7c-0239fce350e2.jpg\",\"img/0864/1ebbc554-99fa-49f9-8799-317375a79820.jpg\"]","trial_type":"similarity","trial_index":115,"time_elapsed":510291,"internal_node_id":"0.0-6.0-109.0"},{"sim_score":1,"rt":3486,"stimulus":"[\"img/0866/d493a2c8-66eb-44b4-be02-2f327b700b7c.jpg\",\"img/0894/c505c65a-cde2-4f2c-8cde-f8676f7c894d.jpg\"]","trial_type":"similarity","trial_index":116,"time_elapsed":514788,"internal_node_id":"0.0-6.0-110.0"},{"sim_score":1,"rt":2632,"stimulus":"[\"img/0899/25ae6ec8-9565-49fe-a8bb-8d0666f52716.jpg\",\"img/0903/005ad0de-4f52-433c-b515-dbe8d46184a3.jpg\"]","trial_type":"similarity","trial_index":117,"time_elapsed":518436,"internal_node_id":"0.0-6.0-111.0"},{"sim_score":1,"rt":2785,"stimulus":"[\"img/0902/aa6fca32-82b0-4414-b20a-8f6f8aa5a2d2.jpg\",\"img/0904/e9423a8c-f946-43ad-ab7b-931acef870e2.jpg\"]","trial_type":"similarity","trial_index":118,"time_elapsed":522236,"internal_node_id":"0.0-6.0-112.0"},{"sim_score":2,"rt":2618,"stimulus":"[\"img/0864/5f33e097-23e3-4002-882d-76e8cb15f451.jpg\",\"img/0860/c5ccd1a4-4bb7-48e1-9b25-72cfaf06909b.jpg\"]","trial_type":"similarity","trial_index":119,"time_elapsed":525877,"internal_node_id":"0.0-6.0-113.0"},{"sim_score":1,"rt":2937,"stimulus":"[\"img/0860/8fdba999-b946-4c7d-9891-336018b563ef.jpg\",\"img/0899/0e1d936a-dbe2-4afc-9f19-7b7a1ae6c9ed.jpg\"]","trial_type":"similarity","trial_index":120,"time_elapsed":529829,"internal_node_id":"0.0-6.0-114.0"},{"sim_score":1,"rt":2637,"stimulus":"[\"img/0881/ee44e27f-d662-4608-b265-e7ffa19b216f.jpg\",\"img/0903/72197c2b-403e-4a26-b391-f1aa8dea4b76.jpg\"]","trial_type":"similarity","trial_index":121,"time_elapsed":533477,"internal_node_id":"0.0-6.0-115.0"},{"sim_score":1,"rt":3513,"stimulus":"[\"img/0894/661b9f9f-4bde-487a-b1ed-87085fde6948.jpg\",\"img/0874/29830da7-be5f-44e5-b141-652a0ccf7269.jpg\"]","trial_type":"similarity","trial_index":122,"time_elapsed":537997,"internal_node_id":"0.0-6.0-116.0"},{"sim_score":2,"rt":3670,"stimulus":"[\"img/0881/5fe04dd0-5c74-47b7-99c8-b068db9ca26a.jpg\",\"img/0862/e697469a-ec19-4414-b972-7b9f3564785b.jpg\"]","trial_type":"similarity","trial_index":123,"time_elapsed":542677,"internal_node_id":"0.0-6.0-117.0"},{"sim_score":5,"rt":3161,"stimulus":"[\"img/0868/1a62b2b2-18f5-466e-b564-5176a57c565e.jpg\",\"img/0875/5a716432-c6ca-4b1c-955a-2b8ac25198ee.jpg\"]","trial_type":"similarity","trial_index":124,"time_elapsed":546854,"internal_node_id":"0.0-6.0-118.0"},{"sim_score":3,"rt":2327,"stimulus":"[\"img/0860/e8b8c51e-1834-4875-8b61-6c5bc9b178bd.jpg\",\"img/0758/d41c06bf-ebaf-454b-91c6-1a17f917b659.jpg\"]","trial_type":"similarity","trial_index":125,"time_elapsed":550190,"internal_node_id":"0.0-6.0-119.0"},{"sim_score":1,"rt":3217,"stimulus":"[\"img/0864/efcfbb1b-8197-44c9-b723-40d6c608dd3c.jpg\",\"img/0875/3ecb367d-e9eb-4826-8aaa-7aa72fb98019.jpg\"]","trial_type":"similarity","trial_index":126,"time_elapsed":554416,"internal_node_id":"0.0-6.0-120.0"},{"sim_score":1,"rt":2686,"stimulus":"[\"img/0898/26c41340-15bd-4ead-8fe4-c0d0ddca09c2.jpg\",\"img/0866/8efcaa46-83ab-4dee-a35f-850402aa21ae.jpg\"]","trial_type":"similarity","trial_index":127,"time_elapsed":558118,"internal_node_id":"0.0-6.0-121.0"},{"sim_score":1,"rt":2741,"stimulus":"[\"img/0874/a3bc679d-619f-4db6-bb68-116dcb757d9c.jpg\",\"img/0904/09dac84f-3d1c-4445-a68e-d0389fdbf1e9.jpg\"]","trial_type":"similarity","trial_index":128,"time_elapsed":561879,"internal_node_id":"0.0-6.0-122.0"},{"sim_score":1,"rt":3222,"stimulus":"[\"img/0904/da170c1b-9651-4f08-b231-2bdd1d9a046f.jpg\",\"img/0864/66091c27-e588-4476-8af9-265dc6be4156.jpg\"]","trial_type":"similarity","trial_index":129,"time_elapsed":566111,"internal_node_id":"0.0-6.0-123.0"},{"sim_score":1,"rt":3504,"stimulus":"[\"img/0894/8cadb87a-7001-4e47-99fb-1867bebf1668.jpg\",\"img/0902/04a6ad4a-afc6-4871-8225-56b299af7b6b.jpg\"]","trial_type":"similarity","trial_index":130,"time_elapsed":570623,"internal_node_id":"0.0-6.0-124.0"},{"sim_score":1,"rt":2746,"stimulus":"[\"img/0868/e0aff734-077f-40dd-9781-74821abd3621.jpg\",\"img/0864/3651d070-2fc5-4848-b6a6-088a2d9ac5c9.jpg\"]","trial_type":"similarity","trial_index":131,"time_elapsed":576127,"internal_node_id":"0.0-6.0-125.0"},{"sim_score":1,"rt":3112,"stimulus":"[\"img/0899/4408c14d-c168-4a7d-96f6-bc87bfb58f83.jpg\",\"img/0866/0207e9a2-7dbb-40b5-9459-b472aaeceb2a.jpg\"]","trial_type":"similarity","trial_index":132,"time_elapsed":580256,"internal_node_id":"0.0-6.0-126.0"},{"sim_score":1,"rt":2273,"stimulus":"[\"img/0875/e7e66b13-b573-431e-b85e-288ce04a35a3.jpg\",\"img/0904/63dd06dd-dccb-47ba-9740-eb33239e18a7.jpg\"]","trial_type":"similarity","trial_index":133,"time_elapsed":583552,"internal_node_id":"0.0-6.0-127.0"},{"sim_score":2,"rt":2584,"stimulus":"[\"img/0867/c71dc569-f49c-4397-8381-68b8d726736d.jpg\",\"img/0899/0adc0bc3-6fca-4078-be6f-d45ddf1653d5.jpg\"]","trial_type":"similarity","trial_index":134,"time_elapsed":587144,"internal_node_id":"0.0-6.0-128.0"},{"sim_score":1,"rt":2199,"stimulus":"[\"img/0901/5657dd86-0ff9-4753-ba2b-9dfb223e5c89.jpg\",\"img/0867/6e19c858-b606-45b2-a4c6-910a73f1d82c.jpg\"]","trial_type":"similarity","trial_index":135,"time_elapsed":590361,"internal_node_id":"0.0-6.0-129.0"},{"sim_score":2,"rt":2996,"stimulus":"[\"img/0864/6e846d43-94a6-4b37-a268-65eda979f052.jpg\",\"img/0769/d1be2815-fa79-46e8-b5c3-7d81caaca490.jpg\"]","trial_type":"similarity","trial_index":136,"time_elapsed":594377,"internal_node_id":"0.0-6.0-130.0"},{"sim_score":1,"rt":2309,"stimulus":"[\"img/0903/8931c67c-a43d-47d3-a4c9-42aa2f81d344.jpg\",\"img/0868/8b0b8473-e2c0-4331-aa56-c3a5c29369da.jpg\"]","trial_type":"similarity","trial_index":137,"time_elapsed":597705,"internal_node_id":"0.0-6.0-131.0"},{"sim_score":1,"rt":2634,"stimulus":"[\"img/0864/da39ad34-04e0-40d4-a724-c08d53e0ea09.jpg\",\"img/0867/5e07b34d-b40f-4b1c-ac10-49975bace45f.jpg\"]","trial_type":"similarity","trial_index":138,"time_elapsed":601353,"internal_node_id":"0.0-6.0-132.0"},{"sim_score":3,"rt":2747,"stimulus":"[\"img/0901/0adb3bd6-d758-4ba7-9723-3ad6cac05bd5.jpg\",\"img/0860/71e1aad0-2cdf-43bb-94a4-a8c016997c30.jpg\"]","trial_type":"similarity","trial_index":139,"time_elapsed":605114,"internal_node_id":"0.0-6.0-133.0"},{"sim_score":2,"rt":3296,"stimulus":"[\"img/0881/b549bc99-a61c-4450-bab5-9efc3a197bf0.jpg\",\"img/0766/71b81ebd-0937-4d7f-b8bf-c4e46a4728fd.jpg\"]","trial_type":"similarity","trial_index":140,"time_elapsed":609418,"internal_node_id":"0.0-6.0-134.0"},{"sim_score":1,"rt":2533,"stimulus":"[\"img/0903/71dbc325-b588-4297-a5cf-7f268a722ad9.jpg\",\"img/0864/a248adb3-c70b-4652-b7a3-776d2a1e904b.jpg\"]","trial_type":"similarity","trial_index":141,"time_elapsed":612970,"internal_node_id":"0.0-6.0-135.0"},{"sim_score":1,"rt":2863,"stimulus":"[\"img/0758/e38fd80d-18d0-42f3-b848-f930788e8bd7.jpg\",\"img/0894/e2446cf5-cd48-486a-badc-76498e087fbe.jpg\"]","trial_type":"similarity","trial_index":142,"time_elapsed":616850,"internal_node_id":"0.0-6.0-136.0"},{"sim_score":1,"rt":2737,"stimulus":"[\"img/0769/38a88f69-28fd-4bbd-99f0-f4c02bfd3995.jpg\",\"img/0860/f44ba3fb-03a2-42f0-8509-2c1ded493086.jpg\"]","trial_type":"similarity","trial_index":143,"time_elapsed":620611,"internal_node_id":"0.0-6.0-137.0"},{"sim_score":3,"rt":3719,"stimulus":"[\"img/0904/5aec2708-cf14-4a58-aa30-9a8a61c1be0e.jpg\",\"img/0766/989c5c7f-1aff-4442-ac63-9d46acf4a891.jpg\"]","trial_type":"similarity","trial_index":144,"time_elapsed":625347,"internal_node_id":"0.0-6.0-138.0"},{"sim_score":2,"rt":2959,"stimulus":"[\"img/0868/83b4350a-3b70-4cea-b7f5-b5b56f3050a8.jpg\",\"img/0860/5bff793e-cbd5-4d7e-b628-0ac2b0e30b64.jpg\"]","trial_type":"similarity","trial_index":145,"time_elapsed":629315,"internal_node_id":"0.0-6.0-139.0"},{"sim_score":2,"rt":2567,"stimulus":"[\"img/0758/67c0be2f-9e91-48b3-8219-70ac0a1802fa.jpg\",\"img/0864/4bd81bc6-c13d-46df-95a9-485886dc7c1b.jpg\"]","trial_type":"similarity","trial_index":146,"time_elapsed":632892,"internal_node_id":"0.0-6.0-140.0"},{"sim_score":6,"rt":3187,"stimulus":"[\"img/0867/a498eef3-9fa4-4ab2-9778-4ae82ac40dc5.jpg\",\"img/0867/de92135f-5b65-4ed9-b245-188292c7c2f8.jpg\"]","trial_type":"similarity","trial_index":147,"time_elapsed":637100,"internal_node_id":"0.0-6.0-141.0"},{"sim_score":5,"rt":4115,"stimulus":"[\"img/0898/82231d4c-218b-4d0a-b50d-35a49b524e97.jpg\",\"img/0898/b2732712-71c2-45d8-834f-2b2ed5504910.jpg\"]","trial_type":"similarity","trial_index":148,"time_elapsed":642228,"internal_node_id":"0.0-6.0-142.0"},{"sim_score":1,"rt":3184,"stimulus":"[\"img/0866/be24ab58-230e-4db8-9f45-ff04c9aec6bb.jpg\",\"img/0769/1ca58b80-2365-446d-9616-6c1719e6c46f.jpg\"]","trial_type":"similarity","trial_index":149,"time_elapsed":646420,"internal_node_id":"0.0-6.0-143.0"},{"sim_score":2,"rt":2827,"stimulus":"[\"img/0860/31ff6436-98bf-4652-bed2-40f627229568.jpg\",\"img/0898/68476bbb-34a1-42d9-8bc1-deab783d4489.jpg\"]","trial_type":"similarity","trial_index":150,"time_elapsed":650260,"internal_node_id":"0.0-6.0-144.0"},{"sim_score":2,"rt":2699,"stimulus":"[\"img/0766/00891401-e4c9-4ce1-bc19-f70740d174bc.jpg\",\"img/0864/f92649a2-0590-4d31-9a7a-1bfb81666a2d.jpg\"]","trial_type":"similarity","trial_index":151,"time_elapsed":653973,"internal_node_id":"0.0-6.0-145.0"},{"sim_score":1,"rt":2374,"stimulus":"[\"img/0860/17b44a7d-c5ca-479f-9e87-f65a64f5c80e.jpg\",\"img/0903/5ea5bbe0-f238-4724-abe7-9ed8dee8c0ba.jpg\"]","trial_type":"similarity","trial_index":152,"time_elapsed":657365,"internal_node_id":"0.0-6.0-146.0"},{"sim_score":2,"rt":2190,"stimulus":"[\"img/0867/50a1b60e-3a29-44bf-b606-d4bd3746fea9.jpg\",\"img/0764/b887d7c6-aa81-4637-af8e-05135757ac59.jpg\"]","trial_type":"similarity","trial_index":153,"time_elapsed":660565,"internal_node_id":"0.0-6.0-147.0"},{"sim_score":2,"rt":4773,"stimulus":"[\"img/0769/9ea27d61-3d55-418c-8d14-82e90f656f01.jpg\",\"img/0904/0d25eb24-bb20-4e8d-9787-8b489558b4cb.jpg\"]","trial_type":"similarity","trial_index":154,"time_elapsed":666350,"internal_node_id":"0.0-6.0-148.0"},{"sim_score":1,"rt":2872,"stimulus":"[\"img/0764/8740679b-b56f-4292-aece-14063457113a.jpg\",\"img/0901/04a53755-6da5-44d4-a7a6-48a6bc0a2280.jpg\"]","trial_type":"similarity","trial_index":155,"time_elapsed":670230,"internal_node_id":"0.0-6.0-149.0"},{"sim_score":2,"rt":3444,"stimulus":"[\"img/0904/0d17b811-063e-416e-a23c-3b3cfa4fcce5.jpg\",\"img/0899/d60714ae-98d7-4564-8c98-94dba1351135.jpg\"]","trial_type":"similarity","trial_index":156,"time_elapsed":674686,"internal_node_id":"0.0-6.0-150.0"},{"sim_score":1,"rt":2468,"stimulus":"[\"img/0862/99a99e39-8355-44ec-b993-e7bcec111e1c.jpg\",\"img/0867/8ba0c5a7-c7e4-42cf-a80a-543763b90779.jpg\"]","trial_type":"similarity","trial_index":157,"time_elapsed":678166,"internal_node_id":"0.0-6.0-151.0"},{"sim_score":6,"rt":3684,"stimulus":"[\"img/0766/006035d8-c736-4daf-bbe4-a9e373af9da6.jpg\",\"img/0766/2e1cf445-9aef-40e7-92f4-5facf48b64c5.jpg\"]","trial_type":"similarity","trial_index":158,"time_elapsed":682863,"internal_node_id":"0.0-6.0-152.0"},{"sim_score":3,"rt":3347,"stimulus":"[\"img/0862/1c20f772-3a51-4a80-aac0-f57dc9f86c28.jpg\",\"img/0894/7dd6ff43-f8fc-408a-8a41-a2b261871820.jpg\"]","trial_type":"similarity","trial_index":159,"time_elapsed":687231,"internal_node_id":"0.0-6.0-153.0"},{"sim_score":2,"rt":2810,"stimulus":"[\"img/0899/1b3457ea-87d4-4946-a01c-aac1863ed46c.jpg\",\"img/0901/b123d109-47b4-4f9a-80c9-9bb16da42efa.jpg\"]","trial_type":"similarity","trial_index":160,"time_elapsed":691063,"internal_node_id":"0.0-6.0-154.0"},{"sim_score":2,"rt":3356,"stimulus":"[\"img/0874/31e22c7c-99aa-40b1-bf03-dd73fa2df4d6.jpg\",\"img/0874/93d1f8dc-acf2-4f03-bd8d-8ec35df276ed.jpg\"]","trial_type":"similarity","trial_index":161,"time_elapsed":695439,"internal_node_id":"0.0-6.0-155.0"},{"sim_score":1,"rt":2072,"stimulus":"[\"img/0860/8277806e-b684-4474-8f7b-3fca946d7d4f.jpg\",\"img/0867/179ab87a-8eac-4c52-a41f-2e48e3120f09.jpg\"]","trial_type":"similarity","trial_index":162,"time_elapsed":698528,"internal_node_id":"0.0-6.0-156.0"},{"sim_score":2,"rt":3141,"stimulus":"[\"img/0901/62315ff5-ed95-46b4-b099-92552079659b.jpg\",\"img/0881/292e9b4b-fca0-4ba8-87f1-4048f9e37b7d.jpg\"]","trial_type":"similarity","trial_index":163,"time_elapsed":702688,"internal_node_id":"0.0-6.0-157.0"},{"sim_score":5,"rt":3116,"stimulus":"[\"img/0903/24477210-856c-4550-9de0-9f85a32762eb.jpg\",\"img/0902/d5e25767-e8ec-45f3-ac0a-7b4a6f7a9edc.jpg\"]","trial_type":"similarity","trial_index":164,"time_elapsed":706816,"internal_node_id":"0.0-6.0-158.0"},{"sim_score":1,"rt":2406,"stimulus":"[\"img/0860/702bd09d-df3a-40aa-a267-5f04474305b5.jpg\",\"img/0764/e48e6c6f-9e28-420f-836a-8043b2319bb4.jpg\"]","trial_type":"similarity","trial_index":165,"time_elapsed":710240,"internal_node_id":"0.0-6.0-159.0"},{"sim_score":5,"rt":3487,"stimulus":"[\"img/0902/2db723b6-130f-454c-8c8d-88829edbcd65.jpg\",\"img/0875/dbdd643e-6d0e-4a5c-ab57-b9c29b9c981a.jpg\"]","trial_type":"similarity","trial_index":166,"time_elapsed":714737,"internal_node_id":"0.0-6.0-160.0"},{"sim_score":4,"rt":2721,"stimulus":"[\"img/0898/8605a25b-6895-476d-8c13-df7a83f96093.jpg\",\"img/0862/ba89835a-408c-480b-8594-ed4ffa97eb5c.jpg\"]","trial_type":"similarity","trial_index":167,"time_elapsed":718465,"internal_node_id":"0.0-6.0-161.0"},{"sim_score":5,"rt":2725,"stimulus":"[\"img/0894/5ff3c4f6-52e2-4075-8679-be0312e59703.jpg\",\"img/0875/42910c99-5463-450a-a0f8-d4d060a11455.jpg\"]","trial_type":"similarity","trial_index":168,"time_elapsed":722201,"internal_node_id":"0.0-6.0-162.0"},{"sim_score":1,"rt":2426,"stimulus":"[\"img/0866/4a87911a-d5be-4d4e-ab8e-3d1f581bf507.jpg\",\"img/0864/6f631579-acf1-415c-a42c-1207f62a8d99.jpg\"]","trial_type":"similarity","trial_index":169,"time_elapsed":725649,"internal_node_id":"0.0-6.0-163.0"},{"sim_score":1,"rt":2385,"stimulus":"[\"img/0766/91fc8c4d-862f-4d2b-b1a1-2db8d729b6b7.jpg\",\"img/0862/ad593cc7-cabe-4bb7-8e14-8a447a0717b4.jpg\"]","trial_type":"similarity","trial_index":170,"time_elapsed":729050,"internal_node_id":"0.0-6.0-164.0"},{"sim_score":5,"rt":3816,"stimulus":"[\"img/0866/d266fece-59b3-46fa-b69f-96f6efb81b59.jpg\",\"img/0874/3f471690-9788-4d03-90c7-f615aecef149.jpg\"]","trial_type":"similarity","trial_index":171,"time_elapsed":733875,"internal_node_id":"0.0-6.0-165.0"},{"sim_score":5,"rt":3669,"stimulus":"[\"img/0862/53a9cf7c-93c4-41b9-952f-07d17f7a17b2.jpg\",\"img/0860/29a21a9f-54bb-4093-ad3f-04823ceaa89f.jpg\"]","trial_type":"similarity","trial_index":172,"time_elapsed":738554,"internal_node_id":"0.0-6.0-166.0"},{"sim_score":1,"rt":2312,"stimulus":"[\"img/0766/33aa9ebb-c9f5-418f-8c8b-c77861889568.jpg\",\"img/0901/0f670aef-ac36-496d-8142-ee5fdb21dd82.jpg\"]","trial_type":"similarity","trial_index":173,"time_elapsed":743210,"internal_node_id":"0.0-6.0-167.0"},{"sim_score":5,"rt":3214,"stimulus":"[\"img/0862/92f0146c-20c4-482e-aef5-adb693790338.jpg\",\"img/0862/ee3b7bff-4a70-4e84-9bea-4a565e456acb.jpg\"]","trial_type":"similarity","trial_index":174,"time_elapsed":747435,"internal_node_id":"0.0-6.0-168.0"},{"sim_score":6,"rt":3106,"stimulus":"[\"img/0894/792c83e9-a747-4000-bc72-5663d2439edb.jpg\",\"img/0764/4952d0a0-c9be-471a-8ec7-94a37bf4051d.jpg\"]","trial_type":"similarity","trial_index":175,"time_elapsed":751555,"internal_node_id":"0.0-6.0-169.0"},{"sim_score":2,"rt":2585,"stimulus":"[\"img/0874/995f0332-0439-4eb4-add3-957335dbf6d9.jpg\",\"img/0898/0c7dde4f-efce-4b7a-9387-6921635b7890.jpg\"]","trial_type":"similarity","trial_index":176,"time_elapsed":755163,"internal_node_id":"0.0-6.0-170.0"},{"sim_score":1,"rt":2635,"stimulus":"[\"img/0860/b03b963d-949b-4d8d-b19c-4950c89eeca2.jpg\",\"img/0766/ba35c0fc-4d5b-490d-959e-c94b279cdd02.jpg\"]","trial_type":"similarity","trial_index":177,"time_elapsed":758812,"internal_node_id":"0.0-6.0-171.0"},{"sim_score":3,"rt":2595,"stimulus":"[\"img/0898/b3290bf9-215b-4b45-b21a-65bdf73f142f.jpg\",\"img/0864/65210d57-1153-4657-886a-32e758f49b4a.jpg\"]","trial_type":"similarity","trial_index":178,"time_elapsed":762420,"internal_node_id":"0.0-6.0-172.0"},{"sim_score":3,"rt":3264,"stimulus":"[\"img/0881/84397291-bc14-4fbf-90e8-241e486ab0fe.jpg\",\"img/0764/0e7ed062-f798-4366-8a24-6f430926f919.jpg\"]","trial_type":"similarity","trial_index":179,"time_elapsed":766692,"internal_node_id":"0.0-6.0-173.0"},{"sim_score":1,"rt":2531,"stimulus":"[\"img/0898/881e2a85-d5c2-49be-a0c6-8a6ce2c4af08.jpg\",\"img/0868/d98ca254-b195-477f-b57e-5760a2717db8.jpg\"]","trial_type":"similarity","trial_index":180,"time_elapsed":770244,"internal_node_id":"0.0-6.0-174.0"},{"sim_score":3,"rt":2874,"stimulus":"[\"img/0864/9b2490c5-a282-400a-9736-e1a0ecbf1cb7.jpg\",\"img/0864/300bb811-8b3c-4c42-8653-6097c3725197.jpg\"]","trial_type":"similarity","trial_index":181,"time_elapsed":774133,"internal_node_id":"0.0-6.0-175.0"},{"sim_score":1,"rt":2776,"stimulus":"[\"img/0899/a05bea16-2bb4-4cb9-b8fb-4ff975db6971.jpg\",\"img/0862/d0ca4c78-fc35-46ed-bdcc-8e124283c53e.jpg\"]","trial_type":"similarity","trial_index":182,"time_elapsed":777917,"internal_node_id":"0.0-6.0-176.0"},{"sim_score":3,"rt":3199,"stimulus":"[\"img/0875/03c3c331-738b-4446-af92-3d7386b08c2e.jpg\",\"img/0758/7fba58df-2a7a-4b76-8a8f-62739f97f271.jpg\"]","trial_type":"similarity","trial_index":183,"time_elapsed":782133,"internal_node_id":"0.0-6.0-177.0"},{"sim_score":1,"rt":2494,"stimulus":"[\"img/0866/bf14b5bd-fb55-47db-86b9-4f8aeb9a6dad.jpg\",\"img/0901/168eb52c-c415-43f1-b5c8-e76e1a1ec247.jpg\"]","trial_type":"similarity","trial_index":184,"time_elapsed":785637,"internal_node_id":"0.0-6.0-178.0"},{"sim_score":1,"rt":2703,"stimulus":"[\"img/0769/180213e5-1e50-4b4e-87b6-add77ba04d39.jpg\",\"img/0874/a82926a3-0b43-4add-803c-d5f9ea7798ee.jpg\"]","trial_type":"similarity","trial_index":185,"time_elapsed":789357,"internal_node_id":"0.0-6.0-179.0"},{"sim_score":1,"rt":3418,"stimulus":"[\"img/0875/d59ff733-eaff-4ee2-9443-06954dd0bcb6.jpg\",\"img/0881/f6bd3b96-dc40-4e99-8681-bc3a35cf896d.jpg\"]","trial_type":"similarity","trial_index":186,"time_elapsed":793798,"internal_node_id":"0.0-6.0-180.0"},{"sim_score":5,"rt":2585,"stimulus":"[\"img/0866/a15b02be-11bb-43e3-b0e0-ecc3bd7dfc49.jpg\",\"img/0868/6a28c3b0-3d76-498a-9fb7-ddafc665eca8.jpg\"]","trial_type":"similarity","trial_index":187,"time_elapsed":797398,"internal_node_id":"0.0-6.0-181.0"},{"sim_score":3,"rt":2911,"stimulus":"[\"img/0899/5b56dd3e-3f49-47cc-af84-16da6457753b.jpg\",\"img/0758/65d426d6-3ff6-415d-8654-a43b83ecc4fe.jpg\"]","trial_type":"similarity","trial_index":188,"time_elapsed":801318,"internal_node_id":"0.0-6.0-182.0"},{"sim_score":1,"rt":3333,"stimulus":"[\"img/0874/767f289c-9814-4496-803f-745cc8913d1f.jpg\",\"img/0875/2e13d160-eea1-416b-aff1-d37ab99ecc1d.jpg\"]","trial_type":"similarity","trial_index":189,"time_elapsed":805662,"internal_node_id":"0.0-6.0-183.0"},{"sim_score":2,"rt":2908,"stimulus":"[\"img/0904/d23dd7be-7fe8-4435-82f7-bd592c01e6a1.jpg\",\"img/0862/e8cc3bdf-cc43-4565-bccf-492626c70953.jpg\"]","trial_type":"similarity","trial_index":190,"time_elapsed":809591,"internal_node_id":"0.0-6.0-184.0"},{"sim_score":1,"rt":2716,"stimulus":"[\"img/0902/d3e55000-c839-4bf9-9b9b-4af0a9925af1.jpg\",\"img/0766/75c3d627-4f3b-40d5-9d9c-10c8a62db644.jpg\"]","trial_type":"similarity","trial_index":191,"time_elapsed":813327,"internal_node_id":"0.0-6.0-185.0"},{"sim_score":1,"rt":3318,"stimulus":"[\"img/0758/a085b443-b5d7-4cb2-9ad4-b9dab0fc23f1.jpg\",\"img/0769/e31b3bd8-efcb-413e-aa8c-75fac2b8f2ac.jpg\"]","trial_type":"similarity","trial_index":192,"time_elapsed":817663,"internal_node_id":"0.0-6.0-186.0"},{"sim_score":3,"rt":3502,"stimulus":"[\"img/0881/7e31e5dc-2240-4b1b-b5a0-3acd980099ef.jpg\",\"img/0881/adc02f34-ce97-4aef-850f-00519df06fd7.jpg\"]","trial_type":"similarity","trial_index":193,"time_elapsed":822184,"internal_node_id":"0.0-6.0-187.0"},{"sim_score":1,"rt":2987,"stimulus":"[\"img/0758/a709631e-3705-4725-ac40-f0d916924f08.jpg\",\"img/0866/6f2a90d7-14f1-4f1b-bd64-fc0af6b9fe44.jpg\"]","trial_type":"similarity","trial_index":194,"time_elapsed":826192,"internal_node_id":"0.0-6.0-188.0"},{"sim_score":2,"rt":2855,"stimulus":"[\"img/0764/4eff630a-6426-4f8d-b2ba-b4d9842a0962.jpg\",\"img/0898/a8f16b02-e19f-423b-86c3-a36562ae1f9b.jpg\"]","trial_type":"similarity","trial_index":195,"time_elapsed":830056,"internal_node_id":"0.0-6.0-189.0"},{"sim_score":5,"rt":3619,"stimulus":"[\"img/0903/14f179a2-8786-48a2-8377-88d1d404341b.jpg\",\"img/0901/1e23ffbd-19de-4c4f-aa23-c54aaa3319a3.jpg\"]","trial_type":"similarity","trial_index":196,"time_elapsed":834696,"internal_node_id":"0.0-6.0-190.0"},{"sim_score":4,"rt":3136,"stimulus":"[\"img/0902/44cd9b7e-fdfb-4f78-90de-8d4c9d279365.jpg\",\"img/0898/993d8f2d-bef7-4251-a193-0f93a32b7763.jpg\"]","trial_type":"similarity","trial_index":197,"time_elapsed":838841,"internal_node_id":"0.0-6.0-191.0"},{"sim_score":3,"rt":2921,"stimulus":"[\"img/0864/0f537697-a314-47c3-a8cc-8df23b7e536c.jpg\",\"img/0901/c6df1a21-44ed-47c2-960e-7c52220e329e.jpg\"]","trial_type":"similarity","trial_index":198,"time_elapsed":842777,"internal_node_id":"0.0-6.0-192.0"},{"sim_score":3,"rt":2483,"stimulus":"[\"img/0894/7fb082e0-ce79-485c-9109-04367fb32275.jpg\",\"img/0881/667e2147-d457-4f32-aa5f-6ab86e5848f1.jpg\"]","trial_type":"similarity","trial_index":199,"time_elapsed":846280,"internal_node_id":"0.0-6.0-193.0"},{"sim_score":6,"rt":2792,"stimulus":"[\"img/0868/fd307a36-9a3a-47d7-ab7c-f810d0b35040.jpg\",\"img/0868/4e626425-63c8-484a-8a1d-e66ee4e0bef8.jpg\"]","trial_type":"similarity","trial_index":200,"time_elapsed":850080,"internal_node_id":"0.0-6.0-194.0"},{"sim_score":6,"rt":4194,"stimulus":"[\"img/0899/76ad07e2-ca25-45eb-84f2-8d80b8ca3e26.jpg\",\"img/0764/e30dba15-e68a-4659-89db-e1654b52fe02.jpg\"]","trial_type":"similarity","trial_index":201,"time_elapsed":855296,"internal_node_id":"0.0-6.0-195.0"},{"sim_score":1,"rt":2611,"stimulus":"[\"img/0881/f62bdcd1-a4b7-4d48-83da-d9c9e01c8727.jpg\",\"img/0904/5cceabc9-de1d-4c67-989b-c28a4ef77e79.jpg\"]","trial_type":"similarity","trial_index":202,"time_elapsed":858920,"internal_node_id":"0.0-6.0-196.0"},{"sim_score":3,"rt":3126,"stimulus":"[\"img/0864/e8bd659f-aa43-4748-877e-3118e8b4e189.jpg\",\"img/0902/f3cfec34-482c-4bdb-9c92-19ea6cfce183.jpg\"]","trial_type":"similarity","trial_index":203,"time_elapsed":863063,"internal_node_id":"0.0-6.0-197.0"},{"sim_score":2,"rt":4163,"stimulus":"[\"img/0894/a3d4170b-b7d8-40e3-955f-87e76ed745fc.jpg\",\"img/0904/2f88ce53-02d0-4f95-a082-182c56a0eeb4.jpg\"]","trial_type":"similarity","trial_index":204,"time_elapsed":868239,"internal_node_id":"0.0-6.0-198.0"},{"sim_score":3,"rt":3558,"stimulus":"[\"img/0901/08d6d1d1-c043-43c4-bb08-d45e062822b9.jpg\",\"img/0901/a2d7b2f6-396b-4d91-8403-de5361c74af7.jpg\"]","trial_type":"similarity","trial_index":205,"time_elapsed":872816,"internal_node_id":"0.0-6.0-199.0"},{"sim_score":1,"rt":2286,"stimulus":"[\"img/0894/6b2e9509-8699-42b7-9582-7741df0ba2d7.jpg\",\"img/0860/9593362c-9fe5-4d12-9735-6000a11f6aa5.jpg\"]","trial_type":"similarity","trial_index":206,"time_elapsed":876111,"internal_node_id":"0.0-6.0-200.0"},{"sim_score":3,"rt":3009,"stimulus":"[\"img/0898/e167334e-cc1d-4986-b3b1-c7bc7da64baa.jpg\",\"img/0903/59defeb8-98bd-4570-a2f8-9bd189e68ef4.jpg\"]","trial_type":"similarity","trial_index":207,"time_elapsed":880135,"internal_node_id":"0.0-6.0-201.0"},{"sim_score":2,"rt":4949,"stimulus":"[\"img/0864/49150900-7f25-4ce8-8d10-9b47a71d1997.jpg\",\"img/0894/38f5931f-926d-414e-b498-66b188978b7a.jpg\"]","trial_type":"similarity","trial_index":208,"time_elapsed":886095,"internal_node_id":"0.0-6.0-202.0"},{"sim_score":2,"rt":2626,"stimulus":"[\"img/0874/3ce41e7c-40c8-4d58-a546-171114521796.jpg\",\"img/0860/18dfed73-e36b-4487-a8bd-0b8cff8e3668.jpg\"]","trial_type":"similarity","trial_index":209,"time_elapsed":889743,"internal_node_id":"0.0-6.0-203.0"},{"sim_score":2,"rt":3432,"stimulus":"[\"img/0862/cdaed51d-9e2f-4807-801a-4663c40077e2.jpg\",\"img/0875/fb732ab5-013a-4366-9f65-27811ed157e9.jpg\"]","trial_type":"similarity","trial_index":210,"time_elapsed":894183,"internal_node_id":"0.0-6.0-204.0"},{"sim_score":2,"rt":2685,"stimulus":"[\"img/0867/aa05d113-fc19-4756-a8eb-7878f580bc92.jpg\",\"img/0881/405484ae-0d00-4b05-bc57-6420a36adfac.jpg\"]","trial_type":"similarity","trial_index":211,"time_elapsed":897887,"internal_node_id":"0.0-6.0-205.0"},{"sim_score":3,"rt":3357,"stimulus":"[\"img/0901/f1116359-1ff1-4638-b3b3-700918d36d18.jpg\",\"img/0902/e5a46bda-30d1-41ca-b36d-b8529b5a63d1.jpg\"]","trial_type":"similarity","trial_index":212,"time_elapsed":902255,"internal_node_id":"0.0-6.0-206.0"},{"sim_score":1,"rt":3025,"stimulus":"[\"img/0899/06b0fc99-0581-461a-9913-d1a5a941ac61.jpg\",\"img/0864/8ddd2e30-a1d0-479f-9cbe-591213023893.jpg\"]","trial_type":"similarity","trial_index":213,"time_elapsed":906296,"internal_node_id":"0.0-6.0-207.0"},{"sim_score":2,"rt":2505,"stimulus":"[\"img/0901/a6776381-91fe-43f8-ab73-261d318f95fd.jpg\",\"img/0769/50985283-d353-4abc-9abe-14a91d56ebe6.jpg\"]","trial_type":"similarity","trial_index":214,"time_elapsed":909823,"internal_node_id":"0.0-6.0-208.0"},{"sim_score":5,"rt":3263,"stimulus":"[\"img/0902/82d20e8c-2162-47a6-925b-52906558c046.jpg\",\"img/0902/10d99c89-71f7-4c81-a31e-dfc7c59f5232.jpg\"]","trial_type":"similarity","trial_index":215,"time_elapsed":922062,"internal_node_id":"0.0-6.0-209.0"},{"view_history":"[{\"page_index\":0,\"viewing_time\":6404}]","rt":6404,"trial_type":"instructions","trial_index":216,"time_elapsed":929470,"internal_node_id":"0.0-7.0"},{"rt":24863,"responses":"{\"Q0\":\"Yellow Warbler\"}","answer":["Nashville Warbler"],"trial_type":"image-multi-choice","trial_index":217,"time_elapsed":955383,"internal_node_id":"0.0-8.0-0.0"},{"rt":6983,"responses":"{\"Q0\":\"Black-and-white Warbler\"}","answer":["Black-and-white Warbler"],"trial_type":"image-multi-choice","trial_index":218,"time_elapsed":963415,"internal_node_id":"0.0-8.0-1.0"},{"rt":7369,"responses":"{\"Q0\":\"Blackburnian Warbler\"}","answer":["Townsend's Warbler"],"trial_type":"image-multi-choice","trial_index":219,"time_elapsed":971822,"internal_node_id":"0.0-8.0-2.0"},{"rt":17759,"responses":"{\"Q0\":\"Lark Sparrow\"}","answer":["Lark Sparrow"],"trial_type":"image-multi-choice","trial_index":220,"time_elapsed":990622,"internal_node_id":"0.0-8.0-3.0"},{"rt":11711,"responses":"{\"Q0\":\"Yellow Warbler\"}","answer":["Yellow Warbler"],"trial_type":"image-multi-choice","trial_index":221,"time_elapsed":1003374,"internal_node_id":"0.0-8.0-4.0"},{"rt":12191,"responses":"{\"Q0\":\"Orange-crowned Warbler\"}","answer":["Orange-crowned Warbler"],"trial_type":"image-multi-choice","trial_index":222,"time_elapsed":1016614,"internal_node_id":"0.0-8.0-5.0"},{"rt":6293,"responses":"{\"Q0\":\"White-throated Sparrow\"}","answer":["White-throated Sparrow"],"trial_type":"image-multi-choice","trial_index":223,"time_elapsed":1023958,"internal_node_id":"0.0-8.0-6.0"},{"rt":9023,"responses":"{\"Q0\":\"Fox Sparrow\"}","answer":["Fox Sparrow"],"trial_type":"image-multi-choice","trial_index":224,"time_elapsed":1034022,"internal_node_id":"0.0-8.0-7.0"},{"rt":7289,"responses":"{\"Q0\":\"Chipping Sparrow\"}","answer":["Song Sparrow"],"trial_type":"image-multi-choice","trial_index":225,"time_elapsed":1042358,"internal_node_id":"0.0-8.0-8.0"},{"rt":17474,"responses":"{\"Q0\":\"Townsend's Warbler\"}","answer":["Blackburnian Warbler"],"trial_type":"image-multi-choice","trial_index":226,"time_elapsed":1060878,"internal_node_id":"0.0-8.0-9.0"},{"rt":11079,"responses":"{\"Q0\":\"Chipping Sparrow\"}","answer":["Vesper Sparrow"],"trial_type":"image-multi-choice","trial_index":227,"time_elapsed":1072989,"internal_node_id":"0.0-8.0-10.0"},{"rt":4883,"responses":"{\"Q0\":\"White-crowned Sparrow\"}","answer":["White-crowned Sparrow"],"trial_type":"image-multi-choice","trial_index":228,"time_elapsed":1078909,"internal_node_id":"0.0-8.0-11.0"},{"rt":7892,"responses":"{\"Q0\":\"American Tree Sparrow\"}","answer":["American Tree Sparrow"],"trial_type":"image-multi-choice","trial_index":229,"time_elapsed":1087837,"internal_node_id":"0.0-8.0-12.0"},{"rt":11548,"responses":"{\"Q0\":\"Townsend's Warbler\"}","answer":["Tennessee Warbler"],"trial_type":"image-multi-choice","trial_index":230,"time_elapsed":1100437,"internal_node_id":"0.0-8.0-13.0"},{"rt":13576,"responses":"{\"Q0\":\"Tennessee Warbler\"}","answer":["Magnolia Warbler"],"trial_type":"image-multi-choice","trial_index":231,"time_elapsed":1115045,"internal_node_id":"0.0-8.0-14.0"},{"rt":8757,"responses":"{\"Q0\":\"Northern Waterthrush\"}","answer":["Northern Waterthrush"],"trial_type":"image-multi-choice","trial_index":232,"time_elapsed":1124845,"internal_node_id":"0.0-8.0-15.0"},{"rt":5314,"responses":"{\"Q0\":\"Vesper Sparrow\"}","answer":["Chipping Sparrow"],"trial_type":"image-multi-choice","trial_index":233,"time_elapsed":1131197,"internal_node_id":"0.0-8.0-16.0"},{"rt":12959,"responses":"{\"Q0\":\"Lincoln's Sparrow\"}","answer":["Swamp Sparrow"],"trial_type":"image-multi-choice","trial_index":234,"time_elapsed":1145204,"internal_node_id":"0.0-8.0-17.0"},{"rt":12262,"responses":"{\"Q0\":\"Song Sparrow\"}","answer":["Lincoln's Sparrow"],"trial_type":"image-multi-choice","trial_index":235,"time_elapsed":1158516,"internal_node_id":"0.0-8.0-18.0"},{"rt":20885,"responses":"{\"Q0\":\"Ovenbird\"}","answer":["Ovenbird"],"trial_type":"image-multi-choice","trial_index":236,"time_elapsed":1180436,"internal_node_id":"0.0-8.0-19.0"}]