"view_history","rt","trial_type","trial_index","time_elapsed","internal_node_id","sim_score","stimulus","responses","answer"
"[{""page_index"":0,""viewing_time"":12227}]","12228","instructions","0","12229","0.0-0.0","","","",""
"","5521","similarity_demo","1","18765","0.0-1.0","3","[""img/866.jpg"",""img/868.jpg""]","",""
"[{""page_index"":0,""viewing_time"":12065}]","12065","instructions","2","31844","0.0-2.0","","","",""
"","3081","similarity_demo","3","35949","0.0-3.0","2","[""img/766.jpg"",""img/867.jpg""]","",""
"[{""page_index"":0,""viewing_time"":7826}]","7827","instructions","4","44789","0.0-4.0","","","",""
"[{""page_index"":0,""viewing_time"":17479}]","17479","instructions","5","63278","0.0-5.0","","","",""
"","3223","similarity","6","67519","0.0-6.0-0.0","2","[""img/0868/4bd5105a-d2c3-4f82-8c80-57196106ba53.jpg"",""img/0901/148b747a-7392-437e-8823-33053c5dff3f.jpg""]","",""
"","3060","similarity","7","71591","0.0-6.0-1.0","2","[""img/0769/4a1d0b52-3fe8-40fb-bb1c-c814fe49a68c.jpg"",""img/0867/7d1c497b-c1b3-4ed8-abb5-d7f73306015f.jpg""]","",""
"","3249","similarity","8","75864","0.0-6.0-2.0","3","[""img/0766/69e486f7-dbef-456b-9d48-53d814248a28.jpg"",""img/0898/04e39a7a-fcf6-4156-ab0e-f5871f335e1c.jpg""]","",""
"","3049","similarity","9","79936","0.0-6.0-3.0","3","[""img/0902/01b41522-de46-4c3a-b0af-a61b2682b40e.jpg"",""img/0881/db77fe00-aeb0-4d1d-aa66-f3a96fd077e4.jpg""]","",""
"","3640","similarity","10","84592","0.0-6.0-4.0","5","[""img/0894/6aa5545f-fa7d-4286-bbaa-aaf34dc7ec96.jpg"",""img/0894/5a49e858-2850-4892-9a06-e9f0efb5f94d.jpg""]","",""
"","2985","similarity","11","88592","0.0-6.0-5.0","5","[""img/0874/ca23d307-fc00-4d7d-9106-584c6eb21b4d.jpg"",""img/0899/57476fed-5962-4272-8fc9-b317bb777b54.jpg""]","",""
"","2714","similarity","12","92328","0.0-6.0-6.0","5","[""img/0904/a8c3c7d2-9bcf-4347-9e03-8203adfc1fc5.jpg"",""img/0764/b328441c-f81c-486c-9eae-b947c70ba7cd.jpg""]","",""
"","2479","similarity","13","95825","0.0-6.0-7.0","5","[""img/0899/b45c550b-96c3-4255-ad59-48a2b4db1c1e.jpg"",""img/0898/81b08535-2020-4c15-9ce4-2f1e460755ae.jpg""]","",""
"","2792","similarity","14","99633","0.0-6.0-8.0","5","[""img/0874/85eb9b8a-c4c6-4e5a-b8e7-363a87a82054.jpg"",""img/0903/150cf64c-0bd2-4674-abbb-a1387cf1f3e9.jpg""]","",""
"","2620","similarity","15","103273","0.0-6.0-9.0","4","[""img/0881/609a5e93-38b5-4940-8627-2bf8fad7f802.jpg"",""img/0758/9fb5b2fe-3f00-4fe6-973c-1ce10d5f4cd5.jpg""]","",""
"","2778","similarity","16","107073","0.0-6.0-10.0","5","[""img/0898/79233891-305a-4a6a-8ddf-5c8604858203.jpg"",""img/0901/3db47171-0139-4235-82cd-0b1787b6775f.jpg""]","",""
"","2512","similarity","17","110610","0.0-6.0-11.0","2","[""img/0903/c708d08f-a108-4e04-8288-c3fcf6375db4.jpg"",""img/0769/e8ed913b-8a88-44f6-9327-d34afec3116b.jpg""]","",""
"","2627","similarity","18","114250","0.0-6.0-12.0","2","[""img/0764/7f4ee8e3-9315-4a57-be7d-db8454b33766.jpg"",""img/0868/293079b8-7e0c-4afd-a390-1e5d35fe3ded.jpg""]","",""
"","2862","similarity","19","118130","0.0-6.0-13.0","2","[""img/0867/ac1797e4-8afc-48fe-b252-86d1defb1cca.jpg"",""img/0903/647ce311-8c71-479a-8361-961db1457139.jpg""]","",""
"","3358","similarity","20","122498","0.0-6.0-14.0","2","[""img/0766/2da002a4-05c9-4f5c-9ed7-433b4183e273.jpg"",""img/0758/335851a0-a55b-46d8-ab05-8463eda48349.jpg""]","",""
"","3477","similarity","21","126987","0.0-6.0-15.0","2","[""img/0902/7f1dcd35-237a-4995-9e42-7f63f3f434d4.jpg"",""img/0860/d9a0d117-6d1d-41c0-8fec-9aff0fd9e9f2.jpg""]","",""
"","3494","similarity","22","131499","0.0-6.0-16.0","3","[""img/0769/ecda2fb3-556b-43ba-8a67-e87dd75ff2b4.jpg"",""img/0875/2c361b79-c3d1-4eda-812e-bf03192407bf.jpg""]","",""
"","3055","similarity","23","135563","0.0-6.0-17.0","3","[""img/0904/2fd488e9-960f-41f7-8a44-33375f7d5051.jpg"",""img/0866/07c9c966-3c8d-40e7-8128-92b2acbaed5d.jpg""]","",""
"","2599","similarity","24","139180","0.0-6.0-18.0","5","[""img/0875/90da8d75-108a-44ad-b999-e21fee3860d3.jpg"",""img/0875/527ced51-8e53-4aab-ab05-86df219104c0.jpg""]","",""
"","2819","similarity","25","143028","0.0-6.0-19.0","5","[""img/0758/d57c2592-a317-4f63-91be-91a3a9afd222.jpg"",""img/0758/b76ceca7-95ac-46e4-ac13-da02c8e93be9.jpg""]","",""
"","2567","similarity","26","146604","0.0-6.0-20.0","3","[""img/0902/c920f0e1-1c81-480f-a164-c77f2dc6ce9a.jpg"",""img/0874/99f6563c-8a8d-4c1c-a41d-667b618c3fd5.jpg""]","",""
"","3684","similarity","27","151308","0.0-6.0-21.0","3","[""img/0764/c0b03adb-bd0a-4b96-a915-a827c2fd5211.jpg"",""img/0769/1afb527f-9887-428c-bd26-a12c2f9efb68.jpg""]","",""
"","3195","similarity","28","155525","0.0-6.0-22.0","3","[""img/0901/a373612d-67e2-4fec-9764-21d3d6ef6359.jpg"",""img/0874/8cdb1c07-1c32-46d2-981c-3636560fa6e5.jpg""]","",""
"","2451","similarity","29","158989","0.0-6.0-23.0","5","[""img/0875/8521fd58-3b1e-4dc5-97ae-804edfa6734a.jpg"",""img/0903/8fcafe03-43df-4c45-9da5-0df3a1eeccc5.jpg""]","",""
"","2742","similarity","30","162741","0.0-6.0-24.0","3","[""img/0769/11518cb3-13ea-4dd0-890c-30cfab728ade.jpg"",""img/0881/2a8413be-fec2-4de6-88ad-614dd4cccc9d.jpg""]","",""
"","2530","similarity","31","166285","0.0-6.0-25.0","3","[""img/0867/cc72ed48-7704-422c-86d6-467a1145287a.jpg"",""img/0904/1d10df11-b5c8-4370-9a6b-097a7f965895.jpg""]","",""
"","3056","similarity","32","170357","0.0-6.0-26.0","5","[""img/0860/5383b320-1518-4095-a58e-5cc1ae30b64c.jpg"",""img/0881/f037e3b0-09cb-4a83-b2d9-6a71fe474e63.jpg""]","",""
"","3634","similarity","33","175006","0.0-6.0-27.0","4","[""img/0866/a04d37f0-99dd-478a-b6c6-58b215138f84.jpg"",""img/0866/23a224f3-2012-4fc8-8e0f-3c36f8de27fd.jpg""]","",""
"","2937","similarity","34","178959","0.0-6.0-28.0","3","[""img/0764/e0788029-9d7f-414c-b747-46d2a99f7c86.jpg"",""img/0862/fad1d7c1-8187-43c3-942a-0fc12183e48e.jpg""]","",""
"","2474","similarity","35","182446","0.0-6.0-29.0","3","[""img/0904/9dd5708f-3f8b-46a9-b49f-2f2fab87b357.jpg"",""img/0758/2fa3e613-e676-4e6e-bd12-705327eeb3e1.jpg""]","",""
"","3372","similarity","36","186839","0.0-6.0-30.0","5","[""img/0894/9b1333fd-3561-43bf-aee5-99b7b7ca3dc3.jpg"",""img/0899/ddf96ade-692e-4602-bd22-dedbb46401bc.jpg""]","",""
"","3002","similarity","37","190879","0.0-6.0-31.0","4","[""img/0860/524b2e98-5767-4d53-942c-ebae6925659b.jpg"",""img/0904/06dacdc5-2206-4fb8-92b7-88042d22833c.jpg""]","",""
"","3520","similarity","38","195415","0.0-6.0-32.0","4","[""img/0874/ca76a855-4e77-4f2f-872a-0a718153e7ed.jpg"",""img/0881/d373cb9f-a719-4549-a2a4-82def79fb2a5.jpg""]","",""
"","2563","similarity","39","198991","0.0-6.0-33.0","3","[""img/0881/7e822106-76f7-4b10-a805-14dc68b2cfaf.jpg"",""img/0899/8abe6c69-822c-436c-9bf2-96c818b49ba5.jpg""]","",""
"","2397","similarity","40","202400","0.0-6.0-34.0","3","[""img/0866/93a27239-8317-4e08-98ca-d8b1ff298e07.jpg"",""img/0862/47ed5efd-4ec9-4b74-bb4e-a5f5cf0c3e7d.jpg""]","",""
"","3675","similarity","41","207088","0.0-6.0-35.0","4","[""img/0868/179a5502-ab5c-478e-8263-5a1fbcc101d2.jpg"",""img/0894/767a0eec-1064-46b1-b1aa-dfa02b0cd74e.jpg""]","",""
"","2432","similarity","42","210536","0.0-6.0-36.0","4","[""img/0860/c7047cd2-7cc1-41b6-8a34-c0986774975f.jpg"",""img/0860/99c589b9-9140-4d17-90c0-b344323edcda.jpg""]","",""
"","2855","similarity","43","214408","0.0-6.0-37.0","4","[""img/0862/5d887e9f-89e2-4ebc-80a0-6d46fe6480db.jpg"",""img/0864/1d15626a-2f7c-410f-819c-0fa2c967e95e.jpg""]","",""
"","2804","similarity","44","218233","0.0-6.0-38.0","3","[""img/0766/26d3ae14-8275-4e08-99b2-a6598c193ddf.jpg"",""img/0866/9b38d691-1802-4959-ab3f-fc902f0e4ea6.jpg""]","",""
"","4064","similarity","45","223313","0.0-6.0-39.0","3","[""img/0875/cff79b3a-a797-4393-9757-6275f999ec04.jpg"",""img/0898/661621d4-a14e-487c-8c74-354134a29710.jpg""]","",""
"","3669","similarity","46","228001","0.0-6.0-40.0","4","[""img/0766/5d1b8041-c5a1-4b02-b4fe-3453d98a0d72.jpg"",""img/0769/82ab9db6-4578-4e79-874f-f09100439f09.jpg""]","",""
"","3309","similarity","47","234721","0.0-6.0-41.0","5","[""img/0874/2c9464dd-8a23-4baa-ac94-1ba3af5c15cc.jpg"",""img/0764/a86eed5b-d0af-4c3f-8c7a-26e98e98cf1a.jpg""]","",""
"","2827","similarity","48","238570","0.0-6.0-42.0","2","[""img/0868/09a9ef4d-d000-4cfa-a6aa-ebec7c2edeb4.jpg"",""img/0902/40d0b6ec-3907-4573-b227-e7d8e9cad1c3.jpg""]","",""
"","2588","similarity","49","242170","0.0-6.0-43.0","3","[""img/0875/99698b4d-b4a1-44bc-8c83-8ea755bbbf61.jpg"",""img/0899/7f9d45d0-b2c6-40d3-aa41-c207db2c411b.jpg""]","",""
"","2626","similarity","50","245810","0.0-6.0-44.0","2","[""img/0866/02f5e6b9-52b7-448c-9708-5b460d0c9a23.jpg"",""img/0860/94ef7afc-e0e6-4a15-98c6-0bfac82bc832.jpg""]","",""
"","2751","similarity","51","249579","0.0-6.0-45.0","2","[""img/0766/5d6e0d1d-4369-41f0-a64c-91f3503055c7.jpg"",""img/0903/81368973-de81-46f4-844f-b901f3bfd66d.jpg""]","",""
"","3660","similarity","52","254251","0.0-6.0-46.0","2","[""img/0901/d6d15b1c-4a30-4f74-a3fd-d4c8ee4169ca.jpg"",""img/0904/4b8daf2a-13a9-4ea9-9e0b-b265b6e933e7.jpg""]","",""
"","2997","similarity","53","258259","0.0-6.0-47.0","3","[""img/0758/7ffbc76b-1fc1-432c-8f7e-9ec8d1b3f643.jpg"",""img/0902/af45fe42-178c-4c1a-99ef-256e87e3b092.jpg""]","",""
"","2908","similarity","54","262179","0.0-6.0-48.0","3","[""img/0764/fb7d4a20-a475-465e-a74f-aa39a0d33d16.jpg"",""img/0764/23ea9375-f801-4a96-9925-7d453da887c7.jpg""]","",""
"","2150","similarity","55","265339","0.0-6.0-49.0","1","[""img/0866/386235d2-6857-41e7-88a8-25cfc3430025.jpg"",""img/0902/8af4182a-9af9-4212-a436-9195555112d6.jpg""]","",""
"","2415","similarity","56","268772","0.0-6.0-50.0","1","[""img/0764/cffc80b0-4a90-4acb-a530-6f480f3ca303.jpg"",""img/0758/6cd8c362-ae2a-41eb-80a3-3a4f7ace1530.jpg""]","",""
"","2340","similarity","57","272124","0.0-6.0-51.0","1","[""img/0898/f3a3f225-1248-4ac7-b93b-f0ff28485bf3.jpg"",""img/0894/b422d5c6-3c5a-49ae-a53e-7e88ac993f49.jpg""]","",""
"","3205","similarity","58","276348","0.0-6.0-52.0","4","[""img/0875/5a7c4e35-6514-4e12-8879-d16071da4cd6.jpg"",""img/0866/11a1d141-be5e-443c-98c1-a9d4d9e3dec0.jpg""]","",""
"","3051","similarity","59","280413","0.0-6.0-53.0","3","[""img/0904/b5855d6a-7ef9-46ca-9215-6e9fa046e543.jpg"",""img/0904/60d1a521-edf7-4696-9263-f21ac0e62a01.jpg""]","",""
"","3680","similarity","60","285109","0.0-6.0-54.0","2","[""img/0769/96556ef3-7fac-4c9d-8281-1cb0ea5081bc.jpg"",""img/0769/0fe124d3-bcad-45f6-b64d-8f6eb8ee5251.jpg""]","",""
"","3238","similarity","61","289365","0.0-6.0-55.0","4","[""img/0898/0af304a2-6a7a-4082-ab7c-4450cd08cc58.jpg"",""img/0758/e1ba5e53-addc-436a-b428-d34fc1b130dc.jpg""]","",""
"","3816","similarity","62","294189","0.0-6.0-56.0","3","[""img/0769/f73c5138-2f4c-4354-981c-129dff9cc734.jpg"",""img/0902/0eb85fbc-27c8-41df-9d0b-a5f9efd417d1.jpg""]","",""
"","4320","similarity","63","299526","0.0-6.0-57.0","5","[""img/0864/5f74a653-3bdc-4308-8cca-ac667dc22e1f.jpg"",""img/0881/6b1189e6-232d-4042-8885-16dc7b10e0d4.jpg""]","",""
"","2575","similarity","64","303110","0.0-6.0-58.0","1","[""img/0758/dd559618-7f09-4a07-8018-d311c4a5ea29.jpg"",""img/0868/3a62db2d-97e9-44a3-b8e3-a48c6f0e423b.jpg""]","",""
"","2622","similarity","65","306750","0.0-6.0-59.0","2","[""img/0862/eefa5588-9efd-4591-aa5f-a2e17c7d7bcc.jpg"",""img/0769/4680bcc3-8fbc-4643-8f9a-12aa0e780b64.jpg""]","",""
"","3059","similarity","66","310815","0.0-6.0-60.0","3","[""img/0764/ca9829fe-aaf8-45b8-b98a-6bae751c63dd.jpg"",""img/0903/f67c4ab9-f8c2-4fcd-848a-a54a7b031002.jpg""]","",""
"","3470","similarity","67","315295","0.0-6.0-61.0","2","[""img/0899/4f7bc593-8ddd-4da3-a0b9-84da730d3370.jpg"",""img/0899/66ab3178-c3fe-4455-ad17-d5952b08e018.jpg""]","",""
"","3394","similarity","68","319703","0.0-6.0-62.0","2","[""img/0860/15b24a61-25be-4356-9eac-5ce95d0cb4a4.jpg"",""img/0875/5a1e5100-0d94-4fec-bbe9-ca9894d2cf8e.jpg""]","",""
"","2543","similarity","69","323271","0.0-6.0-63.0","1","[""img/0868/15dd6fd7-791e-4b53-b203-195d617521a4.jpg"",""img/0874/c0378dac-9370-439a-8b79-db27c96fb390.jpg""]","",""
"","2391","similarity","70","326688","0.0-6.0-64.0","1","[""img/0758/61d64021-9214-4951-bdf8-f871f9827cf9.jpg"",""img/0862/f188d4f0-76a4-4102-818c-a209969d73a5.jpg""]","",""
"","3215","similarity","71","330912","0.0-6.0-65.0","1","[""img/0904/b7c2a2c8-df33-4473-b3d4-ff7147c60db3.jpg"",""img/0898/224c1572-56b9-4f16-a9e4-6f3bc9c114bd.jpg""]","",""
"","2548","similarity","72","334480","0.0-6.0-66.0","2","[""img/0881/f4e3e181-b3c9-4af2-a5a4-fc135ab70d2e.jpg"",""img/0866/945c6710-d15b-4a5b-a8f6-69af0850357f.jpg""]","",""
"","2692","similarity","73","338192","0.0-6.0-67.0","3","[""img/0867/075e0f95-856b-4cbb-acf5-092393aaf04e.jpg"",""img/0898/01bfe666-3510-4fc7-964f-d00d28732dc8.jpg""]","",""
"","3087","similarity","74","342288","0.0-6.0-68.0","2","[""img/0902/6c2c243a-f663-45db-baf5-038d3d58c589.jpg"",""img/0764/03c07b98-3f18-4b71-bb70-ecff564a78d1.jpg""]","",""
"","2402","similarity","75","345713","0.0-6.0-69.0","2","[""img/0875/a4935837-7d3c-4df6-88c1-36a94d4991ca.jpg"",""img/0867/db7e032f-162b-46f5-ae67-2b29679adee4.jpg""]","",""
"","3946","similarity","76","350673","0.0-6.0-70.0","2","[""img/0766/33519c22-aaa4-49d7-8d49-ab551db1945e.jpg"",""img/0764/6c7fe363-2d37-418f-9e5e-a3273af5d4fb.jpg""]","",""
"","3323","similarity","77","355009","0.0-6.0-71.0","3","[""img/0894/10f22b96-040c-44f4-950b-a4963f3f506c.jpg"",""img/0867/bf560d4f-dee3-4f11-a385-705cc1aa5f3c.jpg""]","",""
"","2747","similarity","78","358770","0.0-6.0-72.0","4","[""img/0875/f87b67d7-c33e-40d1-b281-248c4be1cb6e.jpg"",""img/0764/8389e74f-e0e0-435d-945f-da1f4c92ccb6.jpg""]","",""
"","3082","similarity","79","362874","0.0-6.0-73.0","2","[""img/0867/a749dddb-69f0-44a6-acdc-2bf295cf6dcc.jpg"",""img/0866/f756f7d1-9ad8-4a34-9ef6-7a443d705bfe.jpg""]","",""
"","2817","similarity","80","366698","0.0-6.0-74.0","2","[""img/0903/9b60ef5b-234f-4239-892b-3d4c412accc2.jpg"",""img/0758/3ddd05d3-557e-4ee7-8b78-9d2d681d8ae2.jpg""]","",""
"","2706","similarity","81","370418","0.0-6.0-75.0","2","[""img/0766/535849cc-ff5d-4df9-8f31-0ce94a97d571.jpg"",""img/0868/77091fc7-a590-4ebb-b915-fdb2483a2399.jpg""]","",""
"","3044","similarity","82","374475","0.0-6.0-76.0","2","[""img/0874/1016b306-087c-4afc-aa08-fa527b28dc76.jpg"",""img/0766/908bc45b-7c9e-4f95-806e-86b196ebcb2c.jpg""]","",""
"","2720","similarity","83","378211","0.0-6.0-77.0","2","[""img/0881/f8bd891e-aa09-4782-89db-33e7cb2b0cf1.jpg"",""img/0868/4a8a45ed-2c4f-421b-9564-409a33ecd26c.jpg""]","",""
"","2699","similarity","84","381915","0.0-6.0-78.0","4","[""img/0758/821c68d3-5cb0-4eae-8659-30e6263fca39.jpg"",""img/0901/875dedb9-24c9-4443-9f8c-85e97d70ee5a.jpg""]","",""
"","2837","similarity","85","385771","0.0-6.0-79.0","2","[""img/0881/445edb15-bd7f-4af3-8bd5-c6ad9677bb31.jpg"",""img/0898/08c72dac-f8ad-407a-9ce6-8c9a5d679c3a.jpg""]","",""
"","2211","similarity","86","389003","0.0-6.0-80.0","2","[""img/0867/c66898ba-b71b-4d50-84f9-f7f84853a98d.jpg"",""img/0758/53f35650-e455-4b53-8be4-c3c8271c6466.jpg""]","",""
"","2791","similarity","87","392812","0.0-6.0-81.0","2","[""img/0769/75f7e514-0548-4329-b1e4-93c05e74f038.jpg"",""img/0899/51a7a498-98c7-42d7-bca8-bc2d8f0b5831.jpg""]","",""
"","2765","similarity","88","396604","0.0-6.0-82.0","2","[""img/0903/5248eedd-7e6a-4d39-91b0-06ec227f3ed0.jpg"",""img/0903/776b74ee-a8ab-4ab8-a78d-097c0747538d.jpg""]","",""
"","2829","similarity","89","401836","0.0-6.0-83.0","2","[""img/0867/2e1a0b58-cdb1-4107-a14e-452530d7b9b0.jpg"",""img/0766/2746b119-4bba-463e-acf0-88136dc6600c.jpg""]","",""
"","2506","similarity","90","405365","0.0-6.0-84.0","1","[""img/0902/1f4a4c62-68c1-4993-b213-05652a173ed1.jpg"",""img/0867/f8488a47-94ee-4166-952c-44e16cf172f6.jpg""]","",""
"","2916","similarity","91","409301","0.0-6.0-85.0","2","[""img/0901/a0d65c84-3f20-476a-92d1-0c01e8019cf4.jpg"",""img/0875/ebf7653f-ff45-4e9f-af58-2c042ab3cd2b.jpg""]","",""
"","2539","similarity","92","412853","0.0-6.0-86.0","2","[""img/0764/55b3fab1-b809-4d38-a461-3f40ce062f52.jpg"",""img/0866/c446214b-a368-4c65-ae39-ea46894256ab.jpg""]","",""
"","3031","similarity","93","416901","0.0-6.0-87.0","2","[""img/0901/548d1110-7cb8-42a2-9927-9798875c8b5c.jpg"",""img/0894/0130a973-d993-41f8-874a-fee23d9ac11f.jpg""]","",""
"","3354","similarity","94","421278","0.0-6.0-88.0","2","[""img/0898/cd3aaa3f-efa9-4ab3-8d6f-a6a9273ddf42.jpg"",""img/0769/f2740c58-7c02-433f-920b-746b0b75435b.jpg""]","",""
"","3956","similarity","95","426246","0.0-6.0-89.0","2","[""img/0769/965c3c44-d9e5-47c5-b61a-2bbdf4215d9a.jpg"",""img/0894/5f15154e-e72e-4ce5-aafb-bce6f0564006.jpg""]","",""
"","3030","similarity","96","430286","0.0-6.0-90.0","2","[""img/0862/fb26cb07-d5a9-4653-813c-f41609f26cd5.jpg"",""img/0874/bf14b896-e930-4fd9-9c05-2e83317a2773.jpg""]","",""
"","3694","similarity","97","434990","0.0-6.0-91.0","2","[""img/0894/2217bdcd-23a7-42d3-823b-23f2488d7e87.jpg"",""img/0766/db750ba0-ce04-46e1-b601-e1b80212bad2.jpg""]","",""
"","2897","similarity","98","438911","0.0-6.0-92.0","2","[""img/0874/adf9a8f1-c40b-402b-b95b-1e85a54a7b62.jpg"",""img/0867/f26f6b60-f772-4f4c-95a4-addc62cfd692.jpg""]","",""
"","2293","similarity","99","442215","0.0-6.0-93.0","2","[""img/0899/0433d056-aa30-4f8a-9aa1-abbb951e4edd.jpg"",""img/0868/c8ac40c7-6904-4e13-8d61-c75d3052dc4e.jpg""]","",""
"","2863","similarity","100","446087","0.0-6.0-94.0","2","[""img/0903/365f176c-25a4-4973-bd3c-279bf1b39476.jpg"",""img/0862/4f0a3b4c-afbf-486e-b248-1d54982f54b4.jpg""]","",""
"","4010","similarity","101","451112","0.0-6.0-95.0","2","[""img/0899/fef567a2-c121-4481-9af0-ff108d199bbf.jpg"",""img/0766/717fd72f-a281-499b-a5ba-5e2ecc4d4866.jpg""]","",""
"","4191","similarity","102","456320","0.0-6.0-96.0","3","[""img/0867/12264664-1860-46df-8c21-162b9817cdda.jpg"",""img/0868/0d3abd3a-b6c3-4584-a9f7-e2da63748b3d.jpg""]","",""
"","3332","similarity","103","460664","0.0-6.0-97.0","5","[""img/0862/f43ceabf-acc1-4107-b857-5d1849808f93.jpg"",""img/0901/d61f267a-c492-4db6-9bfb-61efd49cf072.jpg""]","",""
"","2743","similarity","104","464440","0.0-6.0-98.0","2","[""img/0875/34132396-d896-4c2d-8087-646dd867e769.jpg"",""img/0766/b84598d0-5b41-4841-88b0-b441b48289f5.jpg""]","",""
"","2817","similarity","105","468265","0.0-6.0-99.0","5","[""img/0758/20497cbe-ddae-489e-86e2-ab06985ed07c.jpg"",""img/0874/7e4f2150-3b59-4a36-b5da-a4e0ba410531.jpg""]","",""
"","3215","similarity","106","472497","0.0-6.0-100.0","1","[""img/0904/4d7d70a3-9477-4921-bda0-f9531d0a5c5b.jpg"",""img/0868/7b212364-ff5f-4e28-9241-7eb6ea00161b.jpg""]","",""
"","2796","similarity","107","476313","0.0-6.0-101.0","1","[""img/0903/3e9ee8a5-eb66-47f5-8973-8a5af1ddc87e.jpg"",""img/0866/620cd1aa-0800-4414-8f6e-90342e7a99ad.jpg""]","",""
"","2661","similarity","108","479985","0.0-6.0-102.0","1","[""img/0868/d6d1f30d-4323-435a-b194-7892521bc57e.jpg"",""img/0769/48a1144d-fbda-4809-991b-fc8424a32ee4.jpg""]","",""
"","3438","similarity","109","484434","0.0-6.0-103.0","2","[""img/0902/62f11694-7ed7-4cb7-8a73-9e95c43824e7.jpg"",""img/0899/f95cbdb4-f804-4f5d-ad76-373ad343e658.jpg""]","",""
"","2487","similarity","110","487930","0.0-6.0-104.0","1","[""img/0868/5fa7f9d0-f0e5-454c-8224-74d964818f56.jpg"",""img/0862/00c06b00-3b73-44e9-bc1e-c5aafb438321.jpg""]","",""
"","3535","similarity","111","492474","0.0-6.0-105.0","2","[""img/0903/ea75f240-fb62-4edb-a709-83e858b202c0.jpg"",""img/0894/38cf335f-f76f-4349-8d65-e20cd6859565.jpg""]","",""
"","3429","similarity","112","496915","0.0-6.0-106.0","2","[""img/0864/ef9cbca0-4be8-435d-ad49-977259e80409.jpg"",""img/0874/eba003b4-cdab-4eee-8bc3-f064c7d94165.jpg""]","",""
"","3215","similarity","113","501147","0.0-6.0-107.0","2","[""img/0862/de9ad88c-b522-430a-8ee9-eb06a9f85df5.jpg"",""img/0902/8065aa6b-4aef-4368-afa2-02c6465ca582.jpg""]","",""
"","3354","similarity","114","505515","0.0-6.0-108.0","5","[""img/0904/65e2b70a-b184-4da3-b5c0-5038bdf9469a.jpg"",""img/0903/2a9c8033-3e70-47fa-816d-97ee1813a3a3.jpg""]","",""
"","3762","similarity","115","510291","0.0-6.0-109.0","3","[""img/0764/f990b2e8-ecee-481e-be7c-0239fce350e2.jpg"",""img/0864/1ebbc554-99fa-49f9-8799-317375a79820.jpg""]","",""
"","3486","similarity","116","514788","0.0-6.0-110.0","1","[""img/0866/d493a2c8-66eb-44b4-be02-2f327b700b7c.jpg"",""img/0894/c505c65a-cde2-4f2c-8cde-f8676f7c894d.jpg""]","",""
"","2632","similarity","117","518436","0.0-6.0-111.0","1","[""img/0899/25ae6ec8-9565-49fe-a8bb-8d0666f52716.jpg"",""img/0903/005ad0de-4f52-433c-b515-dbe8d46184a3.jpg""]","",""
"","2785","similarity","118","522236","0.0-6.0-112.0","1","[""img/0902/aa6fca32-82b0-4414-b20a-8f6f8aa5a2d2.jpg"",""img/0904/e9423a8c-f946-43ad-ab7b-931acef870e2.jpg""]","",""
"","2618","similarity","119","525877","0.0-6.0-113.0","2","[""img/0864/5f33e097-23e3-4002-882d-76e8cb15f451.jpg"",""img/0860/c5ccd1a4-4bb7-48e1-9b25-72cfaf06909b.jpg""]","",""
"","2937","similarity","120","529829","0.0-6.0-114.0","1","[""img/0860/8fdba999-b946-4c7d-9891-336018b563ef.jpg"",""img/0899/0e1d936a-dbe2-4afc-9f19-7b7a1ae6c9ed.jpg""]","",""
"","2637","similarity","121","533477","0.0-6.0-115.0","1","[""img/0881/ee44e27f-d662-4608-b265-e7ffa19b216f.jpg"",""img/0903/72197c2b-403e-4a26-b391-f1aa8dea4b76.jpg""]","",""
"","3513","similarity","122","537997","0.0-6.0-116.0","1","[""img/0894/661b9f9f-4bde-487a-b1ed-87085fde6948.jpg"",""img/0874/29830da7-be5f-44e5-b141-652a0ccf7269.jpg""]","",""
"","3670","similarity","123","542677","0.0-6.0-117.0","2","[""img/0881/5fe04dd0-5c74-47b7-99c8-b068db9ca26a.jpg"",""img/0862/e697469a-ec19-4414-b972-7b9f3564785b.jpg""]","",""
"","3161","similarity","124","546854","0.0-6.0-118.0","5","[""img/0868/1a62b2b2-18f5-466e-b564-5176a57c565e.jpg"",""img/0875/5a716432-c6ca-4b1c-955a-2b8ac25198ee.jpg""]","",""
"","2327","similarity","125","550190","0.0-6.0-119.0","3","[""img/0860/e8b8c51e-1834-4875-8b61-6c5bc9b178bd.jpg"",""img/0758/d41c06bf-ebaf-454b-91c6-1a17f917b659.jpg""]","",""
"","3217","similarity","126","554416","0.0-6.0-120.0","1","[""img/0864/efcfbb1b-8197-44c9-b723-40d6c608dd3c.jpg"",""img/0875/3ecb367d-e9eb-4826-8aaa-7aa72fb98019.jpg""]","",""
"","2686","similarity","127","558118","0.0-6.0-121.0","1","[""img/0898/26c41340-15bd-4ead-8fe4-c0d0ddca09c2.jpg"",""img/0866/8efcaa46-83ab-4dee-a35f-850402aa21ae.jpg""]","",""
"","2741","similarity","128","561879","0.0-6.0-122.0","1","[""img/0874/a3bc679d-619f-4db6-bb68-116dcb757d9c.jpg"",""img/0904/09dac84f-3d1c-4445-a68e-d0389fdbf1e9.jpg""]","",""
"","3222","similarity","129","566111","0.0-6.0-123.0","1","[""img/0904/da170c1b-9651-4f08-b231-2bdd1d9a046f.jpg"",""img/0864/66091c27-e588-4476-8af9-265dc6be4156.jpg""]","",""
"","3504","similarity","130","570623","0.0-6.0-124.0","1","[""img/0894/8cadb87a-7001-4e47-99fb-1867bebf1668.jpg"",""img/0902/04a6ad4a-afc6-4871-8225-56b299af7b6b.jpg""]","",""
"","2746","similarity","131","576127","0.0-6.0-125.0","1","[""img/0868/e0aff734-077f-40dd-9781-74821abd3621.jpg"",""img/0864/3651d070-2fc5-4848-b6a6-088a2d9ac5c9.jpg""]","",""
"","3112","similarity","132","580256","0.0-6.0-126.0","1","[""img/0899/4408c14d-c168-4a7d-96f6-bc87bfb58f83.jpg"",""img/0866/0207e9a2-7dbb-40b5-9459-b472aaeceb2a.jpg""]","",""
"","2273","similarity","133","583552","0.0-6.0-127.0","1","[""img/0875/e7e66b13-b573-431e-b85e-288ce04a35a3.jpg"",""img/0904/63dd06dd-dccb-47ba-9740-eb33239e18a7.jpg""]","",""
"","2584","similarity","134","587144","0.0-6.0-128.0","2","[""img/0867/c71dc569-f49c-4397-8381-68b8d726736d.jpg"",""img/0899/0adc0bc3-6fca-4078-be6f-d45ddf1653d5.jpg""]","",""
"","2199","similarity","135","590361","0.0-6.0-129.0","1","[""img/0901/5657dd86-0ff9-4753-ba2b-9dfb223e5c89.jpg"",""img/0867/6e19c858-b606-45b2-a4c6-910a73f1d82c.jpg""]","",""
"","2996","similarity","136","594377","0.0-6.0-130.0","2","[""img/0864/6e846d43-94a6-4b37-a268-65eda979f052.jpg"",""img/0769/d1be2815-fa79-46e8-b5c3-7d81caaca490.jpg""]","",""
"","2309","similarity","137","597705","0.0-6.0-131.0","1","[""img/0903/8931c67c-a43d-47d3-a4c9-42aa2f81d344.jpg"",""img/0868/8b0b8473-e2c0-4331-aa56-c3a5c29369da.jpg""]","",""
"","2634","similarity","138","601353","0.0-6.0-132.0","1","[""img/0864/da39ad34-04e0-40d4-a724-c08d53e0ea09.jpg"",""img/0867/5e07b34d-b40f-4b1c-ac10-49975bace45f.jpg""]","",""
"","2747","similarity","139","605114","0.0-6.0-133.0","3","[""img/0901/0adb3bd6-d758-4ba7-9723-3ad6cac05bd5.jpg"",""img/0860/71e1aad0-2cdf-43bb-94a4-a8c016997c30.jpg""]","",""
"","3296","similarity","140","609418","0.0-6.0-134.0","2","[""img/0881/b549bc99-a61c-4450-bab5-9efc3a197bf0.jpg"",""img/0766/71b81ebd-0937-4d7f-b8bf-c4e46a4728fd.jpg""]","",""
"","2533","similarity","141","612970","0.0-6.0-135.0","1","[""img/0903/71dbc325-b588-4297-a5cf-7f268a722ad9.jpg"",""img/0864/a248adb3-c70b-4652-b7a3-776d2a1e904b.jpg""]","",""
"","2863","similarity","142","616850","0.0-6.0-136.0","1","[""img/0758/e38fd80d-18d0-42f3-b848-f930788e8bd7.jpg"",""img/0894/e2446cf5-cd48-486a-badc-76498e087fbe.jpg""]","",""
"","2737","similarity","143","620611","0.0-6.0-137.0","1","[""img/0769/38a88f69-28fd-4bbd-99f0-f4c02bfd3995.jpg"",""img/0860/f44ba3fb-03a2-42f0-8509-2c1ded493086.jpg""]","",""
"","3719","similarity","144","625347","0.0-6.0-138.0","3","[""img/0904/5aec2708-cf14-4a58-aa30-9a8a61c1be0e.jpg"",""img/0766/989c5c7f-1aff-4442-ac63-9d46acf4a891.jpg""]","",""
"","2959","similarity","145","629315","0.0-6.0-139.0","2","[""img/0868/83b4350a-3b70-4cea-b7f5-b5b56f3050a8.jpg"",""img/0860/5bff793e-cbd5-4d7e-b628-0ac2b0e30b64.jpg""]","",""
"","2567","similarity","146","632892","0.0-6.0-140.0","2","[""img/0758/67c0be2f-9e91-48b3-8219-70ac0a1802fa.jpg"",""img/0864/4bd81bc6-c13d-46df-95a9-485886dc7c1b.jpg""]","",""
"","3187","similarity","147","637100","0.0-6.0-141.0","6","[""img/0867/a498eef3-9fa4-4ab2-9778-4ae82ac40dc5.jpg"",""img/0867/de92135f-5b65-4ed9-b245-188292c7c2f8.jpg""]","",""
"","4115","similarity","148","642228","0.0-6.0-142.0","5","[""img/0898/82231d4c-218b-4d0a-b50d-35a49b524e97.jpg"",""img/0898/b2732712-71c2-45d8-834f-2b2ed5504910.jpg""]","",""
"","3184","similarity","149","646420","0.0-6.0-143.0","1","[""img/0866/be24ab58-230e-4db8-9f45-ff04c9aec6bb.jpg"",""img/0769/1ca58b80-2365-446d-9616-6c1719e6c46f.jpg""]","",""
"","2827","similarity","150","650260","0.0-6.0-144.0","2","[""img/0860/31ff6436-98bf-4652-bed2-40f627229568.jpg"",""img/0898/68476bbb-34a1-42d9-8bc1-deab783d4489.jpg""]","",""
"","2699","similarity","151","653973","0.0-6.0-145.0","2","[""img/0766/00891401-e4c9-4ce1-bc19-f70740d174bc.jpg"",""img/0864/f92649a2-0590-4d31-9a7a-1bfb81666a2d.jpg""]","",""
"","2374","similarity","152","657365","0.0-6.0-146.0","1","[""img/0860/17b44a7d-c5ca-479f-9e87-f65a64f5c80e.jpg"",""img/0903/5ea5bbe0-f238-4724-abe7-9ed8dee8c0ba.jpg""]","",""
"","2190","similarity","153","660565","0.0-6.0-147.0","2","[""img/0867/50a1b60e-3a29-44bf-b606-d4bd3746fea9.jpg"",""img/0764/b887d7c6-aa81-4637-af8e-05135757ac59.jpg""]","",""
"","4773","similarity","154","666350","0.0-6.0-148.0","2","[""img/0769/9ea27d61-3d55-418c-8d14-82e90f656f01.jpg"",""img/0904/0d25eb24-bb20-4e8d-9787-8b489558b4cb.jpg""]","",""
"","2872","similarity","155","670230","0.0-6.0-149.0","1","[""img/0764/8740679b-b56f-4292-aece-14063457113a.jpg"",""img/0901/04a53755-6da5-44d4-a7a6-48a6bc0a2280.jpg""]","",""
"","3444","similarity","156","674686","0.0-6.0-150.0","2","[""img/0904/0d17b811-063e-416e-a23c-3b3cfa4fcce5.jpg"",""img/0899/d60714ae-98d7-4564-8c98-94dba1351135.jpg""]","",""
"","2468","similarity","157","678166","0.0-6.0-151.0","1","[""img/0862/99a99e39-8355-44ec-b993-e7bcec111e1c.jpg"",""img/0867/8ba0c5a7-c7e4-42cf-a80a-543763b90779.jpg""]","",""
"","3684","similarity","158","682863","0.0-6.0-152.0","6","[""img/0766/006035d8-c736-4daf-bbe4-a9e373af9da6.jpg"",""img/0766/2e1cf445-9aef-40e7-92f4-5facf48b64c5.jpg""]","",""
"","3347","similarity","159","687231","0.0-6.0-153.0","3","[""img/0862/1c20f772-3a51-4a80-aac0-f57dc9f86c28.jpg"",""img/0894/7dd6ff43-f8fc-408a-8a41-a2b261871820.jpg""]","",""
"","2810","similarity","160","691063","0.0-6.0-154.0","2","[""img/0899/1b3457ea-87d4-4946-a01c-aac1863ed46c.jpg"",""img/0901/b123d109-47b4-4f9a-80c9-9bb16da42efa.jpg""]","",""
"","3356","similarity","161","695439","0.0-6.0-155.0","2","[""img/0874/31e22c7c-99aa-40b1-bf03-dd73fa2df4d6.jpg"",""img/0874/93d1f8dc-acf2-4f03-bd8d-8ec35df276ed.jpg""]","",""
"","2072","similarity","162","698528","0.0-6.0-156.0","1","[""img/0860/8277806e-b684-4474-8f7b-3fca946d7d4f.jpg"",""img/0867/179ab87a-8eac-4c52-a41f-2e48e3120f09.jpg""]","",""
"","3141","similarity","163","702688","0.0-6.0-157.0","2","[""img/0901/62315ff5-ed95-46b4-b099-92552079659b.jpg"",""img/0881/292e9b4b-fca0-4ba8-87f1-4048f9e37b7d.jpg""]","",""
"","3116","similarity","164","706816","0.0-6.0-158.0","5","[""img/0903/24477210-856c-4550-9de0-9f85a32762eb.jpg"",""img/0902/d5e25767-e8ec-45f3-ac0a-7b4a6f7a9edc.jpg""]","",""
"","2406","similarity","165","710240","0.0-6.0-159.0","1","[""img/0860/702bd09d-df3a-40aa-a267-5f04474305b5.jpg"",""img/0764/e48e6c6f-9e28-420f-836a-8043b2319bb4.jpg""]","",""
"","3487","similarity","166","714737","0.0-6.0-160.0","5","[""img/0902/2db723b6-130f-454c-8c8d-88829edbcd65.jpg"",""img/0875/dbdd643e-6d0e-4a5c-ab57-b9c29b9c981a.jpg""]","",""
"","2721","similarity","167","718465","0.0-6.0-161.0","4","[""img/0898/8605a25b-6895-476d-8c13-df7a83f96093.jpg"",""img/0862/ba89835a-408c-480b-8594-ed4ffa97eb5c.jpg""]","",""
"","2725","similarity","168","722201","0.0-6.0-162.0","5","[""img/0894/5ff3c4f6-52e2-4075-8679-be0312e59703.jpg"",""img/0875/42910c99-5463-450a-a0f8-d4d060a11455.jpg""]","",""
"","2426","similarity","169","725649","0.0-6.0-163.0","1","[""img/0866/4a87911a-d5be-4d4e-ab8e-3d1f581bf507.jpg"",""img/0864/6f631579-acf1-415c-a42c-1207f62a8d99.jpg""]","",""
"","2385","similarity","170","729050","0.0-6.0-164.0","1","[""img/0766/91fc8c4d-862f-4d2b-b1a1-2db8d729b6b7.jpg"",""img/0862/ad593cc7-cabe-4bb7-8e14-8a447a0717b4.jpg""]","",""
"","3816","similarity","171","733875","0.0-6.0-165.0","5","[""img/0866/d266fece-59b3-46fa-b69f-96f6efb81b59.jpg"",""img/0874/3f471690-9788-4d03-90c7-f615aecef149.jpg""]","",""
"","3669","similarity","172","738554","0.0-6.0-166.0","5","[""img/0862/53a9cf7c-93c4-41b9-952f-07d17f7a17b2.jpg"",""img/0860/29a21a9f-54bb-4093-ad3f-04823ceaa89f.jpg""]","",""
"","2312","similarity","173","743210","0.0-6.0-167.0","1","[""img/0766/33aa9ebb-c9f5-418f-8c8b-c77861889568.jpg"",""img/0901/0f670aef-ac36-496d-8142-ee5fdb21dd82.jpg""]","",""
"","3214","similarity","174","747435","0.0-6.0-168.0","5","[""img/0862/92f0146c-20c4-482e-aef5-adb693790338.jpg"",""img/0862/ee3b7bff-4a70-4e84-9bea-4a565e456acb.jpg""]","",""
"","3106","similarity","175","751555","0.0-6.0-169.0","6","[""img/0894/792c83e9-a747-4000-bc72-5663d2439edb.jpg"",""img/0764/4952d0a0-c9be-471a-8ec7-94a37bf4051d.jpg""]","",""
"","2585","similarity","176","755163","0.0-6.0-170.0","2","[""img/0874/995f0332-0439-4eb4-add3-957335dbf6d9.jpg"",""img/0898/0c7dde4f-efce-4b7a-9387-6921635b7890.jpg""]","",""
"","2635","similarity","177","758812","0.0-6.0-171.0","1","[""img/0860/b03b963d-949b-4d8d-b19c-4950c89eeca2.jpg"",""img/0766/ba35c0fc-4d5b-490d-959e-c94b279cdd02.jpg""]","",""
"","2595","similarity","178","762420","0.0-6.0-172.0","3","[""img/0898/b3290bf9-215b-4b45-b21a-65bdf73f142f.jpg"",""img/0864/65210d57-1153-4657-886a-32e758f49b4a.jpg""]","",""
"","3264","similarity","179","766692","0.0-6.0-173.0","3","[""img/0881/84397291-bc14-4fbf-90e8-241e486ab0fe.jpg"",""img/0764/0e7ed062-f798-4366-8a24-6f430926f919.jpg""]","",""
"","2531","similarity","180","770244","0.0-6.0-174.0","1","[""img/0898/881e2a85-d5c2-49be-a0c6-8a6ce2c4af08.jpg"",""img/0868/d98ca254-b195-477f-b57e-5760a2717db8.jpg""]","",""
"","2874","similarity","181","774133","0.0-6.0-175.0","3","[""img/0864/9b2490c5-a282-400a-9736-e1a0ecbf1cb7.jpg"",""img/0864/300bb811-8b3c-4c42-8653-6097c3725197.jpg""]","",""
"","2776","similarity","182","777917","0.0-6.0-176.0","1","[""img/0899/a05bea16-2bb4-4cb9-b8fb-4ff975db6971.jpg"",""img/0862/d0ca4c78-fc35-46ed-bdcc-8e124283c53e.jpg""]","",""
"","3199","similarity","183","782133","0.0-6.0-177.0","3","[""img/0875/03c3c331-738b-4446-af92-3d7386b08c2e.jpg"",""img/0758/7fba58df-2a7a-4b76-8a8f-62739f97f271.jpg""]","",""
"","2494","similarity","184","785637","0.0-6.0-178.0","1","[""img/0866/bf14b5bd-fb55-47db-86b9-4f8aeb9a6dad.jpg"",""img/0901/168eb52c-c415-43f1-b5c8-e76e1a1ec247.jpg""]","",""
"","2703","similarity","185","789357","0.0-6.0-179.0","1","[""img/0769/180213e5-1e50-4b4e-87b6-add77ba04d39.jpg"",""img/0874/a82926a3-0b43-4add-803c-d5f9ea7798ee.jpg""]","",""
"","3418","similarity","186","793798","0.0-6.0-180.0","1","[""img/0875/d59ff733-eaff-4ee2-9443-06954dd0bcb6.jpg"",""img/0881/f6bd3b96-dc40-4e99-8681-bc3a35cf896d.jpg""]","",""
"","2585","similarity","187","797398","0.0-6.0-181.0","5","[""img/0866/a15b02be-11bb-43e3-b0e0-ecc3bd7dfc49.jpg"",""img/0868/6a28c3b0-3d76-498a-9fb7-ddafc665eca8.jpg""]","",""
"","2911","similarity","188","801318","0.0-6.0-182.0","3","[""img/0899/5b56dd3e-3f49-47cc-af84-16da6457753b.jpg"",""img/0758/65d426d6-3ff6-415d-8654-a43b83ecc4fe.jpg""]","",""
"","3333","similarity","189","805662","0.0-6.0-183.0","1","[""img/0874/767f289c-9814-4496-803f-745cc8913d1f.jpg"",""img/0875/2e13d160-eea1-416b-aff1-d37ab99ecc1d.jpg""]","",""
"","2908","similarity","190","809591","0.0-6.0-184.0","2","[""img/0904/d23dd7be-7fe8-4435-82f7-bd592c01e6a1.jpg"",""img/0862/e8cc3bdf-cc43-4565-bccf-492626c70953.jpg""]","",""
"","2716","similarity","191","813327","0.0-6.0-185.0","1","[""img/0902/d3e55000-c839-4bf9-9b9b-4af0a9925af1.jpg"",""img/0766/75c3d627-4f3b-40d5-9d9c-10c8a62db644.jpg""]","",""
"","3318","similarity","192","817663","0.0-6.0-186.0","1","[""img/0758/a085b443-b5d7-4cb2-9ad4-b9dab0fc23f1.jpg"",""img/0769/e31b3bd8-efcb-413e-aa8c-75fac2b8f2ac.jpg""]","",""
"","3502","similarity","193","822184","0.0-6.0-187.0","3","[""img/0881/7e31e5dc-2240-4b1b-b5a0-3acd980099ef.jpg"",""img/0881/adc02f34-ce97-4aef-850f-00519df06fd7.jpg""]","",""
"","2987","similarity","194","826192","0.0-6.0-188.0","1","[""img/0758/a709631e-3705-4725-ac40-f0d916924f08.jpg"",""img/0866/6f2a90d7-14f1-4f1b-bd64-fc0af6b9fe44.jpg""]","",""
"","2855","similarity","195","830056","0.0-6.0-189.0","2","[""img/0764/4eff630a-6426-4f8d-b2ba-b4d9842a0962.jpg"",""img/0898/a8f16b02-e19f-423b-86c3-a36562ae1f9b.jpg""]","",""
"","3619","similarity","196","834696","0.0-6.0-190.0","5","[""img/0903/14f179a2-8786-48a2-8377-88d1d404341b.jpg"",""img/0901/1e23ffbd-19de-4c4f-aa23-c54aaa3319a3.jpg""]","",""
"","3136","similarity","197","838841","0.0-6.0-191.0","4","[""img/0902/44cd9b7e-fdfb-4f78-90de-8d4c9d279365.jpg"",""img/0898/993d8f2d-bef7-4251-a193-0f93a32b7763.jpg""]","",""
"","2921","similarity","198","842777","0.0-6.0-192.0","3","[""img/0864/0f537697-a314-47c3-a8cc-8df23b7e536c.jpg"",""img/0901/c6df1a21-44ed-47c2-960e-7c52220e329e.jpg""]","",""
"","2483","similarity","199","846280","0.0-6.0-193.0","3","[""img/0894/7fb082e0-ce79-485c-9109-04367fb32275.jpg"",""img/0881/667e2147-d457-4f32-aa5f-6ab86e5848f1.jpg""]","",""
"","2792","similarity","200","850080","0.0-6.0-194.0","6","[""img/0868/fd307a36-9a3a-47d7-ab7c-f810d0b35040.jpg"",""img/0868/4e626425-63c8-484a-8a1d-e66ee4e0bef8.jpg""]","",""
"","4194","similarity","201","855296","0.0-6.0-195.0","6","[""img/0899/76ad07e2-ca25-45eb-84f2-8d80b8ca3e26.jpg"",""img/0764/e30dba15-e68a-4659-89db-e1654b52fe02.jpg""]","",""
"","2611","similarity","202","858920","0.0-6.0-196.0","1","[""img/0881/f62bdcd1-a4b7-4d48-83da-d9c9e01c8727.jpg"",""img/0904/5cceabc9-de1d-4c67-989b-c28a4ef77e79.jpg""]","",""
"","3126","similarity","203","863063","0.0-6.0-197.0","3","[""img/0864/e8bd659f-aa43-4748-877e-3118e8b4e189.jpg"",""img/0902/f3cfec34-482c-4bdb-9c92-19ea6cfce183.jpg""]","",""
"","4163","similarity","204","868239","0.0-6.0-198.0","2","[""img/0894/a3d4170b-b7d8-40e3-955f-87e76ed745fc.jpg"",""img/0904/2f88ce53-02d0-4f95-a082-182c56a0eeb4.jpg""]","",""
"","3558","similarity","205","872816","0.0-6.0-199.0","3","[""img/0901/08d6d1d1-c043-43c4-bb08-d45e062822b9.jpg"",""img/0901/a2d7b2f6-396b-4d91-8403-de5361c74af7.jpg""]","",""
"","2286","similarity","206","876111","0.0-6.0-200.0","1","[""img/0894/6b2e9509-8699-42b7-9582-7741df0ba2d7.jpg"",""img/0860/9593362c-9fe5-4d12-9735-6000a11f6aa5.jpg""]","",""
"","3009","similarity","207","880135","0.0-6.0-201.0","3","[""img/0898/e167334e-cc1d-4986-b3b1-c7bc7da64baa.jpg"",""img/0903/59defeb8-98bd-4570-a2f8-9bd189e68ef4.jpg""]","",""
"","4949","similarity","208","886095","0.0-6.0-202.0","2","[""img/0864/49150900-7f25-4ce8-8d10-9b47a71d1997.jpg"",""img/0894/38f5931f-926d-414e-b498-66b188978b7a.jpg""]","",""
"","2626","similarity","209","889743","0.0-6.0-203.0","2","[""img/0874/3ce41e7c-40c8-4d58-a546-171114521796.jpg"",""img/0860/18dfed73-e36b-4487-a8bd-0b8cff8e3668.jpg""]","",""
"","3432","similarity","210","894183","0.0-6.0-204.0","2","[""img/0862/cdaed51d-9e2f-4807-801a-4663c40077e2.jpg"",""img/0875/fb732ab5-013a-4366-9f65-27811ed157e9.jpg""]","",""
"","2685","similarity","211","897887","0.0-6.0-205.0","2","[""img/0867/aa05d113-fc19-4756-a8eb-7878f580bc92.jpg"",""img/0881/405484ae-0d00-4b05-bc57-6420a36adfac.jpg""]","",""
"","3357","similarity","212","902255","0.0-6.0-206.0","3","[""img/0901/f1116359-1ff1-4638-b3b3-700918d36d18.jpg"",""img/0902/e5a46bda-30d1-41ca-b36d-b8529b5a63d1.jpg""]","",""
"","3025","similarity","213","906296","0.0-6.0-207.0","1","[""img/0899/06b0fc99-0581-461a-9913-d1a5a941ac61.jpg"",""img/0864/8ddd2e30-a1d0-479f-9cbe-591213023893.jpg""]","",""
"","2505","similarity","214","909823","0.0-6.0-208.0","2","[""img/0901/a6776381-91fe-43f8-ab73-261d318f95fd.jpg"",""img/0769/50985283-d353-4abc-9abe-14a91d56ebe6.jpg""]","",""
"","3263","similarity","215","922062","0.0-6.0-209.0","5","[""img/0902/82d20e8c-2162-47a6-925b-52906558c046.jpg"",""img/0902/10d99c89-71f7-4c81-a31e-dfc7c59f5232.jpg""]","",""
"[{""page_index"":0,""viewing_time"":6404}]","6404","instructions","216","929470","0.0-7.0","","","",""
"","24863","image-multi-choice","217","955383","0.0-8.0-0.0","","","{""Q0"":""Yellow Warbler""}","Nashville Warbler"
"","6983","image-multi-choice","218","963415","0.0-8.0-1.0","","","{""Q0"":""Black-and-white Warbler""}","Black-and-white Warbler"
"","7369","image-multi-choice","219","971822","0.0-8.0-2.0","","","{""Q0"":""Blackburnian Warbler""}","Townsend's Warbler"
"","17759","image-multi-choice","220","990622","0.0-8.0-3.0","","","{""Q0"":""Lark Sparrow""}","Lark Sparrow"
"","11711","image-multi-choice","221","1003374","0.0-8.0-4.0","","","{""Q0"":""Yellow Warbler""}","Yellow Warbler"
"","12191","image-multi-choice","222","1016614","0.0-8.0-5.0","","","{""Q0"":""Orange-crowned Warbler""}","Orange-crowned Warbler"
"","6293","image-multi-choice","223","1023958","0.0-8.0-6.0","","","{""Q0"":""White-throated Sparrow""}","White-throated Sparrow"
"","9023","image-multi-choice","224","1034022","0.0-8.0-7.0","","","{""Q0"":""Fox Sparrow""}","Fox Sparrow"
"","7289","image-multi-choice","225","1042358","0.0-8.0-8.0","","","{""Q0"":""Chipping Sparrow""}","Song Sparrow"
"","17474","image-multi-choice","226","1060878","0.0-8.0-9.0","","","{""Q0"":""Townsend's Warbler""}","Blackburnian Warbler"
"","11079","image-multi-choice","227","1072989","0.0-8.0-10.0","","","{""Q0"":""Chipping Sparrow""}","Vesper Sparrow"
"","4883","image-multi-choice","228","1078909","0.0-8.0-11.0","","","{""Q0"":""White-crowned Sparrow""}","White-crowned Sparrow"
"","7892","image-multi-choice","229","1087837","0.0-8.0-12.0","","","{""Q0"":""American Tree Sparrow""}","American Tree Sparrow"
"","11548","image-multi-choice","230","1100437","0.0-8.0-13.0","","","{""Q0"":""Townsend's Warbler""}","Tennessee Warbler"
"","13576","image-multi-choice","231","1115045","0.0-8.0-14.0","","","{""Q0"":""Tennessee Warbler""}","Magnolia Warbler"
"","8757","image-multi-choice","232","1124845","0.0-8.0-15.0","","","{""Q0"":""Northern Waterthrush""}","Northern Waterthrush"
"","5314","image-multi-choice","233","1131197","0.0-8.0-16.0","","","{""Q0"":""Vesper Sparrow""}","Chipping Sparrow"
"","12959","image-multi-choice","234","1145204","0.0-8.0-17.0","","","{""Q0"":""Lincoln's Sparrow""}","Swamp Sparrow"
"","12262","image-multi-choice","235","1158516","0.0-8.0-18.0","","","{""Q0"":""Song Sparrow""}","Lincoln's Sparrow"
"","20885","image-multi-choice","236","1180436","0.0-8.0-19.0","","","{""Q0"":""Ovenbird""}","Ovenbird"
