[{"view_history":"[{\"page_index\":0,\"viewing_time\":16985}]","rt":16986,"trial_type":"instructions","trial_index":0,"time_elapsed":16986,"internal_node_id":"0.0-0.0"},{"sim_score":6,"rt":8644,"stimulus":"[\"img/866.jpg\",\"img/868.jpg\"]","trial_type":"similarity_demo","trial_index":1,"time_elapsed":26640,"internal_node_id":"0.0-1.0"},{"view_history":"[{\"page_index\":0,\"viewing_time\":16847}]","rt":16847,"trial_type":"instructions","trial_index":2,"time_elapsed":44488,"internal_node_id":"0.0-2.0"},{"sim_score":4,"rt":4922,"stimulus":"[\"img/766.jpg\",\"img/867.jpg\"]","trial_type":"similarity_demo","trial_index":3,"time_elapsed":50418,"internal_node_id":"0.0-3.0"},{"view_history":"[{\"page_index\":0,\"viewing_time\":9801}]","rt":9801,"trial_type":"instructions","trial_index":4,"time_elapsed":61222,"internal_node_id":"0.0-4.0"},{"view_history":"[{\"page_index\":0,\"viewing_time\":53461}]","rt":53461,"trial_type":"instructions","trial_index":5,"time_elapsed":115683,"internal_node_id":"0.0-5.0"},{"sim_score":3,"rt":4540,"stimulus":"[\"img/0868/7b212364-ff5f-4e28-9241-7eb6ea00161b.jpg\",\"img/0901/a2d7b2f6-396b-4d91-8403-de5361c74af7.jpg\"]","trial_type":"similarity","trial_index":6,"time_elapsed":121232,"internal_node_id":"0.0-6.0-0.0"},{"sim_score":3,"rt":8048,"stimulus":"[\"img/0769/9ea9ceb6-049e-4ad9-be8f-00645cd35803.jpg\",\"img/0867/a749dddb-69f0-44a6-acdc-2bf295cf6dcc.jpg\"]","trial_type":"similarity","trial_index":7,"time_elapsed":130284,"internal_node_id":"0.0-6.0-1.0"},{"sim_score":6,"rt":5077,"stimulus":"[\"img/0766/79767d11-b612-4e8a-9e4b-a8ac95bb6a54.jpg\",\"img/0898/81b08535-2020-4c15-9ce4-2f1e460755ae.jpg\"]","trial_type":"similarity","trial_index":8,"time_elapsed":136372,"internal_node_id":"0.0-6.0-2.0"},{"sim_score":4,"rt":4720,"stimulus":"[\"img/0902/2db723b6-130f-454c-8c8d-88829edbcd65.jpg\",\"img/0881/84397291-bc14-4fbf-90e8-241e486ab0fe.jpg\"]","trial_type":"similarity","trial_index":9,"time_elapsed":142098,"internal_node_id":"0.0-6.0-3.0"},{"sim_score":6,"rt":5016,"stimulus":"[\"img/0894/661b9f9f-4bde-487a-b1ed-87085fde6948.jpg\",\"img/0894/133a1636-d123-4893-873c-1718050f832a.jpg\"]","trial_type":"similarity","trial_index":10,"time_elapsed":148120,"internal_node_id":"0.0-6.0-4.0"},{"sim_score":2,"rt":4335,"stimulus":"[\"img/0874/1016b306-087c-4afc-aa08-fa527b28dc76.jpg\",\"img/0899/fef567a2-c121-4481-9af0-ff108d199bbf.jpg\"]","trial_type":"similarity","trial_index":11,"time_elapsed":153460,"internal_node_id":"0.0-6.0-5.0"},{"sim_score":6,"rt":4871,"stimulus":"[\"img/0904/1d10df11-b5c8-4370-9a6b-097a7f965895.jpg\",\"img/0764/8389e74f-e0e0-435d-945f-da1f4c92ccb6.jpg\"]","trial_type":"similarity","trial_index":12,"time_elapsed":159336,"internal_node_id":"0.0-6.0-6.0"},{"sim_score":6,"rt":4392,"stimulus":"[\"img/0899/06b0fc99-0581-461a-9913-d1a5a941ac61.jpg\",\"img/0898/881e2a85-d5c2-49be-a0c6-8a6ce2c4af08.jpg\"]","trial_type":"similarity","trial_index":13,"time_elapsed":164734,"internal_node_id":"0.0-6.0-7.0"},{"sim_score":3,"rt":6029,"stimulus":"[\"img/0874/93d1f8dc-acf2-4f03-bd8d-8ec35df276ed.jpg\",\"img/0903/14f179a2-8786-48a2-8377-88d1d404341b.jpg\"]","trial_type":"similarity","trial_index":14,"time_elapsed":171769,"internal_node_id":"0.0-6.0-8.0"},{"sim_score":6,"rt":4484,"stimulus":"[\"img/0881/19e82c47-8e4b-45d2-a6c8-74181eb4155e.jpg\",\"img/0758/61d64021-9214-4951-bdf8-f871f9827cf9.jpg\"]","trial_type":"similarity","trial_index":15,"time_elapsed":177262,"internal_node_id":"0.0-6.0-9.0"},{"sim_score":5,"rt":4312,"stimulus":"[\"img/0898/f3a3f225-1248-4ac7-b93b-f0ff28485bf3.jpg\",\"img/0901/50e1d53e-a49f-4806-8610-be6dec5a2475.jpg\"]","trial_type":"similarity","trial_index":16,"time_elapsed":182578,"internal_node_id":"0.0-6.0-10.0"},{"sim_score":5,"rt":4025,"stimulus":"[\"img/0903/b4a0f61e-a964-4b79-a9a7-f767a8f92f34.jpg\",\"img/0769/6c0bac4c-5f59-43c7-898c-3ca93cf55cfe.jpg\"]","trial_type":"similarity","trial_index":17,"time_elapsed":187608,"internal_node_id":"0.0-6.0-11.0"},{"sim_score":3,"rt":4310,"stimulus":"[\"img/0764/1f95ab5f-fb65-4d70-b5db-d6bd6351a8aa.jpg\",\"img/0868/293079b8-7e0c-4afd-a390-1e5d35fe3ded.jpg\"]","trial_type":"similarity","trial_index":18,"time_elapsed":192922,"internal_node_id":"0.0-6.0-12.0"},{"sim_score":3,"rt":4160,"stimulus":"[\"img/0867/bf560d4f-dee3-4f11-a385-705cc1aa5f3c.jpg\",\"img/0903/47e39de8-6959-469f-8be9-6999a6db207c.jpg\"]","trial_type":"similarity","trial_index":19,"time_elapsed":198088,"internal_node_id":"0.0-6.0-13.0"},{"sim_score":2,"rt":5322,"stimulus":"[\"img/0766/a1ed3f0f-e338-4a26-8fe4-4370f0c9fa6e.jpg\",\"img/0758/e38fd80d-18d0-42f3-b848-f930788e8bd7.jpg\"]","trial_type":"similarity","trial_index":20,"time_elapsed":204416,"internal_node_id":"0.0-6.0-14.0"},{"sim_score":4,"rt":5250,"stimulus":"[\"img/0902/f3cfec34-482c-4bdb-9c92-19ea6cfce183.jpg\",\"img/0860/e14d67c1-6d92-4f1e-9257-c8607159c19c.jpg\"]","trial_type":"similarity","trial_index":21,"time_elapsed":210670,"internal_node_id":"0.0-6.0-15.0"},{"sim_score":3,"rt":2960,"stimulus":"[\"img/0769/662ab839-88d1-4ebf-af05-9b2980cad943.jpg\",\"img/0875/ebf7653f-ff45-4e9f-af58-2c042ab3cd2b.jpg\"]","trial_type":"similarity","trial_index":22,"time_elapsed":214634,"internal_node_id":"0.0-6.0-16.0"},{"sim_score":3,"rt":2704,"stimulus":"[\"img/0904/2f88ce53-02d0-4f95-a082-182c56a0eeb4.jpg\",\"img/0866/d493a2c8-66eb-44b4-be02-2f327b700b7c.jpg\"]","trial_type":"similarity","trial_index":23,"time_elapsed":218342,"internal_node_id":"0.0-6.0-17.0"},{"sim_score":7,"rt":4962,"stimulus":"[\"img/0875/5a716432-c6ca-4b1c-955a-2b8ac25198ee.jpg\",\"img/0875/03c3c331-738b-4446-af92-3d7386b08c2e.jpg\"]","trial_type":"similarity","trial_index":24,"time_elapsed":224308,"internal_node_id":"0.0-6.0-18.0"},{"sim_score":7,"rt":3734,"stimulus":"[\"img/0758/821c68d3-5cb0-4eae-8659-30e6263fca39.jpg\",\"img/0758/67c0be2f-9e91-48b3-8219-70ac0a1802fa.jpg\"]","trial_type":"similarity","trial_index":25,"time_elapsed":229046,"internal_node_id":"0.0-6.0-19.0"},{"sim_score":3,"rt":4006,"stimulus":"[\"img/0902/2a7ac123-414a-476a-9a96-4757b924baef.jpg\",\"img/0874/3ce41e7c-40c8-4d58-a546-171114521796.jpg\"]","trial_type":"similarity","trial_index":26,"time_elapsed":234058,"internal_node_id":"0.0-6.0-20.0"},{"sim_score":6,"rt":5990,"stimulus":"[\"img/0764/6c7fe363-2d37-418f-9e5e-a3273af5d4fb.jpg\",\"img/0769/5bd04f55-d091-4f57-85db-38426f26bd1a.jpg\"]","trial_type":"similarity","trial_index":27,"time_elapsed":241054,"internal_node_id":"0.0-6.0-21.0"},{"sim_score":3,"rt":3627,"stimulus":"[\"img/0901/233a6948-48eb-4b67-8259-222b916b2322.jpg\",\"img/0874/ca23d307-fc00-4d7d-9106-584c6eb21b4d.jpg\"]","trial_type":"similarity","trial_index":28,"time_elapsed":245684,"internal_node_id":"0.0-6.0-22.0"},{"sim_score":3,"rt":2564,"stimulus":"[\"img/0875/34132396-d896-4c2d-8087-646dd867e769.jpg\",\"img/0903/c3cb4a01-2797-43ca-b216-88c67b323fbb.jpg\"]","trial_type":"similarity","trial_index":29,"time_elapsed":249254,"internal_node_id":"0.0-6.0-23.0"},{"sim_score":3,"rt":3990,"stimulus":"[\"img/0769/3adfa417-3b90-4aab-b437-5eaa474189cb.jpg\",\"img/0881/f6bd3b96-dc40-4e99-8681-bc3a35cf896d.jpg\"]","trial_type":"similarity","trial_index":30,"time_elapsed":254248,"internal_node_id":"0.0-6.0-24.0"},{"sim_score":4,"rt":4396,"stimulus":"[\"img/0867/98d8cd96-1476-4fe0-a3a3-04f875500a1b.jpg\",\"img/0904/63dd06dd-dccb-47ba-9740-eb33239e18a7.jpg\"]","trial_type":"similarity","trial_index":31,"time_elapsed":259650,"internal_node_id":"0.0-6.0-25.0"},{"sim_score":5,"rt":3011,"stimulus":"[\"img/0860/e8b8c51e-1834-4875-8b61-6c5bc9b178bd.jpg\",\"img/0881/f4e3e181-b3c9-4af2-a5a4-fc135ab70d2e.jpg\"]","trial_type":"similarity","trial_index":32,"time_elapsed":263664,"internal_node_id":"0.0-6.0-26.0"},{"sim_score":6,"rt":4612,"stimulus":"[\"img/0866/c446214b-a368-4c65-ae39-ea46894256ab.jpg\",\"img/0866/0207e9a2-7dbb-40b5-9459-b472aaeceb2a.jpg\"]","trial_type":"similarity","trial_index":33,"time_elapsed":269281,"internal_node_id":"0.0-6.0-27.0"},{"sim_score":3,"rt":3204,"stimulus":"[\"img/0764/c84fbfa8-521c-407a-9bd3-24f7308d896c.jpg\",\"img/0862/24cdc752-c2e5-4a17-86a6-6f2045d8553b.jpg\"]","trial_type":"similarity","trial_index":34,"time_elapsed":273490,"internal_node_id":"0.0-6.0-28.0"},{"sim_score":3,"rt":4324,"stimulus":"[\"img/0904/9dd5708f-3f8b-46a9-b49f-2f2fab87b357.jpg\",\"img/0758/20497cbe-ddae-489e-86e2-ab06985ed07c.jpg\"]","trial_type":"similarity","trial_index":35,"time_elapsed":278821,"internal_node_id":"0.0-6.0-29.0"},{"sim_score":5,"rt":3978,"stimulus":"[\"img/0894/a3d4170b-b7d8-40e3-955f-87e76ed745fc.jpg\",\"img/0899/76ad07e2-ca25-45eb-84f2-8d80b8ca3e26.jpg\"]","trial_type":"similarity","trial_index":36,"time_elapsed":283804,"internal_node_id":"0.0-6.0-30.0"},{"sim_score":3,"rt":4862,"stimulus":"[\"img/0860/5bff793e-cbd5-4d7e-b628-0ac2b0e30b64.jpg\",\"img/0904/09dac84f-3d1c-4445-a68e-d0389fdbf1e9.jpg\"]","trial_type":"similarity","trial_index":37,"time_elapsed":289670,"internal_node_id":"0.0-6.0-31.0"},{"sim_score":6,"rt":6027,"stimulus":"[\"img/0874/3f471690-9788-4d03-90c7-f615aecef149.jpg\",\"img/0881/e6746727-7f89-47ec-b939-d98abe78372d.jpg\"]","trial_type":"similarity","trial_index":38,"time_elapsed":296700,"internal_node_id":"0.0-6.0-32.0"},{"sim_score":2,"rt":4237,"stimulus":"[\"img/0881/ee44e27f-d662-4608-b265-e7ffa19b216f.jpg\",\"img/0899/8abe6c69-822c-436c-9bf2-96c818b49ba5.jpg\"]","trial_type":"similarity","trial_index":39,"time_elapsed":301941,"internal_node_id":"0.0-6.0-33.0"},{"sim_score":5,"rt":5146,"stimulus":"[\"img/0866/23a224f3-2012-4fc8-8e0f-3c36f8de27fd.jpg\",\"img/0862/de9ad88c-b522-430a-8ee9-eb06a9f85df5.jpg\"]","trial_type":"similarity","trial_index":40,"time_elapsed":308094,"internal_node_id":"0.0-6.0-34.0"},{"sim_score":3,"rt":2709,"stimulus":"[\"img/0868/5fa7f9d0-f0e5-454c-8224-74d964818f56.jpg\",\"img/0894/5ff3c4f6-52e2-4075-8679-be0312e59703.jpg\"]","trial_type":"similarity","trial_index":41,"time_elapsed":311806,"internal_node_id":"0.0-6.0-35.0"},{"sim_score":6,"rt":4389,"stimulus":"[\"img/0860/5383b320-1518-4095-a58e-5cc1ae30b64c.jpg\",\"img/0860/18dfed73-e36b-4487-a8bd-0b8cff8e3668.jpg\"]","trial_type":"similarity","trial_index":42,"time_elapsed":317199,"internal_node_id":"0.0-6.0-36.0"},{"sim_score":6,"rt":5930,"stimulus":"[\"img/0862/ad593cc7-cabe-4bb7-8e14-8a447a0717b4.jpg\",\"img/0864/4bd81bc6-c13d-46df-95a9-485886dc7c1b.jpg\"]","trial_type":"similarity","trial_index":43,"time_elapsed":324132,"internal_node_id":"0.0-6.0-37.0"},{"sim_score":4,"rt":4472,"stimulus":"[\"img/0766/0025de5e-f620-4079-8a0f-00326ff3a6b0.jpg\",\"img/0866/93a27239-8317-4e08-98ca-d8b1ff298e07.jpg\"]","trial_type":"similarity","trial_index":44,"time_elapsed":329609,"internal_node_id":"0.0-6.0-38.0"},{"sim_score":3,"rt":3025,"stimulus":"[\"img/0875/d59ff733-eaff-4ee2-9443-06954dd0bcb6.jpg\",\"img/0898/26c41340-15bd-4ead-8fe4-c0d0ddca09c2.jpg\"]","trial_type":"similarity","trial_index":45,"time_elapsed":333640,"internal_node_id":"0.0-6.0-39.0"},{"sim_score":5,"rt":5543,"stimulus":"[\"img/0766/d5d38751-8fa5-476f-93e9-86ed2d9045ef.jpg\",\"img/0769/82ab9db6-4578-4e79-874f-f09100439f09.jpg\"]","trial_type":"similarity","trial_index":46,"time_elapsed":340188,"internal_node_id":"0.0-6.0-40.0"},{"sim_score":2,"rt":5018,"stimulus":"[\"img/0874/31e22c7c-99aa-40b1-bf03-dd73fa2df4d6.jpg\",\"img/0764/ca957454-126a-4bd3-b29c-7174a24c25dc.jpg\"]","trial_type":"similarity","trial_index":47,"time_elapsed":521218,"internal_node_id":"0.0-6.0-41.0"},{"sim_score":2,"rt":6530,"stimulus":"[\"img/0868/09a9ef4d-d000-4cfa-a6aa-ebec7c2edeb4.jpg\",\"img/0902/418b716e-63e5-4c77-93e9-95b1f5a3ddf0.jpg\"]","trial_type":"similarity","trial_index":48,"time_elapsed":528754,"internal_node_id":"0.0-6.0-42.0"},{"sim_score":1,"rt":3412,"stimulus":"[\"img/0875/f87b67d7-c33e-40d1-b281-248c4be1cb6e.jpg\",\"img/0899/9de5e857-aa9a-4e0c-8ba2-46d79bd069a4.jpg\"]","trial_type":"similarity","trial_index":49,"time_elapsed":533171,"internal_node_id":"0.0-6.0-43.0"},{"sim_score":5,"rt":3711,"stimulus":"[\"img/0866/be24ab58-230e-4db8-9f45-ff04c9aec6bb.jpg\",\"img/0860/99c589b9-9140-4d17-90c0-b344323edcda.jpg\"]","trial_type":"similarity","trial_index":50,"time_elapsed":537888,"internal_node_id":"0.0-6.0-44.0"},{"sim_score":6,"rt":4149,"stimulus":"[\"img/0766/2e1cf445-9aef-40e7-92f4-5facf48b64c5.jpg\",\"img/0903/8fcafe03-43df-4c45-9da5-0df3a1eeccc5.jpg\"]","trial_type":"similarity","trial_index":51,"time_elapsed":543041,"internal_node_id":"0.0-6.0-45.0"},{"sim_score":4,"rt":3635,"stimulus":"[\"img/0901/5b97abf9-f0c8-4fd1-b921-36d574779078.jpg\",\"img/0904/4d7d70a3-9477-4921-bda0-f9531d0a5c5b.jpg\"]","trial_type":"similarity","trial_index":52,"time_elapsed":547682,"internal_node_id":"0.0-6.0-46.0"},{"sim_score":2,"rt":5526,"stimulus":"[\"img/0758/7fba58df-2a7a-4b76-8a8f-62739f97f271.jpg\",\"img/0902/ca3160ba-ad5d-459f-a1b6-8b4f3c85ecd5.jpg\"]","trial_type":"similarity","trial_index":53,"time_elapsed":554214,"internal_node_id":"0.0-6.0-47.0"},{"sim_score":7,"rt":4420,"stimulus":"[\"img/0764/a3226bc4-dcc3-4608-bde8-1414d685ce5c.jpg\",\"img/0764/d0bef2e0-e16b-4c82-9451-c1d16265eb67.jpg\"]","trial_type":"similarity","trial_index":54,"time_elapsed":559639,"internal_node_id":"0.0-6.0-48.0"},{"sim_score":2,"rt":4333,"stimulus":"[\"img/0866/620cd1aa-0800-4414-8f6e-90342e7a99ad.jpg\",\"img/0902/04a6ad4a-afc6-4871-8225-56b299af7b6b.jpg\"]","trial_type":"similarity","trial_index":55,"time_elapsed":564977,"internal_node_id":"0.0-6.0-49.0"},{"sim_score":3,"rt":4971,"stimulus":"[\"img/0764/a86eed5b-d0af-4c3f-8c7a-26e98e98cf1a.jpg\",\"img/0758/caa93da2-9edf-49fa-96b9-32dedd8f5078.jpg\"]","trial_type":"similarity","trial_index":56,"time_elapsed":570954,"internal_node_id":"0.0-6.0-50.0"},{"sim_score":6,"rt":4190,"stimulus":"[\"img/0898/a114b375-cb89-44ba-9498-74213f1ecdee.jpg\",\"img/0894/4739e06d-c31e-4bf1-bf91-c97fa9afb456.jpg\"]","trial_type":"similarity","trial_index":57,"time_elapsed":576149,"internal_node_id":"0.0-6.0-51.0"},{"sim_score":5,"rt":4645,"stimulus":"[\"img/0875/90da8d75-108a-44ad-b999-e21fee3860d3.jpg\",\"img/0866/07c9c966-3c8d-40e7-8128-92b2acbaed5d.jpg\"]","trial_type":"similarity","trial_index":58,"time_elapsed":581798,"internal_node_id":"0.0-6.0-52.0"},{"sim_score":6,"rt":4191,"stimulus":"[\"img/0904/4b8daf2a-13a9-4ea9-9e0b-b265b6e933e7.jpg\",\"img/0904/60d1a521-edf7-4696-9263-f21ac0e62a01.jpg\"]","trial_type":"similarity","trial_index":59,"time_elapsed":586992,"internal_node_id":"0.0-6.0-53.0"},{"sim_score":6,"rt":4077,"stimulus":"[\"img/0769/688d0c52-ad73-4065-a5eb-f8c10d076bff.jpg\",\"img/0769/96556ef3-7fac-4c9d-8281-1cb0ea5081bc.jpg\"]","trial_type":"similarity","trial_index":60,"time_elapsed":592072,"internal_node_id":"0.0-6.0-54.0"},{"sim_score":1,"rt":5901,"stimulus":"[\"img/0898/e167334e-cc1d-4986-b3b1-c7bc7da64baa.jpg\",\"img/0758/53f35650-e455-4b53-8be4-c3c8271c6466.jpg\"]","trial_type":"similarity","trial_index":61,"time_elapsed":598976,"internal_node_id":"0.0-6.0-55.0"},{"sim_score":5,"rt":4605,"stimulus":"[\"img/0769/d1be2815-fa79-46e8-b5c3-7d81caaca490.jpg\",\"img/0902/d49743d6-67ae-4c2e-a939-8fd895a0f18e.jpg\"]","trial_type":"similarity","trial_index":62,"time_elapsed":604586,"internal_node_id":"0.0-6.0-56.0"},{"sim_score":6,"rt":6087,"stimulus":"[\"img/0864/e8bd659f-aa43-4748-877e-3118e8b4e189.jpg\",\"img/0881/f62bdcd1-a4b7-4d48-83da-d9c9e01c8727.jpg\"]","trial_type":"similarity","trial_index":63,"time_elapsed":611676,"internal_node_id":"0.0-6.0-57.0"},{"sim_score":4,"rt":4975,"stimulus":"[\"img/0758/eabcd7a8-56ad-4fd2-bc24-90f6b7b33265.jpg\",\"img/0868/e0aff734-077f-40dd-9781-74821abd3621.jpg\"]","trial_type":"similarity","trial_index":64,"time_elapsed":617654,"internal_node_id":"0.0-6.0-58.0"},{"sim_score":4,"rt":3686,"stimulus":"[\"img/0862/d0ca4c78-fc35-46ed-bdcc-8e124283c53e.jpg\",\"img/0769/47700831-0ca2-4fdd-a498-a3bc5a528f43.jpg\"]","trial_type":"similarity","trial_index":65,"time_elapsed":622344,"internal_node_id":"0.0-6.0-59.0"},{"sim_score":5,"rt":4311,"stimulus":"[\"img/0764/03c07b98-3f18-4b71-bb70-ecff564a78d1.jpg\",\"img/0903/365f176c-25a4-4973-bd3c-279bf1b39476.jpg\"]","trial_type":"similarity","trial_index":66,"time_elapsed":627660,"internal_node_id":"0.0-6.0-60.0"},{"sim_score":7,"rt":4030,"stimulus":"[\"img/0899/8de08897-b430-42fe-9d42-840670b80f94.jpg\",\"img/0899/ad8268c5-8199-48d0-ad70-c5b6d6c599ec.jpg\"]","trial_type":"similarity","trial_index":67,"time_elapsed":632697,"internal_node_id":"0.0-6.0-61.0"},{"sim_score":4,"rt":2803,"stimulus":"[\"img/0860/c47fdead-eb02-4989-b078-26f4852f44fe.jpg\",\"img/0875/3ecb367d-e9eb-4826-8aaa-7aa72fb98019.jpg\"]","trial_type":"similarity","trial_index":68,"time_elapsed":636506,"internal_node_id":"0.0-6.0-62.0"},{"sim_score":3,"rt":5765,"stimulus":"[\"img/0868/0d3abd3a-b6c3-4584-a9f7-e2da63748b3d.jpg\",\"img/0874/995f0332-0439-4eb4-add3-957335dbf6d9.jpg\"]","trial_type":"similarity","trial_index":69,"time_elapsed":643274,"internal_node_id":"0.0-6.0-63.0"},{"sim_score":4,"rt":5272,"stimulus":"[\"img/0758/e1ba5e53-addc-436a-b428-d34fc1b130dc.jpg\",\"img/0862/57b6f83f-c763-4858-830d-102f97bfefbf.jpg\"]","trial_type":"similarity","trial_index":70,"time_elapsed":649550,"internal_node_id":"0.0-6.0-64.0"},{"sim_score":3,"rt":5038,"stimulus":"[\"img/0904/b5855d6a-7ef9-46ca-9215-6e9fa046e543.jpg\",\"img/0898/08c72dac-f8ad-407a-9ce6-8c9a5d679c3a.jpg\"]","trial_type":"similarity","trial_index":71,"time_elapsed":655592,"internal_node_id":"0.0-6.0-65.0"},{"sim_score":4,"rt":2439,"stimulus":"[\"img/0881/adc02f34-ce97-4aef-850f-00519df06fd7.jpg\",\"img/0866/f756f7d1-9ad8-4a34-9ef6-7a443d705bfe.jpg\"]","trial_type":"similarity","trial_index":72,"time_elapsed":659035,"internal_node_id":"0.0-6.0-66.0"},{"sim_score":3,"rt":2573,"stimulus":"[\"img/0867/c71dc569-f49c-4397-8381-68b8d726736d.jpg\",\"img/0898/cd3aaa3f-efa9-4ab3-8d6f-a6a9273ddf42.jpg\"]","trial_type":"similarity","trial_index":73,"time_elapsed":662612,"internal_node_id":"0.0-6.0-67.0"},{"sim_score":2,"rt":3214,"stimulus":"[\"img/0902/b56db912-c3c0-4fc2-b325-d640acd7cb58.jpg\",\"img/0764/ec2dd087-c471-4370-b570-95a542506a96.jpg\"]","trial_type":"similarity","trial_index":74,"time_elapsed":666830,"internal_node_id":"0.0-6.0-68.0"},{"sim_score":5,"rt":3282,"stimulus":"[\"img/0875/527ced51-8e53-4aab-ab05-86df219104c0.jpg\",\"img/0867/a498eef3-9fa4-4ab2-9778-4ae82ac40dc5.jpg\"]","trial_type":"similarity","trial_index":75,"time_elapsed":671116,"internal_node_id":"0.0-6.0-69.0"},{"sim_score":5,"rt":5413,"stimulus":"[\"img/0766/69e486f7-dbef-456b-9d48-53d814248a28.jpg\",\"img/0764/4eff630a-6426-4f8d-b2ba-b4d9842a0962.jpg\"]","trial_type":"similarity","trial_index":76,"time_elapsed":677535,"internal_node_id":"0.0-6.0-70.0"},{"sim_score":3,"rt":3015,"stimulus":"[\"img/0894/10f22b96-040c-44f4-950b-a4963f3f506c.jpg\",\"img/0867/12264664-1860-46df-8c21-162b9817cdda.jpg\"]","trial_type":"similarity","trial_index":77,"time_elapsed":681555,"internal_node_id":"0.0-6.0-71.0"},{"sim_score":2,"rt":3111,"stimulus":"[\"img/0875/a4935837-7d3c-4df6-88c1-36a94d4991ca.jpg\",\"img/0764/c0b03adb-bd0a-4b96-a915-a827c2fd5211.jpg\"]","trial_type":"similarity","trial_index":78,"time_elapsed":685671,"internal_node_id":"0.0-6.0-72.0"},{"sim_score":6,"rt":3312,"stimulus":"[\"img/0867/6e19c858-b606-45b2-a4c6-910a73f1d82c.jpg\",\"img/0866/d266fece-59b3-46fa-b69f-96f6efb81b59.jpg\"]","trial_type":"similarity","trial_index":79,"time_elapsed":689990,"internal_node_id":"0.0-6.0-73.0"},{"sim_score":2,"rt":3289,"stimulus":"[\"img/0903/c708d08f-a108-4e04-8288-c3fcf6375db4.jpg\",\"img/0758/d41c06bf-ebaf-454b-91c6-1a17f917b659.jpg\"]","trial_type":"similarity","trial_index":80,"time_elapsed":694285,"internal_node_id":"0.0-6.0-74.0"},{"sim_score":1,"rt":5244,"stimulus":"[\"img/0766/b84598d0-5b41-4841-88b0-b441b48289f5.jpg\",\"img/0868/83b4350a-3b70-4cea-b7f5-b5b56f3050a8.jpg\"]","trial_type":"similarity","trial_index":81,"time_elapsed":700535,"internal_node_id":"0.0-6.0-75.0"},{"sim_score":3,"rt":2957,"stimulus":"[\"img/0874/bf14b896-e930-4fd9-9c05-2e83317a2773.jpg\",\"img/0766/d512b99c-a2dc-40d7-8e86-827323a0cbcf.jpg\"]","trial_type":"similarity","trial_index":82,"time_elapsed":704496,"internal_node_id":"0.0-6.0-76.0"},{"sim_score":5,"rt":4216,"stimulus":"[\"img/0881/d1982897-8d8d-4704-a940-1ee5d07a1f15.jpg\",\"img/0868/4bd5105a-d2c3-4f82-8c80-57196106ba53.jpg\"]","trial_type":"similarity","trial_index":83,"time_elapsed":709715,"internal_node_id":"0.0-6.0-77.0"},{"sim_score":2,"rt":2899,"stimulus":"[\"img/0758/7ffbc76b-1fc1-432c-8f7e-9ec8d1b3f643.jpg\",\"img/0901/f1116359-1ff1-4638-b3b3-700918d36d18.jpg\"]","trial_type":"similarity","trial_index":84,"time_elapsed":713618,"internal_node_id":"0.0-6.0-78.0"},{"sim_score":3,"rt":3314,"stimulus":"[\"img/0881/db77fe00-aeb0-4d1d-aa66-f3a96fd077e4.jpg\",\"img/0898/0af304a2-6a7a-4082-ab7c-4450cd08cc58.jpg\"]","trial_type":"similarity","trial_index":85,"time_elapsed":717935,"internal_node_id":"0.0-6.0-79.0"},{"sim_score":4,"rt":2472,"stimulus":"[\"img/0867/f26f6b60-f772-4f4c-95a4-addc62cfd692.jpg\",\"img/0758/9fb5b2fe-3f00-4fe6-973c-1ce10d5f4cd5.jpg\"]","trial_type":"similarity","trial_index":86,"time_elapsed":721412,"internal_node_id":"0.0-6.0-80.0"},{"sim_score":3,"rt":3116,"stimulus":"[\"img/0769/180213e5-1e50-4b4e-87b6-add77ba04d39.jpg\",\"img/0899/0adc0bc3-6fca-4078-be6f-d45ddf1653d5.jpg\"]","trial_type":"similarity","trial_index":87,"time_elapsed":725531,"internal_node_id":"0.0-6.0-81.0"},{"sim_score":7,"rt":4360,"stimulus":"[\"img/0903/ea75f240-fb62-4edb-a709-83e858b202c0.jpg\",\"img/0903/5995f4a8-fa82-46f8-8760-fd7800a5ca34.jpg\"]","trial_type":"similarity","trial_index":88,"time_elapsed":730898,"internal_node_id":"0.0-6.0-82.0"},{"sim_score":2,"rt":5043,"stimulus":"[\"img/0867/075e0f95-856b-4cbb-acf5-092393aaf04e.jpg\",\"img/0766/d14acac4-7db1-4b07-8f8f-302437326fc0.jpg\"]","trial_type":"similarity","trial_index":89,"time_elapsed":1681670,"internal_node_id":"0.0-6.0-83.0"},{"sim_score":2,"rt":4147,"stimulus":"[\"img/0902/3b243e54-0803-4c29-af42-4037c2118495.jpg\",\"img/0867/2e1a0b58-cdb1-4107-a14e-452530d7b9b0.jpg\"]","trial_type":"similarity","trial_index":90,"time_elapsed":1686821,"internal_node_id":"0.0-6.0-84.0"},{"sim_score":1,"rt":3940,"stimulus":"[\"img/0901/d4d09bf5-093e-4050-838e-7c738be8e63c.jpg\",\"img/0875/5a7c4e35-6514-4e12-8879-d16071da4cd6.jpg\"]","trial_type":"similarity","trial_index":91,"time_elapsed":1691765,"internal_node_id":"0.0-6.0-85.0"},{"sim_score":3,"rt":3710,"stimulus":"[\"img/0764/da207710-e7e4-4f42-b2e6-99b5f357f433.jpg\",\"img/0866/386235d2-6857-41e7-88a8-25cfc3430025.jpg\"]","trial_type":"similarity","trial_index":92,"time_elapsed":1696481,"internal_node_id":"0.0-6.0-86.0"},{"sim_score":6,"rt":3109,"stimulus":"[\"img/0901/fb0a8e69-7f19-4e6e-a6bb-a48f97f9b4f3.jpg\",\"img/0894/2217bdcd-23a7-42d3-823b-23f2488d7e87.jpg\"]","trial_type":"similarity","trial_index":93,"time_elapsed":1700595,"internal_node_id":"0.0-6.0-87.0"},{"sim_score":6,"rt":4347,"stimulus":"[\"img/0898/6cd3830b-d44e-4915-be2b-88d31424b91c.jpg\",\"img/0769/db94b61b-a5a7-4861-9d32-7b02ad194fb0.jpg\"]","trial_type":"similarity","trial_index":94,"time_elapsed":1705950,"internal_node_id":"0.0-6.0-88.0"},{"sim_score":5,"rt":5538,"stimulus":"[\"img/0769/057eb0a0-aa5b-40c7-9852-21444f68d767.jpg\",\"img/0894/6b2e9509-8699-42b7-9582-7741df0ba2d7.jpg\"]","trial_type":"similarity","trial_index":95,"time_elapsed":1712492,"internal_node_id":"0.0-6.0-89.0"},{"sim_score":5,"rt":4635,"stimulus":"[\"img/0862/e697469a-ec19-4414-b972-7b9f3564785b.jpg\",\"img/0874/99f6563c-8a8d-4c1c-a41d-667b618c3fd5.jpg\"]","trial_type":"similarity","trial_index":96,"time_elapsed":1718132,"internal_node_id":"0.0-6.0-90.0"},{"sim_score":5,"rt":4650,"stimulus":"[\"img/0894/8cadb87a-7001-4e47-99fb-1867bebf1668.jpg\",\"img/0766/f5f78e4e-d88f-4866-951a-118ba9fec4d0.jpg\"]","trial_type":"similarity","trial_index":97,"time_elapsed":1723786,"internal_node_id":"0.0-6.0-91.0"},{"sim_score":4,"rt":3172,"stimulus":"[\"img/0874/2c9464dd-8a23-4baa-ac94-1ba3af5c15cc.jpg\",\"img/0867/50a1b60e-3a29-44bf-b606-d4bd3746fea9.jpg\"]","trial_type":"similarity","trial_index":98,"time_elapsed":1727962,"internal_node_id":"0.0-6.0-92.0"},{"sim_score":1,"rt":6355,"stimulus":"[\"img/0899/25ae6ec8-9565-49fe-a8bb-8d0666f52716.jpg\",\"img/0868/4a8a45ed-2c4f-421b-9564-409a33ecd26c.jpg\"]","trial_type":"similarity","trial_index":99,"time_elapsed":1735324,"internal_node_id":"0.0-6.0-93.0"},{"sim_score":3,"rt":3299,"stimulus":"[\"img/0903/8c358e9e-a4f4-466e-8b93-7aec0d2358e8.jpg\",\"img/0862/53a9cf7c-93c4-41b9-952f-07d17f7a17b2.jpg\"]","trial_type":"similarity","trial_index":100,"time_elapsed":1739629,"internal_node_id":"0.0-6.0-94.0"},{"sim_score":5,"rt":4210,"stimulus":"[\"img/0899/fd9efb43-701f-4cd6-baaa-4c38315f4bdc.jpg\",\"img/0766/33519c22-aaa4-49d7-8d49-ab551db1945e.jpg\"]","trial_type":"similarity","trial_index":101,"time_elapsed":1744843,"internal_node_id":"0.0-6.0-95.0"},{"sim_score":7,"rt":3738,"stimulus":"[\"img/0867/85a96c62-548f-4994-9553-819e03c3135a.jpg\",\"img/0868/1a62b2b2-18f5-466e-b564-5176a57c565e.jpg\"]","trial_type":"similarity","trial_index":102,"time_elapsed":1749588,"internal_node_id":"0.0-6.0-96.0"},{"sim_score":4,"rt":6051,"stimulus":"[\"img/0862/7918ca67-5bd3-4606-a5ea-c39fb11a9297.jpg\",\"img/0901/548d1110-7cb8-42a2-9927-9798875c8b5c.jpg\"]","trial_type":"similarity","trial_index":103,"time_elapsed":1756645,"internal_node_id":"0.0-6.0-97.0"},{"sim_score":2,"rt":3468,"stimulus":"[\"img/0875/fb732ab5-013a-4366-9f65-27811ed157e9.jpg\",\"img/0766/ea09dd5a-d24d-4e97-a099-7da3db1baef1.jpg\"]","trial_type":"similarity","trial_index":104,"time_elapsed":1761118,"internal_node_id":"0.0-6.0-98.0"},{"sim_score":7,"rt":4638,"stimulus":"[\"img/0758/d57c2592-a317-4f63-91be-91a3a9afd222.jpg\",\"img/0874/eba003b4-cdab-4eee-8bc3-f064c7d94165.jpg\"]","trial_type":"similarity","trial_index":105,"time_elapsed":1766763,"internal_node_id":"0.0-6.0-99.0"},{"sim_score":2,"rt":2900,"stimulus":"[\"img/0904/56e73f28-7e64-489b-a161-e6b1a063878d.jpg\",\"img/0868/15dd6fd7-791e-4b53-b203-195d617521a4.jpg\"]","trial_type":"similarity","trial_index":106,"time_elapsed":1770666,"internal_node_id":"0.0-6.0-100.0"},{"sim_score":4,"rt":4297,"stimulus":"[\"img/0903/71dbc325-b588-4297-a5cf-7f268a722ad9.jpg\",\"img/0866/bf14b5bd-fb55-47db-86b9-4f8aeb9a6dad.jpg\"]","trial_type":"similarity","trial_index":107,"time_elapsed":1775967,"internal_node_id":"0.0-6.0-101.0"},{"sim_score":3,"rt":4445,"stimulus":"[\"img/0868/77091fc7-a590-4ebb-b915-fdb2483a2399.jpg\",\"img/0769/c7cfacc3-7f07-46ff-9f5d-8073f4c4679b.jpg\"]","trial_type":"similarity","trial_index":108,"time_elapsed":1781415,"internal_node_id":"0.0-6.0-102.0"},{"sim_score":5,"rt":3788,"stimulus":"[\"img/0902/0eb85fbc-27c8-41df-9d0b-a5f9efd417d1.jpg\",\"img/0899/4408c14d-c168-4a7d-96f6-bc87bfb58f83.jpg\"]","trial_type":"similarity","trial_index":109,"time_elapsed":1786206,"internal_node_id":"0.0-6.0-103.0"},{"sim_score":4,"rt":3071,"stimulus":"[\"img/0868/3a62db2d-97e9-44a3-b8e3-a48c6f0e423b.jpg\",\"img/0862/a0a3a7ba-7798-46a3-b4ca-05e1f6e581d0.jpg\"]","trial_type":"similarity","trial_index":110,"time_elapsed":1790282,"internal_node_id":"0.0-6.0-104.0"},{"sim_score":6,"rt":2644,"stimulus":"[\"img/0903/f1fa0f8d-e62b-4b4a-a174-31a0fabfe61b.jpg\",\"img/0894/5c7677b0-a4f1-479e-b274-7822c415175a.jpg\"]","trial_type":"similarity","trial_index":111,"time_elapsed":1793933,"internal_node_id":"0.0-6.0-105.0"},{"sim_score":6,"rt":3917,"stimulus":"[\"img/0864/9b2490c5-a282-400a-9736-e1a0ecbf1cb7.jpg\",\"img/0874/c0378dac-9370-439a-8b79-db27c96fb390.jpg\"]","trial_type":"similarity","trial_index":112,"time_elapsed":1798854,"internal_node_id":"0.0-6.0-106.0"},{"sim_score":3,"rt":3744,"stimulus":"[\"img/0862/f43ceabf-acc1-4107-b857-5d1849808f93.jpg\",\"img/0902/0db94c50-f1fb-4091-953c-29ca0466bee2.jpg\"]","trial_type":"similarity","trial_index":113,"time_elapsed":1803602,"internal_node_id":"0.0-6.0-107.0"},{"sim_score":6,"rt":6970,"stimulus":"[\"img/0904/9b3568cc-3cf7-42be-9df3-fdafde7a58b8.jpg\",\"img/0903/45e2d600-57ff-4d69-b22c-0c7896cd38f0.jpg\"]","trial_type":"similarity","trial_index":114,"time_elapsed":1811577,"internal_node_id":"0.0-6.0-108.0"},{"sim_score":2,"rt":3843,"stimulus":"[\"img/0764/b887d7c6-aa81-4637-af8e-05135757ac59.jpg\",\"img/0864/c3b63e8f-ea39-4d70-a1f2-b3fe4be8eb75.jpg\"]","trial_type":"similarity","trial_index":115,"time_elapsed":1816423,"internal_node_id":"0.0-6.0-109.0"},{"sim_score":3,"rt":3598,"stimulus":"[\"img/0866/11a1d141-be5e-443c-98c1-a9d4d9e3dec0.jpg\",\"img/0894/11674fa4-285d-44e2-939f-2228c6a64080.jpg\"]","trial_type":"similarity","trial_index":116,"time_elapsed":1821027,"internal_node_id":"0.0-6.0-110.0"},{"sim_score":5,"rt":2840,"stimulus":"[\"img/0899/7b7380d5-d2be-44e5-a09a-c1756f87ef71.jpg\",\"img/0903/bf0a7d60-eca5-44b0-bafd-baf21db9904b.jpg\"]","trial_type":"similarity","trial_index":117,"time_elapsed":1824871,"internal_node_id":"0.0-6.0-111.0"},{"sim_score":6,"rt":4223,"stimulus":"[\"img/0902/10d99c89-71f7-4c81-a31e-dfc7c59f5232.jpg\",\"img/0904/96e503ea-6630-4996-85f2-0237688ce441.jpg\"]","trial_type":"similarity","trial_index":118,"time_elapsed":1830101,"internal_node_id":"0.0-6.0-112.0"},{"sim_score":5,"rt":2800,"stimulus":"[\"img/0864/87c467d3-abca-482f-ad80-3766c21b1bb3.jpg\",\"img/0860/4a022222-056d-461c-ab02-39fac9647552.jpg\"]","trial_type":"similarity","trial_index":119,"time_elapsed":1833905,"internal_node_id":"0.0-6.0-113.0"},{"sim_score":2,"rt":3285,"stimulus":"[\"img/0860/15b24a61-25be-4356-9eac-5ce95d0cb4a4.jpg\",\"img/0899/d8f2dd94-570e-4e8c-a087-d96090fb9e8c.jpg\"]","trial_type":"similarity","trial_index":120,"time_elapsed":1838196,"internal_node_id":"0.0-6.0-114.0"},{"sim_score":3,"rt":2298,"stimulus":"[\"img/0881/f7a8cc63-8842-40a4-9ff8-fe530310d62c.jpg\",\"img/0903/8f7f9939-b8e6-433f-93dd-b362496c80a7.jpg\"]","trial_type":"similarity","trial_index":121,"time_elapsed":1841501,"internal_node_id":"0.0-6.0-115.0"},{"sim_score":4,"rt":3584,"stimulus":"[\"img/0894/492d2f29-d7b9-4422-8be8-47fd58bfaa8b.jpg\",\"img/0874/adf9a8f1-c40b-402b-b95b-1e85a54a7b62.jpg\"]","trial_type":"similarity","trial_index":122,"time_elapsed":1846088,"internal_node_id":"0.0-6.0-116.0"},{"sim_score":5,"rt":2603,"stimulus":"[\"img/0881/54ea8e77-c7e5-4197-b7fa-00b7020849a7.jpg\",\"img/0862/fad1d7c1-8187-43c3-942a-0fc12183e48e.jpg\"]","trial_type":"similarity","trial_index":123,"time_elapsed":1849696,"internal_node_id":"0.0-6.0-117.0"},{"sim_score":6,"rt":3233,"stimulus":"[\"img/0868/6a28c3b0-3d76-498a-9fb7-ddafc665eca8.jpg\",\"img/0875/2e13d160-eea1-416b-aff1-d37ab99ecc1d.jpg\"]","trial_type":"similarity","trial_index":124,"time_elapsed":1853933,"internal_node_id":"0.0-6.0-118.0"},{"sim_score":5,"rt":3216,"stimulus":"[\"img/0860/71e1aad0-2cdf-43bb-94a4-a8c016997c30.jpg\",\"img/0758/65d426d6-3ff6-415d-8654-a43b83ecc4fe.jpg\"]","trial_type":"similarity","trial_index":125,"time_elapsed":1858154,"internal_node_id":"0.0-6.0-119.0"},{"sim_score":5,"rt":2954,"stimulus":"[\"img/0864/66091c27-e588-4476-8af9-265dc6be4156.jpg\",\"img/0875/dbdd643e-6d0e-4a5c-ab57-b9c29b9c981a.jpg\"]","trial_type":"similarity","trial_index":126,"time_elapsed":1862112,"internal_node_id":"0.0-6.0-120.0"},{"sim_score":2,"rt":3204,"stimulus":"[\"img/0898/82231d4c-218b-4d0a-b50d-35a49b524e97.jpg\",\"img/0866/8efcaa46-83ab-4dee-a35f-850402aa21ae.jpg\"]","trial_type":"similarity","trial_index":127,"time_elapsed":1866321,"internal_node_id":"0.0-6.0-121.0"},{"sim_score":3,"rt":2681,"stimulus":"[\"img/0874/7e4f2150-3b59-4a36-b5da-a4e0ba410531.jpg\",\"img/0904/ba8e689e-9ca6-4608-a2a1-3b0940666ae6.jpg\"]","trial_type":"similarity","trial_index":128,"time_elapsed":1870007,"internal_node_id":"0.0-6.0-122.0"},{"sim_score":3,"rt":2937,"stimulus":"[\"img/0904/5cceabc9-de1d-4c67-989b-c28a4ef77e79.jpg\",\"img/0864/efcfbb1b-8197-44c9-b723-40d6c608dd3c.jpg\"]","trial_type":"similarity","trial_index":129,"time_elapsed":1873947,"internal_node_id":"0.0-6.0-123.0"},{"sim_score":5,"rt":3442,"stimulus":"[\"img/0894/38cf335f-f76f-4349-8d65-e20cd6859565.jpg\",\"img/0902/168ebd47-9e82-4ab7-a18b-c3da85072db8.jpg\"]","trial_type":"similarity","trial_index":130,"time_elapsed":1878395,"internal_node_id":"0.0-6.0-124.0"},{"sim_score":4,"rt":2902,"stimulus":"[\"img/0868/fd307a36-9a3a-47d7-ab7c-f810d0b35040.jpg\",\"img/0864/5f33e097-23e3-4002-882d-76e8cb15f451.jpg\"]","trial_type":"similarity","trial_index":131,"time_elapsed":1894578,"internal_node_id":"0.0-6.0-125.0"},{"sim_score":3,"rt":3228,"stimulus":"[\"img/0899/7f9d45d0-b2c6-40d3-aa41-c207db2c411b.jpg\",\"img/0866/4a87911a-d5be-4d4e-ab8e-3d1f581bf507.jpg\"]","trial_type":"similarity","trial_index":132,"time_elapsed":1898811,"internal_node_id":"0.0-6.0-126.0"},{"sim_score":2,"rt":3387,"stimulus":"[\"img/0875/cff79b3a-a797-4393-9757-6275f999ec04.jpg\",\"img/0904/b7c2a2c8-df33-4473-b3d4-ff7147c60db3.jpg\"]","trial_type":"similarity","trial_index":133,"time_elapsed":1903204,"internal_node_id":"0.0-6.0-127.0"},{"sim_score":1,"rt":4274,"stimulus":"[\"img/0867/f8159067-056c-41f1-a136-c529fe5e970a.jpg\",\"img/0899/66ab3178-c3fe-4455-ad17-d5952b08e018.jpg\"]","trial_type":"similarity","trial_index":134,"time_elapsed":1908485,"internal_node_id":"0.0-6.0-128.0"},{"sim_score":3,"rt":3086,"stimulus":"[\"img/0901/2a953e50-d237-405c-a38d-5ed21494c968.jpg\",\"img/0867/7d1c497b-c1b3-4ed8-abb5-d7f73306015f.jpg\"]","trial_type":"similarity","trial_index":135,"time_elapsed":1912575,"internal_node_id":"0.0-6.0-129.0"},{"sim_score":3,"rt":3159,"stimulus":"[\"img/0864/ea327690-500b-4137-bf91-451b309fe6a5.jpg\",\"img/0769/aad494cc-674d-4a08-9bfa-24a88ebe3c79.jpg\"]","trial_type":"similarity","trial_index":136,"time_elapsed":1916740,"internal_node_id":"0.0-6.0-130.0"},{"sim_score":4,"rt":3595,"stimulus":"[\"img/0903/b7e3723f-fd03-4f3d-8820-f19496463a34.jpg\",\"img/0868/8b0b8473-e2c0-4331-aa56-c3a5c29369da.jpg\"]","trial_type":"similarity","trial_index":137,"time_elapsed":1921340,"internal_node_id":"0.0-6.0-131.0"},{"sim_score":5,"rt":2380,"stimulus":"[\"img/0864/a248adb3-c70b-4652-b7a3-776d2a1e904b.jpg\",\"img/0867/179ab87a-8eac-4c52-a41f-2e48e3120f09.jpg\"]","trial_type":"similarity","trial_index":138,"time_elapsed":1924725,"internal_node_id":"0.0-6.0-132.0"},{"sim_score":4,"rt":2724,"stimulus":"[\"img/0901/31c032fd-3c3d-4882-a226-da9a80198937.jpg\",\"img/0860/17b44a7d-c5ca-479f-9e87-f65a64f5c80e.jpg\"]","trial_type":"similarity","trial_index":139,"time_elapsed":1928452,"internal_node_id":"0.0-6.0-133.0"},{"sim_score":3,"rt":3955,"stimulus":"[\"img/0881/62a64f90-7a72-4aee-a1a1-0c548ac9bdda.jpg\",\"img/0766/535849cc-ff5d-4df9-8f31-0ce94a97d571.jpg\"]","trial_type":"similarity","trial_index":140,"time_elapsed":1933411,"internal_node_id":"0.0-6.0-134.0"},{"sim_score":2,"rt":3024,"stimulus":"[\"img/0903/8931c67c-a43d-47d3-a4c9-42aa2f81d344.jpg\",\"img/0864/0f537697-a314-47c3-a8cc-8df23b7e536c.jpg\"]","trial_type":"similarity","trial_index":141,"time_elapsed":1937441,"internal_node_id":"0.0-6.0-135.0"},{"sim_score":4,"rt":3440,"stimulus":"[\"img/0758/3ddd05d3-557e-4ee7-8b78-9d2d681d8ae2.jpg\",\"img/0894/2d2db7b3-e8a3-499b-b63a-14f51bf73882.jpg\"]","trial_type":"similarity","trial_index":142,"time_elapsed":1941884,"internal_node_id":"0.0-6.0-136.0"},{"sim_score":4,"rt":2242,"stimulus":"[\"img/0769/75f7e514-0548-4329-b1e4-93c05e74f038.jpg\",\"img/0860/4f695df5-afac-4da7-9875-fee39b0b24ad.jpg\"]","trial_type":"similarity","trial_index":143,"time_elapsed":1945131,"internal_node_id":"0.0-6.0-137.0"},{"sim_score":5,"rt":3227,"stimulus":"[\"img/0904/2fd488e9-960f-41f7-8a44-33375f7d5051.jpg\",\"img/0766/908bc45b-7c9e-4f95-806e-86b196ebcb2c.jpg\"]","trial_type":"similarity","trial_index":144,"time_elapsed":1949363,"internal_node_id":"0.0-6.0-138.0"},{"sim_score":5,"rt":2492,"stimulus":"[\"img/0868/d98ca254-b195-477f-b57e-5760a2717db8.jpg\",\"img/0860/c3379ff7-0763-48fe-a1ec-7ea3d611bc7a.jpg\"]","trial_type":"similarity","trial_index":145,"time_elapsed":1952858,"internal_node_id":"0.0-6.0-139.0"},{"sim_score":6,"rt":2215,"stimulus":"[\"img/0758/b76ceca7-95ac-46e4-ac13-da02c8e93be9.jpg\",\"img/0864/c22faebd-9c53-47bc-ada3-b9a30c688e75.jpg\"]","trial_type":"similarity","trial_index":146,"time_elapsed":1956077,"internal_node_id":"0.0-6.0-140.0"},{"sim_score":7,"rt":2932,"stimulus":"[\"img/0867/c66898ba-b71b-4d50-84f9-f7f84853a98d.jpg\",\"img/0867/8ba0c5a7-c7e4-42cf-a80a-543763b90779.jpg\"]","trial_type":"similarity","trial_index":147,"time_elapsed":1960014,"internal_node_id":"0.0-6.0-141.0"},{"sim_score":6,"rt":3619,"stimulus":"[\"img/0898/b3290bf9-215b-4b45-b21a-65bdf73f142f.jpg\",\"img/0898/40f99fb2-64d2-4e72-8a7f-a1cf60741e69.jpg\"]","trial_type":"similarity","trial_index":148,"time_elapsed":1964637,"internal_node_id":"0.0-6.0-142.0"},{"sim_score":4,"rt":4153,"stimulus":"[\"img/0866/02f5e6b9-52b7-448c-9708-5b460d0c9a23.jpg\",\"img/0769/3c1efec9-f8fd-487d-8955-4be88e48c832.jpg\"]","trial_type":"similarity","trial_index":149,"time_elapsed":1969794,"internal_node_id":"0.0-6.0-143.0"},{"sim_score":4,"rt":3405,"stimulus":"[\"img/0860/9593362c-9fe5-4d12-9735-6000a11f6aa5.jpg\",\"img/0898/8605a25b-6895-476d-8c13-df7a83f96093.jpg\"]","trial_type":"similarity","trial_index":150,"time_elapsed":1974203,"internal_node_id":"0.0-6.0-144.0"},{"sim_score":3,"rt":3082,"stimulus":"[\"img/0766/51d3aab4-3d09-4dda-b99d-3dc7aaabc6f2.jpg\",\"img/0864/3d4de670-b290-4285-9c3d-12a0e3af44e9.jpg\"]","trial_type":"similarity","trial_index":151,"time_elapsed":1978289,"internal_node_id":"0.0-6.0-145.0"},{"sim_score":4,"rt":5416,"stimulus":"[\"img/0860/4c530c3c-6aab-492a-94d1-9c01797bde40.jpg\",\"img/0903/07b445ee-0cdb-4d2c-a23b-d727613f4059.jpg\"]","trial_type":"similarity","trial_index":152,"time_elapsed":1984709,"internal_node_id":"0.0-6.0-146.0"},{"sim_score":3,"rt":5796,"stimulus":"[\"img/0867/f8488a47-94ee-4166-952c-44e16cf172f6.jpg\",\"img/0764/958b8576-3a3b-4acc-96dc-06b74de69f37.jpg\"]","trial_type":"similarity","trial_index":153,"time_elapsed":1991509,"internal_node_id":"0.0-6.0-147.0"},{"sim_score":7,"rt":4568,"stimulus":"[\"img/0769/0fe124d3-bcad-45f6-b64d-8f6eb8ee5251.jpg\",\"img/0904/696ebb60-8891-417a-91fd-c53218907a95.jpg\"]","trial_type":"similarity","trial_index":154,"time_elapsed":1997080,"internal_node_id":"0.0-6.0-148.0"},{"sim_score":5,"rt":4796,"stimulus":"[\"img/0764/29072395-f595-4e3c-83d3-ff87010039fa.jpg\",\"img/0901/5657dd86-0ff9-4753-ba2b-9dfb223e5c89.jpg\"]","trial_type":"similarity","trial_index":155,"time_elapsed":2002880,"internal_node_id":"0.0-6.0-149.0"},{"sim_score":5,"rt":3028,"stimulus":"[\"img/0904/da170c1b-9651-4f08-b231-2bdd1d9a046f.jpg\",\"img/0899/57476fed-5962-4272-8fc9-b317bb777b54.jpg\"]","trial_type":"similarity","trial_index":156,"time_elapsed":2006912,"internal_node_id":"0.0-6.0-150.0"},{"sim_score":6,"rt":5293,"stimulus":"[\"img/0862/eefa5588-9efd-4591-aa5f-a2e17c7d7bcc.jpg\",\"img/0867/cc72ed48-7704-422c-86d6-467a1145287a.jpg\"]","trial_type":"similarity","trial_index":157,"time_elapsed":2013211,"internal_node_id":"0.0-6.0-151.0"},{"sim_score":7,"rt":3898,"stimulus":"[\"img/0766/dd3e18d0-0c98-4d05-b850-69976ee8cd75.jpg\",\"img/0766/f011ef45-fb48-44b8-8224-867ed2ccf786.jpg\"]","trial_type":"similarity","trial_index":158,"time_elapsed":2018115,"internal_node_id":"0.0-6.0-152.0"},{"sim_score":3,"rt":4426,"stimulus":"[\"img/0862/847e5208-38ec-4f36-949c-296cdd7424ee.jpg\",\"img/0894/38f5931f-926d-414e-b498-66b188978b7a.jpg\"]","trial_type":"similarity","trial_index":159,"time_elapsed":2023547,"internal_node_id":"0.0-6.0-153.0"},{"sim_score":4,"rt":2719,"stimulus":"[\"img/0899/a048912c-b12c-40e3-90af-46b69b0cc4fe.jpg\",\"img/0901/4ca4f962-40c0-4c59-b14a-3cd7b8c9029b.jpg\"]","trial_type":"similarity","trial_index":160,"time_elapsed":2027281,"internal_node_id":"0.0-6.0-154.0"},{"sim_score":7,"rt":4307,"stimulus":"[\"img/0874/767f289c-9814-4496-803f-745cc8913d1f.jpg\",\"img/0874/a3bc679d-619f-4db6-bb68-116dcb757d9c.jpg\"]","trial_type":"similarity","trial_index":161,"time_elapsed":2032592,"internal_node_id":"0.0-6.0-155.0"},{"sim_score":6,"rt":4520,"stimulus":"[\"img/0860/8fdba999-b946-4c7d-9891-336018b563ef.jpg\",\"img/0867/ac1797e4-8afc-48fe-b252-86d1defb1cca.jpg\"]","trial_type":"similarity","trial_index":162,"time_elapsed":2038116,"internal_node_id":"0.0-6.0-156.0"},{"sim_score":2,"rt":3094,"stimulus":"[\"img/0901/77087ed2-6e12-4329-b2a5-605bca6d972d.jpg\",\"img/0881/633c6f40-56d9-4b48-bf1c-ecd83116eabb.jpg\"]","trial_type":"similarity","trial_index":163,"time_elapsed":2042216,"internal_node_id":"0.0-6.0-157.0"},{"sim_score":6,"rt":3176,"stimulus":"[\"img/0903/0a92ec52-4e87-410a-857a-4455cde56a70.jpg\",\"img/0902/a6fb6dd5-696c-47ec-be7d-d7b88f1544f1.jpg\"]","trial_type":"similarity","trial_index":164,"time_elapsed":2046398,"internal_node_id":"0.0-6.0-158.0"},{"sim_score":3,"rt":3847,"stimulus":"[\"img/0860/b03b963d-949b-4d8d-b19c-4950c89eeca2.jpg\",\"img/0764/f990b2e8-ecee-481e-be7c-0239fce350e2.jpg\"]","trial_type":"similarity","trial_index":165,"time_elapsed":2051250,"internal_node_id":"0.0-6.0-159.0"},{"sim_score":2,"rt":2524,"stimulus":"[\"img/0902/27b84584-948a-485b-8749-cb09929ef631.jpg\",\"img/0875/5a1e5100-0d94-4fec-bbe9-ca9894d2cf8e.jpg\"]","trial_type":"similarity","trial_index":166,"time_elapsed":2054780,"internal_node_id":"0.0-6.0-160.0"},{"sim_score":2,"rt":3808,"stimulus":"[\"img/0898/a8f16b02-e19f-423b-86c3-a36562ae1f9b.jpg\",\"img/0862/f23038d4-c366-4f70-979f-66b62362efa4.jpg\"]","trial_type":"similarity","trial_index":167,"time_elapsed":2059592,"internal_node_id":"0.0-6.0-161.0"},{"sim_score":2,"rt":2738,"stimulus":"[\"img/0894/792c83e9-a747-4000-bc72-5663d2439edb.jpg\",\"img/0875/8521fd58-3b1e-4dc5-97ae-804edfa6734a.jpg\"]","trial_type":"similarity","trial_index":168,"time_elapsed":2063335,"internal_node_id":"0.0-6.0-162.0"},{"sim_score":6,"rt":3719,"stimulus":"[\"img/0866/a04d37f0-99dd-478a-b6c6-58b215138f84.jpg\",\"img/0864/f92649a2-0590-4d31-9a7a-1bfb81666a2d.jpg\"]","trial_type":"similarity","trial_index":169,"time_elapsed":2068060,"internal_node_id":"0.0-6.0-163.0"},{"sim_score":5,"rt":4457,"stimulus":"[\"img/0766/0bf3793e-c353-45e5-ac6f-753f5f484e10.jpg\",\"img/0862/e0f1a4e9-e1b6-45f7-af67-89f334e6630d.jpg\"]","trial_type":"similarity","trial_index":170,"time_elapsed":2073522,"internal_node_id":"0.0-6.0-164.0"},{"sim_score":5,"rt":4283,"stimulus":"[\"img/0866/945c6710-d15b-4a5b-a8f6-69af0850357f.jpg\",\"img/0874/a82926a3-0b43-4add-803c-d5f9ea7798ee.jpg\"]","trial_type":"similarity","trial_index":171,"time_elapsed":2078809,"internal_node_id":"0.0-6.0-165.0"},{"sim_score":4,"rt":4194,"stimulus":"[\"img/0862/cdaed51d-9e2f-4807-801a-4663c40077e2.jpg\",\"img/0860/d9a0d117-6d1d-41c0-8fec-9aff0fd9e9f2.jpg\"]","trial_type":"similarity","trial_index":172,"time_elapsed":2084008,"internal_node_id":"0.0-6.0-166.0"},{"sim_score":4,"rt":3692,"stimulus":"[\"img/0766/110832e5-2646-4bd0-a94e-5df8cc314269.jpg\",\"img/0901/b123d109-47b4-4f9a-80c9-9bb16da42efa.jpg\"]","trial_type":"similarity","trial_index":173,"time_elapsed":2094938,"internal_node_id":"0.0-6.0-167.0"},{"sim_score":7,"rt":3968,"stimulus":"[\"img/0862/1c20f772-3a51-4a80-aac0-f57dc9f86c28.jpg\",\"img/0862/064818ee-13d5-4618-bb24-21c7368ea278.jpg\"]","trial_type":"similarity","trial_index":174,"time_elapsed":2099910,"internal_node_id":"0.0-6.0-168.0"},{"sim_score":5,"rt":5506,"stimulus":"[\"img/0894/b422d5c6-3c5a-49ae-a53e-7e88ac993f49.jpg\",\"img/0764/06ea144f-f4f3-4a14-ba47-f20f35c561e0.jpg\"]","trial_type":"similarity","trial_index":175,"time_elapsed":2106422,"internal_node_id":"0.0-6.0-169.0"},{"sim_score":3,"rt":3884,"stimulus":"[\"img/0874/29830da7-be5f-44e5-b141-652a0ccf7269.jpg\",\"img/0898/ec565187-2e31-4fdd-9a5c-153d0c789ae0.jpg\"]","trial_type":"similarity","trial_index":176,"time_elapsed":2111310,"internal_node_id":"0.0-6.0-170.0"},{"sim_score":2,"rt":2984,"stimulus":"[\"img/0860/524b2e98-5767-4d53-942c-ebae6925659b.jpg\",\"img/0766/f3276cc4-65de-4c2d-88d5-6cfebce14b8f.jpg\"]","trial_type":"similarity","trial_index":177,"time_elapsed":2115300,"internal_node_id":"0.0-6.0-171.0"},{"sim_score":3,"rt":4093,"stimulus":"[\"img/0898/79233891-305a-4a6a-8ddf-5c8604858203.jpg\",\"img/0864/6f631579-acf1-415c-a42c-1207f62a8d99.jpg\"]","trial_type":"similarity","trial_index":178,"time_elapsed":2120398,"internal_node_id":"0.0-6.0-172.0"},{"sim_score":3,"rt":5476,"stimulus":"[\"img/0881/292e9b4b-fca0-4ba8-87f1-4048f9e37b7d.jpg\",\"img/0764/5d83b9db-3b2b-4dc8-9bd1-2b515b19c858.jpg\"]","trial_type":"similarity","trial_index":179,"time_elapsed":2126880,"internal_node_id":"0.0-6.0-173.0"},{"sim_score":4,"rt":4621,"stimulus":"[\"img/0898/661621d4-a14e-487c-8c74-354134a29710.jpg\",\"img/0868/4e626425-63c8-484a-8a1d-e66ee4e0bef8.jpg\"]","trial_type":"similarity","trial_index":180,"time_elapsed":2132506,"internal_node_id":"0.0-6.0-174.0"},{"sim_score":7,"rt":3139,"stimulus":"[\"img/0864/ef9cbca0-4be8-435d-ad49-977259e80409.jpg\",\"img/0864/300bb811-8b3c-4c42-8653-6097c3725197.jpg\"]","trial_type":"similarity","trial_index":181,"time_elapsed":2136648,"internal_node_id":"0.0-6.0-175.0"},{"sim_score":2,"rt":3967,"stimulus":"[\"img/0899/00715b3f-851b-420b-a26b-d7f79f7759a9.jpg\",\"img/0862/92f0146c-20c4-482e-aef5-adb693790338.jpg\"]","trial_type":"similarity","trial_index":182,"time_elapsed":2141622,"internal_node_id":"0.0-6.0-176.0"},{"sim_score":5,"rt":2716,"stimulus":"[\"img/0875/99698b4d-b4a1-44bc-8c83-8ea755bbbf61.jpg\",\"img/0758/6e95579b-5166-487c-b8cb-e417c6a218e3.jpg\"]","trial_type":"similarity","trial_index":183,"time_elapsed":2145344,"internal_node_id":"0.0-6.0-177.0"},{"sim_score":2,"rt":3375,"stimulus":"[\"img/0866/a15b02be-11bb-43e3-b0e0-ecc3bd7dfc49.jpg\",\"img/0901/a373612d-67e2-4fec-9764-21d3d6ef6359.jpg\"]","trial_type":"similarity","trial_index":184,"time_elapsed":2149723,"internal_node_id":"0.0-6.0-178.0"},{"sim_score":3,"rt":4324,"stimulus":"[\"img/0769/35364db7-e0d5-40ef-93dc-faf9dfb95136.jpg\",\"img/0874/85eb9b8a-c4c6-4e5a-b8e7-363a87a82054.jpg\"]","trial_type":"similarity","trial_index":185,"time_elapsed":2155052,"internal_node_id":"0.0-6.0-179.0"},{"sim_score":4,"rt":3137,"stimulus":"[\"img/0875/e7e66b13-b573-431e-b85e-288ce04a35a3.jpg\",\"img/0881/48ed65a5-471f-41af-86ec-3793805c116d.jpg\"]","trial_type":"similarity","trial_index":186,"time_elapsed":2159195,"internal_node_id":"0.0-6.0-180.0"},{"sim_score":6,"rt":5080,"stimulus":"[\"img/0866/9b38d691-1802-4959-ab3f-fc902f0e4ea6.jpg\",\"img/0868/c8ac40c7-6904-4e13-8d61-c75d3052dc4e.jpg\"]","trial_type":"similarity","trial_index":187,"time_elapsed":2165283,"internal_node_id":"0.0-6.0-181.0"},{"sim_score":1,"rt":2932,"stimulus":"[\"img/0899/f58b8d2f-b19d-4b59-8b94-8834be92e4ba.jpg\",\"img/0758/ddc336e9-a8b6-4bb9-937a-c7e25e0e9250.jpg\"]","trial_type":"similarity","trial_index":188,"time_elapsed":2169220,"internal_node_id":"0.0-6.0-182.0"},{"sim_score":4,"rt":3698,"stimulus":"[\"img/0874/ca76a855-4e77-4f2f-872a-0a718153e7ed.jpg\",\"img/0875/42910c99-5463-450a-a0f8-d4d060a11455.jpg\"]","trial_type":"similarity","trial_index":189,"time_elapsed":2173922,"internal_node_id":"0.0-6.0-183.0"},{"sim_score":3,"rt":4110,"stimulus":"[\"img/0904/d23dd7be-7fe8-4435-82f7-bd592c01e6a1.jpg\",\"img/0862/5d887e9f-89e2-4ebc-80a0-6d46fe6480db.jpg\"]","trial_type":"similarity","trial_index":190,"time_elapsed":2179037,"internal_node_id":"0.0-6.0-184.0"},{"sim_score":5,"rt":6778,"stimulus":"[\"img/0902/c018bd7a-d91a-4192-aea4-7259cfcdb6c4.jpg\",\"img/0766/2746b119-4bba-463e-acf0-88136dc6600c.jpg\"]","trial_type":"similarity","trial_index":191,"time_elapsed":2186818,"internal_node_id":"0.0-6.0-185.0"},{"sim_score":2,"rt":3743,"stimulus":"[\"img/0758/a709631e-3705-4725-ac40-f0d916924f08.jpg\",\"img/0769/04347740-f8f6-48bb-887a-f68babd0a0d4.jpg\"]","trial_type":"similarity","trial_index":192,"time_elapsed":2191564,"internal_node_id":"0.0-6.0-186.0"},{"sim_score":7,"rt":3911,"stimulus":"[\"img/0881/c24f3051-eefa-42de-aba6-fccb56d93c70.jpg\",\"img/0881/4da99fdd-1f40-4bbb-8e21-8833eef313f5.jpg\"]","trial_type":"similarity","trial_index":193,"time_elapsed":2196482,"internal_node_id":"0.0-6.0-187.0"},{"sim_score":5,"rt":2837,"stimulus":"[\"img/0758/a085b443-b5d7-4cb2-9ad4-b9dab0fc23f1.jpg\",\"img/0866/6f2a90d7-14f1-4f1b-bd64-fc0af6b9fe44.jpg\"]","trial_type":"similarity","trial_index":194,"time_elapsed":2200324,"internal_node_id":"0.0-6.0-188.0"},{"sim_score":6,"rt":4514,"stimulus":"[\"img/0764/55b3fab1-b809-4d38-a461-3f40ce062f52.jpg\",\"img/0898/c3cecf20-f7fd-45fa-97d0-dc0a63e8d6c0.jpg\"]","trial_type":"similarity","trial_index":195,"time_elapsed":2205842,"internal_node_id":"0.0-6.0-189.0"},{"sim_score":5,"rt":4152,"stimulus":"[\"img/0903/0e5c2854-42aa-48c0-9c3d-6e1ad2a400bd.jpg\",\"img/0901/148b747a-7392-437e-8823-33053c5dff3f.jpg\"]","trial_type":"similarity","trial_index":196,"time_elapsed":2210998,"internal_node_id":"0.0-6.0-190.0"},{"sim_score":4,"rt":3080,"stimulus":"[\"img/0902/c9c74d2d-9b82-42d7-a9d0-3b8ff67ff81e.jpg\",\"img/0898/224c1572-56b9-4f16-a9e4-6f3bc9c114bd.jpg\"]","trial_type":"similarity","trial_index":197,"time_elapsed":2215082,"internal_node_id":"0.0-6.0-191.0"},{"sim_score":3,"rt":3696,"stimulus":"[\"img/0864/1d15626a-2f7c-410f-819c-0fa2c967e95e.jpg\",\"img/0901/58978a6d-a3e2-4c59-8d62-f60693ecc0f6.jpg\"]","trial_type":"similarity","trial_index":198,"time_elapsed":2219784,"internal_node_id":"0.0-6.0-192.0"},{"sim_score":3,"rt":5092,"stimulus":"[\"img/0894/c505c65a-cde2-4f2c-8cde-f8676f7c894d.jpg\",\"img/0881/0c7068da-d0d9-4103-bda1-74ef7a2b32c3.jpg\"]","trial_type":"similarity","trial_index":199,"time_elapsed":2225882,"internal_node_id":"0.0-6.0-193.0"},{"sim_score":6,"rt":4598,"stimulus":"[\"img/0868/179a5502-ab5c-478e-8263-5a1fbcc101d2.jpg\",\"img/0868/d6d1f30d-4323-435a-b194-7892521bc57e.jpg\"]","trial_type":"similarity","trial_index":200,"time_elapsed":2231484,"internal_node_id":"0.0-6.0-194.0"},{"sim_score":5,"rt":3602,"stimulus":"[\"img/0899/5b56dd3e-3f49-47cc-af84-16da6457753b.jpg\",\"img/0764/c80b3e06-2ee3-4326-9678-340607eb5348.jpg\"]","trial_type":"similarity","trial_index":201,"time_elapsed":2236090,"internal_node_id":"0.0-6.0-195.0"},{"sim_score":3,"rt":3811,"stimulus":"[\"img/0881/344de456-b358-4887-bd0e-e4c3278af887.jpg\",\"img/0904/65e2b70a-b184-4da3-b5c0-5038bdf9469a.jpg\"]","trial_type":"similarity","trial_index":202,"time_elapsed":2240906,"internal_node_id":"0.0-6.0-196.0"},{"sim_score":4,"rt":3060,"stimulus":"[\"img/0864/5f74a653-3bdc-4308-8cca-ac667dc22e1f.jpg\",\"img/0902/af40b98b-3d23-4d95-b401-49ba5783ce39.jpg\"]","trial_type":"similarity","trial_index":203,"time_elapsed":2244972,"internal_node_id":"0.0-6.0-197.0"},{"sim_score":5,"rt":4056,"stimulus":"[\"img/0894/1a010553-d598-4b06-a772-81f1e7b3addb.jpg\",\"img/0904/2c98dc56-88d1-4fb5-a999-b6a7861f65f0.jpg\"]","trial_type":"similarity","trial_index":204,"time_elapsed":2250034,"internal_node_id":"0.0-6.0-198.0"},{"sim_score":7,"rt":3467,"stimulus":"[\"img/0901/693e0535-ef7e-4d60-af9d-fac2f38e8307.jpg\",\"img/0901/a9b9c0a0-8aed-4888-a78a-65fb7e764d13.jpg\"]","trial_type":"similarity","trial_index":205,"time_elapsed":2254506,"internal_node_id":"0.0-6.0-199.0"},{"sim_score":4,"rt":3281,"stimulus":"[\"img/0894/9b1333fd-3561-43bf-aee5-99b7b7ca3dc3.jpg\",\"img/0860/c5ccd1a4-4bb7-48e1-9b25-72cfaf06909b.jpg\"]","trial_type":"similarity","trial_index":206,"time_elapsed":2258792,"internal_node_id":"0.0-6.0-200.0"},{"sim_score":5,"rt":3654,"stimulus":"[\"img/0898/b2732712-71c2-45d8-834f-2b2ed5504910.jpg\",\"img/0903/36e4ab1f-caa9-40b3-8616-faada076df94.jpg\"]","trial_type":"similarity","trial_index":207,"time_elapsed":2263452,"internal_node_id":"0.0-6.0-201.0"},{"sim_score":3,"rt":4103,"stimulus":"[\"img/0864/8ddd2e30-a1d0-479f-9cbe-591213023893.jpg\",\"img/0894/bd34223a-2f66-4e16-9d18-193a746b69ff.jpg\"]","trial_type":"similarity","trial_index":208,"time_elapsed":2268560,"internal_node_id":"0.0-6.0-202.0"},{"sim_score":5,"rt":4627,"stimulus":"[\"img/0874/8cdb1c07-1c32-46d2-981c-3636560fa6e5.jpg\",\"img/0860/8a92e21b-6a32-4e4a-a445-2d5a487ed0a4.jpg\"]","trial_type":"similarity","trial_index":209,"time_elapsed":2274190,"internal_node_id":"0.0-6.0-203.0"},{"sim_score":4,"rt":3684,"stimulus":"[\"img/0862/f188d4f0-76a4-4102-818c-a209969d73a5.jpg\",\"img/0875/2c361b79-c3d1-4eda-812e-bf03192407bf.jpg\"]","trial_type":"similarity","trial_index":210,"time_elapsed":2278880,"internal_node_id":"0.0-6.0-204.0"},{"sim_score":5,"rt":3614,"stimulus":"[\"img/0867/26611f4e-d694-4460-b7e2-43c62753ddc3.jpg\",\"img/0881/7e31e5dc-2240-4b1b-b5a0-3acd980099ef.jpg\"]","trial_type":"similarity","trial_index":211,"time_elapsed":2283500,"internal_node_id":"0.0-6.0-205.0"},{"sim_score":6,"rt":3419,"stimulus":"[\"img/0901/f469cb1d-6d81-4a45-bab5-cd0b650c2b4f.jpg\",\"img/0902/3f0eeac5-c996-4026-a376-563ce8f28521.jpg\"]","trial_type":"similarity","trial_index":212,"time_elapsed":2287924,"internal_node_id":"0.0-6.0-206.0"},{"sim_score":2,"rt":3297,"stimulus":"[\"img/0899/4f7bc593-8ddd-4da3-a0b9-84da730d3370.jpg\",\"img/0864/e02eddb5-f468-499c-91bf-f7be3ffe979b.jpg\"]","trial_type":"similarity","trial_index":213,"time_elapsed":2292226,"internal_node_id":"0.0-6.0-207.0"},{"sim_score":5,"rt":3715,"stimulus":"[\"img/0901/7c16dd9c-44ad-4d5b-990c-6a0b9b48b1b1.jpg\",\"img/0769/e31b3bd8-efcb-413e-aa8c-75fac2b8f2ac.jpg\"]","trial_type":"similarity","trial_index":214,"time_elapsed":2296946,"internal_node_id":"0.0-6.0-208.0"},{"sim_score":6,"rt":5183,"stimulus":"[\"img/0902/94198618-7047-4dc9-ad04-85f4ba913067.jpg\",\"img/0902/01b41522-de46-4c3a-b0af-a61b2682b40e.jpg\"]","trial_type":"similarity","trial_index":215,"time_elapsed":2307855,"internal_node_id":"0.0-6.0-209.0"},{"view_history":"[{\"page_index\":0,\"viewing_time\":6538}]","rt":6539,"trial_type":"instructions","trial_index":216,"time_elapsed":2315396,"internal_node_id":"0.0-7.0"},{"rt":20517,"responses":"{\"Q0\":\"Orange-crowned Warbler\"}","answer":["Nashville Warbler"],"trial_type":"image-multi-choice","trial_index":217,"time_elapsed":2336939,"internal_node_id":"0.0-8.0-0.0"},{"rt":11164,"responses":"{\"Q0\":\"Black-and-white Warbler\"}","answer":["Black-and-white Warbler"],"trial_type":"image-multi-choice","trial_index":218,"time_elapsed":2349119,"internal_node_id":"0.0-8.0-1.0"},{"rt":51308,"responses":"{\"Q0\":\"Townsend's Warbler\"}","answer":["Townsend's Warbler"],"trial_type":"image-multi-choice","trial_index":219,"time_elapsed":2401447,"internal_node_id":"0.0-8.0-2.0"},{"rt":12836,"responses":"{\"Q0\":\"Lark Sparrow\"}","answer":["Lark Sparrow"],"trial_type":"image-multi-choice","trial_index":220,"time_elapsed":2415296,"internal_node_id":"0.0-8.0-3.0"},{"rt":5390,"responses":"{\"Q0\":\"Yellow Warbler\"}","answer":["Yellow Warbler"],"trial_type":"image-multi-choice","trial_index":221,"time_elapsed":2421702,"internal_node_id":"0.0-8.0-4.0"},{"rt":18792,"responses":"{\"Q0\":\"Orange-crowned Warbler\"}","answer":["Orange-crowned Warbler"],"trial_type":"image-multi-choice","trial_index":222,"time_elapsed":2441502,"internal_node_id":"0.0-8.0-5.0"},{"rt":6233,"responses":"{\"Q0\":\"White-throated Sparrow\"}","answer":["White-throated Sparrow"],"trial_type":"image-multi-choice","trial_index":223,"time_elapsed":2448751,"internal_node_id":"0.0-8.0-6.0"},{"rt":4310,"responses":"{\"Q0\":\"Fox Sparrow\"}","answer":["Fox Sparrow"],"trial_type":"image-multi-choice","trial_index":224,"time_elapsed":2454076,"internal_node_id":"0.0-8.0-7.0"},{"rt":22414,"responses":"{\"Q0\":\"Song Sparrow\"}","answer":["Song Sparrow"],"trial_type":"image-multi-choice","trial_index":225,"time_elapsed":2477508,"internal_node_id":"0.0-8.0-8.0"},{"rt":54410,"responses":"{\"Q0\":\"Blackburnian Warbler\"}","answer":["Blackburnian Warbler"],"trial_type":"image-multi-choice","trial_index":226,"time_elapsed":2532934,"internal_node_id":"0.0-8.0-9.0"},{"rt":11004,"responses":"{\"Q0\":\"Lincoln's Sparrow\"}","answer":["Vesper Sparrow"],"trial_type":"image-multi-choice","trial_index":227,"time_elapsed":2544952,"internal_node_id":"0.0-8.0-10.0"},{"rt":4740,"responses":"{\"Q0\":\"White-crowned Sparrow\"}","answer":["White-crowned Sparrow"],"trial_type":"image-multi-choice","trial_index":228,"time_elapsed":2550708,"internal_node_id":"0.0-8.0-11.0"},{"rt":6551,"responses":"{\"Q0\":\"Chipping Sparrow\"}","answer":["American Tree Sparrow"],"trial_type":"image-multi-choice","trial_index":229,"time_elapsed":2558274,"internal_node_id":"0.0-8.0-12.0"},{"rt":17902,"responses":"{\"Q0\":\"Tennessee Warbler\"}","answer":["Tennessee Warbler"],"trial_type":"image-multi-choice","trial_index":230,"time_elapsed":2577192,"internal_node_id":"0.0-8.0-13.0"},{"rt":13537,"responses":"{\"Q0\":\"Magnolia Warbler\"}","answer":["Magnolia Warbler"],"trial_type":"image-multi-choice","trial_index":231,"time_elapsed":2591744,"internal_node_id":"0.0-8.0-14.0"},{"rt":7530,"responses":"{\"Q0\":\"Northern Waterthrush\"}","answer":["Northern Waterthrush"],"trial_type":"image-multi-choice","trial_index":232,"time_elapsed":2600292,"internal_node_id":"0.0-8.0-15.0"},{"rt":8120,"responses":"{\"Q0\":\"Vesper Sparrow\"}","answer":["Chipping Sparrow"],"trial_type":"image-multi-choice","trial_index":233,"time_elapsed":2609426,"internal_node_id":"0.0-8.0-16.0"},{"rt":12336,"responses":"{\"Q0\":\"Swamp Sparrow\"}","answer":["Swamp Sparrow"],"trial_type":"image-multi-choice","trial_index":234,"time_elapsed":2622776,"internal_node_id":"0.0-8.0-17.0"},{"rt":18055,"responses":"{\"Q0\":\"Vesper Sparrow\"}","answer":["Lincoln's Sparrow"],"trial_type":"image-multi-choice","trial_index":235,"time_elapsed":2641846,"internal_node_id":"0.0-8.0-18.0"},{"rt":4457,"responses":"{\"Q0\":\"Ovenbird\"}","answer":["Ovenbird"],"trial_type":"image-multi-choice","trial_index":236,"time_elapsed":2647318,"internal_node_id":"0.0-8.0-19.0"}]