[{"view_history":"[{\"page_index\":0,\"viewing_time\":22174}]","rt":22175,"trial_type":"instructions","trial_index":0,"time_elapsed":22176,"internal_node_id":"0.0-0.0"},{"sim_score":5,"rt":8553,"stimulus":"[\"img/866.jpg\",\"img/868.jpg\"]","trial_type":"similarity_demo","trial_index":1,"time_elapsed":31739,"internal_node_id":"0.0-1.0"},{"view_history":"[{\"page_index\":0,\"viewing_time\":7378}]","rt":7379,"trial_type":"instructions","trial_index":2,"time_elapsed":40119,"internal_node_id":"0.0-2.0"},{"sim_score":3,"rt":5723,"stimulus":"[\"img/766.jpg\",\"img/867.jpg\"]","trial_type":"similarity_demo","trial_index":3,"time_elapsed":46848,"internal_node_id":"0.0-3.0"},{"view_history":"[{\"page_index\":0,\"viewing_time\":7861}]","rt":7861,"trial_type":"instructions","trial_index":4,"time_elapsed":55710,"internal_node_id":"0.0-4.0"},{"view_history":"[{\"page_index\":0,\"viewing_time\":25449}]","rt":25450,"trial_type":"instructions","trial_index":5,"time_elapsed":82160,"internal_node_id":"0.0-5.0"},{"sim_score":5,"rt":6813,"stimulus":"[\"img/0868/09a9ef4d-d000-4cfa-a6aa-ebec7c2edeb4.jpg\",\"img/0901/5b97abf9-f0c8-4fd1-b921-36d574779078.jpg\"]","trial_type":"similarity","trial_index":6,"time_elapsed":89980,"internal_node_id":"0.0-6.0-0.0"},{"sim_score":2,"rt":5259,"stimulus":"[\"img/0769/8598a429-c671-4d2f-842c-32f681f5e412.jpg\",\"img/0867/7d1c497b-c1b3-4ed8-abb5-d7f73306015f.jpg\"]","trial_type":"similarity","trial_index":7,"time_elapsed":96246,"internal_node_id":"0.0-6.0-1.0"},{"sim_score":6,"rt":4878,"stimulus":"[\"img/0766/006035d8-c736-4daf-bbe4-a9e373af9da6.jpg\",\"img/0898/79233891-305a-4a6a-8ddf-5c8604858203.jpg\"]","trial_type":"similarity","trial_index":8,"time_elapsed":102129,"internal_node_id":"0.0-6.0-2.0"},{"sim_score":6,"rt":3529,"stimulus":"[\"img/0902/07437a16-3d0f-4a5c-89ec-36d0efa4b3b8.jpg\",\"img/0881/adc02f34-ce97-4aef-850f-00519df06fd7.jpg\"]","trial_type":"similarity","trial_index":9,"time_elapsed":106664,"internal_node_id":"0.0-6.0-3.0"},{"sim_score":7,"rt":3933,"stimulus":"[\"img/0894/bd34223a-2f66-4e16-9d18-193a746b69ff.jpg\",\"img/0894/7fb082e0-ce79-485c-9109-04367fb32275.jpg\"]","trial_type":"similarity","trial_index":10,"time_elapsed":111602,"internal_node_id":"0.0-6.0-4.0"},{"sim_score":6,"rt":4631,"stimulus":"[\"img/0874/bf14b896-e930-4fd9-9c05-2e83317a2773.jpg\",\"img/0899/7b7380d5-d2be-44e5-a09a-c1756f87ef71.jpg\"]","trial_type":"similarity","trial_index":11,"time_elapsed":117238,"internal_node_id":"0.0-6.0-5.0"},{"sim_score":3,"rt":5960,"stimulus":"[\"img/0904/63dd06dd-dccb-47ba-9740-eb33239e18a7.jpg\",\"img/0764/c84fbfa8-521c-407a-9bd3-24f7308d896c.jpg\"]","trial_type":"similarity","trial_index":12,"time_elapsed":124203,"internal_node_id":"0.0-6.0-6.0"},{"sim_score":5,"rt":6700,"stimulus":"[\"img/0899/0e1d936a-dbe2-4afc-9f19-7b7a1ae6c9ed.jpg\",\"img/0898/a8f16b02-e19f-423b-86c3-a36562ae1f9b.jpg\"]","trial_type":"similarity","trial_index":13,"time_elapsed":131908,"internal_node_id":"0.0-6.0-7.0"},{"sim_score":2,"rt":4845,"stimulus":"[\"img/0874/ca76a855-4e77-4f2f-872a-0a718153e7ed.jpg\",\"img/0903/470acfd5-5571-4a7b-b3a4-28d87e098138.jpg\"]","trial_type":"similarity","trial_index":14,"time_elapsed":137759,"internal_node_id":"0.0-6.0-8.0"},{"sim_score":3,"rt":5271,"stimulus":"[\"img/0881/62a64f90-7a72-4aee-a1a1-0c548ac9bdda.jpg\",\"img/0758/9fb5b2fe-3f00-4fe6-973c-1ce10d5f4cd5.jpg\"]","trial_type":"similarity","trial_index":15,"time_elapsed":144036,"internal_node_id":"0.0-6.0-9.0"},{"sim_score":5,"rt":6554,"stimulus":"[\"img/0898/68476bbb-34a1-42d9-8bc1-deab783d4489.jpg\",\"img/0901/77087ed2-6e12-4329-b2a5-605bca6d972d.jpg\"]","trial_type":"similarity","trial_index":16,"time_elapsed":151596,"internal_node_id":"0.0-6.0-10.0"},{"sim_score":5,"rt":5834,"stimulus":"[\"img/0903/6138142e-c84e-45fc-9487-c974f3d4968a.jpg\",\"img/0769/35f2dd39-40aa-498e-b401-9f1ef2622d00.jpg\"]","trial_type":"similarity","trial_index":17,"time_elapsed":158436,"internal_node_id":"0.0-6.0-11.0"},{"sim_score":3,"rt":4126,"stimulus":"[\"img/0764/8740679b-b56f-4292-aece-14063457113a.jpg\",\"img/0868/3a62db2d-97e9-44a3-b8e3-a48c6f0e423b.jpg\"]","trial_type":"similarity","trial_index":18,"time_elapsed":163566,"internal_node_id":"0.0-6.0-12.0"},{"sim_score":2,"rt":4304,"stimulus":"[\"img/0867/c66898ba-b71b-4d50-84f9-f7f84853a98d.jpg\",\"img/0903/b0a3c45f-467e-412f-a183-c9c1827f2e63.jpg\"]","trial_type":"similarity","trial_index":19,"time_elapsed":168876,"internal_node_id":"0.0-6.0-13.0"},{"sim_score":1,"rt":5093,"stimulus":"[\"img/0766/fd74fdbb-ea40-4f3a-a091-38d08dfd636e.jpg\",\"img/0758/53f35650-e455-4b53-8be4-c3c8271c6466.jpg\"]","trial_type":"similarity","trial_index":20,"time_elapsed":174974,"internal_node_id":"0.0-6.0-14.0"},{"sim_score":6,"rt":5621,"stimulus":"[\"img/0902/7f1dcd35-237a-4995-9e42-7f63f3f434d4.jpg\",\"img/0860/94ef7afc-e0e6-4a15-98c6-0bfac82bc832.jpg\"]","trial_type":"similarity","trial_index":21,"time_elapsed":181600,"internal_node_id":"0.0-6.0-15.0"},{"sim_score":6,"rt":4169,"stimulus":"[\"img/0769/04347740-f8f6-48bb-887a-f68babd0a0d4.jpg\",\"img/0875/5a1e5100-0d94-4fec-bbe9-ca9894d2cf8e.jpg\"]","trial_type":"similarity","trial_index":22,"time_elapsed":186775,"internal_node_id":"0.0-6.0-16.0"},{"sim_score":4,"rt":4733,"stimulus":"[\"img/0904/b7c2a2c8-df33-4473-b3d4-ff7147c60db3.jpg\",\"img/0866/620cd1aa-0800-4414-8f6e-90342e7a99ad.jpg\"]","trial_type":"similarity","trial_index":23,"time_elapsed":192512,"internal_node_id":"0.0-6.0-17.0"},{"sim_score":6,"rt":4812,"stimulus":"[\"img/0875/5a716432-c6ca-4b1c-955a-2b8ac25198ee.jpg\",\"img/0875/527ced51-8e53-4aab-ab05-86df219104c0.jpg\"]","trial_type":"similarity","trial_index":24,"time_elapsed":198329,"internal_node_id":"0.0-6.0-18.0"},{"sim_score":7,"rt":3910,"stimulus":"[\"img/0758/dd559618-7f09-4a07-8018-d311c4a5ea29.jpg\",\"img/0758/caa93da2-9edf-49fa-96b9-32dedd8f5078.jpg\"]","trial_type":"similarity","trial_index":25,"time_elapsed":203245,"internal_node_id":"0.0-6.0-19.0"},{"sim_score":4,"rt":4924,"stimulus":"[\"img/0902/8af4182a-9af9-4212-a436-9195555112d6.jpg\",\"img/0874/eba003b4-cdab-4eee-8bc3-f064c7d94165.jpg\"]","trial_type":"similarity","trial_index":26,"time_elapsed":209173,"internal_node_id":"0.0-6.0-20.0"},{"sim_score":3,"rt":5577,"stimulus":"[\"img/0764/f713847b-4832-42d1-8fb3-e17e37fd745c.jpg\",\"img/0769/7c50e5f5-cc38-4d48-b009-fbe17bcea61c.jpg\"]","trial_type":"similarity","trial_index":27,"time_elapsed":215755,"internal_node_id":"0.0-6.0-21.0"},{"sim_score":3,"rt":4667,"stimulus":"[\"img/0901/ae1e6ce4-2e10-4ca9-b1e7-21628637ab74.jpg\",\"img/0874/a3bc679d-619f-4db6-bb68-116dcb757d9c.jpg\"]","trial_type":"similarity","trial_index":28,"time_elapsed":221425,"internal_node_id":"0.0-6.0-22.0"},{"sim_score":5,"rt":7537,"stimulus":"[\"img/0875/a4935837-7d3c-4df6-88c1-36a94d4991ca.jpg\",\"img/0903/0fb24af7-9a26-4e9d-aadc-959a36f683e2.jpg\"]","trial_type":"similarity","trial_index":29,"time_elapsed":229966,"internal_node_id":"0.0-6.0-23.0"},{"sim_score":5,"rt":6015,"stimulus":"[\"img/0769/878531fd-e0e8-4ad1-b9ad-f018bb104ca0.jpg\",\"img/0881/33d65d80-8a8e-4ecf-852d-0ad7725c17a2.jpg\"]","trial_type":"similarity","trial_index":30,"time_elapsed":236985,"internal_node_id":"0.0-6.0-24.0"},{"sim_score":3,"rt":5677,"stimulus":"[\"img/0867/12264664-1860-46df-8c21-162b9817cdda.jpg\",\"img/0904/1d10df11-b5c8-4370-9a6b-097a7f965895.jpg\"]","trial_type":"similarity","trial_index":31,"time_elapsed":243666,"internal_node_id":"0.0-6.0-25.0"},{"sim_score":3,"rt":3745,"stimulus":"[\"img/0860/87039971-2210-4aab-93c0-8e9b5f1655b2.jpg\",\"img/0881/84397291-bc14-4fbf-90e8-241e486ab0fe.jpg\"]","trial_type":"similarity","trial_index":32,"time_elapsed":248414,"internal_node_id":"0.0-6.0-26.0"},{"sim_score":7,"rt":3361,"stimulus":"[\"img/0866/bf14b5bd-fb55-47db-86b9-4f8aeb9a6dad.jpg\",\"img/0866/a04d37f0-99dd-478a-b6c6-58b215138f84.jpg\"]","trial_type":"similarity","trial_index":33,"time_elapsed":252779,"internal_node_id":"0.0-6.0-27.0"},{"sim_score":5,"rt":5499,"stimulus":"[\"img/0764/6c7fe363-2d37-418f-9e5e-a3273af5d4fb.jpg\",\"img/0862/47ed5efd-4ec9-4b74-bb4e-a5f5cf0c3e7d.jpg\"]","trial_type":"similarity","trial_index":34,"time_elapsed":259281,"internal_node_id":"0.0-6.0-28.0"},{"sim_score":6,"rt":5174,"stimulus":"[\"img/0904/ba8e689e-9ca6-4608-a2a1-3b0940666ae6.jpg\",\"img/0758/821c68d3-5cb0-4eae-8659-30e6263fca39.jpg\"]","trial_type":"similarity","trial_index":35,"time_elapsed":265458,"internal_node_id":"0.0-6.0-29.0"},{"sim_score":4,"rt":5723,"stimulus":"[\"img/0894/a98416c0-51e2-4960-85da-d81d8688b9d5.jpg\",\"img/0899/00715b3f-851b-420b-a26b-d7f79f7759a9.jpg\"]","trial_type":"similarity","trial_index":36,"time_elapsed":272185,"internal_node_id":"0.0-6.0-30.0"},{"sim_score":3,"rt":5599,"stimulus":"[\"img/0860/29a21a9f-54bb-4093-ad3f-04823ceaa89f.jpg\",\"img/0904/4e58005d-a2ec-4aaa-b199-445343561396.jpg\"]","trial_type":"similarity","trial_index":37,"time_elapsed":278789,"internal_node_id":"0.0-6.0-31.0"},{"sim_score":5,"rt":5083,"stimulus":"[\"img/0874/adf9a8f1-c40b-402b-b95b-1e85a54a7b62.jpg\",\"img/0881/dea58fad-b4f1-41d9-bd3f-916eff19a3fd.jpg\"]","trial_type":"similarity","trial_index":38,"time_elapsed":284875,"internal_node_id":"0.0-6.0-32.0"},{"sim_score":3,"rt":4925,"stimulus":"[\"img/0881/b1a136f7-8511-4d3a-a0f6-3879acf1e1a1.jpg\",\"img/0899/9de5e857-aa9a-4e0c-8ba2-46d79bd069a4.jpg\"]","trial_type":"similarity","trial_index":39,"time_elapsed":290805,"internal_node_id":"0.0-6.0-33.0"},{"sim_score":5,"rt":5215,"stimulus":"[\"img/0866/02f5e6b9-52b7-448c-9708-5b460d0c9a23.jpg\",\"img/0862/1c20f772-3a51-4a80-aac0-f57dc9f86c28.jpg\"]","trial_type":"similarity","trial_index":40,"time_elapsed":297026,"internal_node_id":"0.0-6.0-34.0"},{"sim_score":2,"rt":5520,"stimulus":"[\"img/0868/293079b8-7e0c-4afd-a390-1e5d35fe3ded.jpg\",\"img/0894/43216a7f-27bc-4b5a-8841-d122a30da9d9.jpg\"]","trial_type":"similarity","trial_index":41,"time_elapsed":303550,"internal_node_id":"0.0-6.0-35.0"},{"sim_score":7,"rt":3609,"stimulus":"[\"img/0860/9593362c-9fe5-4d12-9735-6000a11f6aa5.jpg\",\"img/0860/c3379ff7-0763-48fe-a1ec-7ea3d611bc7a.jpg\"]","trial_type":"similarity","trial_index":42,"time_elapsed":308163,"internal_node_id":"0.0-6.0-36.0"},{"sim_score":3,"rt":6354,"stimulus":"[\"img/0862/5d887e9f-89e2-4ebc-80a0-6d46fe6480db.jpg\",\"img/0864/e02eddb5-f468-499c-91bf-f7be3ffe979b.jpg\"]","trial_type":"similarity","trial_index":43,"time_elapsed":315520,"internal_node_id":"0.0-6.0-37.0"},{"sim_score":1,"rt":3687,"stimulus":"[\"img/0766/d50d734f-285c-4840-bc7a-c8dd4aff391e.jpg\",\"img/0866/d266fece-59b3-46fa-b69f-96f6efb81b59.jpg\"]","trial_type":"similarity","trial_index":44,"time_elapsed":320212,"internal_node_id":"0.0-6.0-38.0"},{"sim_score":3,"rt":3642,"stimulus":"[\"img/0875/42910c99-5463-450a-a0f8-d4d060a11455.jpg\",\"img/0898/cd3aaa3f-efa9-4ab3-8d6f-a6a9273ddf42.jpg\"]","trial_type":"similarity","trial_index":45,"time_elapsed":324858,"internal_node_id":"0.0-6.0-39.0"},{"sim_score":5,"rt":4103,"stimulus":"[\"img/0766/ae0fce93-fe8d-4aa1-87ca-4c3e4b889f2f.jpg\",\"img/0769/3c1efec9-f8fd-487d-8955-4be88e48c832.jpg\"]","trial_type":"similarity","trial_index":46,"time_elapsed":329966,"internal_node_id":"0.0-6.0-40.0"},{"sim_score":5,"rt":4688,"stimulus":"[\"img/0874/29830da7-be5f-44e5-b141-652a0ccf7269.jpg\",\"img/0764/e0788029-9d7f-414c-b747-46d2a99f7c86.jpg\"]","trial_type":"similarity","trial_index":47,"time_elapsed":362523,"internal_node_id":"0.0-6.0-41.0"},{"sim_score":3,"rt":3935,"stimulus":"[\"img/0868/15dd6fd7-791e-4b53-b203-195d617521a4.jpg\",\"img/0902/b76efc44-a50f-4dac-b997-ff0222376067.jpg\"]","trial_type":"similarity","trial_index":48,"time_elapsed":367463,"internal_node_id":"0.0-6.0-42.0"},{"sim_score":5,"rt":5183,"stimulus":"[\"img/0875/f87b67d7-c33e-40d1-b281-248c4be1cb6e.jpg\",\"img/0899/66bf4113-ee12-426c-84d2-ea410b6c803e.jpg\"]","trial_type":"similarity","trial_index":49,"time_elapsed":373650,"internal_node_id":"0.0-6.0-43.0"},{"sim_score":5,"rt":4160,"stimulus":"[\"img/0866/f756f7d1-9ad8-4a34-9ef6-7a443d705bfe.jpg\",\"img/0860/8277806e-b684-4474-8f7b-3fca946d7d4f.jpg\"]","trial_type":"similarity","trial_index":50,"time_elapsed":378814,"internal_node_id":"0.0-6.0-44.0"},{"sim_score":5,"rt":3755,"stimulus":"[\"img/0766/2da002a4-05c9-4f5c-9ed7-433b4183e273.jpg\",\"img/0903/ea75f240-fb62-4edb-a709-83e858b202c0.jpg\"]","trial_type":"similarity","trial_index":51,"time_elapsed":383573,"internal_node_id":"0.0-6.0-45.0"},{"sim_score":6,"rt":3765,"stimulus":"[\"img/0901/4f9cffe0-c0be-4d7f-bacd-9d51efd19b4a.jpg\",\"img/0904/b5855d6a-7ef9-46ca-9215-6e9fa046e543.jpg\"]","trial_type":"similarity","trial_index":52,"time_elapsed":388342,"internal_node_id":"0.0-6.0-46.0"},{"sim_score":7,"rt":3214,"stimulus":"[\"img/0758/b76ceca7-95ac-46e4-ac13-da02c8e93be9.jpg\",\"img/0902/bd89a85f-3853-4786-acd6-98818ee29f1c.jpg\"]","trial_type":"similarity","trial_index":53,"time_elapsed":392561,"internal_node_id":"0.0-6.0-47.0"},{"sim_score":7,"rt":3766,"stimulus":"[\"img/0764/fb92924f-5cfe-4b89-b130-0cce8cc5636b.jpg\",\"img/0764/b887d7c6-aa81-4637-af8e-05135757ac59.jpg\"]","trial_type":"similarity","trial_index":54,"time_elapsed":397331,"internal_node_id":"0.0-6.0-48.0"},{"sim_score":4,"rt":6016,"stimulus":"[\"img/0866/d493a2c8-66eb-44b4-be02-2f327b700b7c.jpg\",\"img/0902/511abb54-0094-4f4d-b6dc-3f2c97050521.jpg\"]","trial_type":"similarity","trial_index":55,"time_elapsed":404351,"internal_node_id":"0.0-6.0-49.0"},{"sim_score":5,"rt":4688,"stimulus":"[\"img/0764/56441045-b648-4ede-9632-3e9c0227080b.jpg\",\"img/0758/7ee8bc8f-c40b-4b3a-84ec-3e83580622d4.jpg\"]","trial_type":"similarity","trial_index":56,"time_elapsed":410044,"internal_node_id":"0.0-6.0-50.0"},{"sim_score":5,"rt":5646,"stimulus":"[\"img/0898/0af304a2-6a7a-4082-ab7c-4450cd08cc58.jpg\",\"img/0894/133a1636-d123-4893-873c-1718050f832a.jpg\"]","trial_type":"similarity","trial_index":57,"time_elapsed":416694,"internal_node_id":"0.0-6.0-51.0"},{"sim_score":3,"rt":4215,"stimulus":"[\"img/0875/03c3c331-738b-4446-af92-3d7386b08c2e.jpg\",\"img/0866/be24ab58-230e-4db8-9f45-ff04c9aec6bb.jpg\"]","trial_type":"similarity","trial_index":58,"time_elapsed":421914,"internal_node_id":"0.0-6.0-52.0"},{"sim_score":5,"rt":4587,"stimulus":"[\"img/0904/2f88ce53-02d0-4f95-a082-182c56a0eeb4.jpg\",\"img/0904/a8c3c7d2-9bcf-4347-9e03-8203adfc1fc5.jpg\"]","trial_type":"similarity","trial_index":59,"time_elapsed":427505,"internal_node_id":"0.0-6.0-53.0"},{"sim_score":7,"rt":3912,"stimulus":"[\"img/0769/e8ed913b-8a88-44f6-9327-d34afec3116b.jpg\",\"img/0769/387a9744-d6a7-42b8-bab8-33007ec434aa.jpg\"]","trial_type":"similarity","trial_index":60,"time_elapsed":432421,"internal_node_id":"0.0-6.0-54.0"},{"sim_score":3,"rt":4284,"stimulus":"[\"img/0898/01bfe666-3510-4fc7-964f-d00d28732dc8.jpg\",\"img/0758/e38fd80d-18d0-42f3-b848-f930788e8bd7.jpg\"]","trial_type":"similarity","trial_index":61,"time_elapsed":437710,"internal_node_id":"0.0-6.0-55.0"},{"sim_score":7,"rt":4182,"stimulus":"[\"img/0769/6c0bac4c-5f59-43c7-898c-3ca93cf55cfe.jpg\",\"img/0902/0c760cc9-10ac-429e-8957-a7d51fc99683.jpg\"]","trial_type":"similarity","trial_index":62,"time_elapsed":442895,"internal_node_id":"0.0-6.0-56.0"},{"sim_score":7,"rt":3598,"stimulus":"[\"img/0864/f92649a2-0590-4d31-9a7a-1bfb81666a2d.jpg\",\"img/0881/f7a8cc63-8842-40a4-9ff8-fe530310d62c.jpg\"]","trial_type":"similarity","trial_index":63,"time_elapsed":447497,"internal_node_id":"0.0-6.0-57.0"},{"sim_score":3,"rt":4474,"stimulus":"[\"img/0758/eabcd7a8-56ad-4fd2-bc24-90f6b7b33265.jpg\",\"img/0868/0d3abd3a-b6c3-4584-a9f7-e2da63748b3d.jpg\"]","trial_type":"similarity","trial_index":64,"time_elapsed":452975,"internal_node_id":"0.0-6.0-58.0"},{"sim_score":3,"rt":3721,"stimulus":"[\"img/0862/99a99e39-8355-44ec-b993-e7bcec111e1c.jpg\",\"img/0769/50985283-d353-4abc-9abe-14a91d56ebe6.jpg\"]","trial_type":"similarity","trial_index":65,"time_elapsed":457700,"internal_node_id":"0.0-6.0-59.0"},{"sim_score":6,"rt":6083,"stimulus":"[\"img/0764/f2f23359-8e82-41d3-8900-5b9f4433991d.jpg\",\"img/0903/f10e9eb5-0c21-4a6a-944c-5f10a6d0fa4d.jpg\"]","trial_type":"similarity","trial_index":66,"time_elapsed":464789,"internal_node_id":"0.0-6.0-60.0"},{"sim_score":5,"rt":4970,"stimulus":"[\"img/0899/25ae6ec8-9565-49fe-a8bb-8d0666f52716.jpg\",\"img/0899/4f7bc593-8ddd-4da3-a0b9-84da730d3370.jpg\"]","trial_type":"similarity","trial_index":67,"time_elapsed":470762,"internal_node_id":"0.0-6.0-61.0"},{"sim_score":7,"rt":3159,"stimulus":"[\"img/0860/c5ccd1a4-4bb7-48e1-9b25-72cfaf06909b.jpg\",\"img/0875/cff79b3a-a797-4393-9757-6275f999ec04.jpg\"]","trial_type":"similarity","trial_index":68,"time_elapsed":474925,"internal_node_id":"0.0-6.0-62.0"},{"sim_score":3,"rt":4914,"stimulus":"[\"img/0868/4bd5105a-d2c3-4f82-8c80-57196106ba53.jpg\",\"img/0874/c0378dac-9370-439a-8b79-db27c96fb390.jpg\"]","trial_type":"similarity","trial_index":69,"time_elapsed":480842,"internal_node_id":"0.0-6.0-63.0"},{"sim_score":3,"rt":7388,"stimulus":"[\"img/0758/6cd8c362-ae2a-41eb-80a3-3a4f7ace1530.jpg\",\"img/0862/d0ca4c78-fc35-46ed-bdcc-8e124283c53e.jpg\"]","trial_type":"similarity","trial_index":70,"time_elapsed":489234,"internal_node_id":"0.0-6.0-64.0"},{"sim_score":7,"rt":3698,"stimulus":"[\"img/0904/5aec2708-cf14-4a58-aa30-9a8a61c1be0e.jpg\",\"img/0898/6cd3830b-d44e-4915-be2b-88d31424b91c.jpg\"]","trial_type":"similarity","trial_index":71,"time_elapsed":493937,"internal_node_id":"0.0-6.0-65.0"},{"sim_score":3,"rt":4688,"stimulus":"[\"img/0881/6b1189e6-232d-4042-8885-16dc7b10e0d4.jpg\",\"img/0866/07c9c966-3c8d-40e7-8128-92b2acbaed5d.jpg\"]","trial_type":"similarity","trial_index":72,"time_elapsed":499630,"internal_node_id":"0.0-6.0-66.0"},{"sim_score":3,"rt":4701,"stimulus":"[\"img/0867/f26f6b60-f772-4f4c-95a4-addc62cfd692.jpg\",\"img/0898/b2732712-71c2-45d8-834f-2b2ed5504910.jpg\"]","trial_type":"similarity","trial_index":73,"time_elapsed":505334,"internal_node_id":"0.0-6.0-67.0"},{"sim_score":4,"rt":3799,"stimulus":"[\"img/0902/eb3e7e71-8ff1-4b88-a6a7-47e2c1ce1683.jpg\",\"img/0764/bc3865c9-9004-4582-88a7-048478673f97.jpg\"]","trial_type":"similarity","trial_index":74,"time_elapsed":510137,"internal_node_id":"0.0-6.0-68.0"},{"sim_score":5,"rt":5409,"stimulus":"[\"img/0875/2c361b79-c3d1-4eda-812e-bf03192407bf.jpg\",\"img/0867/ac1797e4-8afc-48fe-b252-86d1defb1cca.jpg\"]","trial_type":"similarity","trial_index":75,"time_elapsed":516550,"internal_node_id":"0.0-6.0-69.0"},{"sim_score":5,"rt":4418,"stimulus":"[\"img/0766/af3be95e-e52e-4fae-899b-0ff02ec340aa.jpg\",\"img/0764/c80b3e06-2ee3-4326-9678-340607eb5348.jpg\"]","trial_type":"similarity","trial_index":76,"time_elapsed":521972,"internal_node_id":"0.0-6.0-70.0"},{"sim_score":3,"rt":5420,"stimulus":"[\"img/0894/e6385e52-6c35-43bd-b0af-bc803d107b11.jpg\",\"img/0867/6e19c858-b606-45b2-a4c6-910a73f1d82c.jpg\"]","trial_type":"similarity","trial_index":77,"time_elapsed":528397,"internal_node_id":"0.0-6.0-71.0"},{"sim_score":2,"rt":4699,"stimulus":"[\"img/0875/2e13d160-eea1-416b-aff1-d37ab99ecc1d.jpg\",\"img/0764/83c93cce-18d1-4aa7-9e23-2c268afe0a46.jpg\"]","trial_type":"similarity","trial_index":78,"time_elapsed":534100,"internal_node_id":"0.0-6.0-72.0"},{"sim_score":6,"rt":5937,"stimulus":"[\"img/0867/db7e032f-162b-46f5-ae67-2b29679adee4.jpg\",\"img/0866/c446214b-a368-4c65-ae39-ea46894256ab.jpg\"]","trial_type":"similarity","trial_index":79,"time_elapsed":541041,"internal_node_id":"0.0-6.0-73.0"},{"sim_score":4,"rt":4835,"stimulus":"[\"img/0903/8f7f9939-b8e6-433f-93dd-b362496c80a7.jpg\",\"img/0758/65d426d6-3ff6-415d-8654-a43b83ecc4fe.jpg\"]","trial_type":"similarity","trial_index":80,"time_elapsed":546880,"internal_node_id":"0.0-6.0-74.0"},{"sim_score":1,"rt":3833,"stimulus":"[\"img/0766/1bc0dccc-a5b5-4375-87fa-28360ca42b12.jpg\",\"img/0868/fd307a36-9a3a-47d7-ab7c-f810d0b35040.jpg\"]","trial_type":"similarity","trial_index":81,"time_elapsed":551718,"internal_node_id":"0.0-6.0-75.0"},{"sim_score":5,"rt":3450,"stimulus":"[\"img/0874/3ce41e7c-40c8-4d58-a546-171114521796.jpg\",\"img/0766/69e486f7-dbef-456b-9d48-53d814248a28.jpg\"]","trial_type":"similarity","trial_index":82,"time_elapsed":556172,"internal_node_id":"0.0-6.0-76.0"},{"sim_score":3,"rt":3844,"stimulus":"[\"img/0881/14236cf2-6b95-48b8-9368-78af09d2d27f.jpg\",\"img/0868/d98ca254-b195-477f-b57e-5760a2717db8.jpg\"]","trial_type":"similarity","trial_index":83,"time_elapsed":561021,"internal_node_id":"0.0-6.0-77.0"},{"sim_score":3,"rt":4666,"stimulus":"[\"img/0758/f61ecdf8-a7d4-4db0-b84d-be46f7cfaffc.jpg\",\"img/0901/b9141736-3041-4385-a586-b1fe911c76a5.jpg\"]","trial_type":"similarity","trial_index":84,"time_elapsed":566691,"internal_node_id":"0.0-6.0-78.0"},{"sim_score":5,"rt":5456,"stimulus":"[\"img/0881/445edb15-bd7f-4af3-8bd5-c6ad9677bb31.jpg\",\"img/0898/26c41340-15bd-4ead-8fe4-c0d0ddca09c2.jpg\"]","trial_type":"similarity","trial_index":85,"time_elapsed":573151,"internal_node_id":"0.0-6.0-79.0"},{"sim_score":1,"rt":4304,"stimulus":"[\"img/0867/075e0f95-856b-4cbb-acf5-092393aaf04e.jpg\",\"img/0758/a709631e-3705-4725-ac40-f0d916924f08.jpg\"]","trial_type":"similarity","trial_index":86,"time_elapsed":578460,"internal_node_id":"0.0-6.0-80.0"},{"sim_score":5,"rt":3843,"stimulus":"[\"img/0769/47700831-0ca2-4fdd-a498-a3bc5a528f43.jpg\",\"img/0899/b45c550b-96c3-4255-ad59-48a2b4db1c1e.jpg\"]","trial_type":"similarity","trial_index":87,"time_elapsed":583307,"internal_node_id":"0.0-6.0-81.0"},{"sim_score":6,"rt":4643,"stimulus":"[\"img/0903/43ffd882-077a-40dd-a264-e58d519420a1.jpg\",\"img/0903/4cbdc464-e562-4ec2-9bb6-15f894fdf528.jpg\"]","trial_type":"similarity","trial_index":88,"time_elapsed":588958,"internal_node_id":"0.0-6.0-82.0"},{"sim_score":2,"rt":5429,"stimulus":"[\"img/0867/50a1b60e-3a29-44bf-b606-d4bd3746fea9.jpg\",\"img/0766/717fd72f-a281-499b-a5ba-5e2ecc4d4866.jpg\"]","trial_type":"similarity","trial_index":89,"time_elapsed":629793,"internal_node_id":"0.0-6.0-83.0"},{"sim_score":1,"rt":4329,"stimulus":"[\"img/0902/71c03003-03ef-4b0f-8229-e0c857150a5d.jpg\",\"img/0867/5e07b34d-b40f-4b1c-ac10-49975bace45f.jpg\"]","trial_type":"similarity","trial_index":90,"time_elapsed":635126,"internal_node_id":"0.0-6.0-84.0"},{"sim_score":3,"rt":5453,"stimulus":"[\"img/0901/1e23ffbd-19de-4c4f-aa23-c54aaa3319a3.jpg\",\"img/0875/d59ff733-eaff-4ee2-9443-06954dd0bcb6.jpg\"]","trial_type":"similarity","trial_index":91,"time_elapsed":641583,"internal_node_id":"0.0-6.0-85.0"},{"sim_score":2,"rt":6320,"stimulus":"[\"img/0764/ba0c0955-acbb-457d-b1c2-f006b88121d5.jpg\",\"img/0866/0207e9a2-7dbb-40b5-9459-b472aaeceb2a.jpg\"]","trial_type":"similarity","trial_index":92,"time_elapsed":648908,"internal_node_id":"0.0-6.0-86.0"},{"sim_score":2,"rt":4070,"stimulus":"[\"img/0901/6e2957f8-f5ab-46f4-87cc-bb50155a098b.jpg\",\"img/0894/6b2e9509-8699-42b7-9582-7741df0ba2d7.jpg\"]","trial_type":"similarity","trial_index":93,"time_elapsed":653982,"internal_node_id":"0.0-6.0-87.0"},{"sim_score":7,"rt":4765,"stimulus":"[\"img/0898/08c72dac-f8ad-407a-9ce6-8c9a5d679c3a.jpg\",\"img/0769/f229321f-04dd-42d7-b14a-ffad6b509862.jpg\"]","trial_type":"similarity","trial_index":94,"time_elapsed":659752,"internal_node_id":"0.0-6.0-88.0"},{"sim_score":7,"rt":3169,"stimulus":"[\"img/0769/1afb527f-9887-428c-bd26-a12c2f9efb68.jpg\",\"img/0894/86201968-6e78-4d68-9b3a-d1692e066210.jpg\"]","trial_type":"similarity","trial_index":95,"time_elapsed":663926,"internal_node_id":"0.0-6.0-89.0"},{"sim_score":4,"rt":3766,"stimulus":"[\"img/0862/f43ceabf-acc1-4107-b857-5d1849808f93.jpg\",\"img/0874/767f289c-9814-4496-803f-745cc8913d1f.jpg\"]","trial_type":"similarity","trial_index":96,"time_elapsed":668696,"internal_node_id":"0.0-6.0-90.0"},{"sim_score":7,"rt":3890,"stimulus":"[\"img/0894/7f2f31fd-6618-41c6-b65a-0fd8b2851bc9.jpg\",\"img/0766/0b48f9e0-7d37-4161-8adb-4e3f5b6b7583.jpg\"]","trial_type":"similarity","trial_index":97,"time_elapsed":673590,"internal_node_id":"0.0-6.0-91.0"},{"sim_score":1,"rt":5037,"stimulus":"[\"img/0874/2c9464dd-8a23-4baa-ac94-1ba3af5c15cc.jpg\",\"img/0867/26611f4e-d694-4460-b7e2-43c62753ddc3.jpg\"]","trial_type":"similarity","trial_index":98,"time_elapsed":679631,"internal_node_id":"0.0-6.0-92.0"},{"sim_score":5,"rt":6950,"stimulus":"[\"img/0899/d60714ae-98d7-4564-8c98-94dba1351135.jpg\",\"img/0868/e0aff734-077f-40dd-9781-74821abd3621.jpg\"]","trial_type":"similarity","trial_index":99,"time_elapsed":687585,"internal_node_id":"0.0-6.0-93.0"},{"sim_score":7,"rt":3676,"stimulus":"[\"img/0903/f1fa0f8d-e62b-4b4a-a174-31a0fabfe61b.jpg\",\"img/0862/ee3b7bff-4a70-4e84-9bea-4a565e456acb.jpg\"]","trial_type":"similarity","trial_index":100,"time_elapsed":692265,"internal_node_id":"0.0-6.0-94.0"},{"sim_score":6,"rt":4812,"stimulus":"[\"img/0899/66ab3178-c3fe-4455-ad17-d5952b08e018.jpg\",\"img/0766/6d32752d-aa05-40dc-9541-640b6e9d6fa1.jpg\"]","trial_type":"similarity","trial_index":101,"time_elapsed":698082,"internal_node_id":"0.0-6.0-95.0"},{"sim_score":7,"rt":5229,"stimulus":"[\"img/0867/8ba0c5a7-c7e4-42cf-a80a-543763b90779.jpg\",\"img/0868/c8ac40c7-6904-4e13-8d61-c75d3052dc4e.jpg\"]","trial_type":"similarity","trial_index":102,"time_elapsed":704314,"internal_node_id":"0.0-6.0-96.0"},{"sim_score":7,"rt":3867,"stimulus":"[\"img/0862/e8cc3bdf-cc43-4565-bccf-492626c70953.jpg\",\"img/0901/58ec7fa9-b466-4651-90aa-c082df0972de.jpg\"]","trial_type":"similarity","trial_index":103,"time_elapsed":709185,"internal_node_id":"0.0-6.0-97.0"},{"sim_score":3,"rt":4578,"stimulus":"[\"img/0875/8521fd58-3b1e-4dc5-97ae-804edfa6734a.jpg\",\"img/0766/c23b5a20-e50f-4d85-841f-cf89212a4348.jpg\"]","trial_type":"similarity","trial_index":104,"time_elapsed":714767,"internal_node_id":"0.0-6.0-98.0"},{"sim_score":5,"rt":4101,"stimulus":"[\"img/0758/a085b443-b5d7-4cb2-9ad4-b9dab0fc23f1.jpg\",\"img/0874/99f6563c-8a8d-4c1c-a41d-667b618c3fd5.jpg\"]","trial_type":"similarity","trial_index":105,"time_elapsed":719873,"internal_node_id":"0.0-6.0-99.0"},{"sim_score":5,"rt":4532,"stimulus":"[\"img/0904/4b8daf2a-13a9-4ea9-9e0b-b265b6e933e7.jpg\",\"img/0868/5fa7f9d0-f0e5-454c-8224-74d964818f56.jpg\"]","trial_type":"similarity","trial_index":106,"time_elapsed":725408,"internal_node_id":"0.0-6.0-100.0"},{"sim_score":5,"rt":4362,"stimulus":"[\"img/0903/c708d08f-a108-4e04-8288-c3fcf6375db4.jpg\",\"img/0866/4a87911a-d5be-4d4e-ab8e-3d1f581bf507.jpg\"]","trial_type":"similarity","trial_index":107,"time_elapsed":730774,"internal_node_id":"0.0-6.0-101.0"},{"sim_score":7,"rt":4509,"stimulus":"[\"img/0868/8b0b8473-e2c0-4331-aa56-c3a5c29369da.jpg\",\"img/0769/bb8c4e53-6f32-4814-97ee-392d4decfb2e.jpg\"]","trial_type":"similarity","trial_index":108,"time_elapsed":736287,"internal_node_id":"0.0-6.0-102.0"},{"sim_score":5,"rt":5476,"stimulus":"[\"img/0902/30c420f5-c714-4681-ae5a-c0ba8f636a26.jpg\",\"img/0899/8de08897-b430-42fe-9d42-840670b80f94.jpg\"]","trial_type":"similarity","trial_index":109,"time_elapsed":742767,"internal_node_id":"0.0-6.0-103.0"},{"sim_score":3,"rt":4103,"stimulus":"[\"img/0868/d6d1f30d-4323-435a-b194-7892521bc57e.jpg\",\"img/0862/53a9cf7c-93c4-41b9-952f-07d17f7a17b2.jpg\"]","trial_type":"similarity","trial_index":110,"time_elapsed":747875,"internal_node_id":"0.0-6.0-104.0"},{"sim_score":5,"rt":4676,"stimulus":"[\"img/0903/6f343da5-00d9-4d50-89d1-2ed24cdb8319.jpg\",\"img/0894/8cadb87a-7001-4e47-99fb-1867bebf1668.jpg\"]","trial_type":"similarity","trial_index":111,"time_elapsed":753555,"internal_node_id":"0.0-6.0-105.0"},{"sim_score":6,"rt":3620,"stimulus":"[\"img/0864/65210d57-1153-4657-886a-32e758f49b4a.jpg\",\"img/0874/995f0332-0439-4eb4-add3-957335dbf6d9.jpg\"]","trial_type":"similarity","trial_index":112,"time_elapsed":758179,"internal_node_id":"0.0-6.0-106.0"},{"sim_score":7,"rt":4059,"stimulus":"[\"img/0862/00c06b00-3b73-44e9-bc1e-c5aafb438321.jpg\",\"img/0902/31abfa33-7cdb-44ad-968e-9f7b324d577a.jpg\"]","trial_type":"similarity","trial_index":113,"time_elapsed":763242,"internal_node_id":"0.0-6.0-107.0"},{"sim_score":7,"rt":3282,"stimulus":"[\"img/0904/0d17b811-063e-416e-a23c-3b3cfa4fcce5.jpg\",\"img/0903/71dbc325-b588-4297-a5cf-7f268a722ad9.jpg\"]","trial_type":"similarity","trial_index":114,"time_elapsed":767528,"internal_node_id":"0.0-6.0-108.0"},{"sim_score":5,"rt":3788,"stimulus":"[\"img/0764/8389e74f-e0e0-435d-945f-da1f4c92ccb6.jpg\",\"img/0864/4bd81bc6-c13d-46df-95a9-485886dc7c1b.jpg\"]","trial_type":"similarity","trial_index":115,"time_elapsed":772320,"internal_node_id":"0.0-6.0-109.0"},{"sim_score":3,"rt":4430,"stimulus":"[\"img/0866/11a1d141-be5e-443c-98c1-a9d4d9e3dec0.jpg\",\"img/0894/c505c65a-cde2-4f2c-8cde-f8676f7c894d.jpg\"]","trial_type":"similarity","trial_index":116,"time_elapsed":777754,"internal_node_id":"0.0-6.0-110.0"},{"sim_score":5,"rt":6229,"stimulus":"[\"img/0899/a048912c-b12c-40e3-90af-46b69b0cc4fe.jpg\",\"img/0903/8931c67c-a43d-47d3-a4c9-42aa2f81d344.jpg\"]","trial_type":"similarity","trial_index":117,"time_elapsed":784988,"internal_node_id":"0.0-6.0-111.0"},{"sim_score":3,"rt":4442,"stimulus":"[\"img/0902/3b243e54-0803-4c29-af42-4037c2118495.jpg\",\"img/0904/60d1a521-edf7-4696-9263-f21ac0e62a01.jpg\"]","trial_type":"similarity","trial_index":118,"time_elapsed":790434,"internal_node_id":"0.0-6.0-112.0"},{"sim_score":3,"rt":5341,"stimulus":"[\"img/0864/1d15626a-2f7c-410f-819c-0fa2c967e95e.jpg\",\"img/0860/31ff6436-98bf-4652-bed2-40f627229568.jpg\"]","trial_type":"similarity","trial_index":119,"time_elapsed":796779,"internal_node_id":"0.0-6.0-113.0"},{"sim_score":7,"rt":3688,"stimulus":"[\"img/0860/4a022222-056d-461c-ab02-39fac9647552.jpg\",\"img/0899/0adc0bc3-6fca-4078-be6f-d45ddf1653d5.jpg\"]","trial_type":"similarity","trial_index":120,"time_elapsed":801470,"internal_node_id":"0.0-6.0-114.0"},{"sim_score":5,"rt":4013,"stimulus":"[\"img/0881/f8bd891e-aa09-4782-89db-33e7cb2b0cf1.jpg\",\"img/0903/39365c8e-a733-4801-ac7d-b87e38c3784b.jpg\"]","trial_type":"similarity","trial_index":121,"time_elapsed":806487,"internal_node_id":"0.0-6.0-115.0"},{"sim_score":3,"rt":4339,"stimulus":"[\"img/0894/6aa5545f-fa7d-4286-bbaa-aaf34dc7ec96.jpg\",\"img/0874/8cdb1c07-1c32-46d2-981c-3636560fa6e5.jpg\"]","trial_type":"similarity","trial_index":122,"time_elapsed":811831,"internal_node_id":"0.0-6.0-116.0"},{"sim_score":2,"rt":4070,"stimulus":"[\"img/0881/292e9b4b-fca0-4ba8-87f1-4048f9e37b7d.jpg\",\"img/0862/a0a3a7ba-7798-46a3-b4ca-05e1f6e581d0.jpg\"]","trial_type":"similarity","trial_index":123,"time_elapsed":816905,"internal_node_id":"0.0-6.0-117.0"},{"sim_score":1,"rt":4599,"stimulus":"[\"img/0868/4a8a45ed-2c4f-421b-9564-409a33ecd26c.jpg\",\"img/0875/fb732ab5-013a-4366-9f65-27811ed157e9.jpg\"]","trial_type":"similarity","trial_index":124,"time_elapsed":822508,"internal_node_id":"0.0-6.0-118.0"},{"sim_score":3,"rt":5848,"stimulus":"[\"img/0860/61fb959d-d4d9-4de4-9e4e-4fa62b4cfcd5.jpg\",\"img/0758/3ddd05d3-557e-4ee7-8b78-9d2d681d8ae2.jpg\"]","trial_type":"similarity","trial_index":125,"time_elapsed":829359,"internal_node_id":"0.0-6.0-119.0"},{"sim_score":1,"rt":4801,"stimulus":"[\"img/0864/0116ca98-293d-4fa6-a93b-5a6144ef64cc.jpg\",\"img/0875/ebf7653f-ff45-4e9f-af58-2c042ab3cd2b.jpg\"]","trial_type":"similarity","trial_index":126,"time_elapsed":835164,"internal_node_id":"0.0-6.0-120.0"},{"sim_score":2,"rt":5341,"stimulus":"[\"img/0898/f3a3f225-1248-4ac7-b93b-f0ff28485bf3.jpg\",\"img/0866/23a224f3-2012-4fc8-8e0f-3c36f8de27fd.jpg\"]","trial_type":"similarity","trial_index":127,"time_elapsed":841509,"internal_node_id":"0.0-6.0-121.0"},{"sim_score":3,"rt":5419,"stimulus":"[\"img/0874/93d1f8dc-acf2-4f03-bd8d-8ec35df276ed.jpg\",\"img/0904/06dacdc5-2206-4fb8-92b7-88042d22833c.jpg\"]","trial_type":"similarity","trial_index":128,"time_elapsed":847933,"internal_node_id":"0.0-6.0-122.0"},{"sim_score":5,"rt":4913,"stimulus":"[\"img/0904/73920552-103b-4c9c-9ece-e0b8376b4504.jpg\",\"img/0864/efcfbb1b-8197-44c9-b723-40d6c608dd3c.jpg\"]","trial_type":"similarity","trial_index":129,"time_elapsed":853850,"internal_node_id":"0.0-6.0-123.0"},{"sim_score":6,"rt":5074,"stimulus":"[\"img/0894/9b1333fd-3561-43bf-aee5-99b7b7ca3dc3.jpg\",\"img/0902/c920f0e1-1c81-480f-a164-c77f2dc6ce9a.jpg\"]","trial_type":"similarity","trial_index":130,"time_elapsed":859928,"internal_node_id":"0.0-6.0-124.0"},{"sim_score":5,"rt":5328,"stimulus":"[\"img/0868/7b212364-ff5f-4e28-9241-7eb6ea00161b.jpg\",\"img/0864/c3b63e8f-ea39-4d70-a1f2-b3fe4be8eb75.jpg\"]","trial_type":"similarity","trial_index":131,"time_elapsed":874302,"internal_node_id":"0.0-6.0-125.0"},{"sim_score":1,"rt":5105,"stimulus":"[\"img/0899/a05bea16-2bb4-4cb9-b8fb-4ff975db6971.jpg\",\"img/0866/9b38d691-1802-4959-ab3f-fc902f0e4ea6.jpg\"]","trial_type":"similarity","trial_index":132,"time_elapsed":880411,"internal_node_id":"0.0-6.0-126.0"},{"sim_score":6,"rt":5375,"stimulus":"[\"img/0875/34132396-d896-4c2d-8087-646dd867e769.jpg\",\"img/0904/65e2b70a-b184-4da3-b5c0-5038bdf9469a.jpg\"]","trial_type":"similarity","trial_index":133,"time_elapsed":886791,"internal_node_id":"0.0-6.0-127.0"},{"sim_score":2,"rt":4937,"stimulus":"[\"img/0867/a749dddb-69f0-44a6-acdc-2bf295cf6dcc.jpg\",\"img/0899/5b56dd3e-3f49-47cc-af84-16da6457753b.jpg\"]","trial_type":"similarity","trial_index":134,"time_elapsed":892731,"internal_node_id":"0.0-6.0-128.0"},{"sim_score":1,"rt":3991,"stimulus":"[\"img/0901/5657dd86-0ff9-4753-ba2b-9dfb223e5c89.jpg\",\"img/0867/a498eef3-9fa4-4ab2-9778-4ae82ac40dc5.jpg\"]","trial_type":"similarity","trial_index":135,"time_elapsed":897726,"internal_node_id":"0.0-6.0-129.0"},{"sim_score":4,"rt":7772,"stimulus":"[\"img/0864/b3c4e378-28f0-4699-9338-2a257b4bca04.jpg\",\"img/0769/458d9c77-b844-40b5-bb1b-1e3bbd4da64e.jpg\"]","trial_type":"similarity","trial_index":136,"time_elapsed":906501,"internal_node_id":"0.0-6.0-130.0"},{"sim_score":2,"rt":4790,"stimulus":"[\"img/0903/6378ee1e-3d2b-48d2-87be-bebda32c8268.jpg\",\"img/0868/4e626425-63c8-484a-8a1d-e66ee4e0bef8.jpg\"]","trial_type":"similarity","trial_index":137,"time_elapsed":912295,"internal_node_id":"0.0-6.0-131.0"},{"sim_score":4,"rt":5611,"stimulus":"[\"img/0864/8ddd2e30-a1d0-479f-9cbe-591213023893.jpg\",\"img/0867/179ab87a-8eac-4c52-a41f-2e48e3120f09.jpg\"]","trial_type":"similarity","trial_index":138,"time_elapsed":918910,"internal_node_id":"0.0-6.0-132.0"},{"sim_score":5,"rt":6253,"stimulus":"[\"img/0901/875dedb9-24c9-4443-9f8c-85e97d70ee5a.jpg\",\"img/0860/c7047cd2-7cc1-41b6-8a34-c0986774975f.jpg\"]","trial_type":"similarity","trial_index":139,"time_elapsed":926167,"internal_node_id":"0.0-6.0-133.0"},{"sim_score":5,"rt":4834,"stimulus":"[\"img/0881/d1982897-8d8d-4704-a940-1ee5d07a1f15.jpg\",\"img/0766/908bc45b-7c9e-4f95-806e-86b196ebcb2c.jpg\"]","trial_type":"similarity","trial_index":140,"time_elapsed":932005,"internal_node_id":"0.0-6.0-134.0"},{"sim_score":3,"rt":6577,"stimulus":"[\"img/0903/8fcafe03-43df-4c45-9da5-0df3a1eeccc5.jpg\",\"img/0864/ef9cbca0-4be8-435d-ad49-977259e80409.jpg\"]","trial_type":"similarity","trial_index":141,"time_elapsed":939588,"internal_node_id":"0.0-6.0-135.0"},{"sim_score":7,"rt":4249,"stimulus":"[\"img/0758/6e95579b-5166-487c-b8cb-e417c6a218e3.jpg\",\"img/0894/492d2f29-d7b9-4422-8be8-47fd58bfaa8b.jpg\"]","trial_type":"similarity","trial_index":142,"time_elapsed":944841,"internal_node_id":"0.0-6.0-136.0"},{"sim_score":7,"rt":5037,"stimulus":"[\"img/0769/aad494cc-674d-4a08-9bfa-24a88ebe3c79.jpg\",\"img/0860/8a92e21b-6a32-4e4a-a445-2d5a487ed0a4.jpg\"]","trial_type":"similarity","trial_index":143,"time_elapsed":950882,"internal_node_id":"0.0-6.0-137.0"},{"sim_score":7,"rt":4780,"stimulus":"[\"img/0904/d23dd7be-7fe8-4435-82f7-bd592c01e6a1.jpg\",\"img/0766/214866ee-423d-4629-9bb9-41572bdc7dac.jpg\"]","trial_type":"similarity","trial_index":144,"time_elapsed":956666,"internal_node_id":"0.0-6.0-138.0"},{"sim_score":1,"rt":4474,"stimulus":"[\"img/0868/6a28c3b0-3d76-498a-9fb7-ddafc665eca8.jpg\",\"img/0860/5bff793e-cbd5-4d7e-b628-0ac2b0e30b64.jpg\"]","trial_type":"similarity","trial_index":145,"time_elapsed":962144,"internal_node_id":"0.0-6.0-139.0"},{"sim_score":4,"rt":7039,"stimulus":"[\"img/0758/d540bee6-b460-4c32-ac57-bc282742d7d4.jpg\",\"img/0864/da39ad34-04e0-40d4-a724-c08d53e0ea09.jpg\"]","trial_type":"similarity","trial_index":146,"time_elapsed":970188,"internal_node_id":"0.0-6.0-140.0"},{"sim_score":7,"rt":8908,"stimulus":"[\"img/0867/f8159067-056c-41f1-a136-c529fe5e970a.jpg\",\"img/0867/bf560d4f-dee3-4f11-a385-705cc1aa5f3c.jpg\"]","trial_type":"similarity","trial_index":147,"time_elapsed":980099,"internal_node_id":"0.0-6.0-141.0"},{"sim_score":7,"rt":4025,"stimulus":"[\"img/0898/993d8f2d-bef7-4251-a193-0f93a32b7763.jpg\",\"img/0898/c3cecf20-f7fd-45fa-97d0-dc0a63e8d6c0.jpg\"]","trial_type":"similarity","trial_index":148,"time_elapsed":985128,"internal_node_id":"0.0-6.0-142.0"},{"sim_score":5,"rt":4789,"stimulus":"[\"img/0866/386235d2-6857-41e7-88a8-25cfc3430025.jpg\",\"img/0769/9ea27d61-3d55-418c-8d14-82e90f656f01.jpg\"]","trial_type":"similarity","trial_index":149,"time_elapsed":990921,"internal_node_id":"0.0-6.0-143.0"},{"sim_score":7,"rt":17142,"stimulus":"[\"img/0860/fd4662f9-4c03-4d79-8593-06735e55a64b.jpg\",\"img/0898/8605a25b-6895-476d-8c13-df7a83f96093.jpg\"]","trial_type":"similarity","trial_index":150,"time_elapsed":1009068,"internal_node_id":"0.0-6.0-144.0"},{"sim_score":5,"rt":4261,"stimulus":"[\"img/0766/d5d38751-8fa5-476f-93e9-86ed2d9045ef.jpg\",\"img/0864/5f74a653-3bdc-4308-8cca-ac667dc22e1f.jpg\"]","trial_type":"similarity","trial_index":151,"time_elapsed":1014333,"internal_node_id":"0.0-6.0-145.0"},{"sim_score":6,"rt":3676,"stimulus":"[\"img/0860/e14d67c1-6d92-4f1e-9257-c8607159c19c.jpg\",\"img/0903/6a87dbad-9b8d-4ff5-9c41-03c9aa24f0c3.jpg\"]","trial_type":"similarity","trial_index":152,"time_elapsed":1019013,"internal_node_id":"0.0-6.0-146.0"},{"sim_score":2,"rt":3517,"stimulus":"[\"img/0867/de92135f-5b65-4ed9-b245-188292c7c2f8.jpg\",\"img/0764/23ea9375-f801-4a96-9925-7d453da887c7.jpg\"]","trial_type":"similarity","trial_index":153,"time_elapsed":1023535,"internal_node_id":"0.0-6.0-147.0"},{"sim_score":7,"rt":3754,"stimulus":"[\"img/0769/35364db7-e0d5-40ef-93dc-faf9dfb95136.jpg\",\"img/0904/fe746a3f-8458-48d0-8a13-8cba2a9df9f8.jpg\"]","trial_type":"similarity","trial_index":154,"time_elapsed":1028294,"internal_node_id":"0.0-6.0-148.0"},{"sim_score":6,"rt":3968,"stimulus":"[\"img/0764/6fbd1902-fa2a-48d8-bc11-705b8ab68d8f.jpg\",\"img/0901/4d1bed7e-3c4e-4f6c-ada9-4beb66ba9e39.jpg\"]","trial_type":"similarity","trial_index":155,"time_elapsed":1033266,"internal_node_id":"0.0-6.0-149.0"},{"sim_score":6,"rt":3237,"stimulus":"[\"img/0904/24fc38fe-842c-4831-ad8a-b1de5c25c0a8.jpg\",\"img/0899/7f9d45d0-b2c6-40d3-aa41-c207db2c411b.jpg\"]","trial_type":"similarity","trial_index":156,"time_elapsed":1037508,"internal_node_id":"0.0-6.0-150.0"},{"sim_score":4,"rt":3395,"stimulus":"[\"img/0862/e0f1a4e9-e1b6-45f7-af67-89f334e6630d.jpg\",\"img/0867/2e1a0b58-cdb1-4107-a14e-452530d7b9b0.jpg\"]","trial_type":"similarity","trial_index":157,"time_elapsed":1041907,"internal_node_id":"0.0-6.0-151.0"},{"sim_score":6,"rt":4925,"stimulus":"[\"img/0766/26d3ae14-8275-4e08-99b2-a6598c193ddf.jpg\",\"img/0766/d919cedb-f9b7-4f30-83bb-3e9c65001ceb.jpg\"]","trial_type":"similarity","trial_index":158,"time_elapsed":1047835,"internal_node_id":"0.0-6.0-152.0"},{"sim_score":3,"rt":4531,"stimulus":"[\"img/0862/fad1d7c1-8187-43c3-942a-0fc12183e48e.jpg\",\"img/0894/05161000-f476-499b-a878-c13c7f347fd9.jpg\"]","trial_type":"similarity","trial_index":159,"time_elapsed":1053371,"internal_node_id":"0.0-6.0-153.0"},{"sim_score":6,"rt":3485,"stimulus":"[\"img/0899/d8f2dd94-570e-4e8c-a087-d96090fb9e8c.jpg\",\"img/0901/2a953e50-d237-405c-a38d-5ed21494c968.jpg\"]","trial_type":"similarity","trial_index":160,"time_elapsed":1057860,"internal_node_id":"0.0-6.0-154.0"},{"sim_score":7,"rt":4126,"stimulus":"[\"img/0874/31e22c7c-99aa-40b1-bf03-dd73fa2df4d6.jpg\",\"img/0874/7e4f2150-3b59-4a36-b5da-a4e0ba410531.jpg\"]","trial_type":"similarity","trial_index":161,"time_elapsed":1062990,"internal_node_id":"0.0-6.0-155.0"},{"sim_score":3,"rt":3844,"stimulus":"[\"img/0860/702bd09d-df3a-40aa-a267-5f04474305b5.jpg\",\"img/0867/98d8cd96-1476-4fe0-a3a3-04f875500a1b.jpg\"]","trial_type":"similarity","trial_index":162,"time_elapsed":1067838,"internal_node_id":"0.0-6.0-156.0"},{"sim_score":3,"rt":4451,"stimulus":"[\"img/0901/04a53755-6da5-44d4-a7a6-48a6bc0a2280.jpg\",\"img/0881/609a5e93-38b5-4940-8627-2bf8fad7f802.jpg\"]","trial_type":"similarity","trial_index":163,"time_elapsed":1073294,"internal_node_id":"0.0-6.0-157.0"},{"sim_score":7,"rt":5813,"stimulus":"[\"img/0903/72197c2b-403e-4a26-b391-f1aa8dea4b76.jpg\",\"img/0902/d1083f2c-5520-44ec-81a8-3f856fbf0e80.jpg\"]","trial_type":"similarity","trial_index":164,"time_elapsed":1080112,"internal_node_id":"0.0-6.0-158.0"},{"sim_score":3,"rt":4272,"stimulus":"[\"img/0860/5383b320-1518-4095-a58e-5cc1ae30b64c.jpg\",\"img/0764/1def7b22-b054-4ec2-860b-73d25691823b.jpg\"]","trial_type":"similarity","trial_index":165,"time_elapsed":1085389,"internal_node_id":"0.0-6.0-159.0"},{"sim_score":1,"rt":4070,"stimulus":"[\"img/0902/51493fab-2a10-4385-aa88-bee3db441626.jpg\",\"img/0875/3ecb367d-e9eb-4826-8aaa-7aa72fb98019.jpg\"]","trial_type":"similarity","trial_index":166,"time_elapsed":1090463,"internal_node_id":"0.0-6.0-160.0"},{"sim_score":6,"rt":6140,"stimulus":"[\"img/0898/40f99fb2-64d2-4e72-8a7f-a1cf60741e69.jpg\",\"img/0862/f188d4f0-76a4-4102-818c-a209969d73a5.jpg\"]","trial_type":"similarity","trial_index":167,"time_elapsed":1097607,"internal_node_id":"0.0-6.0-161.0"},{"sim_score":5,"rt":5970,"stimulus":"[\"img/0894/7dd6ff43-f8fc-408a-8a41-a2b261871820.jpg\",\"img/0875/99698b4d-b4a1-44bc-8c83-8ea755bbbf61.jpg\"]","trial_type":"similarity","trial_index":168,"time_elapsed":1104581,"internal_node_id":"0.0-6.0-162.0"},{"sim_score":5,"rt":5859,"stimulus":"[\"img/0866/6f2a90d7-14f1-4f1b-bd64-fc0af6b9fe44.jpg\",\"img/0864/3d4de670-b290-4285-9c3d-12a0e3af44e9.jpg\"]","trial_type":"similarity","trial_index":169,"time_elapsed":1111444,"internal_node_id":"0.0-6.0-163.0"},{"sim_score":7,"rt":3563,"stimulus":"[\"img/0766/a1ed3f0f-e338-4a26-8fe4-4370f0c9fa6e.jpg\",\"img/0862/cdaed51d-9e2f-4807-801a-4663c40077e2.jpg\"]","trial_type":"similarity","trial_index":170,"time_elapsed":1116012,"internal_node_id":"0.0-6.0-164.0"},{"sim_score":7,"rt":4115,"stimulus":"[\"img/0866/a15b02be-11bb-43e3-b0e0-ecc3bd7dfc49.jpg\",\"img/0874/3f471690-9788-4d03-90c7-f615aecef149.jpg\"]","trial_type":"similarity","trial_index":171,"time_elapsed":1121130,"internal_node_id":"0.0-6.0-165.0"},{"sim_score":5,"rt":10055,"stimulus":"[\"img/0862/24cdc752-c2e5-4a17-86a6-6f2045d8553b.jpg\",\"img/0860/d9a0d117-6d1d-41c0-8fec-9aff0fd9e9f2.jpg\"]","trial_type":"similarity","trial_index":172,"time_elapsed":1132189,"internal_node_id":"0.0-6.0-166.0"},{"sim_score":1,"rt":4756,"stimulus":"[\"img/0766/a0270213-fa0e-4972-8b56-228c3e01ff90.jpg\",\"img/0901/d6d15b1c-4a30-4f74-a3fd-d4c8ee4169ca.jpg\"]","trial_type":"similarity","trial_index":173,"time_elapsed":1156016,"internal_node_id":"0.0-6.0-167.0"},{"sim_score":7,"rt":4014,"stimulus":"[\"img/0862/7918ca67-5bd3-4606-a5ea-c39fb11a9297.jpg\",\"img/0862/f23038d4-c366-4f70-979f-66b62362efa4.jpg\"]","trial_type":"similarity","trial_index":174,"time_elapsed":1161034,"internal_node_id":"0.0-6.0-168.0"},{"sim_score":3,"rt":5273,"stimulus":"[\"img/0894/76c1201f-8524-4865-85e6-dda8cb4ac986.jpg\",\"img/0764/cbdc4f20-3a9a-4211-9b40-090699e0abcc.jpg\"]","trial_type":"similarity","trial_index":175,"time_elapsed":1167312,"internal_node_id":"0.0-6.0-169.0"},{"sim_score":1,"rt":4666,"stimulus":"[\"img/0874/a82926a3-0b43-4add-803c-d5f9ea7798ee.jpg\",\"img/0898/04e39a7a-fcf6-4156-ab0e-f5871f335e1c.jpg\"]","trial_type":"similarity","trial_index":176,"time_elapsed":1172982,"internal_node_id":"0.0-6.0-170.0"},{"sim_score":1,"rt":4050,"stimulus":"[\"img/0860/c47fdead-eb02-4989-b078-26f4852f44fe.jpg\",\"img/0766/d8221e53-2300-4d99-ae1b-0bfb0eabe579.jpg\"]","trial_type":"similarity","trial_index":177,"time_elapsed":1178036,"internal_node_id":"0.0-6.0-171.0"},{"sim_score":3,"rt":4190,"stimulus":"[\"img/0898/81b08535-2020-4c15-9ce4-2f1e460755ae.jpg\",\"img/0864/87c467d3-abca-482f-ad80-3766c21b1bb3.jpg\"]","trial_type":"similarity","trial_index":178,"time_elapsed":1183232,"internal_node_id":"0.0-6.0-172.0"},{"sim_score":5,"rt":4891,"stimulus":"[\"img/0881/d373cb9f-a719-4549-a2a4-82def79fb2a5.jpg\",\"img/0764/4eff630a-6426-4f8d-b2ba-b4d9842a0962.jpg\"]","trial_type":"similarity","trial_index":179,"time_elapsed":1189128,"internal_node_id":"0.0-6.0-173.0"},{"sim_score":5,"rt":5868,"stimulus":"[\"img/0898/0c7dde4f-efce-4b7a-9387-6921635b7890.jpg\",\"img/0868/77091fc7-a590-4ebb-b915-fdb2483a2399.jpg\"]","trial_type":"similarity","trial_index":180,"time_elapsed":1196000,"internal_node_id":"0.0-6.0-174.0"},{"sim_score":2,"rt":7006,"stimulus":"[\"img/0864/6e846d43-94a6-4b37-a268-65eda979f052.jpg\",\"img/0864/e8bd659f-aa43-4748-877e-3118e8b4e189.jpg\"]","trial_type":"similarity","trial_index":181,"time_elapsed":1204010,"internal_node_id":"0.0-6.0-175.0"},{"sim_score":7,"rt":3878,"stimulus":"[\"img/0899/4408c14d-c168-4a7d-96f6-bc87bfb58f83.jpg\",\"img/0862/e697469a-ec19-4414-b972-7b9f3564785b.jpg\"]","trial_type":"similarity","trial_index":182,"time_elapsed":1208892,"internal_node_id":"0.0-6.0-176.0"},{"sim_score":3,"rt":4014,"stimulus":"[\"img/0875/5a7c4e35-6514-4e12-8879-d16071da4cd6.jpg\",\"img/0758/7fba58df-2a7a-4b76-8a8f-62739f97f271.jpg\"]","trial_type":"similarity","trial_index":183,"time_elapsed":1213910,"internal_node_id":"0.0-6.0-177.0"},{"sim_score":3,"rt":8549,"stimulus":"[\"img/0866/945c6710-d15b-4a5b-a8f6-69af0850357f.jpg\",\"img/0901/a0d65c84-3f20-476a-92d1-0c01e8019cf4.jpg\"]","trial_type":"similarity","trial_index":184,"time_elapsed":1223463,"internal_node_id":"0.0-6.0-178.0"},{"sim_score":1,"rt":51655,"stimulus":"[\"img/0769/db94b61b-a5a7-4861-9d32-7b02ad194fb0.jpg\",\"img/0874/1016b306-087c-4afc-aa08-fa527b28dc76.jpg\"]","trial_type":"similarity","trial_index":185,"time_elapsed":1276123,"internal_node_id":"0.0-6.0-179.0"},{"sim_score":3,"rt":4147,"stimulus":"[\"img/0875/e7e66b13-b573-431e-b85e-288ce04a35a3.jpg\",\"img/0881/405484ae-0d00-4b05-bc57-6420a36adfac.jpg\"]","trial_type":"similarity","trial_index":186,"time_elapsed":1281275,"internal_node_id":"0.0-6.0-180.0"},{"sim_score":7,"rt":4384,"stimulus":"[\"img/0866/8efcaa46-83ab-4dee-a35f-850402aa21ae.jpg\",\"img/0868/1a62b2b2-18f5-466e-b564-5176a57c565e.jpg\"]","trial_type":"similarity","trial_index":187,"time_elapsed":1286664,"internal_node_id":"0.0-6.0-181.0"},{"sim_score":6,"rt":4283,"stimulus":"[\"img/0899/76ad07e2-ca25-45eb-84f2-8d80b8ca3e26.jpg\",\"img/0758/d57c2592-a317-4f63-91be-91a3a9afd222.jpg\"]","trial_type":"similarity","trial_index":188,"time_elapsed":1291952,"internal_node_id":"0.0-6.0-182.0"},{"sim_score":1,"rt":4081,"stimulus":"[\"img/0874/85eb9b8a-c4c6-4e5a-b8e7-363a87a82054.jpg\",\"img/0875/90da8d75-108a-44ad-b999-e21fee3860d3.jpg\"]","trial_type":"similarity","trial_index":189,"time_elapsed":1297037,"internal_node_id":"0.0-6.0-183.0"},{"sim_score":5,"rt":3564,"stimulus":"[\"img/0904/25365108-e038-4021-aac9-797f2063b337.jpg\",\"img/0862/064818ee-13d5-4618-bb24-21c7368ea278.jpg\"]","trial_type":"similarity","trial_index":190,"time_elapsed":1301605,"internal_node_id":"0.0-6.0-184.0"},{"sim_score":7,"rt":2865,"stimulus":"[\"img/0902/97022122-01e4-46c3-a34f-c6260ad28428.jpg\",\"img/0766/75c3d627-4f3b-40d5-9d9c-10c8a62db644.jpg\"]","trial_type":"similarity","trial_index":191,"time_elapsed":1305474,"internal_node_id":"0.0-6.0-185.0"},{"sim_score":6,"rt":3371,"stimulus":"[\"img/0758/e1ba5e53-addc-436a-b428-d34fc1b130dc.jpg\",\"img/0769/ecda2fb3-556b-43ba-8a67-e87dd75ff2b4.jpg\"]","trial_type":"similarity","trial_index":192,"time_elapsed":1309851,"internal_node_id":"0.0-6.0-186.0"},{"sim_score":7,"rt":2955,"stimulus":"[\"img/0881/20af39f5-373d-4a55-a437-2dc4c0382c46.jpg\",\"img/0881/7e31e5dc-2240-4b1b-b5a0-3acd980099ef.jpg\"]","trial_type":"similarity","trial_index":193,"time_elapsed":1313811,"internal_node_id":"0.0-6.0-187.0"},{"sim_score":5,"rt":6837,"stimulus":"[\"img/0758/20497cbe-ddae-489e-86e2-ab06985ed07c.jpg\",\"img/0866/93a27239-8317-4e08-98ca-d8b1ff298e07.jpg\"]","trial_type":"similarity","trial_index":194,"time_elapsed":1321652,"internal_node_id":"0.0-6.0-188.0"},{"sim_score":2,"rt":4048,"stimulus":"[\"img/0764/ef0e64c6-d0dd-4dc6-87b6-ce5c0665f421.jpg\",\"img/0898/5f699581-3853-4547-856c-12f419ba5af7.jpg\"]","trial_type":"similarity","trial_index":195,"time_elapsed":1326703,"internal_node_id":"0.0-6.0-189.0"},{"sim_score":7,"rt":3102,"stimulus":"[\"img/0903/b0df4094-a3be-4b5b-81bd-8d260f13f61b.jpg\",\"img/0901/f1116359-1ff1-4638-b3b3-700918d36d18.jpg\"]","trial_type":"similarity","trial_index":196,"time_elapsed":1330809,"internal_node_id":"0.0-6.0-190.0"},{"sim_score":7,"rt":4937,"stimulus":"[\"img/0902/d2c34af0-8c50-437d-8cc3-619195a3e8ba.jpg\",\"img/0898/b3290bf9-215b-4b45-b21a-65bdf73f142f.jpg\"]","trial_type":"similarity","trial_index":197,"time_elapsed":1336750,"internal_node_id":"0.0-6.0-191.0"},{"sim_score":5,"rt":4002,"stimulus":"[\"img/0864/5f33e097-23e3-4002-882d-76e8cb15f451.jpg\",\"img/0901/b13fa50f-dbe0-4d0f-8647-6ac0fd8f40bd.jpg\"]","trial_type":"similarity","trial_index":198,"time_elapsed":1341756,"internal_node_id":"0.0-6.0-192.0"},{"sim_score":3,"rt":4093,"stimulus":"[\"img/0894/4739e06d-c31e-4bf1-bf91-c97fa9afb456.jpg\",\"img/0881/667e2147-d457-4f32-aa5f-6ab86e5848f1.jpg\"]","trial_type":"similarity","trial_index":199,"time_elapsed":1346852,"internal_node_id":"0.0-6.0-193.0"},{"sim_score":6,"rt":3541,"stimulus":"[\"img/0868/83b4350a-3b70-4cea-b7f5-b5b56f3050a8.jpg\",\"img/0868/179a5502-ab5c-478e-8263-5a1fbcc101d2.jpg\"]","trial_type":"similarity","trial_index":200,"time_elapsed":1351397,"internal_node_id":"0.0-6.0-194.0"},{"sim_score":6,"rt":4002,"stimulus":"[\"img/0899/1b3457ea-87d4-4946-a01c-aac1863ed46c.jpg\",\"img/0764/e48e6c6f-9e28-420f-836a-8043b2319bb4.jpg\"]","trial_type":"similarity","trial_index":201,"time_elapsed":1356403,"internal_node_id":"0.0-6.0-195.0"},{"sim_score":6,"rt":4576,"stimulus":"[\"img/0881/4bd34581-94d8-4e88-8c89-5cef864ca3be.jpg\",\"img/0904/09934646-45d2-4147-8fec-64a22a5ac822.jpg\"]","trial_type":"similarity","trial_index":202,"time_elapsed":1361984,"internal_node_id":"0.0-6.0-196.0"},{"sim_score":3,"rt":4644,"stimulus":"[\"img/0864/a248adb3-c70b-4652-b7a3-776d2a1e904b.jpg\",\"img/0902/d49743d6-67ae-4c2e-a939-8fd895a0f18e.jpg\"]","trial_type":"similarity","trial_index":203,"time_elapsed":1367631,"internal_node_id":"0.0-6.0-197.0"},{"sim_score":6,"rt":4689,"stimulus":"[\"img/0894/38cf335f-f76f-4349-8d65-e20cd6859565.jpg\",\"img/0904/2fd488e9-960f-41f7-8a44-33375f7d5051.jpg\"]","trial_type":"similarity","trial_index":204,"time_elapsed":1373324,"internal_node_id":"0.0-6.0-198.0"},{"sim_score":7,"rt":3823,"stimulus":"[\"img/0901/7c16dd9c-44ad-4d5b-990c-6a0b9b48b1b1.jpg\",\"img/0901/a6c90438-fa7c-4418-ac7c-16c2e772dd98.jpg\"]","trial_type":"similarity","trial_index":205,"time_elapsed":1378150,"internal_node_id":"0.0-6.0-199.0"},{"sim_score":3,"rt":4238,"stimulus":"[\"img/0894/5a49e858-2850-4892-9a06-e9f0efb5f94d.jpg\",\"img/0860/4c530c3c-6aab-492a-94d1-9c01797bde40.jpg\"]","trial_type":"similarity","trial_index":206,"time_elapsed":1383393,"internal_node_id":"0.0-6.0-200.0"},{"sim_score":7,"rt":4069,"stimulus":"[\"img/0898/ec565187-2e31-4fdd-9a5c-153d0c789ae0.jpg\",\"img/0903/647ce311-8c71-479a-8361-961db1457139.jpg\"]","trial_type":"similarity","trial_index":207,"time_elapsed":1388466,"internal_node_id":"0.0-6.0-201.0"},{"sim_score":5,"rt":3271,"stimulus":"[\"img/0864/9b2490c5-a282-400a-9736-e1a0ecbf1cb7.jpg\",\"img/0894/5ff3c4f6-52e2-4075-8679-be0312e59703.jpg\"]","trial_type":"similarity","trial_index":208,"time_elapsed":1392741,"internal_node_id":"0.0-6.0-202.0"},{"sim_score":7,"rt":3270,"stimulus":"[\"img/0874/ca23d307-fc00-4d7d-9106-584c6eb21b4d.jpg\",\"img/0860/99c589b9-9140-4d17-90c0-b344323edcda.jpg\"]","trial_type":"similarity","trial_index":209,"time_elapsed":1397016,"internal_node_id":"0.0-6.0-203.0"},{"sim_score":5,"rt":4396,"stimulus":"[\"img/0862/fb26cb07-d5a9-4653-813c-f41609f26cd5.jpg\",\"img/0875/dbdd643e-6d0e-4a5c-ab57-b9c29b9c981a.jpg\"]","trial_type":"similarity","trial_index":210,"time_elapsed":1402416,"internal_node_id":"0.0-6.0-204.0"},{"sim_score":3,"rt":4341,"stimulus":"[\"img/0867/aa05d113-fc19-4756-a8eb-7878f580bc92.jpg\",\"img/0881/c24f3051-eefa-42de-aba6-fccb56d93c70.jpg\"]","trial_type":"similarity","trial_index":211,"time_elapsed":1407761,"internal_node_id":"0.0-6.0-205.0"},{"sim_score":5,"rt":4328,"stimulus":"[\"img/0901/148b747a-7392-437e-8823-33053c5dff3f.jpg\",\"img/0902/5b45a7a0-81c8-4a71-aaa2-2ce09adb5a29.jpg\"]","trial_type":"similarity","trial_index":212,"time_elapsed":1413093,"internal_node_id":"0.0-6.0-206.0"},{"sim_score":6,"rt":4689,"stimulus":"[\"img/0899/ddf96ade-692e-4602-bd22-dedbb46401bc.jpg\",\"img/0864/1ebbc554-99fa-49f9-8799-317375a79820.jpg\"]","trial_type":"similarity","trial_index":213,"time_elapsed":1418786,"internal_node_id":"0.0-6.0-207.0"},{"sim_score":3,"rt":4226,"stimulus":"[\"img/0901/4ca4f962-40c0-4c59-b14a-3cd7b8c9029b.jpg\",\"img/0769/f6396414-6788-4d59-9683-de153298d89c.jpg\"]","trial_type":"similarity","trial_index":214,"time_elapsed":1424017,"internal_node_id":"0.0-6.0-208.0"},{"sim_score":7,"rt":4013,"stimulus":"[\"img/0902/ca3160ba-ad5d-459f-a1b6-8b4f3c85ecd5.jpg\",\"img/0902/a6fb6dd5-696c-47ec-be7d-d7b88f1544f1.jpg\"]","trial_type":"similarity","trial_index":215,"time_elapsed":1433803,"internal_node_id":"0.0-6.0-209.0"},{"view_history":"[{\"page_index\":0,\"viewing_time\":7841}]","rt":7841,"trial_type":"instructions","trial_index":216,"time_elapsed":1442646,"internal_node_id":"0.0-7.0"},{"rt":25479,"responses":"{\"Q0\":\"Yellow Warbler\"}","answer":["Nashville Warbler"],"trial_type":"image-multi-choice","trial_index":217,"time_elapsed":1469148,"internal_node_id":"0.0-8.0-0.0"},{"rt":17032,"responses":"{\"Q0\":\"Blackburnian Warbler\"}","answer":["Black-and-white Warbler"],"trial_type":"image-multi-choice","trial_index":218,"time_elapsed":1487202,"internal_node_id":"0.0-8.0-1.0"},{"rt":22593,"responses":"{\"Q0\":\"Magnolia Warbler\"}","answer":["Townsend's Warbler"],"trial_type":"image-multi-choice","trial_index":219,"time_elapsed":1510817,"internal_node_id":"0.0-8.0-2.0"},{"rt":54069,"responses":"{\"Q0\":\"Lark Sparrow\"}","answer":["Lark Sparrow"],"trial_type":"image-multi-choice","trial_index":220,"time_elapsed":1565909,"internal_node_id":"0.0-8.0-3.0"},{"rt":23456,"responses":"{\"Q0\":\"Tennessee Warbler\"}","answer":["Yellow Warbler"],"trial_type":"image-multi-choice","trial_index":221,"time_elapsed":1590388,"internal_node_id":"0.0-8.0-4.0"},{"rt":10929,"responses":"{\"Q0\":\"Townsend's Warbler\"}","answer":["Orange-crowned Warbler"],"trial_type":"image-multi-choice","trial_index":222,"time_elapsed":1602339,"internal_node_id":"0.0-8.0-5.0"},{"rt":9855,"responses":"{\"Q0\":\"Chipping Sparrow\"}","answer":["White-throated Sparrow"],"trial_type":"image-multi-choice","trial_index":223,"time_elapsed":1613215,"internal_node_id":"0.0-8.0-6.0"},{"rt":20468,"responses":"{\"Q0\":\"Song Sparrow\"}","answer":["Fox Sparrow"],"trial_type":"image-multi-choice","trial_index":224,"time_elapsed":1634703,"internal_node_id":"0.0-8.0-7.0"},{"rt":9667,"responses":"{\"Q0\":\"Song Sparrow\"}","answer":["Song Sparrow"],"trial_type":"image-multi-choice","trial_index":225,"time_elapsed":1645390,"internal_node_id":"0.0-8.0-8.0"},{"rt":13738,"responses":"{\"Q0\":\"Black-and-white Warbler\"}","answer":["Blackburnian Warbler"],"trial_type":"image-multi-choice","trial_index":226,"time_elapsed":1660150,"internal_node_id":"0.0-8.0-9.0"},{"rt":7136,"responses":"{\"Q0\":\"American Tree Sparrow\"}","answer":["Vesper Sparrow"],"trial_type":"image-multi-choice","trial_index":227,"time_elapsed":1668307,"internal_node_id":"0.0-8.0-10.0"},{"rt":27205,"responses":"{\"Q0\":\"Lincoln's Sparrow\"}","answer":["White-crowned Sparrow"],"trial_type":"image-multi-choice","trial_index":228,"time_elapsed":1696533,"internal_node_id":"0.0-8.0-11.0"},{"rt":12627,"responses":"{\"Q0\":\"Ovenbird\"}","answer":["American Tree Sparrow"],"trial_type":"image-multi-choice","trial_index":229,"time_elapsed":1710180,"internal_node_id":"0.0-8.0-12.0"},{"rt":18745,"responses":"{\"Q0\":\"Nashville Warbler\"}","answer":["Tennessee Warbler"],"trial_type":"image-multi-choice","trial_index":230,"time_elapsed":1729945,"internal_node_id":"0.0-8.0-13.0"},{"rt":22968,"responses":"{\"Q0\":\"Black-and-white Warbler\"}","answer":["Magnolia Warbler"],"trial_type":"image-multi-choice","trial_index":231,"time_elapsed":1753934,"internal_node_id":"0.0-8.0-14.0"},{"rt":17775,"responses":"{\"Q0\":\"Vesper Sparrow\"}","answer":["Northern Waterthrush"],"trial_type":"image-multi-choice","trial_index":232,"time_elapsed":1772729,"internal_node_id":"0.0-8.0-15.0"},{"rt":8621,"responses":"{\"Q0\":\"White-throated Sparrow\"}","answer":["Chipping Sparrow"],"trial_type":"image-multi-choice","trial_index":233,"time_elapsed":1782372,"internal_node_id":"0.0-8.0-16.0"},{"rt":9114,"responses":"{\"Q0\":\"Ovenbird\"}","answer":["Swamp Sparrow"],"trial_type":"image-multi-choice","trial_index":234,"time_elapsed":1792508,"internal_node_id":"0.0-8.0-17.0"},{"rt":10599,"responses":"{\"Q0\":\"Lark Sparrow\"}","answer":["Lincoln's Sparrow"],"trial_type":"image-multi-choice","trial_index":235,"time_elapsed":1804129,"internal_node_id":"0.0-8.0-18.0"},{"rt":8262,"responses":"{\"Q0\":\"Northern Waterthrush\"}","answer":["Ovenbird"],"trial_type":"image-multi-choice","trial_index":236,"time_elapsed":1813410,"internal_node_id":"0.0-8.0-19.0"}]