[{"view_history":"[{\"page_index\":0,\"viewing_time\":3700}]","rt":3703,"trial_type":"instructions","trial_index":0,"time_elapsed":3707,"internal_node_id":"0.0-0.0"},{"sim_score":3,"rt":6857,"stimulus":"[\"img/866.jpg\",\"img/868.jpg\"]","trial_type":"similarity_demo","trial_index":1,"time_elapsed":11627,"internal_node_id":"0.0-1.0"},{"view_history":"[{\"page_index\":0,\"viewing_time\":8085}]","rt":8086,"trial_type":"instructions","trial_index":2,"time_elapsed":20732,"internal_node_id":"0.0-2.0"},{"sim_score":3,"rt":7032,"stimulus":"[\"img/766.jpg\",\"img/867.jpg\"]","trial_type":"similarity_demo","trial_index":3,"time_elapsed":28800,"internal_node_id":"0.0-3.0"},{"view_history":"[{\"page_index\":0,\"viewing_time\":3660}]","rt":3662,"trial_type":"instructions","trial_index":4,"time_elapsed":33478,"internal_node_id":"0.0-4.0"},{"view_history":"[{\"page_index\":0,\"viewing_time\":11794}]","rt":11795,"trial_type":"instructions","trial_index":5,"time_elapsed":46298,"internal_node_id":"0.0-5.0"},{"sim_score":4,"rt":4012,"stimulus":"[\"img/0868/8b0b8473-e2c0-4331-aa56-c3a5c29369da.jpg\",\"img/0901/233a6948-48eb-4b67-8259-222b916b2322.jpg\"]","trial_type":"similarity","trial_index":6,"time_elapsed":51360,"internal_node_id":"0.0-6.0-0.0"},{"sim_score":4,"rt":1959,"stimulus":"[\"img/0769/75f7e514-0548-4329-b1e4-93c05e74f038.jpg\",\"img/0867/de92135f-5b65-4ed9-b245-188292c7c2f8.jpg\"]","trial_type":"similarity","trial_index":7,"time_elapsed":54368,"internal_node_id":"0.0-6.0-1.0"},{"sim_score":6,"rt":6042,"stimulus":"[\"img/0766/2da002a4-05c9-4f5c-9ed7-433b4183e273.jpg\",\"img/0898/a8f16b02-e19f-423b-86c3-a36562ae1f9b.jpg\"]","trial_type":"similarity","trial_index":8,"time_elapsed":61464,"internal_node_id":"0.0-6.0-2.0"},{"sim_score":4,"rt":3225,"stimulus":"[\"img/0902/0c760cc9-10ac-429e-8957-a7d51fc99683.jpg\",\"img/0881/db77fe00-aeb0-4d1d-aa66-f3a96fd077e4.jpg\"]","trial_type":"similarity","trial_index":9,"time_elapsed":65752,"internal_node_id":"0.0-6.0-3.0"},{"sim_score":7,"rt":4652,"stimulus":"[\"img/0894/c505c65a-cde2-4f2c-8cde-f8676f7c894d.jpg\",\"img/0894/7fb082e0-ce79-485c-9109-04367fb32275.jpg\"]","trial_type":"similarity","trial_index":10,"time_elapsed":71456,"internal_node_id":"0.0-6.0-4.0"},{"sim_score":4,"rt":2419,"stimulus":"[\"img/0874/93d1f8dc-acf2-4f03-bd8d-8ec35df276ed.jpg\",\"img/0899/00715b3f-851b-420b-a26b-d7f79f7759a9.jpg\"]","trial_type":"similarity","trial_index":11,"time_elapsed":74935,"internal_node_id":"0.0-6.0-5.0"},{"sim_score":6,"rt":4669,"stimulus":"[\"img/0904/d23dd7be-7fe8-4435-82f7-bd592c01e6a1.jpg\",\"img/0764/f990b2e8-ecee-481e-be7c-0239fce350e2.jpg\"]","trial_type":"similarity","trial_index":12,"time_elapsed":80663,"internal_node_id":"0.0-6.0-6.0"},{"sim_score":6,"rt":4556,"stimulus":"[\"img/0899/d8f2dd94-570e-4e8c-a087-d96090fb9e8c.jpg\",\"img/0898/b2732712-71c2-45d8-834f-2b2ed5504910.jpg\"]","trial_type":"similarity","trial_index":13,"time_elapsed":86275,"internal_node_id":"0.0-6.0-7.0"},{"sim_score":4,"rt":1685,"stimulus":"[\"img/0874/8cdb1c07-1c32-46d2-981c-3636560fa6e5.jpg\",\"img/0903/e2e55a9e-0397-4dc0-8adf-4a54cfefe1fe.jpg\"]","trial_type":"similarity","trial_index":14,"time_elapsed":89136,"internal_node_id":"0.0-6.0-8.0"},{"sim_score":6,"rt":4688,"stimulus":"[\"img/0881/19e82c47-8e4b-45d2-a6c8-74181eb4155e.jpg\",\"img/0758/caa93da2-9edf-49fa-96b9-32dedd8f5078.jpg\"]","trial_type":"similarity","trial_index":15,"time_elapsed":94881,"internal_node_id":"0.0-6.0-9.0"},{"sim_score":6,"rt":3612,"stimulus":"[\"img/0898/881e2a85-d5c2-49be-a0c6-8a6ce2c4af08.jpg\",\"img/0901/c6c877e0-dd63-4e00-9657-33af29d55aab.jpg\"]","trial_type":"similarity","trial_index":16,"time_elapsed":99561,"internal_node_id":"0.0-6.0-10.0"},{"sim_score":6,"rt":4448,"stimulus":"[\"img/0903/680ed18e-b311-4ecf-9b00-7dea32128334.jpg\",\"img/0769/057eb0a0-aa5b-40c7-9852-21444f68d767.jpg\"]","trial_type":"similarity","trial_index":17,"time_elapsed":105078,"internal_node_id":"0.0-6.0-11.0"},{"sim_score":4,"rt":1715,"stimulus":"[\"img/0764/03c07b98-3f18-4b71-bb70-ecff564a78d1.jpg\",\"img/0868/09a9ef4d-d000-4cfa-a6aa-ebec7c2edeb4.jpg\"]","trial_type":"similarity","trial_index":18,"time_elapsed":107856,"internal_node_id":"0.0-6.0-12.0"},{"sim_score":4,"rt":2281,"stimulus":"[\"img/0867/2e1a0b58-cdb1-4107-a14e-452530d7b9b0.jpg\",\"img/0903/8931c67c-a43d-47d3-a4c9-42aa2f81d344.jpg\"]","trial_type":"similarity","trial_index":19,"time_elapsed":111199,"internal_node_id":"0.0-6.0-13.0"},{"sim_score":4,"rt":1872,"stimulus":"[\"img/0766/27f54113-8561-4568-9ffe-0a1650ae65ec.jpg\",\"img/0758/d540bee6-b460-4c32-ac57-bc282742d7d4.jpg\"]","trial_type":"similarity","trial_index":20,"time_elapsed":114141,"internal_node_id":"0.0-6.0-14.0"},{"sim_score":4,"rt":2109,"stimulus":"[\"img/0902/a6fb6dd5-696c-47ec-be7d-d7b88f1544f1.jpg\",\"img/0860/4c530c3c-6aab-492a-94d1-9c01797bde40.jpg\"]","trial_type":"similarity","trial_index":21,"time_elapsed":117304,"internal_node_id":"0.0-6.0-15.0"},{"sim_score":4,"rt":1772,"stimulus":"[\"img/0769/f73c5138-2f4c-4354-981c-129dff9cc734.jpg\",\"img/0875/f87b67d7-c33e-40d1-b281-248c4be1cb6e.jpg\"]","trial_type":"similarity","trial_index":22,"time_elapsed":120122,"internal_node_id":"0.0-6.0-16.0"},{"sim_score":4,"rt":3731,"stimulus":"[\"img/0904/9d30eff1-46ef-4453-b11e-124ef8145c00.jpg\",\"img/0866/07c9c966-3c8d-40e7-8128-92b2acbaed5d.jpg\"]","trial_type":"similarity","trial_index":23,"time_elapsed":124908,"internal_node_id":"0.0-6.0-17.0"},{"sim_score":7,"rt":3599,"stimulus":"[\"img/0875/3ecb367d-e9eb-4826-8aaa-7aa72fb98019.jpg\",\"img/0875/34132396-d896-4c2d-8087-646dd867e769.jpg\"]","trial_type":"similarity","trial_index":24,"time_elapsed":129560,"internal_node_id":"0.0-6.0-18.0"},{"sim_score":7,"rt":4676,"stimulus":"[\"img/0758/20497cbe-ddae-489e-86e2-ab06985ed07c.jpg\",\"img/0758/e1ba5e53-addc-436a-b428-d34fc1b130dc.jpg\"]","trial_type":"similarity","trial_index":25,"time_elapsed":135288,"internal_node_id":"0.0-6.0-19.0"},{"sim_score":4,"rt":3038,"stimulus":"[\"img/0902/62f11694-7ed7-4cb7-8a73-9e95c43824e7.jpg\",\"img/0874/3ce41e7c-40c8-4d58-a546-171114521796.jpg\"]","trial_type":"similarity","trial_index":26,"time_elapsed":139380,"internal_node_id":"0.0-6.0-20.0"},{"sim_score":6,"rt":4127,"stimulus":"[\"img/0764/b8e23f4f-ff19-4472-ad9b-2f85548ebca0.jpg\",\"img/0769/9ea9ceb6-049e-4ad9-be8f-00645cd35803.jpg\"]","trial_type":"similarity","trial_index":27,"time_elapsed":144576,"internal_node_id":"0.0-6.0-21.0"},{"sim_score":4,"rt":1654,"stimulus":"[\"img/0901/f1116359-1ff1-4638-b3b3-700918d36d18.jpg\",\"img/0874/99f6563c-8a8d-4c1c-a41d-667b618c3fd5.jpg\"]","trial_type":"similarity","trial_index":28,"time_elapsed":147278,"internal_node_id":"0.0-6.0-22.0"},{"sim_score":4,"rt":1580,"stimulus":"[\"img/0875/42910c99-5463-450a-a0f8-d4d060a11455.jpg\",\"img/0903/365f176c-25a4-4973-bd3c-279bf1b39476.jpg\"]","trial_type":"similarity","trial_index":29,"time_elapsed":149913,"internal_node_id":"0.0-6.0-23.0"},{"sim_score":4,"rt":2766,"stimulus":"[\"img/0769/7c50e5f5-cc38-4d48-b009-fbe17bcea61c.jpg\",\"img/0881/62a64f90-7a72-4aee-a1a1-0c548ac9bdda.jpg\"]","trial_type":"similarity","trial_index":30,"time_elapsed":153741,"internal_node_id":"0.0-6.0-24.0"},{"sim_score":4,"rt":1601,"stimulus":"[\"img/0867/5e07b34d-b40f-4b1c-ac10-49975bace45f.jpg\",\"img/0904/24fc38fe-842c-4831-ad8a-b1de5c25c0a8.jpg\"]","trial_type":"similarity","trial_index":31,"time_elapsed":156395,"internal_node_id":"0.0-6.0-25.0"},{"sim_score":6,"rt":3641,"stimulus":"[\"img/0860/99c589b9-9140-4d17-90c0-b344323edcda.jpg\",\"img/0881/e046471a-35b4-4159-bbf7-3cfd201bef66.jpg\"]","trial_type":"similarity","trial_index":32,"time_elapsed":161088,"internal_node_id":"0.0-6.0-26.0"},{"sim_score":6,"rt":3455,"stimulus":"[\"img/0866/02f5e6b9-52b7-448c-9708-5b460d0c9a23.jpg\",\"img/0866/be24ab58-230e-4db8-9f45-ff04c9aec6bb.jpg\"]","trial_type":"similarity","trial_index":33,"time_elapsed":165613,"internal_node_id":"0.0-6.0-27.0"},{"sim_score":4,"rt":2211,"stimulus":"[\"img/0764/c643e165-df19-459f-8c2b-8357bf432a17.jpg\",\"img/0862/fad1d7c1-8187-43c3-942a-0fc12183e48e.jpg\"]","trial_type":"similarity","trial_index":34,"time_elapsed":168886,"internal_node_id":"0.0-6.0-28.0"},{"sim_score":4,"rt":1856,"stimulus":"[\"img/0904/0d25eb24-bb20-4e8d-9787-8b489558b4cb.jpg\",\"img/0758/6e95579b-5166-487c-b8cb-e417c6a218e3.jpg\"]","trial_type":"similarity","trial_index":35,"time_elapsed":171808,"internal_node_id":"0.0-6.0-29.0"},{"sim_score":6,"rt":4684,"stimulus":"[\"img/0894/8cadb87a-7001-4e47-99fb-1867bebf1668.jpg\",\"img/0899/f95cbdb4-f804-4f5d-ad76-373ad343e658.jpg\"]","trial_type":"similarity","trial_index":36,"time_elapsed":177573,"internal_node_id":"0.0-6.0-30.0"},{"sim_score":4,"rt":1928,"stimulus":"[\"img/0860/71e1aad0-2cdf-43bb-94a4-a8c016997c30.jpg\",\"img/0904/9b3568cc-3cf7-42be-9df3-fdafde7a58b8.jpg\"]","trial_type":"similarity","trial_index":37,"time_elapsed":180552,"internal_node_id":"0.0-6.0-31.0"},{"sim_score":6,"rt":16224,"stimulus":"[\"img/0874/1016b306-087c-4afc-aa08-fa527b28dc76.jpg\",\"img/0881/b549bc99-a61c-4450-bab5-9efc3a197bf0.jpg\"]","trial_type":"similarity","trial_index":38,"time_elapsed":197841,"internal_node_id":"0.0-6.0-32.0"},{"sim_score":4,"rt":2948,"stimulus":"[\"img/0881/566f45f8-5fed-4479-a60f-26377e60a62d.jpg\",\"img/0899/a05bea16-2bb4-4cb9-b8fb-4ff975db6971.jpg\"]","trial_type":"similarity","trial_index":39,"time_elapsed":201864,"internal_node_id":"0.0-6.0-33.0"},{"sim_score":6,"rt":5344,"stimulus":"[\"img/0866/0207e9a2-7dbb-40b5-9459-b472aaeceb2a.jpg\",\"img/0862/7918ca67-5bd3-4606-a5ea-c39fb11a9297.jpg\"]","trial_type":"similarity","trial_index":40,"time_elapsed":208296,"internal_node_id":"0.0-6.0-34.0"},{"sim_score":4,"rt":2699,"stimulus":"[\"img/0868/5fa7f9d0-f0e5-454c-8224-74d964818f56.jpg\",\"img/0894/767a0eec-1064-46b1-b1aa-dfa02b0cd74e.jpg\"]","trial_type":"similarity","trial_index":41,"time_elapsed":212040,"internal_node_id":"0.0-6.0-35.0"},{"sim_score":7,"rt":4583,"stimulus":"[\"img/0860/c47fdead-eb02-4989-b078-26f4852f44fe.jpg\",\"img/0860/87039971-2210-4aab-93c0-8e9b5f1655b2.jpg\"]","trial_type":"similarity","trial_index":42,"time_elapsed":217684,"internal_node_id":"0.0-6.0-36.0"},{"sim_score":6,"rt":3457,"stimulus":"[\"img/0862/eefa5588-9efd-4591-aa5f-a2e17c7d7bcc.jpg\",\"img/0864/c22faebd-9c53-47bc-ada3-b9a30c688e75.jpg\"]","trial_type":"similarity","trial_index":43,"time_elapsed":222210,"internal_node_id":"0.0-6.0-37.0"},{"sim_score":4,"rt":1688,"stimulus":"[\"img/0766/1865bfc9-2410-4765-a804-3ae4ba2393d0.jpg\",\"img/0866/a15b02be-11bb-43e3-b0e0-ecc3bd7dfc49.jpg\"]","trial_type":"similarity","trial_index":44,"time_elapsed":224953,"internal_node_id":"0.0-6.0-38.0"},{"sim_score":4,"rt":1671,"stimulus":"[\"img/0875/03c3c331-738b-4446-af92-3d7386b08c2e.jpg\",\"img/0898/26c41340-15bd-4ead-8fe4-c0d0ddca09c2.jpg\"]","trial_type":"similarity","trial_index":45,"time_elapsed":227687,"internal_node_id":"0.0-6.0-39.0"},{"sim_score":6,"rt":5197,"stimulus":"[\"img/0766/d5d38751-8fa5-476f-93e9-86ed2d9045ef.jpg\",\"img/0769/662ab839-88d1-4ebf-af05-9b2980cad943.jpg\"]","trial_type":"similarity","trial_index":46,"time_elapsed":233938,"internal_node_id":"0.0-6.0-40.0"},{"sim_score":4,"rt":1880,"stimulus":"[\"img/0874/a82926a3-0b43-4add-803c-d5f9ea7798ee.jpg\",\"img/0764/e42c1dc9-7831-4995-be19-7ca7b4d141fc.jpg\"]","trial_type":"similarity","trial_index":47,"time_elapsed":3446060,"internal_node_id":"0.0-6.0-41.0"},{"sim_score":3,"rt":4750,"stimulus":"[\"img/0868/6a28c3b0-3d76-498a-9fb7-ddafc665eca8.jpg\",\"img/0902/04a6ad4a-afc6-4871-8225-56b299af7b6b.jpg\"]","trial_type":"similarity","trial_index":48,"time_elapsed":3452278,"internal_node_id":"0.0-6.0-42.0"},{"sim_score":3,"rt":3724,"stimulus":"[\"img/0875/fb732ab5-013a-4366-9f65-27811ed157e9.jpg\",\"img/0899/66ab3178-c3fe-4455-ad17-d5952b08e018.jpg\"]","trial_type":"similarity","trial_index":49,"time_elapsed":3457124,"internal_node_id":"0.0-6.0-43.0"},{"sim_score":5,"rt":5045,"stimulus":"[\"img/0866/386235d2-6857-41e7-88a8-25cfc3430025.jpg\",\"img/0860/8a92e21b-6a32-4e4a-a445-2d5a487ed0a4.jpg\"]","trial_type":"similarity","trial_index":50,"time_elapsed":3463444,"internal_node_id":"0.0-6.0-44.0"},{"sim_score":6,"rt":5143,"stimulus":"[\"img/0766/717fd72f-a281-499b-a5ba-5e2ecc4d4866.jpg\",\"img/0903/776b74ee-a8ab-4ab8-a78d-097c0747538d.jpg\"]","trial_type":"similarity","trial_index":51,"time_elapsed":3469812,"internal_node_id":"0.0-6.0-45.0"},{"sim_score":5,"rt":5627,"stimulus":"[\"img/0901/a6c90438-fa7c-4418-ac7c-16c2e772dd98.jpg\",\"img/0904/65e2b70a-b184-4da3-b5c0-5038bdf9469a.jpg\"]","trial_type":"similarity","trial_index":52,"time_elapsed":3476542,"internal_node_id":"0.0-6.0-46.0"},{"sim_score":2,"rt":5333,"stimulus":"[\"img/0758/3ddd05d3-557e-4ee7-8b78-9d2d681d8ae2.jpg\",\"img/0902/7499db23-3a41-41ea-ab5b-6ab4d4c3ed35.jpg\"]","trial_type":"similarity","trial_index":53,"time_elapsed":3482987,"internal_node_id":"0.0-6.0-47.0"},{"sim_score":7,"rt":4052,"stimulus":"[\"img/0764/4eff630a-6426-4f8d-b2ba-b4d9842a0962.jpg\",\"img/0764/d7c215ab-ea9a-45be-8d5f-417d5b9a8a17.jpg\"]","trial_type":"similarity","trial_index":54,"time_elapsed":3488163,"internal_node_id":"0.0-6.0-48.0"},{"sim_score":2,"rt":3703,"stimulus":"[\"img/0866/f756f7d1-9ad8-4a34-9ef6-7a443d705bfe.jpg\",\"img/0902/12452bb1-b8c0-4e4d-ad4d-47e279e5933c.jpg\"]","trial_type":"similarity","trial_index":55,"time_elapsed":3492989,"internal_node_id":"0.0-6.0-49.0"},{"sim_score":2,"rt":3336,"stimulus":"[\"img/0764/ca9829fe-aaf8-45b8-b98a-6bae751c63dd.jpg\",\"img/0758/61d64021-9214-4951-bdf8-f871f9827cf9.jpg\"]","trial_type":"similarity","trial_index":56,"time_elapsed":3497645,"internal_node_id":"0.0-6.0-50.0"},{"sim_score":5,"rt":3841,"stimulus":"[\"img/0898/79233891-305a-4a6a-8ddf-5c8604858203.jpg\",\"img/0894/6aa5545f-fa7d-4286-bbaa-aaf34dc7ec96.jpg\"]","trial_type":"similarity","trial_index":57,"time_elapsed":3502644,"internal_node_id":"0.0-6.0-51.0"},{"sim_score":5,"rt":5134,"stimulus":"[\"img/0875/5a716432-c6ca-4b1c-955a-2b8ac25198ee.jpg\",\"img/0866/11a1d141-be5e-443c-98c1-a9d4d9e3dec0.jpg\"]","trial_type":"similarity","trial_index":58,"time_elapsed":3508956,"internal_node_id":"0.0-6.0-52.0"},{"sim_score":6,"rt":5334,"stimulus":"[\"img/0904/ba8e689e-9ca6-4608-a2a1-3b0940666ae6.jpg\",\"img/0904/96e503ea-6630-4996-85f2-0237688ce441.jpg\"]","trial_type":"similarity","trial_index":59,"time_elapsed":3515387,"internal_node_id":"0.0-6.0-53.0"},{"sim_score":7,"rt":3574,"stimulus":"[\"img/0769/f229321f-04dd-42d7-b14a-ffad6b509862.jpg\",\"img/0769/c34b7763-8ff2-46d5-9e92-f1d8f3bedbd8.jpg\"]","trial_type":"similarity","trial_index":60,"time_elapsed":3520138,"internal_node_id":"0.0-6.0-54.0"},{"sim_score":1,"rt":3794,"stimulus":"[\"img/0898/01bfe666-3510-4fc7-964f-d00d28732dc8.jpg\",\"img/0758/6cd8c362-ae2a-41eb-80a3-3a4f7ace1530.jpg\"]","trial_type":"similarity","trial_index":61,"time_elapsed":3525019,"internal_node_id":"0.0-6.0-55.0"},{"sim_score":6,"rt":3871,"stimulus":"[\"img/0769/a3cfbdeb-acb3-4eac-87fb-4b117f42d4f8.jpg\",\"img/0902/31abfa33-7cdb-44ad-968e-9f7b324d577a.jpg\"]","trial_type":"similarity","trial_index":62,"time_elapsed":3530001,"internal_node_id":"0.0-6.0-56.0"},{"sim_score":5,"rt":5880,"stimulus":"[\"img/0864/3d4de670-b290-4285-9c3d-12a0e3af44e9.jpg\",\"img/0881/f037e3b0-09cb-4a83-b2d9-6a71fe474e63.jpg\"]","trial_type":"similarity","trial_index":63,"time_elapsed":3536971,"internal_node_id":"0.0-6.0-57.0"},{"sim_score":4,"rt":2897,"stimulus":"[\"img/0758/eabcd7a8-56ad-4fd2-bc24-90f6b7b33265.jpg\",\"img/0868/7b212364-ff5f-4e28-9241-7eb6ea00161b.jpg\"]","trial_type":"similarity","trial_index":64,"time_elapsed":3540979,"internal_node_id":"0.0-6.0-58.0"},{"sim_score":2,"rt":2998,"stimulus":"[\"img/0862/fb26cb07-d5a9-4653-813c-f41609f26cd5.jpg\",\"img/0769/48a1144d-fbda-4809-991b-fc8424a32ee4.jpg\"]","trial_type":"similarity","trial_index":65,"time_elapsed":3545107,"internal_node_id":"0.0-6.0-59.0"},{"sim_score":5,"rt":3226,"stimulus":"[\"img/0764/bc3865c9-9004-4582-88a7-048478673f97.jpg\",\"img/0903/6b5dcc60-3ad3-4962-93e5-e6cf768477af.jpg\"]","trial_type":"similarity","trial_index":66,"time_elapsed":3549420,"internal_node_id":"0.0-6.0-60.0"},{"sim_score":7,"rt":3911,"stimulus":"[\"img/0899/d60714ae-98d7-4564-8c98-94dba1351135.jpg\",\"img/0899/7f9d45d0-b2c6-40d3-aa41-c207db2c411b.jpg\"]","trial_type":"similarity","trial_index":67,"time_elapsed":3554460,"internal_node_id":"0.0-6.0-61.0"},{"sim_score":4,"rt":2765,"stimulus":"[\"img/0860/c5ccd1a4-4bb7-48e1-9b25-72cfaf06909b.jpg\",\"img/0875/5a1e5100-0d94-4fec-bbe9-ca9894d2cf8e.jpg\"]","trial_type":"similarity","trial_index":68,"time_elapsed":3558323,"internal_node_id":"0.0-6.0-62.0"},{"sim_score":5,"rt":2889,"stimulus":"[\"img/0868/e0aff734-077f-40dd-9781-74821abd3621.jpg\",\"img/0874/ca76a855-4e77-4f2f-872a-0a718153e7ed.jpg\"]","trial_type":"similarity","trial_index":69,"time_elapsed":3562331,"internal_node_id":"0.0-6.0-63.0"},{"sim_score":5,"rt":4013,"stimulus":"[\"img/0758/9fb5b2fe-3f00-4fe6-973c-1ce10d5f4cd5.jpg\",\"img/0862/ad593cc7-cabe-4bb7-8e14-8a447a0717b4.jpg\"]","trial_type":"similarity","trial_index":70,"time_elapsed":3567483,"internal_node_id":"0.0-6.0-64.0"},{"sim_score":4,"rt":3254,"stimulus":"[\"img/0904/0d17b811-063e-416e-a23c-3b3cfa4fcce5.jpg\",\"img/0898/e167334e-cc1d-4986-b3b1-c7bc7da64baa.jpg\"]","trial_type":"similarity","trial_index":71,"time_elapsed":3571979,"internal_node_id":"0.0-6.0-65.0"},{"sim_score":6,"rt":3422,"stimulus":"[\"img/0881/c24f3051-eefa-42de-aba6-fccb56d93c70.jpg\",\"img/0866/a04d37f0-99dd-478a-b6c6-58b215138f84.jpg\"]","trial_type":"similarity","trial_index":72,"time_elapsed":3576507,"internal_node_id":"0.0-6.0-66.0"},{"sim_score":3,"rt":2782,"stimulus":"[\"img/0867/85a96c62-548f-4994-9553-819e03c3135a.jpg\",\"img/0898/661621d4-a14e-487c-8c74-354134a29710.jpg\"]","trial_type":"similarity","trial_index":73,"time_elapsed":3580475,"internal_node_id":"0.0-6.0-67.0"},{"sim_score":5,"rt":3849,"stimulus":"[\"img/0902/51493fab-2a10-4385-aa88-bee3db441626.jpg\",\"img/0764/ec2dd087-c471-4370-b570-95a542506a96.jpg\"]","trial_type":"similarity","trial_index":74,"time_elapsed":3585771,"internal_node_id":"0.0-6.0-68.0"},{"sim_score":5,"rt":4321,"stimulus":"[\"img/0875/a4935837-7d3c-4df6-88c1-36a94d4991ca.jpg\",\"img/0867/f8488a47-94ee-4166-952c-44e16cf172f6.jpg\"]","trial_type":"similarity","trial_index":75,"time_elapsed":3591331,"internal_node_id":"0.0-6.0-69.0"},{"sim_score":6,"rt":4536,"stimulus":"[\"img/0766/989c5c7f-1aff-4442-ac63-9d46acf4a891.jpg\",\"img/0764/952d7adc-dc40-4aee-acce-18c2a1d02ea1.jpg\"]","trial_type":"similarity","trial_index":76,"time_elapsed":3597147,"internal_node_id":"0.0-6.0-70.0"},{"sim_score":2,"rt":4986,"stimulus":"[\"img/0894/bd34223a-2f66-4e16-9d18-193a746b69ff.jpg\",\"img/0867/bf560d4f-dee3-4f11-a385-705cc1aa5f3c.jpg\"]","trial_type":"similarity","trial_index":77,"time_elapsed":3603256,"internal_node_id":"0.0-6.0-71.0"},{"sim_score":1,"rt":3648,"stimulus":"[\"img/0875/ebf7653f-ff45-4e9f-af58-2c042ab3cd2b.jpg\",\"img/0764/e48e6c6f-9e28-420f-836a-8043b2319bb4.jpg\"]","trial_type":"similarity","trial_index":78,"time_elapsed":3608030,"internal_node_id":"0.0-6.0-72.0"},{"sim_score":6,"rt":3812,"stimulus":"[\"img/0867/ac1797e4-8afc-48fe-b252-86d1defb1cca.jpg\",\"img/0866/620cd1aa-0800-4414-8f6e-90342e7a99ad.jpg\"]","trial_type":"similarity","trial_index":79,"time_elapsed":3612965,"internal_node_id":"0.0-6.0-73.0"},{"sim_score":2,"rt":3590,"stimulus":"[\"img/0903/aa842abe-6fa3-448a-bf71-88d3ad28663b.jpg\",\"img/0758/dd559618-7f09-4a07-8018-d311c4a5ea29.jpg\"]","trial_type":"similarity","trial_index":80,"time_elapsed":3617650,"internal_node_id":"0.0-6.0-74.0"},{"sim_score":1,"rt":3442,"stimulus":"[\"img/0766/c23b5a20-e50f-4d85-841f-cf89212a4348.jpg\",\"img/0868/1a62b2b2-18f5-466e-b564-5176a57c565e.jpg\"]","trial_type":"similarity","trial_index":81,"time_elapsed":3622202,"internal_node_id":"0.0-6.0-75.0"},{"sim_score":1,"rt":3160,"stimulus":"[\"img/0874/ca23d307-fc00-4d7d-9106-584c6eb21b4d.jpg\",\"img/0766/0bf3793e-c353-45e5-ac6f-753f5f484e10.jpg\"]","trial_type":"similarity","trial_index":82,"time_elapsed":3626479,"internal_node_id":"0.0-6.0-76.0"},{"sim_score":6,"rt":3765,"stimulus":"[\"img/0881/7e31e5dc-2240-4b1b-b5a0-3acd980099ef.jpg\",\"img/0868/d6d1f30d-4323-435a-b194-7892521bc57e.jpg\"]","trial_type":"similarity","trial_index":83,"time_elapsed":3631387,"internal_node_id":"0.0-6.0-77.0"},{"sim_score":1,"rt":3057,"stimulus":"[\"img/0758/7ffbc76b-1fc1-432c-8f7e-9ec8d1b3f643.jpg\",\"img/0901/12da1841-e611-435c-9719-109413d536a8.jpg\"]","trial_type":"similarity","trial_index":84,"time_elapsed":3635812,"internal_node_id":"0.0-6.0-78.0"},{"sim_score":4,"rt":5860,"stimulus":"[\"img/0881/609a5e93-38b5-4940-8627-2bf8fad7f802.jpg\",\"img/0898/c3cecf20-f7fd-45fa-97d0-dc0a63e8d6c0.jpg\"]","trial_type":"similarity","trial_index":85,"time_elapsed":3642799,"internal_node_id":"0.0-6.0-79.0"},{"sim_score":5,"rt":4921,"stimulus":"[\"img/0867/cc72ed48-7704-422c-86d6-467a1145287a.jpg\",\"img/0758/d41c06bf-ebaf-454b-91c6-1a17f917b659.jpg\"]","trial_type":"similarity","trial_index":86,"time_elapsed":3648819,"internal_node_id":"0.0-6.0-80.0"},{"sim_score":5,"rt":5843,"stimulus":"[\"img/0769/ebef2ddc-ba59-4e0e-97f8-927864eb5081.jpg\",\"img/0899/66bf4113-ee12-426c-84d2-ea410b6c803e.jpg\"]","trial_type":"similarity","trial_index":87,"time_elapsed":3655757,"internal_node_id":"0.0-6.0-81.0"},{"sim_score":6,"rt":4495,"stimulus":"[\"img/0903/8fcafe03-43df-4c45-9da5-0df3a1eeccc5.jpg\",\"img/0903/31b5a5f4-b695-4af1-bad2-a19650a05498.jpg\"]","trial_type":"similarity","trial_index":88,"time_elapsed":3661356,"internal_node_id":"0.0-6.0-82.0"},{"sim_score":1,"rt":3642,"stimulus":"[\"img/0867/c66898ba-b71b-4d50-84f9-f7f84853a98d.jpg\",\"img/0766/f5f78e4e-d88f-4866-951a-118ba9fec4d0.jpg\"]","trial_type":"similarity","trial_index":89,"time_elapsed":3982829,"internal_node_id":"0.0-6.0-83.0"},{"sim_score":2,"rt":4274,"stimulus":"[\"img/0902/c018bd7a-d91a-4192-aea4-7259cfcdb6c4.jpg\",\"img/0867/179ab87a-8eac-4c52-a41f-2e48e3120f09.jpg\"]","trial_type":"similarity","trial_index":90,"time_elapsed":3988300,"internal_node_id":"0.0-6.0-84.0"},{"sim_score":2,"rt":6564,"stimulus":"[\"img/0901/d61f267a-c492-4db6-9bfb-61efd49cf072.jpg\",\"img/0875/8521fd58-3b1e-4dc5-97ae-804edfa6734a.jpg\"]","trial_type":"similarity","trial_index":91,"time_elapsed":3996023,"internal_node_id":"0.0-6.0-85.0"},{"sim_score":1,"rt":3104,"stimulus":"[\"img/0764/958b8576-3a3b-4acc-96dc-06b74de69f37.jpg\",\"img/0866/9b38d691-1802-4959-ab3f-fc902f0e4ea6.jpg\"]","trial_type":"similarity","trial_index":92,"time_elapsed":4000257,"internal_node_id":"0.0-6.0-86.0"},{"sim_score":5,"rt":4151,"stimulus":"[\"img/0901/875dedb9-24c9-4443-9f8c-85e97d70ee5a.jpg\",\"img/0894/1b3888e6-cf36-4c4a-a039-187aa5cb71ac.jpg\"]","trial_type":"similarity","trial_index":93,"time_elapsed":4005486,"internal_node_id":"0.0-6.0-87.0"},{"sim_score":5,"rt":5018,"stimulus":"[\"img/0898/40f99fb2-64d2-4e72-8a7f-a1cf60741e69.jpg\",\"img/0769/04347740-f8f6-48bb-887a-f68babd0a0d4.jpg\"]","trial_type":"similarity","trial_index":94,"time_elapsed":4011672,"internal_node_id":"0.0-6.0-88.0"},{"sim_score":6,"rt":3685,"stimulus":"[\"img/0769/e31b3bd8-efcb-413e-aa8c-75fac2b8f2ac.jpg\",\"img/0894/133a1636-d123-4893-873c-1718050f832a.jpg\"]","trial_type":"similarity","trial_index":95,"time_elapsed":4016509,"internal_node_id":"0.0-6.0-89.0"},{"sim_score":5,"rt":4416,"stimulus":"[\"img/0862/de9ad88c-b522-430a-8ee9-eb06a9f85df5.jpg\",\"img/0874/7e4f2150-3b59-4a36-b5da-a4e0ba410531.jpg\"]","trial_type":"similarity","trial_index":96,"time_elapsed":4022076,"internal_node_id":"0.0-6.0-90.0"},{"sim_score":6,"rt":5216,"stimulus":"[\"img/0894/11674fa4-285d-44e2-939f-2228c6a64080.jpg\",\"img/0766/d8221e53-2300-4d99-ae1b-0bfb0eabe579.jpg\"]","trial_type":"similarity","trial_index":97,"time_elapsed":4028541,"internal_node_id":"0.0-6.0-91.0"},{"sim_score":3,"rt":5614,"stimulus":"[\"img/0874/767f289c-9814-4496-803f-745cc8913d1f.jpg\",\"img/0867/c71dc569-f49c-4397-8381-68b8d726736d.jpg\"]","trial_type":"similarity","trial_index":98,"time_elapsed":4035244,"internal_node_id":"0.0-6.0-92.0"},{"sim_score":3,"rt":5233,"stimulus":"[\"img/0899/8abe6c69-822c-436c-9bf2-96c818b49ba5.jpg\",\"img/0868/fd307a36-9a3a-47d7-ab7c-f810d0b35040.jpg\"]","trial_type":"similarity","trial_index":99,"time_elapsed":4041619,"internal_node_id":"0.0-6.0-93.0"},{"sim_score":2,"rt":4602,"stimulus":"[\"img/0903/4cbdc464-e562-4ec2-9bb6-15f894fdf528.jpg\",\"img/0862/92f0146c-20c4-482e-aef5-adb693790338.jpg\"]","trial_type":"similarity","trial_index":100,"time_elapsed":4047333,"internal_node_id":"0.0-6.0-94.0"},{"sim_score":5,"rt":5769,"stimulus":"[\"img/0899/0e1d936a-dbe2-4afc-9f19-7b7a1ae6c9ed.jpg\",\"img/0766/ea09dd5a-d24d-4e97-a099-7da3db1baef1.jpg\"]","trial_type":"similarity","trial_index":101,"time_elapsed":4054268,"internal_node_id":"0.0-6.0-95.0"},{"sim_score":7,"rt":5082,"stimulus":"[\"img/0867/a498eef3-9fa4-4ab2-9778-4ae82ac40dc5.jpg\",\"img/0868/4bd5105a-d2c3-4f82-8c80-57196106ba53.jpg\"]","trial_type":"similarity","trial_index":102,"time_elapsed":4060456,"internal_node_id":"0.0-6.0-96.0"},{"sim_score":1,"rt":4144,"stimulus":"[\"img/0862/f188d4f0-76a4-4102-818c-a209969d73a5.jpg\",\"img/0901/58978a6d-a3e2-4c59-8d62-f60693ecc0f6.jpg\"]","trial_type":"similarity","trial_index":103,"time_elapsed":4065707,"internal_node_id":"0.0-6.0-97.0"},{"sim_score":1,"rt":3303,"stimulus":"[\"img/0875/e7e66b13-b573-431e-b85e-288ce04a35a3.jpg\",\"img/0766/1bc0dccc-a5b5-4375-87fa-28360ca42b12.jpg\"]","trial_type":"similarity","trial_index":104,"time_elapsed":4070128,"internal_node_id":"0.0-6.0-98.0"},{"sim_score":6,"rt":3151,"stimulus":"[\"img/0758/ddc336e9-a8b6-4bb9-937a-c7e25e0e9250.jpg\",\"img/0874/2c9464dd-8a23-4baa-ac94-1ba3af5c15cc.jpg\"]","trial_type":"similarity","trial_index":105,"time_elapsed":4074379,"internal_node_id":"0.0-6.0-99.0"},{"sim_score":2,"rt":5093,"stimulus":"[\"img/0904/60d1a521-edf7-4696-9263-f21ac0e62a01.jpg\",\"img/0868/d98ca254-b195-477f-b57e-5760a2717db8.jpg\"]","trial_type":"similarity","trial_index":106,"time_elapsed":4080576,"internal_node_id":"0.0-6.0-100.0"},{"sim_score":2,"rt":5229,"stimulus":"[\"img/0903/14f179a2-8786-48a2-8377-88d1d404341b.jpg\",\"img/0866/945c6710-d15b-4a5b-a8f6-69af0850357f.jpg\"]","trial_type":"similarity","trial_index":107,"time_elapsed":4086985,"internal_node_id":"0.0-6.0-101.0"},{"sim_score":2,"rt":3848,"stimulus":"[\"img/0868/4a8a45ed-2c4f-421b-9564-409a33ecd26c.jpg\",\"img/0769/da36e3f7-2337-434f-ab57-11822dd7eed7.jpg\"]","trial_type":"similarity","trial_index":108,"time_elapsed":4091920,"internal_node_id":"0.0-6.0-102.0"},{"sim_score":6,"rt":3901,"stimulus":"[\"img/0902/1a120fb9-dbd6-443e-ba91-b4aceab963da.jpg\",\"img/0899/4f7bc593-8ddd-4da3-a0b9-84da730d3370.jpg\"]","trial_type":"similarity","trial_index":109,"time_elapsed":4096931,"internal_node_id":"0.0-6.0-103.0"},{"sim_score":5,"rt":5565,"stimulus":"[\"img/0868/83b4350a-3b70-4cea-b7f5-b5b56f3050a8.jpg\",\"img/0862/e8cc3bdf-cc43-4565-bccf-492626c70953.jpg\"]","trial_type":"similarity","trial_index":110,"time_elapsed":4103708,"internal_node_id":"0.0-6.0-104.0"},{"sim_score":5,"rt":3634,"stimulus":"[\"img/0903/b7e3723f-fd03-4f3d-8820-f19496463a34.jpg\",\"img/0894/792c83e9-a747-4000-bc72-5663d2439edb.jpg\"]","trial_type":"similarity","trial_index":111,"time_elapsed":4108467,"internal_node_id":"0.0-6.0-105.0"},{"sim_score":5,"rt":4631,"stimulus":"[\"img/0864/e336a4c5-6648-4fd7-b2f6-93a3fb83f8c6.jpg\",\"img/0874/3f471690-9788-4d03-90c7-f615aecef149.jpg\"]","trial_type":"similarity","trial_index":112,"time_elapsed":4114179,"internal_node_id":"0.0-6.0-106.0"},{"sim_score":2,"rt":4021,"stimulus":"[\"img/0862/5d887e9f-89e2-4ebc-80a0-6d46fe6480db.jpg\",\"img/0902/cdec1bc6-7f90-4f72-9e01-f5a4111bac1d.jpg\"]","trial_type":"similarity","trial_index":113,"time_elapsed":4119307,"internal_node_id":"0.0-6.0-107.0"},{"sim_score":3,"rt":4848,"stimulus":"[\"img/0904/a8c3c7d2-9bcf-4347-9e03-8203adfc1fc5.jpg\",\"img/0903/5995f4a8-fa82-46f8-8760-fd7800a5ca34.jpg\"]","trial_type":"similarity","trial_index":114,"time_elapsed":4125243,"internal_node_id":"0.0-6.0-108.0"},{"sim_score":1,"rt":4254,"stimulus":"[\"img/0764/4952d0a0-c9be-471a-8ec7-94a37bf4051d.jpg\",\"img/0864/65210d57-1153-4657-886a-32e758f49b4a.jpg\"]","trial_type":"similarity","trial_index":115,"time_elapsed":4130637,"internal_node_id":"0.0-6.0-109.0"},{"sim_score":1,"rt":3614,"stimulus":"[\"img/0866/d493a2c8-66eb-44b4-be02-2f327b700b7c.jpg\",\"img/0894/5f15154e-e72e-4ce5-aafb-bce6f0564006.jpg\"]","trial_type":"similarity","trial_index":116,"time_elapsed":4135345,"internal_node_id":"0.0-6.0-110.0"},{"sim_score":5,"rt":3781,"stimulus":"[\"img/0899/fef567a2-c121-4481-9af0-ff108d199bbf.jpg\",\"img/0903/2c7b4aed-6038-4aac-958a-e3e58341c313.jpg\"]","trial_type":"similarity","trial_index":117,"time_elapsed":4140270,"internal_node_id":"0.0-6.0-111.0"},{"sim_score":6,"rt":4534,"stimulus":"[\"img/0902/2db723b6-130f-454c-8c8d-88829edbcd65.jpg\",\"img/0904/09934646-45d2-4147-8fec-64a22a5ac822.jpg\"]","trial_type":"similarity","trial_index":118,"time_elapsed":4145932,"internal_node_id":"0.0-6.0-112.0"},{"sim_score":5,"rt":4886,"stimulus":"[\"img/0864/ea327690-500b-4137-bf91-451b309fe6a5.jpg\",\"img/0860/4a022222-056d-461c-ab02-39fac9647552.jpg\"]","trial_type":"similarity","trial_index":119,"time_elapsed":4151903,"internal_node_id":"0.0-6.0-113.0"},{"sim_score":2,"rt":3226,"stimulus":"[\"img/0860/702bd09d-df3a-40aa-a267-5f04474305b5.jpg\",\"img/0899/0433d056-aa30-4f8a-9aa1-abbb951e4edd.jpg\"]","trial_type":"similarity","trial_index":120,"time_elapsed":4156228,"internal_node_id":"0.0-6.0-114.0"},{"sim_score":3,"rt":5459,"stimulus":"[\"img/0881/ed4c971f-0873-4fc8-b6d6-e8bbd82f0bcc.jpg\",\"img/0903/f1fa0f8d-e62b-4b4a-a174-31a0fabfe61b.jpg\"]","trial_type":"similarity","trial_index":121,"time_elapsed":4162996,"internal_node_id":"0.0-6.0-115.0"},{"sim_score":2,"rt":4524,"stimulus":"[\"img/0894/b422d5c6-3c5a-49ae-a53e-7e88ac993f49.jpg\",\"img/0874/c0378dac-9370-439a-8b79-db27c96fb390.jpg\"]","trial_type":"similarity","trial_index":122,"time_elapsed":4168637,"internal_node_id":"0.0-6.0-116.0"},{"sim_score":5,"rt":4503,"stimulus":"[\"img/0881/633c6f40-56d9-4b48-bf1c-ecd83116eabb.jpg\",\"img/0862/d0ca4c78-fc35-46ed-bdcc-8e124283c53e.jpg\"]","trial_type":"similarity","trial_index":123,"time_elapsed":4174340,"internal_node_id":"0.0-6.0-117.0"},{"sim_score":6,"rt":2726,"stimulus":"[\"img/0868/0d3abd3a-b6c3-4584-a9f7-e2da63748b3d.jpg\",\"img/0875/2e13d160-eea1-416b-aff1-d37ab99ecc1d.jpg\"]","trial_type":"similarity","trial_index":124,"time_elapsed":4178195,"internal_node_id":"0.0-6.0-118.0"},{"sim_score":5,"rt":3673,"stimulus":"[\"img/0860/f44ba3fb-03a2-42f0-8509-2c1ded493086.jpg\",\"img/0758/f61ecdf8-a7d4-4db0-b84d-be46f7cfaffc.jpg\"]","trial_type":"similarity","trial_index":125,"time_elapsed":4182956,"internal_node_id":"0.0-6.0-119.0"},{"sim_score":5,"rt":3775,"stimulus":"[\"img/0864/ef9cbca0-4be8-435d-ad49-977259e80409.jpg\",\"img/0875/cff79b3a-a797-4393-9757-6275f999ec04.jpg\"]","trial_type":"similarity","trial_index":126,"time_elapsed":4187880,"internal_node_id":"0.0-6.0-120.0"},{"sim_score":2,"rt":3541,"stimulus":"[\"img/0898/f3a3f225-1248-4ac7-b93b-f0ff28485bf3.jpg\",\"img/0866/93a27239-8317-4e08-98ca-d8b1ff298e07.jpg\"]","trial_type":"similarity","trial_index":127,"time_elapsed":4192532,"internal_node_id":"0.0-6.0-121.0"},{"sim_score":2,"rt":3996,"stimulus":"[\"img/0874/eba003b4-cdab-4eee-8bc3-f064c7d94165.jpg\",\"img/0904/56e73f28-7e64-489b-a161-e6b1a063878d.jpg\"]","trial_type":"similarity","trial_index":128,"time_elapsed":4197684,"internal_node_id":"0.0-6.0-122.0"},{"sim_score":3,"rt":2453,"stimulus":"[\"img/0904/b5855d6a-7ef9-46ca-9215-6e9fa046e543.jpg\",\"img/0864/0f537697-a314-47c3-a8cc-8df23b7e536c.jpg\"]","trial_type":"similarity","trial_index":129,"time_elapsed":4201228,"internal_node_id":"0.0-6.0-123.0"},{"sim_score":5,"rt":3793,"stimulus":"[\"img/0894/38f5931f-926d-414e-b498-66b188978b7a.jpg\",\"img/0902/b03fee99-d5ca-4bf8-871c-a4a743a39842.jpg\"]","trial_type":"similarity","trial_index":130,"time_elapsed":4206166,"internal_node_id":"0.0-6.0-124.0"},{"sim_score":5,"rt":3763,"stimulus":"[\"img/0868/179a5502-ab5c-478e-8263-5a1fbcc101d2.jpg\",\"img/0864/87c467d3-abca-482f-ad80-3766c21b1bb3.jpg\"]","trial_type":"similarity","trial_index":131,"time_elapsed":4671371,"internal_node_id":"0.0-6.0-125.0"},{"sim_score":1,"rt":4817,"stimulus":"[\"img/0899/b45c550b-96c3-4255-ad59-48a2b4db1c1e.jpg\",\"img/0866/bf14b5bd-fb55-47db-86b9-4f8aeb9a6dad.jpg\"]","trial_type":"similarity","trial_index":132,"time_elapsed":4677374,"internal_node_id":"0.0-6.0-126.0"},{"sim_score":3,"rt":4687,"stimulus":"[\"img/0875/d59ff733-eaff-4ee2-9443-06954dd0bcb6.jpg\",\"img/0904/5aec2708-cf14-4a58-aa30-9a8a61c1be0e.jpg\"]","trial_type":"similarity","trial_index":133,"time_elapsed":4683545,"internal_node_id":"0.0-6.0-127.0"},{"sim_score":1,"rt":4229,"stimulus":"[\"img/0867/26611f4e-d694-4460-b7e2-43c62753ddc3.jpg\",\"img/0899/57476fed-5962-4272-8fc9-b317bb777b54.jpg\"]","trial_type":"similarity","trial_index":134,"time_elapsed":4688881,"internal_node_id":"0.0-6.0-128.0"},{"sim_score":3,"rt":3914,"stimulus":"[\"img/0901/ae1e6ce4-2e10-4ca9-b1e7-21628637ab74.jpg\",\"img/0867/a749dddb-69f0-44a6-acdc-2bf295cf6dcc.jpg\"]","trial_type":"similarity","trial_index":135,"time_elapsed":4693926,"internal_node_id":"0.0-6.0-129.0"},{"sim_score":3,"rt":4545,"stimulus":"[\"img/0864/6e846d43-94a6-4b37-a268-65eda979f052.jpg\",\"img/0769/c7cfacc3-7f07-46ff-9f5d-8073f4c4679b.jpg\"]","trial_type":"similarity","trial_index":136,"time_elapsed":4699566,"internal_node_id":"0.0-6.0-130.0"},{"sim_score":3,"rt":3056,"stimulus":"[\"img/0903/72197c2b-403e-4a26-b391-f1aa8dea4b76.jpg\",\"img/0868/15dd6fd7-791e-4b53-b203-195d617521a4.jpg\"]","trial_type":"similarity","trial_index":137,"time_elapsed":4703823,"internal_node_id":"0.0-6.0-131.0"},{"sim_score":6,"rt":4294,"stimulus":"[\"img/0864/efcfbb1b-8197-44c9-b723-40d6c608dd3c.jpg\",\"img/0867/8ba0c5a7-c7e4-42cf-a80a-543763b90779.jpg\"]","trial_type":"similarity","trial_index":138,"time_elapsed":4709262,"internal_node_id":"0.0-6.0-132.0"},{"sim_score":1,"rt":3887,"stimulus":"[\"img/0901/4f9cffe0-c0be-4d7f-bacd-9d51efd19b4a.jpg\",\"img/0860/18dfed73-e36b-4487-a8bd-0b8cff8e3668.jpg\"]","trial_type":"similarity","trial_index":139,"time_elapsed":4714284,"internal_node_id":"0.0-6.0-133.0"},{"sim_score":1,"rt":4933,"stimulus":"[\"img/0881/292e9b4b-fca0-4ba8-87f1-4048f9e37b7d.jpg\",\"img/0766/ae0fce93-fe8d-4aa1-87ca-4c3e4b889f2f.jpg\"]","trial_type":"similarity","trial_index":140,"time_elapsed":4720338,"internal_node_id":"0.0-6.0-134.0"},{"sim_score":2,"rt":4320,"stimulus":"[\"img/0903/c708d08f-a108-4e04-8288-c3fcf6375db4.jpg\",\"img/0864/8ddd2e30-a1d0-479f-9cbe-591213023893.jpg\"]","trial_type":"similarity","trial_index":141,"time_elapsed":4725766,"internal_node_id":"0.0-6.0-135.0"},{"sim_score":2,"rt":3175,"stimulus":"[\"img/0758/a709631e-3705-4725-ac40-f0d916924f08.jpg\",\"img/0894/7f2f31fd-6618-41c6-b65a-0fd8b2851bc9.jpg\"]","trial_type":"similarity","trial_index":142,"time_elapsed":4730071,"internal_node_id":"0.0-6.0-136.0"},{"sim_score":2,"rt":4596,"stimulus":"[\"img/0769/458d9c77-b844-40b5-bb1b-1e3bbd4da64e.jpg\",\"img/0860/17b44a7d-c5ca-479f-9e87-f65a64f5c80e.jpg\"]","trial_type":"similarity","trial_index":143,"time_elapsed":4735814,"internal_node_id":"0.0-6.0-137.0"},{"sim_score":6,"rt":5400,"stimulus":"[\"img/0904/4d7d70a3-9477-4921-bda0-f9531d0a5c5b.jpg\",\"img/0766/6d32752d-aa05-40dc-9541-640b6e9d6fa1.jpg\"]","trial_type":"similarity","trial_index":144,"time_elapsed":4742374,"internal_node_id":"0.0-6.0-138.0"},{"sim_score":5,"rt":4168,"stimulus":"[\"img/0868/4e626425-63c8-484a-8a1d-e66ee4e0bef8.jpg\",\"img/0860/5bff793e-cbd5-4d7e-b628-0ac2b0e30b64.jpg\"]","trial_type":"similarity","trial_index":145,"time_elapsed":4747673,"internal_node_id":"0.0-6.0-139.0"},{"sim_score":6,"rt":3493,"stimulus":"[\"img/0758/65d426d6-3ff6-415d-8654-a43b83ecc4fe.jpg\",\"img/0864/a248adb3-c70b-4652-b7a3-776d2a1e904b.jpg\"]","trial_type":"similarity","trial_index":146,"time_elapsed":4752367,"internal_node_id":"0.0-6.0-140.0"},{"sim_score":7,"rt":3949,"stimulus":"[\"img/0867/12264664-1860-46df-8c21-162b9817cdda.jpg\",\"img/0867/1719a35d-f085-48c0-9099-16c94fe418b4.jpg\"]","trial_type":"similarity","trial_index":147,"time_elapsed":4757449,"internal_node_id":"0.0-6.0-141.0"},{"sim_score":6,"rt":4756,"stimulus":"[\"img/0898/4184e5a2-84ea-4f36-9b42-ae58646f6f87.jpg\",\"img/0898/0af304a2-6a7a-4082-ab7c-4450cd08cc58.jpg\"]","trial_type":"similarity","trial_index":148,"time_elapsed":4763423,"internal_node_id":"0.0-6.0-142.0"},{"sim_score":3,"rt":3201,"stimulus":"[\"img/0866/8efcaa46-83ab-4dee-a35f-850402aa21ae.jpg\",\"img/0769/3c1efec9-f8fd-487d-8955-4be88e48c832.jpg\"]","trial_type":"similarity","trial_index":149,"time_elapsed":4767704,"internal_node_id":"0.0-6.0-143.0"},{"sim_score":3,"rt":3024,"stimulus":"[\"img/0860/29a21a9f-54bb-4093-ad3f-04823ceaa89f.jpg\",\"img/0898/08c72dac-f8ad-407a-9ce6-8c9a5d679c3a.jpg\"]","trial_type":"similarity","trial_index":150,"time_elapsed":4771985,"internal_node_id":"0.0-6.0-144.0"},{"sim_score":1,"rt":4415,"stimulus":"[\"img/0766/535849cc-ff5d-4df9-8f31-0ce94a97d571.jpg\",\"img/0864/4bd81bc6-c13d-46df-95a9-485886dc7c1b.jpg\"]","trial_type":"similarity","trial_index":151,"time_elapsed":4777599,"internal_node_id":"0.0-6.0-145.0"},{"sim_score":1,"rt":3496,"stimulus":"[\"img/0860/d9a0d117-6d1d-41c0-8fec-9aff0fd9e9f2.jpg\",\"img/0903/6a87dbad-9b8d-4ff5-9c41-03c9aa24f0c3.jpg\"]","trial_type":"similarity","trial_index":152,"time_elapsed":4782198,"internal_node_id":"0.0-6.0-146.0"},{"sim_score":1,"rt":3128,"stimulus":"[\"img/0867/f26f6b60-f772-4f4c-95a4-addc62cfd692.jpg\",\"img/0764/713cc27e-2338-4486-bfe9-5f5725fbd7a0.jpg\"]","trial_type":"similarity","trial_index":153,"time_elapsed":4786463,"internal_node_id":"0.0-6.0-147.0"},{"sim_score":7,"rt":5118,"stimulus":"[\"img/0769/a1ce8d07-ba37-40de-bade-2778805521e0.jpg\",\"img/0904/2f88ce53-02d0-4f95-a082-182c56a0eeb4.jpg\"]","trial_type":"similarity","trial_index":154,"time_elapsed":4792658,"internal_node_id":"0.0-6.0-148.0"},{"sim_score":5,"rt":3702,"stimulus":"[\"img/0764/cffc80b0-4a90-4acb-a530-6f480f3ca303.jpg\",\"img/0901/a9b9c0a0-8aed-4888-a78a-65fb7e764d13.jpg\"]","trial_type":"similarity","trial_index":155,"time_elapsed":4797615,"internal_node_id":"0.0-6.0-149.0"},{"sim_score":5,"rt":3361,"stimulus":"[\"img/0904/e9423a8c-f946-43ad-ab7b-931acef870e2.jpg\",\"img/0899/76ad07e2-ca25-45eb-84f2-8d80b8ca3e26.jpg\"]","trial_type":"similarity","trial_index":156,"time_elapsed":4802207,"internal_node_id":"0.0-6.0-150.0"},{"sim_score":5,"rt":2718,"stimulus":"[\"img/0862/47ed5efd-4ec9-4b74-bb4e-a5f5cf0c3e7d.jpg\",\"img/0867/db7e032f-162b-46f5-ae67-2b29679adee4.jpg\"]","trial_type":"similarity","trial_index":157,"time_elapsed":4806023,"internal_node_id":"0.0-6.0-151.0"},{"sim_score":7,"rt":2781,"stimulus":"[\"img/0766/2e1cf445-9aef-40e7-92f4-5facf48b64c5.jpg\",\"img/0766/2746b119-4bba-463e-acf0-88136dc6600c.jpg\"]","trial_type":"similarity","trial_index":158,"time_elapsed":4809895,"internal_node_id":"0.0-6.0-152.0"},{"sim_score":3,"rt":3022,"stimulus":"[\"img/0862/847e5208-38ec-4f36-949c-296cdd7424ee.jpg\",\"img/0894/6b2e9509-8699-42b7-9582-7741df0ba2d7.jpg\"]","trial_type":"similarity","trial_index":159,"time_elapsed":4814017,"internal_node_id":"0.0-6.0-153.0"},{"sim_score":5,"rt":3818,"stimulus":"[\"img/0899/0adc0bc3-6fca-4078-be6f-d45ddf1653d5.jpg\",\"img/0901/1ede21d9-384f-4150-86b5-e1c57b5dc1d4.jpg\"]","trial_type":"similarity","trial_index":160,"time_elapsed":4818952,"internal_node_id":"0.0-6.0-154.0"},{"sim_score":6,"rt":3144,"stimulus":"[\"img/0874/a3bc679d-619f-4db6-bb68-116dcb757d9c.jpg\",\"img/0874/bf14b896-e930-4fd9-9c05-2e83317a2773.jpg\"]","trial_type":"similarity","trial_index":161,"time_elapsed":4823216,"internal_node_id":"0.0-6.0-155.0"},{"sim_score":5,"rt":2643,"stimulus":"[\"img/0860/c3379ff7-0763-48fe-a1ec-7ea3d611bc7a.jpg\",\"img/0867/98d8cd96-1476-4fe0-a3a3-04f875500a1b.jpg\"]","trial_type":"similarity","trial_index":162,"time_elapsed":4826959,"internal_node_id":"0.0-6.0-156.0"},{"sim_score":2,"rt":4525,"stimulus":"[\"img/0901/b453df0b-4c39-49bb-8ced-6127efffa898.jpg\",\"img/0881/1407b85b-a1c6-45b1-9884-3b24203efadb.jpg\"]","trial_type":"similarity","trial_index":163,"time_elapsed":4832710,"internal_node_id":"0.0-6.0-157.0"},{"sim_score":6,"rt":4841,"stimulus":"[\"img/0903/97a42b34-5462-4665-88c7-83c014b33d24.jpg\",\"img/0902/962f645e-9b55-4628-9b50-c703422bfe1a.jpg\"]","trial_type":"similarity","trial_index":164,"time_elapsed":4838663,"internal_node_id":"0.0-6.0-158.0"},{"sim_score":1,"rt":2995,"stimulus":"[\"img/0860/9593362c-9fe5-4d12-9735-6000a11f6aa5.jpg\",\"img/0764/e0788029-9d7f-414c-b747-46d2a99f7c86.jpg\"]","trial_type":"similarity","trial_index":165,"time_elapsed":4842796,"internal_node_id":"0.0-6.0-159.0"},{"sim_score":3,"rt":4013,"stimulus":"[\"img/0902/0db94c50-f1fb-4091-953c-29ca0466bee2.jpg\",\"img/0875/2c361b79-c3d1-4eda-812e-bf03192407bf.jpg\"]","trial_type":"similarity","trial_index":166,"time_elapsed":4847951,"internal_node_id":"0.0-6.0-160.0"},{"sim_score":3,"rt":3143,"stimulus":"[\"img/0898/68476bbb-34a1-42d9-8bc1-deab783d4489.jpg\",\"img/0862/064818ee-13d5-4618-bb24-21c7368ea278.jpg\"]","trial_type":"similarity","trial_index":167,"time_elapsed":4852223,"internal_node_id":"0.0-6.0-161.0"},{"sim_score":2,"rt":4507,"stimulus":"[\"img/0894/661b9f9f-4bde-487a-b1ed-87085fde6948.jpg\",\"img/0875/90da8d75-108a-44ad-b999-e21fee3860d3.jpg\"]","trial_type":"similarity","trial_index":168,"time_elapsed":4857855,"internal_node_id":"0.0-6.0-162.0"},{"sim_score":6,"rt":3662,"stimulus":"[\"img/0866/23a224f3-2012-4fc8-8e0f-3c36f8de27fd.jpg\",\"img/0864/e02eddb5-f468-499c-91bf-f7be3ffe979b.jpg\"]","trial_type":"similarity","trial_index":169,"time_elapsed":4862838,"internal_node_id":"0.0-6.0-163.0"},{"sim_score":1,"rt":5216,"stimulus":"[\"img/0766/0b48f9e0-7d37-4161-8adb-4e3f5b6b7583.jpg\",\"img/0862/4f0a3b4c-afbf-486e-b248-1d54982f54b4.jpg\"]","trial_type":"similarity","trial_index":170,"time_elapsed":4869223,"internal_node_id":"0.0-6.0-164.0"},{"sim_score":5,"rt":3038,"stimulus":"[\"img/0866/4a87911a-d5be-4d4e-ab8e-3d1f581bf507.jpg\",\"img/0874/995f0332-0439-4eb4-add3-957335dbf6d9.jpg\"]","trial_type":"similarity","trial_index":171,"time_elapsed":4873383,"internal_node_id":"0.0-6.0-165.0"},{"sim_score":6,"rt":3823,"stimulus":"[\"img/0862/24cdc752-c2e5-4a17-86a6-6f2045d8553b.jpg\",\"img/0860/524b2e98-5767-4d53-942c-ebae6925659b.jpg\"]","trial_type":"similarity","trial_index":172,"time_elapsed":4878567,"internal_node_id":"0.0-6.0-166.0"},{"sim_score":6,"rt":4456,"stimulus":"[\"img/0766/d14acac4-7db1-4b07-8f8f-302437326fc0.jpg\",\"img/0901/b9141736-3041-4385-a586-b1fe911c76a5.jpg\"]","trial_type":"similarity","trial_index":173,"time_elapsed":4892235,"internal_node_id":"0.0-6.0-167.0"},{"sim_score":7,"rt":2959,"stimulus":"[\"img/0862/57b6f83f-c763-4858-830d-102f97bfefbf.jpg\",\"img/0862/e697469a-ec19-4414-b972-7b9f3564785b.jpg\"]","trial_type":"similarity","trial_index":174,"time_elapsed":4896336,"internal_node_id":"0.0-6.0-168.0"},{"sim_score":5,"rt":3573,"stimulus":"[\"img/0894/a98416c0-51e2-4960-85da-d81d8688b9d5.jpg\",\"img/0764/f64dfa83-333d-494c-87b5-73e942f1766e.jpg\"]","trial_type":"similarity","trial_index":175,"time_elapsed":4901200,"internal_node_id":"0.0-6.0-169.0"},{"sim_score":2,"rt":3283,"stimulus":"[\"img/0874/31e22c7c-99aa-40b1-bf03-dd73fa2df4d6.jpg\",\"img/0898/224c1572-56b9-4f16-a9e4-6f3bc9c114bd.jpg\"]","trial_type":"similarity","trial_index":176,"time_elapsed":4905616,"internal_node_id":"0.0-6.0-170.0"},{"sim_score":1,"rt":3660,"stimulus":"[\"img/0860/fd4662f9-4c03-4d79-8593-06735e55a64b.jpg\",\"img/0766/71b81ebd-0937-4d7f-b8bf-c4e46a4728fd.jpg\"]","trial_type":"similarity","trial_index":177,"time_elapsed":4910391,"internal_node_id":"0.0-6.0-171.0"},{"sim_score":3,"rt":3698,"stimulus":"[\"img/0898/ec565187-2e31-4fdd-9a5c-153d0c789ae0.jpg\",\"img/0864/3651d070-2fc5-4848-b6a6-088a2d9ac5c9.jpg\"]","trial_type":"similarity","trial_index":178,"time_elapsed":4915213,"internal_node_id":"0.0-6.0-172.0"},{"sim_score":3,"rt":3566,"stimulus":"[\"img/0881/6b1189e6-232d-4042-8885-16dc7b10e0d4.jpg\",\"img/0764/f713847b-4832-42d1-8fb3-e17e37fd745c.jpg\"]","trial_type":"similarity","trial_index":179,"time_elapsed":4919927,"internal_node_id":"0.0-6.0-173.0"},{"sim_score":2,"rt":3691,"stimulus":"[\"img/0898/8605a25b-6895-476d-8c13-df7a83f96093.jpg\",\"img/0868/c8ac40c7-6904-4e13-8d61-c75d3052dc4e.jpg\"]","trial_type":"similarity","trial_index":180,"time_elapsed":4924750,"internal_node_id":"0.0-6.0-174.0"},{"sim_score":7,"rt":2995,"stimulus":"[\"img/0864/0116ca98-293d-4fa6-a93b-5a6144ef64cc.jpg\",\"img/0864/da39ad34-04e0-40d4-a724-c08d53e0ea09.jpg\"]","trial_type":"similarity","trial_index":181,"time_elapsed":4928919,"internal_node_id":"0.0-6.0-175.0"},{"sim_score":2,"rt":3859,"stimulus":"[\"img/0899/51a7a498-98c7-42d7-bca8-bc2d8f0b5831.jpg\",\"img/0862/00c06b00-3b73-44e9-bc1e-c5aafb438321.jpg\"]","trial_type":"similarity","trial_index":182,"time_elapsed":4933926,"internal_node_id":"0.0-6.0-176.0"},{"sim_score":5,"rt":3455,"stimulus":"[\"img/0875/527ced51-8e53-4aab-ab05-86df219104c0.jpg\",\"img/0758/335851a0-a55b-46d8-ab05-8463eda48349.jpg\"]","trial_type":"similarity","trial_index":183,"time_elapsed":4938512,"internal_node_id":"0.0-6.0-177.0"},{"sim_score":2,"rt":5029,"stimulus":"[\"img/0866/c446214b-a368-4c65-ae39-ea46894256ab.jpg\",\"img/0901/b13fa50f-dbe0-4d0f-8647-6ac0fd8f40bd.jpg\"]","trial_type":"similarity","trial_index":184,"time_elapsed":4944752,"internal_node_id":"0.0-6.0-178.0"},{"sim_score":3,"rt":3877,"stimulus":"[\"img/0769/b664b502-a86c-46c1-ad6f-5ebffc2e1bd3.jpg\",\"img/0874/29830da7-be5f-44e5-b141-652a0ccf7269.jpg\"]","trial_type":"similarity","trial_index":185,"time_elapsed":4949761,"internal_node_id":"0.0-6.0-179.0"},{"sim_score":6,"rt":4336,"stimulus":"[\"img/0875/dbdd643e-6d0e-4a5c-ab57-b9c29b9c981a.jpg\",\"img/0881/405484ae-0d00-4b05-bc57-6420a36adfac.jpg\"]","trial_type":"similarity","trial_index":186,"time_elapsed":4955335,"internal_node_id":"0.0-6.0-180.0"},{"sim_score":6,"rt":3604,"stimulus":"[\"img/0866/d266fece-59b3-46fa-b69f-96f6efb81b59.jpg\",\"img/0868/293079b8-7e0c-4afd-a390-1e5d35fe3ded.jpg\"]","trial_type":"similarity","trial_index":187,"time_elapsed":4960039,"internal_node_id":"0.0-6.0-181.0"},{"sim_score":1,"rt":5783,"stimulus":"[\"img/0899/fd9efb43-701f-4cd6-baaa-4c38315f4bdc.jpg\",\"img/0758/e38fd80d-18d0-42f3-b848-f930788e8bd7.jpg\"]","trial_type":"similarity","trial_index":188,"time_elapsed":4966983,"internal_node_id":"0.0-6.0-182.0"},{"sim_score":5,"rt":4061,"stimulus":"[\"img/0874/85eb9b8a-c4c6-4e5a-b8e7-363a87a82054.jpg\",\"img/0875/5a7c4e35-6514-4e12-8879-d16071da4cd6.jpg\"]","trial_type":"similarity","trial_index":189,"time_elapsed":4972173,"internal_node_id":"0.0-6.0-183.0"},{"sim_score":2,"rt":3816,"stimulus":"[\"img/0904/6291eb43-c10c-4810-a36a-101d09868b04.jpg\",\"img/0862/53a9cf7c-93c4-41b9-952f-07d17f7a17b2.jpg\"]","trial_type":"similarity","trial_index":190,"time_elapsed":4977183,"internal_node_id":"0.0-6.0-184.0"},{"sim_score":6,"rt":3870,"stimulus":"[\"img/0902/168ebd47-9e82-4ab7-a18b-c3da85072db8.jpg\",\"img/0766/a0270213-fa0e-4972-8b56-228c3e01ff90.jpg\"]","trial_type":"similarity","trial_index":191,"time_elapsed":4982159,"internal_node_id":"0.0-6.0-185.0"},{"sim_score":2,"rt":3737,"stimulus":"[\"img/0758/a085b443-b5d7-4cb2-9ad4-b9dab0fc23f1.jpg\",\"img/0769/022c7e3b-c3f2-4119-b4bc-f22fa7cae18c.jpg\"]","trial_type":"similarity","trial_index":192,"time_elapsed":4987047,"internal_node_id":"0.0-6.0-186.0"},{"sim_score":7,"rt":3962,"stimulus":"[\"img/0881/ee44e27f-d662-4608-b265-e7ffa19b216f.jpg\",\"img/0881/f7a8cc63-8842-40a4-9ff8-fe530310d62c.jpg\"]","trial_type":"similarity","trial_index":193,"time_elapsed":4992127,"internal_node_id":"0.0-6.0-187.0"},{"sim_score":5,"rt":4422,"stimulus":"[\"img/0758/53f35650-e455-4b53-8be4-c3c8271c6466.jpg\",\"img/0866/6f2a90d7-14f1-4f1b-bd64-fc0af6b9fe44.jpg\"]","trial_type":"similarity","trial_index":194,"time_elapsed":4997627,"internal_node_id":"0.0-6.0-188.0"},{"sim_score":5,"rt":5451,"stimulus":"[\"img/0764/c84fbfa8-521c-407a-9bd3-24f7308d896c.jpg\",\"img/0898/04e39a7a-fcf6-4156-ab0e-f5871f335e1c.jpg\"]","trial_type":"similarity","trial_index":195,"time_elapsed":5004193,"internal_node_id":"0.0-6.0-189.0"},{"sim_score":4,"rt":3996,"stimulus":"[\"img/0903/c3cb4a01-2797-43ca-b216-88c67b323fbb.jpg\",\"img/0901/6e2957f8-f5ab-46f4-87cc-bb50155a098b.jpg\"]","trial_type":"similarity","trial_index":196,"time_elapsed":5009335,"internal_node_id":"0.0-6.0-190.0"},{"sim_score":5,"rt":4089,"stimulus":"[\"img/0902/d49743d6-67ae-4c2e-a939-8fd895a0f18e.jpg\",\"img/0898/993d8f2d-bef7-4251-a193-0f93a32b7763.jpg\"]","trial_type":"similarity","trial_index":197,"time_elapsed":5014551,"internal_node_id":"0.0-6.0-191.0"},{"sim_score":1,"rt":5900,"stimulus":"[\"img/0864/49150900-7f25-4ce8-8d10-9b47a71d1997.jpg\",\"img/0901/443f2e59-199b-4f7b-9de9-c44ad97326a5.jpg\"]","trial_type":"similarity","trial_index":198,"time_elapsed":5021552,"internal_node_id":"0.0-6.0-192.0"},{"sim_score":2,"rt":4847,"stimulus":"[\"img/0894/2d2db7b3-e8a3-499b-b63a-14f51bf73882.jpg\",\"img/0881/d1982897-8d8d-4704-a940-1ee5d07a1f15.jpg\"]","trial_type":"similarity","trial_index":199,"time_elapsed":5027575,"internal_node_id":"0.0-6.0-193.0"},{"sim_score":7,"rt":2835,"stimulus":"[\"img/0868/3a62db2d-97e9-44a3-b8e3-a48c6f0e423b.jpg\",\"img/0868/77091fc7-a590-4ebb-b915-fdb2483a2399.jpg\"]","trial_type":"similarity","trial_index":200,"time_elapsed":5031527,"internal_node_id":"0.0-6.0-194.0"},{"sim_score":5,"rt":3447,"stimulus":"[\"img/0899/ad8268c5-8199-48d0-ad70-c5b6d6c599ec.jpg\",\"img/0764/f2f23359-8e82-41d3-8900-5b9f4433991d.jpg\"]","trial_type":"similarity","trial_index":201,"time_elapsed":5036071,"internal_node_id":"0.0-6.0-195.0"},{"sim_score":3,"rt":3505,"stimulus":"[\"img/0881/667e2147-d457-4f32-aa5f-6ab86e5848f1.jpg\",\"img/0904/da170c1b-9651-4f08-b231-2bdd1d9a046f.jpg\"]","trial_type":"similarity","trial_index":202,"time_elapsed":5040664,"internal_node_id":"0.0-6.0-196.0"},{"sim_score":1,"rt":3744,"stimulus":"[\"img/0864/f92649a2-0590-4d31-9a7a-1bfb81666a2d.jpg\",\"img/0902/ca3160ba-ad5d-459f-a1b6-8b4f3c85ecd5.jpg\"]","trial_type":"similarity","trial_index":203,"time_elapsed":5045511,"internal_node_id":"0.0-6.0-197.0"},{"sim_score":7,"rt":5495,"stimulus":"[\"img/0894/e5edf723-72a5-4673-8441-6c1734a8929b.jpg\",\"img/0904/4e58005d-a2ec-4aaa-b199-445343561396.jpg\"]","trial_type":"similarity","trial_index":204,"time_elapsed":5052208,"internal_node_id":"0.0-6.0-198.0"},{"sim_score":7,"rt":2935,"stimulus":"[\"img/0901/7d4a3388-488d-4e9b-9d32-9d0def7aae8d.jpg\",\"img/0901/5b97abf9-f0c8-4fd1-b921-36d574779078.jpg\"]","trial_type":"similarity","trial_index":205,"time_elapsed":5056247,"internal_node_id":"0.0-6.0-199.0"},{"sim_score":2,"rt":4344,"stimulus":"[\"img/0894/e2446cf5-cd48-486a-badc-76498e087fbe.jpg\",\"img/0860/94ef7afc-e0e6-4a15-98c6-0bfac82bc832.jpg\"]","trial_type":"similarity","trial_index":206,"time_elapsed":5061724,"internal_node_id":"0.0-6.0-200.0"},{"sim_score":7,"rt":4495,"stimulus":"[\"img/0898/81b08535-2020-4c15-9ce4-2f1e460755ae.jpg\",\"img/0903/5248eedd-7e6a-4d39-91b0-06ec227f3ed0.jpg\"]","trial_type":"similarity","trial_index":207,"time_elapsed":5067367,"internal_node_id":"0.0-6.0-201.0"},{"sim_score":2,"rt":3408,"stimulus":"[\"img/0864/9b2490c5-a282-400a-9736-e1a0ecbf1cb7.jpg\",\"img/0894/5c7677b0-a4f1-479e-b274-7822c415175a.jpg\"]","trial_type":"similarity","trial_index":208,"time_elapsed":5071919,"internal_node_id":"0.0-6.0-202.0"},{"sim_score":5,"rt":3993,"stimulus":"[\"img/0874/adf9a8f1-c40b-402b-b95b-1e85a54a7b62.jpg\",\"img/0860/8277806e-b684-4474-8f7b-3fca946d7d4f.jpg\"]","trial_type":"similarity","trial_index":209,"time_elapsed":5077023,"internal_node_id":"0.0-6.0-203.0"},{"sim_score":5,"rt":3692,"stimulus":"[\"img/0862/e0f1a4e9-e1b6-45f7-af67-89f334e6630d.jpg\",\"img/0875/99698b4d-b4a1-44bc-8c83-8ea755bbbf61.jpg\"]","trial_type":"similarity","trial_index":210,"time_elapsed":5081836,"internal_node_id":"0.0-6.0-204.0"},{"sim_score":5,"rt":3534,"stimulus":"[\"img/0867/f8159067-056c-41f1-a136-c529fe5e970a.jpg\",\"img/0881/4bd34581-94d8-4e88-8c89-5cef864ca3be.jpg\"]","trial_type":"similarity","trial_index":211,"time_elapsed":5086479,"internal_node_id":"0.0-6.0-205.0"},{"sim_score":5,"rt":4956,"stimulus":"[\"img/0901/50e1d53e-a49f-4806-8610-be6dec5a2475.jpg\",\"img/0902/511abb54-0094-4f4d-b6dc-3f2c97050521.jpg\"]","trial_type":"similarity","trial_index":212,"time_elapsed":5092567,"internal_node_id":"0.0-6.0-206.0"},{"sim_score":2,"rt":3969,"stimulus":"[\"img/0899/93494f3b-d539-4075-b027-d82e344563da.jpg\",\"img/0864/1ebbc554-99fa-49f9-8799-317375a79820.jpg\"]","trial_type":"similarity","trial_index":213,"time_elapsed":5097869,"internal_node_id":"0.0-6.0-207.0"},{"sim_score":5,"rt":3574,"stimulus":"[\"img/0901/7c16dd9c-44ad-4d5b-990c-6a0b9b48b1b1.jpg\",\"img/0769/5bd04f55-d091-4f57-85db-38426f26bd1a.jpg\"]","trial_type":"similarity","trial_index":214,"time_elapsed":5102576,"internal_node_id":"0.0-6.0-208.0"},{"sim_score":7,"rt":3873,"stimulus":"[\"img/0902/794606a0-d8a8-4e58-8bf8-9d114ed5a548.jpg\",\"img/0902/c9c74d2d-9b82-42d7-a9d0-3b8ff67ff81e.jpg\"]","trial_type":"similarity","trial_index":215,"time_elapsed":5112902,"internal_node_id":"0.0-6.0-209.0"},{"view_history":"[{\"page_index\":0,\"viewing_time\":3592}]","rt":3593,"trial_type":"instructions","trial_index":216,"time_elapsed":5117507,"internal_node_id":"0.0-7.0"},{"rt":11954,"responses":"{\"Q0\":\"Orange-crowned Warbler\"}","answer":["Nashville Warbler"],"trial_type":"image-multi-choice","trial_index":217,"time_elapsed":5130889,"internal_node_id":"0.0-8.0-0.0"},{"rt":7731,"responses":"{\"Q0\":\"Black-and-white Warbler\"}","answer":["Black-and-white Warbler"],"trial_type":"image-multi-choice","trial_index":218,"time_elapsed":5139913,"internal_node_id":"0.0-8.0-1.0"},{"rt":11312,"responses":"{\"Q0\":\"Townsend's Warbler\"}","answer":["Townsend's Warbler"],"trial_type":"image-multi-choice","trial_index":219,"time_elapsed":5152562,"internal_node_id":"0.0-8.0-2.0"},{"rt":3415,"responses":"{\"Q0\":\"Lark Sparrow\"}","answer":["Lark Sparrow"],"trial_type":"image-multi-choice","trial_index":220,"time_elapsed":5157463,"internal_node_id":"0.0-8.0-3.0"},{"rt":3622,"responses":"{\"Q0\":\"Yellow Warbler\"}","answer":["Yellow Warbler"],"trial_type":"image-multi-choice","trial_index":221,"time_elapsed":5162435,"internal_node_id":"0.0-8.0-4.0"},{"rt":7473,"responses":"{\"Q0\":\"Tennessee Warbler\"}","answer":["Orange-crowned Warbler"],"trial_type":"image-multi-choice","trial_index":222,"time_elapsed":5171217,"internal_node_id":"0.0-8.0-5.0"},{"rt":3739,"responses":"{\"Q0\":\"White-throated Sparrow\"}","answer":["White-throated Sparrow"],"trial_type":"image-multi-choice","trial_index":223,"time_elapsed":5176312,"internal_node_id":"0.0-8.0-6.0"},{"rt":3189,"responses":"{\"Q0\":\"Fox Sparrow\"}","answer":["Fox Sparrow"],"trial_type":"image-multi-choice","trial_index":224,"time_elapsed":5180783,"internal_node_id":"0.0-8.0-7.0"},{"rt":17034,"responses":"{\"Q0\":\"Vesper Sparrow\"}","answer":["Song Sparrow"],"trial_type":"image-multi-choice","trial_index":225,"time_elapsed":5199072,"internal_node_id":"0.0-8.0-8.0"},{"rt":5222,"responses":"{\"Q0\":\"Blackburnian Warbler\"}","answer":["Blackburnian Warbler"],"trial_type":"image-multi-choice","trial_index":226,"time_elapsed":5205696,"internal_node_id":"0.0-8.0-9.0"},{"rt":8003,"responses":"{\"Q0\":\"Vesper Sparrow\"}","answer":["Vesper Sparrow"],"trial_type":"image-multi-choice","trial_index":227,"time_elapsed":5215036,"internal_node_id":"0.0-8.0-10.0"},{"rt":3022,"responses":"{\"Q0\":\"White-crowned Sparrow\"}","answer":["White-crowned Sparrow"],"trial_type":"image-multi-choice","trial_index":228,"time_elapsed":5219350,"internal_node_id":"0.0-8.0-11.0"},{"rt":15606,"responses":"{\"Q0\":\"American Tree Sparrow\"}","answer":["American Tree Sparrow"],"trial_type":"image-multi-choice","trial_index":229,"time_elapsed":5236273,"internal_node_id":"0.0-8.0-12.0"},{"rt":5804,"responses":"{\"Q0\":\"Tennessee Warbler\"}","answer":["Tennessee Warbler"],"trial_type":"image-multi-choice","trial_index":230,"time_elapsed":5243384,"internal_node_id":"0.0-8.0-13.0"},{"rt":3840,"responses":"{\"Q0\":\"Magnolia Warbler\"}","answer":["Magnolia Warbler"],"trial_type":"image-multi-choice","trial_index":231,"time_elapsed":5248656,"internal_node_id":"0.0-8.0-14.0"},{"rt":4231,"responses":"{\"Q0\":\"Northern Waterthrush\"}","answer":["Northern Waterthrush"],"trial_type":"image-multi-choice","trial_index":232,"time_elapsed":5254150,"internal_node_id":"0.0-8.0-15.0"},{"rt":8036,"responses":"{\"Q0\":\"Swamp Sparrow\"}","answer":["Chipping Sparrow"],"trial_type":"image-multi-choice","trial_index":233,"time_elapsed":5263496,"internal_node_id":"0.0-8.0-16.0"},{"rt":4751,"responses":"{\"Q0\":\"Lincoln's Sparrow\"}","answer":["Swamp Sparrow"],"trial_type":"image-multi-choice","trial_index":234,"time_elapsed":5269585,"internal_node_id":"0.0-8.0-17.0"},{"rt":5696,"responses":"{\"Q0\":\"Lincoln's Sparrow\"}","answer":["Lincoln's Sparrow"],"trial_type":"image-multi-choice","trial_index":235,"time_elapsed":5276663,"internal_node_id":"0.0-8.0-18.0"},{"rt":2978,"responses":"{\"Q0\":\"Ovenbird\"}","answer":["Ovenbird"],"trial_type":"image-multi-choice","trial_index":236,"time_elapsed":5280876,"internal_node_id":"0.0-8.0-19.0"}]