"view_history","rt","trial_type","trial_index","time_elapsed","internal_node_id","sim_score","stimulus","responses","answer"
"[{""page_index"":0,""viewing_time"":1558}]","1559","instructions","0","1559","0.0-0.0","","","",""
"","8343","similarity_demo","1","10910","0.0-1.0","3","[""img/866.jpg"",""img/868.jpg""]","",""
"[{""page_index"":0,""viewing_time"":932157}]","932157","instructions","2","944068","0.0-2.0","","","",""
"","5956","similarity_demo","3","951029","0.0-3.0","1","[""img/766.jpg"",""img/867.jpg""]","",""
"[{""page_index"":0,""viewing_time"":4893}]","4893","instructions","4","956924","0.0-4.0","","","",""
"[{""page_index"":0,""viewing_time"":4199}]","4200","instructions","5","962124","0.0-5.0","","","",""
"","4627","similarity","6","967757","0.0-6.0-0.0","1","[""img/0868/0d3abd3a-b6c3-4584-a9f7-e2da63748b3d.jpg"",""img/0901/7d4a3388-488d-4e9b-9d32-9d0def7aae8d.jpg""]","",""
"","4195","similarity","7","972956","0.0-6.0-1.0","1","[""img/0769/a3cfbdeb-acb3-4eac-87fb-4b117f42d4f8.jpg"",""img/0867/85a96c62-548f-4994-9553-819e03c3135a.jpg""]","",""
"","3900","similarity","8","977860","0.0-6.0-2.0","3","[""img/0766/09f646c8-a69e-4ed3-879c-8d29b04ad7f9.jpg"",""img/0898/993d8f2d-bef7-4251-a193-0f93a32b7763.jpg""]","",""
"","4940","similarity","9","983804","0.0-6.0-3.0","3","[""img/0902/962f645e-9b55-4628-9b50-c703422bfe1a.jpg"",""img/0881/566f45f8-5fed-4479-a60f-26377e60a62d.jpg""]","",""
"","4067","similarity","10","988877","0.0-6.0-4.0","5","[""img/0894/767a0eec-1064-46b1-b1aa-dfa02b0cd74e.jpg"",""img/0894/c505c65a-cde2-4f2c-8cde-f8676f7c894d.jpg""]","",""
"","4763","similarity","11","994644","0.0-6.0-5.0","3","[""img/0874/eba003b4-cdab-4eee-8bc3-f064c7d94165.jpg"",""img/0899/0e1d936a-dbe2-4afc-9f19-7b7a1ae6c9ed.jpg""]","",""
"","3067","similarity","12","998716","0.0-6.0-6.0","5","[""img/0904/2c98dc56-88d1-4fb5-a999-b6a7861f65f0.jpg"",""img/0764/cffc80b0-4a90-4acb-a530-6f480f3ca303.jpg""]","",""
"","3428","similarity","13","1003148","0.0-6.0-7.0","6","[""img/0899/25ae6ec8-9565-49fe-a8bb-8d0666f52716.jpg"",""img/0898/224c1572-56b9-4f16-a9e4-6f3bc9c114bd.jpg""]","",""
"","3508","similarity","14","1007660","0.0-6.0-8.0","2","[""img/0874/8cdb1c07-1c32-46d2-981c-3636560fa6e5.jpg"",""img/0903/8635cf25-2648-4fe9-8c42-79d2598e999c.jpg""]","",""
"","3844","similarity","15","1012508","0.0-6.0-9.0","6","[""img/0881/e6746727-7f89-47ec-b939-d98abe78372d.jpg"",""img/0758/65d426d6-3ff6-415d-8654-a43b83ecc4fe.jpg""]","",""
"","4411","similarity","16","1017924","0.0-6.0-10.0","5","[""img/0898/8605a25b-6895-476d-8c13-df7a83f96093.jpg"",""img/0901/2a953e50-d237-405c-a38d-5ed21494c968.jpg""]","",""
"","5740","similarity","17","1024668","0.0-6.0-11.0","5","[""img/0903/8c358e9e-a4f4-466e-8b93-7aec0d2358e8.jpg"",""img/0769/96556ef3-7fac-4c9d-8281-1cb0ea5081bc.jpg""]","",""
"","2980","similarity","18","1028652","0.0-6.0-12.0","2","[""img/0764/8389e74f-e0e0-435d-945f-da1f4c92ccb6.jpg"",""img/0868/4a8a45ed-2c4f-421b-9564-409a33ecd26c.jpg""]","",""
"","2917","similarity","19","1032573","0.0-6.0-13.0","1","[""img/0867/bf560d4f-dee3-4f11-a385-705cc1aa5f3c.jpg"",""img/0903/2c7b4aed-6038-4aac-958a-e3e58341c313.jpg""]","",""
"","5227","similarity","20","1038803","0.0-6.0-14.0","5","[""img/0766/e8052e17-9dae-4139-802b-6e590cb2d526.jpg"",""img/0758/335851a0-a55b-46d8-ab05-8463eda48349.jpg""]","",""
"","4139","similarity","21","1043947","0.0-6.0-15.0","3","[""img/0902/e5a46bda-30d1-41ca-b36d-b8529b5a63d1.jpg"",""img/0860/87039971-2210-4aab-93c0-8e9b5f1655b2.jpg""]","",""
"","3996","similarity","22","1048948","0.0-6.0-16.0","5","[""img/0769/6c0bac4c-5f59-43c7-898c-3ca93cf55cfe.jpg"",""img/0875/d59ff733-eaff-4ee2-9443-06954dd0bcb6.jpg""]","",""
"","2812","similarity","23","1052764","0.0-6.0-17.0","3","[""img/0904/b7c2a2c8-df33-4473-b3d4-ff7147c60db3.jpg"",""img/0866/d493a2c8-66eb-44b4-be02-2f327b700b7c.jpg""]","",""
"","3548","similarity","24","1057316","0.0-6.0-18.0","7","[""img/0875/3ecb367d-e9eb-4826-8aaa-7aa72fb98019.jpg"",""img/0875/2e13d160-eea1-416b-aff1-d37ab99ecc1d.jpg""]","",""
"","3579","similarity","25","1061900","0.0-6.0-19.0","6","[""img/0758/e38fd80d-18d0-42f3-b848-f930788e8bd7.jpg"",""img/0758/61d64021-9214-4951-bdf8-f871f9827cf9.jpg""]","",""
"","4371","similarity","26","1067275","0.0-6.0-20.0","3","[""img/0902/94198618-7047-4dc9-ad04-85f4ba913067.jpg"",""img/0874/85eb9b8a-c4c6-4e5a-b8e7-363a87a82054.jpg""]","",""
"","4052","similarity","27","1072331","0.0-6.0-21.0","5","[""img/0764/a86eed5b-d0af-4c3f-8c7a-26e98e98cf1a.jpg"",""img/0769/180213e5-1e50-4b4e-87b6-add77ba04d39.jpg""]","",""
"","3828","similarity","28","1077165","0.0-6.0-22.0","2","[""img/0901/4f9cffe0-c0be-4d7f-bacd-9d51efd19b4a.jpg"",""img/0874/93d1f8dc-acf2-4f03-bd8d-8ec35df276ed.jpg""]","",""
"","2914","similarity","29","1081085","0.0-6.0-23.0","3","[""img/0875/2c361b79-c3d1-4eda-812e-bf03192407bf.jpg"",""img/0903/24477210-856c-4550-9de0-9f85a32762eb.jpg""]","",""
"","8147","similarity","30","1090236","0.0-6.0-24.0","2","[""img/0769/c7cfacc3-7f07-46ff-9f5d-8073f4c4679b.jpg"",""img/0881/6b1189e6-232d-4042-8885-16dc7b10e0d4.jpg""]","",""
"","22458","similarity","31","1113703","0.0-6.0-25.0","3","[""img/0867/7d1c497b-c1b3-4ed8-abb5-d7f73306015f.jpg"",""img/0904/9b3568cc-3cf7-42be-9df3-fdafde7a58b8.jpg""]","",""
"","4009","similarity","32","1118716","0.0-6.0-26.0","3","[""img/0860/c5ccd1a4-4bb7-48e1-9b25-72cfaf06909b.jpg"",""img/0881/d373cb9f-a719-4549-a2a4-82def79fb2a5.jpg""]","",""
"","2285","similarity","33","1122004","0.0-6.0-27.0","6","[""img/0866/a04d37f0-99dd-478a-b6c6-58b215138f84.jpg"",""img/0866/8efcaa46-83ab-4dee-a35f-850402aa21ae.jpg""]","",""
"","4596","similarity","34","1127604","0.0-6.0-28.0","3","[""img/0764/f713847b-4832-42d1-8fb3-e17e37fd745c.jpg"",""img/0862/e0f1a4e9-e1b6-45f7-af67-89f334e6630d.jpg""]","",""
"","2572","similarity","35","1131180","0.0-6.0-29.0","3","[""img/0904/6291eb43-c10c-4810-a36a-101d09868b04.jpg"",""img/0758/eabcd7a8-56ad-4fd2-bc24-90f6b7b33265.jpg""]","",""
"","2963","similarity","36","1135147","0.0-6.0-30.0","3","[""img/0894/151063aa-6472-4745-837b-36603aba5966.jpg"",""img/0899/b45c550b-96c3-4255-ad59-48a2b4db1c1e.jpg""]","",""
"","4588","similarity","37","1140739","0.0-6.0-31.0","3","[""img/0860/8277806e-b684-4474-8f7b-3fca946d7d4f.jpg"",""img/0904/da170c1b-9651-4f08-b231-2bdd1d9a046f.jpg""]","",""
"","3124","similarity","38","1144867","0.0-6.0-32.0","6","[""img/0874/29830da7-be5f-44e5-b141-652a0ccf7269.jpg"",""img/0881/adc02f34-ce97-4aef-850f-00519df06fd7.jpg""]","",""
"","3605","similarity","39","1149475","0.0-6.0-33.0","3","[""img/0881/4da99fdd-1f40-4bbb-8e21-8833eef313f5.jpg"",""img/0899/d8f2dd94-570e-4e8c-a087-d96090fb9e8c.jpg""]","",""
"","5220","similarity","40","1155699","0.0-6.0-34.0","3","[""img/0866/c446214b-a368-4c65-ae39-ea46894256ab.jpg"",""img/0862/cdaed51d-9e2f-4807-801a-4663c40077e2.jpg""]","",""
"","4851","similarity","41","1161555","0.0-6.0-35.0","1","[""img/0868/7b212364-ff5f-4e28-9241-7eb6ea00161b.jpg"",""img/0894/e5edf723-72a5-4673-8441-6c1734a8929b.jpg""]","",""
"","170994","similarity","42","1333556","0.0-6.0-36.0","3","[""img/0860/c7047cd2-7cc1-41b6-8a34-c0986774975f.jpg"",""img/0860/e14d67c1-6d92-4f1e-9257-c8607159c19c.jpg""]","",""
"","3506","similarity","43","1338067","0.0-6.0-37.0","5","[""img/0862/92f0146c-20c4-482e-aef5-adb693790338.jpg"",""img/0864/9b2490c5-a282-400a-9736-e1a0ecbf1cb7.jpg""]","",""
"","2604","similarity","44","1341676","0.0-6.0-38.0","2","[""img/0766/908bc45b-7c9e-4f95-806e-86b196ebcb2c.jpg"",""img/0866/f756f7d1-9ad8-4a34-9ef6-7a443d705bfe.jpg""]","",""
"","2570","similarity","45","1345251","0.0-6.0-39.0","1","[""img/0875/8521fd58-3b1e-4dc5-97ae-804edfa6734a.jpg"",""img/0898/0af304a2-6a7a-4082-ab7c-4450cd08cc58.jpg""]","",""
"","3211","similarity","46","1349466","0.0-6.0-40.0","7","[""img/0766/33aa9ebb-c9f5-418f-8c8b-c77861889568.jpg"",""img/0769/ebef2ddc-ba59-4e0e-97f8-927864eb5081.jpg""]","",""
"","2747","similarity","47","1379673","0.0-6.0-41.0","2","[""img/0874/1016b306-087c-4afc-aa08-fa527b28dc76.jpg"",""img/0764/50f1b062-d608-4bc0-ab25-b872dcf2ed93.jpg""]","",""
"","1693","similarity","48","1382370","0.0-6.0-42.0","4","[""img/0868/4e626425-63c8-484a-8a1d-e66ee4e0bef8.jpg"",""img/0902/b03fee99-d5ca-4bf8-871c-a4a743a39842.jpg""]","",""
"","523","similarity","49","1383898","0.0-6.0-43.0","4","[""img/0875/f87b67d7-c33e-40d1-b281-248c4be1cb6e.jpg"",""img/0899/57476fed-5962-4272-8fc9-b317bb777b54.jpg""]","",""
"","411","similarity","50","1385314","0.0-6.0-44.0","4","[""img/0866/4a87911a-d5be-4d4e-ab8e-3d1f581bf507.jpg"",""img/0860/8a92e21b-6a32-4e4a-a445-2d5a487ed0a4.jpg""]","",""
"","452","similarity","51","1386770","0.0-6.0-45.0","4","[""img/0766/a0270213-fa0e-4972-8b56-228c3e01ff90.jpg"",""img/0903/b548d383-2a95-4575-8c13-647873751ff1.jpg""]","",""
"","540","similarity","52","1388314","0.0-6.0-46.0","4","[""img/0901/168eb52c-c415-43f1-b5c8-e76e1a1ec247.jpg"",""img/0904/25365108-e038-4021-aac9-797f2063b337.jpg""]","",""
"","4675","similarity","53","1393994","0.0-6.0-47.0","1","[""img/0758/7ee8bc8f-c40b-4b3a-84ec-3e83580622d4.jpg"",""img/0902/5b45a7a0-81c8-4a71-aaa2-2ce09adb5a29.jpg""]","",""
"","2674","similarity","54","1397674","0.0-6.0-48.0","7","[""img/0764/55b3fab1-b809-4d38-a461-3f40ce062f52.jpg"",""img/0764/fb92924f-5cfe-4b89-b130-0cce8cc5636b.jpg""]","",""
"","3753","similarity","55","1402444","0.0-6.0-49.0","2","[""img/0866/07c9c966-3c8d-40e7-8128-92b2acbaed5d.jpg"",""img/0902/71c03003-03ef-4b0f-8229-e0c857150a5d.jpg""]","",""
"","3698","similarity","56","1407146","0.0-6.0-50.0","1","[""img/0764/a3226bc4-dcc3-4608-bde8-1414d685ce5c.jpg"",""img/0758/6e95579b-5166-487c-b8cb-e417c6a218e3.jpg""]","",""
"","3043","similarity","57","1411194","0.0-6.0-51.0","6","[""img/0898/40f99fb2-64d2-4e72-8a7f-a1cf60741e69.jpg"",""img/0894/5c7677b0-a4f1-479e-b274-7822c415175a.jpg""]","",""
"","4187","similarity","58","1416386","0.0-6.0-52.0","7","[""img/0875/90da8d75-108a-44ad-b999-e21fee3860d3.jpg"",""img/0866/9b38d691-1802-4959-ab3f-fc902f0e4ea6.jpg""]","",""
"","5124","similarity","59","1422515","0.0-6.0-53.0","7","[""img/0904/09dac84f-3d1c-4445-a68e-d0389fdbf1e9.jpg"",""img/0904/56e73f28-7e64-489b-a161-e6b1a063878d.jpg""]","",""
"","4604","similarity","60","1428122","0.0-6.0-54.0","7","[""img/0769/f73c5138-2f4c-4354-981c-129dff9cc734.jpg"",""img/0769/022c7e3b-c3f2-4119-b4bc-f22fa7cae18c.jpg""]","",""
"","3131","similarity","61","1432258","0.0-6.0-55.0","2","[""img/0898/f3a3f225-1248-4ac7-b93b-f0ff28485bf3.jpg"",""img/0758/a709631e-3705-4725-ac40-f0d916924f08.jpg""]","",""
"","3036","similarity","62","1436297","0.0-6.0-56.0","6","[""img/0769/5bd04f55-d091-4f57-85db-38426f26bd1a.jpg"",""img/0902/cf9dee9c-2bdf-4d64-9302-97f1660fe52c.jpg""]","",""
"","3378","similarity","63","1440681","0.0-6.0-57.0","5","[""img/0864/3d4de670-b290-4285-9c3d-12a0e3af44e9.jpg"",""img/0881/667e2147-d457-4f32-aa5f-6ab86e5848f1.jpg""]","",""
"","2971","similarity","64","1444657","0.0-6.0-58.0","3","[""img/0758/b76ceca7-95ac-46e4-ac13-da02c8e93be9.jpg"",""img/0868/179a5502-ab5c-478e-8263-5a1fbcc101d2.jpg""]","",""
"","3651","similarity","65","1449312","0.0-6.0-59.0","2","[""img/0862/57b6f83f-c763-4858-830d-102f97bfefbf.jpg"",""img/0769/75f7e514-0548-4329-b1e4-93c05e74f038.jpg""]","",""
"","3259","similarity","66","1453577","0.0-6.0-60.0","5","[""img/0764/ef0e64c6-d0dd-4dc6-87b6-ce5c0665f421.jpg"",""img/0903/81368973-de81-46f4-844f-b901f3bfd66d.jpg""]","",""
"","4156","similarity","67","1458737","0.0-6.0-61.0","7","[""img/0899/93494f3b-d539-4075-b027-d82e344563da.jpg"",""img/0899/f58b8d2f-b19d-4b59-8b94-8834be92e4ba.jpg""]","",""
"","4618","similarity","68","1464360","0.0-6.0-62.0","6","[""img/0860/b03b963d-949b-4d8d-b19c-4950c89eeca2.jpg"",""img/0875/03c3c331-738b-4446-af92-3d7386b08c2e.jpg""]","",""
"","3547","similarity","69","1468913","0.0-6.0-63.0","3","[""img/0868/fd307a36-9a3a-47d7-ab7c-f810d0b35040.jpg"",""img/0874/3ce41e7c-40c8-4d58-a546-171114521796.jpg""]","",""
"","6027","similarity","70","1475945","0.0-6.0-64.0","2","[""img/0758/2fa3e613-e676-4e6e-bd12-705327eeb3e1.jpg"",""img/0862/ba89835a-408c-480b-8594-ed4ffa97eb5c.jpg""]","",""
"","3211","similarity","71","1480161","0.0-6.0-65.0","6","[""img/0904/73920552-103b-4c9c-9ece-e0b8376b4504.jpg"",""img/0898/c3cecf20-f7fd-45fa-97d0-dc0a63e8d6c0.jpg""]","",""
"","3570","similarity","72","1484737","0.0-6.0-66.0","4","[""img/0881/f62bdcd1-a4b7-4d48-83da-d9c9e01c8727.jpg"",""img/0866/93a27239-8317-4e08-98ca-d8b1ff298e07.jpg""]","",""
"","6212","similarity","73","1491952","0.0-6.0-67.0","2","[""img/0867/8ba0c5a7-c7e4-42cf-a80a-543763b90779.jpg"",""img/0898/661621d4-a14e-487c-8c74-354134a29710.jpg""]","",""
"","3830","similarity","74","1496785","0.0-6.0-68.0","6","[""img/0902/7499db23-3a41-41ea-ab5b-6ab4d4c3ed35.jpg"",""img/0764/f9f890e6-3c2f-40cd-84e9-85e0b54cb28e.jpg""]","",""
"","4996","similarity","75","1502785","0.0-6.0-69.0","4","[""img/0875/cff79b3a-a797-4393-9757-6275f999ec04.jpg"",""img/0867/12264664-1860-46df-8c21-162b9817cdda.jpg""]","",""
"","3692","similarity","76","1507481","0.0-6.0-70.0","7","[""img/0766/dd3e18d0-0c98-4d05-b850-69976ee8cd75.jpg"",""img/0764/e30dba15-e68a-4659-89db-e1654b52fe02.jpg""]","",""
"","3171","similarity","77","1511658","0.0-6.0-71.0","7","[""img/0894/11674fa4-285d-44e2-939f-2228c6a64080.jpg"",""img/0867/c66898ba-b71b-4d50-84f9-f7f84853a98d.jpg""]","",""
"","11706","similarity","78","1524369","0.0-6.0-72.0","1","[""img/0875/527ced51-8e53-4aab-ab05-86df219104c0.jpg"",""img/0764/5c8fbafc-e62e-43ed-9b37-f73e8e45147d.jpg""]","",""
"","5716","similarity","79","1531089","0.0-6.0-73.0","6","[""img/0867/de92135f-5b65-4ed9-b245-188292c7c2f8.jpg"",""img/0866/23a224f3-2012-4fc8-8e0f-3c36f8de27fd.jpg""]","",""
"","5612","similarity","80","1537705","0.0-6.0-74.0","4","[""img/0903/3e9ee8a5-eb66-47f5-8973-8a5af1ddc87e.jpg"",""img/0758/9fb5b2fe-3f00-4fe6-973c-1ce10d5f4cd5.jpg""]","",""
"","1757","similarity","81","1540473","0.0-6.0-75.0","4","[""img/0766/d14acac4-7db1-4b07-8f8f-302437326fc0.jpg"",""img/0868/15dd6fd7-791e-4b53-b203-195d617521a4.jpg""]","",""
"","3101","similarity","82","1544578","0.0-6.0-76.0","2","[""img/0874/31e22c7c-99aa-40b1-bf03-dd73fa2df4d6.jpg"",""img/0766/3c526a07-9e0a-4ae2-8142-00085f0127da.jpg""]","",""
"","3162","similarity","83","1548745","0.0-6.0-77.0","5","[""img/0881/84397291-bc14-4fbf-90e8-241e486ab0fe.jpg"",""img/0868/09a9ef4d-d000-4cfa-a6aa-ebec7c2edeb4.jpg""]","",""
"","2651","similarity","84","1552401","0.0-6.0-78.0","2","[""img/0758/f61ecdf8-a7d4-4db0-b84d-be46f7cfaffc.jpg"",""img/0901/1e23ffbd-19de-4c4f-aa23-c54aaa3319a3.jpg""]","",""
"","4228","similarity","85","1557632","0.0-6.0-79.0","1","[""img/0881/db77fe00-aeb0-4d1d-aa66-f3a96fd077e4.jpg"",""img/0898/08c72dac-f8ad-407a-9ce6-8c9a5d679c3a.jpg""]","",""
"","7116","similarity","86","1565752","0.0-6.0-80.0","2","[""img/0867/c71dc569-f49c-4397-8381-68b8d726736d.jpg"",""img/0758/67c0be2f-9e91-48b3-8219-70ac0a1802fa.jpg""]","",""
"","3283","similarity","87","1570040","0.0-6.0-81.0","5","[""img/0769/c34b7763-8ff2-46d5-9e92-f1d8f3bedbd8.jpg"",""img/0899/7b7380d5-d2be-44e5-a09a-c1756f87ef71.jpg""]","",""
"","5110","similarity","88","1576153","0.0-6.0-82.0","6","[""img/0903/aa842abe-6fa3-448a-bf71-88d3ad28663b.jpg"",""img/0903/5248eedd-7e6a-4d39-91b0-06ec227f3ed0.jpg""]","",""
"","3804","similarity","89","1591991","0.0-6.0-83.0","1","[""img/0867/6e19c858-b606-45b2-a4c6-910a73f1d82c.jpg"",""img/0766/1bc0dccc-a5b5-4375-87fa-28360ca42b12.jpg""]","",""
"","2854","similarity","90","1595848","0.0-6.0-84.0","1","[""img/0902/8af4182a-9af9-4212-a436-9195555112d6.jpg"",""img/0867/1719a35d-f085-48c0-9099-16c94fe418b4.jpg""]","",""
"","3156","similarity","91","1600008","0.0-6.0-85.0","1","[""img/0901/b123d109-47b4-4f9a-80c9-9bb16da42efa.jpg"",""img/0875/5a1e5100-0d94-4fec-bbe9-ca9894d2cf8e.jpg""]","",""
"","5187","similarity","92","1606200","0.0-6.0-86.0","2","[""img/0764/f990b2e8-ecee-481e-be7c-0239fce350e2.jpg"",""img/0866/d266fece-59b3-46fa-b69f-96f6efb81b59.jpg""]","",""
"","4116","similarity","93","1611320","0.0-6.0-87.0","4","[""img/0901/548d1110-7cb8-42a2-9927-9798875c8b5c.jpg"",""img/0894/6b2e9509-8699-42b7-9582-7741df0ba2d7.jpg""]","",""
"","589","similarity","94","1612912","0.0-6.0-88.0","4","[""img/0898/81b08535-2020-4c15-9ce4-2f1e460755ae.jpg"",""img/0769/82ab9db6-4578-4e79-874f-f09100439f09.jpg""]","",""
"","405","similarity","95","1614321","0.0-6.0-89.0","4","[""img/0769/3adfa417-3b90-4aab-b437-5eaa474189cb.jpg"",""img/0894/2217bdcd-23a7-42d3-823b-23f2488d7e87.jpg""]","",""
"","460","similarity","96","1615785","0.0-6.0-90.0","4","[""img/0862/fad1d7c1-8187-43c3-942a-0fc12183e48e.jpg"",""img/0874/995f0332-0439-4eb4-add3-957335dbf6d9.jpg""]","",""
"","484","similarity","97","1617273","0.0-6.0-91.0","4","[""img/0894/7fb082e0-ce79-485c-9109-04367fb32275.jpg"",""img/0766/1865bfc9-2410-4765-a804-3ae4ba2393d0.jpg""]","",""
"","402","similarity","98","1618680","0.0-6.0-92.0","4","[""img/0874/ca23d307-fc00-4d7d-9106-584c6eb21b4d.jpg"",""img/0867/a749dddb-69f0-44a6-acdc-2bf295cf6dcc.jpg""]","",""
"","499","similarity","99","1620184","0.0-6.0-93.0","4","[""img/0899/fef567a2-c121-4481-9af0-ff108d199bbf.jpg"",""img/0868/77091fc7-a590-4ebb-b915-fdb2483a2399.jpg""]","",""
"","2908","similarity","100","1624097","0.0-6.0-94.0","4","[""img/0903/5995f4a8-fa82-46f8-8760-fd7800a5ca34.jpg"",""img/0862/de9ad88c-b522-430a-8ee9-eb06a9f85df5.jpg""]","",""
"","6051","similarity","101","1631152","0.0-6.0-95.0","2","[""img/0899/f95cbdb4-f804-4f5d-ad76-373ad343e658.jpg"",""img/0766/214866ee-423d-4629-9bb9-41572bdc7dac.jpg""]","",""
"","4163","similarity","102","1636320","0.0-6.0-96.0","7","[""img/0867/5e07b34d-b40f-4b1c-ac10-49975bace45f.jpg"",""img/0868/e0aff734-077f-40dd-9781-74821abd3621.jpg""]","",""
"","69876","similarity","103","1707201","0.0-6.0-97.0","1","[""img/0862/7918ca67-5bd3-4606-a5ea-c39fb11a9297.jpg"",""img/0901/31c032fd-3c3d-4882-a226-da9a80198937.jpg""]","",""
"","4145","similarity","104","1712352","0.0-6.0-98.0","6","[""img/0875/ebf7653f-ff45-4e9f-af58-2c042ab3cd2b.jpg"",""img/0766/33519c22-aaa4-49d7-8d49-ab551db1945e.jpg""]","",""
"","2691","similarity","105","1716048","0.0-6.0-99.0","6","[""img/0758/7fba58df-2a7a-4b76-8a8f-62739f97f271.jpg"",""img/0874/adf9a8f1-c40b-402b-b95b-1e85a54a7b62.jpg""]","",""
"","3738","similarity","106","1720792","0.0-6.0-100.0","1","[""img/0904/63dd06dd-dccb-47ba-9740-eb33239e18a7.jpg"",""img/0868/5fa7f9d0-f0e5-454c-8224-74d964818f56.jpg""]","",""
"","2746","similarity","107","1724544","0.0-6.0-101.0","2","[""img/0903/150cf64c-0bd2-4674-abbb-a1387cf1f3e9.jpg"",""img/0866/a15b02be-11bb-43e3-b0e0-ecc3bd7dfc49.jpg""]","",""
"","2956","similarity","108","1728504","0.0-6.0-102.0","2","[""img/0868/8b0b8473-e2c0-4331-aa56-c3a5c29369da.jpg"",""img/0769/d1be2815-fa79-46e8-b5c3-7d81caaca490.jpg""]","",""
"","5297","similarity","109","1734807","0.0-6.0-103.0","4","[""img/0902/51493fab-2a10-4385-aa88-bee3db441626.jpg"",""img/0899/fd9efb43-701f-4cd6-baaa-4c38315f4bdc.jpg""]","",""
"","3834","similarity","110","1739647","0.0-6.0-104.0","5","[""img/0868/d98ca254-b195-477f-b57e-5760a2717db8.jpg"",""img/0862/e8cc3bdf-cc43-4565-bccf-492626c70953.jpg""]","",""
"","3348","similarity","111","1743999","0.0-6.0-105.0","6","[""img/0903/59defeb8-98bd-4570-a2f8-9bd189e68ef4.jpg"",""img/0894/2d2db7b3-e8a3-499b-b63a-14f51bf73882.jpg""]","",""
"","3115","similarity","112","1748119","0.0-6.0-106.0","6","[""img/0864/afcba0a3-7e27-4757-b254-e9f05fad27e2.jpg"",""img/0874/a82926a3-0b43-4add-803c-d5f9ea7798ee.jpg""]","",""
"","2612","similarity","113","1751734","0.0-6.0-107.0","7","[""img/0862/1c20f772-3a51-4a80-aac0-f57dc9f86c28.jpg"",""img/0902/10d99c89-71f7-4c81-a31e-dfc7c59f5232.jpg""]","",""
"","8807","similarity","114","1761558","0.0-6.0-108.0","6","[""img/0904/60d1a521-edf7-4696-9263-f21ac0e62a01.jpg"",""img/0903/5c6b1f57-b3a2-40f5-9fb1-82785e24b6a0.jpg""]","",""
"","3475","similarity","115","1766038","0.0-6.0-109.0","2","[""img/0764/952d7adc-dc40-4aee-acce-18c2a1d02ea1.jpg"",""img/0864/4bd81bc6-c13d-46df-95a9-485886dc7c1b.jpg""]","",""
"","3177","similarity","116","1770222","0.0-6.0-110.0","1","[""img/0866/620cd1aa-0800-4414-8f6e-90342e7a99ad.jpg"",""img/0894/4739e06d-c31e-4bf1-bf91-c97fa9afb456.jpg""]","",""
"","3833","similarity","117","1775062","0.0-6.0-111.0","5","[""img/0899/d60714ae-98d7-4564-8c98-94dba1351135.jpg"",""img/0903/f67c4ab9-f8c2-4fcd-848a-a54a7b031002.jpg""]","",""
"","2985","similarity","118","1779054","0.0-6.0-112.0","7","[""img/0902/0db94c50-f1fb-4091-953c-29ca0466bee2.jpg"",""img/0904/e9423a8c-f946-43ad-ab7b-931acef870e2.jpg""]","",""
"","2908","similarity","119","1782966","0.0-6.0-113.0","5","[""img/0864/65210d57-1153-4657-886a-32e758f49b4a.jpg"",""img/0860/524b2e98-5767-4d53-942c-ebae6925659b.jpg""]","",""
"","1793","similarity","120","1785766","0.0-6.0-114.0","4","[""img/0860/4c530c3c-6aab-492a-94d1-9c01797bde40.jpg"",""img/0899/8abe6c69-822c-436c-9bf2-96c818b49ba5.jpg""]","",""
"","468","similarity","121","1787238","0.0-6.0-115.0","4","[""img/0881/405484ae-0d00-4b05-bc57-6420a36adfac.jpg"",""img/0903/b0df4094-a3be-4b5b-81bd-8d260f13f61b.jpg""]","",""
"","420","similarity","122","1788662","0.0-6.0-116.0","4","[""img/0894/8cadb87a-7001-4e47-99fb-1867bebf1668.jpg"",""img/0874/99f6563c-8a8d-4c1c-a41d-667b618c3fd5.jpg""]","",""
"","444","similarity","123","1790110","0.0-6.0-117.0","4","[""img/0881/ee44e27f-d662-4608-b265-e7ffa19b216f.jpg"",""img/0862/d0ca4c78-fc35-46ed-bdcc-8e124283c53e.jpg""]","",""
"","2841","similarity","124","1793958","0.0-6.0-118.0","7","[""img/0868/6a28c3b0-3d76-498a-9fb7-ddafc665eca8.jpg"",""img/0875/99698b4d-b4a1-44bc-8c83-8ea755bbbf61.jpg""]","",""
"","3541","similarity","125","1798503","0.0-6.0-119.0","6","[""img/0860/29a21a9f-54bb-4093-ad3f-04823ceaa89f.jpg"",""img/0758/7ffbc76b-1fc1-432c-8f7e-9ec8d1b3f643.jpg""]","",""
"","2705","similarity","126","1802216","0.0-6.0-120.0","5","[""img/0864/0116ca98-293d-4fa6-a93b-5a6144ef64cc.jpg"",""img/0875/fb732ab5-013a-4366-9f65-27811ed157e9.jpg""]","",""
"","80777","similarity","127","1883999","0.0-6.0-121.0","2","[""img/0898/26c41340-15bd-4ead-8fe4-c0d0ddca09c2.jpg"",""img/0866/be24ab58-230e-4db8-9f45-ff04c9aec6bb.jpg""]","",""
"","7588","similarity","128","1892590","0.0-6.0-122.0","4","[""img/0874/3f471690-9788-4d03-90c7-f615aecef149.jpg"",""img/0904/9d30eff1-46ef-4453-b11e-124ef8145c00.jpg""]","",""
"","468","similarity","129","1894062","0.0-6.0-123.0","4","[""img/0904/4b8daf2a-13a9-4ea9-9e0b-b265b6e933e7.jpg"",""img/0864/3651d070-2fc5-4848-b6a6-088a2d9ac5c9.jpg""]","",""
"","403","similarity","130","1895470","0.0-6.0-124.0","4","[""img/0894/b422d5c6-3c5a-49ae-a53e-7e88ac993f49.jpg"",""img/0902/6c2c243a-f663-45db-baf5-038d3d58c589.jpg""]","",""
"","387","similarity","131","1902814","0.0-6.0-125.0","4","[""img/0868/d6d1f30d-4323-435a-b194-7892521bc57e.jpg"",""img/0864/300bb811-8b3c-4c42-8653-6097c3725197.jpg""]","",""
"","3483","similarity","132","1907302","0.0-6.0-126.0","1","[""img/0899/0433d056-aa30-4f8a-9aa1-abbb951e4edd.jpg"",""img/0866/0207e9a2-7dbb-40b5-9459-b472aaeceb2a.jpg""]","",""
"","2180","similarity","133","1910486","0.0-6.0-127.0","1","[""img/0875/e7e66b13-b573-431e-b85e-288ce04a35a3.jpg"",""img/0904/24fc38fe-842c-4831-ad8a-b1de5c25c0a8.jpg""]","",""
"","3548","similarity","134","1915038","0.0-6.0-128.0","2","[""img/0867/aa05d113-fc19-4756-a8eb-7878f580bc92.jpg"",""img/0899/9de5e857-aa9a-4e0c-8ba2-46d79bd069a4.jpg""]","",""
"","2867","similarity","135","1918912","0.0-6.0-129.0","3","[""img/0901/a0d65c84-3f20-476a-92d1-0c01e8019cf4.jpg"",""img/0867/26611f4e-d694-4460-b7e2-43c62753ddc3.jpg""]","",""
"","2609","similarity","136","1922525","0.0-6.0-130.0","3","[""img/0864/6f631579-acf1-415c-a42c-1207f62a8d99.jpg"",""img/0769/e8ed913b-8a88-44f6-9327-d34afec3116b.jpg""]","",""
"","2364","similarity","137","1925893","0.0-6.0-131.0","2","[""img/0903/b0a3c45f-467e-412f-a183-c9c1827f2e63.jpg"",""img/0868/c8ac40c7-6904-4e13-8d61-c75d3052dc4e.jpg""]","",""
"","3670","similarity","138","1930573","0.0-6.0-132.0","6","[""img/0864/49150900-7f25-4ce8-8d10-9b47a71d1997.jpg"",""img/0867/075e0f95-856b-4cbb-acf5-092393aaf04e.jpg""]","",""
"","2612","similarity","139","1934189","0.0-6.0-133.0","5","[""img/0901/4d1bed7e-3c4e-4f6c-ada9-4beb66ba9e39.jpg"",""img/0860/702bd09d-df3a-40aa-a267-5f04474305b5.jpg""]","",""
"","5537","similarity","140","1940733","0.0-6.0-134.0","1","[""img/0881/b549bc99-a61c-4450-bab5-9efc3a197bf0.jpg"",""img/0766/ef3b15ce-abb7-4292-ad93-aec8e8b50520.jpg""]","",""
"","2650","similarity","141","1944389","0.0-6.0-135.0","1","[""img/0903/31b5a5f4-b695-4af1-bad2-a19650a05498.jpg"",""img/0864/1ebbc554-99fa-49f9-8799-317375a79820.jpg""]","",""
"","3145","similarity","142","1948541","0.0-6.0-136.0","2","[""img/0758/dd559618-7f09-4a07-8018-d311c4a5ea29.jpg"",""img/0894/e2446cf5-cd48-486a-badc-76498e087fbe.jpg""]","",""
"","2340","similarity","143","1951885","0.0-6.0-137.0","3","[""img/0769/38a88f69-28fd-4bbd-99f0-f4c02bfd3995.jpg"",""img/0860/f44ba3fb-03a2-42f0-8509-2c1ded493086.jpg""]","",""
"","2915","similarity","144","1955805","0.0-6.0-138.0","6","[""img/0904/65e2b70a-b184-4da3-b5c0-5038bdf9469a.jpg"",""img/0766/ea09dd5a-d24d-4e97-a099-7da3db1baef1.jpg""]","",""
"","4705","similarity","145","1961517","0.0-6.0-139.0","5","[""img/0868/4bd5105a-d2c3-4f82-8c80-57196106ba53.jpg"",""img/0860/c47fdead-eb02-4989-b078-26f4852f44fe.jpg""]","",""
"","2460","similarity","146","1964982","0.0-6.0-140.0","7","[""img/0758/caa93da2-9edf-49fa-96b9-32dedd8f5078.jpg"",""img/0864/5f33e097-23e3-4002-882d-76e8cb15f451.jpg""]","",""
"","2796","similarity","147","1968781","0.0-6.0-141.0","7","[""img/0867/a498eef3-9fa4-4ab2-9778-4ae82ac40dc5.jpg"",""img/0867/2e1a0b58-cdb1-4107-a14e-452530d7b9b0.jpg""]","",""
"","2857","similarity","148","1972646","0.0-6.0-142.0","7","[""img/0898/881e2a85-d5c2-49be-a0c6-8a6ce2c4af08.jpg"",""img/0898/a114b375-cb89-44ba-9498-74213f1ecdee.jpg""]","",""
"","3553","similarity","149","1977205","0.0-6.0-143.0","2","[""img/0866/6f2a90d7-14f1-4f1b-bd64-fc0af6b9fe44.jpg"",""img/0769/4a1d0b52-3fe8-40fb-bb1c-c814fe49a68c.jpg""]","",""
"","2693","similarity","150","1980901","0.0-6.0-144.0","1","[""img/0860/17b44a7d-c5ca-479f-9e87-f65a64f5c80e.jpg"",""img/0898/68476bbb-34a1-42d9-8bc1-deab783d4489.jpg""]","",""
"","3048","similarity","151","1984957","0.0-6.0-145.0","3","[""img/0766/110832e5-2646-4bd0-a94e-5df8cc314269.jpg"",""img/0864/e02eddb5-f468-499c-91bf-f7be3ffe979b.jpg""]","",""
"","4204","similarity","152","1990165","0.0-6.0-146.0","1","[""img/0860/9593362c-9fe5-4d12-9735-6000a11f6aa5.jpg"",""img/0903/005ad0de-4f52-433c-b515-dbe8d46184a3.jpg""]","",""
"","2977","similarity","153","1994149","0.0-6.0-147.0","1","[""img/0867/f8159067-056c-41f1-a136-c529fe5e970a.jpg"",""img/0764/bd2eaa3e-95a9-4a59-a78e-3f81c766eea9.jpg""]","",""
"","2245","similarity","154","1997397","0.0-6.0-148.0","7","[""img/0769/db94b61b-a5a7-4861-9d32-7b02ad194fb0.jpg"",""img/0904/06dacdc5-2206-4fb8-92b7-88042d22833c.jpg""]","",""
"","2909","similarity","155","2001309","0.0-6.0-149.0","6","[""img/0764/958b8576-3a3b-4acc-96dc-06b74de69f37.jpg"",""img/0901/effc03f6-8f9d-46db-a66c-16fc83891c5c.jpg""]","",""
"","2799","similarity","156","2005116","0.0-6.0-150.0","7","[""img/0904/96e503ea-6630-4996-85f2-0237688ce441.jpg"",""img/0899/8de08897-b430-42fe-9d42-840670b80f94.jpg""]","",""
"","2955","similarity","157","2009077","0.0-6.0-151.0","5","[""img/0862/f43ceabf-acc1-4107-b857-5d1849808f93.jpg"",""img/0867/98d8cd96-1476-4fe0-a3a3-04f875500a1b.jpg""]","",""
"","2084","similarity","158","2012165","0.0-6.0-152.0","7","[""img/0766/2e1cf445-9aef-40e7-92f4-5facf48b64c5.jpg"",""img/0766/d5d38751-8fa5-476f-93e9-86ed2d9045ef.jpg""]","",""
"","3580","similarity","159","2016749","0.0-6.0-153.0","3","[""img/0862/53a9cf7c-93c4-41b9-952f-07d17f7a17b2.jpg"",""img/0894/6aa5545f-fa7d-4286-bbaa-aaf34dc7ec96.jpg""]","",""
"","2120","similarity","160","2019876","0.0-6.0-154.0","5","[""img/0899/51a7a498-98c7-42d7-bca8-bc2d8f0b5831.jpg"",""img/0901/77087ed2-6e12-4329-b2a5-605bca6d972d.jpg""]","",""
"","5018","similarity","161","2025901","0.0-6.0-155.0","2","[""img/0874/a3bc679d-619f-4db6-bb68-116dcb757d9c.jpg"",""img/0874/767f289c-9814-4496-803f-745cc8913d1f.jpg""]","",""
"","10552","similarity","162","2037461","0.0-6.0-156.0","6","[""img/0860/8fdba999-b946-4c7d-9891-336018b563ef.jpg"",""img/0867/db7e032f-162b-46f5-ae67-2b29679adee4.jpg""]","",""
"","4043","similarity","163","2042509","0.0-6.0-157.0","2","[""img/0901/d61f267a-c492-4db6-9bfb-61efd49cf072.jpg"",""img/0881/dea58fad-b4f1-41d9-bd3f-916eff19a3fd.jpg""]","",""
"","5362","similarity","164","2048877","0.0-6.0-158.0","6","[""img/0903/647ce311-8c71-479a-8361-961db1457139.jpg"",""img/0902/97022122-01e4-46c3-a34f-c6260ad28428.jpg""]","",""
"","4352","similarity","165","2054236","0.0-6.0-159.0","2","[""img/0860/71e1aad0-2cdf-43bb-94a4-a8c016997c30.jpg"",""img/0764/29072395-f595-4e3c-83d3-ff87010039fa.jpg""]","",""
"","5180","similarity","166","2060421","0.0-6.0-160.0","2","[""img/0902/168ebd47-9e82-4ab7-a18b-c3da85072db8.jpg"",""img/0875/5a716432-c6ca-4b1c-955a-2b8ac25198ee.jpg""]","",""
"","5160","similarity","167","2066588","0.0-6.0-161.0","6","[""img/0898/b3290bf9-215b-4b45-b21a-65bdf73f142f.jpg"",""img/0862/92fcd8a4-8193-4a6a-ae09-dd4a6338b0df.jpg""]","",""
"","28982","similarity","168","2096573","0.0-6.0-162.0","2","[""img/0894/661b9f9f-4bde-487a-b1ed-87085fde6948.jpg"",""img/0875/34132396-d896-4c2d-8087-646dd867e769.jpg""]","",""
"","2843","similarity","169","2100421","0.0-6.0-163.0","6","[""img/0866/02f5e6b9-52b7-448c-9708-5b460d0c9a23.jpg"",""img/0864/e8bd659f-aa43-4748-877e-3118e8b4e189.jpg""]","",""
"","2753","similarity","170","2104180","0.0-6.0-164.0","5","[""img/0766/0b48f9e0-7d37-4161-8adb-4e3f5b6b7583.jpg"",""img/0862/ad593cc7-cabe-4bb7-8e14-8a447a0717b4.jpg""]","",""
"","4154","similarity","171","2109340","0.0-6.0-165.0","4","[""img/0866/386235d2-6857-41e7-88a8-25cfc3430025.jpg"",""img/0874/2c9464dd-8a23-4baa-ac94-1ba3af5c15cc.jpg""]","",""
"","2980","similarity","172","2113324","0.0-6.0-166.0","7","[""img/0862/e697469a-ec19-4414-b972-7b9f3564785b.jpg"",""img/0860/4f695df5-afac-4da7-9875-fee39b0b24ad.jpg""]","",""
"","2693","similarity","173","2123747","0.0-6.0-167.0","5","[""img/0766/6d32752d-aa05-40dc-9541-640b6e9d6fa1.jpg"",""img/0901/71e551a2-9ce2-409c-9c7c-dd556a0791e9.jpg""]","",""
"","5499","similarity","174","2130252","0.0-6.0-168.0","7","[""img/0862/5d887e9f-89e2-4ebc-80a0-6d46fe6480db.jpg"",""img/0862/fb26cb07-d5a9-4653-813c-f41609f26cd5.jpg""]","",""
"","4365","similarity","175","2135620","0.0-6.0-169.0","5","[""img/0894/a98416c0-51e2-4960-85da-d81d8688b9d5.jpg"",""img/0764/23ea9375-f801-4a96-9925-7d453da887c7.jpg""]","",""
"","4251","similarity","176","2140876","0.0-6.0-170.0","3","[""img/0874/bf14b896-e930-4fd9-9c05-2e83317a2773.jpg"",""img/0898/79233891-305a-4a6a-8ddf-5c8604858203.jpg""]","",""
"","4228","similarity","177","2146108","0.0-6.0-171.0","1","[""img/0860/5bff793e-cbd5-4d7e-b628-0ac2b0e30b64.jpg"",""img/0766/535849cc-ff5d-4df9-8f31-0ce94a97d571.jpg""]","",""
"","1955","similarity","178","2149068","0.0-6.0-172.0","2","[""img/0898/6cd3830b-d44e-4915-be2b-88d31424b91c.jpg"",""img/0864/efcfbb1b-8197-44c9-b723-40d6c608dd3c.jpg""]","",""
"","3500","similarity","179","2153572","0.0-6.0-173.0","3","[""img/0881/ed4c971f-0873-4fc8-b6d6-e8bbd82f0bcc.jpg"",""img/0764/4eff630a-6426-4f8d-b2ba-b4d9842a0962.jpg""]","",""
"","3669","similarity","180","2158245","0.0-6.0-174.0","1","[""img/0898/04e39a7a-fcf6-4156-ab0e-f5871f335e1c.jpg"",""img/0868/83b4350a-3b70-4cea-b7f5-b5b56f3050a8.jpg""]","",""
"","7796","similarity","181","2167045","0.0-6.0-175.0","7","[""img/0864/e336a4c5-6648-4fd7-b2f6-93a3fb83f8c6.jpg"",""img/0864/b3c4e378-28f0-4699-9338-2a257b4bca04.jpg""]","",""
"","3161","similarity","182","2171213","0.0-6.0-176.0","2","[""img/0899/06b0fc99-0581-461a-9913-d1a5a941ac61.jpg"",""img/0862/99a99e39-8355-44ec-b993-e7bcec111e1c.jpg""]","",""
"","7350","similarity","183","2179572","0.0-6.0-177.0","5","[""img/0875/a4935837-7d3c-4df6-88c1-36a94d4991ca.jpg"",""img/0758/53f35650-e455-4b53-8be4-c3c8271c6466.jpg""]","",""
"","5065","similarity","184","2185645","0.0-6.0-178.0","2","[""img/0866/11a1d141-be5e-443c-98c1-a9d4d9e3dec0.jpg"",""img/0901/5657dd86-0ff9-4753-ba2b-9dfb223e5c89.jpg""]","",""
"","7860","similarity","185","2194509","0.0-6.0-179.0","2","[""img/0769/47700831-0ca2-4fdd-a498-a3bc5a528f43.jpg"",""img/0874/ca76a855-4e77-4f2f-872a-0a718153e7ed.jpg""]","",""
"","18286","similarity","186","2213804","0.0-6.0-180.0","1","[""img/0875/42910c99-5463-450a-a0f8-d4d060a11455.jpg"",""img/0881/14236cf2-6b95-48b8-9368-78af09d2d27f.jpg""]","",""
"","4793","similarity","187","2219603","0.0-6.0-181.0","7","[""img/0866/bf14b5bd-fb55-47db-86b9-4f8aeb9a6dad.jpg"",""img/0868/3a62db2d-97e9-44a3-b8e3-a48c6f0e423b.jpg""]","",""
"","3139","similarity","188","2223748","0.0-6.0-182.0","3","[""img/0899/1b3457ea-87d4-4946-a01c-aac1863ed46c.jpg"",""img/0758/6cd8c362-ae2a-41eb-80a3-3a4f7ace1530.jpg""]","",""
"","2087","similarity","189","2226843","0.0-6.0-183.0","5","[""img/0874/7e4f2150-3b59-4a36-b5da-a4e0ba410531.jpg"",""img/0875/5a7c4e35-6514-4e12-8879-d16071da4cd6.jpg""]","",""
"","3308","similarity","190","2231156","0.0-6.0-184.0","2","[""img/0904/b5855d6a-7ef9-46ca-9215-6e9fa046e543.jpg"",""img/0862/4f0a3b4c-afbf-486e-b248-1d54982f54b4.jpg""]","",""
"","5252","similarity","191","2237411","0.0-6.0-185.0","2","[""img/0902/22ed3536-288b-452e-9777-0fa0ab94deb0.jpg"",""img/0766/27f54113-8561-4568-9ffe-0a1650ae65ec.jpg""]","",""
"","2922","similarity","192","2241339","0.0-6.0-186.0","3","[""img/0758/d540bee6-b460-4c32-ac57-bc282742d7d4.jpg"",""img/0769/878531fd-e0e8-4ad1-b9ad-f018bb104ca0.jpg""]","",""
"","2865","similarity","193","2245211","0.0-6.0-187.0","7","[""img/0881/292e9b4b-fca0-4ba8-87f1-4048f9e37b7d.jpg"",""img/0881/62a64f90-7a72-4aee-a1a1-0c548ac9bdda.jpg""]","",""
"","3089","similarity","194","2249307","0.0-6.0-188.0","5","[""img/0758/d41c06bf-ebaf-454b-91c6-1a17f917b659.jpg"",""img/0866/945c6710-d15b-4a5b-a8f6-69af0850357f.jpg""]","",""
"","4866","similarity","195","2255179","0.0-6.0-189.0","7","[""img/0764/c643e165-df19-459f-8c2b-8357bf432a17.jpg"",""img/0898/e167334e-cc1d-4986-b3b1-c7bc7da64baa.jpg""]","",""
"","4602","similarity","196","2260787","0.0-6.0-190.0","5","[""img/0903/bf0a7d60-eca5-44b0-bafd-baf21db9904b.jpg"",""img/0901/fb0a8e69-7f19-4e6e-a6bb-a48f97f9b4f3.jpg""]","",""
"","3242","similarity","197","2265035","0.0-6.0-191.0","6","[""img/0902/94ee9c53-a9a2-4f95-b9b7-794a5fc62bb6.jpg"",""img/0898/5f699581-3853-4547-856c-12f419ba5af7.jpg""]","",""
"","6159","similarity","198","2272204","0.0-6.0-192.0","7","[""img/0864/8ddd2e30-a1d0-479f-9cbe-591213023893.jpg"",""img/0901/c6df1a21-44ed-47c2-960e-7c52220e329e.jpg""]","",""
"","3867","similarity","199","2277074","0.0-6.0-193.0","2","[""img/0894/76c1201f-8524-4865-85e6-dda8cb4ac986.jpg"",""img/0881/7e31e5dc-2240-4b1b-b5a0-3acd980099ef.jpg""]","",""
"","2107","similarity","200","2280189","0.0-6.0-194.0","7","[""img/0868/293079b8-7e0c-4afd-a390-1e5d35fe3ded.jpg"",""img/0868/1a62b2b2-18f5-466e-b564-5176a57c565e.jpg""]","",""
"","3563","similarity","201","2284756","0.0-6.0-195.0","5","[""img/0899/ad8268c5-8199-48d0-ad70-c5b6d6c599ec.jpg"",""img/0764/5d6fa3ce-9083-410c-bbdb-336a49b94cfc.jpg""]","",""
"","3778","similarity","202","2289540","0.0-6.0-196.0","2","[""img/0881/0c7068da-d0d9-4103-bda1-74ef7a2b32c3.jpg"",""img/0904/2fd488e9-960f-41f7-8a44-33375f7d5051.jpg""]","",""
"","21337","similarity","203","2311884","0.0-6.0-197.0","7","[""img/0864/6e846d43-94a6-4b37-a268-65eda979f052.jpg"",""img/0902/511abb54-0094-4f4d-b6dc-3f2c97050521.jpg""]","",""
"","2861","similarity","204","2315747","0.0-6.0-198.0","5","[""img/0894/b2d2f66e-e480-46da-a02a-6d0c6b285d78.jpg"",""img/0904/0d17b811-063e-416e-a23c-3b3cfa4fcce5.jpg""]","",""
"","2306","similarity","205","2319060","0.0-6.0-199.0","7","[""img/0901/08d6d1d1-c043-43c4-bb08-d45e062822b9.jpg"",""img/0901/443f2e59-199b-4f7b-9de9-c44ad97326a5.jpg""]","",""
"","3156","similarity","206","2323219","0.0-6.0-200.0","2","[""img/0894/5f15154e-e72e-4ce5-aafb-bce6f0564006.jpg"",""img/0860/c3379ff7-0763-48fe-a1ec-7ea3d611bc7a.jpg""]","",""
"","3300","similarity","207","2327523","0.0-6.0-201.0","6","[""img/0898/ec565187-2e31-4fdd-9a5c-153d0c789ae0.jpg"",""img/0903/47e39de8-6959-469f-8be9-6999a6db207c.jpg""]","",""
"","2763","similarity","208","2331291","0.0-6.0-202.0","1","[""img/0864/ef9cbca0-4be8-435d-ad49-977259e80409.jpg"",""img/0894/3adef67d-7676-4995-80b2-bb31b8aca3ef.jpg""]","",""
"","3138","similarity","209","2335435","0.0-6.0-203.0","6","[""img/0874/c0378dac-9370-439a-8b79-db27c96fb390.jpg"",""img/0860/31ff6436-98bf-4652-bed2-40f627229568.jpg""]","",""
"","4733","similarity","210","2341171","0.0-6.0-204.0","7","[""img/0862/064818ee-13d5-4618-bb24-21c7368ea278.jpg"",""img/0875/dbdd643e-6d0e-4a5c-ab57-b9c29b9c981a.jpg""]","",""
"","5818","similarity","211","2347995","0.0-6.0-205.0","5","[""img/0867/cc72ed48-7704-422c-86d6-467a1145287a.jpg"",""img/0881/633c6f40-56d9-4b48-bf1c-ecd83116eabb.jpg""]","",""
"","2756","similarity","212","2351755","0.0-6.0-206.0","7","[""img/0901/1ede21d9-384f-4150-86b5-e1c57b5dc1d4.jpg"",""img/0902/d5e25767-e8ec-45f3-ac0a-7b4a6f7a9edc.jpg""]","",""
"","3133","similarity","213","2355892","0.0-6.0-207.0","1","[""img/0899/66bf4113-ee12-426c-84d2-ea410b6c803e.jpg"",""img/0864/0f537697-a314-47c3-a8cc-8df23b7e536c.jpg""]","",""
"","2902","similarity","214","2359803","0.0-6.0-208.0","2","[""img/0901/a6776381-91fe-43f8-ab73-261d318f95fd.jpg"",""img/0769/11518cb3-13ea-4dd0-890c-30cfab728ade.jpg""]","",""
"","3661","similarity","215","2368986","0.0-6.0-209.0","7","[""img/0902/0eb85fbc-27c8-41df-9d0b-a5f9efd417d1.jpg"",""img/0902/f3cfec34-482c-4bdb-9c92-19ea6cfce183.jpg""]","",""
"[{""page_index"":0,""viewing_time"":3287}]","3288","instructions","216","2373275","0.0-7.0","","","",""
"","8760","image-multi-choice","217","2383053","0.0-8.0-0.0","","","{""Q0"":""Tennessee Warbler""}","Nashville Warbler"
"","6374","image-multi-choice","218","2390445","0.0-8.0-1.0","","","{""Q0"":""Black-and-white Warbler""}","Black-and-white Warbler"
"","11033","image-multi-choice","219","2402506","0.0-8.0-2.0","","","{""Q0"":""Townsend's Warbler""}","Townsend's Warbler"
"","11786","image-multi-choice","220","2415306","0.0-8.0-3.0","","","{""Q0"":""Lark Sparrow""}","Lark Sparrow"
"","5183","image-multi-choice","221","2421499","0.0-8.0-4.0","","","{""Q0"":""Yellow Warbler""}","Yellow Warbler"
"","13819","image-multi-choice","222","2436331","0.0-8.0-5.0","","","{""Q0"":""Orange-crowned Warbler""}","Orange-crowned Warbler"
"","14029","image-multi-choice","223","2451370","0.0-8.0-6.0","","","{""Q0"":""White-throated Sparrow""}","White-throated Sparrow"
"","6905","image-multi-choice","224","2459291","0.0-8.0-7.0","","","{""Q0"":""Fox Sparrow""}","Fox Sparrow"
"","8555","image-multi-choice","225","2468859","0.0-8.0-8.0","","","{""Q0"":""Song Sparrow""}","Song Sparrow"
"","31462","image-multi-choice","226","2501330","0.0-8.0-9.0","","","{""Q0"":""Townsend's Warbler""}","Blackburnian Warbler"
"","12045","image-multi-choice","227","2514385","0.0-8.0-10.0","","","{""Q0"":""Vesper Sparrow""}","Vesper Sparrow"
"","3597","image-multi-choice","228","2518994","0.0-8.0-11.0","","","{""Q0"":""White-crowned Sparrow""}","White-crowned Sparrow"
"","9202","image-multi-choice","229","2529204","0.0-8.0-12.0","","","{""Q0"":""Chipping Sparrow""}","American Tree Sparrow"
"","4489","image-multi-choice","230","2534714","0.0-8.0-13.0","","","{""Q0"":""Orange-crowned Warbler""}","Tennessee Warbler"
"","5204","image-multi-choice","231","2540931","0.0-8.0-14.0","","","{""Q0"":""Magnolia Warbler""}","Magnolia Warbler"
"","4555","image-multi-choice","232","2546498","0.0-8.0-15.0","","","{""Q0"":""Northern Waterthrush""}","Northern Waterthrush"
"","3533","image-multi-choice","233","2551042","0.0-8.0-16.0","","","{""Q0"":""Chipping Sparrow""}","Chipping Sparrow"
"","9741","image-multi-choice","234","2561795","0.0-8.0-17.0","","","{""Q0"":""Swamp Sparrow""}","Swamp Sparrow"
"","20406","image-multi-choice","235","2583210","0.0-8.0-18.0","","","{""Q0"":""Song Sparrow""}","Lincoln's Sparrow"
"","7004","image-multi-choice","236","2591226","0.0-8.0-19.0","","","{""Q0"":""Ovenbird""}","Ovenbird"
