"view_history","rt","trial_type","trial_index","time_elapsed","internal_node_id","sim_score","stimulus","responses","answer"
"[{""page_index"":0,""viewing_time"":22497}]","22498","instructions","0","22500","0.0-0.0","","","",""
"","11319","similarity_demo","1","34828","0.0-1.0","6","[""img/866.jpg"",""img/868.jpg""]","",""
"[{""page_index"":0,""viewing_time"":20637}]","20638","instructions","2","56467","0.0-2.0","","","",""
"","6063","similarity_demo","3","63537","0.0-3.0","2","[""img/766.jpg"",""img/867.jpg""]","",""
"[{""page_index"":0,""viewing_time"":8128}]","8129","instructions","4","72668","0.0-4.0","","","",""
"[{""page_index"":0,""viewing_time"":30636}]","30637","instructions","5","104306","0.0-5.0","","","",""
"","5619","similarity","6","110932","0.0-6.0-0.0","1","[""img/0868/c8ac40c7-6904-4e13-8d61-c75d3052dc4e.jpg"",""img/0901/08d6d1d1-c043-43c4-bb08-d45e062822b9.jpg""]","",""
"","4534","similarity","7","116471","0.0-6.0-1.0","2","[""img/0769/76eaa4a3-dfe9-4dc1-9efb-caebe86264e1.jpg"",""img/0867/aa05d113-fc19-4756-a8eb-7878f580bc92.jpg""]","",""
"","6774","similarity","8","124251","0.0-6.0-2.0","2","[""img/0766/51d3aab4-3d09-4dda-b99d-3dc7aaabc6f2.jpg"",""img/0898/40f99fb2-64d2-4e72-8a7f-a1cf60741e69.jpg""]","",""
"","5567","similarity","9","130821","0.0-6.0-3.0","3","[""img/0902/e5a46bda-30d1-41ca-b36d-b8529b5a63d1.jpg"",""img/0881/f4e3e181-b3c9-4af2-a5a4-fc135ab70d2e.jpg""]","",""
"","5464","similarity","10","137290","0.0-6.0-4.0","3","[""img/0894/7f2f31fd-6618-41c6-b65a-0fd8b2851bc9.jpg"",""img/0894/76c1201f-8524-4865-85e6-dda8cb4ac986.jpg""]","",""
"","5952","similarity","11","144245","0.0-6.0-5.0","3","[""img/0874/29830da7-be5f-44e5-b141-652a0ccf7269.jpg"",""img/0899/565ccdd9-0933-4536-a625-3c0e25a713dd.jpg""]","",""
"","6541","similarity","12","151789","0.0-6.0-6.0","6","[""img/0904/696ebb60-8891-417a-91fd-c53218907a95.jpg"",""img/0764/978aede9-4590-4ad0-b234-135c83e5d669.jpg""]","",""
"","5110","similarity","13","157903","0.0-6.0-7.0","5","[""img/0899/76ad07e2-ca25-45eb-84f2-8d80b8ca3e26.jpg"",""img/0898/68476bbb-34a1-42d9-8bc1-deab783d4489.jpg""]","",""
"","6164","similarity","14","165072","0.0-6.0-8.0","2","[""img/0874/767f289c-9814-4496-803f-745cc8913d1f.jpg"",""img/0903/0e5c2854-42aa-48c0-9c3d-6e1ad2a400bd.jpg""]","",""
"","6394","similarity","15","172469","0.0-6.0-9.0","6","[""img/0881/54ea8e77-c7e5-4197-b7fa-00b7020849a7.jpg"",""img/0758/65d426d6-3ff6-415d-8654-a43b83ecc4fe.jpg""]","",""
"","6299","similarity","16","179771","0.0-6.0-10.0","2","[""img/0898/a8f16b02-e19f-423b-86c3-a36562ae1f9b.jpg"",""img/0901/a6c90438-fa7c-4418-ac7c-16c2e772dd98.jpg""]","",""
"","9336","similarity","17","190110","0.0-6.0-11.0","3","[""img/0903/9b60ef5b-234f-4239-892b-3d4c412accc2.jpg"",""img/0769/ebef2ddc-ba59-4e0e-97f8-927864eb5081.jpg""]","",""
"","5114","similarity","18","196229","0.0-6.0-12.0","1","[""img/0764/6c7fe363-2d37-418f-9e5e-a3273af5d4fb.jpg"",""img/0868/4e626425-63c8-484a-8a1d-e66ee4e0bef8.jpg""]","",""
"","4135","similarity","19","201368","0.0-6.0-13.0","1","[""img/0867/db7e032f-162b-46f5-ae67-2b29679adee4.jpg"",""img/0903/43ffd882-077a-40dd-a264-e58d519420a1.jpg""]","",""
"","3760","similarity","20","206131","0.0-6.0-14.0","1","[""img/0766/af3be95e-e52e-4fae-899b-0ff02ec340aa.jpg"",""img/0758/7ffbc76b-1fc1-432c-8f7e-9ec8d1b3f643.jpg""]","",""
"","5424","similarity","21","212560","0.0-6.0-15.0","2","[""img/0902/51493fab-2a10-4385-aa88-bee3db441626.jpg"",""img/0860/524b2e98-5767-4d53-942c-ebae6925659b.jpg""]","",""
"","4870","similarity","22","218433","0.0-6.0-16.0","1","[""img/0769/d1be2815-fa79-46e8-b5c3-7d81caaca490.jpg"",""img/0875/5a1e5100-0d94-4fec-bbe9-ca9894d2cf8e.jpg""]","",""
"","5634","similarity","23","225078","0.0-6.0-17.0","2","[""img/0904/fe746a3f-8458-48d0-8a13-8cba2a9df9f8.jpg"",""img/0866/945c6710-d15b-4a5b-a8f6-69af0850357f.jpg""]","",""
"","4815","similarity","24","230899","0.0-6.0-18.0","7","[""img/0875/a4935837-7d3c-4df6-88c1-36a94d4991ca.jpg"",""img/0875/2c361b79-c3d1-4eda-812e-bf03192407bf.jpg""]","",""
"","4160","similarity","25","236064","0.0-6.0-19.0","7","[""img/0758/7ee8bc8f-c40b-4b3a-84ec-3e83580622d4.jpg"",""img/0758/2fa3e613-e676-4e6e-bd12-705327eeb3e1.jpg""]","",""
"","4912","similarity","26","241980","0.0-6.0-20.0","2","[""img/0902/417d8b4a-3c72-4adc-ac78-820e833316f2.jpg"",""img/0874/93d1f8dc-acf2-4f03-bd8d-8ec35df276ed.jpg""]","",""
"","6384","similarity","27","249368","0.0-6.0-21.0","4","[""img/0764/d7c215ab-ea9a-45be-8d5f-417d5b9a8a17.jpg"",""img/0769/458d9c77-b844-40b5-bb1b-1e3bbd4da64e.jpg""]","",""
"","3894","similarity","28","254266","0.0-6.0-22.0","1","[""img/0901/693e0535-ef7e-4d60-af9d-fac2f38e8307.jpg"",""img/0874/8cdb1c07-1c32-46d2-981c-3636560fa6e5.jpg""]","",""
"","3368","similarity","29","258638","0.0-6.0-23.0","1","[""img/0875/cff79b3a-a797-4393-9757-6275f999ec04.jpg"",""img/0903/14f179a2-8786-48a2-8377-88d1d404341b.jpg""]","",""
"","4326","similarity","30","263969","0.0-6.0-24.0","1","[""img/0769/3adfa417-3b90-4aab-b437-5eaa474189cb.jpg"",""img/0881/ee44e27f-d662-4608-b265-e7ffa19b216f.jpg""]","",""
"","3968","similarity","31","268942","0.0-6.0-25.0","1","[""img/0867/85a96c62-548f-4994-9553-819e03c3135a.jpg"",""img/0904/9dd5708f-3f8b-46a9-b49f-2f2fab87b357.jpg""]","",""
"","4864","similarity","32","274811","0.0-6.0-26.0","1","[""img/0860/17b44a7d-c5ca-479f-9e87-f65a64f5c80e.jpg"",""img/0881/0c7068da-d0d9-4103-bda1-74ef7a2b32c3.jpg""]","",""
"","4129","similarity","33","279945","0.0-6.0-27.0","7","[""img/0866/6f2a90d7-14f1-4f1b-bd64-fc0af6b9fe44.jpg"",""img/0866/23a224f3-2012-4fc8-8e0f-3c36f8de27fd.jpg""]","",""
"","6502","similarity","34","287451","0.0-6.0-28.0","2","[""img/0764/f990b2e8-ecee-481e-be7c-0239fce350e2.jpg"",""img/0862/064818ee-13d5-4618-bb24-21c7368ea278.jpg""]","",""
"","4489","similarity","35","292943","0.0-6.0-29.0","2","[""img/0904/ba8e689e-9ca6-4608-a2a1-3b0940666ae6.jpg"",""img/0758/3ddd05d3-557e-4ee7-8b78-9d2d681d8ae2.jpg""]","",""
"","6706","similarity","36","300653","0.0-6.0-30.0","2","[""img/0894/2d2db7b3-e8a3-499b-b63a-14f51bf73882.jpg"",""img/0899/f95cbdb4-f804-4f5d-ad76-373ad343e658.jpg""]","",""
"","6657","similarity","37","308314","0.0-6.0-31.0","1","[""img/0860/e8b8c51e-1834-4875-8b61-6c5bc9b178bd.jpg"",""img/0904/09934646-45d2-4147-8fec-64a22a5ac822.jpg""]","",""
"","4205","similarity","38","313524","0.0-6.0-32.0","6","[""img/0874/a3bc679d-619f-4db6-bb68-116dcb757d9c.jpg"",""img/0881/4da99fdd-1f40-4bbb-8e21-8833eef313f5.jpg""]","",""
"","6130","similarity","39","320658","0.0-6.0-33.0","2","[""img/0881/344de456-b358-4887-bd0e-e4c3278af887.jpg"",""img/0899/00715b3f-851b-420b-a26b-d7f79f7759a9.jpg""]","",""
"","3006","similarity","40","324667","0.0-6.0-34.0","1","[""img/0866/9b38d691-1802-4959-ab3f-fc902f0e4ea6.jpg"",""img/0862/847e5208-38ec-4f36-949c-296cdd7424ee.jpg""]","",""
"","3502","similarity","41","329172","0.0-6.0-35.0","2","[""img/0868/77091fc7-a590-4ebb-b915-fdb2483a2399.jpg"",""img/0894/9b1333fd-3561-43bf-aee5-99b7b7ca3dc3.jpg""]","",""
"","3630","similarity","42","333808","0.0-6.0-36.0","7","[""img/0860/61fb959d-d4d9-4de4-9e4e-4fa62b4cfcd5.jpg"",""img/0860/94ef7afc-e0e6-4a15-98c6-0bfac82bc832.jpg""]","",""
"","5666","similarity","43","340478","0.0-6.0-37.0","3","[""img/0862/92fcd8a4-8193-4a6a-ae09-dd4a6338b0df.jpg"",""img/0864/c3b63e8f-ea39-4d70-a1f2-b3fe4be8eb75.jpg""]","",""
"","2954","similarity","44","344437","0.0-6.0-38.0","1","[""img/0766/69e486f7-dbef-456b-9d48-53d814248a28.jpg"",""img/0866/0207e9a2-7dbb-40b5-9459-b472aaeceb2a.jpg""]","",""
"","5224","similarity","45","350666","0.0-6.0-39.0","1","[""img/0875/3ecb367d-e9eb-4826-8aaa-7aa72fb98019.jpg"",""img/0898/b3290bf9-215b-4b45-b21a-65bdf73f142f.jpg""]","",""
"","6134","similarity","46","357804","0.0-6.0-40.0","6","[""img/0766/006035d8-c736-4daf-bbe4-a9e373af9da6.jpg"",""img/0769/da36e3f7-2337-434f-ab57-11822dd7eed7.jpg""]","",""
"","4051","similarity","47","387714","0.0-6.0-41.0","1","[""img/0874/1016b306-087c-4afc-aa08-fa527b28dc76.jpg"",""img/0764/5d83b9db-3b2b-4dc8-9bd1-2b515b19c858.jpg""]","",""
"","3995","similarity","48","392714","0.0-6.0-42.0","3","[""img/0868/1a62b2b2-18f5-466e-b564-5176a57c565e.jpg"",""img/0902/af40b98b-3d23-4d95-b401-49ba5783ce39.jpg""]","",""
"","4259","similarity","49","397978","0.0-6.0-43.0","3","[""img/0875/90da8d75-108a-44ad-b999-e21fee3860d3.jpg"",""img/0899/51a7a498-98c7-42d7-bca8-bc2d8f0b5831.jpg""]","",""
"","3047","similarity","50","402031","0.0-6.0-44.0","1","[""img/0866/620cd1aa-0800-4414-8f6e-90342e7a99ad.jpg"",""img/0860/e14d67c1-6d92-4f1e-9257-c8607159c19c.jpg""]","",""
"","3083","similarity","51","406118","0.0-6.0-45.0","4","[""img/0766/535849cc-ff5d-4df9-8f31-0ce94a97d571.jpg"",""img/0903/4cbdc464-e562-4ec2-9bb6-15f894fdf528.jpg""]","",""
"","5417","similarity","52","412540","0.0-6.0-46.0","4","[""img/0901/c6df1a21-44ed-47c2-960e-7c52220e329e.jpg"",""img/0904/b7c2a2c8-df33-4473-b3d4-ff7147c60db3.jpg""]","",""
"","4298","similarity","53","417843","0.0-6.0-47.0","4","[""img/0758/821c68d3-5cb0-4eae-8659-30e6263fca39.jpg"",""img/0902/0db94c50-f1fb-4091-953c-29ca0466bee2.jpg""]","",""
"","3636","similarity","54","422483","0.0-6.0-48.0","7","[""img/0764/b328441c-f81c-486c-9eae-b947c70ba7cd.jpg"",""img/0764/4952d0a0-c9be-471a-8ec7-94a37bf4051d.jpg""]","",""
"","3218","similarity","55","426706","0.0-6.0-49.0","2","[""img/0866/be24ab58-230e-4db8-9f45-ff04c9aec6bb.jpg"",""img/0902/a6fb6dd5-696c-47ec-be7d-d7b88f1544f1.jpg""]","",""
"","4305","similarity","56","432014","0.0-6.0-50.0","2","[""img/0764/8389e74f-e0e0-435d-945f-da1f4c92ccb6.jpg"",""img/0758/9fb5b2fe-3f00-4fe6-973c-1ce10d5f4cd5.jpg""]","",""
"","4130","similarity","57","437149","0.0-6.0-51.0","5","[""img/0898/c3cecf20-f7fd-45fa-97d0-dc0a63e8d6c0.jpg"",""img/0894/b2d2f66e-e480-46da-a02a-6d0c6b285d78.jpg""]","",""
"","4289","similarity","58","442441","0.0-6.0-52.0","5","[""img/0875/527ced51-8e53-4aab-ab05-86df219104c0.jpg"",""img/0866/4a87911a-d5be-4d4e-ab8e-3d1f581bf507.jpg""]","",""
"","4540","similarity","59","447985","0.0-6.0-53.0","6","[""img/0904/9b3568cc-3cf7-42be-9df3-fdafde7a58b8.jpg"",""img/0904/d23dd7be-7fe8-4435-82f7-bd592c01e6a1.jpg""]","",""
"","5615","similarity","60","454605","0.0-6.0-54.0","7","[""img/0769/1d8734c4-77ab-4165-9e71-5cfe672ff01c.jpg"",""img/0769/8056889f-2b14-4782-bb25-b4e8896ab65b.jpg""]","",""
"","3816","similarity","61","459424","0.0-6.0-55.0","3","[""img/0898/6cd3830b-d44e-4915-be2b-88d31424b91c.jpg"",""img/0758/ddc336e9-a8b6-4bb9-937a-c7e25e0e9250.jpg""]","",""
"","3487","similarity","62","463915","0.0-6.0-56.0","5","[""img/0769/38a88f69-28fd-4bbd-99f0-f4c02bfd3995.jpg"",""img/0902/95a36b6b-9601-4fa5-8fd9-606ea62f9425.jpg""]","",""
"","3058","similarity","63","467977","0.0-6.0-57.0","6","[""img/0864/6e846d43-94a6-4b37-a268-65eda979f052.jpg"",""img/0881/20af39f5-373d-4a55-a437-2dc4c0382c46.jpg""]","",""
"","5550","similarity","64","474532","0.0-6.0-58.0","2","[""img/0758/7fba58df-2a7a-4b76-8a8f-62739f97f271.jpg"",""img/0868/15dd6fd7-791e-4b53-b203-195d617521a4.jpg""]","",""
"","3394","similarity","65","478933","0.0-6.0-59.0","2","[""img/0862/7918ca67-5bd3-4606-a5ea-c39fb11a9297.jpg"",""img/0769/3c1efec9-f8fd-487d-8955-4be88e48c832.jpg""]","",""
"","5610","similarity","66","485549","0.0-6.0-60.0","5","[""img/0764/c80b3e06-2ee3-4326-9678-340607eb5348.jpg"",""img/0903/8f7f9939-b8e6-433f-93dd-b362496c80a7.jpg""]","",""
"","3491","similarity","67","490044","0.0-6.0-61.0","7","[""img/0899/d8f2dd94-570e-4e8c-a087-d96090fb9e8c.jpg"",""img/0899/06b0fc99-0581-461a-9913-d1a5a941ac61.jpg""]","",""
"","6379","similarity","68","497429","0.0-6.0-62.0","4","[""img/0860/702bd09d-df3a-40aa-a267-5f04474305b5.jpg"",""img/0875/f87b67d7-c33e-40d1-b281-248c4be1cb6e.jpg""]","",""
"","2932","similarity","69","501366","0.0-6.0-63.0","2","[""img/0868/179a5502-ab5c-478e-8263-5a1fbcc101d2.jpg"",""img/0874/99f6563c-8a8d-4c1c-a41d-667b618c3fd5.jpg""]","",""
"","4252","similarity","70","506623","0.0-6.0-64.0","3","[""img/0758/335851a0-a55b-46d8-ab05-8463eda48349.jpg"",""img/0862/f43ceabf-acc1-4107-b857-5d1849808f93.jpg""]","",""
"","3787","similarity","71","511416","0.0-6.0-65.0","6","[""img/0904/9d30eff1-46ef-4453-b11e-124ef8145c00.jpg"",""img/0898/8605a25b-6895-476d-8c13-df7a83f96093.jpg""]","",""
"","3520","similarity","72","515939","0.0-6.0-66.0","3","[""img/0881/c24f3051-eefa-42de-aba6-fccb56d93c70.jpg"",""img/0866/a04d37f0-99dd-478a-b6c6-58b215138f84.jpg""]","",""
"","3915","similarity","73","520858","0.0-6.0-67.0","1","[""img/0867/f26f6b60-f772-4f4c-95a4-addc62cfd692.jpg"",""img/0898/4184e5a2-84ea-4f36-9b42-ae58646f6f87.jpg""]","",""
"","4677","similarity","74","526540","0.0-6.0-68.0","6","[""img/0902/24d10fe7-314f-4d5a-8c7b-b43121bba0a4.jpg"",""img/0764/a3226bc4-dcc3-4608-bde8-1414d685ce5c.jpg""]","",""
"","3477","similarity","75","531020","0.0-6.0-69.0","5","[""img/0875/34132396-d896-4c2d-8087-646dd867e769.jpg"",""img/0867/1719a35d-f085-48c0-9099-16c94fe418b4.jpg""]","",""
"","3734","similarity","76","535759","0.0-6.0-70.0","6","[""img/0766/26d3ae14-8275-4e08-99b2-a6598c193ddf.jpg"",""img/0764/39a9fc7e-b863-432c-9374-de43983f31a5.jpg""]","",""
"","6930","similarity","77","543694","0.0-6.0-71.0","3","[""img/0894/05161000-f476-499b-a878-c13c7f347fd9.jpg"",""img/0867/bf560d4f-dee3-4f11-a385-705cc1aa5f3c.jpg""]","",""
"","3551","similarity","78","548250","0.0-6.0-72.0","2","[""img/0875/5a716432-c6ca-4b1c-955a-2b8ac25198ee.jpg"",""img/0764/4eff630a-6426-4f8d-b2ba-b4d9842a0962.jpg""]","",""
"","3129","similarity","79","552382","0.0-6.0-73.0","7","[""img/0867/c71dc569-f49c-4397-8381-68b8d726736d.jpg"",""img/0866/8efcaa46-83ab-4dee-a35f-850402aa21ae.jpg""]","",""
"","3680","similarity","80","557064","0.0-6.0-74.0","3","[""img/0903/150cf64c-0bd2-4674-abbb-a1387cf1f3e9.jpg"",""img/0758/e1ba5e53-addc-436a-b428-d34fc1b130dc.jpg""]","",""
"","2807","similarity","81","560875","0.0-6.0-75.0","1","[""img/0766/3c526a07-9e0a-4ae2-8142-00085f0127da.jpg"",""img/0868/3a62db2d-97e9-44a3-b8e3-a48c6f0e423b.jpg""]","",""
"","3400","similarity","82","565278","0.0-6.0-76.0","3","[""img/0874/adf9a8f1-c40b-402b-b95b-1e85a54a7b62.jpg"",""img/0766/6d32752d-aa05-40dc-9541-640b6e9d6fa1.jpg""]","",""
"","3008","similarity","83","569291","0.0-6.0-77.0","3","[""img/0881/633c6f40-56d9-4b48-bf1c-ecd83116eabb.jpg"",""img/0868/6a28c3b0-3d76-498a-9fb7-ddafc665eca8.jpg""]","",""
"","3350","similarity","84","573646","0.0-6.0-78.0","2","[""img/0758/a709631e-3705-4725-ac40-f0d916924f08.jpg"",""img/0901/b9141736-3041-4385-a586-b1fe911c76a5.jpg""]","",""
"","4549","similarity","85","579200","0.0-6.0-79.0","3","[""img/0881/405484ae-0d00-4b05-bc57-6420a36adfac.jpg"",""img/0898/01bfe666-3510-4fc7-964f-d00d28732dc8.jpg""]","",""
"","2735","similarity","86","582939","0.0-6.0-80.0","2","[""img/0867/50a1b60e-3a29-44bf-b606-d4bd3746fea9.jpg"",""img/0758/d57c2592-a317-4f63-91be-91a3a9afd222.jpg""]","",""
"","3011","similarity","87","586953","0.0-6.0-81.0","6","[""img/0769/c7cfacc3-7f07-46ff-9f5d-8073f4c4679b.jpg"",""img/0899/66ab3178-c3fe-4455-ad17-d5952b08e018.jpg""]","",""
"","3419","similarity","88","591377","0.0-6.0-82.0","7","[""img/0903/31b5a5f4-b695-4af1-bad2-a19650a05498.jpg"",""img/0903/47e39de8-6959-469f-8be9-6999a6db207c.jpg""]","",""
"","4223","similarity","89","601657","0.0-6.0-83.0","3","[""img/0867/5e07b34d-b40f-4b1c-ac10-49975bace45f.jpg"",""img/0766/75c3d627-4f3b-40d5-9d9c-10c8a62db644.jpg""]","",""
"","2932","similarity","90","605592","0.0-6.0-84.0","3","[""img/0902/962f645e-9b55-4628-9b50-c703422bfe1a.jpg"",""img/0867/6e19c858-b606-45b2-a4c6-910a73f1d82c.jpg""]","",""
"","2999","similarity","91","609594","0.0-6.0-85.0","2","[""img/0901/50e1d53e-a49f-4806-8610-be6dec5a2475.jpg"",""img/0875/ebf7653f-ff45-4e9f-af58-2c042ab3cd2b.jpg""]","",""
"","4081","similarity","92","614680","0.0-6.0-86.0","4","[""img/0764/952d7adc-dc40-4aee-acce-18c2a1d02ea1.jpg"",""img/0866/d493a2c8-66eb-44b4-be02-2f327b700b7c.jpg""]","",""
"","3845","similarity","93","619529","0.0-6.0-87.0","5","[""img/0901/62315ff5-ed95-46b4-b099-92552079659b.jpg"",""img/0894/e6385e52-6c35-43bd-b0af-bc803d107b11.jpg""]","",""
"","4819","similarity","94","625352","0.0-6.0-88.0","6","[""img/0898/224c1572-56b9-4f16-a9e4-6f3bc9c114bd.jpg"",""img/0769/aad494cc-674d-4a08-9bfa-24a88ebe3c79.jpg""]","",""
"","4314","similarity","95","630669","0.0-6.0-89.0","6","[""img/0769/f6396414-6788-4d59-9683-de153298d89c.jpg"",""img/0894/661b9f9f-4bde-487a-b1ed-87085fde6948.jpg""]","",""
"","3244","similarity","96","634917","0.0-6.0-90.0","4","[""img/0862/e0f1a4e9-e1b6-45f7-af67-89f334e6630d.jpg"",""img/0874/31e22c7c-99aa-40b1-bf03-dd73fa2df4d6.jpg""]","",""
"","3578","similarity","97","639498","0.0-6.0-91.0","5","[""img/0894/11674fa4-285d-44e2-939f-2228c6a64080.jpg"",""img/0766/db750ba0-ce04-46e1-b601-e1b80212bad2.jpg""]","",""
"","3265","similarity","98","643767","0.0-6.0-92.0","2","[""img/0874/995f0332-0439-4eb4-add3-957335dbf6d9.jpg"",""img/0867/a749dddb-69f0-44a6-acdc-2bf295cf6dcc.jpg""]","",""
"","3972","similarity","99","648743","0.0-6.0-93.0","2","[""img/0899/7f9d45d0-b2c6-40d3-aa41-c207db2c411b.jpg"",""img/0868/e0aff734-077f-40dd-9781-74821abd3621.jpg""]","",""
"","5977","similarity","100","655724","0.0-6.0-94.0","6","[""img/0903/470acfd5-5571-4a7b-b3a4-28d87e098138.jpg"",""img/0862/53a9cf7c-93c4-41b9-952f-07d17f7a17b2.jpg""]","",""
"","4937","similarity","101","661665","0.0-6.0-95.0","6","[""img/0899/56a605c3-d0a2-4215-89e1-779279d85a7c.jpg"",""img/0766/b84598d0-5b41-4841-88b0-b441b48289f5.jpg""]","",""
"","3429","similarity","102","666097","0.0-6.0-96.0","7","[""img/0867/f8159067-056c-41f1-a136-c529fe5e970a.jpg"",""img/0868/0d3abd3a-b6c3-4584-a9f7-e2da63748b3d.jpg""]","",""
"","5884","similarity","103","672986","0.0-6.0-97.0","3","[""img/0862/92f0146c-20c4-482e-aef5-adb693790338.jpg"",""img/0901/4d1bed7e-3c4e-4f6c-ada9-4beb66ba9e39.jpg""]","",""
"","3092","similarity","104","677082","0.0-6.0-98.0","2","[""img/0875/5a7c4e35-6514-4e12-8879-d16071da4cd6.jpg"",""img/0766/ba35c0fc-4d5b-490d-959e-c94b279cdd02.jpg""]","",""
"","2623","similarity","105","680708","0.0-6.0-99.0","7","[""img/0758/dd559618-7f09-4a07-8018-d311c4a5ea29.jpg"",""img/0874/eba003b4-cdab-4eee-8bc3-f064c7d94165.jpg""]","",""
"","4600","similarity","106","686312","0.0-6.0-100.0","3","[""img/0904/da170c1b-9651-4f08-b231-2bdd1d9a046f.jpg"",""img/0868/83b4350a-3b70-4cea-b7f5-b5b56f3050a8.jpg""]","",""
"","4396","similarity","107","691713","0.0-6.0-101.0","3","[""img/0903/0fb24af7-9a26-4e9d-aadc-959a36f683e2.jpg"",""img/0866/07c9c966-3c8d-40e7-8128-92b2acbaed5d.jpg""]","",""
"","2330","similarity","108","695046","0.0-6.0-102.0","3","[""img/0868/fd307a36-9a3a-47d7-ab7c-f810d0b35040.jpg"",""img/0769/ecda2fb3-556b-43ba-8a67-e87dd75ff2b4.jpg""]","",""
"","2718","similarity","109","698769","0.0-6.0-103.0","4","[""img/0902/97022122-01e4-46c3-a34f-c6260ad28428.jpg"",""img/0899/25ae6ec8-9565-49fe-a8bb-8d0666f52716.jpg""]","",""
"","3133","similarity","110","702905","0.0-6.0-104.0","3","[""img/0868/8b0b8473-e2c0-4331-aa56-c3a5c29369da.jpg"",""img/0862/ee3b7bff-4a70-4e84-9bea-4a565e456acb.jpg""]","",""
"","2798","similarity","111","706707","0.0-6.0-105.0","5","[""img/0903/81368973-de81-46f4-844f-b901f3bfd66d.jpg"",""img/0894/e5edf723-72a5-4673-8441-6c1734a8929b.jpg""]","",""
"","5544","similarity","112","713255","0.0-6.0-106.0","6","[""img/0864/4bd81bc6-c13d-46df-95a9-485886dc7c1b.jpg"",""img/0874/7e4f2150-3b59-4a36-b5da-a4e0ba410531.jpg""]","",""
"","3644","similarity","113","717903","0.0-6.0-107.0","4","[""img/0862/f188d4f0-76a4-4102-818c-a209969d73a5.jpg"",""img/0902/bd89a85f-3853-4786-acd6-98818ee29f1c.jpg""]","",""
"","3220","similarity","114","722127","0.0-6.0-108.0","6","[""img/0904/5cceabc9-de1d-4c67-989b-c28a4ef77e79.jpg"",""img/0903/6f343da5-00d9-4d50-89d1-2ed24cdb8319.jpg""]","",""
"","4593","similarity","115","727725","0.0-6.0-109.0","2","[""img/0764/50f1b062-d608-4bc0-ab25-b872dcf2ed93.jpg"",""img/0864/ef9cbca0-4be8-435d-ad49-977259e80409.jpg""]","",""
"","6843","similarity","116","735573","0.0-6.0-110.0","2","[""img/0866/93a27239-8317-4e08-98ca-d8b1ff298e07.jpg"",""img/0894/7fb082e0-ce79-485c-9109-04367fb32275.jpg""]","",""
"","2779","similarity","117","739357","0.0-6.0-111.0","4","[""img/0899/a048912c-b12c-40e3-90af-46b69b0cc4fe.jpg"",""img/0903/3e9ee8a5-eb66-47f5-8973-8a5af1ddc87e.jpg""]","",""
"","4755","similarity","118","745117","0.0-6.0-112.0","7","[""img/0902/8065aa6b-4aef-4368-afa2-02c6465ca582.jpg"",""img/0904/06dacdc5-2206-4fb8-92b7-88042d22833c.jpg""]","",""
"","2532","similarity","119","748653","0.0-6.0-113.0","4","[""img/0864/66091c27-e588-4476-8af9-265dc6be4156.jpg"",""img/0860/c3379ff7-0763-48fe-a1ec-7ea3d611bc7a.jpg""]","",""
"","2627","similarity","120","752285","0.0-6.0-114.0","4","[""img/0860/18dfed73-e36b-4487-a8bd-0b8cff8e3668.jpg"",""img/0899/0433d056-aa30-4f8a-9aa1-abbb951e4edd.jpg""]","",""
"","5274","similarity","121","758563","0.0-6.0-115.0","2","[""img/0881/adc02f34-ce97-4aef-850f-00519df06fd7.jpg"",""img/0903/0a92ec52-4e87-410a-857a-4455cde56a70.jpg""]","",""
"","5415","similarity","122","764981","0.0-6.0-116.0","2","[""img/0894/6aa5545f-fa7d-4286-bbaa-aaf34dc7ec96.jpg"",""img/0874/a82926a3-0b43-4add-803c-d5f9ea7798ee.jpg""]","",""
"","2557","similarity","123","768543","0.0-6.0-117.0","4","[""img/0881/14236cf2-6b95-48b8-9368-78af09d2d27f.jpg"",""img/0862/e8cc3bdf-cc43-4565-bccf-492626c70953.jpg""]","",""
"","3730","similarity","124","773276","0.0-6.0-118.0","5","[""img/0868/4bd5105a-d2c3-4f82-8c80-57196106ba53.jpg"",""img/0875/99698b4d-b4a1-44bc-8c83-8ea755bbbf61.jpg""]","",""
"","2732","similarity","125","777011","0.0-6.0-119.0","4","[""img/0860/8fdba999-b946-4c7d-9891-336018b563ef.jpg"",""img/0758/b76ceca7-95ac-46e4-ac13-da02c8e93be9.jpg""]","",""
"","8295","similarity","126","786310","0.0-6.0-120.0","3","[""img/0864/300bb811-8b3c-4c42-8653-6097c3725197.jpg"",""img/0875/2e13d160-eea1-416b-aff1-d37ab99ecc1d.jpg""]","",""
"","4809","similarity","127","792123","0.0-6.0-121.0","3","[""img/0898/e167334e-cc1d-4986-b3b1-c7bc7da64baa.jpg"",""img/0866/bf14b5bd-fb55-47db-86b9-4f8aeb9a6dad.jpg""]","",""
"","4709","similarity","128","797836","0.0-6.0-122.0","4","[""img/0874/bf14b896-e930-4fd9-9c05-2e83317a2773.jpg"",""img/0904/96e503ea-6630-4996-85f2-0237688ce441.jpg""]","",""
"","6836","similarity","129","805676","0.0-6.0-123.0","3","[""img/0904/4b8daf2a-13a9-4ea9-9e0b-b265b6e933e7.jpg"",""img/0864/3d4de670-b290-4285-9c3d-12a0e3af44e9.jpg""]","",""
"","5608","similarity","130","812287","0.0-6.0-124.0","4","[""img/0894/767a0eec-1064-46b1-b1aa-dfa02b0cd74e.jpg"",""img/0902/9f543501-3cf1-45a7-a2f1-eeca87cc15b9.jpg""]","",""
"","6475","similarity","131","907150","0.0-6.0-125.0","3","[""img/0868/d98ca254-b195-477f-b57e-5760a2717db8.jpg"",""img/0864/1d15626a-2f7c-410f-819c-0fa2c967e95e.jpg""]","",""
"","3520","similarity","132","911676","0.0-6.0-126.0","4","[""img/0899/5b56dd3e-3f49-47cc-af84-16da6457753b.jpg"",""img/0866/11a1d141-be5e-443c-98c1-a9d4d9e3dec0.jpg""]","",""
"","2500","similarity","133","915180","0.0-6.0-127.0","5","[""img/0875/e7e66b13-b573-431e-b85e-288ce04a35a3.jpg"",""img/0904/e9423a8c-f946-43ad-ab7b-931acef870e2.jpg""]","",""
"","3636","similarity","134","919820","0.0-6.0-128.0","3","[""img/0867/8ba0c5a7-c7e4-42cf-a80a-543763b90779.jpg"",""img/0899/a05bea16-2bb4-4cb9-b8fb-4ff975db6971.jpg""]","",""
"","3648","similarity","135","924474","0.0-6.0-129.0","3","[""img/0901/1e23ffbd-19de-4c4f-aa23-c54aaa3319a3.jpg"",""img/0867/26611f4e-d694-4460-b7e2-43c62753ddc3.jpg""]","",""
"","2363","similarity","136","927840","0.0-6.0-130.0","4","[""img/0864/1ebbc554-99fa-49f9-8799-317375a79820.jpg"",""img/0769/e31b3bd8-efcb-413e-aa8c-75fac2b8f2ac.jpg""]","",""
"","5299","similarity","137","934144","0.0-6.0-131.0","4","[""img/0903/8fcafe03-43df-4c45-9da5-0df3a1eeccc5.jpg"",""img/0868/293079b8-7e0c-4afd-a390-1e5d35fe3ded.jpg""]","",""
"","6361","similarity","138","941508","0.0-6.0-132.0","3","[""img/0864/b3c4e378-28f0-4699-9338-2a257b4bca04.jpg"",""img/0867/f8488a47-94ee-4166-952c-44e16cf172f6.jpg""]","",""
"","4142","similarity","139","946654","0.0-6.0-133.0","5","[""img/0901/8bb79e82-9c43-4b6f-a655-40655519598b.jpg"",""img/0860/99c589b9-9140-4d17-90c0-b344323edcda.jpg""]","",""
"","3477","similarity","140","951135","0.0-6.0-134.0","5","[""img/0881/2a8413be-fec2-4de6-88ad-614dd4cccc9d.jpg"",""img/0766/f011ef45-fb48-44b8-8224-867ed2ccf786.jpg""]","",""
"","2578","similarity","141","954717","0.0-6.0-135.0","5","[""img/0903/45e2d600-57ff-4d69-b22c-0c7896cd38f0.jpg"",""img/0864/e8bd659f-aa43-4748-877e-3118e8b4e189.jpg""]","",""
"","3202","similarity","142","958921","0.0-6.0-136.0","2","[""img/0758/53f35650-e455-4b53-8be4-c3c8271c6466.jpg"",""img/0894/b422d5c6-3c5a-49ae-a53e-7e88ac993f49.jpg""]","",""
"","4700","similarity","143","964625","0.0-6.0-137.0","3","[""img/0769/bb8c4e53-6f32-4814-97ee-392d4decfb2e.jpg"",""img/0860/4a022222-056d-461c-ab02-39fac9647552.jpg""]","",""
"","3907","similarity","144","969536","0.0-6.0-138.0","5","[""img/0904/2c98dc56-88d1-4fb5-a999-b6a7861f65f0.jpg"",""img/0766/d5d38751-8fa5-476f-93e9-86ed2d9045ef.jpg""]","",""
"","3322","similarity","145","973861","0.0-6.0-139.0","2","[""img/0868/09a9ef4d-d000-4cfa-a6aa-ebec7c2edeb4.jpg"",""img/0860/b03b963d-949b-4d8d-b19c-4950c89eeca2.jpg""]","",""
"","3114","similarity","146","977979","0.0-6.0-140.0","6","[""img/0758/a085b443-b5d7-4cb2-9ad4-b9dab0fc23f1.jpg"",""img/0864/afcba0a3-7e27-4757-b254-e9f05fad27e2.jpg""]","",""
"","3071","similarity","147","982054","0.0-6.0-141.0","7","[""img/0867/de92135f-5b65-4ed9-b245-188292c7c2f8.jpg"",""img/0867/cc72ed48-7704-422c-86d6-467a1145287a.jpg""]","",""
"","5576","similarity","148","988634","0.0-6.0-142.0","7","[""img/0898/79233891-305a-4a6a-8ddf-5c8604858203.jpg"",""img/0898/cd3aaa3f-efa9-4ab3-8d6f-a6a9273ddf42.jpg""]","",""
"","3079","similarity","149","992717","0.0-6.0-143.0","4","[""img/0866/02f5e6b9-52b7-448c-9708-5b460d0c9a23.jpg"",""img/0769/a1ce8d07-ba37-40de-bade-2778805521e0.jpg""]","",""
"","3778","similarity","150","997499","0.0-6.0-144.0","5","[""img/0860/4c530c3c-6aab-492a-94d1-9c01797bde40.jpg"",""img/0898/0af304a2-6a7a-4082-ab7c-4450cd08cc58.jpg""]","",""
"","5499","similarity","151","1004005","0.0-6.0-145.0","3","[""img/0766/27f54113-8561-4568-9ffe-0a1650ae65ec.jpg"",""img/0864/e02eddb5-f468-499c-91bf-f7be3ffe979b.jpg""]","",""
"","2725","similarity","152","1007733","0.0-6.0-146.0","4","[""img/0860/4f695df5-afac-4da7-9875-fee39b0b24ad.jpg"",""img/0903/680ed18e-b311-4ecf-9b00-7dea32128334.jpg""]","",""
"","4242","similarity","153","1012977","0.0-6.0-147.0","2","[""img/0867/ac1797e4-8afc-48fe-b252-86d1defb1cca.jpg"",""img/0764/b887d7c6-aa81-4637-af8e-05135757ac59.jpg""]","",""
"","5268","similarity","154","1019250","0.0-6.0-148.0","6","[""img/0769/50985283-d353-4abc-9abe-14a91d56ebe6.jpg"",""img/0904/2fd488e9-960f-41f7-8a44-33375f7d5051.jpg""]","",""
"","2918","similarity","155","1023174","0.0-6.0-149.0","4","[""img/0764/56441045-b648-4ede-9632-3e9c0227080b.jpg"",""img/0901/f1116359-1ff1-4638-b3b3-700918d36d18.jpg""]","",""
"","4521","similarity","156","1028700","0.0-6.0-150.0","5","[""img/0904/1d10df11-b5c8-4370-9a6b-097a7f965895.jpg"",""img/0899/4408c14d-c168-4a7d-96f6-bc87bfb58f83.jpg""]","",""
"","2650","similarity","157","1032354","0.0-6.0-151.0","4","[""img/0862/fb26cb07-d5a9-4653-813c-f41609f26cd5.jpg"",""img/0867/2e1a0b58-cdb1-4107-a14e-452530d7b9b0.jpg""]","",""
"","3135","similarity","158","1036492","0.0-6.0-152.0","7","[""img/0766/c23b5a20-e50f-4d85-841f-cf89212a4348.jpg"",""img/0766/1865bfc9-2410-4765-a804-3ae4ba2393d0.jpg""]","",""
"","4604","similarity","159","1042100","0.0-6.0-153.0","4","[""img/0862/00c06b00-3b73-44e9-bc1e-c5aafb438321.jpg"",""img/0894/bd34223a-2f66-4e16-9d18-193a746b69ff.jpg""]","",""
"","2648","similarity","160","1045751","0.0-6.0-154.0","4","[""img/0899/f58b8d2f-b19d-4b59-8b94-8834be92e4ba.jpg"",""img/0901/bc47e078-bda4-40ed-b89a-bbd819164b95.jpg""]","",""
"","4525","similarity","161","1051281","0.0-6.0-155.0","5","[""img/0874/85eb9b8a-c4c6-4e5a-b8e7-363a87a82054.jpg"",""img/0874/3f471690-9788-4d03-90c7-f615aecef149.jpg""]","",""
"","2296","similarity","162","1054581","0.0-6.0-156.0","4","[""img/0860/5bff793e-cbd5-4d7e-b628-0ac2b0e30b64.jpg"",""img/0867/179ab87a-8eac-4c52-a41f-2e48e3120f09.jpg""]","",""
"","3797","similarity","163","1059380","0.0-6.0-157.0","3","[""img/0901/4ca4f962-40c0-4c59-b14a-3cd7b8c9029b.jpg"",""img/0881/b1a136f7-8511-4d3a-a0f6-3879acf1e1a1.jpg""]","",""
"","4523","similarity","164","1064907","0.0-6.0-158.0","6","[""img/0903/bf0a7d60-eca5-44b0-bafd-baf21db9904b.jpg"",""img/0902/cdec1bc6-7f90-4f72-9e01-f5a4111bac1d.jpg""]","",""
"","2935","similarity","165","1068846","0.0-6.0-159.0","4","[""img/0860/9593362c-9fe5-4d12-9735-6000a11f6aa5.jpg"",""img/0764/fb92924f-5cfe-4b89-b130-0cce8cc5636b.jpg""]","",""
"","3946","similarity","166","1073795","0.0-6.0-160.0","2","[""img/0902/ca3160ba-ad5d-459f-a1b6-8b4f3c85ecd5.jpg"",""img/0875/42910c99-5463-450a-a0f8-d4d060a11455.jpg""]","",""
"","4351","similarity","167","1079152","0.0-6.0-161.0","5","[""img/0898/ec565187-2e31-4fdd-9a5c-153d0c789ae0.jpg"",""img/0862/24cdc752-c2e5-4a17-86a6-6f2045d8553b.jpg""]","",""
"","4201","similarity","168","1084358","0.0-6.0-162.0","3","[""img/0894/5f15154e-e72e-4ce5-aafb-bce6f0564006.jpg"",""img/0875/fb732ab5-013a-4366-9f65-27811ed157e9.jpg""]","",""
"","4392","similarity","169","1089754","0.0-6.0-163.0","3","[""img/0866/d266fece-59b3-46fa-b69f-96f6efb81b59.jpg"",""img/0864/9b2490c5-a282-400a-9736-e1a0ecbf1cb7.jpg""]","",""
"","6993","similarity","170","1097751","0.0-6.0-164.0","2","[""img/0766/2746b119-4bba-463e-acf0-88136dc6600c.jpg"",""img/0862/fad1d7c1-8187-43c3-942a-0fc12183e48e.jpg""]","",""
"","4446","similarity","171","1103199","0.0-6.0-165.0","2","[""img/0866/c446214b-a368-4c65-ae39-ea46894256ab.jpg"",""img/0874/2c9464dd-8a23-4baa-ac94-1ba3af5c15cc.jpg""]","",""
"","3615","similarity","172","1107817","0.0-6.0-166.0","6","[""img/0862/57b6f83f-c763-4858-830d-102f97bfefbf.jpg"",""img/0860/c47fdead-eb02-4989-b078-26f4852f44fe.jpg""]","",""
"","5228","similarity","173","1119342","0.0-6.0-167.0","4","[""img/0766/71b81ebd-0937-4d7f-b8bf-c4e46a4728fd.jpg"",""img/0901/33b51a81-06d9-46d9-9d4f-5a2d6d6b8058.jpg""]","",""
"","4027","similarity","174","1124373","0.0-6.0-168.0","7","[""img/0862/47ed5efd-4ec9-4b74-bb4e-a5f5cf0c3e7d.jpg"",""img/0862/cdaed51d-9e2f-4807-801a-4663c40077e2.jpg""]","",""
"","4305","similarity","175","1129683","0.0-6.0-169.0","6","[""img/0894/492d2f29-d7b9-4422-8be8-47fd58bfaa8b.jpg"",""img/0764/f713847b-4832-42d1-8fb3-e17e37fd745c.jpg""]","",""
"","4386","similarity","176","1135074","0.0-6.0-170.0","4","[""img/0874/ca23d307-fc00-4d7d-9106-584c6eb21b4d.jpg"",""img/0898/0c7dde4f-efce-4b7a-9387-6921635b7890.jpg""]","",""
"","6920","similarity","177","1142998","0.0-6.0-171.0","4","[""img/0860/8a92e21b-6a32-4e4a-a445-2d5a487ed0a4.jpg"",""img/0766/ae0fce93-fe8d-4aa1-87ca-4c3e4b889f2f.jpg""]","",""
"","4717","similarity","178","1148719","0.0-6.0-172.0","4","[""img/0898/993d8f2d-bef7-4251-a193-0f93a32b7763.jpg"",""img/0864/da39ad34-04e0-40d4-a724-c08d53e0ea09.jpg""]","",""
"","6116","similarity","179","1155839","0.0-6.0-173.0","5","[""img/0881/1407b85b-a1c6-45b1-9884-3b24203efadb.jpg"",""img/0764/5d6fa3ce-9083-410c-bbdb-336a49b94cfc.jpg""]","",""
"","4289","similarity","180","1161131","0.0-6.0-174.0","3","[""img/0898/f3a3f225-1248-4ac7-b93b-f0ff28485bf3.jpg"",""img/0868/7b212364-ff5f-4e28-9241-7eb6ea00161b.jpg""]","",""
"","2638","similarity","181","1164773","0.0-6.0-175.0","7","[""img/0864/3651d070-2fc5-4848-b6a6-088a2d9ac5c9.jpg"",""img/0864/5f74a653-3bdc-4308-8cca-ac667dc22e1f.jpg""]","",""
"","15396","similarity","182","1181173","0.0-6.0-176.0","4","[""img/0899/8de08897-b430-42fe-9d42-840670b80f94.jpg"",""img/0862/a0a3a7ba-7798-46a3-b4ca-05e1f6e581d0.jpg""]","",""
"","4022","similarity","183","1186198","0.0-6.0-177.0","4","[""img/0875/03c3c331-738b-4446-af92-3d7386b08c2e.jpg"",""img/0758/61d64021-9214-4951-bdf8-f871f9827cf9.jpg""]","",""
"","4813","similarity","184","1192015","0.0-6.0-178.0","2","[""img/0866/a15b02be-11bb-43e3-b0e0-ecc3bd7dfc49.jpg"",""img/0901/f469cb1d-6d81-4a45-bab5-cd0b650c2b4f.jpg""]","",""
"","5109","similarity","185","1198127","0.0-6.0-179.0","4","[""img/0769/11518cb3-13ea-4dd0-890c-30cfab728ade.jpg"",""img/0874/c0378dac-9370-439a-8b79-db27c96fb390.jpg""]","",""
"","2585","similarity","186","1201717","0.0-6.0-180.0","4","[""img/0875/d59ff733-eaff-4ee2-9443-06954dd0bcb6.jpg"",""img/0881/5fe04dd0-5c74-47b7-99c8-b068db9ca26a.jpg""]","",""
"","3183","similarity","187","1205903","0.0-6.0-181.0","6","[""img/0866/f756f7d1-9ad8-4a34-9ef6-7a443d705bfe.jpg"",""img/0868/4a8a45ed-2c4f-421b-9564-409a33ecd26c.jpg""]","",""
"","2952","similarity","188","1209859","0.0-6.0-182.0","4","[""img/0899/fef567a2-c121-4481-9af0-ff108d199bbf.jpg"",""img/0758/f61ecdf8-a7d4-4db0-b84d-be46f7cfaffc.jpg""]","",""
"","2656","similarity","189","1213518","0.0-6.0-183.0","4","[""img/0874/ca76a855-4e77-4f2f-872a-0a718153e7ed.jpg"",""img/0875/dbdd643e-6d0e-4a5c-ab57-b9c29b9c981a.jpg""]","",""
"","1947","similarity","190","1216470","0.0-6.0-184.0","4","[""img/0904/60d1a521-edf7-4696-9263-f21ac0e62a01.jpg"",""img/0862/f23038d4-c366-4f70-979f-66b62362efa4.jpg""]","",""
"","7055","similarity","191","1224528","0.0-6.0-185.0","4","[""img/0902/0c760cc9-10ac-429e-8957-a7d51fc99683.jpg"",""img/0766/a754e4b6-5019-4cf4-8f58-34c20547a1f5.jpg""]","",""
"","5306","similarity","192","1230837","0.0-6.0-186.0","3","[""img/0758/eabcd7a8-56ad-4fd2-bc24-90f6b7b33265.jpg"",""img/0769/387a9744-d6a7-42b8-bab8-33007ec434aa.jpg""]","",""
"","3676","similarity","193","1235517","0.0-6.0-187.0","7","[""img/0881/292e9b4b-fca0-4ba8-87f1-4048f9e37b7d.jpg"",""img/0881/4bd34581-94d8-4e88-8c89-5cef864ca3be.jpg""]","",""
"","3188","similarity","194","1239709","0.0-6.0-188.0","5","[""img/0758/6e95579b-5166-487c-b8cb-e417c6a218e3.jpg"",""img/0866/386235d2-6857-41e7-88a8-25cfc3430025.jpg""]","",""
"","3363","similarity","195","1244074","0.0-6.0-189.0","4","[""img/0764/fb7d4a20-a475-465e-a74f-aa39a0d33d16.jpg"",""img/0898/661621d4-a14e-487c-8c74-354134a29710.jpg""]","",""
"","4143","similarity","196","1249222","0.0-6.0-190.0","6","[""img/0903/b548d383-2a95-4575-8c13-647873751ff1.jpg"",""img/0901/04a53755-6da5-44d4-a7a6-48a6bc0a2280.jpg""]","",""
"","3074","similarity","197","1253300","0.0-6.0-191.0","7","[""img/0902/418b716e-63e5-4c77-93e9-95b1f5a3ddf0.jpg"",""img/0898/08c72dac-f8ad-407a-9ce6-8c9a5d679c3a.jpg""]","",""
"","5673","similarity","198","1259978","0.0-6.0-192.0","4","[""img/0864/0116ca98-293d-4fa6-a93b-5a6144ef64cc.jpg"",""img/0901/77087ed2-6e12-4329-b2a5-605bca6d972d.jpg""]","",""
"","3753","similarity","199","1264736","0.0-6.0-193.0","4","[""img/0894/0130a973-d993-41f8-874a-fee23d9ac11f.jpg"",""img/0881/d373cb9f-a719-4549-a2a4-82def79fb2a5.jpg""]","",""
"","3065","similarity","200","1268806","0.0-6.0-194.0","7","[""img/0868/d6d1f30d-4323-435a-b194-7892521bc57e.jpg"",""img/0868/5fa7f9d0-f0e5-454c-8224-74d964818f56.jpg""]","",""
"","4051","similarity","201","1273866","0.0-6.0-195.0","6","[""img/0899/7b7380d5-d2be-44e5-a09a-c1756f87ef71.jpg"",""img/0764/c0b03adb-bd0a-4b96-a915-a827c2fd5211.jpg""]","",""
"","2374","similarity","202","1277246","0.0-6.0-196.0","4","[""img/0881/7e31e5dc-2240-4b1b-b5a0-3acd980099ef.jpg"",""img/0904/0d17b811-063e-416e-a23c-3b3cfa4fcce5.jpg""]","",""
"","1857","similarity","203","1280107","0.0-6.0-197.0","4","[""img/0864/c22faebd-9c53-47bc-ada3-b9a30c688e75.jpg"",""img/0902/d1083f2c-5520-44ec-81a8-3f856fbf0e80.jpg""]","",""
"","3245","similarity","204","1284357","0.0-6.0-198.0","6","[""img/0894/c505c65a-cde2-4f2c-8cde-f8676f7c894d.jpg"",""img/0904/b5855d6a-7ef9-46ca-9215-6e9fa046e543.jpg""]","",""
"","2735","similarity","205","1288094","0.0-6.0-199.0","7","[""img/0901/fb0a8e69-7f19-4e6e-a6bb-a48f97f9b4f3.jpg"",""img/0901/7d4a3388-488d-4e9b-9d32-9d0def7aae8d.jpg""]","",""
"","4197","similarity","206","1293294","0.0-6.0-200.0","5","[""img/0894/133a1636-d123-4893-873c-1718050f832a.jpg"",""img/0860/87039971-2210-4aab-93c0-8e9b5f1655b2.jpg""]","",""
"","5009","similarity","207","1299307","0.0-6.0-201.0","7","[""img/0898/81b08535-2020-4c15-9ce4-2f1e460755ae.jpg"",""img/0903/2a9c8033-3e70-47fa-816d-97ee1813a3a3.jpg""]","",""
"","1797","similarity","208","1302108","0.0-6.0-202.0","4","[""img/0864/0f537697-a314-47c3-a8cc-8df23b7e536c.jpg"",""img/0894/2217bdcd-23a7-42d3-823b-23f2488d7e87.jpg""]","",""
"","2668","similarity","209","1305781","0.0-6.0-203.0","4","[""img/0874/3ce41e7c-40c8-4d58-a546-171114521796.jpg"",""img/0860/fd4662f9-4c03-4d79-8593-06735e55a64b.jpg""]","",""
"","3092","similarity","210","1309876","0.0-6.0-204.0","4","[""img/0862/de9ad88c-b522-430a-8ee9-eb06a9f85df5.jpg"",""img/0875/8521fd58-3b1e-4dc5-97ae-804edfa6734a.jpg""]","",""
"","3311","similarity","211","1314191","0.0-6.0-205.0","4","[""img/0867/c66898ba-b71b-4d50-84f9-f7f84853a98d.jpg"",""img/0881/667e2147-d457-4f32-aa5f-6ab86e5848f1.jpg""]","",""
"","2700","similarity","212","1317895","0.0-6.0-206.0","6","[""img/0901/00acf6c1-b66e-4060-bb04-4caf29b5a8b0.jpg"",""img/0902/44cd9b7e-fdfb-4f78-90de-8d4c9d279365.jpg""]","",""
"","4742","similarity","213","1323641","0.0-6.0-207.0","5","[""img/0899/57476fed-5962-4272-8fc9-b317bb777b54.jpg"",""img/0864/efcfbb1b-8197-44c9-b723-40d6c608dd3c.jpg""]","",""
"","5275","similarity","214","1329921","0.0-6.0-208.0","4","[""img/0901/12da1841-e611-435c-9719-109413d536a8.jpg"",""img/0769/6c0bac4c-5f59-43c7-898c-3ca93cf55cfe.jpg""]","",""
"","5458","similarity","215","1348761","0.0-6.0-209.0","7","[""img/0902/3b243e54-0803-4c29-af42-4037c2118495.jpg"",""img/0902/71c03003-03ef-4b0f-8229-e0c857150a5d.jpg""]","",""
"[{""page_index"":0,""viewing_time"":9282}]","9283","instructions","216","1359046","0.0-7.0","","","",""
"","65687","image-multi-choice","217","1425748","0.0-8.0-0.0","","","{""Q0"":""Nashville Warbler""}","Nashville Warbler"
"","5862","image-multi-choice","218","1432620","0.0-8.0-1.0","","","{""Q0"":""Black-and-white Warbler""}","Black-and-white Warbler"
"","15786","image-multi-choice","219","1449415","0.0-8.0-2.0","","","{""Q0"":""Townsend's Warbler""}","Townsend's Warbler"
"","4743","image-multi-choice","220","1455166","0.0-8.0-3.0","","","{""Q0"":""Lark Sparrow""}","Lark Sparrow"
"","5444","image-multi-choice","221","1461620","0.0-8.0-4.0","","","{""Q0"":""Yellow Warbler""}","Yellow Warbler"
"","17429","image-multi-choice","222","1480058","0.0-8.0-5.0","","","{""Q0"":""Tennessee Warbler""}","Orange-crowned Warbler"
"","5747","image-multi-choice","223","1486813","0.0-8.0-6.0","","","{""Q0"":""White-throated Sparrow""}","White-throated Sparrow"
"","4270","image-multi-choice","224","1492091","0.0-8.0-7.0","","","{""Q0"":""Fox Sparrow""}","Fox Sparrow"
"","17104","image-multi-choice","225","1510203","0.0-8.0-8.0","","","{""Q0"":""Song Sparrow""}","Song Sparrow"
"","59693","image-multi-choice","226","1570904","0.0-8.0-9.0","","","{""Q0"":""Blackburnian Warbler""}","Blackburnian Warbler"
"","12717","image-multi-choice","227","1584629","0.0-8.0-10.0","","","{""Q0"":""Vesper Sparrow""}","Vesper Sparrow"
"","4122","image-multi-choice","228","1589760","0.0-8.0-11.0","","","{""Q0"":""White-crowned Sparrow""}","White-crowned Sparrow"
"","6068","image-multi-choice","229","1596837","0.0-8.0-12.0","","","{""Q0"":""American Tree Sparrow""}","American Tree Sparrow"
"","8779","image-multi-choice","230","1606625","0.0-8.0-13.0","","","{""Q0"":""Tennessee Warbler""}","Tennessee Warbler"
"","5330","image-multi-choice","231","1612965","0.0-8.0-14.0","","","{""Q0"":""Magnolia Warbler""}","Magnolia Warbler"
"","7605","image-multi-choice","232","1621581","0.0-8.0-15.0","","","{""Q0"":""Northern Waterthrush""}","Northern Waterthrush"
"","12929","image-multi-choice","233","1635517","0.0-8.0-16.0","","","{""Q0"":""Chipping Sparrow""}","Chipping Sparrow"
"","7475","image-multi-choice","234","1644001","0.0-8.0-17.0","","","{""Q0"":""Swamp Sparrow""}","Swamp Sparrow"
"","4964","image-multi-choice","235","1649974","0.0-8.0-18.0","","","{""Q0"":""Lincoln's Sparrow""}","Lincoln's Sparrow"
"","3240","image-multi-choice","236","1654224","0.0-8.0-19.0","","","{""Q0"":""Ovenbird""}","Ovenbird"
