[{"view_history":"[{\"page_index\":0,\"viewing_time\":14395}]","rt":14398,"trial_type":"instructions","trial_index":0,"time_elapsed":14400,"internal_node_id":"0.0-0.0"},{"sim_score":5,"rt":10465,"stimulus":"[\"img/866.jpg\",\"img/868.jpg\"]","trial_type":"similarity_demo","trial_index":1,"time_elapsed":25896,"internal_node_id":"0.0-1.0"},{"view_history":"[{\"page_index\":0,\"viewing_time\":11531}]","rt":11532,"trial_type":"instructions","trial_index":2,"time_elapsed":38429,"internal_node_id":"0.0-2.0"},{"sim_score":1,"rt":5914,"stimulus":"[\"img/766.jpg\",\"img/867.jpg\"]","trial_type":"similarity_demo","trial_index":3,"time_elapsed":45358,"internal_node_id":"0.0-3.0"},{"view_history":"[{\"page_index\":0,\"viewing_time\":5232}]","rt":5234,"trial_type":"instructions","trial_index":4,"time_elapsed":51594,"internal_node_id":"0.0-4.0"},{"view_history":"[{\"page_index\":0,\"viewing_time\":28293}]","rt":28295,"trial_type":"instructions","trial_index":5,"time_elapsed":80895,"internal_node_id":"0.0-5.0"},{"sim_score":1,"rt":9067,"stimulus":"[\"img/0868/8b0b8473-e2c0-4331-aa56-c3a5c29369da.jpg\",\"img/0901/a373612d-67e2-4fec-9764-21d3d6ef6359.jpg\"]","trial_type":"similarity","trial_index":6,"time_elapsed":90986,"internal_node_id":"0.0-6.0-0.0"},{"sim_score":2,"rt":5675,"stimulus":"[\"img/0769/ebef2ddc-ba59-4e0e-97f8-927864eb5081.jpg\",\"img/0867/5e07b34d-b40f-4b1c-ac10-49975bace45f.jpg\"]","trial_type":"similarity","trial_index":7,"time_elapsed":97677,"internal_node_id":"0.0-6.0-1.0"},{"sim_score":4,"rt":5704,"stimulus":"[\"img/0766/0025de5e-f620-4079-8a0f-00326ff3a6b0.jpg\",\"img/0898/8605a25b-6895-476d-8c13-df7a83f96093.jpg\"]","trial_type":"similarity","trial_index":8,"time_elapsed":104396,"internal_node_id":"0.0-6.0-2.0"},{"sim_score":1,"rt":6505,"stimulus":"[\"img/0902/8af4182a-9af9-4212-a436-9195555112d6.jpg\",\"img/0881/d1982897-8d8d-4704-a940-1ee5d07a1f15.jpg\"]","trial_type":"similarity","trial_index":9,"time_elapsed":111913,"internal_node_id":"0.0-6.0-3.0"},{"sim_score":5,"rt":5345,"stimulus":"[\"img/0894/661b9f9f-4bde-487a-b1ed-87085fde6948.jpg\",\"img/0894/151063aa-6472-4745-837b-36603aba5966.jpg\"]","trial_type":"similarity","trial_index":10,"time_elapsed":118271,"internal_node_id":"0.0-6.0-4.0"},{"sim_score":2,"rt":4936,"stimulus":"[\"img/0874/99f6563c-8a8d-4c1c-a41d-667b618c3fd5.jpg\",\"img/0899/f58b8d2f-b19d-4b59-8b94-8834be92e4ba.jpg\"]","trial_type":"similarity","trial_index":11,"time_elapsed":124218,"internal_node_id":"0.0-6.0-5.0"},{"sim_score":1,"rt":5397,"stimulus":"[\"img/0904/09934646-45d2-4147-8fec-64a22a5ac822.jpg\",\"img/0764/55b3fab1-b809-4d38-a461-3f40ce062f52.jpg\"]","trial_type":"similarity","trial_index":12,"time_elapsed":130627,"internal_node_id":"0.0-6.0-6.0"},{"sim_score":5,"rt":5065,"stimulus":"[\"img/0899/8abe6c69-822c-436c-9bf2-96c818b49ba5.jpg\",\"img/0898/81b08535-2020-4c15-9ce4-2f1e460755ae.jpg\"]","trial_type":"similarity","trial_index":13,"time_elapsed":136705,"internal_node_id":"0.0-6.0-7.0"},{"sim_score":6,"rt":5361,"stimulus":"[\"img/0874/85eb9b8a-c4c6-4e5a-b8e7-363a87a82054.jpg\",\"img/0903/72197c2b-403e-4a26-b391-f1aa8dea4b76.jpg\"]","trial_type":"similarity","trial_index":14,"time_elapsed":143115,"internal_node_id":"0.0-6.0-8.0"},{"sim_score":6,"rt":4265,"stimulus":"[\"img/0881/ed4c971f-0873-4fc8-b6d6-e8bbd82f0bcc.jpg\",\"img/0758/b76ceca7-95ac-46e4-ac13-da02c8e93be9.jpg\"]","trial_type":"similarity","trial_index":15,"time_elapsed":148395,"internal_node_id":"0.0-6.0-9.0"},{"sim_score":3,"rt":4051,"stimulus":"[\"img/0898/0af304a2-6a7a-4082-ab7c-4450cd08cc58.jpg\",\"img/0901/b9141736-3041-4385-a586-b1fe911c76a5.jpg\"]","trial_type":"similarity","trial_index":16,"time_elapsed":153463,"internal_node_id":"0.0-6.0-10.0"},{"sim_score":6,"rt":6113,"stimulus":"[\"img/0903/8c358e9e-a4f4-466e-8b93-7aec0d2358e8.jpg\",\"img/0769/662ab839-88d1-4ebf-af05-9b2980cad943.jpg\"]","trial_type":"similarity","trial_index":17,"time_elapsed":160588,"internal_node_id":"0.0-6.0-11.0"},{"sim_score":1,"rt":2951,"stimulus":"[\"img/0764/e0788029-9d7f-414c-b747-46d2a99f7c86.jpg\",\"img/0868/e0aff734-077f-40dd-9781-74821abd3621.jpg\"]","trial_type":"similarity","trial_index":18,"time_elapsed":164551,"internal_node_id":"0.0-6.0-12.0"},{"sim_score":1,"rt":3979,"stimulus":"[\"img/0867/f8488a47-94ee-4166-952c-44e16cf172f6.jpg\",\"img/0903/24477210-856c-4550-9de0-9f85a32762eb.jpg\"]","trial_type":"similarity","trial_index":19,"time_elapsed":169548,"internal_node_id":"0.0-6.0-13.0"},{"sim_score":1,"rt":4237,"stimulus":"[\"img/0766/2e1cf445-9aef-40e7-92f4-5facf48b64c5.jpg\",\"img/0758/a709631e-3705-4725-ac40-f0d916924f08.jpg\"]","trial_type":"similarity","trial_index":20,"time_elapsed":174805,"internal_node_id":"0.0-6.0-14.0"},{"sim_score":1,"rt":3350,"stimulus":"[\"img/0902/d3e55000-c839-4bf9-9b9b-4af0a9925af1.jpg\",\"img/0860/18dfed73-e36b-4487-a8bd-0b8cff8e3668.jpg\"]","trial_type":"similarity","trial_index":21,"time_elapsed":179165,"internal_node_id":"0.0-6.0-15.0"},{"sim_score":1,"rt":3522,"stimulus":"[\"img/0769/c7cfacc3-7f07-46ff-9f5d-8073f4c4679b.jpg\",\"img/0875/3ecb367d-e9eb-4826-8aaa-7aa72fb98019.jpg\"]","trial_type":"similarity","trial_index":22,"time_elapsed":183698,"internal_node_id":"0.0-6.0-16.0"},{"sim_score":1,"rt":4172,"stimulus":"[\"img/0904/2fd488e9-960f-41f7-8a44-33375f7d5051.jpg\",\"img/0866/620cd1aa-0800-4414-8f6e-90342e7a99ad.jpg\"]","trial_type":"similarity","trial_index":23,"time_elapsed":188881,"internal_node_id":"0.0-6.0-17.0"},{"sim_score":6,"rt":9145,"stimulus":"[\"img/0875/34132396-d896-4c2d-8087-646dd867e769.jpg\",\"img/0875/d59ff733-eaff-4ee2-9443-06954dd0bcb6.jpg\"]","trial_type":"similarity","trial_index":24,"time_elapsed":199040,"internal_node_id":"0.0-6.0-18.0"},{"sim_score":7,"rt":4479,"stimulus":"[\"img/0758/7ee8bc8f-c40b-4b3a-84ec-3e83580622d4.jpg\",\"img/0758/53f35650-e455-4b53-8be4-c3c8271c6466.jpg\"]","trial_type":"similarity","trial_index":25,"time_elapsed":204528,"internal_node_id":"0.0-6.0-19.0"},{"sim_score":1,"rt":4123,"stimulus":"[\"img/0902/a323b62d-2fd5-4ac8-acc6-35b768f3c3f2.jpg\",\"img/0874/ca23d307-fc00-4d7d-9106-584c6eb21b4d.jpg\"]","trial_type":"similarity","trial_index":26,"time_elapsed":209663,"internal_node_id":"0.0-6.0-20.0"},{"sim_score":1,"rt":4104,"stimulus":"[\"img/0764/f64dfa83-333d-494c-87b5-73e942f1766e.jpg\",\"img/0769/8598a429-c671-4d2f-842c-32f681f5e412.jpg\"]","trial_type":"similarity","trial_index":27,"time_elapsed":214787,"internal_node_id":"0.0-6.0-21.0"},{"sim_score":5,"rt":4889,"stimulus":"[\"img/0901/a6c90438-fa7c-4418-ac7c-16c2e772dd98.jpg\",\"img/0874/adf9a8f1-c40b-402b-b95b-1e85a54a7b62.jpg\"]","trial_type":"similarity","trial_index":28,"time_elapsed":220687,"internal_node_id":"0.0-6.0-22.0"},{"sim_score":1,"rt":3096,"stimulus":"[\"img/0875/5a7c4e35-6514-4e12-8879-d16071da4cd6.jpg\",\"img/0903/81368973-de81-46f4-844f-b901f3bfd66d.jpg\"]","trial_type":"similarity","trial_index":29,"time_elapsed":224794,"internal_node_id":"0.0-6.0-23.0"},{"sim_score":1,"rt":4263,"stimulus":"[\"img/0769/8056889f-2b14-4782-bb25-b4e8896ab65b.jpg\",\"img/0881/b549bc99-a61c-4450-bab5-9efc3a197bf0.jpg\"]","trial_type":"similarity","trial_index":30,"time_elapsed":230066,"internal_node_id":"0.0-6.0-24.0"},{"sim_score":2,"rt":6539,"stimulus":"[\"img/0867/c71dc569-f49c-4397-8381-68b8d726736d.jpg\",\"img/0904/06dacdc5-2206-4fb8-92b7-88042d22833c.jpg\"]","trial_type":"similarity","trial_index":31,"time_elapsed":237620,"internal_node_id":"0.0-6.0-25.0"},{"sim_score":1,"rt":3739,"stimulus":"[\"img/0860/fd4662f9-4c03-4d79-8593-06735e55a64b.jpg\",\"img/0881/405484ae-0d00-4b05-bc57-6420a36adfac.jpg\"]","trial_type":"similarity","trial_index":32,"time_elapsed":242370,"internal_node_id":"0.0-6.0-26.0"},{"sim_score":7,"rt":4834,"stimulus":"[\"img/0866/d493a2c8-66eb-44b4-be02-2f327b700b7c.jpg\",\"img/0866/be24ab58-230e-4db8-9f45-ff04c9aec6bb.jpg\"]","trial_type":"similarity","trial_index":33,"time_elapsed":248219,"internal_node_id":"0.0-6.0-27.0"},{"sim_score":1,"rt":3498,"stimulus":"[\"img/0764/6c7fe363-2d37-418f-9e5e-a3273af5d4fb.jpg\",\"img/0862/064818ee-13d5-4618-bb24-21c7368ea278.jpg\"]","trial_type":"similarity","trial_index":34,"time_elapsed":252733,"internal_node_id":"0.0-6.0-28.0"},{"sim_score":2,"rt":6730,"stimulus":"[\"img/0904/1d10df11-b5c8-4370-9a6b-097a7f965895.jpg\",\"img/0758/dd559618-7f09-4a07-8018-d311c4a5ea29.jpg\"]","trial_type":"similarity","trial_index":35,"time_elapsed":260469,"internal_node_id":"0.0-6.0-29.0"},{"sim_score":6,"rt":5366,"stimulus":"[\"img/0894/8cadb87a-7001-4e47-99fb-1867bebf1668.jpg\",\"img/0899/5b56dd3e-3f49-47cc-af84-16da6457753b.jpg\"]","trial_type":"similarity","trial_index":36,"time_elapsed":266843,"internal_node_id":"0.0-6.0-30.0"},{"sim_score":1,"rt":3014,"stimulus":"[\"img/0860/29a21a9f-54bb-4093-ad3f-04823ceaa89f.jpg\",\"img/0904/56e73f28-7e64-489b-a161-e6b1a063878d.jpg\"]","trial_type":"similarity","trial_index":37,"time_elapsed":270866,"internal_node_id":"0.0-6.0-31.0"},{"sim_score":7,"rt":5693,"stimulus":"[\"img/0874/93d1f8dc-acf2-4f03-bd8d-8ec35df276ed.jpg\",\"img/0881/54ea8e77-c7e5-4197-b7fa-00b7020849a7.jpg\"]","trial_type":"similarity","trial_index":38,"time_elapsed":277570,"internal_node_id":"0.0-6.0-32.0"},{"sim_score":1,"rt":2860,"stimulus":"[\"img/0881/f6bd3b96-dc40-4e99-8681-bc3a35cf896d.jpg\",\"img/0899/9de5e857-aa9a-4e0c-8ba2-46d79bd069a4.jpg\"]","trial_type":"similarity","trial_index":39,"time_elapsed":281442,"internal_node_id":"0.0-6.0-33.0"},{"sim_score":2,"rt":6056,"stimulus":"[\"img/0866/945c6710-d15b-4a5b-a8f6-69af0850357f.jpg\",\"img/0862/de9ad88c-b522-430a-8ee9-eb06a9f85df5.jpg\"]","trial_type":"similarity","trial_index":40,"time_elapsed":288507,"internal_node_id":"0.0-6.0-34.0"},{"sim_score":1,"rt":3025,"stimulus":"[\"img/0868/179a5502-ab5c-478e-8263-5a1fbcc101d2.jpg\",\"img/0894/6b2e9509-8699-42b7-9582-7741df0ba2d7.jpg\"]","trial_type":"similarity","trial_index":41,"time_elapsed":292538,"internal_node_id":"0.0-6.0-35.0"},{"sim_score":6,"rt":7503,"stimulus":"[\"img/0860/4a022222-056d-461c-ab02-39fac9647552.jpg\",\"img/0860/d9a0d117-6d1d-41c0-8fec-9aff0fd9e9f2.jpg\"]","trial_type":"similarity","trial_index":42,"time_elapsed":301048,"internal_node_id":"0.0-6.0-36.0"},{"sim_score":1,"rt":4229,"stimulus":"[\"img/0862/92f0146c-20c4-482e-aef5-adb693790338.jpg\",\"img/0864/b3c4e378-28f0-4699-9338-2a257b4bca04.jpg\"]","trial_type":"similarity","trial_index":43,"time_elapsed":306284,"internal_node_id":"0.0-6.0-37.0"},{"sim_score":1,"rt":3021,"stimulus":"[\"img/0766/b84598d0-5b41-4841-88b0-b441b48289f5.jpg\",\"img/0866/23a224f3-2012-4fc8-8e0f-3c36f8de27fd.jpg\"]","trial_type":"similarity","trial_index":44,"time_elapsed":310315,"internal_node_id":"0.0-6.0-38.0"},{"sim_score":2,"rt":8233,"stimulus":"[\"img/0875/2c361b79-c3d1-4eda-812e-bf03192407bf.jpg\",\"img/0898/cd3aaa3f-efa9-4ab3-8d6f-a6a9273ddf42.jpg\"]","trial_type":"similarity","trial_index":45,"time_elapsed":319558,"internal_node_id":"0.0-6.0-39.0"},{"sim_score":6,"rt":4233,"stimulus":"[\"img/0766/d919cedb-f9b7-4f30-83bb-3e9c65001ceb.jpg\",\"img/0769/aad494cc-674d-4a08-9bfa-24a88ebe3c79.jpg\"]","trial_type":"similarity","trial_index":46,"time_elapsed":324801,"internal_node_id":"0.0-6.0-40.0"},{"sim_score":1,"rt":3902,"stimulus":"[\"img/0874/995f0332-0439-4eb4-add3-957335dbf6d9.jpg\",\"img/0764/713cc27e-2338-4486-bfe9-5f5725fbd7a0.jpg\"]","trial_type":"similarity","trial_index":47,"time_elapsed":349339,"internal_node_id":"0.0-6.0-41.0"},{"sim_score":1,"rt":4359,"stimulus":"[\"img/0868/3a62db2d-97e9-44a3-b8e3-a48c6f0e423b.jpg\",\"img/0902/7499db23-3a41-41ea-ab5b-6ab4d4c3ed35.jpg\"]","trial_type":"similarity","trial_index":48,"time_elapsed":354713,"internal_node_id":"0.0-6.0-42.0"},{"sim_score":1,"rt":3619,"stimulus":"[\"img/0875/5a716432-c6ca-4b1c-955a-2b8ac25198ee.jpg\",\"img/0899/ddf96ade-692e-4602-bd22-dedbb46401bc.jpg\"]","trial_type":"similarity","trial_index":49,"time_elapsed":359344,"internal_node_id":"0.0-6.0-43.0"},{"sim_score":3,"rt":6633,"stimulus":"[\"img/0866/9b38d691-1802-4959-ab3f-fc902f0e4ea6.jpg\",\"img/0860/4c530c3c-6aab-492a-94d1-9c01797bde40.jpg\"]","trial_type":"similarity","trial_index":50,"time_elapsed":366992,"internal_node_id":"0.0-6.0-44.0"},{"sim_score":3,"rt":4076,"stimulus":"[\"img/0766/e8052e17-9dae-4139-802b-6e590cb2d526.jpg\",\"img/0903/647ce311-8c71-479a-8361-961db1457139.jpg\"]","trial_type":"similarity","trial_index":51,"time_elapsed":372077,"internal_node_id":"0.0-6.0-45.0"},{"sim_score":2,"rt":5137,"stimulus":"[\"img/0901/693e0535-ef7e-4d60-af9d-fac2f38e8307.jpg\",\"img/0904/25365108-e038-4021-aac9-797f2063b337.jpg\"]","trial_type":"similarity","trial_index":52,"time_elapsed":378225,"internal_node_id":"0.0-6.0-46.0"},{"sim_score":7,"rt":4695,"stimulus":"[\"img/0758/821c68d3-5cb0-4eae-8659-30e6263fca39.jpg\",\"img/0902/af40b98b-3d23-4d95-b401-49ba5783ce39.jpg\"]","trial_type":"similarity","trial_index":53,"time_elapsed":383929,"internal_node_id":"0.0-6.0-47.0"},{"sim_score":7,"rt":4588,"stimulus":"[\"img/0764/fb7d4a20-a475-465e-a74f-aa39a0d33d16.jpg\",\"img/0764/f713847b-4832-42d1-8fb3-e17e37fd745c.jpg\"]","trial_type":"similarity","trial_index":54,"time_elapsed":389531,"internal_node_id":"0.0-6.0-48.0"},{"sim_score":1,"rt":3311,"stimulus":"[\"img/0866/8efcaa46-83ab-4dee-a35f-850402aa21ae.jpg\",\"img/0902/168ebd47-9e82-4ab7-a18b-c3da85072db8.jpg\"]","trial_type":"similarity","trial_index":55,"time_elapsed":393851,"internal_node_id":"0.0-6.0-49.0"},{"sim_score":2,"rt":4336,"stimulus":"[\"img/0764/bd2eaa3e-95a9-4a59-a78e-3f81c766eea9.jpg\",\"img/0758/9fb5b2fe-3f00-4fe6-973c-1ce10d5f4cd5.jpg\"]","trial_type":"similarity","trial_index":56,"time_elapsed":399198,"internal_node_id":"0.0-6.0-50.0"},{"sim_score":1,"rt":3619,"stimulus":"[\"img/0898/993d8f2d-bef7-4251-a193-0f93a32b7763.jpg\",\"img/0894/5c7677b0-a4f1-479e-b274-7822c415175a.jpg\"]","trial_type":"similarity","trial_index":57,"time_elapsed":403827,"internal_node_id":"0.0-6.0-51.0"},{"sim_score":5,"rt":5287,"stimulus":"[\"img/0875/8521fd58-3b1e-4dc5-97ae-804edfa6734a.jpg\",\"img/0866/11a1d141-be5e-443c-98c1-a9d4d9e3dec0.jpg\"]","trial_type":"similarity","trial_index":58,"time_elapsed":410122,"internal_node_id":"0.0-6.0-52.0"},{"sim_score":7,"rt":3353,"stimulus":"[\"img/0904/d23dd7be-7fe8-4435-82f7-bd592c01e6a1.jpg\",\"img/0904/fe746a3f-8458-48d0-8a13-8cba2a9df9f8.jpg\"]","trial_type":"similarity","trial_index":59,"time_elapsed":414488,"internal_node_id":"0.0-6.0-53.0"},{"sim_score":2,"rt":4827,"stimulus":"[\"img/0769/1afb527f-9887-428c-bd26-a12c2f9efb68.jpg\",\"img/0769/4a1d0b52-3fe8-40fb-bb1c-c814fe49a68c.jpg\"]","trial_type":"similarity","trial_index":60,"time_elapsed":420331,"internal_node_id":"0.0-6.0-54.0"},{"sim_score":6,"rt":5743,"stimulus":"[\"img/0898/a114b375-cb89-44ba-9498-74213f1ecdee.jpg\",\"img/0758/61d64021-9214-4951-bdf8-f871f9827cf9.jpg\"]","trial_type":"similarity","trial_index":61,"time_elapsed":427090,"internal_node_id":"0.0-6.0-55.0"},{"sim_score":2,"rt":3612,"stimulus":"[\"img/0769/91acb237-65a3-4d0b-9748-af5c7b83d3c7.jpg\",\"img/0902/0db94c50-f1fb-4091-953c-29ca0466bee2.jpg\"]","trial_type":"similarity","trial_index":62,"time_elapsed":431718,"internal_node_id":"0.0-6.0-56.0"},{"sim_score":5,"rt":5710,"stimulus":"[\"img/0864/49150900-7f25-4ce8-8d10-9b47a71d1997.jpg\",\"img/0881/7e31e5dc-2240-4b1b-b5a0-3acd980099ef.jpg\"]","trial_type":"similarity","trial_index":63,"time_elapsed":438439,"internal_node_id":"0.0-6.0-57.0"},{"sim_score":1,"rt":4783,"stimulus":"[\"img/0758/7ffbc76b-1fc1-432c-8f7e-9ec8d1b3f643.jpg\",\"img/0868/6a28c3b0-3d76-498a-9fb7-ddafc665eca8.jpg\"]","trial_type":"similarity","trial_index":64,"time_elapsed":444235,"internal_node_id":"0.0-6.0-58.0"},{"sim_score":2,"rt":4580,"stimulus":"[\"img/0862/fad1d7c1-8187-43c3-942a-0fc12183e48e.jpg\",\"img/0769/a3cfbdeb-acb3-4eac-87fb-4b117f42d4f8.jpg\"]","trial_type":"similarity","trial_index":65,"time_elapsed":449823,"internal_node_id":"0.0-6.0-59.0"},{"sim_score":6,"rt":5187,"stimulus":"[\"img/0764/06ea144f-f4f3-4a14-ba47-f20f35c561e0.jpg\",\"img/0903/bf0a7d60-eca5-44b0-bafd-baf21db9904b.jpg\"]","trial_type":"similarity","trial_index":66,"time_elapsed":456020,"internal_node_id":"0.0-6.0-60.0"},{"sim_score":7,"rt":4631,"stimulus":"[\"img/0899/b45c550b-96c3-4255-ad59-48a2b4db1c1e.jpg\",\"img/0899/25ae6ec8-9565-49fe-a8bb-8d0666f52716.jpg\"]","trial_type":"similarity","trial_index":67,"time_elapsed":461663,"internal_node_id":"0.0-6.0-61.0"},{"sim_score":5,"rt":4069,"stimulus":"[\"img/0860/8fdba999-b946-4c7d-9891-336018b563ef.jpg\",\"img/0875/e7e66b13-b573-431e-b85e-288ce04a35a3.jpg\"]","trial_type":"similarity","trial_index":68,"time_elapsed":466745,"internal_node_id":"0.0-6.0-62.0"},{"sim_score":2,"rt":5574,"stimulus":"[\"img/0868/09a9ef4d-d000-4cfa-a6aa-ebec7c2edeb4.jpg\",\"img/0874/3ce41e7c-40c8-4d58-a546-171114521796.jpg\"]","trial_type":"similarity","trial_index":69,"time_elapsed":473331,"internal_node_id":"0.0-6.0-63.0"},{"sim_score":2,"rt":3963,"stimulus":"[\"img/0758/e1ba5e53-addc-436a-b428-d34fc1b130dc.jpg\",\"img/0862/99a99e39-8355-44ec-b993-e7bcec111e1c.jpg\"]","trial_type":"similarity","trial_index":70,"time_elapsed":478305,"internal_node_id":"0.0-6.0-64.0"},{"sim_score":6,"rt":4348,"stimulus":"[\"img/0904/b5855d6a-7ef9-46ca-9215-6e9fa046e543.jpg\",\"img/0898/ec565187-2e31-4fdd-9a5c-153d0c789ae0.jpg\"]","trial_type":"similarity","trial_index":71,"time_elapsed":483661,"internal_node_id":"0.0-6.0-65.0"},{"sim_score":1,"rt":3845,"stimulus":"[\"img/0881/5fe04dd0-5c74-47b7-99c8-b068db9ca26a.jpg\",\"img/0866/4a87911a-d5be-4d4e-ab8e-3d1f581bf507.jpg\"]","trial_type":"similarity","trial_index":72,"time_elapsed":488519,"internal_node_id":"0.0-6.0-66.0"},{"sim_score":5,"rt":4684,"stimulus":"[\"img/0867/db7e032f-162b-46f5-ae67-2b29679adee4.jpg\",\"img/0898/661621d4-a14e-487c-8c74-354134a29710.jpg\"]","trial_type":"similarity","trial_index":73,"time_elapsed":494213,"internal_node_id":"0.0-6.0-67.0"},{"sim_score":5,"rt":4967,"stimulus":"[\"img/0902/01b41522-de46-4c3a-b0af-a61b2682b40e.jpg\",\"img/0764/ca9829fe-aaf8-45b8-b98a-6bae751c63dd.jpg\"]","trial_type":"similarity","trial_index":74,"time_elapsed":500191,"internal_node_id":"0.0-6.0-68.0"},{"sim_score":5,"rt":5737,"stimulus":"[\"img/0875/a4935837-7d3c-4df6-88c1-36a94d4991ca.jpg\",\"img/0867/a749dddb-69f0-44a6-acdc-2bf295cf6dcc.jpg\"]","trial_type":"similarity","trial_index":75,"time_elapsed":506935,"internal_node_id":"0.0-6.0-69.0"},{"sim_score":7,"rt":3457,"stimulus":"[\"img/0766/fd064894-7147-4af5-97e9-2089d5472656.jpg\",\"img/0764/03c07b98-3f18-4b71-bb70-ecff564a78d1.jpg\"]","trial_type":"similarity","trial_index":76,"time_elapsed":511403,"internal_node_id":"0.0-6.0-70.0"},{"sim_score":5,"rt":5602,"stimulus":"[\"img/0894/10f22b96-040c-44f4-950b-a4963f3f506c.jpg\",\"img/0867/8ba0c5a7-c7e4-42cf-a80a-543763b90779.jpg\"]","trial_type":"similarity","trial_index":77,"time_elapsed":518016,"internal_node_id":"0.0-6.0-71.0"},{"sim_score":1,"rt":3401,"stimulus":"[\"img/0875/2e13d160-eea1-416b-aff1-d37ab99ecc1d.jpg\",\"img/0764/4952d0a0-c9be-471a-8ec7-94a37bf4051d.jpg\"]","trial_type":"similarity","trial_index":78,"time_elapsed":522427,"internal_node_id":"0.0-6.0-72.0"},{"sim_score":3,"rt":5133,"stimulus":"[\"img/0867/de92135f-5b65-4ed9-b245-188292c7c2f8.jpg\",\"img/0866/c446214b-a368-4c65-ae39-ea46894256ab.jpg\"]","trial_type":"similarity","trial_index":79,"time_elapsed":528569,"internal_node_id":"0.0-6.0-73.0"},{"sim_score":1,"rt":3957,"stimulus":"[\"img/0903/9b60ef5b-234f-4239-892b-3d4c412accc2.jpg\",\"img/0758/d540bee6-b460-4c32-ac57-bc282742d7d4.jpg\"]","trial_type":"similarity","trial_index":80,"time_elapsed":533533,"internal_node_id":"0.0-6.0-74.0"},{"sim_score":1,"rt":2926,"stimulus":"[\"img/0766/989c5c7f-1aff-4442-ac63-9d46acf4a891.jpg\",\"img/0868/fd307a36-9a3a-47d7-ab7c-f810d0b35040.jpg\"]","trial_type":"similarity","trial_index":81,"time_elapsed":537468,"internal_node_id":"0.0-6.0-75.0"},{"sim_score":1,"rt":3288,"stimulus":"[\"img/0874/a3bc679d-619f-4db6-bb68-116dcb757d9c.jpg\",\"img/0766/dd3e18d0-0c98-4d05-b850-69976ee8cd75.jpg\"]","trial_type":"similarity","trial_index":82,"time_elapsed":541766,"internal_node_id":"0.0-6.0-76.0"},{"sim_score":5,"rt":4059,"stimulus":"[\"img/0881/566f45f8-5fed-4479-a60f-26377e60a62d.jpg\",\"img/0868/0d3abd3a-b6c3-4584-a9f7-e2da63748b3d.jpg\"]","trial_type":"similarity","trial_index":83,"time_elapsed":546833,"internal_node_id":"0.0-6.0-77.0"},{"sim_score":2,"rt":3942,"stimulus":"[\"img/0758/6cd8c362-ae2a-41eb-80a3-3a4f7ace1530.jpg\",\"img/0901/875dedb9-24c9-4443-9f8c-85e97d70ee5a.jpg\"]","trial_type":"similarity","trial_index":84,"time_elapsed":551790,"internal_node_id":"0.0-6.0-78.0"},{"sim_score":2,"rt":4038,"stimulus":"[\"img/0881/14236cf2-6b95-48b8-9368-78af09d2d27f.jpg\",\"img/0898/e167334e-cc1d-4986-b3b1-c7bc7da64baa.jpg\"]","trial_type":"similarity","trial_index":85,"time_elapsed":556837,"internal_node_id":"0.0-6.0-79.0"},{"sim_score":5,"rt":3478,"stimulus":"[\"img/0867/bf560d4f-dee3-4f11-a385-705cc1aa5f3c.jpg\",\"img/0758/d41c06bf-ebaf-454b-91c6-1a17f917b659.jpg\"]","trial_type":"similarity","trial_index":86,"time_elapsed":561323,"internal_node_id":"0.0-6.0-80.0"},{"sim_score":6,"rt":5411,"stimulus":"[\"img/0769/878531fd-e0e8-4ad1-b9ad-f018bb104ca0.jpg\",\"img/0899/1b3457ea-87d4-4946-a01c-aac1863ed46c.jpg\"]","trial_type":"similarity","trial_index":87,"time_elapsed":567741,"internal_node_id":"0.0-6.0-81.0"},{"sim_score":7,"rt":3225,"stimulus":"[\"img/0903/f1fa0f8d-e62b-4b4a-a174-31a0fabfe61b.jpg\",\"img/0903/47e39de8-6959-469f-8be9-6999a6db207c.jpg\"]","trial_type":"similarity","trial_index":88,"time_elapsed":571972,"internal_node_id":"0.0-6.0-82.0"},{"sim_score":1,"rt":3715,"stimulus":"[\"img/0867/f26f6b60-f772-4f4c-95a4-addc62cfd692.jpg\",\"img/0766/27f54113-8561-4568-9ffe-0a1650ae65ec.jpg\"]","trial_type":"similarity","trial_index":89,"time_elapsed":581878,"internal_node_id":"0.0-6.0-83.0"},{"sim_score":1,"rt":3409,"stimulus":"[\"img/0902/1f4a4c62-68c1-4993-b213-05652a173ed1.jpg\",\"img/0867/7d1c497b-c1b3-4ed8-abb5-d7f73306015f.jpg\"]","trial_type":"similarity","trial_index":90,"time_elapsed":586301,"internal_node_id":"0.0-6.0-84.0"},{"sim_score":1,"rt":4753,"stimulus":"[\"img/0901/168eb52c-c415-43f1-b5c8-e76e1a1ec247.jpg\",\"img/0875/fb732ab5-013a-4366-9f65-27811ed157e9.jpg\"]","trial_type":"similarity","trial_index":91,"time_elapsed":592065,"internal_node_id":"0.0-6.0-85.0"},{"sim_score":1,"rt":4076,"stimulus":"[\"img/0764/978aede9-4590-4ad0-b234-135c83e5d669.jpg\",\"img/0866/a04d37f0-99dd-478a-b6c6-58b215138f84.jpg\"]","trial_type":"similarity","trial_index":92,"time_elapsed":597151,"internal_node_id":"0.0-6.0-86.0"},{"sim_score":3,"rt":5340,"stimulus":"[\"img/0901/58ec7fa9-b466-4651-90aa-c082df0972de.jpg\",\"img/0894/4739e06d-c31e-4bf1-bf91-c97fa9afb456.jpg\"]","trial_type":"similarity","trial_index":93,"time_elapsed":603503,"internal_node_id":"0.0-6.0-87.0"},{"sim_score":5,"rt":3337,"stimulus":"[\"img/0898/40f99fb2-64d2-4e72-8a7f-a1cf60741e69.jpg\",\"img/0769/e31b3bd8-efcb-413e-aa8c-75fac2b8f2ac.jpg\"]","trial_type":"similarity","trial_index":94,"time_elapsed":607852,"internal_node_id":"0.0-6.0-88.0"},{"sim_score":5,"rt":4187,"stimulus":"[\"img/0769/7c50e5f5-cc38-4d48-b009-fbe17bcea61c.jpg\",\"img/0894/6aa5545f-fa7d-4286-bbaa-aaf34dc7ec96.jpg\"]","trial_type":"similarity","trial_index":95,"time_elapsed":613098,"internal_node_id":"0.0-6.0-89.0"},{"sim_score":3,"rt":4732,"stimulus":"[\"img/0862/d0ca4c78-fc35-46ed-bdcc-8e124283c53e.jpg\",\"img/0874/31e22c7c-99aa-40b1-bf03-dd73fa2df4d6.jpg\"]","trial_type":"similarity","trial_index":96,"time_elapsed":618840,"internal_node_id":"0.0-6.0-90.0"},{"sim_score":6,"rt":4198,"stimulus":"[\"img/0894/e5edf723-72a5-4673-8441-6c1734a8929b.jpg\",\"img/0766/006035d8-c736-4daf-bbe4-a9e373af9da6.jpg\"]","trial_type":"similarity","trial_index":97,"time_elapsed":624055,"internal_node_id":"0.0-6.0-91.0"},{"sim_score":5,"rt":4132,"stimulus":"[\"img/0874/3f471690-9788-4d03-90c7-f615aecef149.jpg\",\"img/0867/179ab87a-8eac-4c52-a41f-2e48e3120f09.jpg\"]","trial_type":"similarity","trial_index":98,"time_elapsed":629199,"internal_node_id":"0.0-6.0-92.0"},{"sim_score":2,"rt":4156,"stimulus":"[\"img/0899/d60714ae-98d7-4564-8c98-94dba1351135.jpg\",\"img/0868/4a8a45ed-2c4f-421b-9564-409a33ecd26c.jpg\"]","trial_type":"similarity","trial_index":99,"time_elapsed":634363,"internal_node_id":"0.0-6.0-93.0"},{"sim_score":5,"rt":3977,"stimulus":"[\"img/0903/6f343da5-00d9-4d50-89d1-2ed24cdb8319.jpg\",\"img/0862/7918ca67-5bd3-4606-a5ea-c39fb11a9297.jpg\"]","trial_type":"similarity","trial_index":100,"time_elapsed":639347,"internal_node_id":"0.0-6.0-94.0"},{"sim_score":7,"rt":3044,"stimulus":"[\"img/0899/a05bea16-2bb4-4cb9-b8fb-4ff975db6971.jpg\",\"img/0766/a754e4b6-5019-4cf4-8f58-34c20547a1f5.jpg\"]","trial_type":"similarity","trial_index":101,"time_elapsed":643400,"internal_node_id":"0.0-6.0-95.0"},{"sim_score":7,"rt":3637,"stimulus":"[\"img/0867/85a96c62-548f-4994-9553-819e03c3135a.jpg\",\"img/0868/7b212364-ff5f-4e28-9241-7eb6ea00161b.jpg\"]","trial_type":"similarity","trial_index":102,"time_elapsed":648050,"internal_node_id":"0.0-6.0-96.0"},{"sim_score":3,"rt":5263,"stimulus":"[\"img/0862/00c06b00-3b73-44e9-bc1e-c5aafb438321.jpg\",\"img/0901/04a53755-6da5-44d4-a7a6-48a6bc0a2280.jpg\"]","trial_type":"similarity","trial_index":103,"time_elapsed":654333,"internal_node_id":"0.0-6.0-97.0"},{"sim_score":3,"rt":5272,"stimulus":"[\"img/0875/90da8d75-108a-44ad-b999-e21fee3860d3.jpg\",\"img/0766/908bc45b-7c9e-4f95-806e-86b196ebcb2c.jpg\"]","trial_type":"similarity","trial_index":104,"time_elapsed":660617,"internal_node_id":"0.0-6.0-98.0"},{"sim_score":7,"rt":3806,"stimulus":"[\"img/0758/eabcd7a8-56ad-4fd2-bc24-90f6b7b33265.jpg\",\"img/0874/7e4f2150-3b59-4a36-b5da-a4e0ba410531.jpg\"]","trial_type":"similarity","trial_index":105,"time_elapsed":665434,"internal_node_id":"0.0-6.0-99.0"},{"sim_score":2,"rt":4386,"stimulus":"[\"img/0904/60d1a521-edf7-4696-9263-f21ac0e62a01.jpg\",\"img/0868/1a62b2b2-18f5-466e-b564-5176a57c565e.jpg\"]","trial_type":"similarity","trial_index":106,"time_elapsed":670832,"internal_node_id":"0.0-6.0-100.0"},{"sim_score":3,"rt":4645,"stimulus":"[\"img/0903/c3cb4a01-2797-43ca-b216-88c67b323fbb.jpg\",\"img/0866/07c9c966-3c8d-40e7-8128-92b2acbaed5d.jpg\"]","trial_type":"similarity","trial_index":107,"time_elapsed":676490,"internal_node_id":"0.0-6.0-101.0"},{"sim_score":5,"rt":7999,"stimulus":"[\"img/0868/4e626425-63c8-484a-8a1d-e66ee4e0bef8.jpg\",\"img/0769/76eaa4a3-dfe9-4dc1-9efb-caebe86264e1.jpg\"]","trial_type":"similarity","trial_index":108,"time_elapsed":685498,"internal_node_id":"0.0-6.0-102.0"},{"sim_score":5,"rt":6117,"stimulus":"[\"img/0902/6730b12a-f0a7-4587-8c10-a32fae16565b.jpg\",\"img/0899/d8f2dd94-570e-4e8c-a087-d96090fb9e8c.jpg\"]","trial_type":"similarity","trial_index":109,"time_elapsed":692622,"internal_node_id":"0.0-6.0-103.0"},{"sim_score":5,"rt":5826,"stimulus":"[\"img/0868/c8ac40c7-6904-4e13-8d61-c75d3052dc4e.jpg\",\"img/0862/e8cc3bdf-cc43-4565-bccf-492626c70953.jpg\"]","trial_type":"similarity","trial_index":110,"time_elapsed":699462,"internal_node_id":"0.0-6.0-104.0"},{"sim_score":5,"rt":6226,"stimulus":"[\"img/0903/2a9c8033-3e70-47fa-816d-97ee1813a3a3.jpg\",\"img/0894/2217bdcd-23a7-42d3-823b-23f2488d7e87.jpg\"]","trial_type":"similarity","trial_index":111,"time_elapsed":706693,"internal_node_id":"0.0-6.0-105.0"},{"sim_score":6,"rt":5717,"stimulus":"[\"img/0864/1d15626a-2f7c-410f-819c-0fa2c967e95e.jpg\",\"img/0874/1016b306-087c-4afc-aa08-fa527b28dc76.jpg\"]","trial_type":"similarity","trial_index":112,"time_elapsed":713422,"internal_node_id":"0.0-6.0-106.0"},{"sim_score":2,"rt":3699,"stimulus":"[\"img/0862/24cdc752-c2e5-4a17-86a6-6f2045d8553b.jpg\",\"img/0902/44cd9b7e-fdfb-4f78-90de-8d4c9d279365.jpg\"]","trial_type":"similarity","trial_index":113,"time_elapsed":718132,"internal_node_id":"0.0-6.0-107.0"},{"sim_score":3,"rt":4183,"stimulus":"[\"img/0904/09dac84f-3d1c-4445-a68e-d0389fdbf1e9.jpg\",\"img/0903/aa842abe-6fa3-448a-bf71-88d3ad28663b.jpg\"]","trial_type":"similarity","trial_index":114,"time_elapsed":723322,"internal_node_id":"0.0-6.0-108.0"},{"sim_score":2,"rt":5177,"stimulus":"[\"img/0764/b8e23f4f-ff19-4472-ad9b-2f85548ebca0.jpg\",\"img/0864/3651d070-2fc5-4848-b6a6-088a2d9ac5c9.jpg\"]","trial_type":"similarity","trial_index":115,"time_elapsed":729507,"internal_node_id":"0.0-6.0-109.0"},{"sim_score":3,"rt":5925,"stimulus":"[\"img/0866/386235d2-6857-41e7-88a8-25cfc3430025.jpg\",\"img/0894/1b3888e6-cf36-4c4a-a039-187aa5cb71ac.jpg\"]","trial_type":"similarity","trial_index":116,"time_elapsed":736443,"internal_node_id":"0.0-6.0-110.0"},{"sim_score":5,"rt":4966,"stimulus":"[\"img/0899/93494f3b-d539-4075-b027-d82e344563da.jpg\",\"img/0903/70d764d9-1f35-4da7-a35d-4cc39834d270.jpg\"]","trial_type":"similarity","trial_index":117,"time_elapsed":742419,"internal_node_id":"0.0-6.0-111.0"},{"sim_score":6,"rt":4321,"stimulus":"[\"img/0902/d1083f2c-5520-44ec-81a8-3f856fbf0e80.jpg\",\"img/0904/5aec2708-cf14-4a58-aa30-9a8a61c1be0e.jpg\"]","trial_type":"similarity","trial_index":118,"time_elapsed":747751,"internal_node_id":"0.0-6.0-112.0"},{"sim_score":6,"rt":4784,"stimulus":"[\"img/0864/efcfbb1b-8197-44c9-b723-40d6c608dd3c.jpg\",\"img/0860/c47fdead-eb02-4989-b078-26f4852f44fe.jpg\"]","trial_type":"similarity","trial_index":119,"time_elapsed":753542,"internal_node_id":"0.0-6.0-113.0"},{"sim_score":2,"rt":5251,"stimulus":"[\"img/0860/31ff6436-98bf-4652-bed2-40f627229568.jpg\",\"img/0899/4f7bc593-8ddd-4da3-a0b9-84da730d3370.jpg\"]","trial_type":"similarity","trial_index":120,"time_elapsed":759804,"internal_node_id":"0.0-6.0-114.0"},{"sim_score":1,"rt":4121,"stimulus":"[\"img/0881/1407b85b-a1c6-45b1-9884-3b24203efadb.jpg\",\"img/0903/5995f4a8-fa82-46f8-8760-fd7800a5ca34.jpg\"]","trial_type":"similarity","trial_index":121,"time_elapsed":764934,"internal_node_id":"0.0-6.0-115.0"},{"sim_score":7,"rt":3982,"stimulus":"[\"img/0894/7f2f31fd-6618-41c6-b65a-0fd8b2851bc9.jpg\",\"img/0874/c0378dac-9370-439a-8b79-db27c96fb390.jpg\"]","trial_type":"similarity","trial_index":122,"time_elapsed":769926,"internal_node_id":"0.0-6.0-116.0"},{"sim_score":5,"rt":5098,"stimulus":"[\"img/0881/c24f3051-eefa-42de-aba6-fccb56d93c70.jpg\",\"img/0862/ba89835a-408c-480b-8594-ed4ffa97eb5c.jpg\"]","trial_type":"similarity","trial_index":123,"time_elapsed":776035,"internal_node_id":"0.0-6.0-117.0"},{"sim_score":3,"rt":6432,"stimulus":"[\"img/0868/4bd5105a-d2c3-4f82-8c80-57196106ba53.jpg\",\"img/0875/99698b4d-b4a1-44bc-8c83-8ea755bbbf61.jpg\"]","trial_type":"similarity","trial_index":124,"time_elapsed":783477,"internal_node_id":"0.0-6.0-118.0"},{"sim_score":6,"rt":6956,"stimulus":"[\"img/0860/b03b963d-949b-4d8d-b19c-4950c89eeca2.jpg\",\"img/0758/67c0be2f-9e91-48b3-8219-70ac0a1802fa.jpg\"]","trial_type":"similarity","trial_index":125,"time_elapsed":791442,"internal_node_id":"0.0-6.0-119.0"},{"sim_score":5,"rt":6001,"stimulus":"[\"img/0864/e8bd659f-aa43-4748-877e-3118e8b4e189.jpg\",\"img/0875/42910c99-5463-450a-a0f8-d4d060a11455.jpg\"]","trial_type":"similarity","trial_index":126,"time_elapsed":798451,"internal_node_id":"0.0-6.0-120.0"},{"sim_score":1,"rt":6034,"stimulus":"[\"img/0898/b3290bf9-215b-4b45-b21a-65bdf73f142f.jpg\",\"img/0866/0207e9a2-7dbb-40b5-9459-b472aaeceb2a.jpg\"]","trial_type":"similarity","trial_index":127,"time_elapsed":805497,"internal_node_id":"0.0-6.0-121.0"},{"sim_score":3,"rt":3857,"stimulus":"[\"img/0874/eba003b4-cdab-4eee-8bc3-f064c7d94165.jpg\",\"img/0904/9dd5708f-3f8b-46a9-b49f-2f2fab87b357.jpg\"]","trial_type":"similarity","trial_index":128,"time_elapsed":810361,"internal_node_id":"0.0-6.0-122.0"},{"sim_score":1,"rt":3306,"stimulus":"[\"img/0904/2f88ce53-02d0-4f95-a082-182c56a0eeb4.jpg\",\"img/0864/0116ca98-293d-4fa6-a93b-5a6144ef64cc.jpg\"]","trial_type":"similarity","trial_index":129,"time_elapsed":814680,"internal_node_id":"0.0-6.0-123.0"},{"sim_score":5,"rt":4927,"stimulus":"[\"img/0894/76c1201f-8524-4865-85e6-dda8cb4ac986.jpg\",\"img/0902/3b243e54-0803-4c29-af42-4037c2118495.jpg\"]","trial_type":"similarity","trial_index":130,"time_elapsed":820619,"internal_node_id":"0.0-6.0-124.0"},{"sim_score":5,"rt":5122,"stimulus":"[\"img/0868/77091fc7-a590-4ebb-b915-fdb2483a2399.jpg\",\"img/0864/5f74a653-3bdc-4308-8cca-ac667dc22e1f.jpg\"]","trial_type":"similarity","trial_index":131,"time_elapsed":830907,"internal_node_id":"0.0-6.0-125.0"},{"sim_score":1,"rt":2802,"stimulus":"[\"img/0899/f95cbdb4-f804-4f5d-ad76-373ad343e658.jpg\",\"img/0866/a15b02be-11bb-43e3-b0e0-ecc3bd7dfc49.jpg\"]","trial_type":"similarity","trial_index":132,"time_elapsed":834716,"internal_node_id":"0.0-6.0-126.0"},{"sim_score":3,"rt":4244,"stimulus":"[\"img/0875/dbdd643e-6d0e-4a5c-ab57-b9c29b9c981a.jpg\",\"img/0904/63dd06dd-dccb-47ba-9740-eb33239e18a7.jpg\"]","trial_type":"similarity","trial_index":133,"time_elapsed":839972,"internal_node_id":"0.0-6.0-127.0"},{"sim_score":1,"rt":4477,"stimulus":"[\"img/0867/12264664-1860-46df-8c21-162b9817cdda.jpg\",\"img/0899/57476fed-5962-4272-8fc9-b317bb777b54.jpg\"]","trial_type":"similarity","trial_index":134,"time_elapsed":845460,"internal_node_id":"0.0-6.0-128.0"},{"sim_score":2,"rt":4632,"stimulus":"[\"img/0901/da4fe30f-d12a-491e-96a2-5ab8ebaadd09.jpg\",\"img/0867/1719a35d-f085-48c0-9099-16c94fe418b4.jpg\"]","trial_type":"similarity","trial_index":135,"time_elapsed":851103,"internal_node_id":"0.0-6.0-129.0"},{"sim_score":1,"rt":4825,"stimulus":"[\"img/0864/87c467d3-abca-482f-ad80-3766c21b1bb3.jpg\",\"img/0769/3adfa417-3b90-4aab-b437-5eaa474189cb.jpg\"]","trial_type":"similarity","trial_index":136,"time_elapsed":856935,"internal_node_id":"0.0-6.0-130.0"},{"sim_score":2,"rt":5568,"stimulus":"[\"img/0903/8635cf25-2648-4fe9-8c42-79d2598e999c.jpg\",\"img/0868/15dd6fd7-791e-4b53-b203-195d617521a4.jpg\"]","trial_type":"similarity","trial_index":137,"time_elapsed":863513,"internal_node_id":"0.0-6.0-131.0"},{"sim_score":5,"rt":3649,"stimulus":"[\"img/0864/e336a4c5-6648-4fd7-b2f6-93a3fb83f8c6.jpg\",\"img/0867/aa05d113-fc19-4756-a8eb-7878f580bc92.jpg\"]","trial_type":"similarity","trial_index":138,"time_elapsed":868170,"internal_node_id":"0.0-6.0-132.0"},{"sim_score":4,"rt":5313,"stimulus":"[\"img/0901/4f9cffe0-c0be-4d7f-bacd-9d51efd19b4a.jpg\",\"img/0860/61fb959d-d4d9-4de4-9e4e-4fa62b4cfcd5.jpg\"]","trial_type":"similarity","trial_index":139,"time_elapsed":874495,"internal_node_id":"0.0-6.0-133.0"},{"sim_score":3,"rt":4747,"stimulus":"[\"img/0881/ee44e27f-d662-4608-b265-e7ffa19b216f.jpg\",\"img/0766/75c3d627-4f3b-40d5-9d9c-10c8a62db644.jpg\"]","trial_type":"similarity","trial_index":140,"time_elapsed":880282,"internal_node_id":"0.0-6.0-134.0"},{"sim_score":3,"rt":4505,"stimulus":"[\"img/0903/e2e55a9e-0397-4dc0-8adf-4a54cfefe1fe.jpg\",\"img/0864/ea327690-500b-4137-bf91-451b309fe6a5.jpg\"]","trial_type":"similarity","trial_index":141,"time_elapsed":885796,"internal_node_id":"0.0-6.0-135.0"},{"sim_score":2,"rt":3506,"stimulus":"[\"img/0758/335851a0-a55b-46d8-ab05-8463eda48349.jpg\",\"img/0894/05161000-f476-499b-a878-c13c7f347fd9.jpg\"]","trial_type":"similarity","trial_index":142,"time_elapsed":890312,"internal_node_id":"0.0-6.0-136.0"},{"sim_score":1,"rt":3142,"stimulus":"[\"img/0769/47700831-0ca2-4fdd-a498-a3bc5a528f43.jpg\",\"img/0860/702bd09d-df3a-40aa-a267-5f04474305b5.jpg\"]","trial_type":"similarity","trial_index":143,"time_elapsed":894464,"internal_node_id":"0.0-6.0-137.0"},{"sim_score":6,"rt":6166,"stimulus":"[\"img/0904/696ebb60-8891-417a-91fd-c53218907a95.jpg\",\"img/0766/71b81ebd-0937-4d7f-b8bf-c4e46a4728fd.jpg\"]","trial_type":"similarity","trial_index":144,"time_elapsed":901640,"internal_node_id":"0.0-6.0-138.0"},{"sim_score":3,"rt":4629,"stimulus":"[\"img/0868/d6d1f30d-4323-435a-b194-7892521bc57e.jpg\",\"img/0860/c7047cd2-7cc1-41b6-8a34-c0986774975f.jpg\"]","trial_type":"similarity","trial_index":145,"time_elapsed":907280,"internal_node_id":"0.0-6.0-139.0"},{"sim_score":5,"rt":4111,"stimulus":"[\"img/0758/7fba58df-2a7a-4b76-8a8f-62739f97f271.jpg\",\"img/0864/6e846d43-94a6-4b37-a268-65eda979f052.jpg\"]","trial_type":"similarity","trial_index":146,"time_elapsed":912398,"internal_node_id":"0.0-6.0-140.0"},{"sim_score":6,"rt":2644,"stimulus":"[\"img/0867/a498eef3-9fa4-4ab2-9778-4ae82ac40dc5.jpg\",\"img/0867/6e19c858-b606-45b2-a4c6-910a73f1d82c.jpg\"]","trial_type":"similarity","trial_index":147,"time_elapsed":916048,"internal_node_id":"0.0-6.0-141.0"},{"sim_score":6,"rt":4460,"stimulus":"[\"img/0898/224c1572-56b9-4f16-a9e4-6f3bc9c114bd.jpg\",\"img/0898/01bfe666-3510-4fc7-964f-d00d28732dc8.jpg\"]","trial_type":"similarity","trial_index":148,"time_elapsed":921520,"internal_node_id":"0.0-6.0-142.0"},{"sim_score":2,"rt":4100,"stimulus":"[\"img/0866/6f2a90d7-14f1-4f1b-bd64-fc0af6b9fe44.jpg\",\"img/0769/f229321f-04dd-42d7-b14a-ffad6b509862.jpg\"]","trial_type":"similarity","trial_index":149,"time_elapsed":926628,"internal_node_id":"0.0-6.0-143.0"},{"sim_score":5,"rt":4186,"stimulus":"[\"img/0860/c5ccd1a4-4bb7-48e1-9b25-72cfaf06909b.jpg\",\"img/0898/82231d4c-218b-4d0a-b50d-35a49b524e97.jpg\"]","trial_type":"similarity","trial_index":150,"time_elapsed":931825,"internal_node_id":"0.0-6.0-144.0"},{"sim_score":3,"rt":4076,"stimulus":"[\"img/0766/2da002a4-05c9-4f5c-9ed7-433b4183e273.jpg\",\"img/0864/3d4de670-b290-4285-9c3d-12a0e3af44e9.jpg\"]","trial_type":"similarity","trial_index":151,"time_elapsed":936915,"internal_node_id":"0.0-6.0-145.0"},{"sim_score":3,"rt":3758,"stimulus":"[\"img/0860/15b24a61-25be-4356-9eac-5ce95d0cb4a4.jpg\",\"img/0903/470acfd5-5571-4a7b-b3a4-28d87e098138.jpg\"]","trial_type":"similarity","trial_index":152,"time_elapsed":941683,"internal_node_id":"0.0-6.0-146.0"},{"sim_score":1,"rt":3843,"stimulus":"[\"img/0867/c66898ba-b71b-4d50-84f9-f7f84853a98d.jpg\",\"img/0764/56441045-b648-4ede-9632-3e9c0227080b.jpg\"]","trial_type":"similarity","trial_index":153,"time_elapsed":946538,"internal_node_id":"0.0-6.0-147.0"},{"sim_score":4,"rt":4651,"stimulus":"[\"img/0769/022c7e3b-c3f2-4119-b4bc-f22fa7cae18c.jpg\",\"img/0904/24fc38fe-842c-4831-ad8a-b1de5c25c0a8.jpg\"]","trial_type":"similarity","trial_index":154,"time_elapsed":952202,"internal_node_id":"0.0-6.0-148.0"},{"sim_score":2,"rt":4396,"stimulus":"[\"img/0764/1def7b22-b054-4ec2-860b-73d25691823b.jpg\",\"img/0901/77087ed2-6e12-4329-b2a5-605bca6d972d.jpg\"]","trial_type":"similarity","trial_index":155,"time_elapsed":957607,"internal_node_id":"0.0-6.0-149.0"},{"sim_score":5,"rt":3644,"stimulus":"[\"img/0904/4b8daf2a-13a9-4ea9-9e0b-b265b6e933e7.jpg\",\"img/0899/66bf4113-ee12-426c-84d2-ea410b6c803e.jpg\"]","trial_type":"similarity","trial_index":156,"time_elapsed":962259,"internal_node_id":"0.0-6.0-150.0"},{"sim_score":3,"rt":3036,"stimulus":"[\"img/0862/47ed5efd-4ec9-4b74-bb4e-a5f5cf0c3e7d.jpg\",\"img/0867/2e1a0b58-cdb1-4107-a14e-452530d7b9b0.jpg\"]","trial_type":"similarity","trial_index":157,"time_elapsed":966306,"internal_node_id":"0.0-6.0-151.0"},{"sim_score":7,"rt":3010,"stimulus":"[\"img/0766/f011ef45-fb48-44b8-8224-867ed2ccf786.jpg\",\"img/0766/d8221e53-2300-4d99-ae1b-0bfb0eabe579.jpg\"]","trial_type":"similarity","trial_index":158,"time_elapsed":970323,"internal_node_id":"0.0-6.0-152.0"},{"sim_score":2,"rt":3868,"stimulus":"[\"img/0862/ee3b7bff-4a70-4e84-9bea-4a565e456acb.jpg\",\"img/0894/3664e04c-c6d3-4c9b-afb6-25d89974b174.jpg\"]","trial_type":"similarity","trial_index":159,"time_elapsed":975204,"internal_node_id":"0.0-6.0-153.0"},{"sim_score":4,"rt":3563,"stimulus":"[\"img/0899/fd9efb43-701f-4cd6-baaa-4c38315f4bdc.jpg\",\"img/0901/00acf6c1-b66e-4060-bb04-4caf29b5a8b0.jpg\"]","trial_type":"similarity","trial_index":160,"time_elapsed":979775,"internal_node_id":"0.0-6.0-154.0"},{"sim_score":2,"rt":5246,"stimulus":"[\"img/0874/767f289c-9814-4496-803f-745cc8913d1f.jpg\",\"img/0874/bf14b896-e930-4fd9-9c05-2e83317a2773.jpg\"]","trial_type":"similarity","trial_index":161,"time_elapsed":986032,"internal_node_id":"0.0-6.0-155.0"},{"sim_score":2,"rt":4629,"stimulus":"[\"img/0860/e14d67c1-6d92-4f1e-9257-c8607159c19c.jpg\",\"img/0867/cc72ed48-7704-422c-86d6-467a1145287a.jpg\"]","trial_type":"similarity","trial_index":162,"time_elapsed":991670,"internal_node_id":"0.0-6.0-156.0"},{"sim_score":4,"rt":3827,"stimulus":"[\"img/0901/d6d15b1c-4a30-4f74-a3fd-d4c8ee4169ca.jpg\",\"img/0881/667e2147-d457-4f32-aa5f-6ab86e5848f1.jpg\"]","trial_type":"similarity","trial_index":163,"time_elapsed":996506,"internal_node_id":"0.0-6.0-157.0"},{"sim_score":6,"rt":3733,"stimulus":"[\"img/0903/005ad0de-4f52-433c-b515-dbe8d46184a3.jpg\",\"img/0902/5b45a7a0-81c8-4a71-aaa2-2ce09adb5a29.jpg\"]","trial_type":"similarity","trial_index":164,"time_elapsed":1001250,"internal_node_id":"0.0-6.0-158.0"},{"sim_score":1,"rt":3255,"stimulus":"[\"img/0860/5383b320-1518-4095-a58e-5cc1ae30b64c.jpg\",\"img/0764/d0bef2e0-e16b-4c82-9451-c1d16265eb67.jpg\"]","trial_type":"similarity","trial_index":165,"time_elapsed":1005512,"internal_node_id":"0.0-6.0-159.0"},{"sim_score":1,"rt":2904,"stimulus":"[\"img/0902/24d10fe7-314f-4d5a-8c7b-b43121bba0a4.jpg\",\"img/0875/cff79b3a-a797-4393-9757-6275f999ec04.jpg\"]","trial_type":"similarity","trial_index":166,"time_elapsed":1009425,"internal_node_id":"0.0-6.0-160.0"},{"sim_score":3,"rt":4141,"stimulus":"[\"img/0898/0c7dde4f-efce-4b7a-9387-6921635b7890.jpg\",\"img/0862/4f0a3b4c-afbf-486e-b248-1d54982f54b4.jpg\"]","trial_type":"similarity","trial_index":167,"time_elapsed":1014578,"internal_node_id":"0.0-6.0-161.0"},{"sim_score":3,"rt":4741,"stimulus":"[\"img/0894/492d2f29-d7b9-4422-8be8-47fd58bfaa8b.jpg\",\"img/0875/5a1e5100-0d94-4fec-bbe9-ca9894d2cf8e.jpg\"]","trial_type":"similarity","trial_index":168,"time_elapsed":1020326,"internal_node_id":"0.0-6.0-162.0"},{"sim_score":4,"rt":3698,"stimulus":"[\"img/0866/d266fece-59b3-46fa-b69f-96f6efb81b59.jpg\",\"img/0864/8ddd2e30-a1d0-479f-9cbe-591213023893.jpg\"]","trial_type":"similarity","trial_index":169,"time_elapsed":1025030,"internal_node_id":"0.0-6.0-163.0"},{"sim_score":1,"rt":4117,"stimulus":"[\"img/0766/717fd72f-a281-499b-a5ba-5e2ecc4d4866.jpg\",\"img/0862/eefa5588-9efd-4591-aa5f-a2e17c7d7bcc.jpg\"]","trial_type":"similarity","trial_index":170,"time_elapsed":1030158,"internal_node_id":"0.0-6.0-164.0"},{"sim_score":4,"rt":4207,"stimulus":"[\"img/0866/93a27239-8317-4e08-98ca-d8b1ff298e07.jpg\",\"img/0874/29830da7-be5f-44e5-b141-652a0ccf7269.jpg\"]","trial_type":"similarity","trial_index":171,"time_elapsed":1035375,"internal_node_id":"0.0-6.0-165.0"},{"sim_score":7,"rt":3131,"stimulus":"[\"img/0862/e697469a-ec19-4414-b972-7b9f3564785b.jpg\",\"img/0860/8277806e-b684-4474-8f7b-3fca946d7d4f.jpg\"]","trial_type":"similarity","trial_index":172,"time_elapsed":1039513,"internal_node_id":"0.0-6.0-166.0"},{"sim_score":5,"rt":7914,"stimulus":"[\"img/0766/00891401-e4c9-4ce1-bc19-f70740d174bc.jpg\",\"img/0901/1b86f2fc-7a1d-4aa8-9252-114f92edef3b.jpg\"]","trial_type":"similarity","trial_index":173,"time_elapsed":1053715,"internal_node_id":"0.0-6.0-167.0"},{"sim_score":7,"rt":3410,"stimulus":"[\"img/0862/1c20f772-3a51-4a80-aac0-f57dc9f86c28.jpg\",\"img/0862/f23038d4-c366-4f70-979f-66b62362efa4.jpg\"]","trial_type":"similarity","trial_index":174,"time_elapsed":1058133,"internal_node_id":"0.0-6.0-168.0"},{"sim_score":6,"rt":4982,"stimulus":"[\"img/0894/792c83e9-a747-4000-bc72-5663d2439edb.jpg\",\"img/0764/c643e165-df19-459f-8c2b-8357bf432a17.jpg\"]","trial_type":"similarity","trial_index":175,"time_elapsed":1064123,"internal_node_id":"0.0-6.0-169.0"},{"sim_score":5,"rt":3432,"stimulus":"[\"img/0874/a82926a3-0b43-4add-803c-d5f9ea7798ee.jpg\",\"img/0898/a8f16b02-e19f-423b-86c3-a36562ae1f9b.jpg\"]","trial_type":"similarity","trial_index":176,"time_elapsed":1068567,"internal_node_id":"0.0-6.0-170.0"},{"sim_score":1,"rt":2357,"stimulus":"[\"img/0860/f44ba3fb-03a2-42f0-8509-2c1ded493086.jpg\",\"img/0766/33519c22-aaa4-49d7-8d49-ab551db1945e.jpg\"]","trial_type":"similarity","trial_index":177,"time_elapsed":1071931,"internal_node_id":"0.0-6.0-171.0"},{"sim_score":2,"rt":4636,"stimulus":"[\"img/0898/c3cecf20-f7fd-45fa-97d0-dc0a63e8d6c0.jpg\",\"img/0864/f92649a2-0590-4d31-9a7a-1bfb81666a2d.jpg\"]","trial_type":"similarity","trial_index":178,"time_elapsed":1077577,"internal_node_id":"0.0-6.0-172.0"},{"sim_score":5,"rt":4167,"stimulus":"[\"img/0881/f7a8cc63-8842-40a4-9ff8-fe530310d62c.jpg\",\"img/0764/23ea9375-f801-4a96-9925-7d453da887c7.jpg\"]","trial_type":"similarity","trial_index":179,"time_elapsed":1082751,"internal_node_id":"0.0-6.0-173.0"},{"sim_score":1,"rt":6680,"stimulus":"[\"img/0898/08c72dac-f8ad-407a-9ce6-8c9a5d679c3a.jpg\",\"img/0868/293079b8-7e0c-4afd-a390-1e5d35fe3ded.jpg\"]","trial_type":"similarity","trial_index":180,"time_elapsed":1090437,"internal_node_id":"0.0-6.0-174.0"},{"sim_score":7,"rt":2839,"stimulus":"[\"img/0864/9b2490c5-a282-400a-9736-e1a0ecbf1cb7.jpg\",\"img/0864/4bd81bc6-c13d-46df-95a9-485886dc7c1b.jpg\"]","trial_type":"similarity","trial_index":181,"time_elapsed":1094285,"internal_node_id":"0.0-6.0-175.0"},{"sim_score":4,"rt":3839,"stimulus":"[\"img/0899/56a605c3-d0a2-4215-89e1-779279d85a7c.jpg\",\"img/0862/cdaed51d-9e2f-4807-801a-4663c40077e2.jpg\"]","trial_type":"similarity","trial_index":182,"time_elapsed":1099131,"internal_node_id":"0.0-6.0-176.0"},{"sim_score":5,"rt":6005,"stimulus":"[\"img/0875/527ced51-8e53-4aab-ab05-86df219104c0.jpg\",\"img/0758/e38fd80d-18d0-42f3-b848-f930788e8bd7.jpg\"]","trial_type":"similarity","trial_index":183,"time_elapsed":1106147,"internal_node_id":"0.0-6.0-177.0"},{"sim_score":2,"rt":3951,"stimulus":"[\"img/0866/02f5e6b9-52b7-448c-9708-5b460d0c9a23.jpg\",\"img/0901/5657dd86-0ff9-4753-ba2b-9dfb223e5c89.jpg\"]","trial_type":"similarity","trial_index":184,"time_elapsed":1111107,"internal_node_id":"0.0-6.0-178.0"},{"sim_score":4,"rt":5260,"stimulus":"[\"img/0769/f73c5138-2f4c-4354-981c-129dff9cc734.jpg\",\"img/0874/8cdb1c07-1c32-46d2-981c-3636560fa6e5.jpg\"]","trial_type":"similarity","trial_index":185,"time_elapsed":1117377,"internal_node_id":"0.0-6.0-179.0"},{"sim_score":2,"rt":5057,"stimulus":"[\"img/0875/f87b67d7-c33e-40d1-b281-248c4be1cb6e.jpg\",\"img/0881/f62bdcd1-a4b7-4d48-83da-d9c9e01c8727.jpg\"]","trial_type":"similarity","trial_index":186,"time_elapsed":1123443,"internal_node_id":"0.0-6.0-180.0"},{"sim_score":6,"rt":5633,"stimulus":"[\"img/0866/bf14b5bd-fb55-47db-86b9-4f8aeb9a6dad.jpg\",\"img/0868/d98ca254-b195-477f-b57e-5760a2717db8.jpg\"]","trial_type":"similarity","trial_index":187,"time_elapsed":1130087,"internal_node_id":"0.0-6.0-181.0"},{"sim_score":2,"rt":4271,"stimulus":"[\"img/0899/7f9d45d0-b2c6-40d3-aa41-c207db2c411b.jpg\",\"img/0758/6e95579b-5166-487c-b8cb-e417c6a218e3.jpg\"]","trial_type":"similarity","trial_index":188,"time_elapsed":1135365,"internal_node_id":"0.0-6.0-182.0"},{"sim_score":5,"rt":3779,"stimulus":"[\"img/0874/2c9464dd-8a23-4baa-ac94-1ba3af5c15cc.jpg\",\"img/0875/ebf7653f-ff45-4e9f-af58-2c042ab3cd2b.jpg\"]","trial_type":"similarity","trial_index":189,"time_elapsed":1140153,"internal_node_id":"0.0-6.0-183.0"},{"sim_score":3,"rt":5555,"stimulus":"[\"img/0904/4e58005d-a2ec-4aaa-b199-445343561396.jpg\",\"img/0862/f43ceabf-acc1-4107-b857-5d1849808f93.jpg\"]","trial_type":"similarity","trial_index":190,"time_elapsed":1146716,"internal_node_id":"0.0-6.0-184.0"},{"sim_score":6,"rt":4695,"stimulus":"[\"img/0902/94ee9c53-a9a2-4f95-b9b7-794a5fc62bb6.jpg\",\"img/0766/af3be95e-e52e-4fae-899b-0ff02ec340aa.jpg\"]","trial_type":"similarity","trial_index":191,"time_elapsed":1152422,"internal_node_id":"0.0-6.0-185.0"},{"sim_score":4,"rt":4010,"stimulus":"[\"img/0758/caa93da2-9edf-49fa-96b9-32dedd8f5078.jpg\",\"img/0769/e8ed913b-8a88-44f6-9327-d34afec3116b.jpg\"]","trial_type":"similarity","trial_index":192,"time_elapsed":1157442,"internal_node_id":"0.0-6.0-186.0"},{"sim_score":7,"rt":3779,"stimulus":"[\"img/0881/84397291-bc14-4fbf-90e8-241e486ab0fe.jpg\",\"img/0881/f037e3b0-09cb-4a83-b2d9-6a71fe474e63.jpg\"]","trial_type":"similarity","trial_index":193,"time_elapsed":1162228,"internal_node_id":"0.0-6.0-187.0"},{"sim_score":3,"rt":5031,"stimulus":"[\"img/0758/20497cbe-ddae-489e-86e2-ab06985ed07c.jpg\",\"img/0866/f756f7d1-9ad8-4a34-9ef6-7a443d705bfe.jpg\"]","trial_type":"similarity","trial_index":194,"time_elapsed":1168271,"internal_node_id":"0.0-6.0-188.0"},{"sim_score":4,"rt":3131,"stimulus":"[\"img/0764/c01e2d65-6586-441b-bef5-3c96fcd85380.jpg\",\"img/0898/04e39a7a-fcf6-4156-ab0e-f5871f335e1c.jpg\"]","trial_type":"similarity","trial_index":195,"time_elapsed":1172410,"internal_node_id":"0.0-6.0-189.0"},{"sim_score":3,"rt":3935,"stimulus":"[\"img/0903/5ea5bbe0-f238-4724-abe7-9ed8dee8c0ba.jpg\",\"img/0901/1e23ffbd-19de-4c4f-aa23-c54aaa3319a3.jpg\"]","trial_type":"similarity","trial_index":196,"time_elapsed":1177352,"internal_node_id":"0.0-6.0-190.0"},{"sim_score":5,"rt":5640,"stimulus":"[\"img/0902/511abb54-0094-4f4d-b6dc-3f2c97050521.jpg\",\"img/0898/79233891-305a-4a6a-8ddf-5c8604858203.jpg\"]","trial_type":"similarity","trial_index":197,"time_elapsed":1184001,"internal_node_id":"0.0-6.0-191.0"},{"sim_score":1,"rt":4153,"stimulus":"[\"img/0864/c3b63e8f-ea39-4d70-a1f2-b3fe4be8eb75.jpg\",\"img/0901/71e551a2-9ce2-409c-9c7c-dd556a0791e9.jpg\"]","trial_type":"similarity","trial_index":198,"time_elapsed":1189164,"internal_node_id":"0.0-6.0-192.0"},{"sim_score":1,"rt":3140,"stimulus":"[\"img/0894/11674fa4-285d-44e2-939f-2228c6a64080.jpg\",\"img/0881/44e09805-5a25-4f17-a716-4ad4a331b174.jpg\"]","trial_type":"similarity","trial_index":199,"time_elapsed":1193311,"internal_node_id":"0.0-6.0-193.0"},{"sim_score":7,"rt":2995,"stimulus":"[\"img/0868/83b4350a-3b70-4cea-b7f5-b5b56f3050a8.jpg\",\"img/0868/5fa7f9d0-f0e5-454c-8224-74d964818f56.jpg\"]","trial_type":"similarity","trial_index":200,"time_elapsed":1197320,"internal_node_id":"0.0-6.0-194.0"},{"sim_score":3,"rt":4413,"stimulus":"[\"img/0899/ad8268c5-8199-48d0-ad70-c5b6d6c599ec.jpg\",\"img/0764/e42c1dc9-7831-4995-be19-7ca7b4d141fc.jpg\"]","trial_type":"similarity","trial_index":201,"time_elapsed":1202742,"internal_node_id":"0.0-6.0-195.0"},{"sim_score":2,"rt":4493,"stimulus":"[\"img/0881/19e82c47-8e4b-45d2-a6c8-74181eb4155e.jpg\",\"img/0904/4d7d70a3-9477-4921-bda0-f9531d0a5c5b.jpg\"]","trial_type":"similarity","trial_index":202,"time_elapsed":1208244,"internal_node_id":"0.0-6.0-196.0"},{"sim_score":3,"rt":3438,"stimulus":"[\"img/0864/a248adb3-c70b-4652-b7a3-776d2a1e904b.jpg\",\"img/0902/b56db912-c3c0-4fc2-b325-d640acd7cb58.jpg\"]","trial_type":"similarity","trial_index":203,"time_elapsed":1212692,"internal_node_id":"0.0-6.0-197.0"},{"sim_score":3,"rt":4297,"stimulus":"[\"img/0894/38cf335f-f76f-4349-8d65-e20cd6859565.jpg\",\"img/0904/b7c2a2c8-df33-4473-b3d4-ff7147c60db3.jpg\"]","trial_type":"similarity","trial_index":204,"time_elapsed":1217997,"internal_node_id":"0.0-6.0-198.0"},{"sim_score":7,"rt":2807,"stimulus":"[\"img/0901/3db47171-0139-4235-82cd-0b1787b6775f.jpg\",\"img/0901/deff6cfb-0072-4490-bc3e-206bbcd3e8bf.jpg\"]","trial_type":"similarity","trial_index":205,"time_elapsed":1221813,"internal_node_id":"0.0-6.0-199.0"},{"sim_score":1,"rt":3310,"stimulus":"[\"img/0894/b422d5c6-3c5a-49ae-a53e-7e88ac993f49.jpg\",\"img/0860/99c589b9-9140-4d17-90c0-b344323edcda.jpg\"]","trial_type":"similarity","trial_index":206,"time_elapsed":1226134,"internal_node_id":"0.0-6.0-200.0"},{"sim_score":2,"rt":3626,"stimulus":"[\"img/0898/881e2a85-d5c2-49be-a0c6-8a6ce2c4af08.jpg\",\"img/0903/f67c4ab9-f8c2-4fcd-848a-a54a7b031002.jpg\"]","trial_type":"similarity","trial_index":207,"time_elapsed":1230772,"internal_node_id":"0.0-6.0-201.0"},{"sim_score":1,"rt":4283,"stimulus":"[\"img/0864/65210d57-1153-4657-886a-32e758f49b4a.jpg\",\"img/0894/767a0eec-1064-46b1-b1aa-dfa02b0cd74e.jpg\"]","trial_type":"similarity","trial_index":208,"time_elapsed":1236064,"internal_node_id":"0.0-6.0-202.0"},{"sim_score":4,"rt":4031,"stimulus":"[\"img/0874/ca76a855-4e77-4f2f-872a-0a718153e7ed.jpg\",\"img/0860/94ef7afc-e0e6-4a15-98c6-0bfac82bc832.jpg\"]","trial_type":"similarity","trial_index":209,"time_elapsed":1241103,"internal_node_id":"0.0-6.0-203.0"},{"sim_score":3,"rt":6421,"stimulus":"[\"img/0862/e0f1a4e9-e1b6-45f7-af67-89f334e6630d.jpg\",\"img/0875/03c3c331-738b-4446-af92-3d7386b08c2e.jpg\"]","trial_type":"similarity","trial_index":210,"time_elapsed":1248531,"internal_node_id":"0.0-6.0-204.0"},{"sim_score":5,"rt":4090,"stimulus":"[\"img/0867/ac1797e4-8afc-48fe-b252-86d1defb1cca.jpg\",\"img/0881/33d65d80-8a8e-4ecf-852d-0ad7725c17a2.jpg\"]","trial_type":"similarity","trial_index":211,"time_elapsed":1253632,"internal_node_id":"0.0-6.0-205.0"},{"sim_score":4,"rt":2117,"stimulus":"[\"img/0901/a6776381-91fe-43f8-ab73-261d318f95fd.jpg\",\"img/0902/c9c74d2d-9b82-42d7-a9d0-3b8ff67ff81e.jpg\"]","trial_type":"similarity","trial_index":212,"time_elapsed":1256755,"internal_node_id":"0.0-6.0-206.0"},{"sim_score":3,"rt":4871,"stimulus":"[\"img/0899/66ab3178-c3fe-4455-ad17-d5952b08e018.jpg\",\"img/0864/1ebbc554-99fa-49f9-8799-317375a79820.jpg\"]","trial_type":"similarity","trial_index":213,"time_elapsed":1262634,"internal_node_id":"0.0-6.0-207.0"},{"sim_score":3,"rt":4368,"stimulus":"[\"img/0901/bc47e078-bda4-40ed-b89a-bbd819164b95.jpg\",\"img/0769/b664b502-a86c-46c1-ad6f-5ebffc2e1bd3.jpg\"]","trial_type":"similarity","trial_index":214,"time_elapsed":1268011,"internal_node_id":"0.0-6.0-208.0"},{"sim_score":7,"rt":3498,"stimulus":"[\"img/0902/d49743d6-67ae-4c2e-a939-8fd895a0f18e.jpg\",\"img/0902/62f11694-7ed7-4cb7-8a73-9e95c43824e7.jpg\"]","trial_type":"similarity","trial_index":215,"time_elapsed":1276600,"internal_node_id":"0.0-6.0-209.0"},{"view_history":"[{\"page_index\":0,\"viewing_time\":4968}]","rt":4969,"trial_type":"instructions","trial_index":216,"time_elapsed":1282575,"internal_node_id":"0.0-7.0"},{"rt":13262,"responses":"{\"Q0\":\"Orange-crowned Warbler\"}","answer":["Nashville Warbler"],"trial_type":"image-multi-choice","trial_index":217,"time_elapsed":1296865,"internal_node_id":"0.0-8.0-0.0"},{"rt":10802,"responses":"{\"Q0\":\"Black-and-white Warbler\"}","answer":["Black-and-white Warbler"],"trial_type":"image-multi-choice","trial_index":218,"time_elapsed":1308695,"internal_node_id":"0.0-8.0-1.0"},{"rt":93460,"responses":"{\"Q0\":\"Blackburnian Warbler\"}","answer":["Townsend's Warbler"],"trial_type":"image-multi-choice","trial_index":219,"time_elapsed":1403190,"internal_node_id":"0.0-8.0-2.0"},{"rt":7246,"responses":"{\"Q0\":\"Lark Sparrow\"}","answer":["Lark Sparrow"],"trial_type":"image-multi-choice","trial_index":220,"time_elapsed":1411460,"internal_node_id":"0.0-8.0-3.0"},{"rt":9152,"responses":"{\"Q0\":\"Yellow Warbler\"}","answer":["Yellow Warbler"],"trial_type":"image-multi-choice","trial_index":221,"time_elapsed":1421645,"internal_node_id":"0.0-8.0-4.0"},{"rt":47803,"responses":"{\"Q0\":\"Orange-crowned Warbler\"}","answer":["Orange-crowned Warbler"],"trial_type":"image-multi-choice","trial_index":222,"time_elapsed":1470472,"internal_node_id":"0.0-8.0-5.0"},{"rt":37525,"responses":"{\"Q0\":\"White-throated Sparrow\"}","answer":["White-throated Sparrow"],"trial_type":"image-multi-choice","trial_index":223,"time_elapsed":1509019,"internal_node_id":"0.0-8.0-6.0"},{"rt":190430,"responses":"{\"Q0\":\"Ovenbird\"}","answer":["Fox Sparrow"],"trial_type":"image-multi-choice","trial_index":224,"time_elapsed":1700474,"internal_node_id":"0.0-8.0-7.0"},{"rt":86682,"responses":"{\"Q0\":\"Lincoln's Sparrow\"}","answer":["Song Sparrow"],"trial_type":"image-multi-choice","trial_index":225,"time_elapsed":1788181,"internal_node_id":"0.0-8.0-8.0"},{"rt":164857,"responses":"{\"Q0\":\"Magnolia Warbler\"}","answer":["Blackburnian Warbler"],"trial_type":"image-multi-choice","trial_index":226,"time_elapsed":1954057,"internal_node_id":"0.0-8.0-9.0"},{"rt":47399,"responses":"{\"Q0\":\"Vesper Sparrow\"}","answer":["Vesper Sparrow"],"trial_type":"image-multi-choice","trial_index":227,"time_elapsed":2002480,"internal_node_id":"0.0-8.0-10.0"},{"rt":5389,"responses":"{\"Q0\":\"White-crowned Sparrow\"}","answer":["White-crowned Sparrow"],"trial_type":"image-multi-choice","trial_index":228,"time_elapsed":2008891,"internal_node_id":"0.0-8.0-11.0"},{"rt":69697,"responses":"{\"Q0\":\"Chipping Sparrow\"}","answer":["American Tree Sparrow"],"trial_type":"image-multi-choice","trial_index":229,"time_elapsed":2079611,"internal_node_id":"0.0-8.0-12.0"},{"rt":66508,"responses":"{\"Q0\":\"Tennessee Warbler\"}","answer":["Tennessee Warbler"],"trial_type":"image-multi-choice","trial_index":230,"time_elapsed":2147141,"internal_node_id":"0.0-8.0-13.0"},{"rt":98007,"responses":"{\"Q0\":\"Magnolia Warbler\"}","answer":["Magnolia Warbler"],"trial_type":"image-multi-choice","trial_index":231,"time_elapsed":2246172,"internal_node_id":"0.0-8.0-14.0"},{"rt":4088,"responses":"{\"Q0\":\"Ovenbird\"}","answer":["Northern Waterthrush"],"trial_type":"image-multi-choice","trial_index":232,"time_elapsed":2251281,"internal_node_id":"0.0-8.0-15.0"},{"rt":49349,"responses":"{\"Q0\":\"Chipping Sparrow\"}","answer":["Chipping Sparrow"],"trial_type":"image-multi-choice","trial_index":233,"time_elapsed":2301655,"internal_node_id":"0.0-8.0-16.0"},{"rt":27384,"responses":"{\"Q0\":\"Song Sparrow\"}","answer":["Swamp Sparrow"],"trial_type":"image-multi-choice","trial_index":234,"time_elapsed":2330092,"internal_node_id":"0.0-8.0-17.0"},{"rt":74655,"responses":"{\"Q0\":\"Lincoln's Sparrow\"}","answer":["Lincoln's Sparrow"],"trial_type":"image-multi-choice","trial_index":235,"time_elapsed":2405797,"internal_node_id":"0.0-8.0-18.0"},{"rt":22091,"responses":"{\"Q0\":\"Ovenbird\"}","answer":["Ovenbird"],"trial_type":"image-multi-choice","trial_index":236,"time_elapsed":2428938,"internal_node_id":"0.0-8.0-19.0"}]