[{"view_history":"[{\"page_index\":0,\"viewing_time\":22195}]","rt":22196,"trial_type":"instructions","trial_index":0,"time_elapsed":22198,"internal_node_id":"0.0-0.0"},{"sim_score":5,"rt":5936,"stimulus":"[\"img/866.jpg\",\"img/868.jpg\"]","trial_type":"similarity_demo","trial_index":1,"time_elapsed":29140,"internal_node_id":"0.0-1.0"},{"view_history":"[{\"page_index\":0,\"viewing_time\":11753}]","rt":11754,"trial_type":"instructions","trial_index":2,"time_elapsed":41895,"internal_node_id":"0.0-2.0"},{"sim_score":3,"rt":5315,"stimulus":"[\"img/766.jpg\",\"img/867.jpg\"]","trial_type":"similarity_demo","trial_index":3,"time_elapsed":48217,"internal_node_id":"0.0-3.0"},{"view_history":"[{\"page_index\":0,\"viewing_time\":5958}]","rt":5958,"trial_type":"instructions","trial_index":4,"time_elapsed":55179,"internal_node_id":"0.0-4.0"},{"view_history":"[{\"page_index\":0,\"viewing_time\":29213}]","rt":29213,"trial_type":"instructions","trial_index":5,"time_elapsed":85397,"internal_node_id":"0.0-5.0"},{"sim_score":2,"rt":7063,"stimulus":"[\"img/0868/5fa7f9d0-f0e5-454c-8224-74d964818f56.jpg\",\"img/0901/c6c877e0-dd63-4e00-9657-33af29d55aab.jpg\"]","trial_type":"similarity","trial_index":6,"time_elapsed":93466,"internal_node_id":"0.0-6.0-0.0"},{"sim_score":3,"rt":8181,"stimulus":"[\"img/0769/3c1efec9-f8fd-487d-8955-4be88e48c832.jpg\",\"img/0867/6e19c858-b606-45b2-a4c6-910a73f1d82c.jpg\"]","trial_type":"similarity","trial_index":7,"time_elapsed":102656,"internal_node_id":"0.0-6.0-1.0"},{"sim_score":3,"rt":5058,"stimulus":"[\"img/0766/2e1cf445-9aef-40e7-92f4-5facf48b64c5.jpg\",\"img/0898/40f99fb2-64d2-4e72-8a7f-a1cf60741e69.jpg\"]","trial_type":"similarity","trial_index":8,"time_elapsed":108719,"internal_node_id":"0.0-6.0-2.0"},{"sim_score":4,"rt":5359,"stimulus":"[\"img/0902/f3cfec34-482c-4bdb-9c92-19ea6cfce183.jpg\",\"img/0881/344de456-b358-4887-bd0e-e4c3278af887.jpg\"]","trial_type":"similarity","trial_index":9,"time_elapsed":115087,"internal_node_id":"0.0-6.0-3.0"},{"sim_score":5,"rt":3461,"stimulus":"[\"img/0894/9b1333fd-3561-43bf-aee5-99b7b7ca3dc3.jpg\",\"img/0894/1b3888e6-cf36-4c4a-a039-187aa5cb71ac.jpg\"]","trial_type":"similarity","trial_index":10,"time_elapsed":119553,"internal_node_id":"0.0-6.0-4.0"},{"sim_score":6,"rt":4565,"stimulus":"[\"img/0874/99f6563c-8a8d-4c1c-a41d-667b618c3fd5.jpg\",\"img/0899/51a7a498-98c7-42d7-bca8-bc2d8f0b5831.jpg\"]","trial_type":"similarity","trial_index":11,"time_elapsed":125122,"internal_node_id":"0.0-6.0-5.0"},{"sim_score":5,"rt":4698,"stimulus":"[\"img/0904/b7c2a2c8-df33-4473-b3d4-ff7147c60db3.jpg\",\"img/0764/c01e2d65-6586-441b-bef5-3c96fcd85380.jpg\"]","trial_type":"similarity","trial_index":12,"time_elapsed":130825,"internal_node_id":"0.0-6.0-6.0"},{"sim_score":3,"rt":4147,"stimulus":"[\"img/0899/a048912c-b12c-40e3-90af-46b69b0cc4fe.jpg\",\"img/0898/224c1572-56b9-4f16-a9e4-6f3bc9c114bd.jpg\"]","trial_type":"similarity","trial_index":13,"time_elapsed":135978,"internal_node_id":"0.0-6.0-7.0"},{"sim_score":2,"rt":3111,"stimulus":"[\"img/0874/3f471690-9788-4d03-90c7-f615aecef149.jpg\",\"img/0903/bf0a7d60-eca5-44b0-bafd-baf21db9904b.jpg\"]","trial_type":"similarity","trial_index":14,"time_elapsed":140097,"internal_node_id":"0.0-6.0-8.0"},{"sim_score":4,"rt":3292,"stimulus":"[\"img/0881/e046471a-35b4-4159-bbf7-3cfd201bef66.jpg\",\"img/0758/d57c2592-a317-4f63-91be-91a3a9afd222.jpg\"]","trial_type":"similarity","trial_index":15,"time_elapsed":144394,"internal_node_id":"0.0-6.0-9.0"},{"sim_score":3,"rt":4812,"stimulus":"[\"img/0898/661621d4-a14e-487c-8c74-354134a29710.jpg\",\"img/0901/148b747a-7392-437e-8823-33053c5dff3f.jpg\"]","trial_type":"similarity","trial_index":16,"time_elapsed":150209,"internal_node_id":"0.0-6.0-10.0"},{"sim_score":4,"rt":3920,"stimulus":"[\"img/0903/b7e3723f-fd03-4f3d-8820-f19496463a34.jpg\",\"img/0769/f6396414-6788-4d59-9683-de153298d89c.jpg\"]","trial_type":"similarity","trial_index":17,"time_elapsed":155137,"internal_node_id":"0.0-6.0-11.0"},{"sim_score":3,"rt":2999,"stimulus":"[\"img/0764/a86eed5b-d0af-4c3f-8c7a-26e98e98cf1a.jpg\",\"img/0868/4a8a45ed-2c4f-421b-9564-409a33ecd26c.jpg\"]","trial_type":"similarity","trial_index":18,"time_elapsed":159143,"internal_node_id":"0.0-6.0-12.0"},{"sim_score":4,"rt":4609,"stimulus":"[\"img/0867/8ba0c5a7-c7e4-42cf-a80a-543763b90779.jpg\",\"img/0903/3e9ee8a5-eb66-47f5-8973-8a5af1ddc87e.jpg\"]","trial_type":"similarity","trial_index":19,"time_elapsed":164756,"internal_node_id":"0.0-6.0-13.0"},{"sim_score":3,"rt":3484,"stimulus":"[\"img/0766/5d1b8041-c5a1-4b02-b4fe-3453d98a0d72.jpg\",\"img/0758/b76ceca7-95ac-46e4-ac13-da02c8e93be9.jpg\"]","trial_type":"similarity","trial_index":20,"time_elapsed":169246,"internal_node_id":"0.0-6.0-14.0"},{"sim_score":4,"rt":3438,"stimulus":"[\"img/0902/168ebd47-9e82-4ab7-a18b-c3da85072db8.jpg\",\"img/0860/18dfed73-e36b-4487-a8bd-0b8cff8e3668.jpg\"]","trial_type":"similarity","trial_index":21,"time_elapsed":173688,"internal_node_id":"0.0-6.0-15.0"},{"sim_score":3,"rt":3272,"stimulus":"[\"img/0769/ecda2fb3-556b-43ba-8a67-e87dd75ff2b4.jpg\",\"img/0875/dbdd643e-6d0e-4a5c-ab57-b9c29b9c981a.jpg\"]","trial_type":"similarity","trial_index":22,"time_elapsed":177964,"internal_node_id":"0.0-6.0-16.0"},{"sim_score":3,"rt":3092,"stimulus":"[\"img/0904/696ebb60-8891-417a-91fd-c53218907a95.jpg\",\"img/0866/0207e9a2-7dbb-40b5-9459-b472aaeceb2a.jpg\"]","trial_type":"similarity","trial_index":23,"time_elapsed":182060,"internal_node_id":"0.0-6.0-17.0"},{"sim_score":6,"rt":4729,"stimulus":"[\"img/0875/cff79b3a-a797-4393-9757-6275f999ec04.jpg\",\"img/0875/2c361b79-c3d1-4eda-812e-bf03192407bf.jpg\"]","trial_type":"similarity","trial_index":24,"time_elapsed":187796,"internal_node_id":"0.0-6.0-18.0"},{"sim_score":6,"rt":4607,"stimulus":"[\"img/0758/ddc336e9-a8b6-4bb9-937a-c7e25e0e9250.jpg\",\"img/0758/7fba58df-2a7a-4b76-8a8f-62739f97f271.jpg\"]","trial_type":"similarity","trial_index":25,"time_elapsed":193410,"internal_node_id":"0.0-6.0-19.0"},{"sim_score":3,"rt":3326,"stimulus":"[\"img/0902/fbef27fa-ac83-4936-ab78-9d1c20a383e1.jpg\",\"img/0874/31e22c7c-99aa-40b1-bf03-dd73fa2df4d6.jpg\"]","trial_type":"similarity","trial_index":26,"time_elapsed":197741,"internal_node_id":"0.0-6.0-20.0"},{"sim_score":4,"rt":3458,"stimulus":"[\"img/0764/62fafeea-6274-48ce-976f-35d3d3484c65.jpg\",\"img/0769/f73c5138-2f4c-4354-981c-129dff9cc734.jpg\"]","trial_type":"similarity","trial_index":27,"time_elapsed":202208,"internal_node_id":"0.0-6.0-21.0"},{"sim_score":2,"rt":3800,"stimulus":"[\"img/0901/d61f267a-c492-4db6-9bfb-61efd49cf072.jpg\",\"img/0874/8cdb1c07-1c32-46d2-981c-3636560fa6e5.jpg\"]","trial_type":"similarity","trial_index":28,"time_elapsed":207012,"internal_node_id":"0.0-6.0-22.0"},{"sim_score":3,"rt":4035,"stimulus":"[\"img/0875/5a7c4e35-6514-4e12-8879-d16071da4cd6.jpg\",\"img/0903/5ea5bbe0-f238-4724-abe7-9ed8dee8c0ba.jpg\"]","trial_type":"similarity","trial_index":29,"time_elapsed":212051,"internal_node_id":"0.0-6.0-23.0"},{"sim_score":6,"rt":3360,"stimulus":"[\"img/0769/8598a429-c671-4d2f-842c-32f681f5e412.jpg\",\"img/0881/c843e210-bdfe-4a7c-8bbe-fcea1f90fe1c.jpg\"]","trial_type":"similarity","trial_index":30,"time_elapsed":216415,"internal_node_id":"0.0-6.0-24.0"},{"sim_score":2,"rt":4216,"stimulus":"[\"img/0867/c71dc569-f49c-4397-8381-68b8d726736d.jpg\",\"img/0904/da170c1b-9651-4f08-b231-2bdd1d9a046f.jpg\"]","trial_type":"similarity","trial_index":31,"time_elapsed":221636,"internal_node_id":"0.0-6.0-25.0"},{"sim_score":5,"rt":3686,"stimulus":"[\"img/0860/5383b320-1518-4095-a58e-5cc1ae30b64c.jpg\",\"img/0881/dea58fad-b4f1-41d9-bd3f-916eff19a3fd.jpg\"]","trial_type":"similarity","trial_index":32,"time_elapsed":226328,"internal_node_id":"0.0-6.0-26.0"},{"sim_score":6,"rt":3744,"stimulus":"[\"img/0866/8efcaa46-83ab-4dee-a35f-850402aa21ae.jpg\",\"img/0866/9b38d691-1802-4959-ab3f-fc902f0e4ea6.jpg\"]","trial_type":"similarity","trial_index":33,"time_elapsed":231075,"internal_node_id":"0.0-6.0-27.0"},{"sim_score":3,"rt":4948,"stimulus":"[\"img/0764/d0bef2e0-e16b-4c82-9451-c1d16265eb67.jpg\",\"img/0862/f188d4f0-76a4-4102-818c-a209969d73a5.jpg\"]","trial_type":"similarity","trial_index":34,"time_elapsed":237027,"internal_node_id":"0.0-6.0-28.0"},{"sim_score":2,"rt":4189,"stimulus":"[\"img/0904/9b3568cc-3cf7-42be-9df3-fdafde7a58b8.jpg\",\"img/0758/335851a0-a55b-46d8-ab05-8463eda48349.jpg\"]","trial_type":"similarity","trial_index":35,"time_elapsed":242225,"internal_node_id":"0.0-6.0-29.0"},{"sim_score":2,"rt":4281,"stimulus":"[\"img/0894/2d2db7b3-e8a3-499b-b63a-14f51bf73882.jpg\",\"img/0899/a05bea16-2bb4-4cb9-b8fb-4ff975db6971.jpg\"]","trial_type":"similarity","trial_index":36,"time_elapsed":247511,"internal_node_id":"0.0-6.0-30.0"},{"sim_score":5,"rt":3598,"stimulus":"[\"img/0860/c5ccd1a4-4bb7-48e1-9b25-72cfaf06909b.jpg\",\"img/0904/24fc38fe-842c-4831-ad8a-b1de5c25c0a8.jpg\"]","trial_type":"similarity","trial_index":37,"time_elapsed":252114,"internal_node_id":"0.0-6.0-31.0"},{"sim_score":6,"rt":4214,"stimulus":"[\"img/0874/29830da7-be5f-44e5-b141-652a0ccf7269.jpg\",\"img/0881/2a8413be-fec2-4de6-88ad-614dd4cccc9d.jpg\"]","trial_type":"similarity","trial_index":38,"time_elapsed":257333,"internal_node_id":"0.0-6.0-32.0"},{"sim_score":3,"rt":4677,"stimulus":"[\"img/0881/445edb15-bd7f-4af3-8bd5-c6ad9677bb31.jpg\",\"img/0899/b45c550b-96c3-4255-ad59-48a2b4db1c1e.jpg\"]","trial_type":"similarity","trial_index":39,"time_elapsed":263014,"internal_node_id":"0.0-6.0-33.0"},{"sim_score":2,"rt":4339,"stimulus":"[\"img/0866/02f5e6b9-52b7-448c-9708-5b460d0c9a23.jpg\",\"img/0862/cdaed51d-9e2f-4807-801a-4663c40077e2.jpg\"]","trial_type":"similarity","trial_index":40,"time_elapsed":268358,"internal_node_id":"0.0-6.0-34.0"},{"sim_score":2,"rt":3085,"stimulus":"[\"img/0868/c8ac40c7-6904-4e13-8d61-c75d3052dc4e.jpg\",\"img/0894/5ff3c4f6-52e2-4075-8679-be0312e59703.jpg\"]","trial_type":"similarity","trial_index":41,"time_elapsed":272454,"internal_node_id":"0.0-6.0-35.0"},{"sim_score":6,"rt":2929,"stimulus":"[\"img/0860/f44ba3fb-03a2-42f0-8509-2c1ded493086.jpg\",\"img/0860/8a92e21b-6a32-4e4a-a445-2d5a487ed0a4.jpg\"]","trial_type":"similarity","trial_index":42,"time_elapsed":276391,"internal_node_id":"0.0-6.0-36.0"},{"sim_score":5,"rt":3393,"stimulus":"[\"img/0862/47ed5efd-4ec9-4b74-bb4e-a5f5cf0c3e7d.jpg\",\"img/0864/c3b63e8f-ea39-4d70-a1f2-b3fe4be8eb75.jpg\"]","trial_type":"similarity","trial_index":43,"time_elapsed":280789,"internal_node_id":"0.0-6.0-37.0"},{"sim_score":2,"rt":2832,"stimulus":"[\"img/0766/69e486f7-dbef-456b-9d48-53d814248a28.jpg\",\"img/0866/945c6710-d15b-4a5b-a8f6-69af0850357f.jpg\"]","trial_type":"similarity","trial_index":44,"time_elapsed":284626,"internal_node_id":"0.0-6.0-38.0"},{"sim_score":4,"rt":3607,"stimulus":"[\"img/0875/a4935837-7d3c-4df6-88c1-36a94d4991ca.jpg\",\"img/0898/4184e5a2-84ea-4f36-9b42-ae58646f6f87.jpg\"]","trial_type":"similarity","trial_index":45,"time_elapsed":289238,"internal_node_id":"0.0-6.0-39.0"},{"sim_score":6,"rt":5677,"stimulus":"[\"img/0766/79767d11-b612-4e8a-9e4b-a8ac95bb6a54.jpg\",\"img/0769/ebef2ddc-ba59-4e0e-97f8-927864eb5081.jpg\"]","trial_type":"similarity","trial_index":46,"time_elapsed":295919,"internal_node_id":"0.0-6.0-40.0"},{"sim_score":2,"rt":2685,"stimulus":"[\"img/0874/c0378dac-9370-439a-8b79-db27c96fb390.jpg\",\"img/0764/fb92924f-5cfe-4b89-b130-0cce8cc5636b.jpg\"]","trial_type":"similarity","trial_index":47,"time_elapsed":318578,"internal_node_id":"0.0-6.0-41.0"},{"sim_score":2,"rt":4901,"stimulus":"[\"img/0868/e0aff734-077f-40dd-9781-74821abd3621.jpg\",\"img/0902/8af4182a-9af9-4212-a436-9195555112d6.jpg\"]","trial_type":"similarity","trial_index":48,"time_elapsed":324484,"internal_node_id":"0.0-6.0-42.0"},{"sim_score":3,"rt":3530,"stimulus":"[\"img/0875/f87b67d7-c33e-40d1-b281-248c4be1cb6e.jpg\",\"img/0899/ad8268c5-8199-48d0-ad70-c5b6d6c599ec.jpg\"]","trial_type":"similarity","trial_index":49,"time_elapsed":329017,"internal_node_id":"0.0-6.0-43.0"},{"sim_score":3,"rt":3654,"stimulus":"[\"img/0866/93a27239-8317-4e08-98ca-d8b1ff298e07.jpg\",\"img/0860/94ef7afc-e0e6-4a15-98c6-0bfac82bc832.jpg\"]","trial_type":"similarity","trial_index":50,"time_elapsed":333676,"internal_node_id":"0.0-6.0-44.0"},{"sim_score":3,"rt":3552,"stimulus":"[\"img/0766/214866ee-423d-4629-9bb9-41572bdc7dac.jpg\",\"img/0903/8635cf25-2648-4fe9-8c42-79d2598e999c.jpg\"]","trial_type":"similarity","trial_index":51,"time_elapsed":338232,"internal_node_id":"0.0-6.0-45.0"},{"sim_score":2,"rt":5667,"stimulus":"[\"img/0901/50e1d53e-a49f-4806-8610-be6dec5a2475.jpg\",\"img/0904/06dacdc5-2206-4fb8-92b7-88042d22833c.jpg\"]","trial_type":"similarity","trial_index":52,"time_elapsed":344904,"internal_node_id":"0.0-6.0-46.0"},{"sim_score":3,"rt":4608,"stimulus":"[\"img/0758/3ddd05d3-557e-4ee7-8b78-9d2d681d8ae2.jpg\",\"img/0902/97022122-01e4-46c3-a34f-c6260ad28428.jpg\"]","trial_type":"similarity","trial_index":53,"time_elapsed":350517,"internal_node_id":"0.0-6.0-47.0"},{"sim_score":6,"rt":2832,"stimulus":"[\"img/0764/952d7adc-dc40-4aee-acce-18c2a1d02ea1.jpg\",\"img/0764/21e3292f-01ad-4238-828b-61b817857d16.jpg\"]","trial_type":"similarity","trial_index":54,"time_elapsed":354353,"internal_node_id":"0.0-6.0-48.0"},{"sim_score":2,"rt":3755,"stimulus":"[\"img/0866/386235d2-6857-41e7-88a8-25cfc3430025.jpg\",\"img/0902/6c2c243a-f663-45db-baf5-038d3d58c589.jpg\"]","trial_type":"similarity","trial_index":55,"time_elapsed":359112,"internal_node_id":"0.0-6.0-49.0"},{"sim_score":2,"rt":3596,"stimulus":"[\"img/0764/cffc80b0-4a90-4acb-a530-6f480f3ca303.jpg\",\"img/0758/2fa3e613-e676-4e6e-bd12-705327eeb3e1.jpg\"]","trial_type":"similarity","trial_index":56,"time_elapsed":363714,"internal_node_id":"0.0-6.0-50.0"},{"sim_score":4,"rt":6036,"stimulus":"[\"img/0898/ec565187-2e31-4fdd-9a5c-153d0c789ae0.jpg\",\"img/0894/38f5931f-926d-414e-b498-66b188978b7a.jpg\"]","trial_type":"similarity","trial_index":57,"time_elapsed":370755,"internal_node_id":"0.0-6.0-51.0"},{"sim_score":3,"rt":3609,"stimulus":"[\"img/0875/90da8d75-108a-44ad-b999-e21fee3860d3.jpg\",\"img/0866/07c9c966-3c8d-40e7-8128-92b2acbaed5d.jpg\"]","trial_type":"similarity","trial_index":58,"time_elapsed":375369,"internal_node_id":"0.0-6.0-52.0"},{"sim_score":5,"rt":3023,"stimulus":"[\"img/0904/73920552-103b-4c9c-9ece-e0b8376b4504.jpg\",\"img/0904/2fd488e9-960f-41f7-8a44-33375f7d5051.jpg\"]","trial_type":"similarity","trial_index":59,"time_elapsed":379395,"internal_node_id":"0.0-6.0-53.0"},{"sim_score":4,"rt":3181,"stimulus":"[\"img/0769/878531fd-e0e8-4ad1-b9ad-f018bb104ca0.jpg\",\"img/0769/1d8734c4-77ab-4165-9e71-5cfe672ff01c.jpg\"]","trial_type":"similarity","trial_index":60,"time_elapsed":383581,"internal_node_id":"0.0-6.0-54.0"},{"sim_score":2,"rt":4226,"stimulus":"[\"img/0898/a8f16b02-e19f-423b-86c3-a36562ae1f9b.jpg\",\"img/0758/eabcd7a8-56ad-4fd2-bc24-90f6b7b33265.jpg\"]","trial_type":"similarity","trial_index":61,"time_elapsed":388812,"internal_node_id":"0.0-6.0-55.0"},{"sim_score":5,"rt":4622,"stimulus":"[\"img/0769/75f7e514-0548-4329-b1e4-93c05e74f038.jpg\",\"img/0902/0eb85fbc-27c8-41df-9d0b-a5f9efd417d1.jpg\"]","trial_type":"similarity","trial_index":62,"time_elapsed":394438,"internal_node_id":"0.0-6.0-56.0"},{"sim_score":5,"rt":2673,"stimulus":"[\"img/0864/e8bd659f-aa43-4748-877e-3118e8b4e189.jpg\",\"img/0881/f7a8cc63-8842-40a4-9ff8-fe530310d62c.jpg\"]","trial_type":"similarity","trial_index":63,"time_elapsed":398116,"internal_node_id":"0.0-6.0-57.0"},{"sim_score":1,"rt":2649,"stimulus":"[\"img/0758/d540bee6-b460-4c32-ac57-bc282742d7d4.jpg\",\"img/0868/0d3abd3a-b6c3-4584-a9f7-e2da63748b3d.jpg\"]","trial_type":"similarity","trial_index":64,"time_elapsed":401772,"internal_node_id":"0.0-6.0-58.0"},{"sim_score":6,"rt":5735,"stimulus":"[\"img/0862/e0f1a4e9-e1b6-45f7-af67-89f334e6630d.jpg\",\"img/0769/a3cfbdeb-acb3-4eac-87fb-4b117f42d4f8.jpg\"]","trial_type":"similarity","trial_index":65,"time_elapsed":408510,"internal_node_id":"0.0-6.0-59.0"},{"sim_score":5,"rt":3463,"stimulus":"[\"img/0764/974d52cc-6318-4e7a-b294-2f3e92ff800f.jpg\",\"img/0903/6378ee1e-3d2b-48d2-87be-bebda32c8268.jpg\"]","trial_type":"similarity","trial_index":66,"time_elapsed":412978,"internal_node_id":"0.0-6.0-60.0"},{"sim_score":7,"rt":3021,"stimulus":"[\"img/0899/f95cbdb4-f804-4f5d-ad76-373ad343e658.jpg\",\"img/0899/7f9d45d0-b2c6-40d3-aa41-c207db2c411b.jpg\"]","trial_type":"similarity","trial_index":67,"time_elapsed":417004,"internal_node_id":"0.0-6.0-61.0"},{"sim_score":4,"rt":3045,"stimulus":"[\"img/0860/c3379ff7-0763-48fe-a1ec-7ea3d611bc7a.jpg\",\"img/0875/8521fd58-3b1e-4dc5-97ae-804edfa6734a.jpg\"]","trial_type":"similarity","trial_index":68,"time_elapsed":421053,"internal_node_id":"0.0-6.0-62.0"},{"sim_score":2,"rt":3891,"stimulus":"[\"img/0868/09a9ef4d-d000-4cfa-a6aa-ebec7c2edeb4.jpg\",\"img/0874/1016b306-087c-4afc-aa08-fa527b28dc76.jpg\"]","trial_type":"similarity","trial_index":69,"time_elapsed":425948,"internal_node_id":"0.0-6.0-63.0"},{"sim_score":4,"rt":2899,"stimulus":"[\"img/0758/67c0be2f-9e91-48b3-8219-70ac0a1802fa.jpg\",\"img/0862/d0ca4c78-fc35-46ed-bdcc-8e124283c53e.jpg\"]","trial_type":"similarity","trial_index":70,"time_elapsed":429853,"internal_node_id":"0.0-6.0-64.0"},{"sim_score":3,"rt":4282,"stimulus":"[\"img/0904/6291eb43-c10c-4810-a36a-101d09868b04.jpg\",\"img/0898/0af304a2-6a7a-4082-ab7c-4450cd08cc58.jpg\"]","trial_type":"similarity","trial_index":71,"time_elapsed":435139,"internal_node_id":"0.0-6.0-65.0"},{"sim_score":2,"rt":3325,"stimulus":"[\"img/0881/4da99fdd-1f40-4bbb-8e21-8833eef313f5.jpg\",\"img/0866/23a224f3-2012-4fc8-8e0f-3c36f8de27fd.jpg\"]","trial_type":"similarity","trial_index":72,"time_elapsed":439470,"internal_node_id":"0.0-6.0-66.0"},{"sim_score":1,"rt":2890,"stimulus":"[\"img/0867/f8488a47-94ee-4166-952c-44e16cf172f6.jpg\",\"img/0898/f3a3f225-1248-4ac7-b93b-f0ff28485bf3.jpg\"]","trial_type":"similarity","trial_index":73,"time_elapsed":443364,"internal_node_id":"0.0-6.0-67.0"},{"sim_score":3,"rt":5178,"stimulus":"[\"img/0902/417d8b4a-3c72-4adc-ac78-820e833316f2.jpg\",\"img/0764/83c93cce-18d1-4aa7-9e23-2c268afe0a46.jpg\"]","trial_type":"similarity","trial_index":74,"time_elapsed":449550,"internal_node_id":"0.0-6.0-68.0"},{"sim_score":6,"rt":5231,"stimulus":"[\"img/0875/42910c99-5463-450a-a0f8-d4d060a11455.jpg\",\"img/0867/075e0f95-856b-4cbb-acf5-092393aaf04e.jpg\"]","trial_type":"similarity","trial_index":75,"time_elapsed":455785,"internal_node_id":"0.0-6.0-69.0"},{"sim_score":5,"rt":3313,"stimulus":"[\"img/0766/c23b5a20-e50f-4d85-841f-cf89212a4348.jpg\",\"img/0764/4bec8d92-75aa-475a-954d-8215dbe538f5.jpg\"]","trial_type":"similarity","trial_index":76,"time_elapsed":460105,"internal_node_id":"0.0-6.0-70.0"},{"sim_score":2,"rt":3866,"stimulus":"[\"img/0894/492d2f29-d7b9-4422-8be8-47fd58bfaa8b.jpg\",\"img/0867/aa05d113-fc19-4756-a8eb-7878f580bc92.jpg\"]","trial_type":"similarity","trial_index":77,"time_elapsed":464974,"internal_node_id":"0.0-6.0-71.0"},{"sim_score":1,"rt":2698,"stimulus":"[\"img/0875/99698b4d-b4a1-44bc-8c83-8ea755bbbf61.jpg\",\"img/0764/a3226bc4-dcc3-4608-bde8-1414d685ce5c.jpg\"]","trial_type":"similarity","trial_index":78,"time_elapsed":468675,"internal_node_id":"0.0-6.0-72.0"},{"sim_score":7,"rt":3786,"stimulus":"[\"img/0867/cc72ed48-7704-422c-86d6-467a1145287a.jpg\",\"img/0866/4a87911a-d5be-4d4e-ab8e-3d1f581bf507.jpg\"]","trial_type":"similarity","trial_index":79,"time_elapsed":473467,"internal_node_id":"0.0-6.0-73.0"},{"sim_score":4,"rt":3329,"stimulus":"[\"img/0903/f67c4ab9-f8c2-4fcd-848a-a54a7b031002.jpg\",\"img/0758/f61ecdf8-a7d4-4db0-b84d-be46f7cfaffc.jpg\"]","trial_type":"similarity","trial_index":80,"time_elapsed":477800,"internal_node_id":"0.0-6.0-74.0"},{"sim_score":2,"rt":3807,"stimulus":"[\"img/0766/ae0fce93-fe8d-4aa1-87ca-4c3e4b889f2f.jpg\",\"img/0868/d98ca254-b195-477f-b57e-5760a2717db8.jpg\"]","trial_type":"similarity","trial_index":81,"time_elapsed":482615,"internal_node_id":"0.0-6.0-75.0"},{"sim_score":6,"rt":3598,"stimulus":"[\"img/0874/ca23d307-fc00-4d7d-9106-584c6eb21b4d.jpg\",\"img/0766/a0270213-fa0e-4972-8b56-228c3e01ff90.jpg\"]","trial_type":"similarity","trial_index":82,"time_elapsed":487216,"internal_node_id":"0.0-6.0-76.0"},{"sim_score":2,"rt":3197,"stimulus":"[\"img/0881/7e31e5dc-2240-4b1b-b5a0-3acd980099ef.jpg\",\"img/0868/4bd5105a-d2c3-4f82-8c80-57196106ba53.jpg\"]","trial_type":"similarity","trial_index":83,"time_elapsed":491423,"internal_node_id":"0.0-6.0-77.0"},{"sim_score":1,"rt":2946,"stimulus":"[\"img/0758/7ee8bc8f-c40b-4b3a-84ec-3e83580622d4.jpg\",\"img/0901/4ca4f962-40c0-4c59-b14a-3cd7b8c9029b.jpg\"]","trial_type":"similarity","trial_index":84,"time_elapsed":495374,"internal_node_id":"0.0-6.0-78.0"},{"sim_score":2,"rt":3417,"stimulus":"[\"img/0881/b1a136f7-8511-4d3a-a0f6-3879acf1e1a1.jpg\",\"img/0898/04e39a7a-fcf6-4156-ab0e-f5871f335e1c.jpg\"]","trial_type":"similarity","trial_index":85,"time_elapsed":499794,"internal_node_id":"0.0-6.0-79.0"},{"sim_score":1,"rt":2730,"stimulus":"[\"img/0867/c66898ba-b71b-4d50-84f9-f7f84853a98d.jpg\",\"img/0758/6cd8c362-ae2a-41eb-80a3-3a4f7ace1530.jpg\"]","trial_type":"similarity","trial_index":86,"time_elapsed":503528,"internal_node_id":"0.0-6.0-80.0"},{"sim_score":6,"rt":3260,"stimulus":"[\"img/0769/35364db7-e0d5-40ef-93dc-faf9dfb95136.jpg\",\"img/0899/ddf96ade-692e-4602-bd22-dedbb46401bc.jpg\"]","trial_type":"similarity","trial_index":87,"time_elapsed":507793,"internal_node_id":"0.0-6.0-81.0"},{"sim_score":7,"rt":3114,"stimulus":"[\"img/0903/c3cb4a01-2797-43ca-b216-88c67b323fbb.jpg\",\"img/0903/8c358e9e-a4f4-466e-8b93-7aec0d2358e8.jpg\"]","trial_type":"similarity","trial_index":88,"time_elapsed":511910,"internal_node_id":"0.0-6.0-82.0"},{"sim_score":1,"rt":3619,"stimulus":"[\"img/0867/26611f4e-d694-4460-b7e2-43c62753ddc3.jpg\",\"img/0766/2da002a4-05c9-4f5c-9ed7-433b4183e273.jpg\"]","trial_type":"similarity","trial_index":89,"time_elapsed":523745,"internal_node_id":"0.0-6.0-83.0"},{"sim_score":4,"rt":7014,"stimulus":"[\"img/0902/511abb54-0094-4f4d-b6dc-3f2c97050521.jpg\",\"img/0867/a498eef3-9fa4-4ab2-9778-4ae82ac40dc5.jpg\"]","trial_type":"similarity","trial_index":90,"time_elapsed":531767,"internal_node_id":"0.0-6.0-84.0"},{"sim_score":4,"rt":7765772,"stimulus":"[\"img/0901/33b51a81-06d9-46d9-9d4f-5a2d6d6b8058.jpg\",\"img/0875/fb732ab5-013a-4366-9f65-27811ed157e9.jpg\"]","trial_type":"similarity","trial_index":91,"time_elapsed":8298545,"internal_node_id":"0.0-6.0-85.0"},{"sim_score":2,"rt":6990,"stimulus":"[\"img/0764/4eff630a-6426-4f8d-b2ba-b4d9842a0962.jpg\",\"img/0866/bf14b5bd-fb55-47db-86b9-4f8aeb9a6dad.jpg\"]","trial_type":"similarity","trial_index":92,"time_elapsed":8306540,"internal_node_id":"0.0-6.0-86.0"},{"sim_score":2,"rt":9357,"stimulus":"[\"img/0901/62315ff5-ed95-46b4-b099-92552079659b.jpg\",\"img/0894/3adef67d-7676-4995-80b2-bb31b8aca3ef.jpg\"]","trial_type":"similarity","trial_index":93,"time_elapsed":8316901,"internal_node_id":"0.0-6.0-87.0"},{"sim_score":5,"rt":6991,"stimulus":"[\"img/0898/81b08535-2020-4c15-9ce4-2f1e460755ae.jpg\",\"img/0769/387a9744-d6a7-42b8-bab8-33007ec434aa.jpg\"]","trial_type":"similarity","trial_index":94,"time_elapsed":8324900,"internal_node_id":"0.0-6.0-88.0"},{"sim_score":6,"rt":8082,"stimulus":"[\"img/0769/057eb0a0-aa5b-40c7-9852-21444f68d767.jpg\",\"img/0894/8cadb87a-7001-4e47-99fb-1867bebf1668.jpg\"]","trial_type":"similarity","trial_index":95,"time_elapsed":8333990,"internal_node_id":"0.0-6.0-89.0"},{"sim_score":7,"rt":5408,"stimulus":"[\"img/0862/de9ad88c-b522-430a-8ee9-eb06a9f85df5.jpg\",\"img/0874/bf14b896-e930-4fd9-9c05-2e83317a2773.jpg\"]","trial_type":"similarity","trial_index":96,"time_elapsed":8340403,"internal_node_id":"0.0-6.0-90.0"},{"sim_score":4,"rt":3764,"stimulus":"[\"img/0894/e2446cf5-cd48-486a-badc-76498e087fbe.jpg\",\"img/0766/f3276cc4-65de-4c2d-88d5-6cfebce14b8f.jpg\"]","trial_type":"similarity","trial_index":97,"time_elapsed":8345172,"internal_node_id":"0.0-6.0-91.0"},{"sim_score":1,"rt":4182,"stimulus":"[\"img/0874/2c9464dd-8a23-4baa-ac94-1ba3af5c15cc.jpg\",\"img/0867/5e07b34d-b40f-4b1c-ac10-49975bace45f.jpg\"]","trial_type":"similarity","trial_index":98,"time_elapsed":8350358,"internal_node_id":"0.0-6.0-92.0"},{"sim_score":2,"rt":3616,"stimulus":"[\"img/0899/9de5e857-aa9a-4e0c-8ba2-46d79bd069a4.jpg\",\"img/0868/3a62db2d-97e9-44a3-b8e3-a48c6f0e423b.jpg\"]","trial_type":"similarity","trial_index":99,"time_elapsed":8354982,"internal_node_id":"0.0-6.0-93.0"},{"sim_score":5,"rt":4778,"stimulus":"[\"img/0903/5995f4a8-fa82-46f8-8760-fd7800a5ca34.jpg\",\"img/0862/53a9cf7c-93c4-41b9-952f-07d17f7a17b2.jpg\"]","trial_type":"similarity","trial_index":100,"time_elapsed":8360764,"internal_node_id":"0.0-6.0-94.0"},{"sim_score":6,"rt":3408,"stimulus":"[\"img/0899/8abe6c69-822c-436c-9bf2-96c818b49ba5.jpg\",\"img/0766/dd3e18d0-0c98-4d05-b850-69976ee8cd75.jpg\"]","trial_type":"similarity","trial_index":101,"time_elapsed":8365175,"internal_node_id":"0.0-6.0-95.0"},{"sim_score":7,"rt":3581,"stimulus":"[\"img/0867/98d8cd96-1476-4fe0-a3a3-04f875500a1b.jpg\",\"img/0868/fd307a36-9a3a-47d7-ab7c-f810d0b35040.jpg\"]","trial_type":"similarity","trial_index":102,"time_elapsed":8369764,"internal_node_id":"0.0-6.0-96.0"},{"sim_score":7,"rt":4047,"stimulus":"[\"img/0862/92fcd8a4-8193-4a6a-ae09-dd4a6338b0df.jpg\",\"img/0901/693e0535-ef7e-4d60-af9d-fac2f38e8307.jpg\"]","trial_type":"similarity","trial_index":103,"time_elapsed":8374815,"internal_node_id":"0.0-6.0-97.0"},{"sim_score":2,"rt":3685,"stimulus":"[\"img/0875/e7e66b13-b573-431e-b85e-288ce04a35a3.jpg\",\"img/0766/fd064894-7147-4af5-97e9-2089d5472656.jpg\"]","trial_type":"similarity","trial_index":104,"time_elapsed":8379507,"internal_node_id":"0.0-6.0-98.0"},{"sim_score":7,"rt":5319,"stimulus":"[\"img/0758/65d426d6-3ff6-415d-8654-a43b83ecc4fe.jpg\",\"img/0874/a3bc679d-619f-4db6-bb68-116dcb757d9c.jpg\"]","trial_type":"similarity","trial_index":105,"time_elapsed":8385830,"internal_node_id":"0.0-6.0-99.0"},{"sim_score":3,"rt":3597,"stimulus":"[\"img/0904/65e2b70a-b184-4da3-b5c0-5038bdf9469a.jpg\",\"img/0868/293079b8-7e0c-4afd-a390-1e5d35fe3ded.jpg\"]","trial_type":"similarity","trial_index":106,"time_elapsed":8390430,"internal_node_id":"0.0-6.0-100.0"},{"sim_score":1,"rt":4280,"stimulus":"[\"img/0903/4cbdc464-e562-4ec2-9bb6-15f894fdf528.jpg\",\"img/0866/6f2a90d7-14f1-4f1b-bd64-fc0af6b9fe44.jpg\"]","trial_type":"similarity","trial_index":107,"time_elapsed":8395718,"internal_node_id":"0.0-6.0-101.0"},{"sim_score":2,"rt":3775,"stimulus":"[\"img/0868/6a28c3b0-3d76-498a-9fb7-ddafc665eca8.jpg\",\"img/0769/50985283-d353-4abc-9abe-14a91d56ebe6.jpg\"]","trial_type":"similarity","trial_index":108,"time_elapsed":8400499,"internal_node_id":"0.0-6.0-102.0"},{"sim_score":6,"rt":3857,"stimulus":"[\"img/0902/3f0eeac5-c996-4026-a376-563ce8f28521.jpg\",\"img/0899/06b0fc99-0581-461a-9913-d1a5a941ac61.jpg\"]","trial_type":"similarity","trial_index":109,"time_elapsed":8405360,"internal_node_id":"0.0-6.0-103.0"},{"sim_score":1,"rt":4463,"stimulus":"[\"img/0868/4e626425-63c8-484a-8a1d-e66ee4e0bef8.jpg\",\"img/0862/f23038d4-c366-4f70-979f-66b62362efa4.jpg\"]","trial_type":"similarity","trial_index":110,"time_elapsed":8410827,"internal_node_id":"0.0-6.0-104.0"},{"sim_score":6,"rt":3765,"stimulus":"[\"img/0903/647ce311-8c71-479a-8361-961db1457139.jpg\",\"img/0894/6aa5545f-fa7d-4286-bbaa-aaf34dc7ec96.jpg\"]","trial_type":"similarity","trial_index":111,"time_elapsed":8415596,"internal_node_id":"0.0-6.0-105.0"},{"sim_score":6,"rt":3406,"stimulus":"[\"img/0864/66091c27-e588-4476-8af9-265dc6be4156.jpg\",\"img/0874/85eb9b8a-c4c6-4e5a-b8e7-363a87a82054.jpg\"]","trial_type":"similarity","trial_index":112,"time_elapsed":8420006,"internal_node_id":"0.0-6.0-106.0"},{"sim_score":5,"rt":4320,"stimulus":"[\"img/0862/a0a3a7ba-7798-46a3-b4ca-05e1f6e581d0.jpg\",\"img/0902/31abfa33-7cdb-44ad-968e-9f7b324d577a.jpg\"]","trial_type":"similarity","trial_index":113,"time_elapsed":8425329,"internal_node_id":"0.0-6.0-107.0"},{"sim_score":5,"rt":4463,"stimulus":"[\"img/0904/9d30eff1-46ef-4453-b11e-124ef8145c00.jpg\",\"img/0903/81368973-de81-46f4-844f-b901f3bfd66d.jpg\"]","trial_type":"similarity","trial_index":114,"time_elapsed":8430796,"internal_node_id":"0.0-6.0-108.0"},{"sim_score":4,"rt":2856,"stimulus":"[\"img/0764/cbdc4f20-3a9a-4211-9b40-090699e0abcc.jpg\",\"img/0864/5f74a653-3bdc-4308-8cca-ac667dc22e1f.jpg\"]","trial_type":"similarity","trial_index":115,"time_elapsed":8434654,"internal_node_id":"0.0-6.0-109.0"},{"sim_score":3,"rt":3944,"stimulus":"[\"img/0866/c446214b-a368-4c65-ae39-ea46894256ab.jpg\",\"img/0894/38cf335f-f76f-4349-8d65-e20cd6859565.jpg\"]","trial_type":"similarity","trial_index":116,"time_elapsed":8439604,"internal_node_id":"0.0-6.0-110.0"},{"sim_score":6,"rt":3699,"stimulus":"[\"img/0899/d8f2dd94-570e-4e8c-a087-d96090fb9e8c.jpg\",\"img/0903/6138142e-c84e-45fc-9487-c974f3d4968a.jpg\"]","trial_type":"similarity","trial_index":117,"time_elapsed":8444306,"internal_node_id":"0.0-6.0-111.0"},{"sim_score":7,"rt":3485,"stimulus":"[\"img/0902/794606a0-d8a8-4e58-8bf8-9d114ed5a548.jpg\",\"img/0904/0d25eb24-bb20-4e8d-9787-8b489558b4cb.jpg\"]","trial_type":"similarity","trial_index":118,"time_elapsed":8448795,"internal_node_id":"0.0-6.0-112.0"},{"sim_score":3,"rt":3563,"stimulus":"[\"img/0864/b3c4e378-28f0-4699-9338-2a257b4bca04.jpg\",\"img/0860/8fdba999-b946-4c7d-9891-336018b563ef.jpg\"]","trial_type":"similarity","trial_index":119,"time_elapsed":8453364,"internal_node_id":"0.0-6.0-113.0"},{"sim_score":2,"rt":4250,"stimulus":"[\"img/0860/71e1aad0-2cdf-43bb-94a4-a8c016997c30.jpg\",\"img/0899/66bf4113-ee12-426c-84d2-ea410b6c803e.jpg\"]","trial_type":"similarity","trial_index":120,"time_elapsed":8458617,"internal_node_id":"0.0-6.0-114.0"},{"sim_score":1,"rt":3214,"stimulus":"[\"img/0881/609a5e93-38b5-4940-8627-2bf8fad7f802.jpg\",\"img/0903/d987e220-f3e6-4b6d-a270-fe6757041f6d.jpg\"]","trial_type":"similarity","trial_index":121,"time_elapsed":8462836,"internal_node_id":"0.0-6.0-115.0"},{"sim_score":2,"rt":4212,"stimulus":"[\"img/0894/7dd6ff43-f8fc-408a-8a41-a2b261871820.jpg\",\"img/0874/3ce41e7c-40c8-4d58-a546-171114521796.jpg\"]","trial_type":"similarity","trial_index":122,"time_elapsed":8468055,"internal_node_id":"0.0-6.0-116.0"},{"sim_score":5,"rt":3846,"stimulus":"[\"img/0881/667e2147-d457-4f32-aa5f-6ab86e5848f1.jpg\",\"img/0862/e8cc3bdf-cc43-4565-bccf-492626c70953.jpg\"]","trial_type":"similarity","trial_index":123,"time_elapsed":8472905,"internal_node_id":"0.0-6.0-117.0"},{"sim_score":4,"rt":3416,"stimulus":"[\"img/0868/7b212364-ff5f-4e28-9241-7eb6ea00161b.jpg\",\"img/0875/5a1e5100-0d94-4fec-bbe9-ca9894d2cf8e.jpg\"]","trial_type":"similarity","trial_index":124,"time_elapsed":8477326,"internal_node_id":"0.0-6.0-118.0"},{"sim_score":4,"rt":2260,"stimulus":"[\"img/0860/99c589b9-9140-4d17-90c0-b344323edcda.jpg\",\"img/0758/7ffbc76b-1fc1-432c-8f7e-9ec8d1b3f643.jpg\"]","trial_type":"similarity","trial_index":125,"time_elapsed":8480589,"internal_node_id":"0.0-6.0-119.0"},{"sim_score":3,"rt":5091,"stimulus":"[\"img/0864/0116ca98-293d-4fa6-a93b-5a6144ef64cc.jpg\",\"img/0875/03c3c331-738b-4446-af92-3d7386b08c2e.jpg\"]","trial_type":"similarity","trial_index":126,"time_elapsed":8486685,"internal_node_id":"0.0-6.0-120.0"},{"sim_score":3,"rt":3667,"stimulus":"[\"img/0898/68476bbb-34a1-42d9-8bc1-deab783d4489.jpg\",\"img/0866/a15b02be-11bb-43e3-b0e0-ecc3bd7dfc49.jpg\"]","trial_type":"similarity","trial_index":127,"time_elapsed":8491355,"internal_node_id":"0.0-6.0-121.0"},{"sim_score":2,"rt":3854,"stimulus":"[\"img/0874/767f289c-9814-4496-803f-745cc8913d1f.jpg\",\"img/0904/4b8daf2a-13a9-4ea9-9e0b-b265b6e933e7.jpg\"]","trial_type":"similarity","trial_index":128,"time_elapsed":8496215,"internal_node_id":"0.0-6.0-122.0"},{"sim_score":5,"rt":4092,"stimulus":"[\"img/0904/ba8e689e-9ca6-4608-a2a1-3b0940666ae6.jpg\",\"img/0864/4bd81bc6-c13d-46df-95a9-485886dc7c1b.jpg\"]","trial_type":"similarity","trial_index":129,"time_elapsed":8501312,"internal_node_id":"0.0-6.0-123.0"},{"sim_score":4,"rt":2661,"stimulus":"[\"img/0894/5f15154e-e72e-4ce5-aafb-bce6f0564006.jpg\",\"img/0902/c018bd7a-d91a-4192-aea4-7259cfcdb6c4.jpg\"]","trial_type":"similarity","trial_index":130,"time_elapsed":8504978,"internal_node_id":"0.0-6.0-124.0"},{"sim_score":1,"rt":2618,"stimulus":"[\"img/0868/179a5502-ab5c-478e-8263-5a1fbcc101d2.jpg\",\"img/0864/3651d070-2fc5-4848-b6a6-088a2d9ac5c9.jpg\"]","trial_type":"similarity","trial_index":131,"time_elapsed":8518724,"internal_node_id":"0.0-6.0-125.0"},{"sim_score":1,"rt":4386,"stimulus":"[\"img/0899/d60714ae-98d7-4564-8c98-94dba1351135.jpg\",\"img/0866/11a1d141-be5e-443c-98c1-a9d4d9e3dec0.jpg\"]","trial_type":"similarity","trial_index":132,"time_elapsed":8524114,"internal_node_id":"0.0-6.0-126.0"},{"sim_score":2,"rt":4757,"stimulus":"[\"img/0875/d59ff733-eaff-4ee2-9443-06954dd0bcb6.jpg\",\"img/0904/96e503ea-6630-4996-85f2-0237688ce441.jpg\"]","trial_type":"similarity","trial_index":133,"time_elapsed":8529875,"internal_node_id":"0.0-6.0-127.0"},{"sim_score":3,"rt":4124,"stimulus":"[\"img/0867/12264664-1860-46df-8c21-162b9817cdda.jpg\",\"img/0899/8de08897-b430-42fe-9d42-840670b80f94.jpg\"]","trial_type":"similarity","trial_index":134,"time_elapsed":8535004,"internal_node_id":"0.0-6.0-128.0"},{"sim_score":2,"rt":3947,"stimulus":"[\"img/0901/443f2e59-199b-4f7b-9de9-c44ad97326a5.jpg\",\"img/0867/1719a35d-f085-48c0-9099-16c94fe418b4.jpg\"]","trial_type":"similarity","trial_index":135,"time_elapsed":8539954,"internal_node_id":"0.0-6.0-129.0"},{"sim_score":4,"rt":2630,"stimulus":"[\"img/0864/efcfbb1b-8197-44c9-b723-40d6c608dd3c.jpg\",\"img/0769/8056889f-2b14-4782-bb25-b4e8896ab65b.jpg\"]","trial_type":"similarity","trial_index":136,"time_elapsed":8543589,"internal_node_id":"0.0-6.0-130.0"},{"sim_score":1,"rt":5755,"stimulus":"[\"img/0903/150cf64c-0bd2-4674-abbb-a1387cf1f3e9.jpg\",\"img/0868/77091fc7-a590-4ebb-b915-fdb2483a2399.jpg\"]","trial_type":"similarity","trial_index":137,"time_elapsed":8550350,"internal_node_id":"0.0-6.0-131.0"},{"sim_score":1,"rt":3147,"stimulus":"[\"img/0864/afcba0a3-7e27-4757-b254-e9f05fad27e2.jpg\",\"img/0867/f26f6b60-f772-4f4c-95a4-addc62cfd692.jpg\"]","trial_type":"similarity","trial_index":138,"time_elapsed":8554500,"internal_node_id":"0.0-6.0-132.0"},{"sim_score":7,"rt":2944,"stimulus":"[\"img/0901/ae1e6ce4-2e10-4ca9-b1e7-21628637ab74.jpg\",\"img/0860/9593362c-9fe5-4d12-9735-6000a11f6aa5.jpg\"]","trial_type":"similarity","trial_index":139,"time_elapsed":8558450,"internal_node_id":"0.0-6.0-133.0"},{"sim_score":5,"rt":3856,"stimulus":"[\"img/0881/f6bd3b96-dc40-4e99-8681-bc3a35cf896d.jpg\",\"img/0766/00891401-e4c9-4ce1-bc19-f70740d174bc.jpg\"]","trial_type":"similarity","trial_index":140,"time_elapsed":8563309,"internal_node_id":"0.0-6.0-134.0"},{"sim_score":6,"rt":2742,"stimulus":"[\"img/0903/e2e55a9e-0397-4dc0-8adf-4a54cfefe1fe.jpg\",\"img/0864/f92649a2-0590-4d31-9a7a-1bfb81666a2d.jpg\"]","trial_type":"similarity","trial_index":141,"time_elapsed":8567057,"internal_node_id":"0.0-6.0-135.0"},{"sim_score":5,"rt":2986,"stimulus":"[\"img/0758/dd559618-7f09-4a07-8018-d311c4a5ea29.jpg\",\"img/0894/0130a973-d993-41f8-874a-fee23d9ac11f.jpg\"]","trial_type":"similarity","trial_index":142,"time_elapsed":8571049,"internal_node_id":"0.0-6.0-136.0"},{"sim_score":5,"rt":3158,"stimulus":"[\"img/0769/662ab839-88d1-4ebf-af05-9b2980cad943.jpg\",\"img/0860/4a022222-056d-461c-ab02-39fac9647552.jpg\"]","trial_type":"similarity","trial_index":143,"time_elapsed":8575212,"internal_node_id":"0.0-6.0-137.0"},{"sim_score":3,"rt":2777,"stimulus":"[\"img/0904/25365108-e038-4021-aac9-797f2063b337.jpg\",\"img/0766/91fc8c4d-862f-4d2b-b1a1-2db8d729b6b7.jpg\"]","trial_type":"similarity","trial_index":144,"time_elapsed":8578993,"internal_node_id":"0.0-6.0-138.0"},{"sim_score":4,"rt":4464,"stimulus":"[\"img/0868/1a62b2b2-18f5-466e-b564-5176a57c565e.jpg\",\"img/0860/4c530c3c-6aab-492a-94d1-9c01797bde40.jpg\"]","trial_type":"similarity","trial_index":145,"time_elapsed":8584460,"internal_node_id":"0.0-6.0-139.0"},{"sim_score":5,"rt":4983,"stimulus":"[\"img/0758/a709631e-3705-4725-ac40-f0d916924f08.jpg\",\"img/0864/5f33e097-23e3-4002-882d-76e8cb15f451.jpg\"]","trial_type":"similarity","trial_index":146,"time_elapsed":8590446,"internal_node_id":"0.0-6.0-140.0"},{"sim_score":7,"rt":3270,"stimulus":"[\"img/0867/de92135f-5b65-4ed9-b245-188292c7c2f8.jpg\",\"img/0867/2e1a0b58-cdb1-4107-a14e-452530d7b9b0.jpg\"]","trial_type":"similarity","trial_index":147,"time_elapsed":8594719,"internal_node_id":"0.0-6.0-141.0"},{"sim_score":7,"rt":3570,"stimulus":"[\"img/0898/b3290bf9-215b-4b45-b21a-65bdf73f142f.jpg\",\"img/0898/6cd3830b-d44e-4915-be2b-88d31424b91c.jpg\"]","trial_type":"similarity","trial_index":148,"time_elapsed":8599298,"internal_node_id":"0.0-6.0-142.0"},{"sim_score":2,"rt":3362,"stimulus":"[\"img/0866/be24ab58-230e-4db8-9f45-ff04c9aec6bb.jpg\",\"img/0769/82ab9db6-4578-4e79-874f-f09100439f09.jpg\"]","trial_type":"similarity","trial_index":149,"time_elapsed":8603663,"internal_node_id":"0.0-6.0-143.0"},{"sim_score":6,"rt":2642,"stimulus":"[\"img/0860/524b2e98-5767-4d53-942c-ebae6925659b.jpg\",\"img/0898/79233891-305a-4a6a-8ddf-5c8604858203.jpg\"]","trial_type":"similarity","trial_index":150,"time_elapsed":8607309,"internal_node_id":"0.0-6.0-144.0"},{"sim_score":5,"rt":3438,"stimulus":"[\"img/0766/75c3d627-4f3b-40d5-9d9c-10c8a62db644.jpg\",\"img/0864/e02eddb5-f468-499c-91bf-f7be3ffe979b.jpg\"]","trial_type":"similarity","trial_index":151,"time_elapsed":8611752,"internal_node_id":"0.0-6.0-145.0"},{"sim_score":5,"rt":3034,"stimulus":"[\"img/0860/e14d67c1-6d92-4f1e-9257-c8607159c19c.jpg\",\"img/0903/5248eedd-7e6a-4d39-91b0-06ec227f3ed0.jpg\"]","trial_type":"similarity","trial_index":152,"time_elapsed":8615790,"internal_node_id":"0.0-6.0-146.0"},{"sim_score":2,"rt":3000,"stimulus":"[\"img/0867/7d1c497b-c1b3-4ed8-abb5-d7f73306015f.jpg\",\"img/0764/da207710-e7e4-4f42-b2e6-99b5f357f433.jpg\"]","trial_type":"similarity","trial_index":153,"time_elapsed":8619797,"internal_node_id":"0.0-6.0-147.0"},{"sim_score":6,"rt":4159,"stimulus":"[\"img/0769/f2740c58-7c02-433f-920b-746b0b75435b.jpg\",\"img/0904/2f88ce53-02d0-4f95-a082-182c56a0eeb4.jpg\"]","trial_type":"similarity","trial_index":154,"time_elapsed":8624961,"internal_node_id":"0.0-6.0-148.0"},{"sim_score":2,"rt":3147,"stimulus":"[\"img/0764/b8e23f4f-ff19-4472-ad9b-2f85548ebca0.jpg\",\"img/0901/233a6948-48eb-4b67-8259-222b916b2322.jpg\"]","trial_type":"similarity","trial_index":155,"time_elapsed":8629112,"internal_node_id":"0.0-6.0-149.0"},{"sim_score":4,"rt":3302,"stimulus":"[\"img/0904/a8c3c7d2-9bcf-4347-9e03-8203adfc1fc5.jpg\",\"img/0899/fef567a2-c121-4481-9af0-ff108d199bbf.jpg\"]","trial_type":"similarity","trial_index":156,"time_elapsed":8633419,"internal_node_id":"0.0-6.0-150.0"},{"sim_score":1,"rt":3351,"stimulus":"[\"img/0862/ad593cc7-cabe-4bb7-8e14-8a447a0717b4.jpg\",\"img/0867/db7e032f-162b-46f5-ae67-2b29679adee4.jpg\"]","trial_type":"similarity","trial_index":157,"time_elapsed":8637774,"internal_node_id":"0.0-6.0-151.0"},{"sim_score":6,"rt":4115,"stimulus":"[\"img/0766/aaec5f42-7f0a-4a16-aeca-488d757acbcc.jpg\",\"img/0766/60033a74-9919-47e5-913c-71d0d483e7e5.jpg\"]","trial_type":"similarity","trial_index":158,"time_elapsed":8642893,"internal_node_id":"0.0-6.0-152.0"},{"sim_score":5,"rt":2829,"stimulus":"[\"img/0862/ee3b7bff-4a70-4e84-9bea-4a565e456acb.jpg\",\"img/0894/86201968-6e78-4d68-9b3a-d1692e066210.jpg\"]","trial_type":"similarity","trial_index":159,"time_elapsed":8646730,"internal_node_id":"0.0-6.0-153.0"},{"sim_score":1,"rt":3651,"stimulus":"[\"img/0899/00715b3f-851b-420b-a26b-d7f79f7759a9.jpg\",\"img/0901/b123d109-47b4-4f9a-80c9-9bb16da42efa.jpg\"]","trial_type":"similarity","trial_index":160,"time_elapsed":8651388,"internal_node_id":"0.0-6.0-154.0"},{"sim_score":7,"rt":2911,"stimulus":"[\"img/0874/7e4f2150-3b59-4a36-b5da-a4e0ba410531.jpg\",\"img/0874/93d1f8dc-acf2-4f03-bd8d-8ec35df276ed.jpg\"]","trial_type":"similarity","trial_index":161,"time_elapsed":8655303,"internal_node_id":"0.0-6.0-155.0"},{"sim_score":1,"rt":3998,"stimulus":"[\"img/0860/c47fdead-eb02-4989-b078-26f4852f44fe.jpg\",\"img/0867/f8159067-056c-41f1-a136-c529fe5e970a.jpg\"]","trial_type":"similarity","trial_index":162,"time_elapsed":8660309,"internal_node_id":"0.0-6.0-156.0"},{"sim_score":2,"rt":3033,"stimulus":"[\"img/0901/a6776381-91fe-43f8-ab73-261d318f95fd.jpg\",\"img/0881/d373cb9f-a719-4549-a2a4-82def79fb2a5.jpg\"]","trial_type":"similarity","trial_index":163,"time_elapsed":8664347,"internal_node_id":"0.0-6.0-157.0"},{"sim_score":4,"rt":3166,"stimulus":"[\"img/0903/ea75f240-fb62-4edb-a709-83e858b202c0.jpg\",\"img/0902/b56db912-c3c0-4fc2-b325-d640acd7cb58.jpg\"]","trial_type":"similarity","trial_index":164,"time_elapsed":8668520,"internal_node_id":"0.0-6.0-158.0"},{"sim_score":2,"rt":4216,"stimulus":"[\"img/0860/4f695df5-afac-4da7-9875-fee39b0b24ad.jpg\",\"img/0764/1f95ab5f-fb65-4d70-b5db-d6bd6351a8aa.jpg\"]","trial_type":"similarity","trial_index":165,"time_elapsed":8673741,"internal_node_id":"0.0-6.0-159.0"},{"sim_score":1,"rt":2774,"stimulus":"[\"img/0902/04a6ad4a-afc6-4871-8225-56b299af7b6b.jpg\",\"img/0875/527ced51-8e53-4aab-ab05-86df219104c0.jpg\"]","trial_type":"similarity","trial_index":166,"time_elapsed":8677521,"internal_node_id":"0.0-6.0-160.0"},{"sim_score":3,"rt":3776,"stimulus":"[\"img/0898/b2732712-71c2-45d8-834f-2b2ed5504910.jpg\",\"img/0862/ba89835a-408c-480b-8594-ed4ffa97eb5c.jpg\"]","trial_type":"similarity","trial_index":167,"time_elapsed":8682302,"internal_node_id":"0.0-6.0-161.0"},{"sim_score":3,"rt":3192,"stimulus":"[\"img/0894/5a49e858-2850-4892-9a06-e9f0efb5f94d.jpg\",\"img/0875/ebf7653f-ff45-4e9f-af58-2c042ab3cd2b.jpg\"]","trial_type":"similarity","trial_index":168,"time_elapsed":8686498,"internal_node_id":"0.0-6.0-162.0"},{"sim_score":1,"rt":2618,"stimulus":"[\"img/0866/a04d37f0-99dd-478a-b6c6-58b215138f84.jpg\",\"img/0864/65210d57-1153-4657-886a-32e758f49b4a.jpg\"]","trial_type":"similarity","trial_index":169,"time_elapsed":8690120,"internal_node_id":"0.0-6.0-163.0"},{"sim_score":2,"rt":4003,"stimulus":"[\"img/0766/d14acac4-7db1-4b07-8f8f-302437326fc0.jpg\",\"img/0862/99a99e39-8355-44ec-b993-e7bcec111e1c.jpg\"]","trial_type":"similarity","trial_index":170,"time_elapsed":8695127,"internal_node_id":"0.0-6.0-164.0"},{"sim_score":1,"rt":3705,"stimulus":"[\"img/0866/f756f7d1-9ad8-4a34-9ef6-7a443d705bfe.jpg\",\"img/0874/eba003b4-cdab-4eee-8bc3-f064c7d94165.jpg\"]","trial_type":"similarity","trial_index":171,"time_elapsed":8699840,"internal_node_id":"0.0-6.0-165.0"},{"sim_score":6,"rt":3889,"stimulus":"[\"img/0862/064818ee-13d5-4618-bb24-21c7368ea278.jpg\",\"img/0860/c7047cd2-7cc1-41b6-8a34-c0986774975f.jpg\"]","trial_type":"similarity","trial_index":172,"time_elapsed":8704735,"internal_node_id":"0.0-6.0-166.0"},{"sim_score":3,"rt":3966,"stimulus":"[\"img/0766/0b48f9e0-7d37-4161-8adb-4e3f5b6b7583.jpg\",\"img/0901/4d1bed7e-3c4e-4f6c-ada9-4beb66ba9e39.jpg\"]","trial_type":"similarity","trial_index":173,"time_elapsed":8713227,"internal_node_id":"0.0-6.0-167.0"},{"sim_score":7,"rt":3350,"stimulus":"[\"img/0862/f43ceabf-acc1-4107-b857-5d1849808f93.jpg\",\"img/0862/fb26cb07-d5a9-4653-813c-f41609f26cd5.jpg\"]","trial_type":"similarity","trial_index":174,"time_elapsed":8717581,"internal_node_id":"0.0-6.0-168.0"},{"sim_score":4,"rt":2753,"stimulus":"[\"img/0894/a98416c0-51e2-4960-85da-d81d8688b9d5.jpg\",\"img/0764/5d6fa3ce-9083-410c-bbdb-336a49b94cfc.jpg\"]","trial_type":"similarity","trial_index":175,"time_elapsed":8721339,"internal_node_id":"0.0-6.0-169.0"},{"sim_score":4,"rt":3081,"stimulus":"[\"img/0874/adf9a8f1-c40b-402b-b95b-1e85a54a7b62.jpg\",\"img/0898/881e2a85-d5c2-49be-a0c6-8a6ce2c4af08.jpg\"]","trial_type":"similarity","trial_index":176,"time_elapsed":8725422,"internal_node_id":"0.0-6.0-170.0"},{"sim_score":4,"rt":1605,"stimulus":"[\"img/0860/fd4662f9-4c03-4d79-8593-06735e55a64b.jpg\",\"img/0766/09f646c8-a69e-4ed3-879c-8d29b04ad7f9.jpg\"]","trial_type":"similarity","trial_index":177,"time_elapsed":8728033,"internal_node_id":"0.0-6.0-171.0"},{"sim_score":4,"rt":2861,"stimulus":"[\"img/0898/a114b375-cb89-44ba-9498-74213f1ecdee.jpg\",\"img/0864/87c467d3-abca-482f-ad80-3766c21b1bb3.jpg\"]","trial_type":"similarity","trial_index":178,"time_elapsed":8731903,"internal_node_id":"0.0-6.0-172.0"},{"sim_score":5,"rt":2895,"stimulus":"[\"img/0881/566f45f8-5fed-4479-a60f-26377e60a62d.jpg\",\"img/0764/5c8fbafc-e62e-43ed-9b37-f73e8e45147d.jpg\"]","trial_type":"similarity","trial_index":179,"time_elapsed":8735807,"internal_node_id":"0.0-6.0-173.0"},{"sim_score":3,"rt":5047,"stimulus":"[\"img/0898/82231d4c-218b-4d0a-b50d-35a49b524e97.jpg\",\"img/0868/8b0b8473-e2c0-4331-aa56-c3a5c29369da.jpg\"]","trial_type":"similarity","trial_index":180,"time_elapsed":8741859,"internal_node_id":"0.0-6.0-174.0"},{"sim_score":7,"rt":4190,"stimulus":"[\"img/0864/a248adb3-c70b-4652-b7a3-776d2a1e904b.jpg\",\"img/0864/e336a4c5-6648-4fd7-b2f6-93a3fb83f8c6.jpg\"]","trial_type":"similarity","trial_index":181,"time_elapsed":8747057,"internal_node_id":"0.0-6.0-175.0"},{"sim_score":6,"rt":2503,"stimulus":"[\"img/0899/66ab3178-c3fe-4455-ad17-d5952b08e018.jpg\",\"img/0862/7918ca67-5bd3-4606-a5ea-c39fb11a9297.jpg\"]","trial_type":"similarity","trial_index":182,"time_elapsed":8750566,"internal_node_id":"0.0-6.0-176.0"},{"sim_score":2,"rt":3795,"stimulus":"[\"img/0875/5a716432-c6ca-4b1c-955a-2b8ac25198ee.jpg\",\"img/0758/a085b443-b5d7-4cb2-9ad4-b9dab0fc23f1.jpg\"]","trial_type":"similarity","trial_index":183,"time_elapsed":8755370,"internal_node_id":"0.0-6.0-177.0"},{"sim_score":1,"rt":3305,"stimulus":"[\"img/0866/d493a2c8-66eb-44b4-be02-2f327b700b7c.jpg\",\"img/0901/875dedb9-24c9-4443-9f8c-85e97d70ee5a.jpg\"]","trial_type":"similarity","trial_index":184,"time_elapsed":8759680,"internal_node_id":"0.0-6.0-178.0"},{"sim_score":2,"rt":3856,"stimulus":"[\"img/0769/91acb237-65a3-4d0b-9748-af5c7b83d3c7.jpg\",\"img/0874/ca76a855-4e77-4f2f-872a-0a718153e7ed.jpg\"]","trial_type":"similarity","trial_index":185,"time_elapsed":8764540,"internal_node_id":"0.0-6.0-179.0"},{"sim_score":2,"rt":3046,"stimulus":"[\"img/0875/34132396-d896-4c2d-8087-646dd867e769.jpg\",\"img/0881/ed4c971f-0873-4fc8-b6d6-e8bbd82f0bcc.jpg\"]","trial_type":"similarity","trial_index":186,"time_elapsed":8768589,"internal_node_id":"0.0-6.0-180.0"},{"sim_score":5,"rt":6680,"stimulus":"[\"img/0866/d266fece-59b3-46fa-b69f-96f6efb81b59.jpg\",\"img/0868/d6d1f30d-4323-435a-b194-7892521bc57e.jpg\"]","trial_type":"similarity","trial_index":187,"time_elapsed":8776274,"internal_node_id":"0.0-6.0-181.0"},{"sim_score":5,"rt":5383,"stimulus":"[\"img/0899/f58b8d2f-b19d-4b59-8b94-8834be92e4ba.jpg\",\"img/0758/e38fd80d-18d0-42f3-b848-f930788e8bd7.jpg\"]","trial_type":"similarity","trial_index":188,"time_elapsed":8782664,"internal_node_id":"0.0-6.0-182.0"},{"sim_score":1,"rt":2489,"stimulus":"[\"img/0874/995f0332-0439-4eb4-add3-957335dbf6d9.jpg\",\"img/0875/3ecb367d-e9eb-4826-8aaa-7aa72fb98019.jpg\"]","trial_type":"similarity","trial_index":189,"time_elapsed":8786162,"internal_node_id":"0.0-6.0-183.0"},{"sim_score":2,"rt":3451,"stimulus":"[\"img/0904/9dd5708f-3f8b-46a9-b49f-2f2fab87b357.jpg\",\"img/0862/e697469a-ec19-4414-b972-7b9f3564785b.jpg\"]","trial_type":"similarity","trial_index":190,"time_elapsed":8790617,"internal_node_id":"0.0-6.0-184.0"},{"sim_score":5,"rt":3424,"stimulus":"[\"img/0902/9f543501-3cf1-45a7-a2f1-eeca87cc15b9.jpg\",\"img/0766/27f54113-8561-4568-9ffe-0a1650ae65ec.jpg\"]","trial_type":"similarity","trial_index":191,"time_elapsed":8795050,"internal_node_id":"0.0-6.0-185.0"},{"sim_score":5,"rt":3436,"stimulus":"[\"img/0758/821c68d3-5cb0-4eae-8659-30e6263fca39.jpg\",\"img/0769/3adfa417-3b90-4aab-b437-5eaa474189cb.jpg\"]","trial_type":"similarity","trial_index":192,"time_elapsed":8799494,"internal_node_id":"0.0-6.0-186.0"},{"sim_score":7,"rt":2888,"stimulus":"[\"img/0881/f037e3b0-09cb-4a83-b2d9-6a71fe474e63.jpg\",\"img/0881/b549bc99-a61c-4450-bab5-9efc3a197bf0.jpg\"]","trial_type":"similarity","trial_index":193,"time_elapsed":8803386,"internal_node_id":"0.0-6.0-187.0"},{"sim_score":1,"rt":4438,"stimulus":"[\"img/0758/9fb5b2fe-3f00-4fe6-973c-1ce10d5f4cd5.jpg\",\"img/0866/620cd1aa-0800-4414-8f6e-90342e7a99ad.jpg\"]","trial_type":"similarity","trial_index":194,"time_elapsed":8808831,"internal_node_id":"0.0-6.0-188.0"},{"sim_score":4,"rt":2405,"stimulus":"[\"img/0764/7f4ee8e3-9315-4a57-be7d-db8454b33766.jpg\",\"img/0898/993d8f2d-bef7-4251-a193-0f93a32b7763.jpg\"]","trial_type":"similarity","trial_index":195,"time_elapsed":8812240,"internal_node_id":"0.0-6.0-189.0"},{"sim_score":2,"rt":3772,"stimulus":"[\"img/0903/8931c67c-a43d-47d3-a4c9-42aa2f81d344.jpg\",\"img/0901/1e23ffbd-19de-4c4f-aa23-c54aaa3319a3.jpg\"]","trial_type":"similarity","trial_index":196,"time_elapsed":8817021,"internal_node_id":"0.0-6.0-190.0"},{"sim_score":6,"rt":2952,"stimulus":"[\"img/0902/30c420f5-c714-4681-ae5a-c0ba8f636a26.jpg\",\"img/0898/e167334e-cc1d-4986-b3b1-c7bc7da64baa.jpg\"]","trial_type":"similarity","trial_index":197,"time_elapsed":8820980,"internal_node_id":"0.0-6.0-191.0"},{"sim_score":3,"rt":2930,"stimulus":"[\"img/0864/ea327690-500b-4137-bf91-451b309fe6a5.jpg\",\"img/0901/f1116359-1ff1-4638-b3b3-700918d36d18.jpg\"]","trial_type":"similarity","trial_index":198,"time_elapsed":8824919,"internal_node_id":"0.0-6.0-192.0"},{"sim_score":3,"rt":2928,"stimulus":"[\"img/0894/5c7677b0-a4f1-479e-b274-7822c415175a.jpg\",\"img/0881/f8bd891e-aa09-4782-89db-33e7cb2b0cf1.jpg\"]","trial_type":"similarity","trial_index":199,"time_elapsed":8828855,"internal_node_id":"0.0-6.0-193.0"},{"sim_score":6,"rt":2760,"stimulus":"[\"img/0868/15dd6fd7-791e-4b53-b203-195d617521a4.jpg\",\"img/0868/83b4350a-3b70-4cea-b7f5-b5b56f3050a8.jpg\"]","trial_type":"similarity","trial_index":200,"time_elapsed":8832624,"internal_node_id":"0.0-6.0-194.0"},{"sim_score":5,"rt":3368,"stimulus":"[\"img/0899/0adc0bc3-6fca-4078-be6f-d45ddf1653d5.jpg\",\"img/0764/6c7fe363-2d37-418f-9e5e-a3273af5d4fb.jpg\"]","trial_type":"similarity","trial_index":201,"time_elapsed":8837000,"internal_node_id":"0.0-6.0-195.0"},{"sim_score":4,"rt":2367,"stimulus":"[\"img/0881/4bd34581-94d8-4e88-8c89-5cef864ca3be.jpg\",\"img/0904/60d1a521-edf7-4696-9263-f21ac0e62a01.jpg\"]","trial_type":"similarity","trial_index":202,"time_elapsed":8840375,"internal_node_id":"0.0-6.0-196.0"},{"sim_score":5,"rt":2857,"stimulus":"[\"img/0864/1ebbc554-99fa-49f9-8799-317375a79820.jpg\",\"img/0902/94ee9c53-a9a2-4f95-b9b7-794a5fc62bb6.jpg\"]","trial_type":"similarity","trial_index":203,"time_elapsed":8844236,"internal_node_id":"0.0-6.0-197.0"},{"sim_score":6,"rt":3395,"stimulus":"[\"img/0894/a3d4170b-b7d8-40e3-955f-87e76ed745fc.jpg\",\"img/0904/1d10df11-b5c8-4370-9a6b-097a7f965895.jpg\"]","trial_type":"similarity","trial_index":204,"time_elapsed":8848634,"internal_node_id":"0.0-6.0-198.0"},{"sim_score":7,"rt":2784,"stimulus":"[\"img/0901/a0d65c84-3f20-476a-92d1-0c01e8019cf4.jpg\",\"img/0901/548d1110-7cb8-42a2-9927-9798875c8b5c.jpg\"]","trial_type":"similarity","trial_index":205,"time_elapsed":8852424,"internal_node_id":"0.0-6.0-199.0"},{"sim_score":1,"rt":2889,"stimulus":"[\"img/0894/151063aa-6472-4745-837b-36603aba5966.jpg\",\"img/0860/17b44a7d-c5ca-479f-9e87-f65a64f5c80e.jpg\"]","trial_type":"similarity","trial_index":206,"time_elapsed":8856316,"internal_node_id":"0.0-6.0-200.0"},{"sim_score":6,"rt":3374,"stimulus":"[\"img/0898/8605a25b-6895-476d-8c13-df7a83f96093.jpg\",\"img/0903/0a92ec52-4e87-410a-857a-4455cde56a70.jpg\"]","trial_type":"similarity","trial_index":207,"time_elapsed":8860694,"internal_node_id":"0.0-6.0-201.0"},{"sim_score":6,"rt":2785,"stimulus":"[\"img/0864/9b2490c5-a282-400a-9736-e1a0ecbf1cb7.jpg\",\"img/0894/e6385e52-6c35-43bd-b0af-bc803d107b11.jpg\"]","trial_type":"similarity","trial_index":208,"time_elapsed":8864485,"internal_node_id":"0.0-6.0-202.0"},{"sim_score":1,"rt":3765,"stimulus":"[\"img/0874/a82926a3-0b43-4add-803c-d5f9ea7798ee.jpg\",\"img/0860/61fb959d-d4d9-4de4-9e4e-4fa62b4cfcd5.jpg\"]","trial_type":"similarity","trial_index":209,"time_elapsed":8869254,"internal_node_id":"0.0-6.0-203.0"},{"sim_score":1,"rt":2832,"stimulus":"[\"img/0862/eefa5588-9efd-4591-aa5f-a2e17c7d7bcc.jpg\",\"img/0875/2e13d160-eea1-416b-aff1-d37ab99ecc1d.jpg\"]","trial_type":"similarity","trial_index":210,"time_elapsed":8873091,"internal_node_id":"0.0-6.0-204.0"},{"sim_score":1,"rt":3515,"stimulus":"[\"img/0867/ac1797e4-8afc-48fe-b252-86d1defb1cca.jpg\",\"img/0881/1407b85b-a1c6-45b1-9884-3b24203efadb.jpg\"]","trial_type":"similarity","trial_index":211,"time_elapsed":8877613,"internal_node_id":"0.0-6.0-205.0"},{"sim_score":6,"rt":4728,"stimulus":"[\"img/0901/7d4a3388-488d-4e9b-9d32-9d0def7aae8d.jpg\",\"img/0902/7499db23-3a41-41ea-ab5b-6ab4d4c3ed35.jpg\"]","trial_type":"similarity","trial_index":212,"time_elapsed":8883351,"internal_node_id":"0.0-6.0-206.0"},{"sim_score":4,"rt":2781,"stimulus":"[\"img/0899/57476fed-5962-4272-8fc9-b317bb777b54.jpg\",\"img/0864/ef9cbca0-4be8-435d-ad49-977259e80409.jpg\"]","trial_type":"similarity","trial_index":213,"time_elapsed":8887141,"internal_node_id":"0.0-6.0-207.0"},{"sim_score":2,"rt":3785,"stimulus":"[\"img/0901/58978a6d-a3e2-4c59-8d62-f60693ecc0f6.jpg\",\"img/0769/db94b61b-a5a7-4861-9d32-7b02ad194fb0.jpg\"]","trial_type":"similarity","trial_index":214,"time_elapsed":8891934,"internal_node_id":"0.0-6.0-208.0"},{"sim_score":5,"rt":3844,"stimulus":"[\"img/0902/ca3160ba-ad5d-459f-a1b6-8b4f3c85ecd5.jpg\",\"img/0902/c920f0e1-1c81-480f-a164-c77f2dc6ce9a.jpg\"]","trial_type":"similarity","trial_index":215,"time_elapsed":8899731,"internal_node_id":"0.0-6.0-209.0"},{"view_history":"[{\"page_index\":0,\"viewing_time\":6321}]","rt":6322,"trial_type":"instructions","trial_index":216,"time_elapsed":8907054,"internal_node_id":"0.0-7.0"},{"rt":81232,"responses":"{\"Q0\":\"Nashville Warbler\"}","answer":["Nashville Warbler"],"trial_type":"image-multi-choice","trial_index":217,"time_elapsed":8989304,"internal_node_id":"0.0-8.0-0.0"},{"rt":8788,"responses":"{\"Q0\":\"Black-and-white Warbler\"}","answer":["Black-and-white Warbler"],"trial_type":"image-multi-choice","trial_index":218,"time_elapsed":8999103,"internal_node_id":"0.0-8.0-1.0"},{"rt":5858,"responses":"{\"Q0\":\"Magnolia Warbler\"}","answer":["Townsend's Warbler"],"trial_type":"image-multi-choice","trial_index":219,"time_elapsed":9005976,"internal_node_id":"0.0-8.0-2.0"},{"rt":52099,"responses":"{\"Q0\":\"Song Sparrow\"}","answer":["Lark Sparrow"],"trial_type":"image-multi-choice","trial_index":220,"time_elapsed":9059087,"internal_node_id":"0.0-8.0-3.0"},{"rt":5423,"responses":"{\"Q0\":\"Yellow Warbler\"}","answer":["Yellow Warbler"],"trial_type":"image-multi-choice","trial_index":221,"time_elapsed":9065523,"internal_node_id":"0.0-8.0-4.0"},{"rt":163762,"responses":"{\"Q0\":\"Orange-crowned Warbler\"}","answer":["Orange-crowned Warbler"],"trial_type":"image-multi-choice","trial_index":222,"time_elapsed":9230302,"internal_node_id":"0.0-8.0-5.0"},{"rt":10947,"responses":"{\"Q0\":\"White-throated Sparrow\"}","answer":["White-throated Sparrow"],"trial_type":"image-multi-choice","trial_index":223,"time_elapsed":9242260,"internal_node_id":"0.0-8.0-6.0"},{"rt":145493,"responses":"{\"Q0\":\"Fox Sparrow\"}","answer":["Fox Sparrow"],"trial_type":"image-multi-choice","trial_index":224,"time_elapsed":9388768,"internal_node_id":"0.0-8.0-7.0"},{"rt":341349,"responses":"{\"Q0\":\"Song Sparrow\"}","answer":["Song Sparrow"],"trial_type":"image-multi-choice","trial_index":225,"time_elapsed":9731130,"internal_node_id":"0.0-8.0-8.0"},{"rt":52612,"responses":"{\"Q0\":\"Blackburnian Warbler\"}","answer":["Blackburnian Warbler"],"trial_type":"image-multi-choice","trial_index":226,"time_elapsed":9784760,"internal_node_id":"0.0-8.0-9.0"},{"rt":52700,"responses":"{\"Q0\":\"Vesper Sparrow\"}","answer":["Vesper Sparrow"],"trial_type":"image-multi-choice","trial_index":227,"time_elapsed":9838477,"internal_node_id":"0.0-8.0-10.0"},{"rt":5045,"responses":"{\"Q0\":\"White-crowned Sparrow\"}","answer":["White-crowned Sparrow"],"trial_type":"image-multi-choice","trial_index":228,"time_elapsed":9844531,"internal_node_id":"0.0-8.0-11.0"},{"rt":92232,"responses":"{\"Q0\":\"American Tree Sparrow\"}","answer":["American Tree Sparrow"],"trial_type":"image-multi-choice","trial_index":229,"time_elapsed":9937781,"internal_node_id":"0.0-8.0-12.0"},{"rt":196401,"responses":"{\"Q0\":\"Tennessee Warbler\"}","answer":["Tennessee Warbler"],"trial_type":"image-multi-choice","trial_index":230,"time_elapsed":10135196,"internal_node_id":"0.0-8.0-13.0"},{"rt":328362,"responses":"{\"Q0\":\"Magnolia Warbler\"}","answer":["Magnolia Warbler"],"trial_type":"image-multi-choice","trial_index":231,"time_elapsed":10464574,"internal_node_id":"0.0-8.0-14.0"},{"rt":24696,"responses":"{\"Q0\":\"Northern Waterthrush\"}","answer":["Northern Waterthrush"],"trial_type":"image-multi-choice","trial_index":232,"time_elapsed":10490280,"internal_node_id":"0.0-8.0-15.0"},{"rt":49018,"responses":"{\"Q0\":\"Chipping Sparrow\"}","answer":["Chipping Sparrow"],"trial_type":"image-multi-choice","trial_index":233,"time_elapsed":10540310,"internal_node_id":"0.0-8.0-16.0"},{"rt":60341,"responses":"{\"Q0\":\"Swamp Sparrow\"}","answer":["Swamp Sparrow"],"trial_type":"image-multi-choice","trial_index":234,"time_elapsed":10601667,"internal_node_id":"0.0-8.0-17.0"},{"rt":161652,"responses":"{\"Q0\":\"Song Sparrow\"}","answer":["Lincoln's Sparrow"],"trial_type":"image-multi-choice","trial_index":235,"time_elapsed":10764332,"internal_node_id":"0.0-8.0-18.0"},{"rt":8208,"responses":"{\"Q0\":\"Ovenbird\"}","answer":["Ovenbird"],"trial_type":"image-multi-choice","trial_index":236,"time_elapsed":10773555,"internal_node_id":"0.0-8.0-19.0"}]