[{"view_history":"[{\"page_index\":0,\"viewing_time\":382427}]","rt":382429,"trial_type":"instructions","trial_index":0,"time_elapsed":382430,"internal_node_id":"0.0-0.0"},{"sim_score":5,"rt":7837,"stimulus":"[\"img/866.jpg\",\"img/868.jpg\"]","trial_type":"similarity_demo","trial_index":1,"time_elapsed":391283,"internal_node_id":"0.0-1.0"},{"view_history":"[{\"page_index\":0,\"viewing_time\":8747}]","rt":8747,"trial_type":"instructions","trial_index":2,"time_elapsed":401032,"internal_node_id":"0.0-2.0"},{"sim_score":3,"rt":5785,"stimulus":"[\"img/766.jpg\",\"img/867.jpg\"]","trial_type":"similarity_demo","trial_index":3,"time_elapsed":407822,"internal_node_id":"0.0-3.0"},{"view_history":"[{\"page_index\":0,\"viewing_time\":6694}]","rt":6695,"trial_type":"instructions","trial_index":4,"time_elapsed":415519,"internal_node_id":"0.0-4.0"},{"view_history":"[{\"page_index\":0,\"viewing_time\":14900}]","rt":14901,"trial_type":"instructions","trial_index":5,"time_elapsed":431421,"internal_node_id":"0.0-5.0"},{"sim_score":2,"rt":4081,"stimulus":"[\"img/0868/4a8a45ed-2c4f-421b-9564-409a33ecd26c.jpg\",\"img/0901/4f9cffe0-c0be-4d7f-bacd-9d51efd19b4a.jpg\"]","trial_type":"similarity","trial_index":6,"time_elapsed":436511,"internal_node_id":"0.0-6.0-0.0"},{"sim_score":3,"rt":4175,"stimulus":"[\"img/0769/1ca58b80-2365-446d-9616-6c1719e6c46f.jpg\",\"img/0867/98d8cd96-1476-4fe0-a3a3-04f875500a1b.jpg\"]","trial_type":"similarity","trial_index":7,"time_elapsed":441693,"internal_node_id":"0.0-6.0-1.0"},{"sim_score":6,"rt":5149,"stimulus":"[\"img/0766/0025de5e-f620-4079-8a0f-00326ff3a6b0.jpg\",\"img/0898/79233891-305a-4a6a-8ddf-5c8604858203.jpg\"]","trial_type":"similarity","trial_index":8,"time_elapsed":447853,"internal_node_id":"0.0-6.0-2.0"},{"sim_score":2,"rt":4598,"stimulus":"[\"img/0902/0db94c50-f1fb-4091-953c-29ca0466bee2.jpg\",\"img/0881/adc02f34-ce97-4aef-850f-00519df06fd7.jpg\"]","trial_type":"similarity","trial_index":9,"time_elapsed":453454,"internal_node_id":"0.0-6.0-3.0"},{"sim_score":6,"rt":4151,"stimulus":"[\"img/0894/38f5931f-926d-414e-b498-66b188978b7a.jpg\",\"img/0894/133a1636-d123-4893-873c-1718050f832a.jpg\"]","trial_type":"similarity","trial_index":10,"time_elapsed":458613,"internal_node_id":"0.0-6.0-4.0"},{"sim_score":2,"rt":4337,"stimulus":"[\"img/0874/3ce41e7c-40c8-4d58-a546-171114521796.jpg\",\"img/0899/4408c14d-c168-4a7d-96f6-bc87bfb58f83.jpg\"]","trial_type":"similarity","trial_index":11,"time_elapsed":463955,"internal_node_id":"0.0-6.0-5.0"},{"sim_score":6,"rt":3919,"stimulus":"[\"img/0904/5cceabc9-de1d-4c67-989b-c28a4ef77e79.jpg\",\"img/0764/958b8576-3a3b-4acc-96dc-06b74de69f37.jpg\"]","trial_type":"similarity","trial_index":12,"time_elapsed":468881,"internal_node_id":"0.0-6.0-6.0"},{"sim_score":5,"rt":4445,"stimulus":"[\"img/0899/66bf4113-ee12-426c-84d2-ea410b6c803e.jpg\",\"img/0898/81b08535-2020-4c15-9ce4-2f1e460755ae.jpg\"]","trial_type":"similarity","trial_index":13,"time_elapsed":474333,"internal_node_id":"0.0-6.0-7.0"},{"sim_score":2,"rt":3669,"stimulus":"[\"img/0874/2c9464dd-8a23-4baa-ac94-1ba3af5c15cc.jpg\",\"img/0903/9b60ef5b-234f-4239-892b-3d4c412accc2.jpg\"]","trial_type":"similarity","trial_index":14,"time_elapsed":479008,"internal_node_id":"0.0-6.0-8.0"},{"sim_score":6,"rt":3415,"stimulus":"[\"img/0881/33d65d80-8a8e-4ecf-852d-0ad7725c17a2.jpg\",\"img/0758/6e95579b-5166-487c-b8cb-e417c6a218e3.jpg\"]","trial_type":"similarity","trial_index":15,"time_elapsed":483429,"internal_node_id":"0.0-6.0-9.0"},{"sim_score":5,"rt":4653,"stimulus":"[\"img/0898/cd3aaa3f-efa9-4ab3-8d6f-a6a9273ddf42.jpg\",\"img/0901/1e23ffbd-19de-4c4f-aa23-c54aaa3319a3.jpg\"]","trial_type":"similarity","trial_index":16,"time_elapsed":489088,"internal_node_id":"0.0-6.0-10.0"},{"sim_score":6,"rt":4439,"stimulus":"[\"img/0903/0e5c2854-42aa-48c0-9c3d-6e1ad2a400bd.jpg\",\"img/0769/9ea9ceb6-049e-4ad9-be8f-00645cd35803.jpg\"]","trial_type":"similarity","trial_index":17,"time_elapsed":494533,"internal_node_id":"0.0-6.0-11.0"},{"sim_score":2,"rt":3709,"stimulus":"[\"img/0764/b8e23f4f-ff19-4472-ad9b-2f85548ebca0.jpg\",\"img/0868/83b4350a-3b70-4cea-b7f5-b5b56f3050a8.jpg\"]","trial_type":"similarity","trial_index":18,"time_elapsed":499249,"internal_node_id":"0.0-6.0-12.0"},{"sim_score":2,"rt":3823,"stimulus":"[\"img/0867/85a96c62-548f-4994-9553-819e03c3135a.jpg\",\"img/0903/0fb24af7-9a26-4e9d-aadc-959a36f683e2.jpg\"]","trial_type":"similarity","trial_index":19,"time_elapsed":504079,"internal_node_id":"0.0-6.0-13.0"},{"sim_score":2,"rt":3071,"stimulus":"[\"img/0766/09f646c8-a69e-4ed3-879c-8d29b04ad7f9.jpg\",\"img/0758/a709631e-3705-4725-ac40-f0d916924f08.jpg\"]","trial_type":"similarity","trial_index":20,"time_elapsed":508154,"internal_node_id":"0.0-6.0-14.0"},{"sim_score":6,"rt":3120,"stimulus":"[\"img/0902/794606a0-d8a8-4e58-8bf8-9d114ed5a548.jpg\",\"img/0860/31ff6436-98bf-4652-bed2-40f627229568.jpg\"]","trial_type":"similarity","trial_index":21,"time_elapsed":512278,"internal_node_id":"0.0-6.0-15.0"},{"sim_score":2,"rt":3012,"stimulus":"[\"img/0769/ecda2fb3-556b-43ba-8a67-e87dd75ff2b4.jpg\",\"img/0875/d59ff733-eaff-4ee2-9443-06954dd0bcb6.jpg\"]","trial_type":"similarity","trial_index":22,"time_elapsed":516295,"internal_node_id":"0.0-6.0-16.0"},{"sim_score":2,"rt":2711,"stimulus":"[\"img/0904/09934646-45d2-4147-8fec-64a22a5ac822.jpg\",\"img/0866/be24ab58-230e-4db8-9f45-ff04c9aec6bb.jpg\"]","trial_type":"similarity","trial_index":23,"time_elapsed":520020,"internal_node_id":"0.0-6.0-17.0"},{"sim_score":7,"rt":4435,"stimulus":"[\"img/0875/2c361b79-c3d1-4eda-812e-bf03192407bf.jpg\",\"img/0875/99698b4d-b4a1-44bc-8c83-8ea755bbbf61.jpg\"]","trial_type":"similarity","trial_index":24,"time_elapsed":525463,"internal_node_id":"0.0-6.0-18.0"},{"sim_score":7,"rt":3679,"stimulus":"[\"img/0758/7ee8bc8f-c40b-4b3a-84ec-3e83580622d4.jpg\",\"img/0758/2fa3e613-e676-4e6e-bd12-705327eeb3e1.jpg\"]","trial_type":"similarity","trial_index":25,"time_elapsed":530149,"internal_node_id":"0.0-6.0-19.0"},{"sim_score":2,"rt":5359,"stimulus":"[\"img/0902/07437a16-3d0f-4a5c-89ec-36d0efa4b3b8.jpg\",\"img/0874/93d1f8dc-acf2-4f03-bd8d-8ec35df276ed.jpg\"]","trial_type":"similarity","trial_index":26,"time_elapsed":536513,"internal_node_id":"0.0-6.0-20.0"},{"sim_score":5,"rt":5105,"stimulus":"[\"img/0764/e30dba15-e68a-4659-89db-e1654b52fe02.jpg\",\"img/0769/5bd04f55-d091-4f57-85db-38426f26bd1a.jpg\"]","trial_type":"similarity","trial_index":27,"time_elapsed":542623,"internal_node_id":"0.0-6.0-21.0"},{"sim_score":2,"rt":3895,"stimulus":"[\"img/0901/4d1bed7e-3c4e-4f6c-ada9-4beb66ba9e39.jpg\",\"img/0874/eba003b4-cdab-4eee-8bc3-f064c7d94165.jpg\"]","trial_type":"similarity","trial_index":28,"time_elapsed":547525,"internal_node_id":"0.0-6.0-22.0"},{"sim_score":3,"rt":3253,"stimulus":"[\"img/0875/fb732ab5-013a-4366-9f65-27811ed157e9.jpg\",\"img/0903/8635cf25-2648-4fe9-8c42-79d2598e999c.jpg\"]","trial_type":"similarity","trial_index":29,"time_elapsed":551784,"internal_node_id":"0.0-6.0-23.0"},{"sim_score":2,"rt":3920,"stimulus":"[\"img/0769/8056889f-2b14-4782-bb25-b4e8896ab65b.jpg\",\"img/0881/ee44e27f-d662-4608-b265-e7ffa19b216f.jpg\"]","trial_type":"similarity","trial_index":30,"time_elapsed":556711,"internal_node_id":"0.0-6.0-24.0"},{"sim_score":3,"rt":3166,"stimulus":"[\"img/0867/c66898ba-b71b-4d50-84f9-f7f84853a98d.jpg\",\"img/0904/696ebb60-8891-417a-91fd-c53218907a95.jpg\"]","trial_type":"similarity","trial_index":31,"time_elapsed":560883,"internal_node_id":"0.0-6.0-25.0"},{"sim_score":3,"rt":2917,"stimulus":"[\"img/0860/5383b320-1518-4095-a58e-5cc1ae30b64c.jpg\",\"img/0881/5fe04dd0-5c74-47b7-99c8-b068db9ca26a.jpg\"]","trial_type":"similarity","trial_index":32,"time_elapsed":564806,"internal_node_id":"0.0-6.0-26.0"},{"sim_score":6,"rt":3680,"stimulus":"[\"img/0866/11a1d141-be5e-443c-98c1-a9d4d9e3dec0.jpg\",\"img/0866/23a224f3-2012-4fc8-8e0f-3c36f8de27fd.jpg\"]","trial_type":"similarity","trial_index":33,"time_elapsed":569492,"internal_node_id":"0.0-6.0-27.0"},{"sim_score":2,"rt":3302,"stimulus":"[\"img/0764/e0788029-9d7f-414c-b747-46d2a99f7c86.jpg\",\"img/0862/4f0a3b4c-afbf-486e-b248-1d54982f54b4.jpg\"]","trial_type":"similarity","trial_index":34,"time_elapsed":573800,"internal_node_id":"0.0-6.0-28.0"},{"sim_score":2,"rt":3287,"stimulus":"[\"img/0904/56e73f28-7e64-489b-a161-e6b1a063878d.jpg\",\"img/0758/f61ecdf8-a7d4-4db0-b84d-be46f7cfaffc.jpg\"]","trial_type":"similarity","trial_index":35,"time_elapsed":578092,"internal_node_id":"0.0-6.0-29.0"},{"sim_score":5,"rt":3784,"stimulus":"[\"img/0894/e6385e52-6c35-43bd-b0af-bc803d107b11.jpg\",\"img/0899/d60714ae-98d7-4564-8c98-94dba1351135.jpg\"]","trial_type":"similarity","trial_index":36,"time_elapsed":582882,"internal_node_id":"0.0-6.0-30.0"},{"sim_score":2,"rt":3586,"stimulus":"[\"img/0860/17b44a7d-c5ca-479f-9e87-f65a64f5c80e.jpg\",\"img/0904/24fc38fe-842c-4831-ad8a-b1de5c25c0a8.jpg\"]","trial_type":"similarity","trial_index":37,"time_elapsed":587472,"internal_node_id":"0.0-6.0-31.0"},{"sim_score":5,"rt":3408,"stimulus":"[\"img/0874/ca76a855-4e77-4f2f-872a-0a718153e7ed.jpg\",\"img/0881/e046471a-35b4-4159-bbf7-3cfd201bef66.jpg\"]","trial_type":"similarity","trial_index":38,"time_elapsed":591885,"internal_node_id":"0.0-6.0-32.0"},{"sim_score":4,"rt":3222,"stimulus":"[\"img/0881/db77fe00-aeb0-4d1d-aa66-f3a96fd077e4.jpg\",\"img/0899/8abe6c69-822c-436c-9bf2-96c818b49ba5.jpg\"]","trial_type":"similarity","trial_index":39,"time_elapsed":596113,"internal_node_id":"0.0-6.0-33.0"},{"sim_score":3,"rt":2909,"stimulus":"[\"img/0866/4a87911a-d5be-4d4e-ab8e-3d1f581bf507.jpg\",\"img/0862/47ed5efd-4ec9-4b74-bb4e-a5f5cf0c3e7d.jpg\"]","trial_type":"similarity","trial_index":40,"time_elapsed":600028,"internal_node_id":"0.0-6.0-34.0"},{"sim_score":2,"rt":3835,"stimulus":"[\"img/0868/179a5502-ab5c-478e-8263-5a1fbcc101d2.jpg\",\"img/0894/8cadb87a-7001-4e47-99fb-1867bebf1668.jpg\"]","trial_type":"similarity","trial_index":41,"time_elapsed":604870,"internal_node_id":"0.0-6.0-35.0"},{"sim_score":7,"rt":3072,"stimulus":"[\"img/0860/b03b963d-949b-4d8d-b19c-4950c89eeca2.jpg\",\"img/0860/f44ba3fb-03a2-42f0-8509-2c1ded493086.jpg\"]","trial_type":"similarity","trial_index":42,"time_elapsed":608949,"internal_node_id":"0.0-6.0-36.0"},{"sim_score":4,"rt":5927,"stimulus":"[\"img/0862/7918ca67-5bd3-4606-a5ea-c39fb11a9297.jpg\",\"img/0864/6e846d43-94a6-4b37-a268-65eda979f052.jpg\"]","trial_type":"similarity","trial_index":43,"time_elapsed":615883,"internal_node_id":"0.0-6.0-37.0"},{"sim_score":1,"rt":4771,"stimulus":"[\"img/0766/535849cc-ff5d-4df9-8f31-0ce94a97d571.jpg\",\"img/0866/d266fece-59b3-46fa-b69f-96f6efb81b59.jpg\"]","trial_type":"similarity","trial_index":44,"time_elapsed":621658,"internal_node_id":"0.0-6.0-38.0"},{"sim_score":2,"rt":3973,"stimulus":"[\"img/0875/90da8d75-108a-44ad-b999-e21fee3860d3.jpg\",\"img/0898/a114b375-cb89-44ba-9498-74213f1ecdee.jpg\"]","trial_type":"similarity","trial_index":45,"time_elapsed":626636,"internal_node_id":"0.0-6.0-39.0"},{"sim_score":6,"rt":4667,"stimulus":"[\"img/0766/214866ee-423d-4629-9bb9-41572bdc7dac.jpg\",\"img/0769/f229321f-04dd-42d7-b14a-ffad6b509862.jpg\"]","trial_type":"similarity","trial_index":46,"time_elapsed":632309,"internal_node_id":"0.0-6.0-40.0"},{"sim_score":4,"rt":3015,"stimulus":"[\"img/0874/a82926a3-0b43-4add-803c-d5f9ea7798ee.jpg\",\"img/0764/5d83b9db-3b2b-4dc8-9bd1-2b515b19c858.jpg\"]","trial_type":"similarity","trial_index":47,"time_elapsed":646216,"internal_node_id":"0.0-6.0-41.0"},{"sim_score":4,"rt":2262,"stimulus":"[\"img/0868/8b0b8473-e2c0-4331-aa56-c3a5c29369da.jpg\",\"img/0902/6730b12a-f0a7-4587-8c10-a32fae16565b.jpg\"]","trial_type":"similarity","trial_index":48,"time_elapsed":649483,"internal_node_id":"0.0-6.0-42.0"},{"sim_score":3,"rt":4779,"stimulus":"[\"img/0875/8521fd58-3b1e-4dc5-97ae-804edfa6734a.jpg\",\"img/0899/56a605c3-d0a2-4215-89e1-779279d85a7c.jpg\"]","trial_type":"similarity","trial_index":49,"time_elapsed":655267,"internal_node_id":"0.0-6.0-43.0"},{"sim_score":3,"rt":3223,"stimulus":"[\"img/0866/bf14b5bd-fb55-47db-86b9-4f8aeb9a6dad.jpg\",\"img/0860/8277806e-b684-4474-8f7b-3fca946d7d4f.jpg\"]","trial_type":"similarity","trial_index":50,"time_elapsed":659496,"internal_node_id":"0.0-6.0-44.0"},{"sim_score":6,"rt":2551,"stimulus":"[\"img/0766/b84598d0-5b41-4841-88b0-b441b48289f5.jpg\",\"img/0903/8931c67c-a43d-47d3-a4c9-42aa2f81d344.jpg\"]","trial_type":"similarity","trial_index":51,"time_elapsed":663052,"internal_node_id":"0.0-6.0-45.0"},{"sim_score":3,"rt":4759,"stimulus":"[\"img/0901/12da1841-e611-435c-9719-109413d536a8.jpg\",\"img/0904/9d30eff1-46ef-4453-b11e-124ef8145c00.jpg\"]","trial_type":"similarity","trial_index":52,"time_elapsed":668817,"internal_node_id":"0.0-6.0-46.0"},{"sim_score":1,"rt":3398,"stimulus":"[\"img/0758/6cd8c362-ae2a-41eb-80a3-3a4f7ace1530.jpg\",\"img/0902/d1083f2c-5520-44ec-81a8-3f856fbf0e80.jpg\"]","trial_type":"similarity","trial_index":53,"time_elapsed":673222,"internal_node_id":"0.0-6.0-47.0"},{"sim_score":7,"rt":3672,"stimulus":"[\"img/0764/f713847b-4832-42d1-8fb3-e17e37fd745c.jpg\",\"img/0764/03c07b98-3f18-4b71-bb70-ecff564a78d1.jpg\"]","trial_type":"similarity","trial_index":54,"time_elapsed":677900,"internal_node_id":"0.0-6.0-48.0"},{"sim_score":2,"rt":2662,"stimulus":"[\"img/0866/07c9c966-3c8d-40e7-8128-92b2acbaed5d.jpg\",\"img/0902/44cd9b7e-fdfb-4f78-90de-8d4c9d279365.jpg\"]","trial_type":"similarity","trial_index":55,"time_elapsed":681567,"internal_node_id":"0.0-6.0-49.0"},{"sim_score":2,"rt":3689,"stimulus":"[\"img/0764/7f4ee8e3-9315-4a57-be7d-db8454b33766.jpg\",\"img/0758/821c68d3-5cb0-4eae-8659-30e6263fca39.jpg\"]","trial_type":"similarity","trial_index":56,"time_elapsed":686261,"internal_node_id":"0.0-6.0-50.0"},{"sim_score":1,"rt":6310,"stimulus":"[\"img/0898/b3290bf9-215b-4b45-b21a-65bdf73f142f.jpg\",\"img/0894/1b3888e6-cf36-4c4a-a039-187aa5cb71ac.jpg\"]","trial_type":"similarity","trial_index":57,"time_elapsed":693576,"internal_node_id":"0.0-6.0-51.0"},{"sim_score":6,"rt":4433,"stimulus":"[\"img/0875/e7e66b13-b573-431e-b85e-288ce04a35a3.jpg\",\"img/0866/02f5e6b9-52b7-448c-9708-5b460d0c9a23.jpg\"]","trial_type":"similarity","trial_index":58,"time_elapsed":699016,"internal_node_id":"0.0-6.0-52.0"},{"sim_score":3,"rt":3965,"stimulus":"[\"img/0904/65e2b70a-b184-4da3-b5c0-5038bdf9469a.jpg\",\"img/0904/5aec2708-cf14-4a58-aa30-9a8a61c1be0e.jpg\"]","trial_type":"similarity","trial_index":59,"time_elapsed":703986,"internal_node_id":"0.0-6.0-53.0"},{"sim_score":7,"rt":3463,"stimulus":"[\"img/0769/965c3c44-d9e5-47c5-b61a-2bbdf4215d9a.jpg\",\"img/0769/ebef2ddc-ba59-4e0e-97f8-927864eb5081.jpg\"]","trial_type":"similarity","trial_index":60,"time_elapsed":708455,"internal_node_id":"0.0-6.0-54.0"},{"sim_score":1,"rt":3670,"stimulus":"[\"img/0898/4184e5a2-84ea-4f36-9b42-ae58646f6f87.jpg\",\"img/0758/7fba58df-2a7a-4b76-8a8f-62739f97f271.jpg\"]","trial_type":"similarity","trial_index":61,"time_elapsed":713129,"internal_node_id":"0.0-6.0-55.0"},{"sim_score":2,"rt":4498,"stimulus":"[\"img/0769/0fe124d3-bcad-45f6-b64d-8f6eb8ee5251.jpg\",\"img/0902/2db723b6-130f-454c-8c8d-88829edbcd65.jpg\"]","trial_type":"similarity","trial_index":62,"time_elapsed":718632,"internal_node_id":"0.0-6.0-56.0"},{"sim_score":7,"rt":3852,"stimulus":"[\"img/0864/3651d070-2fc5-4848-b6a6-088a2d9ac5c9.jpg\",\"img/0881/b549bc99-a61c-4450-bab5-9efc3a197bf0.jpg\"]","trial_type":"similarity","trial_index":63,"time_elapsed":723491,"internal_node_id":"0.0-6.0-57.0"},{"sim_score":2,"rt":2673,"stimulus":"[\"img/0758/e38fd80d-18d0-42f3-b848-f930788e8bd7.jpg\",\"img/0868/3a62db2d-97e9-44a3-b8e3-a48c6f0e423b.jpg\"]","trial_type":"similarity","trial_index":64,"time_elapsed":727171,"internal_node_id":"0.0-6.0-58.0"},{"sim_score":1,"rt":3092,"stimulus":"[\"img/0862/f188d4f0-76a4-4102-818c-a209969d73a5.jpg\",\"img/0769/a3cfbdeb-acb3-4eac-87fb-4b117f42d4f8.jpg\"]","trial_type":"similarity","trial_index":65,"time_elapsed":731271,"internal_node_id":"0.0-6.0-59.0"},{"sim_score":2,"rt":3037,"stimulus":"[\"img/0764/f990b2e8-ecee-481e-be7c-0239fce350e2.jpg\",\"img/0903/6a87dbad-9b8d-4ff5-9c41-03c9aa24f0c3.jpg\"]","trial_type":"similarity","trial_index":66,"time_elapsed":735313,"internal_node_id":"0.0-6.0-60.0"},{"sim_score":7,"rt":3430,"stimulus":"[\"img/0899/06b0fc99-0581-461a-9913-d1a5a941ac61.jpg\",\"img/0899/ad8268c5-8199-48d0-ad70-c5b6d6c599ec.jpg\"]","trial_type":"similarity","trial_index":67,"time_elapsed":739751,"internal_node_id":"0.0-6.0-61.0"},{"sim_score":1,"rt":2805,"stimulus":"[\"img/0860/8a92e21b-6a32-4e4a-a445-2d5a487ed0a4.jpg\",\"img/0875/5a7c4e35-6514-4e12-8879-d16071da4cd6.jpg\"]","trial_type":"similarity","trial_index":68,"time_elapsed":743561,"internal_node_id":"0.0-6.0-62.0"},{"sim_score":1,"rt":3070,"stimulus":"[\"img/0868/fd307a36-9a3a-47d7-ab7c-f810d0b35040.jpg\",\"img/0874/31e22c7c-99aa-40b1-bf03-dd73fa2df4d6.jpg\"]","trial_type":"similarity","trial_index":69,"time_elapsed":747637,"internal_node_id":"0.0-6.0-63.0"},{"sim_score":1,"rt":3566,"stimulus":"[\"img/0758/e1ba5e53-addc-436a-b428-d34fc1b130dc.jpg\",\"img/0862/a0a3a7ba-7798-46a3-b4ca-05e1f6e581d0.jpg\"]","trial_type":"similarity","trial_index":70,"time_elapsed":752210,"internal_node_id":"0.0-6.0-64.0"},{"sim_score":7,"rt":4131,"stimulus":"[\"img/0904/b7c2a2c8-df33-4473-b3d4-ff7147c60db3.jpg\",\"img/0898/e167334e-cc1d-4986-b3b1-c7bc7da64baa.jpg\"]","trial_type":"similarity","trial_index":71,"time_elapsed":757347,"internal_node_id":"0.0-6.0-65.0"},{"sim_score":4,"rt":4467,"stimulus":"[\"img/0881/62a64f90-7a72-4aee-a1a1-0c548ac9bdda.jpg\",\"img/0866/a04d37f0-99dd-478a-b6c6-58b215138f84.jpg\"]","trial_type":"similarity","trial_index":72,"time_elapsed":762818,"internal_node_id":"0.0-6.0-66.0"},{"sim_score":2,"rt":4473,"stimulus":"[\"img/0867/a749dddb-69f0-44a6-acdc-2bf295cf6dcc.jpg\",\"img/0898/40f99fb2-64d2-4e72-8a7f-a1cf60741e69.jpg\"]","trial_type":"similarity","trial_index":73,"time_elapsed":768297,"internal_node_id":"0.0-6.0-67.0"},{"sim_score":3,"rt":4467,"stimulus":"[\"img/0902/eb3e7e71-8ff1-4b88-a6a7-47e2c1ce1683.jpg\",\"img/0764/c0b03adb-bd0a-4b96-a915-a827c2fd5211.jpg\"]","trial_type":"similarity","trial_index":74,"time_elapsed":773768,"internal_node_id":"0.0-6.0-68.0"},{"sim_score":5,"rt":5692,"stimulus":"[\"img/0875/a4935837-7d3c-4df6-88c1-36a94d4991ca.jpg\",\"img/0867/7d1c497b-c1b3-4ed8-abb5-d7f73306015f.jpg\"]","trial_type":"similarity","trial_index":75,"time_elapsed":780466,"internal_node_id":"0.0-6.0-69.0"},{"sim_score":6,"rt":4261,"stimulus":"[\"img/0766/e8052e17-9dae-4139-802b-6e590cb2d526.jpg\",\"img/0764/b328441c-f81c-486c-9eae-b947c70ba7cd.jpg\"]","trial_type":"similarity","trial_index":76,"time_elapsed":785732,"internal_node_id":"0.0-6.0-70.0"},{"sim_score":2,"rt":5424,"stimulus":"[\"img/0894/5f15154e-e72e-4ce5-aafb-bce6f0564006.jpg\",\"img/0867/5e07b34d-b40f-4b1c-ac10-49975bace45f.jpg\"]","trial_type":"similarity","trial_index":77,"time_elapsed":792160,"internal_node_id":"0.0-6.0-71.0"},{"sim_score":1,"rt":3112,"stimulus":"[\"img/0875/f87b67d7-c33e-40d1-b281-248c4be1cb6e.jpg\",\"img/0764/cffc80b0-4a90-4acb-a530-6f480f3ca303.jpg\"]","trial_type":"similarity","trial_index":78,"time_elapsed":796276,"internal_node_id":"0.0-6.0-72.0"},{"sim_score":6,"rt":4782,"stimulus":"[\"img/0867/ac1797e4-8afc-48fe-b252-86d1defb1cca.jpg\",\"img/0866/c446214b-a368-4c65-ae39-ea46894256ab.jpg\"]","trial_type":"similarity","trial_index":79,"time_elapsed":802063,"internal_node_id":"0.0-6.0-73.0"},{"sim_score":4,"rt":3552,"stimulus":"[\"img/0903/24477210-856c-4550-9de0-9f85a32762eb.jpg\",\"img/0758/eabcd7a8-56ad-4fd2-bc24-90f6b7b33265.jpg\"]","trial_type":"similarity","trial_index":80,"time_elapsed":806620,"internal_node_id":"0.0-6.0-74.0"},{"sim_score":3,"rt":3467,"stimulus":"[\"img/0766/006035d8-c736-4daf-bbe4-a9e373af9da6.jpg\",\"img/0868/c8ac40c7-6904-4e13-8d61-c75d3052dc4e.jpg\"]","trial_type":"similarity","trial_index":81,"time_elapsed":811093,"internal_node_id":"0.0-6.0-75.0"},{"sim_score":5,"rt":4469,"stimulus":"[\"img/0874/767f289c-9814-4496-803f-745cc8913d1f.jpg\",\"img/0766/0b48f9e0-7d37-4161-8adb-4e3f5b6b7583.jpg\"]","trial_type":"similarity","trial_index":82,"time_elapsed":816567,"internal_node_id":"0.0-6.0-76.0"},{"sim_score":3,"rt":4682,"stimulus":"[\"img/0881/d1982897-8d8d-4704-a940-1ee5d07a1f15.jpg\",\"img/0868/7b212364-ff5f-4e28-9241-7eb6ea00161b.jpg\"]","trial_type":"similarity","trial_index":83,"time_elapsed":822256,"internal_node_id":"0.0-6.0-77.0"},{"sim_score":5,"rt":6057,"stimulus":"[\"img/0758/53f35650-e455-4b53-8be4-c3c8271c6466.jpg\",\"img/0901/a6776381-91fe-43f8-ab73-261d318f95fd.jpg\"]","trial_type":"similarity","trial_index":84,"time_elapsed":829318,"internal_node_id":"0.0-6.0-78.0"},{"sim_score":3,"rt":3938,"stimulus":"[\"img/0881/667e2147-d457-4f32-aa5f-6ab86e5848f1.jpg\",\"img/0898/01bfe666-3510-4fc7-964f-d00d28732dc8.jpg\"]","trial_type":"similarity","trial_index":85,"time_elapsed":834265,"internal_node_id":"0.0-6.0-79.0"},{"sim_score":5,"rt":3362,"stimulus":"[\"img/0867/075e0f95-856b-4cbb-acf5-092393aaf04e.jpg\",\"img/0758/ddc336e9-a8b6-4bb9-937a-c7e25e0e9250.jpg\"]","trial_type":"similarity","trial_index":86,"time_elapsed":838633,"internal_node_id":"0.0-6.0-80.0"},{"sim_score":5,"rt":3352,"stimulus":"[\"img/0769/aad494cc-674d-4a08-9bfa-24a88ebe3c79.jpg\",\"img/0899/51a7a498-98c7-42d7-bca8-bc2d8f0b5831.jpg\"]","trial_type":"similarity","trial_index":87,"time_elapsed":842989,"internal_node_id":"0.0-6.0-81.0"},{"sim_score":6,"rt":2998,"stimulus":"[\"img/0903/c3cb4a01-2797-43ca-b216-88c67b323fbb.jpg\",\"img/0903/b7e3723f-fd03-4f3d-8820-f19496463a34.jpg\"]","trial_type":"similarity","trial_index":88,"time_elapsed":846994,"internal_node_id":"0.0-6.0-82.0"},{"sim_score":2,"rt":3943,"stimulus":"[\"img/0867/de92135f-5b65-4ed9-b245-188292c7c2f8.jpg\",\"img/0766/af3be95e-e52e-4fae-899b-0ff02ec340aa.jpg\"]","trial_type":"similarity","trial_index":89,"time_elapsed":854961,"internal_node_id":"0.0-6.0-83.0"},{"sim_score":1,"rt":4498,"stimulus":"[\"img/0902/82d20e8c-2162-47a6-925b-52906558c046.jpg\",\"img/0867/2e1a0b58-cdb1-4107-a14e-452530d7b9b0.jpg\"]","trial_type":"similarity","trial_index":90,"time_elapsed":860464,"internal_node_id":"0.0-6.0-84.0"},{"sim_score":1,"rt":3130,"stimulus":"[\"img/0901/2a953e50-d237-405c-a38d-5ed21494c968.jpg\",\"img/0875/527ced51-8e53-4aab-ab05-86df219104c0.jpg\"]","trial_type":"similarity","trial_index":91,"time_elapsed":864600,"internal_node_id":"0.0-6.0-85.0"},{"sim_score":1,"rt":2971,"stimulus":"[\"img/0764/8740679b-b56f-4292-aece-14063457113a.jpg\",\"img/0866/d493a2c8-66eb-44b4-be02-2f327b700b7c.jpg\"]","trial_type":"similarity","trial_index":92,"time_elapsed":868578,"internal_node_id":"0.0-6.0-86.0"},{"sim_score":4,"rt":2902,"stimulus":"[\"img/0901/b13fa50f-dbe0-4d0f-8647-6ac0fd8f40bd.jpg\",\"img/0894/492d2f29-d7b9-4422-8be8-47fd58bfaa8b.jpg\"]","trial_type":"similarity","trial_index":93,"time_elapsed":872488,"internal_node_id":"0.0-6.0-87.0"},{"sim_score":3,"rt":3496,"stimulus":"[\"img/0898/f3a3f225-1248-4ac7-b93b-f0ff28485bf3.jpg\",\"img/0769/4a1d0b52-3fe8-40fb-bb1c-c814fe49a68c.jpg\"]","trial_type":"similarity","trial_index":94,"time_elapsed":876991,"internal_node_id":"0.0-6.0-88.0"},{"sim_score":7,"rt":3000,"stimulus":"[\"img/0769/db94b61b-a5a7-4861-9d32-7b02ad194fb0.jpg\",\"img/0894/3664e04c-c6d3-4c9b-afb6-25d89974b174.jpg\"]","trial_type":"similarity","trial_index":95,"time_elapsed":880996,"internal_node_id":"0.0-6.0-89.0"},{"sim_score":6,"rt":5023,"stimulus":"[\"img/0862/eefa5588-9efd-4591-aa5f-a2e17c7d7bcc.jpg\",\"img/0874/bf14b896-e930-4fd9-9c05-2e83317a2773.jpg\"]","trial_type":"similarity","trial_index":96,"time_elapsed":887022,"internal_node_id":"0.0-6.0-90.0"},{"sim_score":7,"rt":4776,"stimulus":"[\"img/0894/4739e06d-c31e-4bf1-bf91-c97fa9afb456.jpg\",\"img/0766/6d32752d-aa05-40dc-9541-640b6e9d6fa1.jpg\"]","trial_type":"similarity","trial_index":97,"time_elapsed":892802,"internal_node_id":"0.0-6.0-91.0"},{"sim_score":5,"rt":3424,"stimulus":"[\"img/0874/995f0332-0439-4eb4-add3-957335dbf6d9.jpg\",\"img/0867/1719a35d-f085-48c0-9099-16c94fe418b4.jpg\"]","trial_type":"similarity","trial_index":98,"time_elapsed":897231,"internal_node_id":"0.0-6.0-92.0"},{"sim_score":1,"rt":4277,"stimulus":"[\"img/0899/5b56dd3e-3f49-47cc-af84-16da6457753b.jpg\",\"img/0868/0d3abd3a-b6c3-4584-a9f7-e2da63748b3d.jpg\"]","trial_type":"similarity","trial_index":99,"time_elapsed":902515,"internal_node_id":"0.0-6.0-93.0"},{"sim_score":5,"rt":3193,"stimulus":"[\"img/0903/8fcafe03-43df-4c45-9da5-0df3a1eeccc5.jpg\",\"img/0862/e0f1a4e9-e1b6-45f7-af67-89f334e6630d.jpg\"]","trial_type":"similarity","trial_index":100,"time_elapsed":906712,"internal_node_id":"0.0-6.0-94.0"},{"sim_score":6,"rt":3969,"stimulus":"[\"img/0899/57476fed-5962-4272-8fc9-b317bb777b54.jpg\",\"img/0766/d919cedb-f9b7-4f30-83bb-3e9c65001ceb.jpg\"]","trial_type":"similarity","trial_index":101,"time_elapsed":911685,"internal_node_id":"0.0-6.0-95.0"},{"sim_score":7,"rt":4378,"stimulus":"[\"img/0867/bf560d4f-dee3-4f11-a385-705cc1aa5f3c.jpg\",\"img/0868/15dd6fd7-791e-4b53-b203-195d617521a4.jpg\"]","trial_type":"similarity","trial_index":102,"time_elapsed":917069,"internal_node_id":"0.0-6.0-96.0"},{"sim_score":6,"rt":3629,"stimulus":"[\"img/0862/5d887e9f-89e2-4ebc-80a0-6d46fe6480db.jpg\",\"img/0901/1b86f2fc-7a1d-4aa8-9252-114f92edef3b.jpg\"]","trial_type":"similarity","trial_index":103,"time_elapsed":921702,"internal_node_id":"0.0-6.0-97.0"},{"sim_score":2,"rt":4069,"stimulus":"[\"img/0875/cff79b3a-a797-4393-9757-6275f999ec04.jpg\",\"img/0766/0bf3793e-c353-45e5-ac6f-753f5f484e10.jpg\"]","trial_type":"similarity","trial_index":104,"time_elapsed":926777,"internal_node_id":"0.0-6.0-98.0"},{"sim_score":6,"rt":4444,"stimulus":"[\"img/0758/65d426d6-3ff6-415d-8654-a43b83ecc4fe.jpg\",\"img/0874/c0378dac-9370-439a-8b79-db27c96fb390.jpg\"]","trial_type":"similarity","trial_index":105,"time_elapsed":932227,"internal_node_id":"0.0-6.0-99.0"},{"sim_score":2,"rt":2485,"stimulus":"[\"img/0904/0d25eb24-bb20-4e8d-9787-8b489558b4cb.jpg\",\"img/0868/77091fc7-a590-4ebb-b915-fdb2483a2399.jpg\"]","trial_type":"similarity","trial_index":106,"time_elapsed":935717,"internal_node_id":"0.0-6.0-100.0"},{"sim_score":1,"rt":2748,"stimulus":"[\"img/0903/150cf64c-0bd2-4674-abbb-a1387cf1f3e9.jpg\",\"img/0866/6f2a90d7-14f1-4f1b-bd64-fc0af6b9fe44.jpg\"]","trial_type":"similarity","trial_index":107,"time_elapsed":939472,"internal_node_id":"0.0-6.0-101.0"},{"sim_score":5,"rt":5063,"stimulus":"[\"img/0868/09a9ef4d-d000-4cfa-a6aa-ebec7c2edeb4.jpg\",\"img/0769/1d8734c4-77ab-4165-9e71-5cfe672ff01c.jpg\"]","trial_type":"similarity","trial_index":108,"time_elapsed":945541,"internal_node_id":"0.0-6.0-102.0"},{"sim_score":7,"rt":3894,"stimulus":"[\"img/0902/01b41522-de46-4c3a-b0af-a61b2682b40e.jpg\",\"img/0899/fd9efb43-701f-4cd6-baaa-4c38315f4bdc.jpg\"]","trial_type":"similarity","trial_index":109,"time_elapsed":950441,"internal_node_id":"0.0-6.0-103.0"},{"sim_score":2,"rt":3471,"stimulus":"[\"img/0868/4e626425-63c8-484a-8a1d-e66ee4e0bef8.jpg\",\"img/0862/847e5208-38ec-4f36-949c-296cdd7424ee.jpg\"]","trial_type":"similarity","trial_index":110,"time_elapsed":954917,"internal_node_id":"0.0-6.0-104.0"},{"sim_score":5,"rt":6006,"stimulus":"[\"img/0903/47e39de8-6959-469f-8be9-6999a6db207c.jpg\",\"img/0894/86201968-6e78-4d68-9b3a-d1692e066210.jpg\"]","trial_type":"similarity","trial_index":111,"time_elapsed":961927,"internal_node_id":"0.0-6.0-105.0"},{"sim_score":7,"rt":3049,"stimulus":"[\"img/0864/c3b63e8f-ea39-4d70-a1f2-b3fe4be8eb75.jpg\",\"img/0874/7e4f2150-3b59-4a36-b5da-a4e0ba410531.jpg\"]","trial_type":"similarity","trial_index":112,"time_elapsed":965980,"internal_node_id":"0.0-6.0-106.0"},{"sim_score":5,"rt":4269,"stimulus":"[\"img/0862/99a99e39-8355-44ec-b993-e7bcec111e1c.jpg\",\"img/0902/a6fb6dd5-696c-47ec-be7d-d7b88f1544f1.jpg\"]","trial_type":"similarity","trial_index":113,"time_elapsed":971262,"internal_node_id":"0.0-6.0-107.0"},{"sim_score":6,"rt":2859,"stimulus":"[\"img/0904/4d7d70a3-9477-4921-bda0-f9531d0a5c5b.jpg\",\"img/0903/31b5a5f4-b695-4af1-bad2-a19650a05498.jpg\"]","trial_type":"similarity","trial_index":114,"time_elapsed":975129,"internal_node_id":"0.0-6.0-108.0"},{"sim_score":3,"rt":4220,"stimulus":"[\"img/0764/4eff630a-6426-4f8d-b2ba-b4d9842a0962.jpg\",\"img/0864/1ebbc554-99fa-49f9-8799-317375a79820.jpg\"]","trial_type":"similarity","trial_index":115,"time_elapsed":980357,"internal_node_id":"0.0-6.0-109.0"},{"sim_score":2,"rt":2851,"stimulus":"[\"img/0866/9b38d691-1802-4959-ab3f-fc902f0e4ea6.jpg\",\"img/0894/10f22b96-040c-44f4-950b-a4963f3f506c.jpg\"]","trial_type":"similarity","trial_index":116,"time_elapsed":984214,"internal_node_id":"0.0-6.0-110.0"},{"sim_score":5,"rt":4735,"stimulus":"[\"img/0899/d8f2dd94-570e-4e8c-a087-d96090fb9e8c.jpg\",\"img/0903/680ed18e-b311-4ecf-9b00-7dea32128334.jpg\"]","trial_type":"similarity","trial_index":117,"time_elapsed":989953,"internal_node_id":"0.0-6.0-111.0"},{"sim_score":6,"rt":3325,"stimulus":"[\"img/0902/d2c34af0-8c50-437d-8cc3-619195a3e8ba.jpg\",\"img/0904/6291eb43-c10c-4810-a36a-101d09868b04.jpg\"]","trial_type":"similarity","trial_index":118,"time_elapsed":994282,"internal_node_id":"0.0-6.0-112.0"},{"sim_score":3,"rt":4024,"stimulus":"[\"img/0864/4bd81bc6-c13d-46df-95a9-485886dc7c1b.jpg\",\"img/0860/524b2e98-5767-4d53-942c-ebae6925659b.jpg\"]","trial_type":"similarity","trial_index":119,"time_elapsed":999313,"internal_node_id":"0.0-6.0-113.0"},{"sim_score":4,"rt":3010,"stimulus":"[\"img/0860/4c530c3c-6aab-492a-94d1-9c01797bde40.jpg\",\"img/0899/1b3457ea-87d4-4946-a01c-aac1863ed46c.jpg\"]","trial_type":"similarity","trial_index":120,"time_elapsed":1003327,"internal_node_id":"0.0-6.0-114.0"},{"sim_score":2,"rt":3258,"stimulus":"[\"img/0881/7e822106-76f7-4b10-a805-14dc68b2cfaf.jpg\",\"img/0903/005ad0de-4f52-433c-b515-dbe8d46184a3.jpg\"]","trial_type":"similarity","trial_index":121,"time_elapsed":1007590,"internal_node_id":"0.0-6.0-115.0"},{"sim_score":1,"rt":5066,"stimulus":"[\"img/0894/2217bdcd-23a7-42d3-823b-23f2488d7e87.jpg\",\"img/0874/8cdb1c07-1c32-46d2-981c-3636560fa6e5.jpg\"]","trial_type":"similarity","trial_index":122,"time_elapsed":1013661,"internal_node_id":"0.0-6.0-116.0"},{"sim_score":4,"rt":2822,"stimulus":"[\"img/0881/405484ae-0d00-4b05-bc57-6420a36adfac.jpg\",\"img/0862/e8cc3bdf-cc43-4565-bccf-492626c70953.jpg\"]","trial_type":"similarity","trial_index":123,"time_elapsed":1017490,"internal_node_id":"0.0-6.0-117.0"},{"sim_score":5,"rt":3310,"stimulus":"[\"img/0868/1a62b2b2-18f5-466e-b564-5176a57c565e.jpg\",\"img/0875/ebf7653f-ff45-4e9f-af58-2c042ab3cd2b.jpg\"]","trial_type":"similarity","trial_index":124,"time_elapsed":1021805,"internal_node_id":"0.0-6.0-118.0"},{"sim_score":2,"rt":2519,"stimulus":"[\"img/0860/e8b8c51e-1834-4875-8b61-6c5bc9b178bd.jpg\",\"img/0758/b76ceca7-95ac-46e4-ac13-da02c8e93be9.jpg\"]","trial_type":"similarity","trial_index":125,"time_elapsed":1025328,"internal_node_id":"0.0-6.0-119.0"},{"sim_score":5,"rt":3553,"stimulus":"[\"img/0864/6f631579-acf1-415c-a42c-1207f62a8d99.jpg\",\"img/0875/3ecb367d-e9eb-4826-8aaa-7aa72fb98019.jpg\"]","trial_type":"similarity","trial_index":126,"time_elapsed":1029885,"internal_node_id":"0.0-6.0-120.0"},{"sim_score":5,"rt":2951,"stimulus":"[\"img/0898/8605a25b-6895-476d-8c13-df7a83f96093.jpg\",\"img/0866/0207e9a2-7dbb-40b5-9459-b472aaeceb2a.jpg\"]","trial_type":"similarity","trial_index":127,"time_elapsed":1033841,"internal_node_id":"0.0-6.0-121.0"},{"sim_score":4,"rt":3759,"stimulus":"[\"img/0874/3f471690-9788-4d03-90c7-f615aecef149.jpg\",\"img/0904/a8c3c7d2-9bcf-4347-9e03-8203adfc1fc5.jpg\"]","trial_type":"similarity","trial_index":128,"time_elapsed":1038607,"internal_node_id":"0.0-6.0-122.0"},{"sim_score":2,"rt":3158,"stimulus":"[\"img/0904/9b3568cc-3cf7-42be-9df3-fdafde7a58b8.jpg\",\"img/0864/49150900-7f25-4ce8-8d10-9b47a71d1997.jpg\"]","trial_type":"similarity","trial_index":129,"time_elapsed":1042771,"internal_node_id":"0.0-6.0-123.0"},{"sim_score":6,"rt":4307,"stimulus":"[\"img/0894/661b9f9f-4bde-487a-b1ed-87085fde6948.jpg\",\"img/0902/94198618-7047-4dc9-ad04-85f4ba913067.jpg\"]","trial_type":"similarity","trial_index":130,"time_elapsed":1048084,"internal_node_id":"0.0-6.0-124.0"},{"sim_score":3,"rt":2966,"stimulus":"[\"img/0868/293079b8-7e0c-4afd-a390-1e5d35fe3ded.jpg\",\"img/0864/3d4de670-b290-4285-9c3d-12a0e3af44e9.jpg\"]","trial_type":"similarity","trial_index":131,"time_elapsed":1243638,"internal_node_id":"0.0-6.0-125.0"},{"sim_score":1,"rt":2889,"stimulus":"[\"img/0899/fef567a2-c121-4481-9af0-ff108d199bbf.jpg\",\"img/0866/f756f7d1-9ad8-4a34-9ef6-7a443d705bfe.jpg\"]","trial_type":"similarity","trial_index":132,"time_elapsed":1247535,"internal_node_id":"0.0-6.0-126.0"},{"sim_score":3,"rt":3575,"stimulus":"[\"img/0875/42910c99-5463-450a-a0f8-d4d060a11455.jpg\",\"img/0904/0d17b811-063e-416e-a23c-3b3cfa4fcce5.jpg\"]","trial_type":"similarity","trial_index":133,"time_elapsed":1252115,"internal_node_id":"0.0-6.0-127.0"},{"sim_score":2,"rt":2949,"stimulus":"[\"img/0867/6e19c858-b606-45b2-a4c6-910a73f1d82c.jpg\",\"img/0899/9de5e857-aa9a-4e0c-8ba2-46d79bd069a4.jpg\"]","trial_type":"similarity","trial_index":134,"time_elapsed":1256070,"internal_node_id":"0.0-6.0-128.0"},{"sim_score":1,"rt":6308,"stimulus":"[\"img/0901/a0d65c84-3f20-476a-92d1-0c01e8019cf4.jpg\",\"img/0867/f8159067-056c-41f1-a136-c529fe5e970a.jpg\"]","trial_type":"similarity","trial_index":135,"time_elapsed":1263387,"internal_node_id":"0.0-6.0-129.0"},{"sim_score":5,"rt":3634,"stimulus":"[\"img/0864/b3c4e378-28f0-4699-9338-2a257b4bca04.jpg\",\"img/0769/7c50e5f5-cc38-4d48-b009-fbe17bcea61c.jpg\"]","trial_type":"similarity","trial_index":136,"time_elapsed":1268027,"internal_node_id":"0.0-6.0-130.0"},{"sim_score":2,"rt":2397,"stimulus":"[\"img/0903/8f7f9939-b8e6-433f-93dd-b362496c80a7.jpg\",\"img/0868/4bd5105a-d2c3-4f82-8c80-57196106ba53.jpg\"]","trial_type":"similarity","trial_index":137,"time_elapsed":1271430,"internal_node_id":"0.0-6.0-131.0"},{"sim_score":4,"rt":3030,"stimulus":"[\"img/0864/ea327690-500b-4137-bf91-451b309fe6a5.jpg\",\"img/0867/a498eef3-9fa4-4ab2-9778-4ae82ac40dc5.jpg\"]","trial_type":"similarity","trial_index":138,"time_elapsed":1275465,"internal_node_id":"0.0-6.0-132.0"},{"sim_score":3,"rt":3272,"stimulus":"[\"img/0901/08d6d1d1-c043-43c4-bb08-d45e062822b9.jpg\",\"img/0860/c7047cd2-7cc1-41b6-8a34-c0986774975f.jpg\"]","trial_type":"similarity","trial_index":139,"time_elapsed":1279742,"internal_node_id":"0.0-6.0-133.0"},{"sim_score":3,"rt":4797,"stimulus":"[\"img/0881/633c6f40-56d9-4b48-bf1c-ecd83116eabb.jpg\",\"img/0766/d8221e53-2300-4d99-ae1b-0bfb0eabe579.jpg\"]","trial_type":"similarity","trial_index":140,"time_elapsed":1285544,"internal_node_id":"0.0-6.0-134.0"},{"sim_score":3,"rt":5628,"stimulus":"[\"img/0903/d987e220-f3e6-4b6d-a270-fe6757041f6d.jpg\",\"img/0864/e336a4c5-6648-4fd7-b2f6-93a3fb83f8c6.jpg\"]","trial_type":"similarity","trial_index":141,"time_elapsed":1292177,"internal_node_id":"0.0-6.0-135.0"},{"sim_score":2,"rt":2686,"stimulus":"[\"img/0758/61d64021-9214-4951-bdf8-f871f9827cf9.jpg\",\"img/0894/7dd6ff43-f8fc-408a-8a41-a2b261871820.jpg\"]","trial_type":"similarity","trial_index":142,"time_elapsed":1295868,"internal_node_id":"0.0-6.0-136.0"},{"sim_score":3,"rt":3087,"stimulus":"[\"img/0769/3c1203c5-2ce7-466e-957a-8d77b5905460.jpg\",\"img/0860/d9a0d117-6d1d-41c0-8fec-9aff0fd9e9f2.jpg\"]","trial_type":"similarity","trial_index":143,"time_elapsed":1299960,"internal_node_id":"0.0-6.0-137.0"},{"sim_score":4,"rt":3800,"stimulus":"[\"img/0904/b5855d6a-7ef9-46ca-9215-6e9fa046e543.jpg\",\"img/0766/a754e4b6-5019-4cf4-8f58-34c20547a1f5.jpg\"]","trial_type":"similarity","trial_index":144,"time_elapsed":1304766,"internal_node_id":"0.0-6.0-138.0"},{"sim_score":3,"rt":3251,"stimulus":"[\"img/0868/d98ca254-b195-477f-b57e-5760a2717db8.jpg\",\"img/0860/4f695df5-afac-4da7-9875-fee39b0b24ad.jpg\"]","trial_type":"similarity","trial_index":145,"time_elapsed":1309022,"internal_node_id":"0.0-6.0-139.0"},{"sim_score":5,"rt":3207,"stimulus":"[\"img/0758/d57c2592-a317-4f63-91be-91a3a9afd222.jpg\",\"img/0864/0116ca98-293d-4fa6-a93b-5a6144ef64cc.jpg\"]","trial_type":"similarity","trial_index":146,"time_elapsed":1313235,"internal_node_id":"0.0-6.0-140.0"},{"sim_score":6,"rt":2813,"stimulus":"[\"img/0867/179ab87a-8eac-4c52-a41f-2e48e3120f09.jpg\",\"img/0867/8ba0c5a7-c7e4-42cf-a80a-543763b90779.jpg\"]","trial_type":"similarity","trial_index":147,"time_elapsed":1317055,"internal_node_id":"0.0-6.0-141.0"},{"sim_score":7,"rt":3568,"stimulus":"[\"img/0898/ec565187-2e31-4fdd-9a5c-153d0c789ae0.jpg\",\"img/0898/5f699581-3853-4547-856c-12f419ba5af7.jpg\"]","trial_type":"similarity","trial_index":148,"time_elapsed":1321628,"internal_node_id":"0.0-6.0-142.0"},{"sim_score":5,"rt":4462,"stimulus":"[\"img/0866/945c6710-d15b-4a5b-a8f6-69af0850357f.jpg\",\"img/0769/04347740-f8f6-48bb-887a-f68babd0a0d4.jpg\"]","trial_type":"similarity","trial_index":149,"time_elapsed":1327096,"internal_node_id":"0.0-6.0-143.0"},{"sim_score":6,"rt":3455,"stimulus":"[\"img/0860/e14d67c1-6d92-4f1e-9257-c8607159c19c.jpg\",\"img/0898/08c72dac-f8ad-407a-9ce6-8c9a5d679c3a.jpg\"]","trial_type":"similarity","trial_index":150,"time_elapsed":1331556,"internal_node_id":"0.0-6.0-144.0"},{"sim_score":6,"rt":5556,"stimulus":"[\"img/0766/110832e5-2646-4bd0-a94e-5df8cc314269.jpg\",\"img/0864/1d15626a-2f7c-410f-819c-0fa2c967e95e.jpg\"]","trial_type":"similarity","trial_index":151,"time_elapsed":1338117,"internal_node_id":"0.0-6.0-145.0"},{"sim_score":6,"rt":3279,"stimulus":"[\"img/0860/61fb959d-d4d9-4de4-9e4e-4fa62b4cfcd5.jpg\",\"img/0903/8c358e9e-a4f4-466e-8b93-7aec0d2358e8.jpg\"]","trial_type":"similarity","trial_index":152,"time_elapsed":1342403,"internal_node_id":"0.0-6.0-146.0"},{"sim_score":1,"rt":5755,"stimulus":"[\"img/0867/aa05d113-fc19-4756-a8eb-7878f580bc92.jpg\",\"img/0764/17b088f8-3053-4140-b544-d15654cc79ef.jpg\"]","trial_type":"similarity","trial_index":153,"time_elapsed":1349163,"internal_node_id":"0.0-6.0-147.0"},{"sim_score":5,"rt":3216,"stimulus":"[\"img/0769/a1ce8d07-ba37-40de-bade-2778805521e0.jpg\",\"img/0904/2f88ce53-02d0-4f95-a082-182c56a0eeb4.jpg\"]","trial_type":"similarity","trial_index":154,"time_elapsed":1353385,"internal_node_id":"0.0-6.0-148.0"},{"sim_score":4,"rt":4834,"stimulus":"[\"img/0764/978aede9-4590-4ad0-b234-135c83e5d669.jpg\",\"img/0901/c6c877e0-dd63-4e00-9657-33af29d55aab.jpg\"]","trial_type":"similarity","trial_index":155,"time_elapsed":1359225,"internal_node_id":"0.0-6.0-149.0"},{"sim_score":5,"rt":5648,"stimulus":"[\"img/0904/9dd5708f-3f8b-46a9-b49f-2f2fab87b357.jpg\",\"img/0899/a048912c-b12c-40e3-90af-46b69b0cc4fe.jpg\"]","trial_type":"similarity","trial_index":156,"time_elapsed":1365877,"internal_node_id":"0.0-6.0-150.0"},{"sim_score":2,"rt":2447,"stimulus":"[\"img/0862/53a9cf7c-93c4-41b9-952f-07d17f7a17b2.jpg\",\"img/0867/db7e032f-162b-46f5-ae67-2b29679adee4.jpg\"]","trial_type":"similarity","trial_index":157,"time_elapsed":1369329,"internal_node_id":"0.0-6.0-151.0"},{"sim_score":7,"rt":4042,"stimulus":"[\"img/0766/aaec5f42-7f0a-4a16-aeca-488d757acbcc.jpg\",\"img/0766/ef3b15ce-abb7-4292-ad93-aec8e8b50520.jpg\"]","trial_type":"similarity","trial_index":158,"time_elapsed":1374375,"internal_node_id":"0.0-6.0-152.0"},{"sim_score":2,"rt":6730,"stimulus":"[\"img/0862/ba89835a-408c-480b-8594-ed4ffa97eb5c.jpg\",\"img/0894/bd34223a-2f66-4e16-9d18-193a746b69ff.jpg\"]","trial_type":"similarity","trial_index":159,"time_elapsed":1382112,"internal_node_id":"0.0-6.0-153.0"},{"sim_score":3,"rt":3818,"stimulus":"[\"img/0899/66ab3178-c3fe-4455-ad17-d5952b08e018.jpg\",\"img/0901/58ec7fa9-b466-4651-90aa-c082df0972de.jpg\"]","trial_type":"similarity","trial_index":160,"time_elapsed":1386933,"internal_node_id":"0.0-6.0-154.0"},{"sim_score":5,"rt":4408,"stimulus":"[\"img/0874/a3bc679d-619f-4db6-bb68-116dcb757d9c.jpg\",\"img/0874/1016b306-087c-4afc-aa08-fa527b28dc76.jpg\"]","trial_type":"similarity","trial_index":161,"time_elapsed":1392346,"internal_node_id":"0.0-6.0-155.0"},{"sim_score":2,"rt":3777,"stimulus":"[\"img/0860/702bd09d-df3a-40aa-a267-5f04474305b5.jpg\",\"img/0867/12264664-1860-46df-8c21-162b9817cdda.jpg\"]","trial_type":"similarity","trial_index":162,"time_elapsed":1397127,"internal_node_id":"0.0-6.0-156.0"},{"sim_score":1,"rt":2920,"stimulus":"[\"img/0901/5657dd86-0ff9-4753-ba2b-9dfb223e5c89.jpg\",\"img/0881/d373cb9f-a719-4549-a2a4-82def79fb2a5.jpg\"]","trial_type":"similarity","trial_index":163,"time_elapsed":1401053,"internal_node_id":"0.0-6.0-157.0"},{"sim_score":6,"rt":4703,"stimulus":"[\"img/0903/70d764d9-1f35-4da7-a35d-4cc39834d270.jpg\",\"img/0902/cf9dee9c-2bdf-4d64-9302-97f1660fe52c.jpg\"]","trial_type":"similarity","trial_index":164,"time_elapsed":1406760,"internal_node_id":"0.0-6.0-158.0"},{"sim_score":3,"rt":3471,"stimulus":"[\"img/0860/99c589b9-9140-4d17-90c0-b344323edcda.jpg\",\"img/0764/f64dfa83-333d-494c-87b5-73e942f1766e.jpg\"]","trial_type":"similarity","trial_index":165,"time_elapsed":1411236,"internal_node_id":"0.0-6.0-159.0"},{"sim_score":2,"rt":3399,"stimulus":"[\"img/0902/b03fee99-d5ca-4bf8-871c-a4a743a39842.jpg\",\"img/0875/2e13d160-eea1-416b-aff1-d37ab99ecc1d.jpg\"]","trial_type":"similarity","trial_index":166,"time_elapsed":1415642,"internal_node_id":"0.0-6.0-160.0"},{"sim_score":3,"rt":2741,"stimulus":"[\"img/0898/0c7dde4f-efce-4b7a-9387-6921635b7890.jpg\",\"img/0862/92fcd8a4-8193-4a6a-ae09-dd4a6338b0df.jpg\"]","trial_type":"similarity","trial_index":167,"time_elapsed":1419388,"internal_node_id":"0.0-6.0-161.0"},{"sim_score":2,"rt":3025,"stimulus":"[\"img/0894/e2446cf5-cd48-486a-badc-76498e087fbe.jpg\",\"img/0875/dbdd643e-6d0e-4a5c-ab57-b9c29b9c981a.jpg\"]","trial_type":"similarity","trial_index":168,"time_elapsed":1423423,"internal_node_id":"0.0-6.0-162.0"},{"sim_score":2,"rt":8854,"stimulus":"[\"img/0866/620cd1aa-0800-4414-8f6e-90342e7a99ad.jpg\",\"img/0864/c22faebd-9c53-47bc-ada3-b9a30c688e75.jpg\"]","trial_type":"similarity","trial_index":169,"time_elapsed":1433283,"internal_node_id":"0.0-6.0-163.0"},{"sim_score":3,"rt":3590,"stimulus":"[\"img/0766/717fd72f-a281-499b-a5ba-5e2ecc4d4866.jpg\",\"img/0862/1c20f772-3a51-4a80-aac0-f57dc9f86c28.jpg\"]","trial_type":"similarity","trial_index":170,"time_elapsed":1437879,"internal_node_id":"0.0-6.0-164.0"},{"sim_score":1,"rt":3225,"stimulus":"[\"img/0866/a15b02be-11bb-43e3-b0e0-ecc3bd7dfc49.jpg\",\"img/0874/85eb9b8a-c4c6-4e5a-b8e7-363a87a82054.jpg\"]","trial_type":"similarity","trial_index":171,"time_elapsed":1442109,"internal_node_id":"0.0-6.0-165.0"},{"sim_score":6,"rt":3474,"stimulus":"[\"img/0862/d0ca4c78-fc35-46ed-bdcc-8e124283c53e.jpg\",\"img/0860/18dfed73-e36b-4487-a8bd-0b8cff8e3668.jpg\"]","trial_type":"similarity","trial_index":172,"time_elapsed":1446587,"internal_node_id":"0.0-6.0-166.0"},{"sim_score":3,"rt":2590,"stimulus":"[\"img/0766/f5f78e4e-d88f-4866-951a-118ba9fec4d0.jpg\",\"img/0901/a373612d-67e2-4fec-9764-21d3d6ef6359.jpg\"]","trial_type":"similarity","trial_index":173,"time_elapsed":1555608,"internal_node_id":"0.0-6.0-167.0"},{"sim_score":7,"rt":3825,"stimulus":"[\"img/0862/de9ad88c-b522-430a-8ee9-eb06a9f85df5.jpg\",\"img/0862/57b6f83f-c763-4858-830d-102f97bfefbf.jpg\"]","trial_type":"similarity","trial_index":174,"time_elapsed":1560439,"internal_node_id":"0.0-6.0-168.0"},{"sim_score":5,"rt":3679,"stimulus":"[\"img/0894/9b1333fd-3561-43bf-aee5-99b7b7ca3dc3.jpg\",\"img/0764/1def7b22-b054-4ec2-860b-73d25691823b.jpg\"]","trial_type":"similarity","trial_index":175,"time_elapsed":1565123,"internal_node_id":"0.0-6.0-169.0"},{"sim_score":5,"rt":4299,"stimulus":"[\"img/0874/adf9a8f1-c40b-402b-b95b-1e85a54a7b62.jpg\",\"img/0898/6cd3830b-d44e-4915-be2b-88d31424b91c.jpg\"]","trial_type":"similarity","trial_index":176,"time_elapsed":1570428,"internal_node_id":"0.0-6.0-170.0"},{"sim_score":2,"rt":4360,"stimulus":"[\"img/0860/87039971-2210-4aab-93c0-8e9b5f1655b2.jpg\",\"img/0766/f011ef45-fb48-44b8-8224-867ed2ccf786.jpg\"]","trial_type":"similarity","trial_index":177,"time_elapsed":1575794,"internal_node_id":"0.0-6.0-171.0"},{"sim_score":2,"rt":2566,"stimulus":"[\"img/0898/661621d4-a14e-487c-8c74-354134a29710.jpg\",\"img/0864/0f537697-a314-47c3-a8cc-8df23b7e536c.jpg\"]","trial_type":"similarity","trial_index":178,"time_elapsed":1579365,"internal_node_id":"0.0-6.0-172.0"},{"sim_score":6,"rt":4025,"stimulus":"[\"img/0881/ed4c971f-0873-4fc8-b6d6-e8bbd82f0bcc.jpg\",\"img/0764/5c8fbafc-e62e-43ed-9b37-f73e8e45147d.jpg\"]","trial_type":"similarity","trial_index":179,"time_elapsed":1584395,"internal_node_id":"0.0-6.0-173.0"},{"sim_score":1,"rt":3326,"stimulus":"[\"img/0898/0af304a2-6a7a-4082-ab7c-4450cd08cc58.jpg\",\"img/0868/d6d1f30d-4323-435a-b194-7892521bc57e.jpg\"]","trial_type":"similarity","trial_index":180,"time_elapsed":1588727,"internal_node_id":"0.0-6.0-174.0"},{"sim_score":7,"rt":3856,"stimulus":"[\"img/0864/a248adb3-c70b-4652-b7a3-776d2a1e904b.jpg\",\"img/0864/66091c27-e588-4476-8af9-265dc6be4156.jpg\"]","trial_type":"similarity","trial_index":181,"time_elapsed":1593589,"internal_node_id":"0.0-6.0-175.0"},{"sim_score":2,"rt":4080,"stimulus":"[\"img/0899/565ccdd9-0933-4536-a625-3c0e25a713dd.jpg\",\"img/0862/064818ee-13d5-4618-bb24-21c7368ea278.jpg\"]","trial_type":"similarity","trial_index":182,"time_elapsed":1598675,"internal_node_id":"0.0-6.0-176.0"},{"sim_score":2,"rt":7038,"stimulus":"[\"img/0875/5a716432-c6ca-4b1c-955a-2b8ac25198ee.jpg\",\"img/0758/a085b443-b5d7-4cb2-9ad4-b9dab0fc23f1.jpg\"]","trial_type":"similarity","trial_index":183,"time_elapsed":1606718,"internal_node_id":"0.0-6.0-177.0"},{"sim_score":2,"rt":2549,"stimulus":"[\"img/0866/386235d2-6857-41e7-88a8-25cfc3430025.jpg\",\"img/0901/8bb79e82-9c43-4b6f-a655-40655519598b.jpg\"]","trial_type":"similarity","trial_index":184,"time_elapsed":1610274,"internal_node_id":"0.0-6.0-178.0"},{"sim_score":6,"rt":4109,"stimulus":"[\"img/0769/35364db7-e0d5-40ef-93dc-faf9dfb95136.jpg\",\"img/0874/ca23d307-fc00-4d7d-9106-584c6eb21b4d.jpg\"]","trial_type":"similarity","trial_index":185,"time_elapsed":1615388,"internal_node_id":"0.0-6.0-179.0"},{"sim_score":2,"rt":2877,"stimulus":"[\"img/0875/03c3c331-738b-4446-af92-3d7386b08c2e.jpg\",\"img/0881/48ed65a5-471f-41af-86ec-3793805c116d.jpg\"]","trial_type":"similarity","trial_index":186,"time_elapsed":1619271,"internal_node_id":"0.0-6.0-180.0"},{"sim_score":3,"rt":2953,"stimulus":"[\"img/0866/93a27239-8317-4e08-98ca-d8b1ff298e07.jpg\",\"img/0868/6a28c3b0-3d76-498a-9fb7-ddafc665eca8.jpg\"]","trial_type":"similarity","trial_index":187,"time_elapsed":1623229,"internal_node_id":"0.0-6.0-181.0"},{"sim_score":5,"rt":3007,"stimulus":"[\"img/0899/00715b3f-851b-420b-a26b-d7f79f7759a9.jpg\",\"img/0758/7ffbc76b-1fc1-432c-8f7e-9ec8d1b3f643.jpg\"]","trial_type":"similarity","trial_index":188,"time_elapsed":1627240,"internal_node_id":"0.0-6.0-182.0"},{"sim_score":4,"rt":2164,"stimulus":"[\"img/0874/99f6563c-8a8d-4c1c-a41d-667b618c3fd5.jpg\",\"img/0875/5a1e5100-0d94-4fec-bbe9-ca9894d2cf8e.jpg\"]","trial_type":"similarity","trial_index":189,"time_elapsed":1630410,"internal_node_id":"0.0-6.0-183.0"},{"sim_score":2,"rt":2919,"stimulus":"[\"img/0904/d23dd7be-7fe8-4435-82f7-bd592c01e6a1.jpg\",\"img/0862/fad1d7c1-8187-43c3-942a-0fc12183e48e.jpg\"]","trial_type":"similarity","trial_index":190,"time_elapsed":1634334,"internal_node_id":"0.0-6.0-184.0"},{"sim_score":5,"rt":3992,"stimulus":"[\"img/0902/51493fab-2a10-4385-aa88-bee3db441626.jpg\",\"img/0766/79767d11-b612-4e8a-9e4b-a8ac95bb6a54.jpg\"]","trial_type":"similarity","trial_index":191,"time_elapsed":1639332,"internal_node_id":"0.0-6.0-185.0"},{"sim_score":3,"rt":2911,"stimulus":"[\"img/0758/20497cbe-ddae-489e-86e2-ab06985ed07c.jpg\",\"img/0769/48a1144d-fbda-4809-991b-fc8424a32ee4.jpg\"]","trial_type":"similarity","trial_index":192,"time_elapsed":1643246,"internal_node_id":"0.0-6.0-186.0"},{"sim_score":7,"rt":3208,"stimulus":"[\"img/0881/dea58fad-b4f1-41d9-bd3f-916eff19a3fd.jpg\",\"img/0881/566f45f8-5fed-4479-a60f-26377e60a62d.jpg\"]","trial_type":"similarity","trial_index":193,"time_elapsed":1647459,"internal_node_id":"0.0-6.0-187.0"},{"sim_score":3,"rt":3217,"stimulus":"[\"img/0758/67c0be2f-9e91-48b3-8219-70ac0a1802fa.jpg\",\"img/0866/8efcaa46-83ab-4dee-a35f-850402aa21ae.jpg\"]","trial_type":"similarity","trial_index":194,"time_elapsed":1651682,"internal_node_id":"0.0-6.0-188.0"},{"sim_score":5,"rt":4088,"stimulus":"[\"img/0764/da207710-e7e4-4f42-b2e6-99b5f357f433.jpg\",\"img/0898/26c41340-15bd-4ead-8fe4-c0d0ddca09c2.jpg\"]","trial_type":"similarity","trial_index":195,"time_elapsed":1656776,"internal_node_id":"0.0-6.0-189.0"},{"sim_score":4,"rt":3674,"stimulus":"[\"img/0903/f1fa0f8d-e62b-4b4a-a174-31a0fabfe61b.jpg\",\"img/0901/443f2e59-199b-4f7b-9de9-c44ad97326a5.jpg\"]","trial_type":"similarity","trial_index":196,"time_elapsed":1661458,"internal_node_id":"0.0-6.0-190.0"},{"sim_score":6,"rt":3477,"stimulus":"[\"img/0902/95a36b6b-9601-4fa5-8fd9-606ea62f9425.jpg\",\"img/0898/04e39a7a-fcf6-4156-ab0e-f5871f335e1c.jpg\"]","trial_type":"similarity","trial_index":197,"time_elapsed":1665941,"internal_node_id":"0.0-6.0-191.0"},{"sim_score":2,"rt":5598,"stimulus":"[\"img/0864/afcba0a3-7e27-4757-b254-e9f05fad27e2.jpg\",\"img/0901/effc03f6-8f9d-46db-a66c-16fc83891c5c.jpg\"]","trial_type":"similarity","trial_index":198,"time_elapsed":1672544,"internal_node_id":"0.0-6.0-192.0"},{"sim_score":3,"rt":3286,"stimulus":"[\"img/0894/7fb082e0-ce79-485c-9109-04367fb32275.jpg\",\"img/0881/4da99fdd-1f40-4bbb-8e21-8833eef313f5.jpg\"]","trial_type":"similarity","trial_index":199,"time_elapsed":1676837,"internal_node_id":"0.0-6.0-193.0"},{"sim_score":6,"rt":4819,"stimulus":"[\"img/0868/5fa7f9d0-f0e5-454c-8224-74d964818f56.jpg\",\"img/0868/e0aff734-077f-40dd-9781-74821abd3621.jpg\"]","trial_type":"similarity","trial_index":200,"time_elapsed":1682660,"internal_node_id":"0.0-6.0-194.0"},{"sim_score":5,"rt":2837,"stimulus":"[\"img/0899/f58b8d2f-b19d-4b59-8b94-8834be92e4ba.jpg\",\"img/0764/c01e2d65-6586-441b-bef5-3c96fcd85380.jpg\"]","trial_type":"similarity","trial_index":201,"time_elapsed":1686503,"internal_node_id":"0.0-6.0-195.0"},{"sim_score":5,"rt":4656,"stimulus":"[\"img/0881/f6bd3b96-dc40-4e99-8681-bc3a35cf896d.jpg\",\"img/0904/06dacdc5-2206-4fb8-92b7-88042d22833c.jpg\"]","trial_type":"similarity","trial_index":202,"time_elapsed":1692166,"internal_node_id":"0.0-6.0-196.0"},{"sim_score":3,"rt":2791,"stimulus":"[\"img/0864/da39ad34-04e0-40d4-a724-c08d53e0ea09.jpg\",\"img/0902/04a6ad4a-afc6-4871-8225-56b299af7b6b.jpg\"]","trial_type":"similarity","trial_index":203,"time_elapsed":1695963,"internal_node_id":"0.0-6.0-197.0"},{"sim_score":5,"rt":5550,"stimulus":"[\"img/0894/38cf335f-f76f-4349-8d65-e20cd6859565.jpg\",\"img/0904/09dac84f-3d1c-4445-a68e-d0389fdbf1e9.jpg\"]","trial_type":"similarity","trial_index":204,"time_elapsed":1702517,"internal_node_id":"0.0-6.0-198.0"},{"sim_score":6,"rt":3167,"stimulus":"[\"img/0901/233a6948-48eb-4b67-8259-222b916b2322.jpg\",\"img/0901/a6c90438-fa7c-4418-ac7c-16c2e772dd98.jpg\"]","trial_type":"similarity","trial_index":205,"time_elapsed":1706689,"internal_node_id":"0.0-6.0-199.0"},{"sim_score":2,"rt":2303,"stimulus":"[\"img/0894/0130a973-d993-41f8-874a-fee23d9ac11f.jpg\",\"img/0860/15b24a61-25be-4356-9eac-5ce95d0cb4a4.jpg\"]","trial_type":"similarity","trial_index":206,"time_elapsed":1709996,"internal_node_id":"0.0-6.0-200.0"},{"sim_score":4,"rt":2189,"stimulus":"[\"img/0898/993d8f2d-bef7-4251-a193-0f93a32b7763.jpg\",\"img/0903/e2e55a9e-0397-4dc0-8adf-4a54cfefe1fe.jpg\"]","trial_type":"similarity","trial_index":207,"time_elapsed":1713190,"internal_node_id":"0.0-6.0-201.0"},{"sim_score":2,"rt":2702,"stimulus":"[\"img/0864/5f33e097-23e3-4002-882d-76e8cb15f451.jpg\",\"img/0894/b2d2f66e-e480-46da-a02a-6d0c6b285d78.jpg\"]","trial_type":"similarity","trial_index":208,"time_elapsed":1716896,"internal_node_id":"0.0-6.0-202.0"},{"sim_score":3,"rt":4073,"stimulus":"[\"img/0874/29830da7-be5f-44e5-b141-652a0ccf7269.jpg\",\"img/0860/9593362c-9fe5-4d12-9735-6000a11f6aa5.jpg\"]","trial_type":"similarity","trial_index":209,"time_elapsed":1721974,"internal_node_id":"0.0-6.0-203.0"},{"sim_score":1,"rt":2425,"stimulus":"[\"img/0862/f23038d4-c366-4f70-979f-66b62362efa4.jpg\",\"img/0875/34132396-d896-4c2d-8087-646dd867e769.jpg\"]","trial_type":"similarity","trial_index":210,"time_elapsed":1725404,"internal_node_id":"0.0-6.0-204.0"},{"sim_score":3,"rt":3025,"stimulus":"[\"img/0867/50a1b60e-3a29-44bf-b606-d4bd3746fea9.jpg\",\"img/0881/4bd34581-94d8-4e88-8c89-5cef864ca3be.jpg\"]","trial_type":"similarity","trial_index":211,"time_elapsed":1729434,"internal_node_id":"0.0-6.0-205.0"},{"sim_score":3,"rt":3266,"stimulus":"[\"img/0901/58978a6d-a3e2-4c59-8d62-f60693ecc0f6.jpg\",\"img/0902/22ed3536-288b-452e-9777-0fa0ab94deb0.jpg\"]","trial_type":"similarity","trial_index":212,"time_elapsed":1733708,"internal_node_id":"0.0-6.0-206.0"},{"sim_score":2,"rt":3517,"stimulus":"[\"img/0899/25ae6ec8-9565-49fe-a8bb-8d0666f52716.jpg\",\"img/0864/e8bd659f-aa43-4748-877e-3118e8b4e189.jpg\"]","trial_type":"similarity","trial_index":213,"time_elapsed":1738230,"internal_node_id":"0.0-6.0-207.0"},{"sim_score":1,"rt":3366,"stimulus":"[\"img/0901/b123d109-47b4-4f9a-80c9-9bb16da42efa.jpg\",\"img/0769/f73c5138-2f4c-4354-981c-129dff9cc734.jpg\"]","trial_type":"similarity","trial_index":214,"time_elapsed":1742602,"internal_node_id":"0.0-6.0-208.0"},{"sim_score":5,"rt":4815,"stimulus":"[\"img/0902/b76efc44-a50f-4dac-b997-ff0222376067.jpg\",\"img/0902/31abfa33-7cdb-44ad-968e-9f7b324d577a.jpg\"]","trial_type":"similarity","trial_index":215,"time_elapsed":1749686,"internal_node_id":"0.0-6.0-209.0"},{"view_history":"[{\"page_index\":0,\"viewing_time\":6469}]","rt":6470,"trial_type":"instructions","trial_index":216,"time_elapsed":1757157,"internal_node_id":"0.0-7.0"},{"rt":16745,"responses":"{\"Q0\":\"Yellow Warbler\"}","answer":["Nashville Warbler"],"trial_type":"image-multi-choice","trial_index":217,"time_elapsed":1774921,"internal_node_id":"0.0-8.0-0.0"},{"rt":10619,"responses":"{\"Q0\":\"Black-and-white Warbler\"}","answer":["Black-and-white Warbler"],"trial_type":"image-multi-choice","trial_index":218,"time_elapsed":1786553,"internal_node_id":"0.0-8.0-1.0"},{"rt":5720,"responses":"{\"Q0\":\"Blackburnian Warbler\"}","answer":["Townsend's Warbler"],"trial_type":"image-multi-choice","trial_index":219,"time_elapsed":1793289,"internal_node_id":"0.0-8.0-2.0"},{"rt":26504,"responses":"{\"Q0\":\"White-throated Sparrow\"}","answer":["Lark Sparrow"],"trial_type":"image-multi-choice","trial_index":220,"time_elapsed":1820806,"internal_node_id":"0.0-8.0-3.0"},{"rt":3182,"responses":"{\"Q0\":\"Yellow Warbler\"}","answer":["Yellow Warbler"],"trial_type":"image-multi-choice","trial_index":221,"time_elapsed":1825002,"internal_node_id":"0.0-8.0-4.0"},{"rt":4871,"responses":"{\"Q0\":\"Townsend's Warbler\"}","answer":["Orange-crowned Warbler"],"trial_type":"image-multi-choice","trial_index":222,"time_elapsed":1830886,"internal_node_id":"0.0-8.0-5.0"},{"rt":12106,"responses":"{\"Q0\":\"Lincoln's Sparrow\"}","answer":["White-throated Sparrow"],"trial_type":"image-multi-choice","trial_index":223,"time_elapsed":1844007,"internal_node_id":"0.0-8.0-6.0"},{"rt":12400,"responses":"{\"Q0\":\"Northern Waterthrush\"}","answer":["Fox Sparrow"],"trial_type":"image-multi-choice","trial_index":224,"time_elapsed":1857418,"internal_node_id":"0.0-8.0-7.0"},{"rt":7629,"responses":"{\"Q0\":\"Fox Sparrow\"}","answer":["Song Sparrow"],"trial_type":"image-multi-choice","trial_index":225,"time_elapsed":1866060,"internal_node_id":"0.0-8.0-8.0"},{"rt":7711,"responses":"{\"Q0\":\"Black-and-white Warbler\"}","answer":["Blackburnian Warbler"],"trial_type":"image-multi-choice","trial_index":226,"time_elapsed":1874785,"internal_node_id":"0.0-8.0-9.0"},{"rt":11070,"responses":"{\"Q0\":\"Vesper Sparrow\"}","answer":["Vesper Sparrow"],"trial_type":"image-multi-choice","trial_index":227,"time_elapsed":1886868,"internal_node_id":"0.0-8.0-10.0"},{"rt":5432,"responses":"{\"Q0\":\"White-crowned Sparrow\"}","answer":["White-crowned Sparrow"],"trial_type":"image-multi-choice","trial_index":228,"time_elapsed":1893316,"internal_node_id":"0.0-8.0-11.0"},{"rt":17969,"responses":"{\"Q0\":\"Chipping Sparrow\"}","answer":["American Tree Sparrow"],"trial_type":"image-multi-choice","trial_index":229,"time_elapsed":1912297,"internal_node_id":"0.0-8.0-12.0"},{"rt":8510,"responses":"{\"Q0\":\"Orange-crowned Warbler\"}","answer":["Tennessee Warbler"],"trial_type":"image-multi-choice","trial_index":230,"time_elapsed":1921819,"internal_node_id":"0.0-8.0-13.0"},{"rt":22502,"responses":"{\"Q0\":\"Black-and-white Warbler\"}","answer":["Magnolia Warbler"],"trial_type":"image-multi-choice","trial_index":231,"time_elapsed":1945335,"internal_node_id":"0.0-8.0-14.0"},{"rt":8627,"responses":"{\"Q0\":\"Ovenbird\"}","answer":["Northern Waterthrush"],"trial_type":"image-multi-choice","trial_index":232,"time_elapsed":1954977,"internal_node_id":"0.0-8.0-15.0"},{"rt":10755,"responses":"{\"Q0\":\"Chipping Sparrow\"}","answer":["Chipping Sparrow"],"trial_type":"image-multi-choice","trial_index":233,"time_elapsed":1966746,"internal_node_id":"0.0-8.0-16.0"},{"rt":5539,"responses":"{\"Q0\":\"Swamp Sparrow\"}","answer":["Swamp Sparrow"],"trial_type":"image-multi-choice","trial_index":234,"time_elapsed":1973297,"internal_node_id":"0.0-8.0-17.0"},{"rt":6487,"responses":"{\"Q0\":\"Vesper Sparrow\"}","answer":["Lincoln's Sparrow"],"trial_type":"image-multi-choice","trial_index":235,"time_elapsed":1980797,"internal_node_id":"0.0-8.0-18.0"},{"rt":11723,"responses":"{\"Q0\":\"Ovenbird\"}","answer":["Ovenbird"],"trial_type":"image-multi-choice","trial_index":236,"time_elapsed":1993534,"internal_node_id":"0.0-8.0-19.0"}]