"view_history","rt","trial_type","trial_index","time_elapsed","internal_node_id","sim_score","stimulus","responses","answer"
"[{""page_index"":0,""viewing_time"":382427}]","382429","instructions","0","382430","0.0-0.0","","","",""
"","7837","similarity_demo","1","391283","0.0-1.0","5","[""img/866.jpg"",""img/868.jpg""]","",""
"[{""page_index"":0,""viewing_time"":8747}]","8747","instructions","2","401032","0.0-2.0","","","",""
"","5785","similarity_demo","3","407822","0.0-3.0","3","[""img/766.jpg"",""img/867.jpg""]","",""
"[{""page_index"":0,""viewing_time"":6694}]","6695","instructions","4","415519","0.0-4.0","","","",""
"[{""page_index"":0,""viewing_time"":14900}]","14901","instructions","5","431421","0.0-5.0","","","",""
"","4081","similarity","6","436511","0.0-6.0-0.0","2","[""img/0868/4a8a45ed-2c4f-421b-9564-409a33ecd26c.jpg"",""img/0901/4f9cffe0-c0be-4d7f-bacd-9d51efd19b4a.jpg""]","",""
"","4175","similarity","7","441693","0.0-6.0-1.0","3","[""img/0769/1ca58b80-2365-446d-9616-6c1719e6c46f.jpg"",""img/0867/98d8cd96-1476-4fe0-a3a3-04f875500a1b.jpg""]","",""
"","5149","similarity","8","447853","0.0-6.0-2.0","6","[""img/0766/0025de5e-f620-4079-8a0f-00326ff3a6b0.jpg"",""img/0898/79233891-305a-4a6a-8ddf-5c8604858203.jpg""]","",""
"","4598","similarity","9","453454","0.0-6.0-3.0","2","[""img/0902/0db94c50-f1fb-4091-953c-29ca0466bee2.jpg"",""img/0881/adc02f34-ce97-4aef-850f-00519df06fd7.jpg""]","",""
"","4151","similarity","10","458613","0.0-6.0-4.0","6","[""img/0894/38f5931f-926d-414e-b498-66b188978b7a.jpg"",""img/0894/133a1636-d123-4893-873c-1718050f832a.jpg""]","",""
"","4337","similarity","11","463955","0.0-6.0-5.0","2","[""img/0874/3ce41e7c-40c8-4d58-a546-171114521796.jpg"",""img/0899/4408c14d-c168-4a7d-96f6-bc87bfb58f83.jpg""]","",""
"","3919","similarity","12","468881","0.0-6.0-6.0","6","[""img/0904/5cceabc9-de1d-4c67-989b-c28a4ef77e79.jpg"",""img/0764/958b8576-3a3b-4acc-96dc-06b74de69f37.jpg""]","",""
"","4445","similarity","13","474333","0.0-6.0-7.0","5","[""img/0899/66bf4113-ee12-426c-84d2-ea410b6c803e.jpg"",""img/0898/81b08535-2020-4c15-9ce4-2f1e460755ae.jpg""]","",""
"","3669","similarity","14","479008","0.0-6.0-8.0","2","[""img/0874/2c9464dd-8a23-4baa-ac94-1ba3af5c15cc.jpg"",""img/0903/9b60ef5b-234f-4239-892b-3d4c412accc2.jpg""]","",""
"","3415","similarity","15","483429","0.0-6.0-9.0","6","[""img/0881/33d65d80-8a8e-4ecf-852d-0ad7725c17a2.jpg"",""img/0758/6e95579b-5166-487c-b8cb-e417c6a218e3.jpg""]","",""
"","4653","similarity","16","489088","0.0-6.0-10.0","5","[""img/0898/cd3aaa3f-efa9-4ab3-8d6f-a6a9273ddf42.jpg"",""img/0901/1e23ffbd-19de-4c4f-aa23-c54aaa3319a3.jpg""]","",""
"","4439","similarity","17","494533","0.0-6.0-11.0","6","[""img/0903/0e5c2854-42aa-48c0-9c3d-6e1ad2a400bd.jpg"",""img/0769/9ea9ceb6-049e-4ad9-be8f-00645cd35803.jpg""]","",""
"","3709","similarity","18","499249","0.0-6.0-12.0","2","[""img/0764/b8e23f4f-ff19-4472-ad9b-2f85548ebca0.jpg"",""img/0868/83b4350a-3b70-4cea-b7f5-b5b56f3050a8.jpg""]","",""
"","3823","similarity","19","504079","0.0-6.0-13.0","2","[""img/0867/85a96c62-548f-4994-9553-819e03c3135a.jpg"",""img/0903/0fb24af7-9a26-4e9d-aadc-959a36f683e2.jpg""]","",""
"","3071","similarity","20","508154","0.0-6.0-14.0","2","[""img/0766/09f646c8-a69e-4ed3-879c-8d29b04ad7f9.jpg"",""img/0758/a709631e-3705-4725-ac40-f0d916924f08.jpg""]","",""
"","3120","similarity","21","512278","0.0-6.0-15.0","6","[""img/0902/794606a0-d8a8-4e58-8bf8-9d114ed5a548.jpg"",""img/0860/31ff6436-98bf-4652-bed2-40f627229568.jpg""]","",""
"","3012","similarity","22","516295","0.0-6.0-16.0","2","[""img/0769/ecda2fb3-556b-43ba-8a67-e87dd75ff2b4.jpg"",""img/0875/d59ff733-eaff-4ee2-9443-06954dd0bcb6.jpg""]","",""
"","2711","similarity","23","520020","0.0-6.0-17.0","2","[""img/0904/09934646-45d2-4147-8fec-64a22a5ac822.jpg"",""img/0866/be24ab58-230e-4db8-9f45-ff04c9aec6bb.jpg""]","",""
"","4435","similarity","24","525463","0.0-6.0-18.0","7","[""img/0875/2c361b79-c3d1-4eda-812e-bf03192407bf.jpg"",""img/0875/99698b4d-b4a1-44bc-8c83-8ea755bbbf61.jpg""]","",""
"","3679","similarity","25","530149","0.0-6.0-19.0","7","[""img/0758/7ee8bc8f-c40b-4b3a-84ec-3e83580622d4.jpg"",""img/0758/2fa3e613-e676-4e6e-bd12-705327eeb3e1.jpg""]","",""
"","5359","similarity","26","536513","0.0-6.0-20.0","2","[""img/0902/07437a16-3d0f-4a5c-89ec-36d0efa4b3b8.jpg"",""img/0874/93d1f8dc-acf2-4f03-bd8d-8ec35df276ed.jpg""]","",""
"","5105","similarity","27","542623","0.0-6.0-21.0","5","[""img/0764/e30dba15-e68a-4659-89db-e1654b52fe02.jpg"",""img/0769/5bd04f55-d091-4f57-85db-38426f26bd1a.jpg""]","",""
"","3895","similarity","28","547525","0.0-6.0-22.0","2","[""img/0901/4d1bed7e-3c4e-4f6c-ada9-4beb66ba9e39.jpg"",""img/0874/eba003b4-cdab-4eee-8bc3-f064c7d94165.jpg""]","",""
"","3253","similarity","29","551784","0.0-6.0-23.0","3","[""img/0875/fb732ab5-013a-4366-9f65-27811ed157e9.jpg"",""img/0903/8635cf25-2648-4fe9-8c42-79d2598e999c.jpg""]","",""
"","3920","similarity","30","556711","0.0-6.0-24.0","2","[""img/0769/8056889f-2b14-4782-bb25-b4e8896ab65b.jpg"",""img/0881/ee44e27f-d662-4608-b265-e7ffa19b216f.jpg""]","",""
"","3166","similarity","31","560883","0.0-6.0-25.0","3","[""img/0867/c66898ba-b71b-4d50-84f9-f7f84853a98d.jpg"",""img/0904/696ebb60-8891-417a-91fd-c53218907a95.jpg""]","",""
"","2917","similarity","32","564806","0.0-6.0-26.0","3","[""img/0860/5383b320-1518-4095-a58e-5cc1ae30b64c.jpg"",""img/0881/5fe04dd0-5c74-47b7-99c8-b068db9ca26a.jpg""]","",""
"","3680","similarity","33","569492","0.0-6.0-27.0","6","[""img/0866/11a1d141-be5e-443c-98c1-a9d4d9e3dec0.jpg"",""img/0866/23a224f3-2012-4fc8-8e0f-3c36f8de27fd.jpg""]","",""
"","3302","similarity","34","573800","0.0-6.0-28.0","2","[""img/0764/e0788029-9d7f-414c-b747-46d2a99f7c86.jpg"",""img/0862/4f0a3b4c-afbf-486e-b248-1d54982f54b4.jpg""]","",""
"","3287","similarity","35","578092","0.0-6.0-29.0","2","[""img/0904/56e73f28-7e64-489b-a161-e6b1a063878d.jpg"",""img/0758/f61ecdf8-a7d4-4db0-b84d-be46f7cfaffc.jpg""]","",""
"","3784","similarity","36","582882","0.0-6.0-30.0","5","[""img/0894/e6385e52-6c35-43bd-b0af-bc803d107b11.jpg"",""img/0899/d60714ae-98d7-4564-8c98-94dba1351135.jpg""]","",""
"","3586","similarity","37","587472","0.0-6.0-31.0","2","[""img/0860/17b44a7d-c5ca-479f-9e87-f65a64f5c80e.jpg"",""img/0904/24fc38fe-842c-4831-ad8a-b1de5c25c0a8.jpg""]","",""
"","3408","similarity","38","591885","0.0-6.0-32.0","5","[""img/0874/ca76a855-4e77-4f2f-872a-0a718153e7ed.jpg"",""img/0881/e046471a-35b4-4159-bbf7-3cfd201bef66.jpg""]","",""
"","3222","similarity","39","596113","0.0-6.0-33.0","4","[""img/0881/db77fe00-aeb0-4d1d-aa66-f3a96fd077e4.jpg"",""img/0899/8abe6c69-822c-436c-9bf2-96c818b49ba5.jpg""]","",""
"","2909","similarity","40","600028","0.0-6.0-34.0","3","[""img/0866/4a87911a-d5be-4d4e-ab8e-3d1f581bf507.jpg"",""img/0862/47ed5efd-4ec9-4b74-bb4e-a5f5cf0c3e7d.jpg""]","",""
"","3835","similarity","41","604870","0.0-6.0-35.0","2","[""img/0868/179a5502-ab5c-478e-8263-5a1fbcc101d2.jpg"",""img/0894/8cadb87a-7001-4e47-99fb-1867bebf1668.jpg""]","",""
"","3072","similarity","42","608949","0.0-6.0-36.0","7","[""img/0860/b03b963d-949b-4d8d-b19c-4950c89eeca2.jpg"",""img/0860/f44ba3fb-03a2-42f0-8509-2c1ded493086.jpg""]","",""
"","5927","similarity","43","615883","0.0-6.0-37.0","4","[""img/0862/7918ca67-5bd3-4606-a5ea-c39fb11a9297.jpg"",""img/0864/6e846d43-94a6-4b37-a268-65eda979f052.jpg""]","",""
"","4771","similarity","44","621658","0.0-6.0-38.0","1","[""img/0766/535849cc-ff5d-4df9-8f31-0ce94a97d571.jpg"",""img/0866/d266fece-59b3-46fa-b69f-96f6efb81b59.jpg""]","",""
"","3973","similarity","45","626636","0.0-6.0-39.0","2","[""img/0875/90da8d75-108a-44ad-b999-e21fee3860d3.jpg"",""img/0898/a114b375-cb89-44ba-9498-74213f1ecdee.jpg""]","",""
"","4667","similarity","46","632309","0.0-6.0-40.0","6","[""img/0766/214866ee-423d-4629-9bb9-41572bdc7dac.jpg"",""img/0769/f229321f-04dd-42d7-b14a-ffad6b509862.jpg""]","",""
"","3015","similarity","47","646216","0.0-6.0-41.0","4","[""img/0874/a82926a3-0b43-4add-803c-d5f9ea7798ee.jpg"",""img/0764/5d83b9db-3b2b-4dc8-9bd1-2b515b19c858.jpg""]","",""
"","2262","similarity","48","649483","0.0-6.0-42.0","4","[""img/0868/8b0b8473-e2c0-4331-aa56-c3a5c29369da.jpg"",""img/0902/6730b12a-f0a7-4587-8c10-a32fae16565b.jpg""]","",""
"","4779","similarity","49","655267","0.0-6.0-43.0","3","[""img/0875/8521fd58-3b1e-4dc5-97ae-804edfa6734a.jpg"",""img/0899/56a605c3-d0a2-4215-89e1-779279d85a7c.jpg""]","",""
"","3223","similarity","50","659496","0.0-6.0-44.0","3","[""img/0866/bf14b5bd-fb55-47db-86b9-4f8aeb9a6dad.jpg"",""img/0860/8277806e-b684-4474-8f7b-3fca946d7d4f.jpg""]","",""
"","2551","similarity","51","663052","0.0-6.0-45.0","6","[""img/0766/b84598d0-5b41-4841-88b0-b441b48289f5.jpg"",""img/0903/8931c67c-a43d-47d3-a4c9-42aa2f81d344.jpg""]","",""
"","4759","similarity","52","668817","0.0-6.0-46.0","3","[""img/0901/12da1841-e611-435c-9719-109413d536a8.jpg"",""img/0904/9d30eff1-46ef-4453-b11e-124ef8145c00.jpg""]","",""
"","3398","similarity","53","673222","0.0-6.0-47.0","1","[""img/0758/6cd8c362-ae2a-41eb-80a3-3a4f7ace1530.jpg"",""img/0902/d1083f2c-5520-44ec-81a8-3f856fbf0e80.jpg""]","",""
"","3672","similarity","54","677900","0.0-6.0-48.0","7","[""img/0764/f713847b-4832-42d1-8fb3-e17e37fd745c.jpg"",""img/0764/03c07b98-3f18-4b71-bb70-ecff564a78d1.jpg""]","",""
"","2662","similarity","55","681567","0.0-6.0-49.0","2","[""img/0866/07c9c966-3c8d-40e7-8128-92b2acbaed5d.jpg"",""img/0902/44cd9b7e-fdfb-4f78-90de-8d4c9d279365.jpg""]","",""
"","3689","similarity","56","686261","0.0-6.0-50.0","2","[""img/0764/7f4ee8e3-9315-4a57-be7d-db8454b33766.jpg"",""img/0758/821c68d3-5cb0-4eae-8659-30e6263fca39.jpg""]","",""
"","6310","similarity","57","693576","0.0-6.0-51.0","1","[""img/0898/b3290bf9-215b-4b45-b21a-65bdf73f142f.jpg"",""img/0894/1b3888e6-cf36-4c4a-a039-187aa5cb71ac.jpg""]","",""
"","4433","similarity","58","699016","0.0-6.0-52.0","6","[""img/0875/e7e66b13-b573-431e-b85e-288ce04a35a3.jpg"",""img/0866/02f5e6b9-52b7-448c-9708-5b460d0c9a23.jpg""]","",""
"","3965","similarity","59","703986","0.0-6.0-53.0","3","[""img/0904/65e2b70a-b184-4da3-b5c0-5038bdf9469a.jpg"",""img/0904/5aec2708-cf14-4a58-aa30-9a8a61c1be0e.jpg""]","",""
"","3463","similarity","60","708455","0.0-6.0-54.0","7","[""img/0769/965c3c44-d9e5-47c5-b61a-2bbdf4215d9a.jpg"",""img/0769/ebef2ddc-ba59-4e0e-97f8-927864eb5081.jpg""]","",""
"","3670","similarity","61","713129","0.0-6.0-55.0","1","[""img/0898/4184e5a2-84ea-4f36-9b42-ae58646f6f87.jpg"",""img/0758/7fba58df-2a7a-4b76-8a8f-62739f97f271.jpg""]","",""
"","4498","similarity","62","718632","0.0-6.0-56.0","2","[""img/0769/0fe124d3-bcad-45f6-b64d-8f6eb8ee5251.jpg"",""img/0902/2db723b6-130f-454c-8c8d-88829edbcd65.jpg""]","",""
"","3852","similarity","63","723491","0.0-6.0-57.0","7","[""img/0864/3651d070-2fc5-4848-b6a6-088a2d9ac5c9.jpg"",""img/0881/b549bc99-a61c-4450-bab5-9efc3a197bf0.jpg""]","",""
"","2673","similarity","64","727171","0.0-6.0-58.0","2","[""img/0758/e38fd80d-18d0-42f3-b848-f930788e8bd7.jpg"",""img/0868/3a62db2d-97e9-44a3-b8e3-a48c6f0e423b.jpg""]","",""
"","3092","similarity","65","731271","0.0-6.0-59.0","1","[""img/0862/f188d4f0-76a4-4102-818c-a209969d73a5.jpg"",""img/0769/a3cfbdeb-acb3-4eac-87fb-4b117f42d4f8.jpg""]","",""
"","3037","similarity","66","735313","0.0-6.0-60.0","2","[""img/0764/f990b2e8-ecee-481e-be7c-0239fce350e2.jpg"",""img/0903/6a87dbad-9b8d-4ff5-9c41-03c9aa24f0c3.jpg""]","",""
"","3430","similarity","67","739751","0.0-6.0-61.0","7","[""img/0899/06b0fc99-0581-461a-9913-d1a5a941ac61.jpg"",""img/0899/ad8268c5-8199-48d0-ad70-c5b6d6c599ec.jpg""]","",""
"","2805","similarity","68","743561","0.0-6.0-62.0","1","[""img/0860/8a92e21b-6a32-4e4a-a445-2d5a487ed0a4.jpg"",""img/0875/5a7c4e35-6514-4e12-8879-d16071da4cd6.jpg""]","",""
"","3070","similarity","69","747637","0.0-6.0-63.0","1","[""img/0868/fd307a36-9a3a-47d7-ab7c-f810d0b35040.jpg"",""img/0874/31e22c7c-99aa-40b1-bf03-dd73fa2df4d6.jpg""]","",""
"","3566","similarity","70","752210","0.0-6.0-64.0","1","[""img/0758/e1ba5e53-addc-436a-b428-d34fc1b130dc.jpg"",""img/0862/a0a3a7ba-7798-46a3-b4ca-05e1f6e581d0.jpg""]","",""
"","4131","similarity","71","757347","0.0-6.0-65.0","7","[""img/0904/b7c2a2c8-df33-4473-b3d4-ff7147c60db3.jpg"",""img/0898/e167334e-cc1d-4986-b3b1-c7bc7da64baa.jpg""]","",""
"","4467","similarity","72","762818","0.0-6.0-66.0","4","[""img/0881/62a64f90-7a72-4aee-a1a1-0c548ac9bdda.jpg"",""img/0866/a04d37f0-99dd-478a-b6c6-58b215138f84.jpg""]","",""
"","4473","similarity","73","768297","0.0-6.0-67.0","2","[""img/0867/a749dddb-69f0-44a6-acdc-2bf295cf6dcc.jpg"",""img/0898/40f99fb2-64d2-4e72-8a7f-a1cf60741e69.jpg""]","",""
"","4467","similarity","74","773768","0.0-6.0-68.0","3","[""img/0902/eb3e7e71-8ff1-4b88-a6a7-47e2c1ce1683.jpg"",""img/0764/c0b03adb-bd0a-4b96-a915-a827c2fd5211.jpg""]","",""
"","5692","similarity","75","780466","0.0-6.0-69.0","5","[""img/0875/a4935837-7d3c-4df6-88c1-36a94d4991ca.jpg"",""img/0867/7d1c497b-c1b3-4ed8-abb5-d7f73306015f.jpg""]","",""
"","4261","similarity","76","785732","0.0-6.0-70.0","6","[""img/0766/e8052e17-9dae-4139-802b-6e590cb2d526.jpg"",""img/0764/b328441c-f81c-486c-9eae-b947c70ba7cd.jpg""]","",""
"","5424","similarity","77","792160","0.0-6.0-71.0","2","[""img/0894/5f15154e-e72e-4ce5-aafb-bce6f0564006.jpg"",""img/0867/5e07b34d-b40f-4b1c-ac10-49975bace45f.jpg""]","",""
"","3112","similarity","78","796276","0.0-6.0-72.0","1","[""img/0875/f87b67d7-c33e-40d1-b281-248c4be1cb6e.jpg"",""img/0764/cffc80b0-4a90-4acb-a530-6f480f3ca303.jpg""]","",""
"","4782","similarity","79","802063","0.0-6.0-73.0","6","[""img/0867/ac1797e4-8afc-48fe-b252-86d1defb1cca.jpg"",""img/0866/c446214b-a368-4c65-ae39-ea46894256ab.jpg""]","",""
"","3552","similarity","80","806620","0.0-6.0-74.0","4","[""img/0903/24477210-856c-4550-9de0-9f85a32762eb.jpg"",""img/0758/eabcd7a8-56ad-4fd2-bc24-90f6b7b33265.jpg""]","",""
"","3467","similarity","81","811093","0.0-6.0-75.0","3","[""img/0766/006035d8-c736-4daf-bbe4-a9e373af9da6.jpg"",""img/0868/c8ac40c7-6904-4e13-8d61-c75d3052dc4e.jpg""]","",""
"","4469","similarity","82","816567","0.0-6.0-76.0","5","[""img/0874/767f289c-9814-4496-803f-745cc8913d1f.jpg"",""img/0766/0b48f9e0-7d37-4161-8adb-4e3f5b6b7583.jpg""]","",""
"","4682","similarity","83","822256","0.0-6.0-77.0","3","[""img/0881/d1982897-8d8d-4704-a940-1ee5d07a1f15.jpg"",""img/0868/7b212364-ff5f-4e28-9241-7eb6ea00161b.jpg""]","",""
"","6057","similarity","84","829318","0.0-6.0-78.0","5","[""img/0758/53f35650-e455-4b53-8be4-c3c8271c6466.jpg"",""img/0901/a6776381-91fe-43f8-ab73-261d318f95fd.jpg""]","",""
"","3938","similarity","85","834265","0.0-6.0-79.0","3","[""img/0881/667e2147-d457-4f32-aa5f-6ab86e5848f1.jpg"",""img/0898/01bfe666-3510-4fc7-964f-d00d28732dc8.jpg""]","",""
"","3362","similarity","86","838633","0.0-6.0-80.0","5","[""img/0867/075e0f95-856b-4cbb-acf5-092393aaf04e.jpg"",""img/0758/ddc336e9-a8b6-4bb9-937a-c7e25e0e9250.jpg""]","",""
"","3352","similarity","87","842989","0.0-6.0-81.0","5","[""img/0769/aad494cc-674d-4a08-9bfa-24a88ebe3c79.jpg"",""img/0899/51a7a498-98c7-42d7-bca8-bc2d8f0b5831.jpg""]","",""
"","2998","similarity","88","846994","0.0-6.0-82.0","6","[""img/0903/c3cb4a01-2797-43ca-b216-88c67b323fbb.jpg"",""img/0903/b7e3723f-fd03-4f3d-8820-f19496463a34.jpg""]","",""
"","3943","similarity","89","854961","0.0-6.0-83.0","2","[""img/0867/de92135f-5b65-4ed9-b245-188292c7c2f8.jpg"",""img/0766/af3be95e-e52e-4fae-899b-0ff02ec340aa.jpg""]","",""
"","4498","similarity","90","860464","0.0-6.0-84.0","1","[""img/0902/82d20e8c-2162-47a6-925b-52906558c046.jpg"",""img/0867/2e1a0b58-cdb1-4107-a14e-452530d7b9b0.jpg""]","",""
"","3130","similarity","91","864600","0.0-6.0-85.0","1","[""img/0901/2a953e50-d237-405c-a38d-5ed21494c968.jpg"",""img/0875/527ced51-8e53-4aab-ab05-86df219104c0.jpg""]","",""
"","2971","similarity","92","868578","0.0-6.0-86.0","1","[""img/0764/8740679b-b56f-4292-aece-14063457113a.jpg"",""img/0866/d493a2c8-66eb-44b4-be02-2f327b700b7c.jpg""]","",""
"","2902","similarity","93","872488","0.0-6.0-87.0","4","[""img/0901/b13fa50f-dbe0-4d0f-8647-6ac0fd8f40bd.jpg"",""img/0894/492d2f29-d7b9-4422-8be8-47fd58bfaa8b.jpg""]","",""
"","3496","similarity","94","876991","0.0-6.0-88.0","3","[""img/0898/f3a3f225-1248-4ac7-b93b-f0ff28485bf3.jpg"",""img/0769/4a1d0b52-3fe8-40fb-bb1c-c814fe49a68c.jpg""]","",""
"","3000","similarity","95","880996","0.0-6.0-89.0","7","[""img/0769/db94b61b-a5a7-4861-9d32-7b02ad194fb0.jpg"",""img/0894/3664e04c-c6d3-4c9b-afb6-25d89974b174.jpg""]","",""
"","5023","similarity","96","887022","0.0-6.0-90.0","6","[""img/0862/eefa5588-9efd-4591-aa5f-a2e17c7d7bcc.jpg"",""img/0874/bf14b896-e930-4fd9-9c05-2e83317a2773.jpg""]","",""
"","4776","similarity","97","892802","0.0-6.0-91.0","7","[""img/0894/4739e06d-c31e-4bf1-bf91-c97fa9afb456.jpg"",""img/0766/6d32752d-aa05-40dc-9541-640b6e9d6fa1.jpg""]","",""
"","3424","similarity","98","897231","0.0-6.0-92.0","5","[""img/0874/995f0332-0439-4eb4-add3-957335dbf6d9.jpg"",""img/0867/1719a35d-f085-48c0-9099-16c94fe418b4.jpg""]","",""
"","4277","similarity","99","902515","0.0-6.0-93.0","1","[""img/0899/5b56dd3e-3f49-47cc-af84-16da6457753b.jpg"",""img/0868/0d3abd3a-b6c3-4584-a9f7-e2da63748b3d.jpg""]","",""
"","3193","similarity","100","906712","0.0-6.0-94.0","5","[""img/0903/8fcafe03-43df-4c45-9da5-0df3a1eeccc5.jpg"",""img/0862/e0f1a4e9-e1b6-45f7-af67-89f334e6630d.jpg""]","",""
"","3969","similarity","101","911685","0.0-6.0-95.0","6","[""img/0899/57476fed-5962-4272-8fc9-b317bb777b54.jpg"",""img/0766/d919cedb-f9b7-4f30-83bb-3e9c65001ceb.jpg""]","",""
"","4378","similarity","102","917069","0.0-6.0-96.0","7","[""img/0867/bf560d4f-dee3-4f11-a385-705cc1aa5f3c.jpg"",""img/0868/15dd6fd7-791e-4b53-b203-195d617521a4.jpg""]","",""
"","3629","similarity","103","921702","0.0-6.0-97.0","6","[""img/0862/5d887e9f-89e2-4ebc-80a0-6d46fe6480db.jpg"",""img/0901/1b86f2fc-7a1d-4aa8-9252-114f92edef3b.jpg""]","",""
"","4069","similarity","104","926777","0.0-6.0-98.0","2","[""img/0875/cff79b3a-a797-4393-9757-6275f999ec04.jpg"",""img/0766/0bf3793e-c353-45e5-ac6f-753f5f484e10.jpg""]","",""
"","4444","similarity","105","932227","0.0-6.0-99.0","6","[""img/0758/65d426d6-3ff6-415d-8654-a43b83ecc4fe.jpg"",""img/0874/c0378dac-9370-439a-8b79-db27c96fb390.jpg""]","",""
"","2485","similarity","106","935717","0.0-6.0-100.0","2","[""img/0904/0d25eb24-bb20-4e8d-9787-8b489558b4cb.jpg"",""img/0868/77091fc7-a590-4ebb-b915-fdb2483a2399.jpg""]","",""
"","2748","similarity","107","939472","0.0-6.0-101.0","1","[""img/0903/150cf64c-0bd2-4674-abbb-a1387cf1f3e9.jpg"",""img/0866/6f2a90d7-14f1-4f1b-bd64-fc0af6b9fe44.jpg""]","",""
"","5063","similarity","108","945541","0.0-6.0-102.0","5","[""img/0868/09a9ef4d-d000-4cfa-a6aa-ebec7c2edeb4.jpg"",""img/0769/1d8734c4-77ab-4165-9e71-5cfe672ff01c.jpg""]","",""
"","3894","similarity","109","950441","0.0-6.0-103.0","7","[""img/0902/01b41522-de46-4c3a-b0af-a61b2682b40e.jpg"",""img/0899/fd9efb43-701f-4cd6-baaa-4c38315f4bdc.jpg""]","",""
"","3471","similarity","110","954917","0.0-6.0-104.0","2","[""img/0868/4e626425-63c8-484a-8a1d-e66ee4e0bef8.jpg"",""img/0862/847e5208-38ec-4f36-949c-296cdd7424ee.jpg""]","",""
"","6006","similarity","111","961927","0.0-6.0-105.0","5","[""img/0903/47e39de8-6959-469f-8be9-6999a6db207c.jpg"",""img/0894/86201968-6e78-4d68-9b3a-d1692e066210.jpg""]","",""
"","3049","similarity","112","965980","0.0-6.0-106.0","7","[""img/0864/c3b63e8f-ea39-4d70-a1f2-b3fe4be8eb75.jpg"",""img/0874/7e4f2150-3b59-4a36-b5da-a4e0ba410531.jpg""]","",""
"","4269","similarity","113","971262","0.0-6.0-107.0","5","[""img/0862/99a99e39-8355-44ec-b993-e7bcec111e1c.jpg"",""img/0902/a6fb6dd5-696c-47ec-be7d-d7b88f1544f1.jpg""]","",""
"","2859","similarity","114","975129","0.0-6.0-108.0","6","[""img/0904/4d7d70a3-9477-4921-bda0-f9531d0a5c5b.jpg"",""img/0903/31b5a5f4-b695-4af1-bad2-a19650a05498.jpg""]","",""
"","4220","similarity","115","980357","0.0-6.0-109.0","3","[""img/0764/4eff630a-6426-4f8d-b2ba-b4d9842a0962.jpg"",""img/0864/1ebbc554-99fa-49f9-8799-317375a79820.jpg""]","",""
"","2851","similarity","116","984214","0.0-6.0-110.0","2","[""img/0866/9b38d691-1802-4959-ab3f-fc902f0e4ea6.jpg"",""img/0894/10f22b96-040c-44f4-950b-a4963f3f506c.jpg""]","",""
"","4735","similarity","117","989953","0.0-6.0-111.0","5","[""img/0899/d8f2dd94-570e-4e8c-a087-d96090fb9e8c.jpg"",""img/0903/680ed18e-b311-4ecf-9b00-7dea32128334.jpg""]","",""
"","3325","similarity","118","994282","0.0-6.0-112.0","6","[""img/0902/d2c34af0-8c50-437d-8cc3-619195a3e8ba.jpg"",""img/0904/6291eb43-c10c-4810-a36a-101d09868b04.jpg""]","",""
"","4024","similarity","119","999313","0.0-6.0-113.0","3","[""img/0864/4bd81bc6-c13d-46df-95a9-485886dc7c1b.jpg"",""img/0860/524b2e98-5767-4d53-942c-ebae6925659b.jpg""]","",""
"","3010","similarity","120","1003327","0.0-6.0-114.0","4","[""img/0860/4c530c3c-6aab-492a-94d1-9c01797bde40.jpg"",""img/0899/1b3457ea-87d4-4946-a01c-aac1863ed46c.jpg""]","",""
"","3258","similarity","121","1007590","0.0-6.0-115.0","2","[""img/0881/7e822106-76f7-4b10-a805-14dc68b2cfaf.jpg"",""img/0903/005ad0de-4f52-433c-b515-dbe8d46184a3.jpg""]","",""
"","5066","similarity","122","1013661","0.0-6.0-116.0","1","[""img/0894/2217bdcd-23a7-42d3-823b-23f2488d7e87.jpg"",""img/0874/8cdb1c07-1c32-46d2-981c-3636560fa6e5.jpg""]","",""
"","2822","similarity","123","1017490","0.0-6.0-117.0","4","[""img/0881/405484ae-0d00-4b05-bc57-6420a36adfac.jpg"",""img/0862/e8cc3bdf-cc43-4565-bccf-492626c70953.jpg""]","",""
"","3310","similarity","124","1021805","0.0-6.0-118.0","5","[""img/0868/1a62b2b2-18f5-466e-b564-5176a57c565e.jpg"",""img/0875/ebf7653f-ff45-4e9f-af58-2c042ab3cd2b.jpg""]","",""
"","2519","similarity","125","1025328","0.0-6.0-119.0","2","[""img/0860/e8b8c51e-1834-4875-8b61-6c5bc9b178bd.jpg"",""img/0758/b76ceca7-95ac-46e4-ac13-da02c8e93be9.jpg""]","",""
"","3553","similarity","126","1029885","0.0-6.0-120.0","5","[""img/0864/6f631579-acf1-415c-a42c-1207f62a8d99.jpg"",""img/0875/3ecb367d-e9eb-4826-8aaa-7aa72fb98019.jpg""]","",""
"","2951","similarity","127","1033841","0.0-6.0-121.0","5","[""img/0898/8605a25b-6895-476d-8c13-df7a83f96093.jpg"",""img/0866/0207e9a2-7dbb-40b5-9459-b472aaeceb2a.jpg""]","",""
"","3759","similarity","128","1038607","0.0-6.0-122.0","4","[""img/0874/3f471690-9788-4d03-90c7-f615aecef149.jpg"",""img/0904/a8c3c7d2-9bcf-4347-9e03-8203adfc1fc5.jpg""]","",""
"","3158","similarity","129","1042771","0.0-6.0-123.0","2","[""img/0904/9b3568cc-3cf7-42be-9df3-fdafde7a58b8.jpg"",""img/0864/49150900-7f25-4ce8-8d10-9b47a71d1997.jpg""]","",""
"","4307","similarity","130","1048084","0.0-6.0-124.0","6","[""img/0894/661b9f9f-4bde-487a-b1ed-87085fde6948.jpg"",""img/0902/94198618-7047-4dc9-ad04-85f4ba913067.jpg""]","",""
"","2966","similarity","131","1243638","0.0-6.0-125.0","3","[""img/0868/293079b8-7e0c-4afd-a390-1e5d35fe3ded.jpg"",""img/0864/3d4de670-b290-4285-9c3d-12a0e3af44e9.jpg""]","",""
"","2889","similarity","132","1247535","0.0-6.0-126.0","1","[""img/0899/fef567a2-c121-4481-9af0-ff108d199bbf.jpg"",""img/0866/f756f7d1-9ad8-4a34-9ef6-7a443d705bfe.jpg""]","",""
"","3575","similarity","133","1252115","0.0-6.0-127.0","3","[""img/0875/42910c99-5463-450a-a0f8-d4d060a11455.jpg"",""img/0904/0d17b811-063e-416e-a23c-3b3cfa4fcce5.jpg""]","",""
"","2949","similarity","134","1256070","0.0-6.0-128.0","2","[""img/0867/6e19c858-b606-45b2-a4c6-910a73f1d82c.jpg"",""img/0899/9de5e857-aa9a-4e0c-8ba2-46d79bd069a4.jpg""]","",""
"","6308","similarity","135","1263387","0.0-6.0-129.0","1","[""img/0901/a0d65c84-3f20-476a-92d1-0c01e8019cf4.jpg"",""img/0867/f8159067-056c-41f1-a136-c529fe5e970a.jpg""]","",""
"","3634","similarity","136","1268027","0.0-6.0-130.0","5","[""img/0864/b3c4e378-28f0-4699-9338-2a257b4bca04.jpg"",""img/0769/7c50e5f5-cc38-4d48-b009-fbe17bcea61c.jpg""]","",""
"","2397","similarity","137","1271430","0.0-6.0-131.0","2","[""img/0903/8f7f9939-b8e6-433f-93dd-b362496c80a7.jpg"",""img/0868/4bd5105a-d2c3-4f82-8c80-57196106ba53.jpg""]","",""
"","3030","similarity","138","1275465","0.0-6.0-132.0","4","[""img/0864/ea327690-500b-4137-bf91-451b309fe6a5.jpg"",""img/0867/a498eef3-9fa4-4ab2-9778-4ae82ac40dc5.jpg""]","",""
"","3272","similarity","139","1279742","0.0-6.0-133.0","3","[""img/0901/08d6d1d1-c043-43c4-bb08-d45e062822b9.jpg"",""img/0860/c7047cd2-7cc1-41b6-8a34-c0986774975f.jpg""]","",""
"","4797","similarity","140","1285544","0.0-6.0-134.0","3","[""img/0881/633c6f40-56d9-4b48-bf1c-ecd83116eabb.jpg"",""img/0766/d8221e53-2300-4d99-ae1b-0bfb0eabe579.jpg""]","",""
"","5628","similarity","141","1292177","0.0-6.0-135.0","3","[""img/0903/d987e220-f3e6-4b6d-a270-fe6757041f6d.jpg"",""img/0864/e336a4c5-6648-4fd7-b2f6-93a3fb83f8c6.jpg""]","",""
"","2686","similarity","142","1295868","0.0-6.0-136.0","2","[""img/0758/61d64021-9214-4951-bdf8-f871f9827cf9.jpg"",""img/0894/7dd6ff43-f8fc-408a-8a41-a2b261871820.jpg""]","",""
"","3087","similarity","143","1299960","0.0-6.0-137.0","3","[""img/0769/3c1203c5-2ce7-466e-957a-8d77b5905460.jpg"",""img/0860/d9a0d117-6d1d-41c0-8fec-9aff0fd9e9f2.jpg""]","",""
"","3800","similarity","144","1304766","0.0-6.0-138.0","4","[""img/0904/b5855d6a-7ef9-46ca-9215-6e9fa046e543.jpg"",""img/0766/a754e4b6-5019-4cf4-8f58-34c20547a1f5.jpg""]","",""
"","3251","similarity","145","1309022","0.0-6.0-139.0","3","[""img/0868/d98ca254-b195-477f-b57e-5760a2717db8.jpg"",""img/0860/4f695df5-afac-4da7-9875-fee39b0b24ad.jpg""]","",""
"","3207","similarity","146","1313235","0.0-6.0-140.0","5","[""img/0758/d57c2592-a317-4f63-91be-91a3a9afd222.jpg"",""img/0864/0116ca98-293d-4fa6-a93b-5a6144ef64cc.jpg""]","",""
"","2813","similarity","147","1317055","0.0-6.0-141.0","6","[""img/0867/179ab87a-8eac-4c52-a41f-2e48e3120f09.jpg"",""img/0867/8ba0c5a7-c7e4-42cf-a80a-543763b90779.jpg""]","",""
"","3568","similarity","148","1321628","0.0-6.0-142.0","7","[""img/0898/ec565187-2e31-4fdd-9a5c-153d0c789ae0.jpg"",""img/0898/5f699581-3853-4547-856c-12f419ba5af7.jpg""]","",""
"","4462","similarity","149","1327096","0.0-6.0-143.0","5","[""img/0866/945c6710-d15b-4a5b-a8f6-69af0850357f.jpg"",""img/0769/04347740-f8f6-48bb-887a-f68babd0a0d4.jpg""]","",""
"","3455","similarity","150","1331556","0.0-6.0-144.0","6","[""img/0860/e14d67c1-6d92-4f1e-9257-c8607159c19c.jpg"",""img/0898/08c72dac-f8ad-407a-9ce6-8c9a5d679c3a.jpg""]","",""
"","5556","similarity","151","1338117","0.0-6.0-145.0","6","[""img/0766/110832e5-2646-4bd0-a94e-5df8cc314269.jpg"",""img/0864/1d15626a-2f7c-410f-819c-0fa2c967e95e.jpg""]","",""
"","3279","similarity","152","1342403","0.0-6.0-146.0","6","[""img/0860/61fb959d-d4d9-4de4-9e4e-4fa62b4cfcd5.jpg"",""img/0903/8c358e9e-a4f4-466e-8b93-7aec0d2358e8.jpg""]","",""
"","5755","similarity","153","1349163","0.0-6.0-147.0","1","[""img/0867/aa05d113-fc19-4756-a8eb-7878f580bc92.jpg"",""img/0764/17b088f8-3053-4140-b544-d15654cc79ef.jpg""]","",""
"","3216","similarity","154","1353385","0.0-6.0-148.0","5","[""img/0769/a1ce8d07-ba37-40de-bade-2778805521e0.jpg"",""img/0904/2f88ce53-02d0-4f95-a082-182c56a0eeb4.jpg""]","",""
"","4834","similarity","155","1359225","0.0-6.0-149.0","4","[""img/0764/978aede9-4590-4ad0-b234-135c83e5d669.jpg"",""img/0901/c6c877e0-dd63-4e00-9657-33af29d55aab.jpg""]","",""
"","5648","similarity","156","1365877","0.0-6.0-150.0","5","[""img/0904/9dd5708f-3f8b-46a9-b49f-2f2fab87b357.jpg"",""img/0899/a048912c-b12c-40e3-90af-46b69b0cc4fe.jpg""]","",""
"","2447","similarity","157","1369329","0.0-6.0-151.0","2","[""img/0862/53a9cf7c-93c4-41b9-952f-07d17f7a17b2.jpg"",""img/0867/db7e032f-162b-46f5-ae67-2b29679adee4.jpg""]","",""
"","4042","similarity","158","1374375","0.0-6.0-152.0","7","[""img/0766/aaec5f42-7f0a-4a16-aeca-488d757acbcc.jpg"",""img/0766/ef3b15ce-abb7-4292-ad93-aec8e8b50520.jpg""]","",""
"","6730","similarity","159","1382112","0.0-6.0-153.0","2","[""img/0862/ba89835a-408c-480b-8594-ed4ffa97eb5c.jpg"",""img/0894/bd34223a-2f66-4e16-9d18-193a746b69ff.jpg""]","",""
"","3818","similarity","160","1386933","0.0-6.0-154.0","3","[""img/0899/66ab3178-c3fe-4455-ad17-d5952b08e018.jpg"",""img/0901/58ec7fa9-b466-4651-90aa-c082df0972de.jpg""]","",""
"","4408","similarity","161","1392346","0.0-6.0-155.0","5","[""img/0874/a3bc679d-619f-4db6-bb68-116dcb757d9c.jpg"",""img/0874/1016b306-087c-4afc-aa08-fa527b28dc76.jpg""]","",""
"","3777","similarity","162","1397127","0.0-6.0-156.0","2","[""img/0860/702bd09d-df3a-40aa-a267-5f04474305b5.jpg"",""img/0867/12264664-1860-46df-8c21-162b9817cdda.jpg""]","",""
"","2920","similarity","163","1401053","0.0-6.0-157.0","1","[""img/0901/5657dd86-0ff9-4753-ba2b-9dfb223e5c89.jpg"",""img/0881/d373cb9f-a719-4549-a2a4-82def79fb2a5.jpg""]","",""
"","4703","similarity","164","1406760","0.0-6.0-158.0","6","[""img/0903/70d764d9-1f35-4da7-a35d-4cc39834d270.jpg"",""img/0902/cf9dee9c-2bdf-4d64-9302-97f1660fe52c.jpg""]","",""
"","3471","similarity","165","1411236","0.0-6.0-159.0","3","[""img/0860/99c589b9-9140-4d17-90c0-b344323edcda.jpg"",""img/0764/f64dfa83-333d-494c-87b5-73e942f1766e.jpg""]","",""
"","3399","similarity","166","1415642","0.0-6.0-160.0","2","[""img/0902/b03fee99-d5ca-4bf8-871c-a4a743a39842.jpg"",""img/0875/2e13d160-eea1-416b-aff1-d37ab99ecc1d.jpg""]","",""
"","2741","similarity","167","1419388","0.0-6.0-161.0","3","[""img/0898/0c7dde4f-efce-4b7a-9387-6921635b7890.jpg"",""img/0862/92fcd8a4-8193-4a6a-ae09-dd4a6338b0df.jpg""]","",""
"","3025","similarity","168","1423423","0.0-6.0-162.0","2","[""img/0894/e2446cf5-cd48-486a-badc-76498e087fbe.jpg"",""img/0875/dbdd643e-6d0e-4a5c-ab57-b9c29b9c981a.jpg""]","",""
"","8854","similarity","169","1433283","0.0-6.0-163.0","2","[""img/0866/620cd1aa-0800-4414-8f6e-90342e7a99ad.jpg"",""img/0864/c22faebd-9c53-47bc-ada3-b9a30c688e75.jpg""]","",""
"","3590","similarity","170","1437879","0.0-6.0-164.0","3","[""img/0766/717fd72f-a281-499b-a5ba-5e2ecc4d4866.jpg"",""img/0862/1c20f772-3a51-4a80-aac0-f57dc9f86c28.jpg""]","",""
"","3225","similarity","171","1442109","0.0-6.0-165.0","1","[""img/0866/a15b02be-11bb-43e3-b0e0-ecc3bd7dfc49.jpg"",""img/0874/85eb9b8a-c4c6-4e5a-b8e7-363a87a82054.jpg""]","",""
"","3474","similarity","172","1446587","0.0-6.0-166.0","6","[""img/0862/d0ca4c78-fc35-46ed-bdcc-8e124283c53e.jpg"",""img/0860/18dfed73-e36b-4487-a8bd-0b8cff8e3668.jpg""]","",""
"","2590","similarity","173","1555608","0.0-6.0-167.0","3","[""img/0766/f5f78e4e-d88f-4866-951a-118ba9fec4d0.jpg"",""img/0901/a373612d-67e2-4fec-9764-21d3d6ef6359.jpg""]","",""
"","3825","similarity","174","1560439","0.0-6.0-168.0","7","[""img/0862/de9ad88c-b522-430a-8ee9-eb06a9f85df5.jpg"",""img/0862/57b6f83f-c763-4858-830d-102f97bfefbf.jpg""]","",""
"","3679","similarity","175","1565123","0.0-6.0-169.0","5","[""img/0894/9b1333fd-3561-43bf-aee5-99b7b7ca3dc3.jpg"",""img/0764/1def7b22-b054-4ec2-860b-73d25691823b.jpg""]","",""
"","4299","similarity","176","1570428","0.0-6.0-170.0","5","[""img/0874/adf9a8f1-c40b-402b-b95b-1e85a54a7b62.jpg"",""img/0898/6cd3830b-d44e-4915-be2b-88d31424b91c.jpg""]","",""
"","4360","similarity","177","1575794","0.0-6.0-171.0","2","[""img/0860/87039971-2210-4aab-93c0-8e9b5f1655b2.jpg"",""img/0766/f011ef45-fb48-44b8-8224-867ed2ccf786.jpg""]","",""
"","2566","similarity","178","1579365","0.0-6.0-172.0","2","[""img/0898/661621d4-a14e-487c-8c74-354134a29710.jpg"",""img/0864/0f537697-a314-47c3-a8cc-8df23b7e536c.jpg""]","",""
"","4025","similarity","179","1584395","0.0-6.0-173.0","6","[""img/0881/ed4c971f-0873-4fc8-b6d6-e8bbd82f0bcc.jpg"",""img/0764/5c8fbafc-e62e-43ed-9b37-f73e8e45147d.jpg""]","",""
"","3326","similarity","180","1588727","0.0-6.0-174.0","1","[""img/0898/0af304a2-6a7a-4082-ab7c-4450cd08cc58.jpg"",""img/0868/d6d1f30d-4323-435a-b194-7892521bc57e.jpg""]","",""
"","3856","similarity","181","1593589","0.0-6.0-175.0","7","[""img/0864/a248adb3-c70b-4652-b7a3-776d2a1e904b.jpg"",""img/0864/66091c27-e588-4476-8af9-265dc6be4156.jpg""]","",""
"","4080","similarity","182","1598675","0.0-6.0-176.0","2","[""img/0899/565ccdd9-0933-4536-a625-3c0e25a713dd.jpg"",""img/0862/064818ee-13d5-4618-bb24-21c7368ea278.jpg""]","",""
"","7038","similarity","183","1606718","0.0-6.0-177.0","2","[""img/0875/5a716432-c6ca-4b1c-955a-2b8ac25198ee.jpg"",""img/0758/a085b443-b5d7-4cb2-9ad4-b9dab0fc23f1.jpg""]","",""
"","2549","similarity","184","1610274","0.0-6.0-178.0","2","[""img/0866/386235d2-6857-41e7-88a8-25cfc3430025.jpg"",""img/0901/8bb79e82-9c43-4b6f-a655-40655519598b.jpg""]","",""
"","4109","similarity","185","1615388","0.0-6.0-179.0","6","[""img/0769/35364db7-e0d5-40ef-93dc-faf9dfb95136.jpg"",""img/0874/ca23d307-fc00-4d7d-9106-584c6eb21b4d.jpg""]","",""
"","2877","similarity","186","1619271","0.0-6.0-180.0","2","[""img/0875/03c3c331-738b-4446-af92-3d7386b08c2e.jpg"",""img/0881/48ed65a5-471f-41af-86ec-3793805c116d.jpg""]","",""
"","2953","similarity","187","1623229","0.0-6.0-181.0","3","[""img/0866/93a27239-8317-4e08-98ca-d8b1ff298e07.jpg"",""img/0868/6a28c3b0-3d76-498a-9fb7-ddafc665eca8.jpg""]","",""
"","3007","similarity","188","1627240","0.0-6.0-182.0","5","[""img/0899/00715b3f-851b-420b-a26b-d7f79f7759a9.jpg"",""img/0758/7ffbc76b-1fc1-432c-8f7e-9ec8d1b3f643.jpg""]","",""
"","2164","similarity","189","1630410","0.0-6.0-183.0","4","[""img/0874/99f6563c-8a8d-4c1c-a41d-667b618c3fd5.jpg"",""img/0875/5a1e5100-0d94-4fec-bbe9-ca9894d2cf8e.jpg""]","",""
"","2919","similarity","190","1634334","0.0-6.0-184.0","2","[""img/0904/d23dd7be-7fe8-4435-82f7-bd592c01e6a1.jpg"",""img/0862/fad1d7c1-8187-43c3-942a-0fc12183e48e.jpg""]","",""
"","3992","similarity","191","1639332","0.0-6.0-185.0","5","[""img/0902/51493fab-2a10-4385-aa88-bee3db441626.jpg"",""img/0766/79767d11-b612-4e8a-9e4b-a8ac95bb6a54.jpg""]","",""
"","2911","similarity","192","1643246","0.0-6.0-186.0","3","[""img/0758/20497cbe-ddae-489e-86e2-ab06985ed07c.jpg"",""img/0769/48a1144d-fbda-4809-991b-fc8424a32ee4.jpg""]","",""
"","3208","similarity","193","1647459","0.0-6.0-187.0","7","[""img/0881/dea58fad-b4f1-41d9-bd3f-916eff19a3fd.jpg"",""img/0881/566f45f8-5fed-4479-a60f-26377e60a62d.jpg""]","",""
"","3217","similarity","194","1651682","0.0-6.0-188.0","3","[""img/0758/67c0be2f-9e91-48b3-8219-70ac0a1802fa.jpg"",""img/0866/8efcaa46-83ab-4dee-a35f-850402aa21ae.jpg""]","",""
"","4088","similarity","195","1656776","0.0-6.0-189.0","5","[""img/0764/da207710-e7e4-4f42-b2e6-99b5f357f433.jpg"",""img/0898/26c41340-15bd-4ead-8fe4-c0d0ddca09c2.jpg""]","",""
"","3674","similarity","196","1661458","0.0-6.0-190.0","4","[""img/0903/f1fa0f8d-e62b-4b4a-a174-31a0fabfe61b.jpg"",""img/0901/443f2e59-199b-4f7b-9de9-c44ad97326a5.jpg""]","",""
"","3477","similarity","197","1665941","0.0-6.0-191.0","6","[""img/0902/95a36b6b-9601-4fa5-8fd9-606ea62f9425.jpg"",""img/0898/04e39a7a-fcf6-4156-ab0e-f5871f335e1c.jpg""]","",""
"","5598","similarity","198","1672544","0.0-6.0-192.0","2","[""img/0864/afcba0a3-7e27-4757-b254-e9f05fad27e2.jpg"",""img/0901/effc03f6-8f9d-46db-a66c-16fc83891c5c.jpg""]","",""
"","3286","similarity","199","1676837","0.0-6.0-193.0","3","[""img/0894/7fb082e0-ce79-485c-9109-04367fb32275.jpg"",""img/0881/4da99fdd-1f40-4bbb-8e21-8833eef313f5.jpg""]","",""
"","4819","similarity","200","1682660","0.0-6.0-194.0","6","[""img/0868/5fa7f9d0-f0e5-454c-8224-74d964818f56.jpg"",""img/0868/e0aff734-077f-40dd-9781-74821abd3621.jpg""]","",""
"","2837","similarity","201","1686503","0.0-6.0-195.0","5","[""img/0899/f58b8d2f-b19d-4b59-8b94-8834be92e4ba.jpg"",""img/0764/c01e2d65-6586-441b-bef5-3c96fcd85380.jpg""]","",""
"","4656","similarity","202","1692166","0.0-6.0-196.0","5","[""img/0881/f6bd3b96-dc40-4e99-8681-bc3a35cf896d.jpg"",""img/0904/06dacdc5-2206-4fb8-92b7-88042d22833c.jpg""]","",""
"","2791","similarity","203","1695963","0.0-6.0-197.0","3","[""img/0864/da39ad34-04e0-40d4-a724-c08d53e0ea09.jpg"",""img/0902/04a6ad4a-afc6-4871-8225-56b299af7b6b.jpg""]","",""
"","5550","similarity","204","1702517","0.0-6.0-198.0","5","[""img/0894/38cf335f-f76f-4349-8d65-e20cd6859565.jpg"",""img/0904/09dac84f-3d1c-4445-a68e-d0389fdbf1e9.jpg""]","",""
"","3167","similarity","205","1706689","0.0-6.0-199.0","6","[""img/0901/233a6948-48eb-4b67-8259-222b916b2322.jpg"",""img/0901/a6c90438-fa7c-4418-ac7c-16c2e772dd98.jpg""]","",""
"","2303","similarity","206","1709996","0.0-6.0-200.0","2","[""img/0894/0130a973-d993-41f8-874a-fee23d9ac11f.jpg"",""img/0860/15b24a61-25be-4356-9eac-5ce95d0cb4a4.jpg""]","",""
"","2189","similarity","207","1713190","0.0-6.0-201.0","4","[""img/0898/993d8f2d-bef7-4251-a193-0f93a32b7763.jpg"",""img/0903/e2e55a9e-0397-4dc0-8adf-4a54cfefe1fe.jpg""]","",""
"","2702","similarity","208","1716896","0.0-6.0-202.0","2","[""img/0864/5f33e097-23e3-4002-882d-76e8cb15f451.jpg"",""img/0894/b2d2f66e-e480-46da-a02a-6d0c6b285d78.jpg""]","",""
"","4073","similarity","209","1721974","0.0-6.0-203.0","3","[""img/0874/29830da7-be5f-44e5-b141-652a0ccf7269.jpg"",""img/0860/9593362c-9fe5-4d12-9735-6000a11f6aa5.jpg""]","",""
"","2425","similarity","210","1725404","0.0-6.0-204.0","1","[""img/0862/f23038d4-c366-4f70-979f-66b62362efa4.jpg"",""img/0875/34132396-d896-4c2d-8087-646dd867e769.jpg""]","",""
"","3025","similarity","211","1729434","0.0-6.0-205.0","3","[""img/0867/50a1b60e-3a29-44bf-b606-d4bd3746fea9.jpg"",""img/0881/4bd34581-94d8-4e88-8c89-5cef864ca3be.jpg""]","",""
"","3266","similarity","212","1733708","0.0-6.0-206.0","3","[""img/0901/58978a6d-a3e2-4c59-8d62-f60693ecc0f6.jpg"",""img/0902/22ed3536-288b-452e-9777-0fa0ab94deb0.jpg""]","",""
"","3517","similarity","213","1738230","0.0-6.0-207.0","2","[""img/0899/25ae6ec8-9565-49fe-a8bb-8d0666f52716.jpg"",""img/0864/e8bd659f-aa43-4748-877e-3118e8b4e189.jpg""]","",""
"","3366","similarity","214","1742602","0.0-6.0-208.0","1","[""img/0901/b123d109-47b4-4f9a-80c9-9bb16da42efa.jpg"",""img/0769/f73c5138-2f4c-4354-981c-129dff9cc734.jpg""]","",""
"","4815","similarity","215","1749686","0.0-6.0-209.0","5","[""img/0902/b76efc44-a50f-4dac-b997-ff0222376067.jpg"",""img/0902/31abfa33-7cdb-44ad-968e-9f7b324d577a.jpg""]","",""
"[{""page_index"":0,""viewing_time"":6469}]","6470","instructions","216","1757157","0.0-7.0","","","",""
"","16745","image-multi-choice","217","1774921","0.0-8.0-0.0","","","{""Q0"":""Yellow Warbler""}","Nashville Warbler"
"","10619","image-multi-choice","218","1786553","0.0-8.0-1.0","","","{""Q0"":""Black-and-white Warbler""}","Black-and-white Warbler"
"","5720","image-multi-choice","219","1793289","0.0-8.0-2.0","","","{""Q0"":""Blackburnian Warbler""}","Townsend's Warbler"
"","26504","image-multi-choice","220","1820806","0.0-8.0-3.0","","","{""Q0"":""White-throated Sparrow""}","Lark Sparrow"
"","3182","image-multi-choice","221","1825002","0.0-8.0-4.0","","","{""Q0"":""Yellow Warbler""}","Yellow Warbler"
"","4871","image-multi-choice","222","1830886","0.0-8.0-5.0","","","{""Q0"":""Townsend's Warbler""}","Orange-crowned Warbler"
"","12106","image-multi-choice","223","1844007","0.0-8.0-6.0","","","{""Q0"":""Lincoln's Sparrow""}","White-throated Sparrow"
"","12400","image-multi-choice","224","1857418","0.0-8.0-7.0","","","{""Q0"":""Northern Waterthrush""}","Fox Sparrow"
"","7629","image-multi-choice","225","1866060","0.0-8.0-8.0","","","{""Q0"":""Fox Sparrow""}","Song Sparrow"
"","7711","image-multi-choice","226","1874785","0.0-8.0-9.0","","","{""Q0"":""Black-and-white Warbler""}","Blackburnian Warbler"
"","11070","image-multi-choice","227","1886868","0.0-8.0-10.0","","","{""Q0"":""Vesper Sparrow""}","Vesper Sparrow"
"","5432","image-multi-choice","228","1893316","0.0-8.0-11.0","","","{""Q0"":""White-crowned Sparrow""}","White-crowned Sparrow"
"","17969","image-multi-choice","229","1912297","0.0-8.0-12.0","","","{""Q0"":""Chipping Sparrow""}","American Tree Sparrow"
"","8510","image-multi-choice","230","1921819","0.0-8.0-13.0","","","{""Q0"":""Orange-crowned Warbler""}","Tennessee Warbler"
"","22502","image-multi-choice","231","1945335","0.0-8.0-14.0","","","{""Q0"":""Black-and-white Warbler""}","Magnolia Warbler"
"","8627","image-multi-choice","232","1954977","0.0-8.0-15.0","","","{""Q0"":""Ovenbird""}","Northern Waterthrush"
"","10755","image-multi-choice","233","1966746","0.0-8.0-16.0","","","{""Q0"":""Chipping Sparrow""}","Chipping Sparrow"
"","5539","image-multi-choice","234","1973297","0.0-8.0-17.0","","","{""Q0"":""Swamp Sparrow""}","Swamp Sparrow"
"","6487","image-multi-choice","235","1980797","0.0-8.0-18.0","","","{""Q0"":""Vesper Sparrow""}","Lincoln's Sparrow"
"","11723","image-multi-choice","236","1993534","0.0-8.0-19.0","","","{""Q0"":""Ovenbird""}","Ovenbird"
