[{"view_history":"[{\"page_index\":0,\"viewing_time\":23878}]","rt":23879,"trial_type":"instructions","trial_index":0,"time_elapsed":23881,"internal_node_id":"0.0-0.0"},{"sim_score":5,"rt":6551,"stimulus":"[\"img/866.jpg\",\"img/868.jpg\"]","trial_type":"similarity_demo","trial_index":1,"time_elapsed":31445,"internal_node_id":"0.0-1.0"},{"view_history":"[{\"page_index\":0,\"viewing_time\":14545}]","rt":14546,"trial_type":"instructions","trial_index":2,"time_elapsed":47007,"internal_node_id":"0.0-2.0"},{"sim_score":2,"rt":13861,"stimulus":"[\"img/766.jpg\",\"img/867.jpg\"]","trial_type":"similarity_demo","trial_index":3,"time_elapsed":61878,"internal_node_id":"0.0-3.0"},{"view_history":"[{\"page_index\":0,\"viewing_time\":7836}]","rt":7837,"trial_type":"instructions","trial_index":4,"time_elapsed":70731,"internal_node_id":"0.0-4.0"},{"view_history":"[{\"page_index\":0,\"viewing_time\":35202}]","rt":35202,"trial_type":"instructions","trial_index":5,"time_elapsed":106946,"internal_node_id":"0.0-5.0"},{"sim_score":3,"rt":8975,"stimulus":"[\"img/0868/d98ca254-b195-477f-b57e-5760a2717db8.jpg\",\"img/0901/d6d15b1c-4a30-4f74-a3fd-d4c8ee4169ca.jpg\"]","trial_type":"similarity","trial_index":6,"time_elapsed":116932,"internal_node_id":"0.0-6.0-0.0"},{"sim_score":2,"rt":7333,"stimulus":"[\"img/0769/387a9744-d6a7-42b8-bab8-33007ec434aa.jpg\",\"img/0867/12264664-1860-46df-8c21-162b9817cdda.jpg\"]","trial_type":"similarity","trial_index":7,"time_elapsed":125281,"internal_node_id":"0.0-6.0-1.0"},{"sim_score":2,"rt":5674,"stimulus":"[\"img/0766/f3276cc4-65de-4c2d-88d5-6cfebce14b8f.jpg\",\"img/0898/0af304a2-6a7a-4082-ab7c-4450cd08cc58.jpg\"]","trial_type":"similarity","trial_index":8,"time_elapsed":131965,"internal_node_id":"0.0-6.0-2.0"},{"sim_score":3,"rt":10161,"stimulus":"[\"img/0902/9f543501-3cf1-45a7-a2f1-eeca87cc15b9.jpg\",\"img/0881/2a8413be-fec2-4de6-88ad-614dd4cccc9d.jpg\"]","trial_type":"similarity","trial_index":9,"time_elapsed":143145,"internal_node_id":"0.0-6.0-3.0"},{"sim_score":7,"rt":5844,"stimulus":"[\"img/0894/e6385e52-6c35-43bd-b0af-bc803d107b11.jpg\",\"img/0894/e5edf723-72a5-4673-8441-6c1734a8929b.jpg\"]","trial_type":"similarity","trial_index":10,"time_elapsed":149994,"internal_node_id":"0.0-6.0-4.0"},{"sim_score":1,"rt":7183,"stimulus":"[\"img/0874/ca23d307-fc00-4d7d-9106-584c6eb21b4d.jpg\",\"img/0899/57476fed-5962-4272-8fc9-b317bb777b54.jpg\"]","trial_type":"similarity","trial_index":11,"time_elapsed":158186,"internal_node_id":"0.0-6.0-5.0"},{"sim_score":2,"rt":6646,"stimulus":"[\"img/0904/9b3568cc-3cf7-42be-9df3-fdafde7a58b8.jpg\",\"img/0764/6ef77040-1fae-4afa-bfe7-eda98e6d0376.jpg\"]","trial_type":"similarity","trial_index":12,"time_elapsed":165851,"internal_node_id":"0.0-6.0-6.0"},{"sim_score":3,"rt":8220,"stimulus":"[\"img/0899/0adc0bc3-6fca-4078-be6f-d45ddf1653d5.jpg\",\"img/0898/993d8f2d-bef7-4251-a193-0f93a32b7763.jpg\"]","trial_type":"similarity","trial_index":13,"time_elapsed":175090,"internal_node_id":"0.0-6.0-7.0"},{"sim_score":1,"rt":6228,"stimulus":"[\"img/0874/767f289c-9814-4496-803f-745cc8913d1f.jpg\",\"img/0903/2c7b4aed-6038-4aac-958a-e3e58341c313.jpg\"]","trial_type":"similarity","trial_index":14,"time_elapsed":182331,"internal_node_id":"0.0-6.0-8.0"},{"sim_score":6,"rt":7788,"stimulus":"[\"img/0881/6b1189e6-232d-4042-8885-16dc7b10e0d4.jpg\",\"img/0758/61d64021-9214-4951-bdf8-f871f9827cf9.jpg\"]","trial_type":"similarity","trial_index":15,"time_elapsed":191127,"internal_node_id":"0.0-6.0-9.0"},{"sim_score":4,"rt":6546,"stimulus":"[\"img/0898/c3cecf20-f7fd-45fa-97d0-dc0a63e8d6c0.jpg\",\"img/0901/3db47171-0139-4235-82cd-0b1787b6775f.jpg\"]","trial_type":"similarity","trial_index":16,"time_elapsed":198691,"internal_node_id":"0.0-6.0-10.0"},{"sim_score":5,"rt":8489,"stimulus":"[\"img/0903/b4a0f61e-a964-4b79-a9a7-f767a8f92f34.jpg\",\"img/0769/1d8734c4-77ab-4165-9e71-5cfe672ff01c.jpg\"]","trial_type":"similarity","trial_index":17,"time_elapsed":208195,"internal_node_id":"0.0-6.0-11.0"},{"sim_score":1,"rt":5263,"stimulus":"[\"img/0764/da207710-e7e4-4f42-b2e6-99b5f357f433.jpg\",\"img/0868/3a62db2d-97e9-44a3-b8e3-a48c6f0e423b.jpg\"]","trial_type":"similarity","trial_index":18,"time_elapsed":214469,"internal_node_id":"0.0-6.0-12.0"},{"sim_score":1,"rt":4529,"stimulus":"[\"img/0867/f26f6b60-f772-4f4c-95a4-addc62cfd692.jpg\",\"img/0903/24477210-856c-4550-9de0-9f85a32762eb.jpg\"]","trial_type":"similarity","trial_index":19,"time_elapsed":220003,"internal_node_id":"0.0-6.0-13.0"},{"sim_score":1,"rt":5467,"stimulus":"[\"img/0766/ae0fce93-fe8d-4aa1-87ca-4c3e4b889f2f.jpg\",\"img/0758/3ddd05d3-557e-4ee7-8b78-9d2d681d8ae2.jpg\"]","trial_type":"similarity","trial_index":20,"time_elapsed":226473,"internal_node_id":"0.0-6.0-14.0"},{"sim_score":3,"rt":5886,"stimulus":"[\"img/0902/6c2c243a-f663-45db-baf5-038d3d58c589.jpg\",\"img/0860/8fdba999-b946-4c7d-9891-336018b563ef.jpg\"]","trial_type":"similarity","trial_index":21,"time_elapsed":233375,"internal_node_id":"0.0-6.0-15.0"},{"sim_score":1,"rt":5541,"stimulus":"[\"img/0769/04347740-f8f6-48bb-887a-f68babd0a0d4.jpg\",\"img/0875/527ced51-8e53-4aab-ab05-86df219104c0.jpg\"]","trial_type":"similarity","trial_index":22,"time_elapsed":239931,"internal_node_id":"0.0-6.0-16.0"},{"sim_score":3,"rt":7361,"stimulus":"[\"img/0904/d23dd7be-7fe8-4435-82f7-bd592c01e6a1.jpg\",\"img/0866/07c9c966-3c8d-40e7-8128-92b2acbaed5d.jpg\"]","trial_type":"similarity","trial_index":23,"time_elapsed":248304,"internal_node_id":"0.0-6.0-17.0"},{"sim_score":7,"rt":5259,"stimulus":"[\"img/0875/d59ff733-eaff-4ee2-9443-06954dd0bcb6.jpg\",\"img/0875/90da8d75-108a-44ad-b999-e21fee3860d3.jpg\"]","trial_type":"similarity","trial_index":24,"time_elapsed":254570,"internal_node_id":"0.0-6.0-18.0"},{"sim_score":5,"rt":9102,"stimulus":"[\"img/0758/2fa3e613-e676-4e6e-bd12-705327eeb3e1.jpg\",\"img/0758/6e95579b-5166-487c-b8cb-e417c6a218e3.jpg\"]","trial_type":"similarity","trial_index":25,"time_elapsed":264678,"internal_node_id":"0.0-6.0-19.0"},{"sim_score":1,"rt":5443,"stimulus":"[\"img/0902/fbef27fa-ac83-4936-ab78-9d1c20a383e1.jpg\",\"img/0874/93d1f8dc-acf2-4f03-bd8d-8ec35df276ed.jpg\"]","trial_type":"similarity","trial_index":26,"time_elapsed":271125,"internal_node_id":"0.0-6.0-20.0"},{"sim_score":4,"rt":6902,"stimulus":"[\"img/0764/f9f890e6-3c2f-40cd-84e9-85e0b54cb28e.jpg\",\"img/0769/8c7cf147-1780-4d5c-8ddf-5ea23ff03ac9.jpg\"]","trial_type":"similarity","trial_index":27,"time_elapsed":279033,"internal_node_id":"0.0-6.0-21.0"},{"sim_score":2,"rt":7430,"stimulus":"[\"img/0901/31c032fd-3c3d-4882-a226-da9a80198937.jpg\",\"img/0874/8cdb1c07-1c32-46d2-981c-3636560fa6e5.jpg\"]","trial_type":"similarity","trial_index":28,"time_elapsed":287477,"internal_node_id":"0.0-6.0-22.0"},{"sim_score":2,"rt":6191,"stimulus":"[\"img/0875/fb732ab5-013a-4366-9f65-27811ed157e9.jpg\",\"img/0903/6378ee1e-3d2b-48d2-87be-bebda32c8268.jpg\"]","trial_type":"similarity","trial_index":29,"time_elapsed":294671,"internal_node_id":"0.0-6.0-23.0"},{"sim_score":1,"rt":3744,"stimulus":"[\"img/0769/662ab839-88d1-4ebf-af05-9b2980cad943.jpg\",\"img/0881/7e822106-76f7-4b10-a805-14dc68b2cfaf.jpg\"]","trial_type":"similarity","trial_index":30,"time_elapsed":299427,"internal_node_id":"0.0-6.0-24.0"},{"sim_score":1,"rt":5194,"stimulus":"[\"img/0867/aa05d113-fc19-4756-a8eb-7878f580bc92.jpg\",\"img/0904/6291eb43-c10c-4810-a36a-101d09868b04.jpg\"]","trial_type":"similarity","trial_index":31,"time_elapsed":305636,"internal_node_id":"0.0-6.0-25.0"},{"sim_score":1,"rt":5949,"stimulus":"[\"img/0860/94ef7afc-e0e6-4a15-98c6-0bfac82bc832.jpg\",\"img/0881/f037e3b0-09cb-4a83-b2d9-6a71fe474e63.jpg\"]","trial_type":"similarity","trial_index":32,"time_elapsed":312592,"internal_node_id":"0.0-6.0-26.0"},{"sim_score":7,"rt":4877,"stimulus":"[\"img/0866/4a87911a-d5be-4d4e-ab8e-3d1f581bf507.jpg\",\"img/0866/8efcaa46-83ab-4dee-a35f-850402aa21ae.jpg\"]","trial_type":"similarity","trial_index":33,"time_elapsed":318489,"internal_node_id":"0.0-6.0-27.0"},{"sim_score":3,"rt":10359,"stimulus":"[\"img/0764/50f1b062-d608-4bc0-ab25-b872dcf2ed93.jpg\",\"img/0862/92fcd8a4-8193-4a6a-ae09-dd4a6338b0df.jpg\"]","trial_type":"similarity","trial_index":34,"time_elapsed":329856,"internal_node_id":"0.0-6.0-28.0"},{"sim_score":1,"rt":5384,"stimulus":"[\"img/0904/2fd488e9-960f-41f7-8a44-33375f7d5051.jpg\",\"img/0758/6cd8c362-ae2a-41eb-80a3-3a4f7ace1530.jpg\"]","trial_type":"similarity","trial_index":35,"time_elapsed":336247,"internal_node_id":"0.0-6.0-29.0"},{"sim_score":2,"rt":8920,"stimulus":"[\"img/0894/3adef67d-7676-4995-80b2-bb31b8aca3ef.jpg\",\"img/0899/f58b8d2f-b19d-4b59-8b94-8834be92e4ba.jpg\"]","trial_type":"similarity","trial_index":36,"time_elapsed":346185,"internal_node_id":"0.0-6.0-30.0"},{"sim_score":5,"rt":5776,"stimulus":"[\"img/0860/18dfed73-e36b-4487-a8bd-0b8cff8e3668.jpg\",\"img/0904/696ebb60-8891-417a-91fd-c53218907a95.jpg\"]","trial_type":"similarity","trial_index":37,"time_elapsed":352975,"internal_node_id":"0.0-6.0-31.0"},{"sim_score":6,"rt":5728,"stimulus":"[\"img/0874/a3bc679d-619f-4db6-bb68-116dcb757d9c.jpg\",\"img/0881/adc02f34-ce97-4aef-850f-00519df06fd7.jpg\"]","trial_type":"similarity","trial_index":38,"time_elapsed":359712,"internal_node_id":"0.0-6.0-32.0"},{"sim_score":5,"rt":5837,"stimulus":"[\"img/0881/48ed65a5-471f-41af-86ec-3793805c116d.jpg\",\"img/0899/76ad07e2-ca25-45eb-84f2-8d80b8ca3e26.jpg\"]","trial_type":"similarity","trial_index":39,"time_elapsed":366566,"internal_node_id":"0.0-6.0-33.0"},{"sim_score":3,"rt":4687,"stimulus":"[\"img/0866/f756f7d1-9ad8-4a34-9ef6-7a443d705bfe.jpg\",\"img/0862/f43ceabf-acc1-4107-b857-5d1849808f93.jpg\"]","trial_type":"similarity","trial_index":40,"time_elapsed":372259,"internal_node_id":"0.0-6.0-34.0"},{"sim_score":3,"rt":4423,"stimulus":"[\"img/0868/77091fc7-a590-4ebb-b915-fdb2483a2399.jpg\",\"img/0894/5a49e858-2850-4892-9a06-e9f0efb5f94d.jpg\"]","trial_type":"similarity","trial_index":41,"time_elapsed":377697,"internal_node_id":"0.0-6.0-35.0"},{"sim_score":7,"rt":4414,"stimulus":"[\"img/0860/17b44a7d-c5ca-479f-9e87-f65a64f5c80e.jpg\",\"img/0860/4c530c3c-6aab-492a-94d1-9c01797bde40.jpg\"]","trial_type":"similarity","trial_index":42,"time_elapsed":383129,"internal_node_id":"0.0-6.0-36.0"},{"sim_score":5,"rt":7564,"stimulus":"[\"img/0862/eefa5588-9efd-4591-aa5f-a2e17c7d7bcc.jpg\",\"img/0864/5f33e097-23e3-4002-882d-76e8cb15f451.jpg\"]","trial_type":"similarity","trial_index":43,"time_elapsed":391697,"internal_node_id":"0.0-6.0-37.0"},{"sim_score":1,"rt":4144,"stimulus":"[\"img/0766/26d3ae14-8275-4e08-99b2-a6598c193ddf.jpg\",\"img/0866/6f2a90d7-14f1-4f1b-bd64-fc0af6b9fe44.jpg\"]","trial_type":"similarity","trial_index":44,"time_elapsed":396844,"internal_node_id":"0.0-6.0-38.0"},{"sim_score":1,"rt":4308,"stimulus":"[\"img/0875/5a716432-c6ca-4b1c-955a-2b8ac25198ee.jpg\",\"img/0898/224c1572-56b9-4f16-a9e4-6f3bc9c114bd.jpg\"]","trial_type":"similarity","trial_index":45,"time_elapsed":402159,"internal_node_id":"0.0-6.0-39.0"},{"sim_score":5,"rt":5334,"stimulus":"[\"img/0766/27f54113-8561-4568-9ffe-0a1650ae65ec.jpg\",\"img/0769/75f7e514-0548-4329-b1e4-93c05e74f038.jpg\"]","trial_type":"similarity","trial_index":46,"time_elapsed":408503,"internal_node_id":"0.0-6.0-40.0"},{"sim_score":5,"rt":9684,"stimulus":"[\"img/0874/bf14b896-e930-4fd9-9c05-2e83317a2773.jpg\",\"img/0764/713cc27e-2338-4486-bfe9-5f5725fbd7a0.jpg\"]","trial_type":"similarity","trial_index":47,"time_elapsed":441106,"internal_node_id":"0.0-6.0-41.0"},{"sim_score":1,"rt":5620,"stimulus":"[\"img/0868/5fa7f9d0-f0e5-454c-8224-74d964818f56.jpg\",\"img/0902/94ee9c53-a9a2-4f95-b9b7-794a5fc62bb6.jpg\"]","trial_type":"similarity","trial_index":48,"time_elapsed":447740,"internal_node_id":"0.0-6.0-42.0"},{"sim_score":1,"rt":5243,"stimulus":"[\"img/0875/5a7c4e35-6514-4e12-8879-d16071da4cd6.jpg\",\"img/0899/0e1d936a-dbe2-4afc-9f19-7b7a1ae6c9ed.jpg\"]","trial_type":"similarity","trial_index":49,"time_elapsed":453999,"internal_node_id":"0.0-6.0-43.0"},{"sim_score":1,"rt":4755,"stimulus":"[\"img/0866/d266fece-59b3-46fa-b69f-96f6efb81b59.jpg\",\"img/0860/fd4662f9-4c03-4d79-8593-06735e55a64b.jpg\"]","trial_type":"similarity","trial_index":50,"time_elapsed":459758,"internal_node_id":"0.0-6.0-44.0"},{"sim_score":4,"rt":5056,"stimulus":"[\"img/0766/5d1b8041-c5a1-4b02-b4fe-3453d98a0d72.jpg\",\"img/0903/2a9c8033-3e70-47fa-816d-97ee1813a3a3.jpg\"]","trial_type":"similarity","trial_index":51,"time_elapsed":465827,"internal_node_id":"0.0-6.0-45.0"},{"sim_score":3,"rt":8342,"stimulus":"[\"img/0901/b123d109-47b4-4f9a-80c9-9bb16da42efa.jpg\",\"img/0904/1d10df11-b5c8-4370-9a6b-097a7f965895.jpg\"]","trial_type":"similarity","trial_index":52,"time_elapsed":475173,"internal_node_id":"0.0-6.0-46.0"},{"sim_score":5,"rt":13663,"stimulus":"[\"img/0758/e38fd80d-18d0-42f3-b848-f930788e8bd7.jpg\",\"img/0902/a6fb6dd5-696c-47ec-be7d-d7b88f1544f1.jpg\"]","trial_type":"similarity","trial_index":53,"time_elapsed":489840,"internal_node_id":"0.0-6.0-47.0"},{"sim_score":5,"rt":5918,"stimulus":"[\"img/0764/978aede9-4590-4ad0-b234-135c83e5d669.jpg\",\"img/0764/c80b3e06-2ee3-4326-9678-340607eb5348.jpg\"]","trial_type":"similarity","trial_index":54,"time_elapsed":496765,"internal_node_id":"0.0-6.0-48.0"},{"sim_score":1,"rt":4340,"stimulus":"[\"img/0866/11a1d141-be5e-443c-98c1-a9d4d9e3dec0.jpg\",\"img/0902/0db94c50-f1fb-4091-953c-29ca0466bee2.jpg\"]","trial_type":"similarity","trial_index":55,"time_elapsed":502109,"internal_node_id":"0.0-6.0-49.0"},{"sim_score":5,"rt":6038,"stimulus":"[\"img/0764/29072395-f595-4e3c-83d3-ff87010039fa.jpg\",\"img/0758/9fb5b2fe-3f00-4fe6-973c-1ce10d5f4cd5.jpg\"]","trial_type":"similarity","trial_index":56,"time_elapsed":509159,"internal_node_id":"0.0-6.0-50.0"},{"sim_score":6,"rt":4592,"stimulus":"[\"img/0898/b3290bf9-215b-4b45-b21a-65bdf73f142f.jpg\",\"img/0894/133a1636-d123-4893-873c-1718050f832a.jpg\"]","trial_type":"similarity","trial_index":57,"time_elapsed":514755,"internal_node_id":"0.0-6.0-51.0"},{"sim_score":2,"rt":7627,"stimulus":"[\"img/0875/2c361b79-c3d1-4eda-812e-bf03192407bf.jpg\",\"img/0866/620cd1aa-0800-4414-8f6e-90342e7a99ad.jpg\"]","trial_type":"similarity","trial_index":58,"time_elapsed":523401,"internal_node_id":"0.0-6.0-52.0"},{"sim_score":7,"rt":5317,"stimulus":"[\"img/0904/63dd06dd-dccb-47ba-9740-eb33239e18a7.jpg\",\"img/0904/06dacdc5-2206-4fb8-92b7-88042d22833c.jpg\"]","trial_type":"similarity","trial_index":59,"time_elapsed":529734,"internal_node_id":"0.0-6.0-53.0"},{"sim_score":7,"rt":4040,"stimulus":"[\"img/0769/d1be2815-fa79-46e8-b5c3-7d81caaca490.jpg\",\"img/0769/a3cfbdeb-acb3-4eac-87fb-4b117f42d4f8.jpg\"]","trial_type":"similarity","trial_index":60,"time_elapsed":534781,"internal_node_id":"0.0-6.0-54.0"},{"sim_score":1,"rt":4804,"stimulus":"[\"img/0898/5f699581-3853-4547-856c-12f419ba5af7.jpg\",\"img/0758/d41c06bf-ebaf-454b-91c6-1a17f917b659.jpg\"]","trial_type":"similarity","trial_index":61,"time_elapsed":540588,"internal_node_id":"0.0-6.0-55.0"},{"sim_score":5,"rt":5482,"stimulus":"[\"img/0769/48a1144d-fbda-4809-991b-fc8424a32ee4.jpg\",\"img/0902/d3e55000-c839-4bf9-9b9b-4af0a9925af1.jpg\"]","trial_type":"similarity","trial_index":62,"time_elapsed":547089,"internal_node_id":"0.0-6.0-56.0"},{"sim_score":6,"rt":4984,"stimulus":"[\"img/0864/5f74a653-3bdc-4308-8cca-ac667dc22e1f.jpg\",\"img/0881/ed4c971f-0873-4fc8-b6d6-e8bbd82f0bcc.jpg\"]","trial_type":"similarity","trial_index":63,"time_elapsed":553092,"internal_node_id":"0.0-6.0-57.0"},{"sim_score":1,"rt":3580,"stimulus":"[\"img/0758/a085b443-b5d7-4cb2-9ad4-b9dab0fc23f1.jpg\",\"img/0868/4a8a45ed-2c4f-421b-9564-409a33ecd26c.jpg\"]","trial_type":"similarity","trial_index":64,"time_elapsed":557690,"internal_node_id":"0.0-6.0-58.0"},{"sim_score":1,"rt":3610,"stimulus":"[\"img/0862/99a99e39-8355-44ec-b993-e7bcec111e1c.jpg\",\"img/0769/3c1203c5-2ce7-466e-957a-8d77b5905460.jpg\"]","trial_type":"similarity","trial_index":65,"time_elapsed":562318,"internal_node_id":"0.0-6.0-59.0"},{"sim_score":5,"rt":4392,"stimulus":"[\"img/0764/cbdc4f20-3a9a-4211-9b40-090699e0abcc.jpg\",\"img/0903/5995f4a8-fa82-46f8-8760-fd7800a5ca34.jpg\"]","trial_type":"similarity","trial_index":66,"time_elapsed":567718,"internal_node_id":"0.0-6.0-60.0"},{"sim_score":6,"rt":4154,"stimulus":"[\"img/0899/0433d056-aa30-4f8a-9aa1-abbb951e4edd.jpg\",\"img/0899/4f7bc593-8ddd-4da3-a0b9-84da730d3370.jpg\"]","trial_type":"similarity","trial_index":67,"time_elapsed":572880,"internal_node_id":"0.0-6.0-61.0"},{"sim_score":5,"rt":7587,"stimulus":"[\"img/0860/9593362c-9fe5-4d12-9735-6000a11f6aa5.jpg\",\"img/0875/3ecb367d-e9eb-4826-8aaa-7aa72fb98019.jpg\"]","trial_type":"similarity","trial_index":68,"time_elapsed":581478,"internal_node_id":"0.0-6.0-62.0"},{"sim_score":1,"rt":4259,"stimulus":"[\"img/0868/e0aff734-077f-40dd-9781-74821abd3621.jpg\",\"img/0874/adf9a8f1-c40b-402b-b95b-1e85a54a7b62.jpg\"]","trial_type":"similarity","trial_index":69,"time_elapsed":586753,"internal_node_id":"0.0-6.0-63.0"},{"sim_score":5,"rt":5045,"stimulus":"[\"img/0758/65d426d6-3ff6-415d-8654-a43b83ecc4fe.jpg\",\"img/0862/57b6f83f-c763-4858-830d-102f97bfefbf.jpg\"]","trial_type":"similarity","trial_index":70,"time_elapsed":592805,"internal_node_id":"0.0-6.0-64.0"},{"sim_score":5,"rt":5928,"stimulus":"[\"img/0904/4d7d70a3-9477-4921-bda0-f9531d0a5c5b.jpg\",\"img/0898/6cd3830b-d44e-4915-be2b-88d31424b91c.jpg\"]","trial_type":"similarity","trial_index":71,"time_elapsed":599737,"internal_node_id":"0.0-6.0-65.0"},{"sim_score":2,"rt":4888,"stimulus":"[\"img/0881/1407b85b-a1c6-45b1-9884-3b24203efadb.jpg\",\"img/0866/be24ab58-230e-4db8-9f45-ff04c9aec6bb.jpg\"]","trial_type":"similarity","trial_index":72,"time_elapsed":605639,"internal_node_id":"0.0-6.0-66.0"},{"sim_score":2,"rt":4975,"stimulus":"[\"img/0867/f8488a47-94ee-4166-952c-44e16cf172f6.jpg\",\"img/0898/cd3aaa3f-efa9-4ab3-8d6f-a6a9273ddf42.jpg\"]","trial_type":"similarity","trial_index":73,"time_elapsed":611620,"internal_node_id":"0.0-6.0-67.0"},{"sim_score":6,"rt":5113,"stimulus":"[\"img/0902/27b84584-948a-485b-8749-cb09929ef631.jpg\",\"img/0764/a86eed5b-d0af-4c3f-8c7a-26e98e98cf1a.jpg\"]","trial_type":"similarity","trial_index":74,"time_elapsed":617742,"internal_node_id":"0.0-6.0-68.0"},{"sim_score":2,"rt":4483,"stimulus":"[\"img/0875/8521fd58-3b1e-4dc5-97ae-804edfa6734a.jpg\",\"img/0867/c71dc569-f49c-4397-8381-68b8d726736d.jpg\"]","trial_type":"similarity","trial_index":75,"time_elapsed":623228,"internal_node_id":"0.0-6.0-69.0"},{"sim_score":6,"rt":5003,"stimulus":"[\"img/0766/2746b119-4bba-463e-acf0-88136dc6600c.jpg\",\"img/0764/6fbd1902-fa2a-48d8-bc11-705b8ab68d8f.jpg\"]","trial_type":"similarity","trial_index":76,"time_elapsed":629249,"internal_node_id":"0.0-6.0-70.0"},{"sim_score":2,"rt":4242,"stimulus":"[\"img/0894/c505c65a-cde2-4f2c-8cde-f8676f7c894d.jpg\",\"img/0867/50a1b60e-3a29-44bf-b606-d4bd3746fea9.jpg\"]","trial_type":"similarity","trial_index":77,"time_elapsed":634504,"internal_node_id":"0.0-6.0-71.0"},{"sim_score":1,"rt":4205,"stimulus":"[\"img/0875/5a1e5100-0d94-4fec-bbe9-ca9894d2cf8e.jpg\",\"img/0764/7f4ee8e3-9315-4a57-be7d-db8454b33766.jpg\"]","trial_type":"similarity","trial_index":78,"time_elapsed":639723,"internal_node_id":"0.0-6.0-72.0"},{"sim_score":6,"rt":6707,"stimulus":"[\"img/0867/c66898ba-b71b-4d50-84f9-f7f84853a98d.jpg\",\"img/0866/bf14b5bd-fb55-47db-86b9-4f8aeb9a6dad.jpg\"]","trial_type":"similarity","trial_index":79,"time_elapsed":647440,"internal_node_id":"0.0-6.0-73.0"},{"sim_score":2,"rt":7868,"stimulus":"[\"img/0903/6138142e-c84e-45fc-9487-c974f3d4968a.jpg\",\"img/0758/e1ba5e53-addc-436a-b428-d34fc1b130dc.jpg\"]","trial_type":"similarity","trial_index":80,"time_elapsed":656314,"internal_node_id":"0.0-6.0-74.0"},{"sim_score":1,"rt":4437,"stimulus":"[\"img/0766/1865bfc9-2410-4765-a804-3ae4ba2393d0.jpg\",\"img/0868/1a62b2b2-18f5-466e-b564-5176a57c565e.jpg\"]","trial_type":"similarity","trial_index":81,"time_elapsed":661769,"internal_node_id":"0.0-6.0-75.0"},{"sim_score":5,"rt":15343,"stimulus":"[\"img/0874/85eb9b8a-c4c6-4e5a-b8e7-363a87a82054.jpg\",\"img/0766/aaec5f42-7f0a-4a16-aeca-488d757acbcc.jpg\"]","trial_type":"similarity","trial_index":82,"time_elapsed":678114,"internal_node_id":"0.0-6.0-76.0"},{"sim_score":1,"rt":4233,"stimulus":"[\"img/0881/c843e210-bdfe-4a7c-8bbe-fcea1f90fe1c.jpg\",\"img/0868/179a5502-ab5c-478e-8263-5a1fbcc101d2.jpg\"]","trial_type":"similarity","trial_index":83,"time_elapsed":683364,"internal_node_id":"0.0-6.0-77.0"},{"sim_score":1,"rt":4819,"stimulus":"[\"img/0758/caa93da2-9edf-49fa-96b9-32dedd8f5078.jpg\",\"img/0901/a373612d-67e2-4fec-9764-21d3d6ef6359.jpg\"]","trial_type":"similarity","trial_index":84,"time_elapsed":689194,"internal_node_id":"0.0-6.0-78.0"},{"sim_score":2,"rt":5759,"stimulus":"[\"img/0881/dea58fad-b4f1-41d9-bd3f-916eff19a3fd.jpg\",\"img/0898/81b08535-2020-4c15-9ce4-2f1e460755ae.jpg\"]","trial_type":"similarity","trial_index":85,"time_elapsed":695961,"internal_node_id":"0.0-6.0-79.0"},{"sim_score":1,"rt":4203,"stimulus":"[\"img/0867/7d1c497b-c1b3-4ed8-abb5-d7f73306015f.jpg\",\"img/0758/d540bee6-b460-4c32-ac57-bc282742d7d4.jpg\"]","trial_type":"similarity","trial_index":86,"time_elapsed":701170,"internal_node_id":"0.0-6.0-80.0"},{"sim_score":5,"rt":3790,"stimulus":"[\"img/0769/5bd04f55-d091-4f57-85db-38426f26bd1a.jpg\",\"img/0899/5b56dd3e-3f49-47cc-af84-16da6457753b.jpg\"]","trial_type":"similarity","trial_index":87,"time_elapsed":705964,"internal_node_id":"0.0-6.0-81.0"},{"sim_score":6,"rt":4182,"stimulus":"[\"img/0903/5ea5bbe0-f238-4724-abe7-9ed8dee8c0ba.jpg\",\"img/0903/39365c8e-a733-4801-ac7d-b87e38c3784b.jpg\"]","trial_type":"similarity","trial_index":88,"time_elapsed":711150,"internal_node_id":"0.0-6.0-82.0"},{"sim_score":1,"rt":4217,"stimulus":"[\"img/0867/ac1797e4-8afc-48fe-b252-86d1defb1cca.jpg\",\"img/0766/91fc8c4d-862f-4d2b-b1a1-2db8d729b6b7.jpg\"]","trial_type":"similarity","trial_index":89,"time_elapsed":725641,"internal_node_id":"0.0-6.0-83.0"},{"sim_score":1,"rt":5417,"stimulus":"[\"img/0902/82d20e8c-2162-47a6-925b-52906558c046.jpg\",\"img/0867/2e1a0b58-cdb1-4107-a14e-452530d7b9b0.jpg\"]","trial_type":"similarity","trial_index":90,"time_elapsed":732070,"internal_node_id":"0.0-6.0-84.0"},{"sim_score":3,"rt":10311,"stimulus":"[\"img/0901/5657dd86-0ff9-4753-ba2b-9dfb223e5c89.jpg\",\"img/0875/2e13d160-eea1-416b-aff1-d37ab99ecc1d.jpg\"]","trial_type":"similarity","trial_index":91,"time_elapsed":743394,"internal_node_id":"0.0-6.0-85.0"},{"sim_score":1,"rt":5037,"stimulus":"[\"img/0764/fb7d4a20-a475-465e-a74f-aa39a0d33d16.jpg\",\"img/0866/a04d37f0-99dd-478a-b6c6-58b215138f84.jpg\"]","trial_type":"similarity","trial_index":92,"time_elapsed":749445,"internal_node_id":"0.0-6.0-86.0"},{"sim_score":1,"rt":4180,"stimulus":"[\"img/0901/62315ff5-ed95-46b4-b099-92552079659b.jpg\",\"img/0894/8cadb87a-7001-4e47-99fb-1867bebf1668.jpg\"]","trial_type":"similarity","trial_index":93,"time_elapsed":754630,"internal_node_id":"0.0-6.0-87.0"},{"sim_score":1,"rt":4604,"stimulus":"[\"img/0898/881e2a85-d5c2-49be-a0c6-8a6ce2c4af08.jpg\",\"img/0769/35364db7-e0d5-40ef-93dc-faf9dfb95136.jpg\"]","trial_type":"similarity","trial_index":94,"time_elapsed":760240,"internal_node_id":"0.0-6.0-88.0"},{"sim_score":3,"rt":6703,"stimulus":"[\"img/0769/f2740c58-7c02-433f-920b-746b0b75435b.jpg\",\"img/0894/492d2f29-d7b9-4422-8be8-47fd58bfaa8b.jpg\"]","trial_type":"similarity","trial_index":95,"time_elapsed":767956,"internal_node_id":"0.0-6.0-89.0"},{"sim_score":5,"rt":4762,"stimulus":"[\"img/0862/847e5208-38ec-4f36-949c-296cdd7424ee.jpg\",\"img/0874/3f471690-9788-4d03-90c7-f615aecef149.jpg\"]","trial_type":"similarity","trial_index":96,"time_elapsed":773732,"internal_node_id":"0.0-6.0-90.0"},{"sim_score":6,"rt":6428,"stimulus":"[\"img/0894/7f2f31fd-6618-41c6-b65a-0fd8b2851bc9.jpg\",\"img/0766/e8052e17-9dae-4139-802b-6e590cb2d526.jpg\"]","trial_type":"similarity","trial_index":97,"time_elapsed":781166,"internal_node_id":"0.0-6.0-91.0"},{"sim_score":1,"rt":4436,"stimulus":"[\"img/0874/3ce41e7c-40c8-4d58-a546-171114521796.jpg\",\"img/0867/8ba0c5a7-c7e4-42cf-a80a-543763b90779.jpg\"]","trial_type":"similarity","trial_index":98,"time_elapsed":786612,"internal_node_id":"0.0-6.0-92.0"},{"sim_score":1,"rt":3392,"stimulus":"[\"img/0899/56a605c3-d0a2-4215-89e1-779279d85a7c.jpg\",\"img/0868/7b212364-ff5f-4e28-9241-7eb6ea00161b.jpg\"]","trial_type":"similarity","trial_index":99,"time_elapsed":791012,"internal_node_id":"0.0-6.0-93.0"},{"sim_score":5,"rt":4150,"stimulus":"[\"img/0903/47e39de8-6959-469f-8be9-6999a6db207c.jpg\",\"img/0862/47ed5efd-4ec9-4b74-bb4e-a5f5cf0c3e7d.jpg\"]","trial_type":"similarity","trial_index":100,"time_elapsed":796169,"internal_node_id":"0.0-6.0-94.0"},{"sim_score":5,"rt":6465,"stimulus":"[\"img/0899/ad8268c5-8199-48d0-ad70-c5b6d6c599ec.jpg\",\"img/0766/60033a74-9919-47e5-913c-71d0d483e7e5.jpg\"]","trial_type":"similarity","trial_index":101,"time_elapsed":803641,"internal_node_id":"0.0-6.0-95.0"},{"sim_score":7,"rt":3821,"stimulus":"[\"img/0867/a749dddb-69f0-44a6-acdc-2bf295cf6dcc.jpg\",\"img/0868/83b4350a-3b70-4cea-b7f5-b5b56f3050a8.jpg\"]","trial_type":"similarity","trial_index":102,"time_elapsed":808474,"internal_node_id":"0.0-6.0-96.0"},{"sim_score":5,"rt":13680,"stimulus":"[\"img/0862/5d887e9f-89e2-4ebc-80a0-6d46fe6480db.jpg\",\"img/0901/b9141736-3041-4385-a586-b1fe911c76a5.jpg\"]","trial_type":"similarity","trial_index":103,"time_elapsed":823168,"internal_node_id":"0.0-6.0-97.0"},{"sim_score":1,"rt":4166,"stimulus":"[\"img/0875/e7e66b13-b573-431e-b85e-288ce04a35a3.jpg\",\"img/0766/2da002a4-05c9-4f5c-9ed7-433b4183e273.jpg\"]","trial_type":"similarity","trial_index":104,"time_elapsed":828346,"internal_node_id":"0.0-6.0-98.0"},{"sim_score":5,"rt":7887,"stimulus":"[\"img/0758/53f35650-e455-4b53-8be4-c3c8271c6466.jpg\",\"img/0874/c0378dac-9370-439a-8b79-db27c96fb390.jpg\"]","trial_type":"similarity","trial_index":105,"time_elapsed":837251,"internal_node_id":"0.0-6.0-99.0"},{"sim_score":2,"rt":5682,"stimulus":"[\"img/0904/73920552-103b-4c9c-9ece-e0b8376b4504.jpg\",\"img/0868/d6d1f30d-4323-435a-b194-7892521bc57e.jpg\"]","trial_type":"similarity","trial_index":106,"time_elapsed":843938,"internal_node_id":"0.0-6.0-100.0"},{"sim_score":1,"rt":4427,"stimulus":"[\"img/0903/14f179a2-8786-48a2-8377-88d1d404341b.jpg\",\"img/0866/9b38d691-1802-4959-ab3f-fc902f0e4ea6.jpg\"]","trial_type":"similarity","trial_index":107,"time_elapsed":849382,"internal_node_id":"0.0-6.0-101.0"},{"sim_score":1,"rt":6880,"stimulus":"[\"img/0868/09a9ef4d-d000-4cfa-a6aa-ebec7c2edeb4.jpg\",\"img/0769/4a1d0b52-3fe8-40fb-bb1c-c814fe49a68c.jpg\"]","trial_type":"similarity","trial_index":108,"time_elapsed":857272,"internal_node_id":"0.0-6.0-102.0"},{"sim_score":5,"rt":4649,"stimulus":"[\"img/0902/01b41522-de46-4c3a-b0af-a61b2682b40e.jpg\",\"img/0899/8de08897-b430-42fe-9d42-840670b80f94.jpg\"]","trial_type":"similarity","trial_index":109,"time_elapsed":862930,"internal_node_id":"0.0-6.0-103.0"},{"sim_score":3,"rt":5831,"stimulus":"[\"img/0868/c8ac40c7-6904-4e13-8d61-c75d3052dc4e.jpg\",\"img/0862/ba89835a-408c-480b-8594-ed4ffa97eb5c.jpg\"]","trial_type":"similarity","trial_index":110,"time_elapsed":869773,"internal_node_id":"0.0-6.0-104.0"},{"sim_score":7,"rt":7028,"stimulus":"[\"img/0903/07b445ee-0cdb-4d2c-a23b-d727613f4059.jpg\",\"img/0894/38f5931f-926d-414e-b498-66b188978b7a.jpg\"]","trial_type":"similarity","trial_index":111,"time_elapsed":877804,"internal_node_id":"0.0-6.0-105.0"},{"sim_score":6,"rt":5858,"stimulus":"[\"img/0864/efcfbb1b-8197-44c9-b723-40d6c608dd3c.jpg\",\"img/0874/7e4f2150-3b59-4a36-b5da-a4e0ba410531.jpg\"]","trial_type":"similarity","trial_index":112,"time_elapsed":884664,"internal_node_id":"0.0-6.0-106.0"},{"sim_score":5,"rt":4542,"stimulus":"[\"img/0862/d0ca4c78-fc35-46ed-bdcc-8e124283c53e.jpg\",\"img/0902/511abb54-0094-4f4d-b6dc-3f2c97050521.jpg\"]","trial_type":"similarity","trial_index":113,"time_elapsed":890210,"internal_node_id":"0.0-6.0-107.0"},{"sim_score":5,"rt":6622,"stimulus":"[\"img/0904/0d17b811-063e-416e-a23c-3b3cfa4fcce5.jpg\",\"img/0903/12bd8657-92e6-4c36-a06c-597e7a1d51f3.jpg\"]","trial_type":"similarity","trial_index":114,"time_elapsed":897839,"internal_node_id":"0.0-6.0-108.0"},{"sim_score":5,"rt":5298,"stimulus":"[\"img/0764/e48e6c6f-9e28-420f-836a-8043b2319bb4.jpg\",\"img/0864/b3c4e378-28f0-4699-9338-2a257b4bca04.jpg\"]","trial_type":"similarity","trial_index":115,"time_elapsed":904150,"internal_node_id":"0.0-6.0-109.0"},{"sim_score":3,"rt":6584,"stimulus":"[\"img/0866/945c6710-d15b-4a5b-a8f6-69af0850357f.jpg\",\"img/0894/767a0eec-1064-46b1-b1aa-dfa02b0cd74e.jpg\"]","trial_type":"similarity","trial_index":116,"time_elapsed":911742,"internal_node_id":"0.0-6.0-110.0"},{"sim_score":5,"rt":5061,"stimulus":"[\"img/0899/25ae6ec8-9565-49fe-a8bb-8d0666f52716.jpg\",\"img/0903/5c6b1f57-b3a2-40f5-9fb1-82785e24b6a0.jpg\"]","trial_type":"similarity","trial_index":117,"time_elapsed":917806,"internal_node_id":"0.0-6.0-111.0"},{"sim_score":5,"rt":5501,"stimulus":"[\"img/0902/417d8b4a-3c72-4adc-ac78-820e833316f2.jpg\",\"img/0904/65e2b70a-b184-4da3-b5c0-5038bdf9469a.jpg\"]","trial_type":"similarity","trial_index":118,"time_elapsed":924320,"internal_node_id":"0.0-6.0-112.0"},{"sim_score":2,"rt":4343,"stimulus":"[\"img/0864/0116ca98-293d-4fa6-a93b-5a6144ef64cc.jpg\",\"img/0860/e8b8c51e-1834-4875-8b61-6c5bc9b178bd.jpg\"]","trial_type":"similarity","trial_index":119,"time_elapsed":929674,"internal_node_id":"0.0-6.0-113.0"},{"sim_score":2,"rt":3861,"stimulus":"[\"img/0860/4f695df5-afac-4da7-9875-fee39b0b24ad.jpg\",\"img/0899/51a7a498-98c7-42d7-bca8-bc2d8f0b5831.jpg\"]","trial_type":"similarity","trial_index":120,"time_elapsed":934542,"internal_node_id":"0.0-6.0-114.0"},{"sim_score":2,"rt":5649,"stimulus":"[\"img/0881/405484ae-0d00-4b05-bc57-6420a36adfac.jpg\",\"img/0903/97a42b34-5462-4665-88c7-83c014b33d24.jpg\"]","trial_type":"similarity","trial_index":121,"time_elapsed":941198,"internal_node_id":"0.0-6.0-115.0"},{"sim_score":2,"rt":4816,"stimulus":"[\"img/0894/6b2e9509-8699-42b7-9582-7741df0ba2d7.jpg\",\"img/0874/31e22c7c-99aa-40b1-bf03-dd73fa2df4d6.jpg\"]","trial_type":"similarity","trial_index":122,"time_elapsed":947028,"internal_node_id":"0.0-6.0-116.0"},{"sim_score":2,"rt":5107,"stimulus":"[\"img/0881/f4e3e181-b3c9-4af2-a5a4-fc135ab70d2e.jpg\",\"img/0862/ad593cc7-cabe-4bb7-8e14-8a447a0717b4.jpg\"]","trial_type":"similarity","trial_index":123,"time_elapsed":953148,"internal_node_id":"0.0-6.0-117.0"},{"sim_score":2,"rt":3853,"stimulus":"[\"img/0868/4bd5105a-d2c3-4f82-8c80-57196106ba53.jpg\",\"img/0875/03c3c331-738b-4446-af92-3d7386b08c2e.jpg\"]","trial_type":"similarity","trial_index":124,"time_elapsed":958004,"internal_node_id":"0.0-6.0-118.0"},{"sim_score":5,"rt":4334,"stimulus":"[\"img/0860/61fb959d-d4d9-4de4-9e4e-4fa62b4cfcd5.jpg\",\"img/0758/b76ceca7-95ac-46e4-ac13-da02c8e93be9.jpg\"]","trial_type":"similarity","trial_index":125,"time_elapsed":963349,"internal_node_id":"0.0-6.0-119.0"},{"sim_score":1,"rt":3708,"stimulus":"[\"img/0864/65210d57-1153-4657-886a-32e758f49b4a.jpg\",\"img/0875/ebf7653f-ff45-4e9f-af58-2c042ab3cd2b.jpg\"]","trial_type":"similarity","trial_index":126,"time_elapsed":968070,"internal_node_id":"0.0-6.0-120.0"},{"sim_score":1,"rt":4354,"stimulus":"[\"img/0898/a114b375-cb89-44ba-9498-74213f1ecdee.jpg\",\"img/0866/386235d2-6857-41e7-88a8-25cfc3430025.jpg\"]","trial_type":"similarity","trial_index":127,"time_elapsed":973436,"internal_node_id":"0.0-6.0-121.0"},{"sim_score":2,"rt":10092,"stimulus":"[\"img/0874/1016b306-087c-4afc-aa08-fa527b28dc76.jpg\",\"img/0904/da170c1b-9651-4f08-b231-2bdd1d9a046f.jpg\"]","trial_type":"similarity","trial_index":128,"time_elapsed":984540,"internal_node_id":"0.0-6.0-122.0"},{"sim_score":5,"rt":5844,"stimulus":"[\"img/0904/2f88ce53-02d0-4f95-a082-182c56a0eeb4.jpg\",\"img/0864/1ebbc554-99fa-49f9-8799-317375a79820.jpg\"]","trial_type":"similarity","trial_index":129,"time_elapsed":991392,"internal_node_id":"0.0-6.0-123.0"},{"sim_score":5,"rt":3573,"stimulus":"[\"img/0894/a3d4170b-b7d8-40e3-955f-87e76ed745fc.jpg\",\"img/0902/8065aa6b-4aef-4368-afa2-02c6465ca582.jpg\"]","trial_type":"similarity","trial_index":130,"time_elapsed":995972,"internal_node_id":"0.0-6.0-124.0"},{"sim_score":1,"rt":4844,"stimulus":"[\"img/0868/4e626425-63c8-484a-8a1d-e66ee4e0bef8.jpg\",\"img/0864/66091c27-e588-4476-8af9-265dc6be4156.jpg\"]","trial_type":"similarity","trial_index":131,"time_elapsed":1010837,"internal_node_id":"0.0-6.0-125.0"},{"sim_score":3,"rt":5550,"stimulus":"[\"img/0899/d60714ae-98d7-4564-8c98-94dba1351135.jpg\",\"img/0866/0207e9a2-7dbb-40b5-9459-b472aaeceb2a.jpg\"]","trial_type":"similarity","trial_index":132,"time_elapsed":1017392,"internal_node_id":"0.0-6.0-126.0"},{"sim_score":5,"rt":5048,"stimulus":"[\"img/0875/42910c99-5463-450a-a0f8-d4d060a11455.jpg\",\"img/0904/25365108-e038-4021-aac9-797f2063b337.jpg\"]","trial_type":"similarity","trial_index":133,"time_elapsed":1023455,"internal_node_id":"0.0-6.0-127.0"},{"sim_score":1,"rt":3242,"stimulus":"[\"img/0867/a498eef3-9fa4-4ab2-9778-4ae82ac40dc5.jpg\",\"img/0899/fef567a2-c121-4481-9af0-ff108d199bbf.jpg\"]","trial_type":"similarity","trial_index":134,"time_elapsed":1027700,"internal_node_id":"0.0-6.0-128.0"},{"sim_score":1,"rt":3033,"stimulus":"[\"img/0901/693e0535-ef7e-4d60-af9d-fac2f38e8307.jpg\",\"img/0867/26611f4e-d694-4460-b7e2-43c62753ddc3.jpg\"]","trial_type":"similarity","trial_index":135,"time_elapsed":1031741,"internal_node_id":"0.0-6.0-129.0"},{"sim_score":2,"rt":4418,"stimulus":"[\"img/0864/3651d070-2fc5-4848-b6a6-088a2d9ac5c9.jpg\",\"img/0769/47700831-0ca2-4fdd-a498-a3bc5a528f43.jpg\"]","trial_type":"similarity","trial_index":136,"time_elapsed":1037168,"internal_node_id":"0.0-6.0-130.0"},{"sim_score":2,"rt":5344,"stimulus":"[\"img/0903/8635cf25-2648-4fe9-8c42-79d2598e999c.jpg\",\"img/0868/293079b8-7e0c-4afd-a390-1e5d35fe3ded.jpg\"]","trial_type":"similarity","trial_index":137,"time_elapsed":1043524,"internal_node_id":"0.0-6.0-131.0"},{"sim_score":1,"rt":3253,"stimulus":"[\"img/0864/da39ad34-04e0-40d4-a724-c08d53e0ea09.jpg\",\"img/0867/98d8cd96-1476-4fe0-a3a3-04f875500a1b.jpg\"]","trial_type":"similarity","trial_index":138,"time_elapsed":1047789,"internal_node_id":"0.0-6.0-132.0"},{"sim_score":6,"rt":5998,"stimulus":"[\"img/0901/4d1bed7e-3c4e-4f6c-ada9-4beb66ba9e39.jpg\",\"img/0860/15b24a61-25be-4356-9eac-5ce95d0cb4a4.jpg\"]","trial_type":"similarity","trial_index":139,"time_elapsed":1054790,"internal_node_id":"0.0-6.0-133.0"},{"sim_score":4,"rt":3704,"stimulus":"[\"img/0881/445edb15-bd7f-4af3-8bd5-c6ad9677bb31.jpg\",\"img/0766/75c3d627-4f3b-40d5-9d9c-10c8a62db644.jpg\"]","trial_type":"similarity","trial_index":140,"time_elapsed":1059498,"internal_node_id":"0.0-6.0-134.0"},{"sim_score":3,"rt":5540,"stimulus":"[\"img/0903/f1fa0f8d-e62b-4b4a-a174-31a0fabfe61b.jpg\",\"img/0864/ea327690-500b-4137-bf91-451b309fe6a5.jpg\"]","trial_type":"similarity","trial_index":141,"time_elapsed":1066041,"internal_node_id":"0.0-6.0-135.0"},{"sim_score":2,"rt":6565,"stimulus":"[\"img/0758/eabcd7a8-56ad-4fd2-bc24-90f6b7b33265.jpg\",\"img/0894/1b3888e6-cf36-4c4a-a039-187aa5cb71ac.jpg\"]","trial_type":"similarity","trial_index":142,"time_elapsed":1073623,"internal_node_id":"0.0-6.0-136.0"},{"sim_score":1,"rt":3697,"stimulus":"[\"img/0769/ebef2ddc-ba59-4e0e-97f8-927864eb5081.jpg\",\"img/0860/c47fdead-eb02-4989-b078-26f4852f44fe.jpg\"]","trial_type":"similarity","trial_index":143,"time_elapsed":1078329,"internal_node_id":"0.0-6.0-137.0"},{"sim_score":6,"rt":4415,"stimulus":"[\"img/0904/60d1a521-edf7-4696-9263-f21ac0e62a01.jpg\",\"img/0766/dd3e18d0-0c98-4d05-b850-69976ee8cd75.jpg\"]","trial_type":"similarity","trial_index":144,"time_elapsed":1083759,"internal_node_id":"0.0-6.0-138.0"},{"sim_score":1,"rt":3304,"stimulus":"[\"img/0868/6a28c3b0-3d76-498a-9fb7-ddafc665eca8.jpg\",\"img/0860/f44ba3fb-03a2-42f0-8509-2c1ded493086.jpg\"]","trial_type":"similarity","trial_index":145,"time_elapsed":1088074,"internal_node_id":"0.0-6.0-139.0"},{"sim_score":6,"rt":6341,"stimulus":"[\"img/0758/a709631e-3705-4725-ac40-f0d916924f08.jpg\",\"img/0864/9b2490c5-a282-400a-9736-e1a0ecbf1cb7.jpg\"]","trial_type":"similarity","trial_index":146,"time_elapsed":1095428,"internal_node_id":"0.0-6.0-140.0"},{"sim_score":7,"rt":7938,"stimulus":"[\"img/0867/de92135f-5b65-4ed9-b245-188292c7c2f8.jpg\",\"img/0867/179ab87a-8eac-4c52-a41f-2e48e3120f09.jpg\"]","trial_type":"similarity","trial_index":147,"time_elapsed":1104376,"internal_node_id":"0.0-6.0-141.0"},{"sim_score":5,"rt":5168,"stimulus":"[\"img/0898/08c72dac-f8ad-407a-9ce6-8c9a5d679c3a.jpg\",\"img/0898/4184e5a2-84ea-4f36-9b42-ae58646f6f87.jpg\"]","trial_type":"similarity","trial_index":148,"time_elapsed":1110558,"internal_node_id":"0.0-6.0-142.0"},{"sim_score":5,"rt":4712,"stimulus":"[\"img/0866/a15b02be-11bb-43e3-b0e0-ecc3bd7dfc49.jpg\",\"img/0769/3adfa417-3b90-4aab-b437-5eaa474189cb.jpg\"]","trial_type":"similarity","trial_index":149,"time_elapsed":1116285,"internal_node_id":"0.0-6.0-143.0"},{"sim_score":4,"rt":3680,"stimulus":"[\"img/0860/524b2e98-5767-4d53-942c-ebae6925659b.jpg\",\"img/0898/8605a25b-6895-476d-8c13-df7a83f96093.jpg\"]","trial_type":"similarity","trial_index":150,"time_elapsed":1120977,"internal_node_id":"0.0-6.0-144.0"},{"sim_score":2,"rt":3478,"stimulus":"[\"img/0766/d50d734f-285c-4840-bc7a-c8dd4aff391e.jpg\",\"img/0864/1d15626a-2f7c-410f-819c-0fa2c967e95e.jpg\"]","trial_type":"similarity","trial_index":151,"time_elapsed":1125469,"internal_node_id":"0.0-6.0-145.0"},{"sim_score":2,"rt":5528,"stimulus":"[\"img/0860/c7047cd2-7cc1-41b6-8a34-c0986774975f.jpg\",\"img/0903/8931c67c-a43d-47d3-a4c9-42aa2f81d344.jpg\"]","trial_type":"similarity","trial_index":152,"time_elapsed":1132017,"internal_node_id":"0.0-6.0-146.0"},{"sim_score":1,"rt":2861,"stimulus":"[\"img/0867/5e07b34d-b40f-4b1c-ac10-49975bace45f.jpg\",\"img/0764/5d83b9db-3b2b-4dc8-9bd1-2b515b19c858.jpg\"]","trial_type":"similarity","trial_index":153,"time_elapsed":1135895,"internal_node_id":"0.0-6.0-147.0"},{"sim_score":6,"rt":3926,"stimulus":"[\"img/0769/b664b502-a86c-46c1-ad6f-5ebffc2e1bd3.jpg\",\"img/0904/56e73f28-7e64-489b-a161-e6b1a063878d.jpg\"]","trial_type":"similarity","trial_index":154,"time_elapsed":1140837,"internal_node_id":"0.0-6.0-148.0"},{"sim_score":3,"rt":5991,"stimulus":"[\"img/0764/974d52cc-6318-4e7a-b294-2f3e92ff800f.jpg\",\"img/0901/443f2e59-199b-4f7b-9de9-c44ad97326a5.jpg\"]","trial_type":"similarity","trial_index":155,"time_elapsed":1147832,"internal_node_id":"0.0-6.0-149.0"},{"sim_score":6,"rt":4904,"stimulus":"[\"img/0904/96e503ea-6630-4996-85f2-0237688ce441.jpg\",\"img/0899/565ccdd9-0933-4536-a625-3c0e25a713dd.jpg\"]","trial_type":"similarity","trial_index":156,"time_elapsed":1153740,"internal_node_id":"0.0-6.0-150.0"},{"sim_score":1,"rt":3150,"stimulus":"[\"img/0862/fb26cb07-d5a9-4653-813c-f41609f26cd5.jpg\",\"img/0867/075e0f95-856b-4cbb-acf5-092393aaf04e.jpg\"]","trial_type":"similarity","trial_index":157,"time_elapsed":1157904,"internal_node_id":"0.0-6.0-151.0"},{"sim_score":7,"rt":4487,"stimulus":"[\"img/0766/d3bab2fc-ddcc-40a0-bb72-c0d0ebe19978.jpg\",\"img/0766/db750ba0-ce04-46e1-b601-e1b80212bad2.jpg\"]","trial_type":"similarity","trial_index":158,"time_elapsed":1163396,"internal_node_id":"0.0-6.0-152.0"},{"sim_score":1,"rt":7323,"stimulus":"[\"img/0862/f23038d4-c366-4f70-979f-66b62362efa4.jpg\",\"img/0894/3664e04c-c6d3-4c9b-afb6-25d89974b174.jpg\"]","trial_type":"similarity","trial_index":159,"time_elapsed":1171731,"internal_node_id":"0.0-6.0-153.0"},{"sim_score":1,"rt":4653,"stimulus":"[\"img/0899/7b7380d5-d2be-44e5-a09a-c1756f87ef71.jpg\",\"img/0901/00acf6c1-b66e-4060-bb04-4caf29b5a8b0.jpg\"]","trial_type":"similarity","trial_index":160,"time_elapsed":1177396,"internal_node_id":"0.0-6.0-154.0"},{"sim_score":2,"rt":7428,"stimulus":"[\"img/0874/29830da7-be5f-44e5-b141-652a0ccf7269.jpg\",\"img/0874/ca76a855-4e77-4f2f-872a-0a718153e7ed.jpg\"]","trial_type":"similarity","trial_index":161,"time_elapsed":1185835,"internal_node_id":"0.0-6.0-155.0"},{"sim_score":1,"rt":4952,"stimulus":"[\"img/0860/c3379ff7-0763-48fe-a1ec-7ea3d611bc7a.jpg\",\"img/0867/85a96c62-548f-4994-9553-819e03c3135a.jpg\"]","trial_type":"similarity","trial_index":162,"time_elapsed":1191798,"internal_node_id":"0.0-6.0-156.0"},{"sim_score":2,"rt":4472,"stimulus":"[\"img/0901/58978a6d-a3e2-4c59-8d62-f60693ecc0f6.jpg\",\"img/0881/4bd34581-94d8-4e88-8c89-5cef864ca3be.jpg\"]","trial_type":"similarity","trial_index":163,"time_elapsed":1197274,"internal_node_id":"0.0-6.0-157.0"},{"sim_score":4,"rt":5596,"stimulus":"[\"img/0903/680ed18e-b311-4ecf-9b00-7dea32128334.jpg\",\"img/0902/d2c34af0-8c50-437d-8cc3-619195a3e8ba.jpg\"]","trial_type":"similarity","trial_index":164,"time_elapsed":1203888,"internal_node_id":"0.0-6.0-158.0"},{"sim_score":1,"rt":3944,"stimulus":"[\"img/0860/29a21a9f-54bb-4093-ad3f-04823ceaa89f.jpg\",\"img/0764/c0b03adb-bd0a-4b96-a915-a827c2fd5211.jpg\"]","trial_type":"similarity","trial_index":165,"time_elapsed":1208838,"internal_node_id":"0.0-6.0-159.0"},{"sim_score":3,"rt":6093,"stimulus":"[\"img/0902/8af4182a-9af9-4212-a436-9195555112d6.jpg\",\"img/0875/a4935837-7d3c-4df6-88c1-36a94d4991ca.jpg\"]","trial_type":"similarity","trial_index":166,"time_elapsed":1215940,"internal_node_id":"0.0-6.0-160.0"},{"sim_score":5,"rt":8275,"stimulus":"[\"img/0898/661621d4-a14e-487c-8c74-354134a29710.jpg\",\"img/0862/de9ad88c-b522-430a-8ee9-eb06a9f85df5.jpg\"]","trial_type":"similarity","trial_index":167,"time_elapsed":1225225,"internal_node_id":"0.0-6.0-161.0"},{"sim_score":1,"rt":5320,"stimulus":"[\"img/0894/6aa5545f-fa7d-4286-bbaa-aaf34dc7ec96.jpg\",\"img/0875/f87b67d7-c33e-40d1-b281-248c4be1cb6e.jpg\"]","trial_type":"similarity","trial_index":168,"time_elapsed":1231549,"internal_node_id":"0.0-6.0-162.0"},{"sim_score":1,"rt":5099,"stimulus":"[\"img/0866/d493a2c8-66eb-44b4-be02-2f327b700b7c.jpg\",\"img/0864/f92649a2-0590-4d31-9a7a-1bfb81666a2d.jpg\"]","trial_type":"similarity","trial_index":169,"time_elapsed":1237662,"internal_node_id":"0.0-6.0-163.0"},{"sim_score":1,"rt":3090,"stimulus":"[\"img/0766/d5d38751-8fa5-476f-93e9-86ed2d9045ef.jpg\",\"img/0862/e8cc3bdf-cc43-4565-bccf-492626c70953.jpg\"]","trial_type":"similarity","trial_index":170,"time_elapsed":1241769,"internal_node_id":"0.0-6.0-164.0"},{"sim_score":1,"rt":5212,"stimulus":"[\"img/0866/02f5e6b9-52b7-448c-9708-5b460d0c9a23.jpg\",\"img/0874/2c9464dd-8a23-4baa-ac94-1ba3af5c15cc.jpg\"]","trial_type":"similarity","trial_index":171,"time_elapsed":1247986,"internal_node_id":"0.0-6.0-165.0"},{"sim_score":6,"rt":3833,"stimulus":"[\"img/0862/7918ca67-5bd3-4606-a5ea-c39fb11a9297.jpg\",\"img/0860/8a92e21b-6a32-4e4a-a445-2d5a487ed0a4.jpg\"]","trial_type":"similarity","trial_index":172,"time_elapsed":1252832,"internal_node_id":"0.0-6.0-166.0"},{"sim_score":1,"rt":2918,"stimulus":"[\"img/0766/6d32752d-aa05-40dc-9541-640b6e9d6fa1.jpg\",\"img/0901/da4fe30f-d12a-491e-96a2-5ab8ebaadd09.jpg\"]","trial_type":"similarity","trial_index":173,"time_elapsed":1259563,"internal_node_id":"0.0-6.0-167.0"},{"sim_score":6,"rt":5425,"stimulus":"[\"img/0862/fad1d7c1-8187-43c3-942a-0fc12183e48e.jpg\",\"img/0862/a0a3a7ba-7798-46a3-b4ca-05e1f6e581d0.jpg\"]","trial_type":"similarity","trial_index":174,"time_elapsed":1266005,"internal_node_id":"0.0-6.0-168.0"},{"sim_score":1,"rt":4408,"stimulus":"[\"img/0894/38cf335f-f76f-4349-8d65-e20cd6859565.jpg\",\"img/0764/39a9fc7e-b863-432c-9374-de43983f31a5.jpg\"]","trial_type":"similarity","trial_index":175,"time_elapsed":1271419,"internal_node_id":"0.0-6.0-169.0"},{"sim_score":1,"rt":3711,"stimulus":"[\"img/0874/99f6563c-8a8d-4c1c-a41d-667b618c3fd5.jpg\",\"img/0898/04e39a7a-fcf6-4156-ab0e-f5871f335e1c.jpg\"]","trial_type":"similarity","trial_index":176,"time_elapsed":1276147,"internal_node_id":"0.0-6.0-170.0"},{"sim_score":5,"rt":5544,"stimulus":"[\"img/0860/d9a0d117-6d1d-41c0-8fec-9aff0fd9e9f2.jpg\",\"img/0766/71b81ebd-0937-4d7f-b8bf-c4e46a4728fd.jpg\"]","trial_type":"similarity","trial_index":177,"time_elapsed":1282699,"internal_node_id":"0.0-6.0-171.0"},{"sim_score":2,"rt":3618,"stimulus":"[\"img/0898/68476bbb-34a1-42d9-8bc1-deab783d4489.jpg\",\"img/0864/afcba0a3-7e27-4757-b254-e9f05fad27e2.jpg\"]","trial_type":"similarity","trial_index":178,"time_elapsed":1287335,"internal_node_id":"0.0-6.0-172.0"},{"sim_score":2,"rt":6577,"stimulus":"[\"img/0881/b1a136f7-8511-4d3a-a0f6-3879acf1e1a1.jpg\",\"img/0764/17b088f8-3053-4140-b544-d15654cc79ef.jpg\"]","trial_type":"similarity","trial_index":179,"time_elapsed":1294923,"internal_node_id":"0.0-6.0-173.0"},{"sim_score":1,"rt":4787,"stimulus":"[\"img/0898/e167334e-cc1d-4986-b3b1-c7bc7da64baa.jpg\",\"img/0868/15dd6fd7-791e-4b53-b203-195d617521a4.jpg\"]","trial_type":"similarity","trial_index":180,"time_elapsed":1300728,"internal_node_id":"0.0-6.0-174.0"},{"sim_score":6,"rt":3863,"stimulus":"[\"img/0864/e336a4c5-6648-4fd7-b2f6-93a3fb83f8c6.jpg\",\"img/0864/0f537697-a314-47c3-a8cc-8df23b7e536c.jpg\"]","trial_type":"similarity","trial_index":181,"time_elapsed":1305608,"internal_node_id":"0.0-6.0-175.0"},{"sim_score":5,"rt":4012,"stimulus":"[\"img/0899/66bf4113-ee12-426c-84d2-ea410b6c803e.jpg\",\"img/0862/ee3b7bff-4a70-4e84-9bea-4a565e456acb.jpg\"]","trial_type":"similarity","trial_index":182,"time_elapsed":1310636,"internal_node_id":"0.0-6.0-176.0"},{"sim_score":2,"rt":3467,"stimulus":"[\"img/0875/cff79b3a-a797-4393-9757-6275f999ec04.jpg\",\"img/0758/7ffbc76b-1fc1-432c-8f7e-9ec8d1b3f643.jpg\"]","trial_type":"similarity","trial_index":183,"time_elapsed":1315120,"internal_node_id":"0.0-6.0-177.0"},{"sim_score":1,"rt":3088,"stimulus":"[\"img/0866/23a224f3-2012-4fc8-8e0f-3c36f8de27fd.jpg\",\"img/0901/1b86f2fc-7a1d-4aa8-9252-114f92edef3b.jpg\"]","trial_type":"similarity","trial_index":184,"time_elapsed":1319215,"internal_node_id":"0.0-6.0-178.0"},{"sim_score":4,"rt":8775,"stimulus":"[\"img/0769/14d393ce-e5be-4ca1-86ce-cc27d4b6074c.jpg\",\"img/0874/995f0332-0439-4eb4-add3-957335dbf6d9.jpg\"]","trial_type":"similarity","trial_index":185,"time_elapsed":1329002,"internal_node_id":"0.0-6.0-179.0"},{"sim_score":1,"rt":7390,"stimulus":"[\"img/0875/dbdd643e-6d0e-4a5c-ab57-b9c29b9c981a.jpg\",\"img/0881/14236cf2-6b95-48b8-9368-78af09d2d27f.jpg\"]","trial_type":"similarity","trial_index":186,"time_elapsed":1337408,"internal_node_id":"0.0-6.0-180.0"},{"sim_score":7,"rt":3961,"stimulus":"[\"img/0866/c446214b-a368-4c65-ae39-ea46894256ab.jpg\",\"img/0868/0d3abd3a-b6c3-4584-a9f7-e2da63748b3d.jpg\"]","trial_type":"similarity","trial_index":187,"time_elapsed":1342372,"internal_node_id":"0.0-6.0-181.0"},{"sim_score":5,"rt":4329,"stimulus":"[\"img/0899/8abe6c69-822c-436c-9bf2-96c818b49ba5.jpg\",\"img/0758/335851a0-a55b-46d8-ab05-8463eda48349.jpg\"]","trial_type":"similarity","trial_index":188,"time_elapsed":1347714,"internal_node_id":"0.0-6.0-182.0"},{"sim_score":2,"rt":5749,"stimulus":"[\"img/0874/a82926a3-0b43-4add-803c-d5f9ea7798ee.jpg\",\"img/0875/34132396-d896-4c2d-8087-646dd867e769.jpg\"]","trial_type":"similarity","trial_index":189,"time_elapsed":1354478,"internal_node_id":"0.0-6.0-183.0"},{"sim_score":2,"rt":4064,"stimulus":"[\"img/0904/5aec2708-cf14-4a58-aa30-9a8a61c1be0e.jpg\",\"img/0862/cdaed51d-9e2f-4807-801a-4663c40077e2.jpg\"]","trial_type":"similarity","trial_index":190,"time_elapsed":1359562,"internal_node_id":"0.0-6.0-184.0"},{"sim_score":2,"rt":5983,"stimulus":"[\"img/0902/e5a46bda-30d1-41ca-b36d-b8529b5a63d1.jpg\",\"img/0766/989c5c7f-1aff-4442-ac63-9d46acf4a891.jpg\"]","trial_type":"similarity","trial_index":191,"time_elapsed":1366551,"internal_node_id":"0.0-6.0-185.0"},{"sim_score":2,"rt":5153,"stimulus":"[\"img/0758/20497cbe-ddae-489e-86e2-ab06985ed07c.jpg\",\"img/0769/50985283-d353-4abc-9abe-14a91d56ebe6.jpg\"]","trial_type":"similarity","trial_index":192,"time_elapsed":1372717,"internal_node_id":"0.0-6.0-186.0"},{"sim_score":7,"rt":4383,"stimulus":"[\"img/0881/62a64f90-7a72-4aee-a1a1-0c548ac9bdda.jpg\",\"img/0881/e6746727-7f89-47ec-b939-d98abe78372d.jpg\"]","trial_type":"similarity","trial_index":193,"time_elapsed":1378116,"internal_node_id":"0.0-6.0-187.0"},{"sim_score":2,"rt":5565,"stimulus":"[\"img/0758/821c68d3-5cb0-4eae-8659-30e6263fca39.jpg\",\"img/0866/93a27239-8317-4e08-98ca-d8b1ff298e07.jpg\"]","trial_type":"similarity","trial_index":194,"time_elapsed":1384689,"internal_node_id":"0.0-6.0-188.0"},{"sim_score":5,"rt":5453,"stimulus":"[\"img/0764/f713847b-4832-42d1-8fb3-e17e37fd745c.jpg\",\"img/0898/79233891-305a-4a6a-8ddf-5c8604858203.jpg\"]","trial_type":"similarity","trial_index":195,"time_elapsed":1391155,"internal_node_id":"0.0-6.0-189.0"},{"sim_score":3,"rt":6732,"stimulus":"[\"img/0903/8c358e9e-a4f4-466e-8b93-7aec0d2358e8.jpg\",\"img/0901/effc03f6-8f9d-46db-a66c-16fc83891c5c.jpg\"]","trial_type":"similarity","trial_index":196,"time_elapsed":1398899,"internal_node_id":"0.0-6.0-190.0"},{"sim_score":4,"rt":4829,"stimulus":"[\"img/0902/22ed3536-288b-452e-9777-0fa0ab94deb0.jpg\",\"img/0898/ec565187-2e31-4fdd-9a5c-153d0c789ae0.jpg\"]","trial_type":"similarity","trial_index":197,"time_elapsed":1404735,"internal_node_id":"0.0-6.0-191.0"},{"sim_score":1,"rt":4096,"stimulus":"[\"img/0864/e8bd659f-aa43-4748-877e-3118e8b4e189.jpg\",\"img/0901/548d1110-7cb8-42a2-9927-9798875c8b5c.jpg\"]","trial_type":"similarity","trial_index":198,"time_elapsed":1409833,"internal_node_id":"0.0-6.0-192.0"},{"sim_score":2,"rt":6198,"stimulus":"[\"img/0894/86201968-6e78-4d68-9b3a-d1692e066210.jpg\",\"img/0881/b549bc99-a61c-4450-bab5-9efc3a197bf0.jpg\"]","trial_type":"similarity","trial_index":199,"time_elapsed":1417037,"internal_node_id":"0.0-6.0-193.0"},{"sim_score":7,"rt":4246,"stimulus":"[\"img/0868/8b0b8473-e2c0-4331-aa56-c3a5c29369da.jpg\",\"img/0868/fd307a36-9a3a-47d7-ab7c-f810d0b35040.jpg\"]","trial_type":"similarity","trial_index":200,"time_elapsed":1422286,"internal_node_id":"0.0-6.0-194.0"},{"sim_score":6,"rt":5734,"stimulus":"[\"img/0899/f95cbdb4-f804-4f5d-ad76-373ad343e658.jpg\",\"img/0764/21e3292f-01ad-4238-828b-61b817857d16.jpg\"]","trial_type":"similarity","trial_index":201,"time_elapsed":1429025,"internal_node_id":"0.0-6.0-195.0"},{"sim_score":5,"rt":5246,"stimulus":"[\"img/0881/54ea8e77-c7e5-4197-b7fa-00b7020849a7.jpg\",\"img/0904/09dac84f-3d1c-4445-a68e-d0389fdbf1e9.jpg\"]","trial_type":"similarity","trial_index":202,"time_elapsed":1435286,"internal_node_id":"0.0-6.0-196.0"},{"sim_score":2,"rt":5289,"stimulus":"[\"img/0864/3d4de670-b290-4285-9c3d-12a0e3af44e9.jpg\",\"img/0902/40d0b6ec-3907-4573-b227-e7d8e9cad1c3.jpg\"]","trial_type":"similarity","trial_index":203,"time_elapsed":1441585,"internal_node_id":"0.0-6.0-197.0"},{"sim_score":6,"rt":6176,"stimulus":"[\"img/0894/5ff3c4f6-52e2-4075-8679-be0312e59703.jpg\",\"img/0904/2c98dc56-88d1-4fb5-a999-b6a7861f65f0.jpg\"]","trial_type":"similarity","trial_index":204,"time_elapsed":1448765,"internal_node_id":"0.0-6.0-198.0"},{"sim_score":7,"rt":4528,"stimulus":"[\"img/0901/b453df0b-4c39-49bb-8ced-6127efffa898.jpg\",\"img/0901/d61f267a-c492-4db6-9bfb-61efd49cf072.jpg\"]","trial_type":"similarity","trial_index":205,"time_elapsed":1454309,"internal_node_id":"0.0-6.0-199.0"},{"sim_score":1,"rt":3165,"stimulus":"[\"img/0894/b2d2f66e-e480-46da-a02a-6d0c6b285d78.jpg\",\"img/0860/702bd09d-df3a-40aa-a267-5f04474305b5.jpg\"]","trial_type":"similarity","trial_index":206,"time_elapsed":1458489,"internal_node_id":"0.0-6.0-200.0"},{"sim_score":7,"rt":4703,"stimulus":"[\"img/0898/26c41340-15bd-4ead-8fe4-c0d0ddca09c2.jpg\",\"img/0903/776b74ee-a8ab-4ab8-a78d-097c0747538d.jpg\"]","trial_type":"similarity","trial_index":207,"time_elapsed":1464199,"internal_node_id":"0.0-6.0-201.0"},{"sim_score":1,"rt":5225,"stimulus":"[\"img/0864/87c467d3-abca-482f-ad80-3766c21b1bb3.jpg\",\"img/0894/7fb082e0-ce79-485c-9109-04367fb32275.jpg\"]","trial_type":"similarity","trial_index":208,"time_elapsed":1470434,"internal_node_id":"0.0-6.0-202.0"},{"sim_score":1,"rt":4012,"stimulus":"[\"img/0874/eba003b4-cdab-4eee-8bc3-f064c7d94165.jpg\",\"img/0860/e14d67c1-6d92-4f1e-9257-c8607159c19c.jpg\"]","trial_type":"similarity","trial_index":209,"time_elapsed":1475456,"internal_node_id":"0.0-6.0-203.0"},{"sim_score":1,"rt":3683,"stimulus":"[\"img/0862/4f0a3b4c-afbf-486e-b248-1d54982f54b4.jpg\",\"img/0875/99698b4d-b4a1-44bc-8c83-8ea755bbbf61.jpg\"]","trial_type":"similarity","trial_index":210,"time_elapsed":1480143,"internal_node_id":"0.0-6.0-204.0"},{"sim_score":1,"rt":3691,"stimulus":"[\"img/0867/db7e032f-162b-46f5-ae67-2b29679adee4.jpg\",\"img/0881/0c7068da-d0d9-4103-bda1-74ef7a2b32c3.jpg\"]","trial_type":"similarity","trial_index":211,"time_elapsed":1484841,"internal_node_id":"0.0-6.0-205.0"},{"sim_score":5,"rt":6406,"stimulus":"[\"img/0901/71e551a2-9ce2-409c-9c7c-dd556a0791e9.jpg\",\"img/0902/04a6ad4a-afc6-4871-8225-56b299af7b6b.jpg\"]","trial_type":"similarity","trial_index":212,"time_elapsed":1492263,"internal_node_id":"0.0-6.0-206.0"},{"sim_score":4,"rt":5652,"stimulus":"[\"img/0899/a05bea16-2bb4-4cb9-b8fb-4ff975db6971.jpg\",\"img/0864/c22faebd-9c53-47bc-ada3-b9a30c688e75.jpg\"]","trial_type":"similarity","trial_index":213,"time_elapsed":1498924,"internal_node_id":"0.0-6.0-207.0"},{"sim_score":1,"rt":4129,"stimulus":"[\"img/0901/8bb79e82-9c43-4b6f-a655-40655519598b.jpg\",\"img/0769/022c7e3b-c3f2-4119-b4bc-f22fa7cae18c.jpg\"]","trial_type":"similarity","trial_index":214,"time_elapsed":1504059,"internal_node_id":"0.0-6.0-208.0"},{"sim_score":7,"rt":4331,"stimulus":"[\"img/0902/7499db23-3a41-41ea-ab5b-6ab4d4c3ed35.jpg\",\"img/0902/eb3e7e71-8ff1-4b88-a6a7-47e2c1ce1683.jpg\"]","trial_type":"similarity","trial_index":215,"time_elapsed":1513444,"internal_node_id":"0.0-6.0-209.0"},{"view_history":"[{\"page_index\":0,\"viewing_time\":7116}]","rt":7116,"trial_type":"instructions","trial_index":216,"time_elapsed":1521574,"internal_node_id":"0.0-7.0"},{"rt":20376,"responses":"{\"Q0\":\"Nashville Warbler\"}","answer":["Nashville Warbler"],"trial_type":"image-multi-choice","trial_index":217,"time_elapsed":1542964,"internal_node_id":"0.0-8.0-0.0"},{"rt":14150,"responses":"{\"Q0\":\"Black-and-white Warbler\"}","answer":["Black-and-white Warbler"],"trial_type":"image-multi-choice","trial_index":218,"time_elapsed":1558129,"internal_node_id":"0.0-8.0-1.0"},{"rt":6134,"responses":"{\"Q0\":\"Townsend's Warbler\"}","answer":["Townsend's Warbler"],"trial_type":"image-multi-choice","trial_index":219,"time_elapsed":1565285,"internal_node_id":"0.0-8.0-2.0"},{"rt":6121,"responses":"{\"Q0\":\"Lark Sparrow\"}","answer":["Lark Sparrow"],"trial_type":"image-multi-choice","trial_index":220,"time_elapsed":1572417,"internal_node_id":"0.0-8.0-3.0"},{"rt":4491,"responses":"{\"Q0\":\"Yellow Warbler\"}","answer":["Yellow Warbler"],"trial_type":"image-multi-choice","trial_index":221,"time_elapsed":1577915,"internal_node_id":"0.0-8.0-4.0"},{"rt":17028,"responses":"{\"Q0\":\"Orange-crowned Warbler\"}","answer":["Orange-crowned Warbler"],"trial_type":"image-multi-choice","trial_index":222,"time_elapsed":1595951,"internal_node_id":"0.0-8.0-5.0"},{"rt":6281,"responses":"{\"Q0\":\"White-throated Sparrow\"}","answer":["White-throated Sparrow"],"trial_type":"image-multi-choice","trial_index":223,"time_elapsed":1603241,"internal_node_id":"0.0-8.0-6.0"},{"rt":5383,"responses":"{\"Q0\":\"Fox Sparrow\"}","answer":["Fox Sparrow"],"trial_type":"image-multi-choice","trial_index":224,"time_elapsed":1609633,"internal_node_id":"0.0-8.0-7.0"},{"rt":8048,"responses":"{\"Q0\":\"Song Sparrow\"}","answer":["Song Sparrow"],"trial_type":"image-multi-choice","trial_index":225,"time_elapsed":1618697,"internal_node_id":"0.0-8.0-8.0"},{"rt":15678,"responses":"{\"Q0\":\"Blackburnian Warbler\"}","answer":["Blackburnian Warbler"],"trial_type":"image-multi-choice","trial_index":226,"time_elapsed":1635387,"internal_node_id":"0.0-8.0-9.0"},{"rt":17873,"responses":"{\"Q0\":\"Lincoln's Sparrow\"}","answer":["Vesper Sparrow"],"trial_type":"image-multi-choice","trial_index":227,"time_elapsed":1654268,"internal_node_id":"0.0-8.0-10.0"},{"rt":8319,"responses":"{\"Q0\":\"White-crowned Sparrow\"}","answer":["White-crowned Sparrow"],"trial_type":"image-multi-choice","trial_index":228,"time_elapsed":1663609,"internal_node_id":"0.0-8.0-11.0"},{"rt":11084,"responses":"{\"Q0\":\"American Tree Sparrow\"}","answer":["American Tree Sparrow"],"trial_type":"image-multi-choice","trial_index":229,"time_elapsed":1675705,"internal_node_id":"0.0-8.0-12.0"},{"rt":26687,"responses":"{\"Q0\":\"Tennessee Warbler\"}","answer":["Tennessee Warbler"],"trial_type":"image-multi-choice","trial_index":230,"time_elapsed":1703414,"internal_node_id":"0.0-8.0-13.0"},{"rt":28562,"responses":"{\"Q0\":\"Magnolia Warbler\"}","answer":["Magnolia Warbler"],"trial_type":"image-multi-choice","trial_index":231,"time_elapsed":1733002,"internal_node_id":"0.0-8.0-14.0"},{"rt":5366,"responses":"{\"Q0\":\"Northern Waterthrush\"}","answer":["Northern Waterthrush"],"trial_type":"image-multi-choice","trial_index":232,"time_elapsed":1739389,"internal_node_id":"0.0-8.0-15.0"},{"rt":29081,"responses":"{\"Q0\":\"Vesper Sparrow\"}","answer":["Chipping Sparrow"],"trial_type":"image-multi-choice","trial_index":233,"time_elapsed":1769492,"internal_node_id":"0.0-8.0-16.0"},{"rt":20039,"responses":"{\"Q0\":\"Vesper Sparrow\"}","answer":["Swamp Sparrow"],"trial_type":"image-multi-choice","trial_index":234,"time_elapsed":1790542,"internal_node_id":"0.0-8.0-17.0"},{"rt":27077,"responses":"{\"Q0\":\"Lincoln's Sparrow\"}","answer":["Lincoln's Sparrow"],"trial_type":"image-multi-choice","trial_index":235,"time_elapsed":1818633,"internal_node_id":"0.0-8.0-18.0"},{"rt":10794,"responses":"{\"Q0\":\"Northern Waterthrush\"}","answer":["Ovenbird"],"trial_type":"image-multi-choice","trial_index":236,"time_elapsed":1830444,"internal_node_id":"0.0-8.0-19.0"}]