[{"view_history":"[{\"page_index\":0,\"viewing_time\":26764}]","rt":26766,"trial_type":"instructions","trial_index":0,"time_elapsed":26768,"internal_node_id":"0.0-0.0"},{"sim_score":6,"rt":12575,"stimulus":"[\"img/866.jpg\",\"img/868.jpg\"]","trial_type":"similarity_demo","trial_index":1,"time_elapsed":40357,"internal_node_id":"0.0-1.0"},{"view_history":"[{\"page_index\":0,\"viewing_time\":20679}]","rt":20680,"trial_type":"instructions","trial_index":2,"time_elapsed":62040,"internal_node_id":"0.0-2.0"},{"sim_score":1,"rt":7297,"stimulus":"[\"img/766.jpg\",\"img/867.jpg\"]","trial_type":"similarity_demo","trial_index":3,"time_elapsed":70344,"internal_node_id":"0.0-3.0"},{"view_history":"[{\"page_index\":0,\"viewing_time\":8323}]","rt":8324,"trial_type":"instructions","trial_index":4,"time_elapsed":79670,"internal_node_id":"0.0-4.0"},{"view_history":"[{\"page_index\":0,\"viewing_time\":32564}]","rt":32565,"trial_type":"instructions","trial_index":5,"time_elapsed":113236,"internal_node_id":"0.0-5.0"},{"sim_score":3,"rt":11737,"stimulus":"[\"img/0868/8b0b8473-e2c0-4331-aa56-c3a5c29369da.jpg\",\"img/0901/168eb52c-c415-43f1-b5c8-e76e1a1ec247.jpg\"]","trial_type":"similarity","trial_index":6,"time_elapsed":125982,"internal_node_id":"0.0-6.0-0.0"},{"sim_score":3,"rt":7784,"stimulus":"[\"img/0769/180213e5-1e50-4b4e-87b6-add77ba04d39.jpg\",\"img/0867/7d1c497b-c1b3-4ed8-abb5-d7f73306015f.jpg\"]","trial_type":"similarity","trial_index":7,"time_elapsed":134773,"internal_node_id":"0.0-6.0-1.0"},{"sim_score":3,"rt":4695,"stimulus":"[\"img/0766/2e1cf445-9aef-40e7-92f4-5facf48b64c5.jpg\",\"img/0898/5f699581-3853-4547-856c-12f419ba5af7.jpg\"]","trial_type":"similarity","trial_index":8,"time_elapsed":140476,"internal_node_id":"0.0-6.0-2.0"},{"sim_score":4,"rt":7513,"stimulus":"[\"img/0902/b03fee99-d5ca-4bf8-871c-a4a743a39842.jpg\",\"img/0881/db77fe00-aeb0-4d1d-aa66-f3a96fd077e4.jpg\"]","trial_type":"similarity","trial_index":9,"time_elapsed":148995,"internal_node_id":"0.0-6.0-3.0"},{"sim_score":5,"rt":5328,"stimulus":"[\"img/0894/792c83e9-a747-4000-bc72-5663d2439edb.jpg\",\"img/0894/6b2e9509-8699-42b7-9582-7741df0ba2d7.jpg\"]","trial_type":"similarity","trial_index":10,"time_elapsed":155331,"internal_node_id":"0.0-6.0-4.0"},{"sim_score":4,"rt":3304,"stimulus":"[\"img/0874/ca76a855-4e77-4f2f-872a-0a718153e7ed.jpg\",\"img/0899/56a605c3-d0a2-4215-89e1-779279d85a7c.jpg\"]","trial_type":"similarity","trial_index":11,"time_elapsed":159642,"internal_node_id":"0.0-6.0-5.0"},{"sim_score":4,"rt":3187,"stimulus":"[\"img/0904/06dacdc5-2206-4fb8-92b7-88042d22833c.jpg\",\"img/0764/f990b2e8-ecee-481e-be7c-0239fce350e2.jpg\"]","trial_type":"similarity","trial_index":12,"time_elapsed":163836,"internal_node_id":"0.0-6.0-6.0"},{"sim_score":4,"rt":4216,"stimulus":"[\"img/0899/8abe6c69-822c-436c-9bf2-96c818b49ba5.jpg\",\"img/0898/b3290bf9-215b-4b45-b21a-65bdf73f142f.jpg\"]","trial_type":"similarity","trial_index":13,"time_elapsed":169058,"internal_node_id":"0.0-6.0-7.0"},{"sim_score":4,"rt":4920,"stimulus":"[\"img/0874/29830da7-be5f-44e5-b141-652a0ccf7269.jpg\",\"img/0903/59defeb8-98bd-4570-a2f8-9bd189e68ef4.jpg\"]","trial_type":"similarity","trial_index":14,"time_elapsed":174986,"internal_node_id":"0.0-6.0-8.0"},{"sim_score":4,"rt":4152,"stimulus":"[\"img/0881/f62bdcd1-a4b7-4d48-83da-d9c9e01c8727.jpg\",\"img/0758/caa93da2-9edf-49fa-96b9-32dedd8f5078.jpg\"]","trial_type":"similarity","trial_index":15,"time_elapsed":180145,"internal_node_id":"0.0-6.0-9.0"},{"sim_score":5,"rt":4338,"stimulus":"[\"img/0898/b2732712-71c2-45d8-834f-2b2ed5504910.jpg\",\"img/0901/6e2957f8-f5ab-46f4-87cc-bb50155a098b.jpg\"]","trial_type":"similarity","trial_index":16,"time_elapsed":185490,"internal_node_id":"0.0-6.0-10.0"},{"sim_score":5,"rt":3416,"stimulus":"[\"img/0903/b4a0f61e-a964-4b79-a9a7-f767a8f92f34.jpg\",\"img/0769/04347740-f8f6-48bb-887a-f68babd0a0d4.jpg\"]","trial_type":"similarity","trial_index":17,"time_elapsed":189913,"internal_node_id":"0.0-6.0-11.0"},{"sim_score":3,"rt":2891,"stimulus":"[\"img/0764/d0bef2e0-e16b-4c82-9451-c1d16265eb67.jpg\",\"img/0868/7b212364-ff5f-4e28-9241-7eb6ea00161b.jpg\"]","trial_type":"similarity","trial_index":18,"time_elapsed":193810,"internal_node_id":"0.0-6.0-12.0"},{"sim_score":3,"rt":9928,"stimulus":"[\"img/0867/f8159067-056c-41f1-a136-c529fe5e970a.jpg\",\"img/0903/39365c8e-a733-4801-ac7d-b87e38c3784b.jpg\"]","trial_type":"similarity","trial_index":19,"time_elapsed":204744,"internal_node_id":"0.0-6.0-13.0"},{"sim_score":4,"rt":3560,"stimulus":"[\"img/0766/00891401-e4c9-4ce1-bc19-f70740d174bc.jpg\",\"img/0758/335851a0-a55b-46d8-ab05-8463eda48349.jpg\"]","trial_type":"similarity","trial_index":20,"time_elapsed":209311,"internal_node_id":"0.0-6.0-14.0"},{"sim_score":6,"rt":4817,"stimulus":"[\"img/0902/e5a46bda-30d1-41ca-b36d-b8529b5a63d1.jpg\",\"img/0860/e8b8c51e-1834-4875-8b61-6c5bc9b178bd.jpg\"]","trial_type":"similarity","trial_index":21,"time_elapsed":215135,"internal_node_id":"0.0-6.0-15.0"},{"sim_score":2,"rt":3225,"stimulus":"[\"img/0769/4680bcc3-8fbc-4643-8f9a-12aa0e780b64.jpg\",\"img/0875/2c361b79-c3d1-4eda-812e-bf03192407bf.jpg\"]","trial_type":"similarity","trial_index":22,"time_elapsed":219367,"internal_node_id":"0.0-6.0-16.0"},{"sim_score":3,"rt":3378,"stimulus":"[\"img/0904/b7c2a2c8-df33-4473-b3d4-ff7147c60db3.jpg\",\"img/0866/8efcaa46-83ab-4dee-a35f-850402aa21ae.jpg\"]","trial_type":"similarity","trial_index":23,"time_elapsed":223750,"internal_node_id":"0.0-6.0-17.0"},{"sim_score":5,"rt":3969,"stimulus":"[\"img/0875/34132396-d896-4c2d-8087-646dd867e769.jpg\",\"img/0875/03c3c331-738b-4446-af92-3d7386b08c2e.jpg\"]","trial_type":"similarity","trial_index":24,"time_elapsed":228726,"internal_node_id":"0.0-6.0-18.0"},{"sim_score":7,"rt":3370,"stimulus":"[\"img/0758/53f35650-e455-4b53-8be4-c3c8271c6466.jpg\",\"img/0758/65d426d6-3ff6-415d-8654-a43b83ecc4fe.jpg\"]","trial_type":"similarity","trial_index":25,"time_elapsed":233102,"internal_node_id":"0.0-6.0-19.0"},{"sim_score":5,"rt":3520,"stimulus":"[\"img/0902/b76efc44-a50f-4dac-b997-ff0222376067.jpg\",\"img/0874/85eb9b8a-c4c6-4e5a-b8e7-363a87a82054.jpg\"]","trial_type":"similarity","trial_index":26,"time_elapsed":237631,"internal_node_id":"0.0-6.0-20.0"},{"sim_score":6,"rt":5318,"stimulus":"[\"img/0764/6c7fe363-2d37-418f-9e5e-a3273af5d4fb.jpg\",\"img/0769/5bd04f55-d091-4f57-85db-38426f26bd1a.jpg\"]","trial_type":"similarity","trial_index":27,"time_elapsed":243959,"internal_node_id":"0.0-6.0-21.0"},{"sim_score":3,"rt":4512,"stimulus":"[\"img/0901/deff6cfb-0072-4490-bc3e-206bbcd3e8bf.jpg\",\"img/0874/2c9464dd-8a23-4baa-ac94-1ba3af5c15cc.jpg\"]","trial_type":"similarity","trial_index":28,"time_elapsed":249476,"internal_node_id":"0.0-6.0-22.0"},{"sim_score":6,"rt":4585,"stimulus":"[\"img/0875/d59ff733-eaff-4ee2-9443-06954dd0bcb6.jpg\",\"img/0903/70d764d9-1f35-4da7-a35d-4cc39834d270.jpg\"]","trial_type":"similarity","trial_index":29,"time_elapsed":255068,"internal_node_id":"0.0-6.0-23.0"},{"sim_score":6,"rt":5311,"stimulus":"[\"img/0769/14d393ce-e5be-4ca1-86ce-cc27d4b6074c.jpg\",\"img/0881/19e82c47-8e4b-45d2-a6c8-74181eb4155e.jpg\"]","trial_type":"similarity","trial_index":30,"time_elapsed":261388,"internal_node_id":"0.0-6.0-24.0"},{"sim_score":4,"rt":3480,"stimulus":"[\"img/0867/a498eef3-9fa4-4ab2-9778-4ae82ac40dc5.jpg\",\"img/0904/0d17b811-063e-416e-a23c-3b3cfa4fcce5.jpg\"]","trial_type":"similarity","trial_index":31,"time_elapsed":265876,"internal_node_id":"0.0-6.0-25.0"},{"sim_score":5,"rt":9985,"stimulus":"[\"img/0860/8277806e-b684-4474-8f7b-3fca946d7d4f.jpg\",\"img/0881/b1a136f7-8511-4d3a-a0f6-3879acf1e1a1.jpg\"]","trial_type":"similarity","trial_index":32,"time_elapsed":276867,"internal_node_id":"0.0-6.0-26.0"},{"sim_score":6,"rt":3899,"stimulus":"[\"img/0866/c446214b-a368-4c65-ae39-ea46894256ab.jpg\",\"img/0866/d266fece-59b3-46fa-b69f-96f6efb81b59.jpg\"]","trial_type":"similarity","trial_index":33,"time_elapsed":281772,"internal_node_id":"0.0-6.0-27.0"},{"sim_score":4,"rt":3728,"stimulus":"[\"img/0764/a86eed5b-d0af-4c3f-8c7a-26e98e98cf1a.jpg\",\"img/0862/cdaed51d-9e2f-4807-801a-4663c40077e2.jpg\"]","trial_type":"similarity","trial_index":34,"time_elapsed":286506,"internal_node_id":"0.0-6.0-28.0"},{"sim_score":3,"rt":3403,"stimulus":"[\"img/0904/9d30eff1-46ef-4453-b11e-124ef8145c00.jpg\",\"img/0758/20497cbe-ddae-489e-86e2-ab06985ed07c.jpg\"]","trial_type":"similarity","trial_index":35,"time_elapsed":290914,"internal_node_id":"0.0-6.0-29.0"},{"sim_score":4,"rt":3650,"stimulus":"[\"img/0894/7dd6ff43-f8fc-408a-8a41-a2b261871820.jpg\",\"img/0899/00715b3f-851b-420b-a26b-d7f79f7759a9.jpg\"]","trial_type":"similarity","trial_index":36,"time_elapsed":295569,"internal_node_id":"0.0-6.0-30.0"},{"sim_score":4,"rt":4721,"stimulus":"[\"img/0860/702bd09d-df3a-40aa-a267-5f04474305b5.jpg\",\"img/0904/2f88ce53-02d0-4f95-a082-182c56a0eeb4.jpg\"]","trial_type":"similarity","trial_index":37,"time_elapsed":301299,"internal_node_id":"0.0-6.0-31.0"},{"sim_score":6,"rt":2736,"stimulus":"[\"img/0874/a82926a3-0b43-4add-803c-d5f9ea7798ee.jpg\",\"img/0881/292e9b4b-fca0-4ba8-87f1-4048f9e37b7d.jpg\"]","trial_type":"similarity","trial_index":38,"time_elapsed":305043,"internal_node_id":"0.0-6.0-32.0"},{"sim_score":5,"rt":4111,"stimulus":"[\"img/0881/e046471a-35b4-4159-bbf7-3cfd201bef66.jpg\",\"img/0899/06b0fc99-0581-461a-9913-d1a5a941ac61.jpg\"]","trial_type":"similarity","trial_index":39,"time_elapsed":310161,"internal_node_id":"0.0-6.0-33.0"},{"sim_score":3,"rt":5577,"stimulus":"[\"img/0866/02f5e6b9-52b7-448c-9708-5b460d0c9a23.jpg\",\"img/0862/fb26cb07-d5a9-4653-813c-f41609f26cd5.jpg\"]","trial_type":"similarity","trial_index":40,"time_elapsed":316745,"internal_node_id":"0.0-6.0-34.0"},{"sim_score":3,"rt":4049,"stimulus":"[\"img/0868/5fa7f9d0-f0e5-454c-8224-74d964818f56.jpg\",\"img/0894/492d2f29-d7b9-4422-8be8-47fd58bfaa8b.jpg\"]","trial_type":"similarity","trial_index":41,"time_elapsed":321800,"internal_node_id":"0.0-6.0-35.0"},{"sim_score":7,"rt":3360,"stimulus":"[\"img/0860/94ef7afc-e0e6-4a15-98c6-0bfac82bc832.jpg\",\"img/0860/c47fdead-eb02-4989-b078-26f4852f44fe.jpg\"]","trial_type":"similarity","trial_index":42,"time_elapsed":326168,"internal_node_id":"0.0-6.0-36.0"},{"sim_score":6,"rt":4386,"stimulus":"[\"img/0862/e0f1a4e9-e1b6-45f7-af67-89f334e6630d.jpg\",\"img/0864/1ebbc554-99fa-49f9-8799-317375a79820.jpg\"]","trial_type":"similarity","trial_index":43,"time_elapsed":331559,"internal_node_id":"0.0-6.0-37.0"},{"sim_score":2,"rt":6087,"stimulus":"[\"img/0766/d512b99c-a2dc-40d7-8e86-827323a0cbcf.jpg\",\"img/0866/4a87911a-d5be-4d4e-ab8e-3d1f581bf507.jpg\"]","trial_type":"similarity","trial_index":44,"time_elapsed":338655,"internal_node_id":"0.0-6.0-38.0"},{"sim_score":3,"rt":3425,"stimulus":"[\"img/0875/5a716432-c6ca-4b1c-955a-2b8ac25198ee.jpg\",\"img/0898/81b08535-2020-4c15-9ce4-2f1e460755ae.jpg\"]","trial_type":"similarity","trial_index":45,"time_elapsed":343087,"internal_node_id":"0.0-6.0-39.0"},{"sim_score":3,"rt":3648,"stimulus":"[\"img/0766/214866ee-423d-4629-9bb9-41572bdc7dac.jpg\",\"img/0769/8c7cf147-1780-4d5c-8ddf-5ea23ff03ac9.jpg\"]","trial_type":"similarity","trial_index":46,"time_elapsed":347742,"internal_node_id":"0.0-6.0-40.0"},{"sim_score":5,"rt":7040,"stimulus":"[\"img/0874/7e4f2150-3b59-4a36-b5da-a4e0ba410531.jpg\",\"img/0764/bc3865c9-9004-4582-88a7-048478673f97.jpg\"]","trial_type":"similarity","trial_index":47,"time_elapsed":391354,"internal_node_id":"0.0-6.0-41.0"},{"sim_score":1,"rt":5524,"stimulus":"[\"img/0868/6a28c3b0-3d76-498a-9fb7-ddafc665eca8.jpg\",\"img/0902/9f543501-3cf1-45a7-a2f1-eeca87cc15b9.jpg\"]","trial_type":"similarity","trial_index":48,"time_elapsed":397883,"internal_node_id":"0.0-6.0-42.0"},{"sim_score":3,"rt":4889,"stimulus":"[\"img/0875/fb732ab5-013a-4366-9f65-27811ed157e9.jpg\",\"img/0899/66bf4113-ee12-426c-84d2-ea410b6c803e.jpg\"]","trial_type":"similarity","trial_index":49,"time_elapsed":403779,"internal_node_id":"0.0-6.0-43.0"},{"sim_score":6,"rt":5482,"stimulus":"[\"img/0866/a15b02be-11bb-43e3-b0e0-ecc3bd7dfc49.jpg\",\"img/0860/71e1aad0-2cdf-43bb-94a4-a8c016997c30.jpg\"]","trial_type":"similarity","trial_index":50,"time_elapsed":410267,"internal_node_id":"0.0-6.0-44.0"},{"sim_score":7,"rt":3181,"stimulus":"[\"img/0766/f011ef45-fb48-44b8-8224-867ed2ccf786.jpg\",\"img/0903/d987e220-f3e6-4b6d-a270-fe6757041f6d.jpg\"]","trial_type":"similarity","trial_index":51,"time_elapsed":414458,"internal_node_id":"0.0-6.0-45.0"},{"sim_score":6,"rt":3754,"stimulus":"[\"img/0901/d4d09bf5-093e-4050-838e-7c738be8e63c.jpg\",\"img/0904/4e58005d-a2ec-4aaa-b199-445343561396.jpg\"]","trial_type":"similarity","trial_index":52,"time_elapsed":419218,"internal_node_id":"0.0-6.0-46.0"},{"sim_score":6,"rt":4185,"stimulus":"[\"img/0758/7ffbc76b-1fc1-432c-8f7e-9ec8d1b3f643.jpg\",\"img/0902/40d0b6ec-3907-4573-b227-e7d8e9cad1c3.jpg\"]","trial_type":"similarity","trial_index":53,"time_elapsed":424410,"internal_node_id":"0.0-6.0-47.0"},{"sim_score":7,"rt":4041,"stimulus":"[\"img/0764/952d7adc-dc40-4aee-acce-18c2a1d02ea1.jpg\",\"img/0764/978aede9-4590-4ad0-b234-135c83e5d669.jpg\"]","trial_type":"similarity","trial_index":54,"time_elapsed":429457,"internal_node_id":"0.0-6.0-48.0"},{"sim_score":2,"rt":3777,"stimulus":"[\"img/0866/386235d2-6857-41e7-88a8-25cfc3430025.jpg\",\"img/0902/af40b98b-3d23-4d95-b401-49ba5783ce39.jpg\"]","trial_type":"similarity","trial_index":55,"time_elapsed":434241,"internal_node_id":"0.0-6.0-49.0"},{"sim_score":3,"rt":2757,"stimulus":"[\"img/0764/29072395-f595-4e3c-83d3-ff87010039fa.jpg\",\"img/0758/2fa3e613-e676-4e6e-bd12-705327eeb3e1.jpg\"]","trial_type":"similarity","trial_index":56,"time_elapsed":438004,"internal_node_id":"0.0-6.0-50.0"},{"sim_score":5,"rt":4134,"stimulus":"[\"img/0898/0af304a2-6a7a-4082-ab7c-4450cd08cc58.jpg\",\"img/0894/8cadb87a-7001-4e47-99fb-1867bebf1668.jpg\"]","trial_type":"similarity","trial_index":57,"time_elapsed":443145,"internal_node_id":"0.0-6.0-51.0"},{"sim_score":6,"rt":3369,"stimulus":"[\"img/0875/99698b4d-b4a1-44bc-8c83-8ea755bbbf61.jpg\",\"img/0866/9b38d691-1802-4959-ab3f-fc902f0e4ea6.jpg\"]","trial_type":"similarity","trial_index":58,"time_elapsed":447520,"internal_node_id":"0.0-6.0-52.0"},{"sim_score":5,"rt":3233,"stimulus":"[\"img/0904/60d1a521-edf7-4696-9263-f21ac0e62a01.jpg\",\"img/0904/09934646-45d2-4147-8fec-64a22a5ac822.jpg\"]","trial_type":"similarity","trial_index":59,"time_elapsed":451761,"internal_node_id":"0.0-6.0-53.0"},{"sim_score":6,"rt":3599,"stimulus":"[\"img/0769/c34b7763-8ff2-46d5-9e92-f1d8f3bedbd8.jpg\",\"img/0769/38a88f69-28fd-4bbd-99f0-f4c02bfd3995.jpg\"]","trial_type":"similarity","trial_index":60,"time_elapsed":456368,"internal_node_id":"0.0-6.0-54.0"},{"sim_score":1,"rt":3154,"stimulus":"[\"img/0898/26c41340-15bd-4ead-8fe4-c0d0ddca09c2.jpg\",\"img/0758/7ee8bc8f-c40b-4b3a-84ec-3e83580622d4.jpg\"]","trial_type":"similarity","trial_index":61,"time_elapsed":460527,"internal_node_id":"0.0-6.0-55.0"},{"sim_score":6,"rt":2970,"stimulus":"[\"img/0769/ecda2fb3-556b-43ba-8a67-e87dd75ff2b4.jpg\",\"img/0902/2a7ac123-414a-476a-9a96-4757b924baef.jpg\"]","trial_type":"similarity","trial_index":62,"time_elapsed":464503,"internal_node_id":"0.0-6.0-56.0"},{"sim_score":7,"rt":3490,"stimulus":"[\"img/0864/1d15626a-2f7c-410f-819c-0fa2c967e95e.jpg\",\"img/0881/14236cf2-6b95-48b8-9368-78af09d2d27f.jpg\"]","trial_type":"similarity","trial_index":63,"time_elapsed":469000,"internal_node_id":"0.0-6.0-57.0"},{"sim_score":2,"rt":4088,"stimulus":"[\"img/0758/6e95579b-5166-487c-b8cb-e417c6a218e3.jpg\",\"img/0868/fd307a36-9a3a-47d7-ab7c-f810d0b35040.jpg\"]","trial_type":"similarity","trial_index":64,"time_elapsed":474094,"internal_node_id":"0.0-6.0-58.0"},{"sim_score":3,"rt":5137,"stimulus":"[\"img/0862/53a9cf7c-93c4-41b9-952f-07d17f7a17b2.jpg\",\"img/0769/a1ce8d07-ba37-40de-bade-2778805521e0.jpg\"]","trial_type":"similarity","trial_index":65,"time_elapsed":480238,"internal_node_id":"0.0-6.0-59.0"},{"sim_score":4,"rt":4209,"stimulus":"[\"img/0764/c80b3e06-2ee3-4326-9678-340607eb5348.jpg\",\"img/0903/f67c4ab9-f8c2-4fcd-848a-a54a7b031002.jpg\"]","trial_type":"similarity","trial_index":66,"time_elapsed":485453,"internal_node_id":"0.0-6.0-60.0"},{"sim_score":5,"rt":3202,"stimulus":"[\"img/0899/565ccdd9-0933-4536-a625-3c0e25a713dd.jpg\",\"img/0899/8de08897-b430-42fe-9d42-840670b80f94.jpg\"]","trial_type":"similarity","trial_index":67,"time_elapsed":489661,"internal_node_id":"0.0-6.0-61.0"},{"sim_score":5,"rt":3243,"stimulus":"[\"img/0860/b03b963d-949b-4d8d-b19c-4950c89eeca2.jpg\",\"img/0875/a4935837-7d3c-4df6-88c1-36a94d4991ca.jpg\"]","trial_type":"similarity","trial_index":68,"time_elapsed":493909,"internal_node_id":"0.0-6.0-62.0"},{"sim_score":2,"rt":5009,"stimulus":"[\"img/0868/15dd6fd7-791e-4b53-b203-195d617521a4.jpg\",\"img/0874/31e22c7c-99aa-40b1-bf03-dd73fa2df4d6.jpg\"]","trial_type":"similarity","trial_index":69,"time_elapsed":499925,"internal_node_id":"0.0-6.0-63.0"},{"sim_score":3,"rt":4105,"stimulus":"[\"img/0758/9fb5b2fe-3f00-4fe6-973c-1ce10d5f4cd5.jpg\",\"img/0862/00c06b00-3b73-44e9-bc1e-c5aafb438321.jpg\"]","trial_type":"similarity","trial_index":70,"time_elapsed":505037,"internal_node_id":"0.0-6.0-64.0"},{"sim_score":5,"rt":3896,"stimulus":"[\"img/0904/96e503ea-6630-4996-85f2-0237688ce441.jpg\",\"img/0898/0c7dde4f-efce-4b7a-9387-6921635b7890.jpg\"]","trial_type":"similarity","trial_index":71,"time_elapsed":509941,"internal_node_id":"0.0-6.0-65.0"},{"sim_score":3,"rt":3688,"stimulus":"[\"img/0881/f8bd891e-aa09-4782-89db-33e7cb2b0cf1.jpg\",\"img/0866/23a224f3-2012-4fc8-8e0f-3c36f8de27fd.jpg\"]","trial_type":"similarity","trial_index":72,"time_elapsed":514636,"internal_node_id":"0.0-6.0-66.0"},{"sim_score":3,"rt":5464,"stimulus":"[\"img/0867/aa05d113-fc19-4756-a8eb-7878f580bc92.jpg\",\"img/0898/08c72dac-f8ad-407a-9ce6-8c9a5d679c3a.jpg\"]","trial_type":"similarity","trial_index":73,"time_elapsed":521108,"internal_node_id":"0.0-6.0-67.0"},{"sim_score":4,"rt":5152,"stimulus":"[\"img/0902/0db94c50-f1fb-4091-953c-29ca0466bee2.jpg\",\"img/0764/50f1b062-d608-4bc0-ab25-b872dcf2ed93.jpg\"]","trial_type":"similarity","trial_index":74,"time_elapsed":527267,"internal_node_id":"0.0-6.0-68.0"},{"sim_score":5,"rt":3761,"stimulus":"[\"img/0875/527ced51-8e53-4aab-ab05-86df219104c0.jpg\",\"img/0867/bf560d4f-dee3-4f11-a385-705cc1aa5f3c.jpg\"]","trial_type":"similarity","trial_index":75,"time_elapsed":532035,"internal_node_id":"0.0-6.0-69.0"},{"sim_score":6,"rt":3922,"stimulus":"[\"img/0766/fd74fdbb-ea40-4f3a-a091-38d08dfd636e.jpg\",\"img/0764/e0788029-9d7f-414c-b747-46d2a99f7c86.jpg\"]","trial_type":"similarity","trial_index":76,"time_elapsed":536962,"internal_node_id":"0.0-6.0-70.0"},{"sim_score":3,"rt":2793,"stimulus":"[\"img/0894/5c7677b0-a4f1-479e-b274-7822c415175a.jpg\",\"img/0867/1719a35d-f085-48c0-9099-16c94fe418b4.jpg\"]","trial_type":"similarity","trial_index":77,"time_elapsed":540764,"internal_node_id":"0.0-6.0-71.0"},{"sim_score":2,"rt":4528,"stimulus":"[\"img/0875/3ecb367d-e9eb-4826-8aaa-7aa72fb98019.jpg\",\"img/0764/ef0e64c6-d0dd-4dc6-87b6-ce5c0665f421.jpg\"]","trial_type":"similarity","trial_index":78,"time_elapsed":546298,"internal_node_id":"0.0-6.0-72.0"},{"sim_score":7,"rt":3362,"stimulus":"[\"img/0867/c71dc569-f49c-4397-8381-68b8d726736d.jpg\",\"img/0866/620cd1aa-0800-4414-8f6e-90342e7a99ad.jpg\"]","trial_type":"similarity","trial_index":79,"time_elapsed":550665,"internal_node_id":"0.0-6.0-73.0"},{"sim_score":3,"rt":4017,"stimulus":"[\"img/0903/470acfd5-5571-4a7b-b3a4-28d87e098138.jpg\",\"img/0758/d540bee6-b460-4c32-ac57-bc282742d7d4.jpg\"]","trial_type":"similarity","trial_index":80,"time_elapsed":555688,"internal_node_id":"0.0-6.0-74.0"},{"sim_score":1,"rt":2762,"stimulus":"[\"img/0766/75c3d627-4f3b-40d5-9d9c-10c8a62db644.jpg\",\"img/0868/0d3abd3a-b6c3-4584-a9f7-e2da63748b3d.jpg\"]","trial_type":"similarity","trial_index":81,"time_elapsed":559457,"internal_node_id":"0.0-6.0-75.0"},{"sim_score":3,"rt":4762,"stimulus":"[\"img/0874/eba003b4-cdab-4eee-8bc3-f064c7d94165.jpg\",\"img/0766/aaec5f42-7f0a-4a16-aeca-488d757acbcc.jpg\"]","trial_type":"similarity","trial_index":82,"time_elapsed":565226,"internal_node_id":"0.0-6.0-76.0"},{"sim_score":3,"rt":3640,"stimulus":"[\"img/0881/ed4c971f-0873-4fc8-b6d6-e8bbd82f0bcc.jpg\",\"img/0868/1a62b2b2-18f5-466e-b564-5176a57c565e.jpg\"]","trial_type":"similarity","trial_index":83,"time_elapsed":569872,"internal_node_id":"0.0-6.0-77.0"},{"sim_score":4,"rt":4321,"stimulus":"[\"img/0758/a709631e-3705-4725-ac40-f0d916924f08.jpg\",\"img/0901/d61f267a-c492-4db6-9bfb-61efd49cf072.jpg\"]","trial_type":"similarity","trial_index":84,"time_elapsed":575200,"internal_node_id":"0.0-6.0-78.0"},{"sim_score":4,"rt":3954,"stimulus":"[\"img/0881/633c6f40-56d9-4b48-bf1c-ecd83116eabb.jpg\",\"img/0898/4184e5a2-84ea-4f36-9b42-ae58646f6f87.jpg\"]","trial_type":"similarity","trial_index":85,"time_elapsed":580163,"internal_node_id":"0.0-6.0-79.0"},{"sim_score":2,"rt":3413,"stimulus":"[\"img/0867/a749dddb-69f0-44a6-acdc-2bf295cf6dcc.jpg\",\"img/0758/b76ceca7-95ac-46e4-ac13-da02c8e93be9.jpg\"]","trial_type":"similarity","trial_index":86,"time_elapsed":584583,"internal_node_id":"0.0-6.0-80.0"},{"sim_score":4,"rt":3457,"stimulus":"[\"img/0769/47700831-0ca2-4fdd-a498-a3bc5a528f43.jpg\",\"img/0899/a05bea16-2bb4-4cb9-b8fb-4ff975db6971.jpg\"]","trial_type":"similarity","trial_index":87,"time_elapsed":589047,"internal_node_id":"0.0-6.0-81.0"},{"sim_score":7,"rt":3290,"stimulus":"[\"img/0903/2a9c8033-3e70-47fa-816d-97ee1813a3a3.jpg\",\"img/0903/f1fa0f8d-e62b-4b4a-a174-31a0fabfe61b.jpg\"]","trial_type":"similarity","trial_index":88,"time_elapsed":593343,"internal_node_id":"0.0-6.0-82.0"},{"sim_score":1,"rt":2890,"stimulus":"[\"img/0867/5e07b34d-b40f-4b1c-ac10-49975bace45f.jpg\",\"img/0766/db750ba0-ce04-46e1-b601-e1b80212bad2.jpg\"]","trial_type":"similarity","trial_index":89,"time_elapsed":605124,"internal_node_id":"0.0-6.0-83.0"},{"sim_score":2,"rt":3243,"stimulus":"[\"img/0902/7f1dcd35-237a-4995-9e42-7f63f3f434d4.jpg\",\"img/0867/c66898ba-b71b-4d50-84f9-f7f84853a98d.jpg\"]","trial_type":"similarity","trial_index":90,"time_elapsed":609374,"internal_node_id":"0.0-6.0-84.0"},{"sim_score":1,"rt":3434,"stimulus":"[\"img/0901/548d1110-7cb8-42a2-9927-9798875c8b5c.jpg\",\"img/0875/5a1e5100-0d94-4fec-bbe9-ca9894d2cf8e.jpg\"]","trial_type":"similarity","trial_index":91,"time_elapsed":613813,"internal_node_id":"0.0-6.0-85.0"},{"sim_score":2,"rt":5297,"stimulus":"[\"img/0764/ec2dd087-c471-4370-b570-95a542506a96.jpg\",\"img/0866/07c9c966-3c8d-40e7-8128-92b2acbaed5d.jpg\"]","trial_type":"similarity","trial_index":92,"time_elapsed":620117,"internal_node_id":"0.0-6.0-86.0"},{"sim_score":1,"rt":2599,"stimulus":"[\"img/0901/a0d65c84-3f20-476a-92d1-0c01e8019cf4.jpg\",\"img/0894/2d2db7b3-e8a3-499b-b63a-14f51bf73882.jpg\"]","trial_type":"similarity","trial_index":93,"time_elapsed":623725,"internal_node_id":"0.0-6.0-87.0"},{"sim_score":2,"rt":3594,"stimulus":"[\"img/0898/01bfe666-3510-4fc7-964f-d00d28732dc8.jpg\",\"img/0769/f6396414-6788-4d59-9683-de153298d89c.jpg\"]","trial_type":"similarity","trial_index":94,"time_elapsed":628326,"internal_node_id":"0.0-6.0-88.0"},{"sim_score":3,"rt":4168,"stimulus":"[\"img/0769/022c7e3b-c3f2-4119-b4bc-f22fa7cae18c.jpg\",\"img/0894/5f15154e-e72e-4ce5-aafb-bce6f0564006.jpg\"]","trial_type":"similarity","trial_index":95,"time_elapsed":633500,"internal_node_id":"0.0-6.0-89.0"},{"sim_score":5,"rt":4425,"stimulus":"[\"img/0862/d0ca4c78-fc35-46ed-bdcc-8e124283c53e.jpg\",\"img/0874/adf9a8f1-c40b-402b-b95b-1e85a54a7b62.jpg\"]","trial_type":"similarity","trial_index":96,"time_elapsed":638932,"internal_node_id":"0.0-6.0-90.0"},{"sim_score":4,"rt":3002,"stimulus":"[\"img/0894/661b9f9f-4bde-487a-b1ed-87085fde6948.jpg\",\"img/0766/ea09dd5a-d24d-4e97-a099-7da3db1baef1.jpg\"]","trial_type":"similarity","trial_index":97,"time_elapsed":642939,"internal_node_id":"0.0-6.0-91.0"},{"sim_score":1,"rt":3170,"stimulus":"[\"img/0874/1016b306-087c-4afc-aa08-fa527b28dc76.jpg\",\"img/0867/f8488a47-94ee-4166-952c-44e16cf172f6.jpg\"]","trial_type":"similarity","trial_index":98,"time_elapsed":647115,"internal_node_id":"0.0-6.0-92.0"},{"sim_score":1,"rt":3257,"stimulus":"[\"img/0899/f95cbdb4-f804-4f5d-ad76-373ad343e658.jpg\",\"img/0868/4e626425-63c8-484a-8a1d-e66ee4e0bef8.jpg\"]","trial_type":"similarity","trial_index":99,"time_elapsed":651379,"internal_node_id":"0.0-6.0-93.0"},{"sim_score":5,"rt":3610,"stimulus":"[\"img/0903/c3cb4a01-2797-43ca-b216-88c67b323fbb.jpg\",\"img/0862/ad593cc7-cabe-4bb7-8e14-8a447a0717b4.jpg\"]","trial_type":"similarity","trial_index":100,"time_elapsed":655995,"internal_node_id":"0.0-6.0-94.0"},{"sim_score":5,"rt":3322,"stimulus":"[\"img/0899/25ae6ec8-9565-49fe-a8bb-8d0666f52716.jpg\",\"img/0766/af3be95e-e52e-4fae-899b-0ff02ec340aa.jpg\"]","trial_type":"similarity","trial_index":101,"time_elapsed":660322,"internal_node_id":"0.0-6.0-95.0"},{"sim_score":7,"rt":4081,"stimulus":"[\"img/0867/cc72ed48-7704-422c-86d6-467a1145287a.jpg\",\"img/0868/c8ac40c7-6904-4e13-8d61-c75d3052dc4e.jpg\"]","trial_type":"similarity","trial_index":102,"time_elapsed":665410,"internal_node_id":"0.0-6.0-96.0"},{"sim_score":7,"rt":3826,"stimulus":"[\"img/0862/57b6f83f-c763-4858-830d-102f97bfefbf.jpg\",\"img/0901/7c16dd9c-44ad-4d5b-990c-6a0b9b48b1b1.jpg\"]","trial_type":"similarity","trial_index":103,"time_elapsed":670242,"internal_node_id":"0.0-6.0-97.0"},{"sim_score":3,"rt":3049,"stimulus":"[\"img/0875/e7e66b13-b573-431e-b85e-288ce04a35a3.jpg\",\"img/0766/5d1b8041-c5a1-4b02-b4fe-3453d98a0d72.jpg\"]","trial_type":"similarity","trial_index":104,"time_elapsed":674298,"internal_node_id":"0.0-6.0-98.0"},{"sim_score":6,"rt":3194,"stimulus":"[\"img/0758/dd559618-7f09-4a07-8018-d311c4a5ea29.jpg\",\"img/0874/995f0332-0439-4eb4-add3-957335dbf6d9.jpg\"]","trial_type":"similarity","trial_index":105,"time_elapsed":678497,"internal_node_id":"0.0-6.0-99.0"},{"sim_score":5,"rt":6330,"stimulus":"[\"img/0904/a8c3c7d2-9bcf-4347-9e03-8203adfc1fc5.jpg\",\"img/0868/77091fc7-a590-4ebb-b915-fdb2483a2399.jpg\"]","trial_type":"similarity","trial_index":106,"time_elapsed":685833,"internal_node_id":"0.0-6.0-100.0"},{"sim_score":3,"rt":4993,"stimulus":"[\"img/0903/0e5c2854-42aa-48c0-9c3d-6e1ad2a400bd.jpg\",\"img/0866/93a27239-8317-4e08-98ca-d8b1ff298e07.jpg\"]","trial_type":"similarity","trial_index":107,"time_elapsed":691832,"internal_node_id":"0.0-6.0-101.0"},{"sim_score":4,"rt":4241,"stimulus":"[\"img/0868/3a62db2d-97e9-44a3-b8e3-a48c6f0e423b.jpg\",\"img/0769/7c50e5f5-cc38-4d48-b009-fbe17bcea61c.jpg\"]","trial_type":"similarity","trial_index":108,"time_elapsed":697079,"internal_node_id":"0.0-6.0-102.0"},{"sim_score":7,"rt":4305,"stimulus":"[\"img/0902/aa6fca32-82b0-4414-b20a-8f6f8aa5a2d2.jpg\",\"img/0899/66ab3178-c3fe-4455-ad17-d5952b08e018.jpg\"]","trial_type":"similarity","trial_index":109,"time_elapsed":702392,"internal_node_id":"0.0-6.0-103.0"},{"sim_score":2,"rt":4386,"stimulus":"[\"img/0868/83b4350a-3b70-4cea-b7f5-b5b56f3050a8.jpg\",\"img/0862/ee3b7bff-4a70-4e84-9bea-4a565e456acb.jpg\"]","trial_type":"similarity","trial_index":110,"time_elapsed":707783,"internal_node_id":"0.0-6.0-104.0"},{"sim_score":7,"rt":2938,"stimulus":"[\"img/0903/b0df4094-a3be-4b5b-81bd-8d260f13f61b.jpg\",\"img/0894/2217bdcd-23a7-42d3-823b-23f2488d7e87.jpg\"]","trial_type":"similarity","trial_index":111,"time_elapsed":711727,"internal_node_id":"0.0-6.0-105.0"},{"sim_score":5,"rt":3082,"stimulus":"[\"img/0864/4bd81bc6-c13d-46df-95a9-485886dc7c1b.jpg\",\"img/0874/3f471690-9788-4d03-90c7-f615aecef149.jpg\"]","trial_type":"similarity","trial_index":112,"time_elapsed":715815,"internal_node_id":"0.0-6.0-106.0"},{"sim_score":6,"rt":2426,"stimulus":"[\"img/0862/92fcd8a4-8193-4a6a-ae09-dd4a6338b0df.jpg\",\"img/0902/82d20e8c-2162-47a6-925b-52906558c046.jpg\"]","trial_type":"similarity","trial_index":113,"time_elapsed":719247,"internal_node_id":"0.0-6.0-107.0"},{"sim_score":7,"rt":4082,"stimulus":"[\"img/0904/4b8daf2a-13a9-4ea9-9e0b-b265b6e933e7.jpg\",\"img/0903/5ea5bbe0-f238-4724-abe7-9ed8dee8c0ba.jpg\"]","trial_type":"similarity","trial_index":114,"time_elapsed":724334,"internal_node_id":"0.0-6.0-108.0"},{"sim_score":6,"rt":2826,"stimulus":"[\"img/0764/ca9829fe-aaf8-45b8-b98a-6bae751c63dd.jpg\",\"img/0864/5f74a653-3bdc-4308-8cca-ac667dc22e1f.jpg\"]","trial_type":"similarity","trial_index":115,"time_elapsed":728166,"internal_node_id":"0.0-6.0-109.0"},{"sim_score":5,"rt":6081,"stimulus":"[\"img/0866/945c6710-d15b-4a5b-a8f6-69af0850357f.jpg\",\"img/0894/151063aa-6472-4745-837b-36603aba5966.jpg\"]","trial_type":"similarity","trial_index":116,"time_elapsed":735254,"internal_node_id":"0.0-6.0-110.0"},{"sim_score":5,"rt":3418,"stimulus":"[\"img/0899/7b7380d5-d2be-44e5-a09a-c1756f87ef71.jpg\",\"img/0903/45e2d600-57ff-4d69-b22c-0c7896cd38f0.jpg\"]","trial_type":"similarity","trial_index":117,"time_elapsed":739677,"internal_node_id":"0.0-6.0-111.0"},{"sim_score":5,"rt":2890,"stimulus":"[\"img/0902/f3cfec34-482c-4bdb-9c92-19ea6cfce183.jpg\",\"img/0904/25365108-e038-4021-aac9-797f2063b337.jpg\"]","trial_type":"similarity","trial_index":118,"time_elapsed":743573,"internal_node_id":"0.0-6.0-112.0"},{"sim_score":2,"rt":4952,"stimulus":"[\"img/0864/0116ca98-293d-4fa6-a93b-5a6144ef64cc.jpg\",\"img/0860/524b2e98-5767-4d53-942c-ebae6925659b.jpg\"]","trial_type":"similarity","trial_index":119,"time_elapsed":749533,"internal_node_id":"0.0-6.0-113.0"},{"sim_score":3,"rt":6729,"stimulus":"[\"img/0860/99c589b9-9140-4d17-90c0-b344323edcda.jpg\",\"img/0899/ddf96ade-692e-4602-bd22-dedbb46401bc.jpg\"]","trial_type":"similarity","trial_index":120,"time_elapsed":757269,"internal_node_id":"0.0-6.0-114.0"},{"sim_score":2,"rt":4215,"stimulus":"[\"img/0881/adc02f34-ce97-4aef-850f-00519df06fd7.jpg\",\"img/0903/6138142e-c84e-45fc-9487-c974f3d4968a.jpg\"]","trial_type":"similarity","trial_index":121,"time_elapsed":762494,"internal_node_id":"0.0-6.0-115.0"},{"sim_score":1,"rt":3264,"stimulus":"[\"img/0894/1b3888e6-cf36-4c4a-a039-187aa5cb71ac.jpg\",\"img/0874/8cdb1c07-1c32-46d2-981c-3636560fa6e5.jpg\"]","trial_type":"similarity","trial_index":122,"time_elapsed":766764,"internal_node_id":"0.0-6.0-116.0"},{"sim_score":3,"rt":5545,"stimulus":"[\"img/0881/344de456-b358-4887-bd0e-e4c3278af887.jpg\",\"img/0862/7918ca67-5bd3-4606-a5ea-c39fb11a9297.jpg\"]","trial_type":"similarity","trial_index":123,"time_elapsed":773315,"internal_node_id":"0.0-6.0-117.0"},{"sim_score":5,"rt":4034,"stimulus":"[\"img/0868/4a8a45ed-2c4f-421b-9564-409a33ecd26c.jpg\",\"img/0875/2e13d160-eea1-416b-aff1-d37ab99ecc1d.jpg\"]","trial_type":"similarity","trial_index":124,"time_elapsed":778355,"internal_node_id":"0.0-6.0-118.0"},{"sim_score":2,"rt":2168,"stimulus":"[\"img/0860/5bff793e-cbd5-4d7e-b628-0ac2b0e30b64.jpg\",\"img/0758/eabcd7a8-56ad-4fd2-bc24-90f6b7b33265.jpg\"]","trial_type":"similarity","trial_index":125,"time_elapsed":781531,"internal_node_id":"0.0-6.0-119.0"},{"sim_score":1,"rt":4058,"stimulus":"[\"img/0864/c3b63e8f-ea39-4d70-a1f2-b3fe4be8eb75.jpg\",\"img/0875/5a7c4e35-6514-4e12-8879-d16071da4cd6.jpg\"]","trial_type":"similarity","trial_index":126,"time_elapsed":786594,"internal_node_id":"0.0-6.0-120.0"},{"sim_score":4,"rt":3041,"stimulus":"[\"img/0898/993d8f2d-bef7-4251-a193-0f93a32b7763.jpg\",\"img/0866/a04d37f0-99dd-478a-b6c6-58b215138f84.jpg\"]","trial_type":"similarity","trial_index":127,"time_elapsed":790641,"internal_node_id":"0.0-6.0-121.0"},{"sim_score":3,"rt":5034,"stimulus":"[\"img/0874/93d1f8dc-acf2-4f03-bd8d-8ec35df276ed.jpg\",\"img/0904/da170c1b-9651-4f08-b231-2bdd1d9a046f.jpg\"]","trial_type":"similarity","trial_index":128,"time_elapsed":796682,"internal_node_id":"0.0-6.0-122.0"},{"sim_score":2,"rt":4305,"stimulus":"[\"img/0904/73920552-103b-4c9c-9ece-e0b8376b4504.jpg\",\"img/0864/65210d57-1153-4657-886a-32e758f49b4a.jpg\"]","trial_type":"similarity","trial_index":129,"time_elapsed":801993,"internal_node_id":"0.0-6.0-123.0"},{"sim_score":2,"rt":6337,"stimulus":"[\"img/0894/a98416c0-51e2-4960-85da-d81d8688b9d5.jpg\",\"img/0902/44cd9b7e-fdfb-4f78-90de-8d4c9d279365.jpg\"]","trial_type":"similarity","trial_index":130,"time_elapsed":809336,"internal_node_id":"0.0-6.0-124.0"},{"sim_score":2,"rt":3049,"stimulus":"[\"img/0868/e0aff734-077f-40dd-9781-74821abd3621.jpg\",\"img/0864/da39ad34-04e0-40d4-a724-c08d53e0ea09.jpg\"]","trial_type":"similarity","trial_index":131,"time_elapsed":1256057,"internal_node_id":"0.0-6.0-125.0"},{"sim_score":3,"rt":5222,"stimulus":"[\"img/0899/f58b8d2f-b19d-4b59-8b94-8834be92e4ba.jpg\",\"img/0866/bf14b5bd-fb55-47db-86b9-4f8aeb9a6dad.jpg\"]","trial_type":"similarity","trial_index":132,"time_elapsed":1262293,"internal_node_id":"0.0-6.0-126.0"},{"sim_score":2,"rt":4209,"stimulus":"[\"img/0875/f87b67d7-c33e-40d1-b281-248c4be1cb6e.jpg\",\"img/0904/0d25eb24-bb20-4e8d-9787-8b489558b4cb.jpg\"]","trial_type":"similarity","trial_index":133,"time_elapsed":1267508,"internal_node_id":"0.0-6.0-127.0"},{"sim_score":1,"rt":5097,"stimulus":"[\"img/0867/db7e032f-162b-46f5-ae67-2b29679adee4.jpg\",\"img/0899/51a7a498-98c7-42d7-bca8-bc2d8f0b5831.jpg\"]","trial_type":"similarity","trial_index":134,"time_elapsed":1273612,"internal_node_id":"0.0-6.0-128.0"},{"sim_score":5,"rt":4537,"stimulus":"[\"img/0901/71e551a2-9ce2-409c-9c7c-dd556a0791e9.jpg\",\"img/0867/de92135f-5b65-4ed9-b245-188292c7c2f8.jpg\"]","trial_type":"similarity","trial_index":135,"time_elapsed":1279159,"internal_node_id":"0.0-6.0-129.0"},{"sim_score":6,"rt":3646,"stimulus":"[\"img/0864/66091c27-e588-4476-8af9-265dc6be4156.jpg\",\"img/0769/878531fd-e0e8-4ad1-b9ad-f018bb104ca0.jpg\"]","trial_type":"similarity","trial_index":136,"time_elapsed":1283812,"internal_node_id":"0.0-6.0-130.0"},{"sim_score":3,"rt":3248,"stimulus":"[\"img/0903/71dbc325-b588-4297-a5cf-7f268a722ad9.jpg\",\"img/0868/d98ca254-b195-477f-b57e-5760a2717db8.jpg\"]","trial_type":"similarity","trial_index":137,"time_elapsed":1288067,"internal_node_id":"0.0-6.0-131.0"},{"sim_score":2,"rt":4401,"stimulus":"[\"img/0864/e8bd659f-aa43-4748-877e-3118e8b4e189.jpg\",\"img/0867/179ab87a-8eac-4c52-a41f-2e48e3120f09.jpg\"]","trial_type":"similarity","trial_index":138,"time_elapsed":1293475,"internal_node_id":"0.0-6.0-132.0"},{"sim_score":5,"rt":2551,"stimulus":"[\"img/0901/d6d15b1c-4a30-4f74-a3fd-d4c8ee4169ca.jpg\",\"img/0860/29a21a9f-54bb-4093-ad3f-04823ceaa89f.jpg\"]","trial_type":"similarity","trial_index":139,"time_elapsed":1297034,"internal_node_id":"0.0-6.0-133.0"},{"sim_score":6,"rt":4066,"stimulus":"[\"img/0881/ee44e27f-d662-4608-b265-e7ffa19b216f.jpg\",\"img/0766/2da002a4-05c9-4f5c-9ed7-433b4183e273.jpg\"]","trial_type":"similarity","trial_index":140,"time_elapsed":1302108,"internal_node_id":"0.0-6.0-134.0"},{"sim_score":3,"rt":2424,"stimulus":"[\"img/0903/12bd8657-92e6-4c36-a06c-597e7a1d51f3.jpg\",\"img/0864/9b2490c5-a282-400a-9736-e1a0ecbf1cb7.jpg\"]","trial_type":"similarity","trial_index":141,"time_elapsed":1305537,"internal_node_id":"0.0-6.0-135.0"},{"sim_score":2,"rt":4337,"stimulus":"[\"img/0758/d41c06bf-ebaf-454b-91c6-1a17f917b659.jpg\",\"img/0894/86201968-6e78-4d68-9b3a-d1692e066210.jpg\"]","trial_type":"similarity","trial_index":142,"time_elapsed":1310881,"internal_node_id":"0.0-6.0-136.0"},{"sim_score":5,"rt":2705,"stimulus":"[\"img/0769/96556ef3-7fac-4c9d-8281-1cb0ea5081bc.jpg\",\"img/0860/4c530c3c-6aab-492a-94d1-9c01797bde40.jpg\"]","trial_type":"similarity","trial_index":143,"time_elapsed":1314593,"internal_node_id":"0.0-6.0-137.0"},{"sim_score":7,"rt":2802,"stimulus":"[\"img/0904/ba8e689e-9ca6-4608-a2a1-3b0940666ae6.jpg\",\"img/0766/5d6e0d1d-4369-41f0-a64c-91f3503055c7.jpg\"]","trial_type":"similarity","trial_index":144,"time_elapsed":1318401,"internal_node_id":"0.0-6.0-138.0"},{"sim_score":6,"rt":4226,"stimulus":"[\"img/0868/179a5502-ab5c-478e-8263-5a1fbcc101d2.jpg\",\"img/0860/31ff6436-98bf-4652-bed2-40f627229568.jpg\"]","trial_type":"similarity","trial_index":145,"time_elapsed":1323632,"internal_node_id":"0.0-6.0-139.0"},{"sim_score":6,"rt":2498,"stimulus":"[\"img/0758/f61ecdf8-a7d4-4db0-b84d-be46f7cfaffc.jpg\",\"img/0864/6f631579-acf1-415c-a42c-1207f62a8d99.jpg\"]","trial_type":"similarity","trial_index":146,"time_elapsed":1327136,"internal_node_id":"0.0-6.0-140.0"},{"sim_score":7,"rt":3113,"stimulus":"[\"img/0867/8ba0c5a7-c7e4-42cf-a80a-543763b90779.jpg\",\"img/0867/98d8cd96-1476-4fe0-a3a3-04f875500a1b.jpg\"]","trial_type":"similarity","trial_index":147,"time_elapsed":1331255,"internal_node_id":"0.0-6.0-141.0"},{"sim_score":7,"rt":2562,"stimulus":"[\"img/0898/cd3aaa3f-efa9-4ab3-8d6f-a6a9273ddf42.jpg\",\"img/0898/661621d4-a14e-487c-8c74-354134a29710.jpg\"]","trial_type":"similarity","trial_index":148,"time_elapsed":1334824,"internal_node_id":"0.0-6.0-142.0"},{"sim_score":3,"rt":7033,"stimulus":"[\"img/0866/11a1d141-be5e-443c-98c1-a9d4d9e3dec0.jpg\",\"img/0769/6c0bac4c-5f59-43c7-898c-3ca93cf55cfe.jpg\"]","trial_type":"similarity","trial_index":149,"time_elapsed":1342863,"internal_node_id":"0.0-6.0-143.0"},{"sim_score":7,"rt":2769,"stimulus":"[\"img/0860/c3379ff7-0763-48fe-a1ec-7ea3d611bc7a.jpg\",\"img/0898/79233891-305a-4a6a-8ddf-5c8604858203.jpg\"]","trial_type":"similarity","trial_index":150,"time_elapsed":1346639,"internal_node_id":"0.0-6.0-144.0"},{"sim_score":6,"rt":3074,"stimulus":"[\"img/0766/27f54113-8561-4568-9ffe-0a1650ae65ec.jpg\",\"img/0864/3d4de670-b290-4285-9c3d-12a0e3af44e9.jpg\"]","trial_type":"similarity","trial_index":151,"time_elapsed":1350719,"internal_node_id":"0.0-6.0-145.0"},{"sim_score":5,"rt":3776,"stimulus":"[\"img/0860/8fdba999-b946-4c7d-9891-336018b563ef.jpg\",\"img/0903/6378ee1e-3d2b-48d2-87be-bebda32c8268.jpg\"]","trial_type":"similarity","trial_index":152,"time_elapsed":1355502,"internal_node_id":"0.0-6.0-146.0"},{"sim_score":1,"rt":3147,"stimulus":"[\"img/0867/f26f6b60-f772-4f4c-95a4-addc62cfd692.jpg\",\"img/0764/03c07b98-3f18-4b71-bb70-ecff564a78d1.jpg\"]","trial_type":"similarity","trial_index":153,"time_elapsed":1359666,"internal_node_id":"0.0-6.0-147.0"},{"sim_score":3,"rt":4811,"stimulus":"[\"img/0769/a3cfbdeb-acb3-4eac-87fb-4b117f42d4f8.jpg\",\"img/0904/56e73f28-7e64-489b-a161-e6b1a063878d.jpg\"]","trial_type":"similarity","trial_index":154,"time_elapsed":1365486,"internal_node_id":"0.0-6.0-148.0"},{"sim_score":2,"rt":4682,"stimulus":"[\"img/0764/a3226bc4-dcc3-4608-bde8-1414d685ce5c.jpg\",\"img/0901/a2d7b2f6-396b-4d91-8403-de5361c74af7.jpg\"]","trial_type":"similarity","trial_index":155,"time_elapsed":1371174,"internal_node_id":"0.0-6.0-149.0"},{"sim_score":4,"rt":7457,"stimulus":"[\"img/0904/09dac84f-3d1c-4445-a68e-d0389fdbf1e9.jpg\",\"img/0899/ad8268c5-8199-48d0-ad70-c5b6d6c599ec.jpg\"]","trial_type":"similarity","trial_index":156,"time_elapsed":1379637,"internal_node_id":"0.0-6.0-150.0"},{"sim_score":5,"rt":6065,"stimulus":"[\"img/0862/f188d4f0-76a4-4102-818c-a209969d73a5.jpg\",\"img/0867/6e19c858-b606-45b2-a4c6-910a73f1d82c.jpg\"]","trial_type":"similarity","trial_index":157,"time_elapsed":1386708,"internal_node_id":"0.0-6.0-151.0"},{"sim_score":7,"rt":3761,"stimulus":"[\"img/0766/e8052e17-9dae-4139-802b-6e590cb2d526.jpg\",\"img/0766/a1ed3f0f-e338-4a26-8fe4-4370f0c9fa6e.jpg\"]","trial_type":"similarity","trial_index":158,"time_elapsed":1391477,"internal_node_id":"0.0-6.0-152.0"},{"sim_score":6,"rt":3328,"stimulus":"[\"img/0862/f23038d4-c366-4f70-979f-66b62362efa4.jpg\",\"img/0894/e6385e52-6c35-43bd-b0af-bc803d107b11.jpg\"]","trial_type":"similarity","trial_index":159,"time_elapsed":1395814,"internal_node_id":"0.0-6.0-153.0"},{"sim_score":5,"rt":9904,"stimulus":"[\"img/0899/fef567a2-c121-4481-9af0-ff108d199bbf.jpg\",\"img/0901/fb0a8e69-7f19-4e6e-a6bb-a48f97f9b4f3.jpg\"]","trial_type":"similarity","trial_index":160,"time_elapsed":1406723,"internal_node_id":"0.0-6.0-154.0"},{"sim_score":5,"rt":2977,"stimulus":"[\"img/0874/ca23d307-fc00-4d7d-9106-584c6eb21b4d.jpg\",\"img/0874/a3bc679d-619f-4db6-bb68-116dcb757d9c.jpg\"]","trial_type":"similarity","trial_index":161,"time_elapsed":1410707,"internal_node_id":"0.0-6.0-155.0"},{"sim_score":2,"rt":4546,"stimulus":"[\"img/0860/c5ccd1a4-4bb7-48e1-9b25-72cfaf06909b.jpg\",\"img/0867/2e1a0b58-cdb1-4107-a14e-452530d7b9b0.jpg\"]","trial_type":"similarity","trial_index":162,"time_elapsed":1416259,"internal_node_id":"0.0-6.0-156.0"},{"sim_score":4,"rt":4193,"stimulus":"[\"img/0901/7d4a3388-488d-4e9b-9d32-9d0def7aae8d.jpg\",\"img/0881/7e31e5dc-2240-4b1b-b5a0-3acd980099ef.jpg\"]","trial_type":"similarity","trial_index":163,"time_elapsed":1421458,"internal_node_id":"0.0-6.0-157.0"},{"sim_score":5,"rt":3377,"stimulus":"[\"img/0903/6b5dcc60-3ad3-4962-93e5-e6cf768477af.jpg\",\"img/0902/a6fb6dd5-696c-47ec-be7d-d7b88f1544f1.jpg\"]","trial_type":"similarity","trial_index":164,"time_elapsed":1425842,"internal_node_id":"0.0-6.0-158.0"},{"sim_score":6,"rt":2738,"stimulus":"[\"img/0860/fd4662f9-4c03-4d79-8593-06735e55a64b.jpg\",\"img/0764/17b088f8-3053-4140-b544-d15654cc79ef.jpg\"]","trial_type":"similarity","trial_index":165,"time_elapsed":1429586,"internal_node_id":"0.0-6.0-159.0"},{"sim_score":5,"rt":3370,"stimulus":"[\"img/0902/d3e55000-c839-4bf9-9b9b-4af0a9925af1.jpg\",\"img/0875/8521fd58-3b1e-4dc5-97ae-804edfa6734a.jpg\"]","trial_type":"similarity","trial_index":166,"time_elapsed":1433961,"internal_node_id":"0.0-6.0-160.0"},{"sim_score":3,"rt":5856,"stimulus":"[\"img/0898/8605a25b-6895-476d-8c13-df7a83f96093.jpg\",\"img/0862/f43ceabf-acc1-4107-b857-5d1849808f93.jpg\"]","trial_type":"similarity","trial_index":167,"time_elapsed":1440849,"internal_node_id":"0.0-6.0-161.0"},{"sim_score":2,"rt":3887,"stimulus":"[\"img/0894/e5edf723-72a5-4673-8441-6c1734a8929b.jpg\",\"img/0875/dbdd643e-6d0e-4a5c-ab57-b9c29b9c981a.jpg\"]","trial_type":"similarity","trial_index":168,"time_elapsed":1445773,"internal_node_id":"0.0-6.0-162.0"},{"sim_score":1,"rt":3166,"stimulus":"[\"img/0866/f756f7d1-9ad8-4a34-9ef6-7a443d705bfe.jpg\",\"img/0864/3651d070-2fc5-4848-b6a6-088a2d9ac5c9.jpg\"]","trial_type":"similarity","trial_index":169,"time_elapsed":1449945,"internal_node_id":"0.0-6.0-163.0"},{"sim_score":1,"rt":3828,"stimulus":"[\"img/0766/1bc0dccc-a5b5-4375-87fa-28360ca42b12.jpg\",\"img/0862/de9ad88c-b522-430a-8ee9-eb06a9f85df5.jpg\"]","trial_type":"similarity","trial_index":170,"time_elapsed":1454779,"internal_node_id":"0.0-6.0-164.0"},{"sim_score":1,"rt":4022,"stimulus":"[\"img/0866/be24ab58-230e-4db8-9f45-ff04c9aec6bb.jpg\",\"img/0874/c0378dac-9370-439a-8b79-db27c96fb390.jpg\"]","trial_type":"similarity","trial_index":171,"time_elapsed":1459807,"internal_node_id":"0.0-6.0-165.0"},{"sim_score":7,"rt":3595,"stimulus":"[\"img/0862/064818ee-13d5-4618-bb24-21c7368ea278.jpg\",\"img/0860/61fb959d-d4d9-4de4-9e4e-4fa62b4cfcd5.jpg\"]","trial_type":"similarity","trial_index":172,"time_elapsed":1464409,"internal_node_id":"0.0-6.0-166.0"},{"sim_score":1,"rt":3992,"stimulus":"[\"img/0766/33519c22-aaa4-49d7-8d49-ab551db1945e.jpg\",\"img/0901/ae1e6ce4-2e10-4ca9-b1e7-21628637ab74.jpg\"]","trial_type":"similarity","trial_index":173,"time_elapsed":1473941,"internal_node_id":"0.0-6.0-167.0"},{"sim_score":6,"rt":3828,"stimulus":"[\"img/0862/1c20f772-3a51-4a80-aac0-f57dc9f86c28.jpg\",\"img/0862/a0a3a7ba-7798-46a3-b4ca-05e1f6e581d0.jpg\"]","trial_type":"similarity","trial_index":174,"time_elapsed":1478775,"internal_node_id":"0.0-6.0-168.0"},{"sim_score":2,"rt":3809,"stimulus":"[\"img/0894/c505c65a-cde2-4f2c-8cde-f8676f7c894d.jpg\",\"img/0764/1f95ab5f-fb65-4d70-b5db-d6bd6351a8aa.jpg\"]","trial_type":"similarity","trial_index":175,"time_elapsed":1483591,"internal_node_id":"0.0-6.0-169.0"},{"sim_score":2,"rt":5257,"stimulus":"[\"img/0874/767f289c-9814-4496-803f-745cc8913d1f.jpg\",\"img/0898/6cd3830b-d44e-4915-be2b-88d31424b91c.jpg\"]","trial_type":"similarity","trial_index":176,"time_elapsed":1489853,"internal_node_id":"0.0-6.0-170.0"},{"sim_score":1,"rt":3226,"stimulus":"[\"img/0860/5383b320-1518-4095-a58e-5cc1ae30b64c.jpg\",\"img/0766/1865bfc9-2410-4765-a804-3ae4ba2393d0.jpg\"]","trial_type":"similarity","trial_index":177,"time_elapsed":1494085,"internal_node_id":"0.0-6.0-171.0"},{"sim_score":1,"rt":3953,"stimulus":"[\"img/0898/68476bbb-34a1-42d9-8bc1-deab783d4489.jpg\",\"img/0864/afcba0a3-7e27-4757-b254-e9f05fad27e2.jpg\"]","trial_type":"similarity","trial_index":178,"time_elapsed":1499045,"internal_node_id":"0.0-6.0-172.0"},{"sim_score":4,"rt":3985,"stimulus":"[\"img/0881/7e822106-76f7-4b10-a805-14dc68b2cfaf.jpg\",\"img/0764/c0b03adb-bd0a-4b96-a915-a827c2fd5211.jpg\"]","trial_type":"similarity","trial_index":179,"time_elapsed":1504038,"internal_node_id":"0.0-6.0-173.0"},{"sim_score":2,"rt":4424,"stimulus":"[\"img/0898/40f99fb2-64d2-4e72-8a7f-a1cf60741e69.jpg\",\"img/0868/4bd5105a-d2c3-4f82-8c80-57196106ba53.jpg\"]","trial_type":"similarity","trial_index":180,"time_elapsed":1509470,"internal_node_id":"0.0-6.0-174.0"},{"sim_score":6,"rt":4454,"stimulus":"[\"img/0864/b3c4e378-28f0-4699-9338-2a257b4bca04.jpg\",\"img/0864/87c467d3-abca-482f-ad80-3766c21b1bb3.jpg\"]","trial_type":"similarity","trial_index":181,"time_elapsed":1514932,"internal_node_id":"0.0-6.0-175.0"},{"sim_score":6,"rt":3290,"stimulus":"[\"img/0899/fd9efb43-701f-4cd6-baaa-4c38315f4bdc.jpg\",\"img/0862/24cdc752-c2e5-4a17-86a6-6f2045d8553b.jpg\"]","trial_type":"similarity","trial_index":182,"time_elapsed":1519228,"internal_node_id":"0.0-6.0-176.0"},{"sim_score":1,"rt":4897,"stimulus":"[\"img/0875/90da8d75-108a-44ad-b999-e21fee3860d3.jpg\",\"img/0758/a085b443-b5d7-4cb2-9ad4-b9dab0fc23f1.jpg\"]","trial_type":"similarity","trial_index":183,"time_elapsed":1525131,"internal_node_id":"0.0-6.0-177.0"},{"sim_score":2,"rt":2985,"stimulus":"[\"img/0866/0207e9a2-7dbb-40b5-9459-b472aaeceb2a.jpg\",\"img/0901/4ca4f962-40c0-4c59-b14a-3cd7b8c9029b.jpg\"]","trial_type":"similarity","trial_index":184,"time_elapsed":1529124,"internal_node_id":"0.0-6.0-178.0"},{"sim_score":2,"rt":6017,"stimulus":"[\"img/0769/11518cb3-13ea-4dd0-890c-30cfab728ade.jpg\",\"img/0874/3ce41e7c-40c8-4d58-a546-171114521796.jpg\"]","trial_type":"similarity","trial_index":185,"time_elapsed":1536147,"internal_node_id":"0.0-6.0-179.0"},{"sim_score":4,"rt":9601,"stimulus":"[\"img/0875/ebf7653f-ff45-4e9f-af58-2c042ab3cd2b.jpg\",\"img/0881/33d65d80-8a8e-4ecf-852d-0ad7725c17a2.jpg\"]","trial_type":"similarity","trial_index":186,"time_elapsed":1546754,"internal_node_id":"0.0-6.0-180.0"},{"sim_score":5,"rt":3273,"stimulus":"[\"img/0866/6f2a90d7-14f1-4f1b-bd64-fc0af6b9fe44.jpg\",\"img/0868/d6d1f30d-4323-435a-b194-7892521bc57e.jpg\"]","trial_type":"similarity","trial_index":187,"time_elapsed":1551034,"internal_node_id":"0.0-6.0-181.0"},{"sim_score":7,"rt":5011,"stimulus":"[\"img/0899/0e1d936a-dbe2-4afc-9f19-7b7a1ae6c9ed.jpg\",\"img/0758/3ddd05d3-557e-4ee7-8b78-9d2d681d8ae2.jpg\"]","trial_type":"similarity","trial_index":188,"time_elapsed":1557050,"internal_node_id":"0.0-6.0-182.0"},{"sim_score":2,"rt":3178,"stimulus":"[\"img/0874/bf14b896-e930-4fd9-9c05-2e83317a2773.jpg\",\"img/0875/42910c99-5463-450a-a0f8-d4d060a11455.jpg\"]","trial_type":"similarity","trial_index":189,"time_elapsed":1561233,"internal_node_id":"0.0-6.0-183.0"},{"sim_score":5,"rt":6137,"stimulus":"[\"img/0904/4d7d70a3-9477-4921-bda0-f9531d0a5c5b.jpg\",\"img/0862/92f0146c-20c4-482e-aef5-adb693790338.jpg\"]","trial_type":"similarity","trial_index":190,"time_elapsed":1568377,"internal_node_id":"0.0-6.0-184.0"},{"sim_score":4,"rt":4019,"stimulus":"[\"img/0902/62f11694-7ed7-4cb7-8a73-9e95c43824e7.jpg\",\"img/0766/0b48f9e0-7d37-4161-8adb-4e3f5b6b7583.jpg\"]","trial_type":"similarity","trial_index":191,"time_elapsed":1573401,"internal_node_id":"0.0-6.0-185.0"},{"sim_score":2,"rt":6960,"stimulus":"[\"img/0758/67c0be2f-9e91-48b3-8219-70ac0a1802fa.jpg\",\"img/0769/1d8734c4-77ab-4165-9e71-5cfe672ff01c.jpg\"]","trial_type":"similarity","trial_index":192,"time_elapsed":1581368,"internal_node_id":"0.0-6.0-186.0"},{"sim_score":6,"rt":3506,"stimulus":"[\"img/0881/dea58fad-b4f1-41d9-bd3f-916eff19a3fd.jpg\",\"img/0881/c843e210-bdfe-4a7c-8bbe-fcea1f90fe1c.jpg\"]","trial_type":"similarity","trial_index":193,"time_elapsed":1585880,"internal_node_id":"0.0-6.0-187.0"},{"sim_score":2,"rt":4226,"stimulus":"[\"img/0758/7fba58df-2a7a-4b76-8a8f-62739f97f271.jpg\",\"img/0866/d493a2c8-66eb-44b4-be02-2f327b700b7c.jpg\"]","trial_type":"similarity","trial_index":194,"time_elapsed":1591111,"internal_node_id":"0.0-6.0-188.0"},{"sim_score":5,"rt":8305,"stimulus":"[\"img/0764/1def7b22-b054-4ec2-860b-73d25691823b.jpg\",\"img/0898/a114b375-cb89-44ba-9498-74213f1ecdee.jpg\"]","trial_type":"similarity","trial_index":195,"time_elapsed":1600423,"internal_node_id":"0.0-6.0-189.0"},{"sim_score":5,"rt":4988,"stimulus":"[\"img/0903/47e39de8-6959-469f-8be9-6999a6db207c.jpg\",\"img/0901/b13fa50f-dbe0-4d0f-8647-6ac0fd8f40bd.jpg\"]","trial_type":"similarity","trial_index":196,"time_elapsed":1606417,"internal_node_id":"0.0-6.0-190.0"},{"sim_score":6,"rt":5175,"stimulus":"[\"img/0902/0c760cc9-10ac-429e-8957-a7d51fc99683.jpg\",\"img/0898/e167334e-cc1d-4986-b3b1-c7bc7da64baa.jpg\"]","trial_type":"similarity","trial_index":197,"time_elapsed":1612598,"internal_node_id":"0.0-6.0-191.0"},{"sim_score":2,"rt":5054,"stimulus":"[\"img/0864/e02eddb5-f468-499c-91bf-f7be3ffe979b.jpg\",\"img/0901/a6776381-91fe-43f8-ab73-261d318f95fd.jpg\"]","trial_type":"similarity","trial_index":198,"time_elapsed":1618657,"internal_node_id":"0.0-6.0-192.0"},{"sim_score":3,"rt":6750,"stimulus":"[\"img/0894/0130a973-d993-41f8-874a-fee23d9ac11f.jpg\",\"img/0881/d373cb9f-a719-4549-a2a4-82def79fb2a5.jpg\"]","trial_type":"similarity","trial_index":199,"time_elapsed":1626412,"internal_node_id":"0.0-6.0-193.0"},{"sim_score":4,"rt":3858,"stimulus":"[\"img/0868/09a9ef4d-d000-4cfa-a6aa-ebec7c2edeb4.jpg\",\"img/0868/293079b8-7e0c-4afd-a390-1e5d35fe3ded.jpg\"]","trial_type":"similarity","trial_index":200,"time_elapsed":1631277,"internal_node_id":"0.0-6.0-194.0"},{"sim_score":7,"rt":4705,"stimulus":"[\"img/0899/9de5e857-aa9a-4e0c-8ba2-46d79bd069a4.jpg\",\"img/0764/cbdc4f20-3a9a-4211-9b40-090699e0abcc.jpg\"]","trial_type":"similarity","trial_index":201,"time_elapsed":1636988,"internal_node_id":"0.0-6.0-195.0"},{"sim_score":2,"rt":4011,"stimulus":"[\"img/0881/5fe04dd0-5c74-47b7-99c8-b068db9ca26a.jpg\",\"img/0904/9dd5708f-3f8b-46a9-b49f-2f2fab87b357.jpg\"]","trial_type":"similarity","trial_index":202,"time_elapsed":1642004,"internal_node_id":"0.0-6.0-196.0"},{"sim_score":2,"rt":4169,"stimulus":"[\"img/0864/ef9cbca0-4be8-435d-ad49-977259e80409.jpg\",\"img/0902/71c03003-03ef-4b0f-8229-e0c857150a5d.jpg\"]","trial_type":"similarity","trial_index":203,"time_elapsed":1647180,"internal_node_id":"0.0-6.0-197.0"},{"sim_score":3,"rt":4370,"stimulus":"[\"img/0894/7fb082e0-ce79-485c-9109-04367fb32275.jpg\",\"img/0904/63dd06dd-dccb-47ba-9740-eb33239e18a7.jpg\"]","trial_type":"similarity","trial_index":204,"time_elapsed":1652555,"internal_node_id":"0.0-6.0-198.0"},{"sim_score":7,"rt":5705,"stimulus":"[\"img/0901/693e0535-ef7e-4d60-af9d-fac2f38e8307.jpg\",\"img/0901/08d6d1d1-c043-43c4-bb08-d45e062822b9.jpg\"]","trial_type":"similarity","trial_index":205,"time_elapsed":1659267,"internal_node_id":"0.0-6.0-199.0"},{"sim_score":2,"rt":4609,"stimulus":"[\"img/0894/3adef67d-7676-4995-80b2-bb31b8aca3ef.jpg\",\"img/0860/9593362c-9fe5-4d12-9735-6000a11f6aa5.jpg\"]","trial_type":"similarity","trial_index":206,"time_elapsed":1664882,"internal_node_id":"0.0-6.0-200.0"},{"sim_score":7,"rt":5706,"stimulus":"[\"img/0898/82231d4c-218b-4d0a-b50d-35a49b524e97.jpg\",\"img/0903/6a87dbad-9b8d-4ff5-9c41-03c9aa24f0c3.jpg\"]","trial_type":"similarity","trial_index":207,"time_elapsed":1671594,"internal_node_id":"0.0-6.0-201.0"},{"sim_score":4,"rt":4049,"stimulus":"[\"img/0864/0f537697-a314-47c3-a8cc-8df23b7e536c.jpg\",\"img/0894/05161000-f476-499b-a878-c13c7f347fd9.jpg\"]","trial_type":"similarity","trial_index":208,"time_elapsed":1676650,"internal_node_id":"0.0-6.0-202.0"},{"sim_score":1,"rt":3186,"stimulus":"[\"img/0874/99f6563c-8a8d-4c1c-a41d-667b618c3fd5.jpg\",\"img/0860/f44ba3fb-03a2-42f0-8509-2c1ded493086.jpg\"]","trial_type":"similarity","trial_index":209,"time_elapsed":1680842,"internal_node_id":"0.0-6.0-203.0"},{"sim_score":2,"rt":3346,"stimulus":"[\"img/0862/5d887e9f-89e2-4ebc-80a0-6d46fe6480db.jpg\",\"img/0875/cff79b3a-a797-4393-9757-6275f999ec04.jpg\"]","trial_type":"similarity","trial_index":210,"time_elapsed":1685194,"internal_node_id":"0.0-6.0-204.0"},{"sim_score":2,"rt":4440,"stimulus":"[\"img/0867/12264664-1860-46df-8c21-162b9817cdda.jpg\",\"img/0881/84397291-bc14-4fbf-90e8-241e486ab0fe.jpg\"]","trial_type":"similarity","trial_index":211,"time_elapsed":1690642,"internal_node_id":"0.0-6.0-205.0"},{"sim_score":3,"rt":7449,"stimulus":"[\"img/0901/c6c877e0-dd63-4e00-9657-33af29d55aab.jpg\",\"img/0902/3b243e54-0803-4c29-af42-4037c2118495.jpg\"]","trial_type":"similarity","trial_index":212,"time_elapsed":1699096,"internal_node_id":"0.0-6.0-206.0"},{"sim_score":5,"rt":4642,"stimulus":"[\"img/0899/93494f3b-d539-4075-b027-d82e344563da.jpg\",\"img/0864/300bb811-8b3c-4c42-8653-6097c3725197.jpg\"]","trial_type":"similarity","trial_index":213,"time_elapsed":1704744,"internal_node_id":"0.0-6.0-207.0"},{"sim_score":2,"rt":4529,"stimulus":"[\"img/0901/1b86f2fc-7a1d-4aa8-9252-114f92edef3b.jpg\",\"img/0769/8598a429-c671-4d2f-842c-32f681f5e412.jpg\"]","trial_type":"similarity","trial_index":214,"time_elapsed":1710280,"internal_node_id":"0.0-6.0-208.0"},{"sim_score":5,"rt":5658,"stimulus":"[\"img/0902/d1083f2c-5520-44ec-81a8-3f856fbf0e80.jpg\",\"img/0902/d5e25767-e8ec-45f3-ac0a-7b4a6f7a9edc.jpg\"]","trial_type":"similarity","trial_index":215,"time_elapsed":1719910,"internal_node_id":"0.0-6.0-209.0"},{"view_history":"[{\"page_index\":0,\"viewing_time\":7061}]","rt":7062,"trial_type":"instructions","trial_index":216,"time_elapsed":1727974,"internal_node_id":"0.0-7.0"},{"rt":143411,"responses":"{\"Q0\":\"Nashville Warbler\"}","answer":["Nashville Warbler"],"trial_type":"image-multi-choice","trial_index":217,"time_elapsed":1872409,"internal_node_id":"0.0-8.0-0.0"},{"rt":46123,"responses":"{\"Q0\":\"Black-and-white Warbler\"}","answer":["Black-and-white Warbler"],"trial_type":"image-multi-choice","trial_index":218,"time_elapsed":1919548,"internal_node_id":"0.0-8.0-1.0"},{"rt":20127,"responses":"{\"Q0\":\"Black-and-white Warbler\"}","answer":["Townsend's Warbler"],"trial_type":"image-multi-choice","trial_index":219,"time_elapsed":1940691,"internal_node_id":"0.0-8.0-2.0"},{"rt":74195,"responses":"{\"Q0\":\"Lark Sparrow\"}","answer":["Lark Sparrow"],"trial_type":"image-multi-choice","trial_index":220,"time_elapsed":2015901,"internal_node_id":"0.0-8.0-3.0"},{"rt":5660,"responses":"{\"Q0\":\"Yellow Warbler\"}","answer":["Yellow Warbler"],"trial_type":"image-multi-choice","trial_index":221,"time_elapsed":2022580,"internal_node_id":"0.0-8.0-4.0"},{"rt":22345,"responses":"{\"Q0\":\"Orange-crowned Warbler\"}","answer":["Orange-crowned Warbler"],"trial_type":"image-multi-choice","trial_index":222,"time_elapsed":2045939,"internal_node_id":"0.0-8.0-5.0"},{"rt":6732,"responses":"{\"Q0\":\"White-throated Sparrow\"}","answer":["White-throated Sparrow"],"trial_type":"image-multi-choice","trial_index":223,"time_elapsed":2053691,"internal_node_id":"0.0-8.0-6.0"},{"rt":38679,"responses":"{\"Q0\":\"Fox Sparrow\"}","answer":["Fox Sparrow"],"trial_type":"image-multi-choice","trial_index":224,"time_elapsed":2093392,"internal_node_id":"0.0-8.0-7.0"},{"rt":22838,"responses":"{\"Q0\":\"Song Sparrow\"}","answer":["Song Sparrow"],"trial_type":"image-multi-choice","trial_index":225,"time_elapsed":2117246,"internal_node_id":"0.0-8.0-8.0"},{"rt":35797,"responses":"{\"Q0\":\"Blackburnian Warbler\"}","answer":["Blackburnian Warbler"],"trial_type":"image-multi-choice","trial_index":226,"time_elapsed":2154059,"internal_node_id":"0.0-8.0-9.0"},{"rt":92277,"responses":"{\"Q0\":\"Vesper Sparrow\"}","answer":["Vesper Sparrow"],"trial_type":"image-multi-choice","trial_index":227,"time_elapsed":2247350,"internal_node_id":"0.0-8.0-10.0"},{"rt":60989,"responses":"{\"Q0\":\"White-crowned Sparrow\"}","answer":["White-crowned Sparrow"],"trial_type":"image-multi-choice","trial_index":228,"time_elapsed":2309354,"internal_node_id":"0.0-8.0-11.0"},{"rt":12408,"responses":"{\"Q0\":\"Chipping Sparrow\"}","answer":["American Tree Sparrow"],"trial_type":"image-multi-choice","trial_index":229,"time_elapsed":2322777,"internal_node_id":"0.0-8.0-12.0"},{"rt":105524,"responses":"{\"Q0\":\"Tennessee Warbler\"}","answer":["Tennessee Warbler"],"trial_type":"image-multi-choice","trial_index":230,"time_elapsed":2429315,"internal_node_id":"0.0-8.0-13.0"},{"rt":51414,"responses":"{\"Q0\":\"Black-and-white Warbler\"}","answer":["Magnolia Warbler"],"trial_type":"image-multi-choice","trial_index":231,"time_elapsed":2481744,"internal_node_id":"0.0-8.0-14.0"},{"rt":11800,"responses":"{\"Q0\":\"Northern Waterthrush\"}","answer":["Northern Waterthrush"],"trial_type":"image-multi-choice","trial_index":232,"time_elapsed":2494559,"internal_node_id":"0.0-8.0-15.0"},{"rt":9489,"responses":"{\"Q0\":\"Chipping Sparrow\"}","answer":["Chipping Sparrow"],"trial_type":"image-multi-choice","trial_index":233,"time_elapsed":2505166,"internal_node_id":"0.0-8.0-16.0"},{"rt":97482,"responses":"{\"Q0\":\"Swamp Sparrow\"}","answer":["Swamp Sparrow"],"trial_type":"image-multi-choice","trial_index":234,"time_elapsed":2603663,"internal_node_id":"0.0-8.0-17.0"},{"rt":7544,"responses":"{\"Q0\":\"Lincoln's Sparrow\"}","answer":["Lincoln's Sparrow"],"trial_type":"image-multi-choice","trial_index":235,"time_elapsed":2612223,"internal_node_id":"0.0-8.0-18.0"},{"rt":5256,"responses":"{\"Q0\":\"Ovenbird\"}","answer":["Ovenbird"],"trial_type":"image-multi-choice","trial_index":236,"time_elapsed":2618494,"internal_node_id":"0.0-8.0-19.0"}]