[{"view_history":"[{\"page_index\":0,\"viewing_time\":15251}]","rt":15258,"trial_type":"instructions","trial_index":0,"time_elapsed":15264,"internal_node_id":"0.0-0.0"},{"sim_score":2,"rt":10010,"stimulus":"[\"img/866.jpg\",\"img/868.jpg\"]","trial_type":"similarity_demo","trial_index":1,"time_elapsed":26361,"internal_node_id":"0.0-1.0"},{"view_history":"[{\"page_index\":0,\"viewing_time\":33404}]","rt":33409,"trial_type":"instructions","trial_index":2,"time_elapsed":60773,"internal_node_id":"0.0-2.0"},{"sim_score":3,"rt":12453,"stimulus":"[\"img/766.jpg\",\"img/867.jpg\"]","trial_type":"similarity_demo","trial_index":3,"time_elapsed":74256,"internal_node_id":"0.0-3.0"},{"view_history":"[{\"page_index\":0,\"viewing_time\":8264}]","rt":8268,"trial_type":"instructions","trial_index":4,"time_elapsed":83526,"internal_node_id":"0.0-4.0"},{"view_history":"[{\"page_index\":0,\"viewing_time\":14146}]","rt":14152,"trial_type":"instructions","trial_index":5,"time_elapsed":98681,"internal_node_id":"0.0-5.0"},{"sim_score":3,"rt":13672,"stimulus":"[\"img/0868/d6d1f30d-4323-435a-b194-7892521bc57e.jpg\",\"img/0901/effc03f6-8f9d-46db-a66c-16fc83891c5c.jpg\"]","trial_type":"similarity","trial_index":6,"time_elapsed":113419,"internal_node_id":"0.0-6.0-0.0"},{"sim_score":4,"rt":5029,"stimulus":"[\"img/0769/47700831-0ca2-4fdd-a498-a3bc5a528f43.jpg\",\"img/0867/6e19c858-b606-45b2-a4c6-910a73f1d82c.jpg\"]","trial_type":"similarity","trial_index":7,"time_elapsed":119491,"internal_node_id":"0.0-6.0-1.0"},{"sim_score":5,"rt":6316,"stimulus":"[\"img/0766/09f646c8-a69e-4ed3-879c-8d29b04ad7f9.jpg\",\"img/0898/26c41340-15bd-4ead-8fe4-c0d0ddca09c2.jpg\"]","trial_type":"similarity","trial_index":8,"time_elapsed":126848,"internal_node_id":"0.0-6.0-2.0"},{"sim_score":5,"rt":6932,"stimulus":"[\"img/0902/a323b62d-2fd5-4ac8-acc6-35b768f3c3f2.jpg\",\"img/0881/f037e3b0-09cb-4a83-b2d9-6a71fe474e63.jpg\"]","trial_type":"similarity","trial_index":9,"time_elapsed":134820,"internal_node_id":"0.0-6.0-3.0"},{"sim_score":7,"rt":10833,"stimulus":"[\"img/0894/76c1201f-8524-4865-85e6-dda8cb4ac986.jpg\",\"img/0894/e6385e52-6c35-43bd-b0af-bc803d107b11.jpg\"]","trial_type":"similarity","trial_index":10,"time_elapsed":146684,"internal_node_id":"0.0-6.0-4.0"},{"sim_score":3,"rt":4040,"stimulus":"[\"img/0874/bf14b896-e930-4fd9-9c05-2e83317a2773.jpg\",\"img/0899/5b56dd3e-3f49-47cc-af84-16da6457753b.jpg\"]","trial_type":"similarity","trial_index":11,"time_elapsed":151761,"internal_node_id":"0.0-6.0-5.0"},{"sim_score":5,"rt":6056,"stimulus":"[\"img/0904/63dd06dd-dccb-47ba-9740-eb33239e18a7.jpg\",\"img/0764/713cc27e-2338-4486-bfe9-5f5725fbd7a0.jpg\"]","trial_type":"similarity","trial_index":12,"time_elapsed":158861,"internal_node_id":"0.0-6.0-6.0"},{"sim_score":5,"rt":6233,"stimulus":"[\"img/0899/0adc0bc3-6fca-4078-be6f-d45ddf1653d5.jpg\",\"img/0898/c3cecf20-f7fd-45fa-97d0-dc0a63e8d6c0.jpg\"]","trial_type":"similarity","trial_index":13,"time_elapsed":166145,"internal_node_id":"0.0-6.0-7.0"},{"sim_score":3,"rt":6283,"stimulus":"[\"img/0874/7e4f2150-3b59-4a36-b5da-a4e0ba410531.jpg\",\"img/0903/b4a0f61e-a964-4b79-a9a7-f767a8f92f34.jpg\"]","trial_type":"similarity","trial_index":14,"time_elapsed":173481,"internal_node_id":"0.0-6.0-8.0"},{"sim_score":7,"rt":5678,"stimulus":"[\"img/0881/344de456-b358-4887-bd0e-e4c3278af887.jpg\",\"img/0758/e38fd80d-18d0-42f3-b848-f930788e8bd7.jpg\"]","trial_type":"similarity","trial_index":15,"time_elapsed":180212,"internal_node_id":"0.0-6.0-9.0"},{"sim_score":5,"rt":4513,"stimulus":"[\"img/0898/b2732712-71c2-45d8-834f-2b2ed5504910.jpg\",\"img/0901/62315ff5-ed95-46b4-b099-92552079659b.jpg\"]","trial_type":"similarity","trial_index":16,"time_elapsed":185774,"internal_node_id":"0.0-6.0-10.0"},{"sim_score":7,"rt":5512,"stimulus":"[\"img/0903/4cbdc464-e562-4ec2-9bb6-15f894fdf528.jpg\",\"img/0769/aad494cc-674d-4a08-9bfa-24a88ebe3c79.jpg\"]","trial_type":"similarity","trial_index":17,"time_elapsed":192331,"internal_node_id":"0.0-6.0-11.0"},{"sim_score":2,"rt":7234,"stimulus":"[\"img/0764/438c0217-036f-43c9-9b87-f43144e46011.jpg\",\"img/0868/0d3abd3a-b6c3-4584-a9f7-e2da63748b3d.jpg\"]","trial_type":"similarity","trial_index":18,"time_elapsed":200603,"internal_node_id":"0.0-6.0-12.0"},{"sim_score":2,"rt":3652,"stimulus":"[\"img/0867/5e07b34d-b40f-4b1c-ac10-49975bace45f.jpg\",\"img/0903/5995f4a8-fa82-46f8-8760-fd7800a5ca34.jpg\"]","trial_type":"similarity","trial_index":19,"time_elapsed":205321,"internal_node_id":"0.0-6.0-13.0"},{"sim_score":2,"rt":6586,"stimulus":"[\"img/0766/ea09dd5a-d24d-4e97-a099-7da3db1baef1.jpg\",\"img/0758/7ee8bc8f-c40b-4b3a-84ec-3e83580622d4.jpg\"]","trial_type":"similarity","trial_index":20,"time_elapsed":212956,"internal_node_id":"0.0-6.0-14.0"},{"sim_score":2,"rt":6477,"stimulus":"[\"img/0902/01b41522-de46-4c3a-b0af-a61b2682b40e.jpg\",\"img/0860/9593362c-9fe5-4d12-9735-6000a11f6aa5.jpg\"]","trial_type":"similarity","trial_index":21,"time_elapsed":220478,"internal_node_id":"0.0-6.0-15.0"},{"sim_score":2,"rt":5360,"stimulus":"[\"img/0769/458d9c77-b844-40b5-bb1b-1e3bbd4da64e.jpg\",\"img/0875/f87b67d7-c33e-40d1-b281-248c4be1cb6e.jpg\"]","trial_type":"similarity","trial_index":22,"time_elapsed":226879,"internal_node_id":"0.0-6.0-16.0"},{"sim_score":3,"rt":6246,"stimulus":"[\"img/0904/60d1a521-edf7-4696-9263-f21ac0e62a01.jpg\",\"img/0866/02f5e6b9-52b7-448c-9708-5b460d0c9a23.jpg\"]","trial_type":"similarity","trial_index":23,"time_elapsed":234154,"internal_node_id":"0.0-6.0-17.0"},{"sim_score":7,"rt":11007,"stimulus":"[\"img/0875/cff79b3a-a797-4393-9757-6275f999ec04.jpg\",\"img/0875/42910c99-5463-450a-a0f8-d4d060a11455.jpg\"]","trial_type":"similarity","trial_index":24,"time_elapsed":246191,"internal_node_id":"0.0-6.0-18.0"},{"sim_score":7,"rt":4747,"stimulus":"[\"img/0758/821c68d3-5cb0-4eae-8659-30e6263fca39.jpg\",\"img/0758/20497cbe-ddae-489e-86e2-ab06985ed07c.jpg\"]","trial_type":"similarity","trial_index":25,"time_elapsed":251978,"internal_node_id":"0.0-6.0-19.0"},{"sim_score":2,"rt":3931,"stimulus":"[\"img/0902/4e0baa32-988e-46f6-989d-f669225ab645.jpg\",\"img/0874/a82926a3-0b43-4add-803c-d5f9ea7798ee.jpg\"]","trial_type":"similarity","trial_index":26,"time_elapsed":256953,"internal_node_id":"0.0-6.0-20.0"},{"sim_score":3,"rt":6485,"stimulus":"[\"img/0764/ec2dd087-c471-4370-b570-95a542506a96.jpg\",\"img/0769/82ab9db6-4578-4e79-874f-f09100439f09.jpg\"]","trial_type":"similarity","trial_index":27,"time_elapsed":264482,"internal_node_id":"0.0-6.0-21.0"},{"sim_score":2,"rt":5557,"stimulus":"[\"img/0901/a9b9c0a0-8aed-4888-a78a-65fb7e764d13.jpg\",\"img/0874/99f6563c-8a8d-4c1c-a41d-667b618c3fd5.jpg\"]","trial_type":"similarity","trial_index":28,"time_elapsed":271082,"internal_node_id":"0.0-6.0-22.0"},{"sim_score":2,"rt":5534,"stimulus":"[\"img/0875/a4935837-7d3c-4df6-88c1-36a94d4991ca.jpg\",\"img/0903/b0df4094-a3be-4b5b-81bd-8d260f13f61b.jpg\"]","trial_type":"similarity","trial_index":29,"time_elapsed":277656,"internal_node_id":"0.0-6.0-23.0"},{"sim_score":2,"rt":3872,"stimulus":"[\"img/0769/48a1144d-fbda-4809-991b-fc8424a32ee4.jpg\",\"img/0881/4bd34581-94d8-4e88-8c89-5cef864ca3be.jpg\"]","trial_type":"similarity","trial_index":30,"time_elapsed":282562,"internal_node_id":"0.0-6.0-24.0"},{"sim_score":2,"rt":3645,"stimulus":"[\"img/0867/7d1c497b-c1b3-4ed8-abb5-d7f73306015f.jpg\",\"img/0904/b5855d6a-7ef9-46ca-9215-6e9fa046e543.jpg\"]","trial_type":"similarity","trial_index":31,"time_elapsed":287241,"internal_node_id":"0.0-6.0-25.0"},{"sim_score":2,"rt":5546,"stimulus":"[\"img/0860/f44ba3fb-03a2-42f0-8509-2c1ded493086.jpg\",\"img/0881/7e822106-76f7-4b10-a805-14dc68b2cfaf.jpg\"]","trial_type":"similarity","trial_index":32,"time_elapsed":293842,"internal_node_id":"0.0-6.0-26.0"},{"sim_score":5,"rt":7091,"stimulus":"[\"img/0866/d266fece-59b3-46fa-b69f-96f6efb81b59.jpg\",\"img/0866/93a27239-8317-4e08-98ca-d8b1ff298e07.jpg\"]","trial_type":"similarity","trial_index":33,"time_elapsed":301962,"internal_node_id":"0.0-6.0-27.0"},{"sim_score":2,"rt":5543,"stimulus":"[\"img/0764/56441045-b648-4ede-9632-3e9c0227080b.jpg\",\"img/0862/cdaed51d-9e2f-4807-801a-4663c40077e2.jpg\"]","trial_type":"similarity","trial_index":34,"time_elapsed":308546,"internal_node_id":"0.0-6.0-28.0"},{"sim_score":3,"rt":5274,"stimulus":"[\"img/0904/65e2b70a-b184-4da3-b5c0-5038bdf9469a.jpg\",\"img/0758/caa93da2-9edf-49fa-96b9-32dedd8f5078.jpg\"]","trial_type":"similarity","trial_index":35,"time_elapsed":314869,"internal_node_id":"0.0-6.0-29.0"},{"sim_score":2,"rt":7227,"stimulus":"[\"img/0894/767a0eec-1064-46b1-b1aa-dfa02b0cd74e.jpg\",\"img/0899/0433d056-aa30-4f8a-9aa1-abbb951e4edd.jpg\"]","trial_type":"similarity","trial_index":36,"time_elapsed":323145,"internal_node_id":"0.0-6.0-30.0"},{"sim_score":2,"rt":4090,"stimulus":"[\"img/0860/29a21a9f-54bb-4093-ad3f-04823ceaa89f.jpg\",\"img/0904/ba8e689e-9ca6-4608-a2a1-3b0940666ae6.jpg\"]","trial_type":"similarity","trial_index":37,"time_elapsed":328279,"internal_node_id":"0.0-6.0-31.0"},{"sim_score":6,"rt":7307,"stimulus":"[\"img/0874/c0378dac-9370-439a-8b79-db27c96fb390.jpg\",\"img/0881/44e09805-5a25-4f17-a716-4ad4a331b174.jpg\"]","trial_type":"similarity","trial_index":38,"time_elapsed":336619,"internal_node_id":"0.0-6.0-32.0"},{"sim_score":2,"rt":4321,"stimulus":"[\"img/0881/f7a8cc63-8842-40a4-9ff8-fe530310d62c.jpg\",\"img/0899/4408c14d-c168-4a7d-96f6-bc87bfb58f83.jpg\"]","trial_type":"similarity","trial_index":39,"time_elapsed":341990,"internal_node_id":"0.0-6.0-33.0"},{"sim_score":2,"rt":5959,"stimulus":"[\"img/0866/c446214b-a368-4c65-ae39-ea46894256ab.jpg\",\"img/0862/f43ceabf-acc1-4107-b857-5d1849808f93.jpg\"]","trial_type":"similarity","trial_index":40,"time_elapsed":348999,"internal_node_id":"0.0-6.0-34.0"},{"sim_score":2,"rt":4895,"stimulus":"[\"img/0868/293079b8-7e0c-4afd-a390-1e5d35fe3ded.jpg\",\"img/0894/86201968-6e78-4d68-9b3a-d1692e066210.jpg\"]","trial_type":"similarity","trial_index":41,"time_elapsed":354931,"internal_node_id":"0.0-6.0-35.0"},{"sim_score":7,"rt":5161,"stimulus":"[\"img/0860/e14d67c1-6d92-4f1e-9257-c8607159c19c.jpg\",\"img/0860/71e1aad0-2cdf-43bb-94a4-a8c016997c30.jpg\"]","trial_type":"similarity","trial_index":42,"time_elapsed":361144,"internal_node_id":"0.0-6.0-36.0"},{"sim_score":1,"rt":3921,"stimulus":"[\"img/0862/92fcd8a4-8193-4a6a-ae09-dd4a6338b0df.jpg\",\"img/0864/a248adb3-c70b-4652-b7a3-776d2a1e904b.jpg\"]","trial_type":"similarity","trial_index":43,"time_elapsed":366109,"internal_node_id":"0.0-6.0-37.0"},{"sim_score":2,"rt":4076,"stimulus":"[\"img/0766/27f54113-8561-4568-9ffe-0a1650ae65ec.jpg\",\"img/0866/945c6710-d15b-4a5b-a8f6-69af0850357f.jpg\"]","trial_type":"similarity","trial_index":44,"time_elapsed":371229,"internal_node_id":"0.0-6.0-38.0"},{"sim_score":2,"rt":5580,"stimulus":"[\"img/0875/3ecb367d-e9eb-4826-8aaa-7aa72fb98019.jpg\",\"img/0898/e167334e-cc1d-4986-b3b1-c7bc7da64baa.jpg\"]","trial_type":"similarity","trial_index":45,"time_elapsed":377851,"internal_node_id":"0.0-6.0-39.0"},{"sim_score":5,"rt":5476,"stimulus":"[\"img/0766/91fc8c4d-862f-4d2b-b1a1-2db8d729b6b7.jpg\",\"img/0769/6c0bac4c-5f59-43c7-898c-3ca93cf55cfe.jpg\"]","trial_type":"similarity","trial_index":46,"time_elapsed":384358,"internal_node_id":"0.0-6.0-40.0"},{"sim_score":2,"rt":6370,"stimulus":"[\"img/0874/8cdb1c07-1c32-46d2-981c-3636560fa6e5.jpg\",\"img/0764/d7c215ab-ea9a-45be-8d5f-417d5b9a8a17.jpg\"]","trial_type":"similarity","trial_index":47,"time_elapsed":420186,"internal_node_id":"0.0-6.0-41.0"},{"sim_score":2,"rt":5229,"stimulus":"[\"img/0868/e0aff734-077f-40dd-9781-74821abd3621.jpg\",\"img/0902/417d8b4a-3c72-4adc-ac78-820e833316f2.jpg\"]","trial_type":"similarity","trial_index":48,"time_elapsed":426460,"internal_node_id":"0.0-6.0-42.0"},{"sim_score":1,"rt":6352,"stimulus":"[\"img/0875/ebf7653f-ff45-4e9f-af58-2c042ab3cd2b.jpg\",\"img/0899/b45c550b-96c3-4255-ad59-48a2b4db1c1e.jpg\"]","trial_type":"similarity","trial_index":49,"time_elapsed":433861,"internal_node_id":"0.0-6.0-43.0"},{"sim_score":2,"rt":5487,"stimulus":"[\"img/0866/d493a2c8-66eb-44b4-be02-2f327b700b7c.jpg\",\"img/0860/15b24a61-25be-4356-9eac-5ce95d0cb4a4.jpg\"]","trial_type":"similarity","trial_index":50,"time_elapsed":440406,"internal_node_id":"0.0-6.0-44.0"},{"sim_score":3,"rt":4355,"stimulus":"[\"img/0766/dd3e18d0-0c98-4d05-b850-69976ee8cd75.jpg\",\"img/0903/59defeb8-98bd-4570-a2f8-9bd189e68ef4.jpg\"]","trial_type":"similarity","trial_index":51,"time_elapsed":445789,"internal_node_id":"0.0-6.0-45.0"},{"sim_score":3,"rt":6127,"stimulus":"[\"img/0901/f1116359-1ff1-4638-b3b3-700918d36d18.jpg\",\"img/0904/fe746a3f-8458-48d0-8a13-8cba2a9df9f8.jpg\"]","trial_type":"similarity","trial_index":52,"time_elapsed":452959,"internal_node_id":"0.0-6.0-46.0"},{"sim_score":2,"rt":3869,"stimulus":"[\"img/0758/a709631e-3705-4725-ac40-f0d916924f08.jpg\",\"img/0902/8af4182a-9af9-4212-a436-9195555112d6.jpg\"]","trial_type":"similarity","trial_index":53,"time_elapsed":457872,"internal_node_id":"0.0-6.0-47.0"},{"sim_score":5,"rt":5777,"stimulus":"[\"img/0764/ca957454-126a-4bd3-b29c-7174a24c25dc.jpg\",\"img/0764/978aede9-4590-4ad0-b234-135c83e5d669.jpg\"]","trial_type":"similarity","trial_index":54,"time_elapsed":464695,"internal_node_id":"0.0-6.0-48.0"},{"sim_score":3,"rt":5313,"stimulus":"[\"img/0866/620cd1aa-0800-4414-8f6e-90342e7a99ad.jpg\",\"img/0902/0db94c50-f1fb-4091-953c-29ca0466bee2.jpg\"]","trial_type":"similarity","trial_index":55,"time_elapsed":471055,"internal_node_id":"0.0-6.0-49.0"},{"sim_score":3,"rt":5226,"stimulus":"[\"img/0764/ef0e64c6-d0dd-4dc6-87b6-ce5c0665f421.jpg\",\"img/0758/d540bee6-b460-4c32-ac57-bc282742d7d4.jpg\"]","trial_type":"similarity","trial_index":56,"time_elapsed":477320,"internal_node_id":"0.0-6.0-50.0"},{"sim_score":2,"rt":4995,"stimulus":"[\"img/0898/224c1572-56b9-4f16-a9e4-6f3bc9c114bd.jpg\",\"img/0894/a3d4170b-b7d8-40e3-955f-87e76ed745fc.jpg\"]","trial_type":"similarity","trial_index":57,"time_elapsed":483370,"internal_node_id":"0.0-6.0-51.0"},{"sim_score":2,"rt":4127,"stimulus":"[\"img/0875/8521fd58-3b1e-4dc5-97ae-804edfa6734a.jpg\",\"img/0866/0207e9a2-7dbb-40b5-9459-b472aaeceb2a.jpg\"]","trial_type":"similarity","trial_index":58,"time_elapsed":488524,"internal_node_id":"0.0-6.0-52.0"},{"sim_score":3,"rt":3478,"stimulus":"[\"img/0904/5cceabc9-de1d-4c67-989b-c28a4ef77e79.jpg\",\"img/0904/09934646-45d2-4147-8fec-64a22a5ac822.jpg\"]","trial_type":"similarity","trial_index":59,"time_elapsed":493038,"internal_node_id":"0.0-6.0-53.0"},{"sim_score":6,"rt":5751,"stimulus":"[\"img/0769/022c7e3b-c3f2-4119-b4bc-f22fa7cae18c.jpg\",\"img/0769/965c3c44-d9e5-47c5-b61a-2bbdf4215d9a.jpg\"]","trial_type":"similarity","trial_index":60,"time_elapsed":499835,"internal_node_id":"0.0-6.0-54.0"},{"sim_score":1,"rt":4379,"stimulus":"[\"img/0898/04e39a7a-fcf6-4156-ab0e-f5871f335e1c.jpg\",\"img/0758/d57c2592-a317-4f63-91be-91a3a9afd222.jpg\"]","trial_type":"similarity","trial_index":61,"time_elapsed":505256,"internal_node_id":"0.0-6.0-55.0"},{"sim_score":5,"rt":5254,"stimulus":"[\"img/0769/1afb527f-9887-428c-bd26-a12c2f9efb68.jpg\",\"img/0902/0c760cc9-10ac-429e-8957-a7d51fc99683.jpg\"]","trial_type":"similarity","trial_index":62,"time_elapsed":511562,"internal_node_id":"0.0-6.0-56.0"},{"sim_score":3,"rt":4754,"stimulus":"[\"img/0864/c22faebd-9c53-47bc-ada3-b9a30c688e75.jpg\",\"img/0881/ed4c971f-0873-4fc8-b6d6-e8bbd82f0bcc.jpg\"]","trial_type":"similarity","trial_index":63,"time_elapsed":517365,"internal_node_id":"0.0-6.0-57.0"},{"sim_score":1,"rt":4204,"stimulus":"[\"img/0758/65d426d6-3ff6-415d-8654-a43b83ecc4fe.jpg\",\"img/0868/77091fc7-a590-4ebb-b915-fdb2483a2399.jpg\"]","trial_type":"similarity","trial_index":64,"time_elapsed":522614,"internal_node_id":"0.0-6.0-58.0"},{"sim_score":5,"rt":5409,"stimulus":"[\"img/0862/7918ca67-5bd3-4606-a5ea-c39fb11a9297.jpg\",\"img/0769/8056889f-2b14-4782-bb25-b4e8896ab65b.jpg\"]","trial_type":"similarity","trial_index":65,"time_elapsed":529072,"internal_node_id":"0.0-6.0-59.0"},{"sim_score":3,"rt":5795,"stimulus":"[\"img/0764/958b8576-3a3b-4acc-96dc-06b74de69f37.jpg\",\"img/0903/e2e55a9e-0397-4dc0-8adf-4a54cfefe1fe.jpg\"]","trial_type":"similarity","trial_index":66,"time_elapsed":535903,"internal_node_id":"0.0-6.0-60.0"},{"sim_score":1,"rt":4125,"stimulus":"[\"img/0899/fef567a2-c121-4481-9af0-ff108d199bbf.jpg\",\"img/0899/56a605c3-d0a2-4215-89e1-779279d85a7c.jpg\"]","trial_type":"similarity","trial_index":67,"time_elapsed":541071,"internal_node_id":"0.0-6.0-61.0"},{"sim_score":2,"rt":4520,"stimulus":"[\"img/0860/4c530c3c-6aab-492a-94d1-9c01797bde40.jpg\",\"img/0875/dbdd643e-6d0e-4a5c-ab57-b9c29b9c981a.jpg\"]","trial_type":"similarity","trial_index":68,"time_elapsed":546641,"internal_node_id":"0.0-6.0-62.0"},{"sim_score":1,"rt":4593,"stimulus":"[\"img/0868/7b212364-ff5f-4e28-9241-7eb6ea00161b.jpg\",\"img/0874/93d1f8dc-acf2-4f03-bd8d-8ec35df276ed.jpg\"]","trial_type":"similarity","trial_index":69,"time_elapsed":552281,"internal_node_id":"0.0-6.0-63.0"},{"sim_score":2,"rt":9047,"stimulus":"[\"img/0758/ddc336e9-a8b6-4bb9-937a-c7e25e0e9250.jpg\",\"img/0862/fb26cb07-d5a9-4653-813c-f41609f26cd5.jpg\"]","trial_type":"similarity","trial_index":70,"time_elapsed":562383,"internal_node_id":"0.0-6.0-64.0"},{"sim_score":5,"rt":9935,"stimulus":"[\"img/0904/73920552-103b-4c9c-9ece-e0b8376b4504.jpg\",\"img/0898/6cd3830b-d44e-4915-be2b-88d31424b91c.jpg\"]","trial_type":"similarity","trial_index":71,"time_elapsed":573352,"internal_node_id":"0.0-6.0-65.0"},{"sim_score":1,"rt":4629,"stimulus":"[\"img/0881/e046471a-35b4-4159-bbf7-3cfd201bef66.jpg\",\"img/0866/f756f7d1-9ad8-4a34-9ef6-7a443d705bfe.jpg\"]","trial_type":"similarity","trial_index":72,"time_elapsed":579021,"internal_node_id":"0.0-6.0-66.0"},{"sim_score":1,"rt":3836,"stimulus":"[\"img/0867/85a96c62-548f-4994-9553-819e03c3135a.jpg\",\"img/0898/661621d4-a14e-487c-8c74-354134a29710.jpg\"]","trial_type":"similarity","trial_index":73,"time_elapsed":583887,"internal_node_id":"0.0-6.0-67.0"},{"sim_score":5,"rt":11091,"stimulus":"[\"img/0902/e5a46bda-30d1-41ca-b36d-b8529b5a63d1.jpg\",\"img/0764/5d6fa3ce-9083-410c-bbdb-336a49b94cfc.jpg\"]","trial_type":"similarity","trial_index":74,"time_elapsed":596012,"internal_node_id":"0.0-6.0-68.0"},{"sim_score":5,"rt":5327,"stimulus":"[\"img/0875/527ced51-8e53-4aab-ab05-86df219104c0.jpg\",\"img/0867/cc72ed48-7704-422c-86d6-467a1145287a.jpg\"]","trial_type":"similarity","trial_index":75,"time_elapsed":602379,"internal_node_id":"0.0-6.0-69.0"},{"sim_score":5,"rt":4734,"stimulus":"[\"img/0766/214866ee-423d-4629-9bb9-41572bdc7dac.jpg\",\"img/0764/39a9fc7e-b863-432c-9374-de43983f31a5.jpg\"]","trial_type":"similarity","trial_index":76,"time_elapsed":608137,"internal_node_id":"0.0-6.0-70.0"},{"sim_score":3,"rt":5072,"stimulus":"[\"img/0894/a98416c0-51e2-4960-85da-d81d8688b9d5.jpg\",\"img/0867/f8159067-056c-41f1-a136-c529fe5e970a.jpg\"]","trial_type":"similarity","trial_index":77,"time_elapsed":614273,"internal_node_id":"0.0-6.0-71.0"},{"sim_score":2,"rt":9422,"stimulus":"[\"img/0875/5a716432-c6ca-4b1c-955a-2b8ac25198ee.jpg\",\"img/0764/8389e74f-e0e0-435d-945f-da1f4c92ccb6.jpg\"]","trial_type":"similarity","trial_index":78,"time_elapsed":624732,"internal_node_id":"0.0-6.0-72.0"},{"sim_score":5,"rt":5346,"stimulus":"[\"img/0867/98d8cd96-1476-4fe0-a3a3-04f875500a1b.jpg\",\"img/0866/6f2a90d7-14f1-4f1b-bd64-fc0af6b9fe44.jpg\"]","trial_type":"similarity","trial_index":79,"time_elapsed":631117,"internal_node_id":"0.0-6.0-73.0"},{"sim_score":2,"rt":4169,"stimulus":"[\"img/0903/f1fa0f8d-e62b-4b4a-a174-31a0fabfe61b.jpg\",\"img/0758/dd559618-7f09-4a07-8018-d311c4a5ea29.jpg\"]","trial_type":"similarity","trial_index":80,"time_elapsed":636345,"internal_node_id":"0.0-6.0-74.0"},{"sim_score":2,"rt":5303,"stimulus":"[\"img/0766/c23b5a20-e50f-4d85-841f-cf89212a4348.jpg\",\"img/0868/09a9ef4d-d000-4cfa-a6aa-ebec7c2edeb4.jpg\"]","trial_type":"similarity","trial_index":81,"time_elapsed":642688,"internal_node_id":"0.0-6.0-75.0"},{"sim_score":2,"rt":5387,"stimulus":"[\"img/0874/3f471690-9788-4d03-90c7-f615aecef149.jpg\",\"img/0766/a1ed3f0f-e338-4a26-8fe4-4370f0c9fa6e.jpg\"]","trial_type":"similarity","trial_index":82,"time_elapsed":649102,"internal_node_id":"0.0-6.0-76.0"},{"sim_score":5,"rt":6530,"stimulus":"[\"img/0881/445edb15-bd7f-4af3-8bd5-c6ad9677bb31.jpg\",\"img/0868/6a28c3b0-3d76-498a-9fb7-ddafc665eca8.jpg\"]","trial_type":"similarity","trial_index":83,"time_elapsed":656655,"internal_node_id":"0.0-6.0-77.0"},{"sim_score":1,"rt":3707,"stimulus":"[\"img/0758/eabcd7a8-56ad-4fd2-bc24-90f6b7b33265.jpg\",\"img/0901/77087ed2-6e12-4329-b2a5-605bca6d972d.jpg\"]","trial_type":"similarity","trial_index":84,"time_elapsed":661406,"internal_node_id":"0.0-6.0-78.0"},{"sim_score":2,"rt":4761,"stimulus":"[\"img/0881/ee44e27f-d662-4608-b265-e7ffa19b216f.jpg\",\"img/0898/79233891-305a-4a6a-8ddf-5c8604858203.jpg\"]","trial_type":"similarity","trial_index":85,"time_elapsed":667207,"internal_node_id":"0.0-6.0-79.0"},{"sim_score":4,"rt":3508,"stimulus":"[\"img/0867/a749dddb-69f0-44a6-acdc-2bf295cf6dcc.jpg\",\"img/0758/53f35650-e455-4b53-8be4-c3c8271c6466.jpg\"]","trial_type":"similarity","trial_index":86,"time_elapsed":671750,"internal_node_id":"0.0-6.0-80.0"},{"sim_score":3,"rt":11303,"stimulus":"[\"img/0769/da36e3f7-2337-434f-ab57-11822dd7eed7.jpg\",\"img/0899/66bf4113-ee12-426c-84d2-ea410b6c803e.jpg\"]","trial_type":"similarity","trial_index":87,"time_elapsed":684085,"internal_node_id":"0.0-6.0-81.0"},{"sim_score":7,"rt":7992,"stimulus":"[\"img/0903/365f176c-25a4-4973-bd3c-279bf1b39476.jpg\",\"img/0903/6138142e-c84e-45fc-9487-c974f3d4968a.jpg\"]","trial_type":"similarity","trial_index":88,"time_elapsed":693122,"internal_node_id":"0.0-6.0-82.0"},{"sim_score":3,"rt":5296,"stimulus":"[\"img/0867/f26f6b60-f772-4f4c-95a4-addc62cfd692.jpg\",\"img/0766/989c5c7f-1aff-4442-ac63-9d46acf4a891.jpg\"]","trial_type":"similarity","trial_index":89,"time_elapsed":716021,"internal_node_id":"0.0-6.0-83.0"},{"sim_score":1,"rt":7274,"stimulus":"[\"img/0902/6c2c243a-f663-45db-baf5-038d3d58c589.jpg\",\"img/0867/db7e032f-162b-46f5-ae67-2b29679adee4.jpg\"]","trial_type":"similarity","trial_index":90,"time_elapsed":724344,"internal_node_id":"0.0-6.0-84.0"},{"sim_score":2,"rt":6489,"stimulus":"[\"img/0901/3db47171-0139-4235-82cd-0b1787b6775f.jpg\",\"img/0875/fb732ab5-013a-4366-9f65-27811ed157e9.jpg\"]","trial_type":"similarity","trial_index":91,"time_elapsed":731883,"internal_node_id":"0.0-6.0-85.0"},{"sim_score":2,"rt":4727,"stimulus":"[\"img/0764/d0bef2e0-e16b-4c82-9451-c1d16265eb67.jpg\",\"img/0866/386235d2-6857-41e7-88a8-25cfc3430025.jpg\"]","trial_type":"similarity","trial_index":92,"time_elapsed":737659,"internal_node_id":"0.0-6.0-86.0"},{"sim_score":1,"rt":7770,"stimulus":"[\"img/0901/58978a6d-a3e2-4c59-8d62-f60693ecc0f6.jpg\",\"img/0894/1b3888e6-cf36-4c4a-a039-187aa5cb71ac.jpg\"]","trial_type":"similarity","trial_index":93,"time_elapsed":746472,"internal_node_id":"0.0-6.0-87.0"},{"sim_score":2,"rt":8210,"stimulus":"[\"img/0898/4184e5a2-84ea-4f36-9b42-ae58646f6f87.jpg\",\"img/0769/4680bcc3-8fbc-4643-8f9a-12aa0e780b64.jpg\"]","trial_type":"similarity","trial_index":94,"time_elapsed":755733,"internal_node_id":"0.0-6.0-88.0"},{"sim_score":6,"rt":3615,"stimulus":"[\"img/0769/14d393ce-e5be-4ca1-86ce-cc27d4b6074c.jpg\",\"img/0894/133a1636-d123-4893-873c-1718050f832a.jpg\"]","trial_type":"similarity","trial_index":95,"time_elapsed":760374,"internal_node_id":"0.0-6.0-89.0"},{"sim_score":1,"rt":4567,"stimulus":"[\"img/0862/e0f1a4e9-e1b6-45f7-af67-89f334e6630d.jpg\",\"img/0874/995f0332-0439-4eb4-add3-957335dbf6d9.jpg\"]","trial_type":"similarity","trial_index":96,"time_elapsed":765991,"internal_node_id":"0.0-6.0-90.0"},{"sim_score":5,"rt":8599,"stimulus":"[\"img/0894/5a49e858-2850-4892-9a06-e9f0efb5f94d.jpg\",\"img/0766/33aa9ebb-c9f5-418f-8c8b-c77861889568.jpg\"]","trial_type":"similarity","trial_index":97,"time_elapsed":775614,"internal_node_id":"0.0-6.0-91.0"},{"sim_score":5,"rt":5606,"stimulus":"[\"img/0874/31e22c7c-99aa-40b1-bf03-dd73fa2df4d6.jpg\",\"img/0867/50a1b60e-3a29-44bf-b606-d4bd3746fea9.jpg\"]","trial_type":"similarity","trial_index":98,"time_elapsed":782257,"internal_node_id":"0.0-6.0-92.0"},{"sim_score":2,"rt":6387,"stimulus":"[\"img/0899/76ad07e2-ca25-45eb-84f2-8d80b8ca3e26.jpg\",\"img/0868/4a8a45ed-2c4f-421b-9564-409a33ecd26c.jpg\"]","trial_type":"similarity","trial_index":99,"time_elapsed":789685,"internal_node_id":"0.0-6.0-93.0"},{"sim_score":5,"rt":6677,"stimulus":"[\"img/0903/39365c8e-a733-4801-ac7d-b87e38c3784b.jpg\",\"img/0862/eefa5588-9efd-4591-aa5f-a2e17c7d7bcc.jpg\"]","trial_type":"similarity","trial_index":100,"time_elapsed":797396,"internal_node_id":"0.0-6.0-94.0"},{"sim_score":5,"rt":5617,"stimulus":"[\"img/0899/7f9d45d0-b2c6-40d3-aa41-c207db2c411b.jpg\",\"img/0766/a754e4b6-5019-4cf4-8f58-34c20547a1f5.jpg\"]","trial_type":"similarity","trial_index":101,"time_elapsed":804055,"internal_node_id":"0.0-6.0-95.0"},{"sim_score":6,"rt":5321,"stimulus":"[\"img/0867/1719a35d-f085-48c0-9099-16c94fe418b4.jpg\",\"img/0868/c8ac40c7-6904-4e13-8d61-c75d3052dc4e.jpg\"]","trial_type":"similarity","trial_index":102,"time_elapsed":810429,"internal_node_id":"0.0-6.0-96.0"},{"sim_score":5,"rt":6852,"stimulus":"[\"img/0862/ad593cc7-cabe-4bb7-8e14-8a447a0717b4.jpg\",\"img/0901/693e0535-ef7e-4d60-af9d-fac2f38e8307.jpg\"]","trial_type":"similarity","trial_index":103,"time_elapsed":818327,"internal_node_id":"0.0-6.0-97.0"},{"sim_score":3,"rt":7934,"stimulus":"[\"img/0875/2e13d160-eea1-416b-aff1-d37ab99ecc1d.jpg\",\"img/0766/60033a74-9919-47e5-913c-71d0d483e7e5.jpg\"]","trial_type":"similarity","trial_index":104,"time_elapsed":827289,"internal_node_id":"0.0-6.0-98.0"},{"sim_score":3,"rt":6137,"stimulus":"[\"img/0758/2fa3e613-e676-4e6e-bd12-705327eeb3e1.jpg\",\"img/0874/adf9a8f1-c40b-402b-b95b-1e85a54a7b62.jpg\"]","trial_type":"similarity","trial_index":105,"time_elapsed":834464,"internal_node_id":"0.0-6.0-99.0"},{"sim_score":5,"rt":4494,"stimulus":"[\"img/0904/24fc38fe-842c-4831-ad8a-b1de5c25c0a8.jpg\",\"img/0868/179a5502-ab5c-478e-8263-5a1fbcc101d2.jpg\"]","trial_type":"similarity","trial_index":106,"time_elapsed":839995,"internal_node_id":"0.0-6.0-100.0"},{"sim_score":5,"rt":7145,"stimulus":"[\"img/0903/9b60ef5b-234f-4239-892b-3d4c412accc2.jpg\",\"img/0866/a04d37f0-99dd-478a-b6c6-58b215138f84.jpg\"]","trial_type":"similarity","trial_index":107,"time_elapsed":848173,"internal_node_id":"0.0-6.0-101.0"},{"sim_score":2,"rt":31523,"stimulus":"[\"img/0868/fd307a36-9a3a-47d7-ab7c-f810d0b35040.jpg\",\"img/0769/0fe124d3-bcad-45f6-b64d-8f6eb8ee5251.jpg\"]","trial_type":"similarity","trial_index":108,"time_elapsed":880724,"internal_node_id":"0.0-6.0-102.0"},{"sim_score":5,"rt":4597,"stimulus":"[\"img/0902/f3cfec34-482c-4bdb-9c92-19ea6cfce183.jpg\",\"img/0899/0e1d936a-dbe2-4afc-9f19-7b7a1ae6c9ed.jpg\"]","trial_type":"similarity","trial_index":109,"time_elapsed":886364,"internal_node_id":"0.0-6.0-103.0"},{"sim_score":5,"rt":5540,"stimulus":"[\"img/0868/3a62db2d-97e9-44a3-b8e3-a48c6f0e423b.jpg\",\"img/0862/f23038d4-c366-4f70-979f-66b62362efa4.jpg\"]","trial_type":"similarity","trial_index":110,"time_elapsed":892930,"internal_node_id":"0.0-6.0-104.0"},{"sim_score":2,"rt":4206,"stimulus":"[\"img/0903/c708d08f-a108-4e04-8288-c3fcf6375db4.jpg\",\"img/0894/b422d5c6-3c5a-49ae-a53e-7e88ac993f49.jpg\"]","trial_type":"similarity","trial_index":111,"time_elapsed":898173,"internal_node_id":"0.0-6.0-105.0"},{"sim_score":5,"rt":5858,"stimulus":"[\"img/0864/b3c4e378-28f0-4699-9338-2a257b4bca04.jpg\",\"img/0874/2c9464dd-8a23-4baa-ac94-1ba3af5c15cc.jpg\"]","trial_type":"similarity","trial_index":112,"time_elapsed":905078,"internal_node_id":"0.0-6.0-106.0"},{"sim_score":4,"rt":7090,"stimulus":"[\"img/0862/47ed5efd-4ec9-4b74-bb4e-a5f5cf0c3e7d.jpg\",\"img/0902/22ed3536-288b-452e-9777-0fa0ab94deb0.jpg\"]","trial_type":"similarity","trial_index":113,"time_elapsed":913201,"internal_node_id":"0.0-6.0-107.0"},{"sim_score":6,"rt":7029,"stimulus":"[\"img/0904/9d30eff1-46ef-4453-b11e-124ef8145c00.jpg\",\"img/0903/8fcafe03-43df-4c45-9da5-0df3a1eeccc5.jpg\"]","trial_type":"similarity","trial_index":114,"time_elapsed":921276,"internal_node_id":"0.0-6.0-108.0"},{"sim_score":1,"rt":3853,"stimulus":"[\"img/0764/c0b03adb-bd0a-4b96-a915-a827c2fd5211.jpg\",\"img/0864/9b2490c5-a282-400a-9736-e1a0ecbf1cb7.jpg\"]","trial_type":"similarity","trial_index":115,"time_elapsed":926166,"internal_node_id":"0.0-6.0-109.0"},{"sim_score":4,"rt":5316,"stimulus":"[\"img/0866/23a224f3-2012-4fc8-8e0f-3c36f8de27fd.jpg\",\"img/0894/43216a7f-27bc-4b5a-8841-d122a30da9d9.jpg\"]","trial_type":"similarity","trial_index":116,"time_elapsed":932519,"internal_node_id":"0.0-6.0-110.0"},{"sim_score":1,"rt":3439,"stimulus":"[\"img/0899/f95cbdb4-f804-4f5d-ad76-373ad343e658.jpg\",\"img/0903/5ea5bbe0-f238-4724-abe7-9ed8dee8c0ba.jpg\"]","trial_type":"similarity","trial_index":117,"time_elapsed":936984,"internal_node_id":"0.0-6.0-111.0"},{"sim_score":5,"rt":5400,"stimulus":"[\"img/0902/2db723b6-130f-454c-8c8d-88829edbcd65.jpg\",\"img/0904/e9423a8c-f946-43ad-ab7b-931acef870e2.jpg\"]","trial_type":"similarity","trial_index":118,"time_elapsed":943430,"internal_node_id":"0.0-6.0-112.0"},{"sim_score":1,"rt":7054,"stimulus":"[\"img/0864/65210d57-1153-4657-886a-32e758f49b4a.jpg\",\"img/0860/524b2e98-5767-4d53-942c-ebae6925659b.jpg\"]","trial_type":"similarity","trial_index":119,"time_elapsed":951509,"internal_node_id":"0.0-6.0-113.0"},{"sim_score":2,"rt":6683,"stimulus":"[\"img/0860/5383b320-1518-4095-a58e-5cc1ae30b64c.jpg\",\"img/0899/25ae6ec8-9565-49fe-a8bb-8d0666f52716.jpg\"]","trial_type":"similarity","trial_index":120,"time_elapsed":959229,"internal_node_id":"0.0-6.0-114.0"},{"sim_score":1,"rt":5362,"stimulus":"[\"img/0881/405484ae-0d00-4b05-bc57-6420a36adfac.jpg\",\"img/0903/647ce311-8c71-479a-8361-961db1457139.jpg\"]","trial_type":"similarity","trial_index":121,"time_elapsed":965627,"internal_node_id":"0.0-6.0-115.0"},{"sim_score":1,"rt":4273,"stimulus":"[\"img/0894/2217bdcd-23a7-42d3-823b-23f2488d7e87.jpg\",\"img/0874/a3bc679d-619f-4db6-bb68-116dcb757d9c.jpg\"]","trial_type":"similarity","trial_index":122,"time_elapsed":970940,"internal_node_id":"0.0-6.0-116.0"},{"sim_score":1,"rt":6075,"stimulus":"[\"img/0881/54ea8e77-c7e5-4197-b7fa-00b7020849a7.jpg\",\"img/0862/d0ca4c78-fc35-46ed-bdcc-8e124283c53e.jpg\"]","trial_type":"similarity","trial_index":123,"time_elapsed":978052,"internal_node_id":"0.0-6.0-117.0"},{"sim_score":6,"rt":6489,"stimulus":"[\"img/0868/1a62b2b2-18f5-466e-b564-5176a57c565e.jpg\",\"img/0875/34132396-d896-4c2d-8087-646dd867e769.jpg\"]","trial_type":"similarity","trial_index":124,"time_elapsed":985577,"internal_node_id":"0.0-6.0-118.0"},{"sim_score":1,"rt":3688,"stimulus":"[\"img/0860/8277806e-b684-4474-8f7b-3fca946d7d4f.jpg\",\"img/0758/e1ba5e53-addc-436a-b428-d34fc1b130dc.jpg\"]","trial_type":"similarity","trial_index":125,"time_elapsed":990301,"internal_node_id":"0.0-6.0-119.0"},{"sim_score":2,"rt":5288,"stimulus":"[\"img/0864/ea327690-500b-4137-bf91-451b309fe6a5.jpg\",\"img/0875/d59ff733-eaff-4ee2-9443-06954dd0bcb6.jpg\"]","trial_type":"similarity","trial_index":126,"time_elapsed":996626,"internal_node_id":"0.0-6.0-120.0"},{"sim_score":2,"rt":4158,"stimulus":"[\"img/0898/b3290bf9-215b-4b45-b21a-65bdf73f142f.jpg\",\"img/0866/a15b02be-11bb-43e3-b0e0-ecc3bd7dfc49.jpg\"]","trial_type":"similarity","trial_index":127,"time_elapsed":1001820,"internal_node_id":"0.0-6.0-121.0"},{"sim_score":1,"rt":8534,"stimulus":"[\"img/0874/1016b306-087c-4afc-aa08-fa527b28dc76.jpg\",\"img/0904/2f88ce53-02d0-4f95-a082-182c56a0eeb4.jpg\"]","trial_type":"similarity","trial_index":128,"time_elapsed":1011396,"internal_node_id":"0.0-6.0-122.0"},{"sim_score":2,"rt":3938,"stimulus":"[\"img/0904/4d7d70a3-9477-4921-bda0-f9531d0a5c5b.jpg\",\"img/0864/f92649a2-0590-4d31-9a7a-1bfb81666a2d.jpg\"]","trial_type":"similarity","trial_index":129,"time_elapsed":1016371,"internal_node_id":"0.0-6.0-123.0"},{"sim_score":2,"rt":5093,"stimulus":"[\"img/0894/792c83e9-a747-4000-bc72-5663d2439edb.jpg\",\"img/0902/97022122-01e4-46c3-a34f-c6260ad28428.jpg\"]","trial_type":"similarity","trial_index":130,"time_elapsed":1022503,"internal_node_id":"0.0-6.0-124.0"},{"sim_score":2,"rt":3357,"stimulus":"[\"img/0868/d98ca254-b195-477f-b57e-5760a2717db8.jpg\",\"img/0864/e02eddb5-f468-499c-91bf-f7be3ffe979b.jpg\"]","trial_type":"similarity","trial_index":131,"time_elapsed":1037894,"internal_node_id":"0.0-6.0-125.0"},{"sim_score":1,"rt":5262,"stimulus":"[\"img/0899/ddf96ade-692e-4602-bd22-dedbb46401bc.jpg\",\"img/0866/be24ab58-230e-4db8-9f45-ff04c9aec6bb.jpg\"]","trial_type":"similarity","trial_index":132,"time_elapsed":1044196,"internal_node_id":"0.0-6.0-126.0"},{"sim_score":2,"rt":3455,"stimulus":"[\"img/0875/5a1e5100-0d94-4fec-bbe9-ca9894d2cf8e.jpg\",\"img/0904/2c98dc56-88d1-4fb5-a999-b6a7861f65f0.jpg\"]","trial_type":"similarity","trial_index":133,"time_elapsed":1048687,"internal_node_id":"0.0-6.0-127.0"},{"sim_score":1,"rt":4019,"stimulus":"[\"img/0867/f8488a47-94ee-4166-952c-44e16cf172f6.jpg\",\"img/0899/d60714ae-98d7-4564-8c98-94dba1351135.jpg\"]","trial_type":"similarity","trial_index":134,"time_elapsed":1053758,"internal_node_id":"0.0-6.0-128.0"},{"sim_score":2,"rt":5610,"stimulus":"[\"img/0901/ae1e6ce4-2e10-4ca9-b1e7-21628637ab74.jpg\",\"img/0867/8ba0c5a7-c7e4-42cf-a80a-543763b90779.jpg\"]","trial_type":"similarity","trial_index":135,"time_elapsed":1060415,"internal_node_id":"0.0-6.0-129.0"},{"sim_score":7,"rt":6093,"stimulus":"[\"img/0864/49150900-7f25-4ce8-8d10-9b47a71d1997.jpg\",\"img/0769/1ca58b80-2365-446d-9616-6c1719e6c46f.jpg\"]","trial_type":"similarity","trial_index":136,"time_elapsed":1067540,"internal_node_id":"0.0-6.0-130.0"},{"sim_score":1,"rt":4321,"stimulus":"[\"img/0903/72197c2b-403e-4a26-b391-f1aa8dea4b76.jpg\",\"img/0868/83b4350a-3b70-4cea-b7f5-b5b56f3050a8.jpg\"]","trial_type":"similarity","trial_index":137,"time_elapsed":1072899,"internal_node_id":"0.0-6.0-131.0"},{"sim_score":1,"rt":4575,"stimulus":"[\"img/0864/efcfbb1b-8197-44c9-b723-40d6c608dd3c.jpg\",\"img/0867/aa05d113-fc19-4756-a8eb-7878f580bc92.jpg\"]","trial_type":"similarity","trial_index":138,"time_elapsed":1078511,"internal_node_id":"0.0-6.0-132.0"},{"sim_score":5,"rt":5222,"stimulus":"[\"img/0901/443f2e59-199b-4f7b-9de9-c44ad97326a5.jpg\",\"img/0860/c7047cd2-7cc1-41b6-8a34-c0986774975f.jpg\"]","trial_type":"similarity","trial_index":139,"time_elapsed":1084766,"internal_node_id":"0.0-6.0-133.0"},{"sim_score":2,"rt":4881,"stimulus":"[\"img/0881/db77fe00-aeb0-4d1d-aa66-f3a96fd077e4.jpg\",\"img/0766/5d1b8041-c5a1-4b02-b4fe-3453d98a0d72.jpg\"]","trial_type":"similarity","trial_index":140,"time_elapsed":1090683,"internal_node_id":"0.0-6.0-134.0"},{"sim_score":2,"rt":4911,"stimulus":"[\"img/0903/45e2d600-57ff-4d69-b22c-0c7896cd38f0.jpg\",\"img/0864/c3b63e8f-ea39-4d70-a1f2-b3fe4be8eb75.jpg\"]","trial_type":"similarity","trial_index":141,"time_elapsed":1096624,"internal_node_id":"0.0-6.0-135.0"},{"sim_score":3,"rt":5216,"stimulus":"[\"img/0758/b76ceca7-95ac-46e4-ac13-da02c8e93be9.jpg\",\"img/0894/e5edf723-72a5-4673-8441-6c1734a8929b.jpg\"]","trial_type":"similarity","trial_index":142,"time_elapsed":1102883,"internal_node_id":"0.0-6.0-136.0"},{"sim_score":2,"rt":4521,"stimulus":"[\"img/0769/878531fd-e0e8-4ad1-b9ad-f018bb104ca0.jpg\",\"img/0860/99c589b9-9140-4d17-90c0-b344323edcda.jpg\"]","trial_type":"similarity","trial_index":143,"time_elapsed":1108445,"internal_node_id":"0.0-6.0-137.0"},{"sim_score":2,"rt":4394,"stimulus":"[\"img/0904/0d17b811-063e-416e-a23c-3b3cfa4fcce5.jpg\",\"img/0766/a0270213-fa0e-4972-8b56-228c3e01ff90.jpg\"]","trial_type":"similarity","trial_index":144,"time_elapsed":1113890,"internal_node_id":"0.0-6.0-138.0"},{"sim_score":3,"rt":5379,"stimulus":"[\"img/0868/8b0b8473-e2c0-4331-aa56-c3a5c29369da.jpg\",\"img/0860/b03b963d-949b-4d8d-b19c-4950c89eeca2.jpg\"]","trial_type":"similarity","trial_index":145,"time_elapsed":1120297,"internal_node_id":"0.0-6.0-139.0"},{"sim_score":4,"rt":5427,"stimulus":"[\"img/0758/d41c06bf-ebaf-454b-91c6-1a17f917b659.jpg\",\"img/0864/4bd81bc6-c13d-46df-95a9-485886dc7c1b.jpg\"]","trial_type":"similarity","trial_index":146,"time_elapsed":1126760,"internal_node_id":"0.0-6.0-140.0"},{"sim_score":7,"rt":4874,"stimulus":"[\"img/0867/ac1797e4-8afc-48fe-b252-86d1defb1cca.jpg\",\"img/0867/de92135f-5b65-4ed9-b245-188292c7c2f8.jpg\"]","trial_type":"similarity","trial_index":147,"time_elapsed":1132671,"internal_node_id":"0.0-6.0-141.0"},{"sim_score":6,"rt":5321,"stimulus":"[\"img/0898/08c72dac-f8ad-407a-9ce6-8c9a5d679c3a.jpg\",\"img/0898/0c7dde4f-efce-4b7a-9387-6921635b7890.jpg\"]","trial_type":"similarity","trial_index":148,"time_elapsed":1139033,"internal_node_id":"0.0-6.0-142.0"},{"sim_score":2,"rt":3338,"stimulus":"[\"img/0866/8efcaa46-83ab-4dee-a35f-850402aa21ae.jpg\",\"img/0769/f73c5138-2f4c-4354-981c-129dff9cc734.jpg\"]","trial_type":"similarity","trial_index":149,"time_elapsed":1143406,"internal_node_id":"0.0-6.0-143.0"},{"sim_score":5,"rt":5624,"stimulus":"[\"img/0860/fd4662f9-4c03-4d79-8593-06735e55a64b.jpg\",\"img/0898/40f99fb2-64d2-4e72-8a7f-a1cf60741e69.jpg\"]","trial_type":"similarity","trial_index":150,"time_elapsed":1150054,"internal_node_id":"0.0-6.0-144.0"},{"sim_score":6,"rt":6688,"stimulus":"[\"img/0766/d512b99c-a2dc-40d7-8e86-827323a0cbcf.jpg\",\"img/0864/87c467d3-abca-482f-ad80-3766c21b1bb3.jpg\"]","trial_type":"similarity","trial_index":151,"time_elapsed":1157786,"internal_node_id":"0.0-6.0-145.0"},{"sim_score":5,"rt":5863,"stimulus":"[\"img/0860/8fdba999-b946-4c7d-9891-336018b563ef.jpg\",\"img/0903/5c6b1f57-b3a2-40f5-9fb1-82785e24b6a0.jpg\"]","trial_type":"similarity","trial_index":152,"time_elapsed":1164692,"internal_node_id":"0.0-6.0-146.0"},{"sim_score":1,"rt":5349,"stimulus":"[\"img/0867/c71dc569-f49c-4397-8381-68b8d726736d.jpg\",\"img/0764/ba0c0955-acbb-457d-b1c2-f006b88121d5.jpg\"]","trial_type":"similarity","trial_index":153,"time_elapsed":1171070,"internal_node_id":"0.0-6.0-147.0"},{"sim_score":2,"rt":4058,"stimulus":"[\"img/0769/3adfa417-3b90-4aab-b437-5eaa474189cb.jpg\",\"img/0904/25365108-e038-4021-aac9-797f2063b337.jpg\"]","trial_type":"similarity","trial_index":154,"time_elapsed":1176171,"internal_node_id":"0.0-6.0-148.0"},{"sim_score":3,"rt":6373,"stimulus":"[\"img/0764/ca9829fe-aaf8-45b8-b98a-6bae751c63dd.jpg\",\"img/0901/d6d15b1c-4a30-4f74-a3fd-d4c8ee4169ca.jpg\"]","trial_type":"similarity","trial_index":155,"time_elapsed":1183586,"internal_node_id":"0.0-6.0-149.0"},{"sim_score":3,"rt":5318,"stimulus":"[\"img/0904/56e73f28-7e64-489b-a161-e6b1a063878d.jpg\",\"img/0899/93494f3b-d539-4075-b027-d82e344563da.jpg\"]","trial_type":"similarity","trial_index":156,"time_elapsed":1189938,"internal_node_id":"0.0-6.0-150.0"},{"sim_score":1,"rt":3250,"stimulus":"[\"img/0862/24cdc752-c2e5-4a17-86a6-6f2045d8553b.jpg\",\"img/0867/179ab87a-8eac-4c52-a41f-2e48e3120f09.jpg\"]","trial_type":"similarity","trial_index":157,"time_elapsed":1194223,"internal_node_id":"0.0-6.0-151.0"},{"sim_score":6,"rt":5364,"stimulus":"[\"img/0766/e8052e17-9dae-4139-802b-6e590cb2d526.jpg\",\"img/0766/d14acac4-7db1-4b07-8f8f-302437326fc0.jpg\"]","trial_type":"similarity","trial_index":158,"time_elapsed":1200629,"internal_node_id":"0.0-6.0-152.0"},{"sim_score":3,"rt":5282,"stimulus":"[\"img/0862/4f0a3b4c-afbf-486e-b248-1d54982f54b4.jpg\",\"img/0894/5ff3c4f6-52e2-4075-8679-be0312e59703.jpg\"]","trial_type":"similarity","trial_index":159,"time_elapsed":1206936,"internal_node_id":"0.0-6.0-153.0"},{"sim_score":2,"rt":6130,"stimulus":"[\"img/0899/7b7380d5-d2be-44e5-a09a-c1756f87ef71.jpg\",\"img/0901/71e551a2-9ce2-409c-9c7c-dd556a0791e9.jpg\"]","trial_type":"similarity","trial_index":160,"time_elapsed":1214108,"internal_node_id":"0.0-6.0-154.0"},{"sim_score":1,"rt":4121,"stimulus":"[\"img/0874/767f289c-9814-4496-803f-745cc8913d1f.jpg\",\"img/0874/ca23d307-fc00-4d7d-9106-584c6eb21b4d.jpg\"]","trial_type":"similarity","trial_index":161,"time_elapsed":1219261,"internal_node_id":"0.0-6.0-155.0"},{"sim_score":1,"rt":3959,"stimulus":"[\"img/0860/18dfed73-e36b-4487-a8bd-0b8cff8e3668.jpg\",\"img/0867/2e1a0b58-cdb1-4107-a14e-452530d7b9b0.jpg\"]","trial_type":"similarity","trial_index":162,"time_elapsed":1224247,"internal_node_id":"0.0-6.0-156.0"},{"sim_score":2,"rt":4517,"stimulus":"[\"img/0901/31c032fd-3c3d-4882-a226-da9a80198937.jpg\",\"img/0881/2a8413be-fec2-4de6-88ad-614dd4cccc9d.jpg\"]","trial_type":"similarity","trial_index":163,"time_elapsed":1229795,"internal_node_id":"0.0-6.0-157.0"},{"sim_score":4,"rt":4652,"stimulus":"[\"img/0903/f10e9eb5-0c21-4a6a-944c-5f10a6d0fa4d.jpg\",\"img/0902/94198618-7047-4dc9-ad04-85f4ba913067.jpg\"]","trial_type":"similarity","trial_index":164,"time_elapsed":1235472,"internal_node_id":"0.0-6.0-158.0"},{"sim_score":2,"rt":3575,"stimulus":"[\"img/0860/702bd09d-df3a-40aa-a267-5f04474305b5.jpg\",\"img/0764/6ef77040-1fae-4afa-bfe7-eda98e6d0376.jpg\"]","trial_type":"similarity","trial_index":165,"time_elapsed":1240093,"internal_node_id":"0.0-6.0-159.0"},{"sim_score":1,"rt":4327,"stimulus":"[\"img/0902/6730b12a-f0a7-4587-8c10-a32fae16565b.jpg\",\"img/0875/2c361b79-c3d1-4eda-812e-bf03192407bf.jpg\"]","trial_type":"similarity","trial_index":166,"time_elapsed":1245455,"internal_node_id":"0.0-6.0-160.0"},{"sim_score":1,"rt":4597,"stimulus":"[\"img/0898/81b08535-2020-4c15-9ce4-2f1e460755ae.jpg\",\"img/0862/5d887e9f-89e2-4ebc-80a0-6d46fe6480db.jpg\"]","trial_type":"similarity","trial_index":167,"time_elapsed":1251093,"internal_node_id":"0.0-6.0-161.0"},{"sim_score":1,"rt":4189,"stimulus":"[\"img/0894/4739e06d-c31e-4bf1-bf91-c97fa9afb456.jpg\",\"img/0875/99698b4d-b4a1-44bc-8c83-8ea755bbbf61.jpg\"]","trial_type":"similarity","trial_index":168,"time_elapsed":1256318,"internal_node_id":"0.0-6.0-162.0"},{"sim_score":1,"rt":5918,"stimulus":"[\"img/0866/bf14b5bd-fb55-47db-86b9-4f8aeb9a6dad.jpg\",\"img/0864/3651d070-2fc5-4848-b6a6-088a2d9ac5c9.jpg\"]","trial_type":"similarity","trial_index":169,"time_elapsed":1263262,"internal_node_id":"0.0-6.0-163.0"},{"sim_score":2,"rt":5217,"stimulus":"[\"img/0766/fd74fdbb-ea40-4f3a-a091-38d08dfd636e.jpg\",\"img/0862/57b6f83f-c763-4858-830d-102f97bfefbf.jpg\"]","trial_type":"similarity","trial_index":170,"time_elapsed":1269518,"internal_node_id":"0.0-6.0-164.0"},{"sim_score":2,"rt":5286,"stimulus":"[\"img/0866/07c9c966-3c8d-40e7-8128-92b2acbaed5d.jpg\",\"img/0874/3ce41e7c-40c8-4d58-a546-171114521796.jpg\"]","trial_type":"similarity","trial_index":171,"time_elapsed":1275830,"internal_node_id":"0.0-6.0-165.0"},{"sim_score":6,"rt":4049,"stimulus":"[\"img/0862/92f0146c-20c4-482e-aef5-adb693790338.jpg\",\"img/0860/94ef7afc-e0e6-4a15-98c6-0bfac82bc832.jpg\"]","trial_type":"similarity","trial_index":172,"time_elapsed":1280921,"internal_node_id":"0.0-6.0-166.0"},{"sim_score":1,"rt":5121,"stimulus":"[\"img/0766/3c526a07-9e0a-4ae2-8142-00085f0127da.jpg\",\"img/0901/deff6cfb-0072-4490-bc3e-206bbcd3e8bf.jpg\"]","trial_type":"similarity","trial_index":173,"time_elapsed":1293144,"internal_node_id":"0.0-6.0-167.0"},{"sim_score":7,"rt":5242,"stimulus":"[\"img/0862/e697469a-ec19-4414-b972-7b9f3564785b.jpg\",\"img/0862/fad1d7c1-8187-43c3-942a-0fc12183e48e.jpg\"]","trial_type":"similarity","trial_index":174,"time_elapsed":1299418,"internal_node_id":"0.0-6.0-168.0"},{"sim_score":5,"rt":5002,"stimulus":"[\"img/0894/492d2f29-d7b9-4422-8be8-47fd58bfaa8b.jpg\",\"img/0764/f713847b-4832-42d1-8fb3-e17e37fd745c.jpg\"]","trial_type":"similarity","trial_index":175,"time_elapsed":1305451,"internal_node_id":"0.0-6.0-169.0"},{"sim_score":1,"rt":3070,"stimulus":"[\"img/0874/ca76a855-4e77-4f2f-872a-0a718153e7ed.jpg\",\"img/0898/68476bbb-34a1-42d9-8bc1-deab783d4489.jpg\"]","trial_type":"similarity","trial_index":176,"time_elapsed":1309553,"internal_node_id":"0.0-6.0-170.0"},{"sim_score":2,"rt":4784,"stimulus":"[\"img/0860/d9a0d117-6d1d-41c0-8fec-9aff0fd9e9f2.jpg\",\"img/0766/26d3ae14-8275-4e08-99b2-a6598c193ddf.jpg\"]","trial_type":"similarity","trial_index":177,"time_elapsed":1315371,"internal_node_id":"0.0-6.0-171.0"},{"sim_score":1,"rt":4529,"stimulus":"[\"img/0898/a114b375-cb89-44ba-9498-74213f1ecdee.jpg\",\"img/0864/300bb811-8b3c-4c42-8653-6097c3725197.jpg\"]","trial_type":"similarity","trial_index":178,"time_elapsed":1320930,"internal_node_id":"0.0-6.0-172.0"},{"sim_score":2,"rt":5184,"stimulus":"[\"img/0881/84397291-bc14-4fbf-90e8-241e486ab0fe.jpg\",\"img/0764/5c8fbafc-e62e-43ed-9b37-f73e8e45147d.jpg\"]","trial_type":"similarity","trial_index":179,"time_elapsed":1327158,"internal_node_id":"0.0-6.0-173.0"},{"sim_score":3,"rt":5111,"stimulus":"[\"img/0898/8605a25b-6895-476d-8c13-df7a83f96093.jpg\",\"img/0868/4e626425-63c8-484a-8a1d-e66ee4e0bef8.jpg\"]","trial_type":"similarity","trial_index":180,"time_elapsed":1333297,"internal_node_id":"0.0-6.0-174.0"},{"sim_score":2,"rt":6073,"stimulus":"[\"img/0864/0f537697-a314-47c3-a8cc-8df23b7e536c.jpg\",\"img/0864/8ddd2e30-a1d0-479f-9cbe-591213023893.jpg\"]","trial_type":"similarity","trial_index":181,"time_elapsed":1340412,"internal_node_id":"0.0-6.0-175.0"},{"sim_score":3,"rt":5696,"stimulus":"[\"img/0899/ad8268c5-8199-48d0-ad70-c5b6d6c599ec.jpg\",\"img/0862/847e5208-38ec-4f36-949c-296cdd7424ee.jpg\"]","trial_type":"similarity","trial_index":182,"time_elapsed":1347146,"internal_node_id":"0.0-6.0-176.0"},{"sim_score":1,"rt":3091,"stimulus":"[\"img/0875/90da8d75-108a-44ad-b999-e21fee3860d3.jpg\",\"img/0758/a085b443-b5d7-4cb2-9ad4-b9dab0fc23f1.jpg\"]","trial_type":"similarity","trial_index":183,"time_elapsed":1351274,"internal_node_id":"0.0-6.0-177.0"},{"sim_score":1,"rt":3130,"stimulus":"[\"img/0866/4a87911a-d5be-4d4e-ab8e-3d1f581bf507.jpg\",\"img/0901/8bb79e82-9c43-4b6f-a655-40655519598b.jpg\"]","trial_type":"similarity","trial_index":184,"time_elapsed":1355442,"internal_node_id":"0.0-6.0-178.0"},{"sim_score":2,"rt":4252,"stimulus":"[\"img/0769/c7cfacc3-7f07-46ff-9f5d-8073f4c4679b.jpg\",\"img/0874/85eb9b8a-c4c6-4e5a-b8e7-363a87a82054.jpg\"]","trial_type":"similarity","trial_index":185,"time_elapsed":1360736,"internal_node_id":"0.0-6.0-179.0"},{"sim_score":2,"rt":3588,"stimulus":"[\"img/0875/5a7c4e35-6514-4e12-8879-d16071da4cd6.jpg\",\"img/0881/f6bd3b96-dc40-4e99-8681-bc3a35cf896d.jpg\"]","trial_type":"similarity","trial_index":186,"time_elapsed":1365355,"internal_node_id":"0.0-6.0-180.0"},{"sim_score":4,"rt":4473,"stimulus":"[\"img/0866/11a1d141-be5e-443c-98c1-a9d4d9e3dec0.jpg\",\"img/0868/5fa7f9d0-f0e5-454c-8224-74d964818f56.jpg\"]","trial_type":"similarity","trial_index":187,"time_elapsed":1370861,"internal_node_id":"0.0-6.0-181.0"},{"sim_score":2,"rt":4435,"stimulus":"[\"img/0899/565ccdd9-0933-4536-a625-3c0e25a713dd.jpg\",\"img/0758/7ffbc76b-1fc1-432c-8f7e-9ec8d1b3f643.jpg\"]","trial_type":"similarity","trial_index":188,"time_elapsed":1376330,"internal_node_id":"0.0-6.0-182.0"},{"sim_score":1,"rt":3357,"stimulus":"[\"img/0874/29830da7-be5f-44e5-b141-652a0ccf7269.jpg\",\"img/0875/03c3c331-738b-4446-af92-3d7386b08c2e.jpg\"]","trial_type":"similarity","trial_index":189,"time_elapsed":1380733,"internal_node_id":"0.0-6.0-183.0"},{"sim_score":1,"rt":3602,"stimulus":"[\"img/0904/2fd488e9-960f-41f7-8a44-33375f7d5051.jpg\",\"img/0862/1c20f772-3a51-4a80-aac0-f57dc9f86c28.jpg\"]","trial_type":"similarity","trial_index":190,"time_elapsed":1385370,"internal_node_id":"0.0-6.0-184.0"},{"sim_score":1,"rt":5039,"stimulus":"[\"img/0902/aa6fca32-82b0-4414-b20a-8f6f8aa5a2d2.jpg\",\"img/0766/fd064894-7147-4af5-97e9-2089d5472656.jpg\"]","trial_type":"similarity","trial_index":191,"time_elapsed":1391450,"internal_node_id":"0.0-6.0-185.0"},{"sim_score":1,"rt":4061,"stimulus":"[\"img/0758/3ddd05d3-557e-4ee7-8b78-9d2d681d8ae2.jpg\",\"img/0769/ebef2ddc-ba59-4e0e-97f8-927864eb5081.jpg\"]","trial_type":"similarity","trial_index":192,"time_elapsed":1396546,"internal_node_id":"0.0-6.0-186.0"},{"sim_score":7,"rt":5657,"stimulus":"[\"img/0881/62a64f90-7a72-4aee-a1a1-0c548ac9bdda.jpg\",\"img/0881/633c6f40-56d9-4b48-bf1c-ecd83116eabb.jpg\"]","trial_type":"similarity","trial_index":193,"time_elapsed":1403232,"internal_node_id":"0.0-6.0-187.0"},{"sim_score":1,"rt":4527,"stimulus":"[\"img/0758/6cd8c362-ae2a-41eb-80a3-3a4f7ace1530.jpg\",\"img/0866/9b38d691-1802-4959-ab3f-fc902f0e4ea6.jpg\"]","trial_type":"similarity","trial_index":194,"time_elapsed":1408800,"internal_node_id":"0.0-6.0-188.0"},{"sim_score":3,"rt":5519,"stimulus":"[\"img/0764/c80b3e06-2ee3-4326-9678-340607eb5348.jpg\",\"img/0898/a8f16b02-e19f-423b-86c3-a36562ae1f9b.jpg\"]","trial_type":"similarity","trial_index":195,"time_elapsed":1415353,"internal_node_id":"0.0-6.0-189.0"},{"sim_score":5,"rt":5673,"stimulus":"[\"img/0903/b548d383-2a95-4575-8c13-647873751ff1.jpg\",\"img/0901/58ec7fa9-b466-4651-90aa-c082df0972de.jpg\"]","trial_type":"similarity","trial_index":196,"time_elapsed":1422060,"internal_node_id":"0.0-6.0-190.0"},{"sim_score":5,"rt":4691,"stimulus":"[\"img/0902/5b45a7a0-81c8-4a71-aaa2-2ce09adb5a29.jpg\",\"img/0898/ec565187-2e31-4fdd-9a5c-153d0c789ae0.jpg\"]","trial_type":"similarity","trial_index":197,"time_elapsed":1427791,"internal_node_id":"0.0-6.0-191.0"},{"sim_score":2,"rt":4479,"stimulus":"[\"img/0864/1d15626a-2f7c-410f-819c-0fa2c967e95e.jpg\",\"img/0901/548d1110-7cb8-42a2-9927-9798875c8b5c.jpg\"]","trial_type":"similarity","trial_index":198,"time_elapsed":1433306,"internal_node_id":"0.0-6.0-192.0"},{"sim_score":2,"rt":4465,"stimulus":"[\"img/0894/bd34223a-2f66-4e16-9d18-193a746b69ff.jpg\",\"img/0881/6b1189e6-232d-4042-8885-16dc7b10e0d4.jpg\"]","trial_type":"similarity","trial_index":199,"time_elapsed":1438802,"internal_node_id":"0.0-6.0-193.0"},{"sim_score":6,"rt":7043,"stimulus":"[\"img/0868/4bd5105a-d2c3-4f82-8c80-57196106ba53.jpg\",\"img/0868/15dd6fd7-791e-4b53-b203-195d617521a4.jpg\"]","trial_type":"similarity","trial_index":200,"time_elapsed":1446877,"internal_node_id":"0.0-6.0-194.0"},{"sim_score":5,"rt":5323,"stimulus":"[\"img/0899/a05bea16-2bb4-4cb9-b8fb-4ff975db6971.jpg\",\"img/0764/7f4ee8e3-9315-4a57-be7d-db8454b33766.jpg\"]","trial_type":"similarity","trial_index":201,"time_elapsed":1453234,"internal_node_id":"0.0-6.0-195.0"},{"sim_score":2,"rt":4356,"stimulus":"[\"img/0881/292e9b4b-fca0-4ba8-87f1-4048f9e37b7d.jpg\",\"img/0904/96e503ea-6630-4996-85f2-0237688ce441.jpg\"]","trial_type":"similarity","trial_index":202,"time_elapsed":1458633,"internal_node_id":"0.0-6.0-196.0"},{"sim_score":2,"rt":4585,"stimulus":"[\"img/0864/5f33e097-23e3-4002-882d-76e8cb15f451.jpg\",\"img/0902/95a36b6b-9601-4fa5-8fd9-606ea62f9425.jpg\"]","trial_type":"similarity","trial_index":203,"time_elapsed":1464259,"internal_node_id":"0.0-6.0-197.0"},{"sim_score":6,"rt":6924,"stimulus":"[\"img/0894/2d2db7b3-e8a3-499b-b63a-14f51bf73882.jpg\",\"img/0904/d23dd7be-7fe8-4435-82f7-bd592c01e6a1.jpg\"]","trial_type":"similarity","trial_index":204,"time_elapsed":1472217,"internal_node_id":"0.0-6.0-198.0"},{"sim_score":7,"rt":4461,"stimulus":"[\"img/0901/33b51a81-06d9-46d9-9d4f-5a2d6d6b8058.jpg\",\"img/0901/50e1d53e-a49f-4806-8610-be6dec5a2475.jpg\"]","trial_type":"similarity","trial_index":205,"time_elapsed":1477709,"internal_node_id":"0.0-6.0-199.0"},{"sim_score":2,"rt":4050,"stimulus":"[\"img/0894/1a010553-d598-4b06-a772-81f1e7b3addb.jpg\",\"img/0860/87039971-2210-4aab-93c0-8e9b5f1655b2.jpg\"]","trial_type":"similarity","trial_index":206,"time_elapsed":1482797,"internal_node_id":"0.0-6.0-200.0"},{"sim_score":7,"rt":5395,"stimulus":"[\"img/0898/f3a3f225-1248-4ac7-b93b-f0ff28485bf3.jpg\",\"img/0903/8f7f9939-b8e6-433f-93dd-b362496c80a7.jpg\"]","trial_type":"similarity","trial_index":207,"time_elapsed":1489225,"internal_node_id":"0.0-6.0-201.0"},{"sim_score":2,"rt":6054,"stimulus":"[\"img/0864/e336a4c5-6648-4fd7-b2f6-93a3fb83f8c6.jpg\",\"img/0894/3664e04c-c6d3-4c9b-afb6-25d89974b174.jpg\"]","trial_type":"similarity","trial_index":208,"time_elapsed":1496327,"internal_node_id":"0.0-6.0-202.0"},{"sim_score":1,"rt":4727,"stimulus":"[\"img/0874/eba003b4-cdab-4eee-8bc3-f064c7d94165.jpg\",\"img/0860/4a022222-056d-461c-ab02-39fac9647552.jpg\"]","trial_type":"similarity","trial_index":209,"time_elapsed":1502094,"internal_node_id":"0.0-6.0-203.0"},{"sim_score":1,"rt":3067,"stimulus":"[\"img/0862/99a99e39-8355-44ec-b993-e7bcec111e1c.jpg\",\"img/0875/e7e66b13-b573-431e-b85e-288ce04a35a3.jpg\"]","trial_type":"similarity","trial_index":210,"time_elapsed":1506201,"internal_node_id":"0.0-6.0-204.0"},{"sim_score":2,"rt":3100,"stimulus":"[\"img/0867/12264664-1860-46df-8c21-162b9817cdda.jpg\",\"img/0881/c843e210-bdfe-4a7c-8bbe-fcea1f90fe1c.jpg\"]","trial_type":"similarity","trial_index":211,"time_elapsed":1510334,"internal_node_id":"0.0-6.0-205.0"},{"sim_score":3,"rt":4070,"stimulus":"[\"img/0901/b9141736-3041-4385-a586-b1fe911c76a5.jpg\",\"img/0902/b03fee99-d5ca-4bf8-871c-a4a743a39842.jpg\"]","trial_type":"similarity","trial_index":212,"time_elapsed":1515425,"internal_node_id":"0.0-6.0-206.0"},{"sim_score":1,"rt":4232,"stimulus":"[\"img/0899/fd9efb43-701f-4cd6-baaa-4c38315f4bdc.jpg\",\"img/0864/66091c27-e588-4476-8af9-265dc6be4156.jpg\"]","trial_type":"similarity","trial_index":213,"time_elapsed":1520692,"internal_node_id":"0.0-6.0-207.0"},{"sim_score":2,"rt":3778,"stimulus":"[\"img/0901/6e2957f8-f5ab-46f4-87cc-bb50155a098b.jpg\",\"img/0769/50985283-d353-4abc-9abe-14a91d56ebe6.jpg\"]","trial_type":"similarity","trial_index":214,"time_elapsed":1525513,"internal_node_id":"0.0-6.0-208.0"},{"sim_score":7,"rt":4269,"stimulus":"[\"img/0902/8065aa6b-4aef-4368-afa2-02c6465ca582.jpg\",\"img/0902/d3e55000-c839-4bf9-9b9b-4af0a9925af1.jpg\"]","trial_type":"similarity","trial_index":215,"time_elapsed":1536000,"internal_node_id":"0.0-6.0-209.0"},{"view_history":"[{\"page_index\":0,\"viewing_time\":6292}]","rt":6302,"trial_type":"instructions","trial_index":216,"time_elapsed":1543309,"internal_node_id":"0.0-7.0"},{"rt":56701,"responses":"{\"Q0\":\"Yellow Warbler\"}","answer":["Nashville Warbler"],"trial_type":"image-multi-choice","trial_index":217,"time_elapsed":1601241,"internal_node_id":"0.0-8.0-0.0"},{"rt":12974,"responses":"{\"Q0\":\"Black-and-white Warbler\"}","answer":["Black-and-white Warbler"],"trial_type":"image-multi-choice","trial_index":218,"time_elapsed":1615315,"internal_node_id":"0.0-8.0-1.0"},{"rt":35238,"responses":"{\"Q0\":\"Vesper Sparrow\"}","answer":["Townsend's Warbler"],"trial_type":"image-multi-choice","trial_index":219,"time_elapsed":1651655,"internal_node_id":"0.0-8.0-2.0"},{"rt":8771,"responses":"{\"Q0\":\"White-crowned Sparrow\"}","answer":["Lark Sparrow"],"trial_type":"image-multi-choice","trial_index":220,"time_elapsed":1661535,"internal_node_id":"0.0-8.0-3.0"},{"rt":12166,"responses":"{\"Q0\":\"Magnolia Warbler\"}","answer":["Yellow Warbler"],"trial_type":"image-multi-choice","trial_index":221,"time_elapsed":1674801,"internal_node_id":"0.0-8.0-4.0"},{"rt":41643,"responses":"{\"Q0\":\"Lark Sparrow\"}","answer":["Orange-crowned Warbler"],"trial_type":"image-multi-choice","trial_index":222,"time_elapsed":1717528,"internal_node_id":"0.0-8.0-5.0"},{"rt":10452,"responses":"{\"Q0\":\"White-throated Sparrow\"}","answer":["White-throated Sparrow"],"trial_type":"image-multi-choice","trial_index":223,"time_elapsed":1729091,"internal_node_id":"0.0-8.0-6.0"},{"rt":11082,"responses":"{\"Q0\":\"Song Sparrow\"}","answer":["Fox Sparrow"],"trial_type":"image-multi-choice","trial_index":224,"time_elapsed":1741269,"internal_node_id":"0.0-8.0-7.0"},{"rt":22308,"responses":"{\"Q0\":\"Chipping Sparrow\"}","answer":["Song Sparrow"],"trial_type":"image-multi-choice","trial_index":225,"time_elapsed":1764686,"internal_node_id":"0.0-8.0-8.0"},{"rt":19591,"responses":"{\"Q0\":\"Blackburnian Warbler\"}","answer":["Blackburnian Warbler"],"trial_type":"image-multi-choice","trial_index":226,"time_elapsed":1785383,"internal_node_id":"0.0-8.0-9.0"},{"rt":9419,"responses":"{\"Q0\":\"Swamp Sparrow\"}","answer":["Vesper Sparrow"],"trial_type":"image-multi-choice","trial_index":227,"time_elapsed":1795911,"internal_node_id":"0.0-8.0-10.0"},{"rt":11088,"responses":"{\"Q0\":\"White-crowned Sparrow\"}","answer":["White-crowned Sparrow"],"trial_type":"image-multi-choice","trial_index":228,"time_elapsed":1808111,"internal_node_id":"0.0-8.0-11.0"},{"rt":12318,"responses":"{\"Q0\":\"Song Sparrow\"}","answer":["American Tree Sparrow"],"trial_type":"image-multi-choice","trial_index":229,"time_elapsed":1821530,"internal_node_id":"0.0-8.0-12.0"},{"rt":9332,"responses":"{\"Q0\":\"Northern Waterthrush\"}","answer":["Tennessee Warbler"],"trial_type":"image-multi-choice","trial_index":230,"time_elapsed":1831974,"internal_node_id":"0.0-8.0-13.0"},{"rt":43868,"responses":"{\"Q0\":\"Nashville Warbler\"}","answer":["Magnolia Warbler"],"trial_type":"image-multi-choice","trial_index":231,"time_elapsed":1876942,"internal_node_id":"0.0-8.0-14.0"},{"rt":7046,"responses":"{\"Q0\":\"Ovenbird\"}","answer":["Northern Waterthrush"],"trial_type":"image-multi-choice","trial_index":232,"time_elapsed":1885093,"internal_node_id":"0.0-8.0-15.0"},{"rt":17321,"responses":"{\"Q0\":\"White-throated Sparrow\"}","answer":["Chipping Sparrow"],"trial_type":"image-multi-choice","trial_index":233,"time_elapsed":1903516,"internal_node_id":"0.0-8.0-16.0"},{"rt":11282,"responses":"{\"Q0\":\"Lark Sparrow\"}","answer":["Swamp Sparrow"],"trial_type":"image-multi-choice","trial_index":234,"time_elapsed":1915901,"internal_node_id":"0.0-8.0-17.0"},{"rt":11279,"responses":"{\"Q0\":\"Lincoln's Sparrow\"}","answer":["Lincoln's Sparrow"],"trial_type":"image-multi-choice","trial_index":235,"time_elapsed":1928296,"internal_node_id":"0.0-8.0-18.0"},{"rt":5722,"responses":"{\"Q0\":\"Ovenbird\"}","answer":["Ovenbird"],"trial_type":"image-multi-choice","trial_index":236,"time_elapsed":1935127,"internal_node_id":"0.0-8.0-19.0"}]