[{"view_history":"[{\"page_index\":0,\"viewing_time\":3547}]","rt":3548,"trial_type":"instructions","trial_index":0,"time_elapsed":3549,"internal_node_id":"0.0-0.0"},{"sim_score":5,"rt":14140,"stimulus":"[\"img/866.jpg\",\"img/868.jpg\"]","trial_type":"similarity_demo","trial_index":1,"time_elapsed":18701,"internal_node_id":"0.0-1.0"},{"view_history":"[{\"page_index\":0,\"viewing_time\":10820}]","rt":10821,"trial_type":"instructions","trial_index":2,"time_elapsed":30523,"internal_node_id":"0.0-2.0"},{"sim_score":3,"rt":5170,"stimulus":"[\"img/766.jpg\",\"img/867.jpg\"]","trial_type":"similarity_demo","trial_index":3,"time_elapsed":36699,"internal_node_id":"0.0-3.0"},{"view_history":"[{\"page_index\":0,\"viewing_time\":4455}]","rt":4455,"trial_type":"instructions","trial_index":4,"time_elapsed":42155,"internal_node_id":"0.0-4.0"},{"view_history":"[{\"page_index\":0,\"viewing_time\":21822}]","rt":21823,"trial_type":"instructions","trial_index":5,"time_elapsed":64979,"internal_node_id":"0.0-5.0"},{"sim_score":2,"rt":4649,"stimulus":"[\"img/0868/4a8a45ed-2c4f-421b-9564-409a33ecd26c.jpg\",\"img/0901/a6c90438-fa7c-4418-ac7c-16c2e772dd98.jpg\"]","trial_type":"similarity","trial_index":6,"time_elapsed":70637,"internal_node_id":"0.0-6.0-0.0"},{"sim_score":2,"rt":5583,"stimulus":"[\"img/0769/7c50e5f5-cc38-4d48-b009-fbe17bcea61c.jpg\",\"img/0867/c66898ba-b71b-4d50-84f9-f7f84853a98d.jpg\"]","trial_type":"similarity","trial_index":7,"time_elapsed":77227,"internal_node_id":"0.0-6.0-1.0"},{"sim_score":7,"rt":4250,"stimulus":"[\"img/0766/d512b99c-a2dc-40d7-8e86-827323a0cbcf.jpg\",\"img/0898/82231d4c-218b-4d0a-b50d-35a49b524e97.jpg\"]","trial_type":"similarity","trial_index":8,"time_elapsed":82493,"internal_node_id":"0.0-6.0-2.0"},{"sim_score":1,"rt":3768,"stimulus":"[\"img/0902/2a7ac123-414a-476a-9a96-4757b924baef.jpg\",\"img/0881/dea58fad-b4f1-41d9-bd3f-916eff19a3fd.jpg\"]","trial_type":"similarity","trial_index":9,"time_elapsed":87268,"internal_node_id":"0.0-6.0-3.0"},{"sim_score":7,"rt":3634,"stimulus":"[\"img/0894/7fb082e0-ce79-485c-9109-04367fb32275.jpg\",\"img/0894/5a49e858-2850-4892-9a06-e9f0efb5f94d.jpg\"]","trial_type":"similarity","trial_index":10,"time_elapsed":91907,"internal_node_id":"0.0-6.0-4.0"},{"sim_score":1,"rt":3515,"stimulus":"[\"img/0874/7e4f2150-3b59-4a36-b5da-a4e0ba410531.jpg\",\"img/0899/57476fed-5962-4272-8fc9-b317bb777b54.jpg\"]","trial_type":"similarity","trial_index":11,"time_elapsed":96427,"internal_node_id":"0.0-6.0-5.0"},{"sim_score":7,"rt":2378,"stimulus":"[\"img/0904/73920552-103b-4c9c-9ece-e0b8376b4504.jpg\",\"img/0764/b8e23f4f-ff19-4472-ad9b-2f85548ebca0.jpg\"]","trial_type":"similarity","trial_index":12,"time_elapsed":99812,"internal_node_id":"0.0-6.0-6.0"},{"sim_score":7,"rt":2537,"stimulus":"[\"img/0899/4408c14d-c168-4a7d-96f6-bc87bfb58f83.jpg\",\"img/0898/6cd3830b-d44e-4915-be2b-88d31424b91c.jpg\"]","trial_type":"similarity","trial_index":13,"time_elapsed":103355,"internal_node_id":"0.0-6.0-7.0"},{"sim_score":1,"rt":2914,"stimulus":"[\"img/0874/85eb9b8a-c4c6-4e5a-b8e7-363a87a82054.jpg\",\"img/0903/680ed18e-b311-4ecf-9b00-7dea32128334.jpg\"]","trial_type":"similarity","trial_index":14,"time_elapsed":107275,"internal_node_id":"0.0-6.0-8.0"},{"sim_score":7,"rt":2871,"stimulus":"[\"img/0881/609a5e93-38b5-4940-8627-2bf8fad7f802.jpg\",\"img/0758/6cd8c362-ae2a-41eb-80a3-3a4f7ace1530.jpg\"]","trial_type":"similarity","trial_index":15,"time_elapsed":111155,"internal_node_id":"0.0-6.0-9.0"},{"sim_score":7,"rt":2418,"stimulus":"[\"img/0898/cd3aaa3f-efa9-4ab3-8d6f-a6a9273ddf42.jpg\",\"img/0901/33b51a81-06d9-46d9-9d4f-5a2d6d6b8058.jpg\"]","trial_type":"similarity","trial_index":16,"time_elapsed":114579,"internal_node_id":"0.0-6.0-10.0"},{"sim_score":7,"rt":2099,"stimulus":"[\"img/0903/aa842abe-6fa3-448a-bf71-88d3ad28663b.jpg\",\"img/0769/35f2dd39-40aa-498e-b401-9f1ef2622d00.jpg\"]","trial_type":"similarity","trial_index":17,"time_elapsed":117684,"internal_node_id":"0.0-6.0-11.0"},{"sim_score":1,"rt":2650,"stimulus":"[\"img/0764/83c93cce-18d1-4aa7-9e23-2c268afe0a46.jpg\",\"img/0868/1a62b2b2-18f5-466e-b564-5176a57c565e.jpg\"]","trial_type":"similarity","trial_index":18,"time_elapsed":121339,"internal_node_id":"0.0-6.0-12.0"},{"sim_score":1,"rt":3954,"stimulus":"[\"img/0867/db7e032f-162b-46f5-ae67-2b29679adee4.jpg\",\"img/0903/39365c8e-a733-4801-ac7d-b87e38c3784b.jpg\"]","trial_type":"similarity","trial_index":19,"time_elapsed":126299,"internal_node_id":"0.0-6.0-13.0"},{"sim_score":1,"rt":2939,"stimulus":"[\"img/0766/d3bab2fc-ddcc-40a0-bb72-c0d0ebe19978.jpg\",\"img/0758/3ddd05d3-557e-4ee7-8b78-9d2d681d8ae2.jpg\"]","trial_type":"similarity","trial_index":20,"time_elapsed":130243,"internal_node_id":"0.0-6.0-14.0"},{"sim_score":1,"rt":4306,"stimulus":"[\"img/0902/511abb54-0094-4f4d-b6dc-3f2c97050521.jpg\",\"img/0860/29a21a9f-54bb-4093-ad3f-04823ceaa89f.jpg\"]","trial_type":"similarity","trial_index":21,"time_elapsed":135555,"internal_node_id":"0.0-6.0-15.0"},{"sim_score":1,"rt":2762,"stimulus":"[\"img/0769/96556ef3-7fac-4c9d-8281-1cb0ea5081bc.jpg\",\"img/0875/5a1e5100-0d94-4fec-bbe9-ca9894d2cf8e.jpg\"]","trial_type":"similarity","trial_index":22,"time_elapsed":139323,"internal_node_id":"0.0-6.0-16.0"},{"sim_score":1,"rt":3106,"stimulus":"[\"img/0904/b5855d6a-7ef9-46ca-9215-6e9fa046e543.jpg\",\"img/0866/6f2a90d7-14f1-4f1b-bd64-fc0af6b9fe44.jpg\"]","trial_type":"similarity","trial_index":23,"time_elapsed":143435,"internal_node_id":"0.0-6.0-17.0"},{"sim_score":7,"rt":2515,"stimulus":"[\"img/0875/ebf7653f-ff45-4e9f-af58-2c042ab3cd2b.jpg\",\"img/0875/42910c99-5463-450a-a0f8-d4d060a11455.jpg\"]","trial_type":"similarity","trial_index":24,"time_elapsed":146955,"internal_node_id":"0.0-6.0-18.0"},{"sim_score":7,"rt":3837,"stimulus":"[\"img/0758/d41c06bf-ebaf-454b-91c6-1a17f917b659.jpg\",\"img/0758/eabcd7a8-56ad-4fd2-bc24-90f6b7b33265.jpg\"]","trial_type":"similarity","trial_index":25,"time_elapsed":151795,"internal_node_id":"0.0-6.0-19.0"},{"sim_score":1,"rt":4107,"stimulus":"[\"img/0902/b56db912-c3c0-4fc2-b325-d640acd7cb58.jpg\",\"img/0874/8cdb1c07-1c32-46d2-981c-3636560fa6e5.jpg\"]","trial_type":"similarity","trial_index":26,"time_elapsed":156907,"internal_node_id":"0.0-6.0-20.0"},{"sim_score":7,"rt":2180,"stimulus":"[\"img/0764/56441045-b648-4ede-9632-3e9c0227080b.jpg\",\"img/0769/1afb527f-9887-428c-bd26-a12c2f9efb68.jpg\"]","trial_type":"similarity","trial_index":27,"time_elapsed":160091,"internal_node_id":"0.0-6.0-21.0"},{"sim_score":1,"rt":2402,"stimulus":"[\"img/0901/4f9cffe0-c0be-4d7f-bacd-9d51efd19b4a.jpg\",\"img/0874/ca23d307-fc00-4d7d-9106-584c6eb21b4d.jpg\"]","trial_type":"similarity","trial_index":28,"time_elapsed":163499,"internal_node_id":"0.0-6.0-22.0"},{"sim_score":1,"rt":3482,"stimulus":"[\"img/0875/fb732ab5-013a-4366-9f65-27811ed157e9.jpg\",\"img/0903/b4a0f61e-a964-4b79-a9a7-f767a8f92f34.jpg\"]","trial_type":"similarity","trial_index":29,"time_elapsed":167987,"internal_node_id":"0.0-6.0-23.0"},{"sim_score":1,"rt":3451,"stimulus":"[\"img/0769/965c3c44-d9e5-47c5-b61a-2bbdf4215d9a.jpg\",\"img/0881/7e822106-76f7-4b10-a805-14dc68b2cfaf.jpg\"]","trial_type":"similarity","trial_index":30,"time_elapsed":172443,"internal_node_id":"0.0-6.0-24.0"},{"sim_score":1,"rt":4361,"stimulus":"[\"img/0867/7d1c497b-c1b3-4ed8-abb5-d7f73306015f.jpg\",\"img/0904/ba8e689e-9ca6-4608-a2a1-3b0940666ae6.jpg\"]","trial_type":"similarity","trial_index":31,"time_elapsed":177811,"internal_node_id":"0.0-6.0-25.0"},{"sim_score":6,"rt":6668,"stimulus":"[\"img/0860/702bd09d-df3a-40aa-a267-5f04474305b5.jpg\",\"img/0881/b1a136f7-8511-4d3a-a0f6-3879acf1e1a1.jpg\"]","trial_type":"similarity","trial_index":32,"time_elapsed":185483,"internal_node_id":"0.0-6.0-26.0"},{"sim_score":7,"rt":2450,"stimulus":"[\"img/0866/bf14b5bd-fb55-47db-86b9-4f8aeb9a6dad.jpg\",\"img/0866/a15b02be-11bb-43e3-b0e0-ecc3bd7dfc49.jpg\"]","trial_type":"similarity","trial_index":33,"time_elapsed":188938,"internal_node_id":"0.0-6.0-27.0"},{"sim_score":1,"rt":3123,"stimulus":"[\"img/0764/c80b3e06-2ee3-4326-9678-340607eb5348.jpg\",\"img/0862/847e5208-38ec-4f36-949c-296cdd7424ee.jpg\"]","trial_type":"similarity","trial_index":34,"time_elapsed":193067,"internal_node_id":"0.0-6.0-28.0"},{"sim_score":1,"rt":2602,"stimulus":"[\"img/0904/96e503ea-6630-4996-85f2-0237688ce441.jpg\",\"img/0758/61d64021-9214-4951-bdf8-f871f9827cf9.jpg\"]","trial_type":"similarity","trial_index":35,"time_elapsed":196674,"internal_node_id":"0.0-6.0-29.0"},{"sim_score":7,"rt":3173,"stimulus":"[\"img/0894/7dd6ff43-f8fc-408a-8a41-a2b261871820.jpg\",\"img/0899/4f7bc593-8ddd-4da3-a0b9-84da730d3370.jpg\"]","trial_type":"similarity","trial_index":36,"time_elapsed":200851,"internal_node_id":"0.0-6.0-30.0"},{"sim_score":2,"rt":3619,"stimulus":"[\"img/0860/9593362c-9fe5-4d12-9735-6000a11f6aa5.jpg\",\"img/0904/24fc38fe-842c-4831-ad8a-b1de5c25c0a8.jpg\"]","trial_type":"similarity","trial_index":37,"time_elapsed":205475,"internal_node_id":"0.0-6.0-31.0"},{"sim_score":7,"rt":2963,"stimulus":"[\"img/0874/c0378dac-9370-439a-8b79-db27c96fb390.jpg\",\"img/0881/ee44e27f-d662-4608-b265-e7ffa19b216f.jpg\"]","trial_type":"similarity","trial_index":38,"time_elapsed":209443,"internal_node_id":"0.0-6.0-32.0"},{"sim_score":1,"rt":2193,"stimulus":"[\"img/0881/f6bd3b96-dc40-4e99-8681-bc3a35cf896d.jpg\",\"img/0899/565ccdd9-0933-4536-a625-3c0e25a713dd.jpg\"]","trial_type":"similarity","trial_index":39,"time_elapsed":212642,"internal_node_id":"0.0-6.0-33.0"},{"sim_score":6,"rt":3147,"stimulus":"[\"img/0866/f756f7d1-9ad8-4a34-9ef6-7a443d705bfe.jpg\",\"img/0862/f23038d4-c366-4f70-979f-66b62362efa4.jpg\"]","trial_type":"similarity","trial_index":40,"time_elapsed":216794,"internal_node_id":"0.0-6.0-34.0"},{"sim_score":1,"rt":2594,"stimulus":"[\"img/0868/83b4350a-3b70-4cea-b7f5-b5b56f3050a8.jpg\",\"img/0894/2217bdcd-23a7-42d3-823b-23f2488d7e87.jpg\"]","trial_type":"similarity","trial_index":41,"time_elapsed":220395,"internal_node_id":"0.0-6.0-35.0"},{"sim_score":7,"rt":4521,"stimulus":"[\"img/0860/8277806e-b684-4474-8f7b-3fca946d7d4f.jpg\",\"img/0860/4f695df5-afac-4da7-9875-fee39b0b24ad.jpg\"]","trial_type":"similarity","trial_index":42,"time_elapsed":225923,"internal_node_id":"0.0-6.0-36.0"},{"sim_score":6,"rt":2578,"stimulus":"[\"img/0862/57b6f83f-c763-4858-830d-102f97bfefbf.jpg\",\"img/0864/ef9cbca0-4be8-435d-ad49-977259e80409.jpg\"]","trial_type":"similarity","trial_index":43,"time_elapsed":229507,"internal_node_id":"0.0-6.0-37.0"},{"sim_score":1,"rt":2667,"stimulus":"[\"img/0766/6d32752d-aa05-40dc-9541-640b6e9d6fa1.jpg\",\"img/0866/07c9c966-3c8d-40e7-8128-92b2acbaed5d.jpg\"]","trial_type":"similarity","trial_index":44,"time_elapsed":233178,"internal_node_id":"0.0-6.0-38.0"},{"sim_score":1,"rt":2266,"stimulus":"[\"img/0875/dbdd643e-6d0e-4a5c-ab57-b9c29b9c981a.jpg\",\"img/0898/ec565187-2e31-4fdd-9a5c-153d0c789ae0.jpg\"]","trial_type":"similarity","trial_index":45,"time_elapsed":236451,"internal_node_id":"0.0-6.0-39.0"},{"sim_score":7,"rt":2666,"stimulus":"[\"img/0766/2da002a4-05c9-4f5c-9ed7-433b4183e273.jpg\",\"img/0769/e8ed913b-8a88-44f6-9327-d34afec3116b.jpg\"]","trial_type":"similarity","trial_index":46,"time_elapsed":240123,"internal_node_id":"0.0-6.0-40.0"},{"sim_score":1,"rt":3146,"stimulus":"[\"img/0874/adf9a8f1-c40b-402b-b95b-1e85a54a7b62.jpg\",\"img/0764/c01e2d65-6586-441b-bef5-3c96fcd85380.jpg\"]","trial_type":"similarity","trial_index":47,"time_elapsed":254402,"internal_node_id":"0.0-6.0-41.0"},{"sim_score":2,"rt":6339,"stimulus":"[\"img/0868/8b0b8473-e2c0-4331-aa56-c3a5c29369da.jpg\",\"img/0902/71c03003-03ef-4b0f-8229-e0c857150a5d.jpg\"]","trial_type":"similarity","trial_index":48,"time_elapsed":261747,"internal_node_id":"0.0-6.0-42.0"},{"sim_score":1,"rt":3426,"stimulus":"[\"img/0875/8521fd58-3b1e-4dc5-97ae-804edfa6734a.jpg\",\"img/0899/ad8268c5-8199-48d0-ad70-c5b6d6c599ec.jpg\"]","trial_type":"similarity","trial_index":49,"time_elapsed":266178,"internal_node_id":"0.0-6.0-43.0"},{"sim_score":5,"rt":2986,"stimulus":"[\"img/0866/620cd1aa-0800-4414-8f6e-90342e7a99ad.jpg\",\"img/0860/17b44a7d-c5ca-479f-9e87-f65a64f5c80e.jpg\"]","trial_type":"similarity","trial_index":50,"time_elapsed":270170,"internal_node_id":"0.0-6.0-44.0"},{"sim_score":6,"rt":4090,"stimulus":"[\"img/0766/51d3aab4-3d09-4dda-b99d-3dc7aaabc6f2.jpg\",\"img/0903/b0a3c45f-467e-412f-a183-c9c1827f2e63.jpg\"]","trial_type":"similarity","trial_index":51,"time_elapsed":275266,"internal_node_id":"0.0-6.0-45.0"},{"sim_score":7,"rt":4481,"stimulus":"[\"img/0901/d4d09bf5-093e-4050-838e-7c738be8e63c.jpg\",\"img/0904/5cceabc9-de1d-4c67-989b-c28a4ef77e79.jpg\"]","trial_type":"similarity","trial_index":52,"time_elapsed":280754,"internal_node_id":"0.0-6.0-46.0"},{"sim_score":1,"rt":4080,"stimulus":"[\"img/0758/dd559618-7f09-4a07-8018-d311c4a5ea29.jpg\",\"img/0902/12452bb1-b8c0-4e4d-ad4d-47e279e5933c.jpg\"]","trial_type":"similarity","trial_index":53,"time_elapsed":285842,"internal_node_id":"0.0-6.0-47.0"},{"sim_score":7,"rt":4008,"stimulus":"[\"img/0764/06ea144f-f4f3-4a14-ba47-f20f35c561e0.jpg\",\"img/0764/21e3292f-01ad-4238-828b-61b817857d16.jpg\"]","trial_type":"similarity","trial_index":54,"time_elapsed":290858,"internal_node_id":"0.0-6.0-48.0"},{"sim_score":2,"rt":3891,"stimulus":"[\"img/0866/a04d37f0-99dd-478a-b6c6-58b215138f84.jpg\",\"img/0902/3b243e54-0803-4c29-af42-4037c2118495.jpg\"]","trial_type":"similarity","trial_index":55,"time_elapsed":295754,"internal_node_id":"0.0-6.0-49.0"},{"sim_score":2,"rt":4572,"stimulus":"[\"img/0764/e30dba15-e68a-4659-89db-e1654b52fe02.jpg\",\"img/0758/f61ecdf8-a7d4-4db0-b84d-be46f7cfaffc.jpg\"]","trial_type":"similarity","trial_index":56,"time_elapsed":301330,"internal_node_id":"0.0-6.0-50.0"},{"sim_score":5,"rt":4139,"stimulus":"[\"img/0898/224c1572-56b9-4f16-a9e4-6f3bc9c114bd.jpg\",\"img/0894/133a1636-d123-4893-873c-1718050f832a.jpg\"]","trial_type":"similarity","trial_index":57,"time_elapsed":306474,"internal_node_id":"0.0-6.0-51.0"},{"sim_score":7,"rt":4195,"stimulus":"[\"img/0875/5a716432-c6ca-4b1c-955a-2b8ac25198ee.jpg\",\"img/0866/c446214b-a368-4c65-ae39-ea46894256ab.jpg\"]","trial_type":"similarity","trial_index":58,"time_elapsed":311674,"internal_node_id":"0.0-6.0-52.0"},{"sim_score":7,"rt":3186,"stimulus":"[\"img/0904/e9423a8c-f946-43ad-ab7b-931acef870e2.jpg\",\"img/0904/65e2b70a-b184-4da3-b5c0-5038bdf9469a.jpg\"]","trial_type":"similarity","trial_index":59,"time_elapsed":315866,"internal_node_id":"0.0-6.0-53.0"},{"sim_score":6,"rt":5771,"stimulus":"[\"img/0769/50985283-d353-4abc-9abe-14a91d56ebe6.jpg\",\"img/0769/057eb0a0-aa5b-40c7-9852-21444f68d767.jpg\"]","trial_type":"similarity","trial_index":60,"time_elapsed":322642,"internal_node_id":"0.0-6.0-54.0"},{"sim_score":1,"rt":3162,"stimulus":"[\"img/0898/f3a3f225-1248-4ac7-b93b-f0ff28485bf3.jpg\",\"img/0758/d57c2592-a317-4f63-91be-91a3a9afd222.jpg\"]","trial_type":"similarity","trial_index":61,"time_elapsed":326811,"internal_node_id":"0.0-6.0-55.0"},{"sim_score":6,"rt":3026,"stimulus":"[\"img/0769/d1be2815-fa79-46e8-b5c3-7d81caaca490.jpg\",\"img/0902/62f11694-7ed7-4cb7-8a73-9e95c43824e7.jpg\"]","trial_type":"similarity","trial_index":62,"time_elapsed":330842,"internal_node_id":"0.0-6.0-56.0"},{"sim_score":5,"rt":4076,"stimulus":"[\"img/0864/4bd81bc6-c13d-46df-95a9-485886dc7c1b.jpg\",\"img/0881/d1982897-8d8d-4704-a940-1ee5d07a1f15.jpg\"]","trial_type":"similarity","trial_index":63,"time_elapsed":335922,"internal_node_id":"0.0-6.0-57.0"},{"sim_score":5,"rt":2532,"stimulus":"[\"img/0758/b76ceca7-95ac-46e4-ac13-da02c8e93be9.jpg\",\"img/0868/77091fc7-a590-4ebb-b915-fdb2483a2399.jpg\"]","trial_type":"similarity","trial_index":64,"time_elapsed":339459,"internal_node_id":"0.0-6.0-58.0"},{"sim_score":2,"rt":4716,"stimulus":"[\"img/0862/a0a3a7ba-7798-46a3-b4ca-05e1f6e581d0.jpg\",\"img/0769/458d9c77-b844-40b5-bb1b-1e3bbd4da64e.jpg\"]","trial_type":"similarity","trial_index":65,"time_elapsed":345179,"internal_node_id":"0.0-6.0-59.0"},{"sim_score":5,"rt":3572,"stimulus":"[\"img/0764/1f95ab5f-fb65-4d70-b5db-d6bd6351a8aa.jpg\",\"img/0903/ea75f240-fb62-4edb-a709-83e858b202c0.jpg\"]","trial_type":"similarity","trial_index":66,"time_elapsed":349755,"internal_node_id":"0.0-6.0-60.0"},{"sim_score":7,"rt":3250,"stimulus":"[\"img/0899/b45c550b-96c3-4255-ad59-48a2b4db1c1e.jpg\",\"img/0899/0433d056-aa30-4f8a-9aa1-abbb951e4edd.jpg\"]","trial_type":"similarity","trial_index":67,"time_elapsed":354011,"internal_node_id":"0.0-6.0-61.0"},{"sim_score":5,"rt":3539,"stimulus":"[\"img/0860/99c589b9-9140-4d17-90c0-b344323edcda.jpg\",\"img/0875/e7e66b13-b573-431e-b85e-288ce04a35a3.jpg\"]","trial_type":"similarity","trial_index":68,"time_elapsed":358555,"internal_node_id":"0.0-6.0-62.0"},{"sim_score":5,"rt":3195,"stimulus":"[\"img/0868/7b212364-ff5f-4e28-9241-7eb6ea00161b.jpg\",\"img/0874/bf14b896-e930-4fd9-9c05-2e83317a2773.jpg\"]","trial_type":"similarity","trial_index":69,"time_elapsed":362756,"internal_node_id":"0.0-6.0-63.0"},{"sim_score":5,"rt":3225,"stimulus":"[\"img/0758/7ee8bc8f-c40b-4b3a-84ec-3e83580622d4.jpg\",\"img/0862/fad1d7c1-8187-43c3-942a-0fc12183e48e.jpg\"]","trial_type":"similarity","trial_index":70,"time_elapsed":366987,"internal_node_id":"0.0-6.0-64.0"},{"sim_score":6,"rt":3923,"stimulus":"[\"img/0904/fe746a3f-8458-48d0-8a13-8cba2a9df9f8.jpg\",\"img/0898/a8f16b02-e19f-423b-86c3-a36562ae1f9b.jpg\"]","trial_type":"similarity","trial_index":71,"time_elapsed":371915,"internal_node_id":"0.0-6.0-65.0"},{"sim_score":5,"rt":2555,"stimulus":"[\"img/0881/292e9b4b-fca0-4ba8-87f1-4048f9e37b7d.jpg\",\"img/0866/11a1d141-be5e-443c-98c1-a9d4d9e3dec0.jpg\"]","trial_type":"similarity","trial_index":72,"time_elapsed":375475,"internal_node_id":"0.0-6.0-66.0"},{"sim_score":1,"rt":4073,"stimulus":"[\"img/0867/179ab87a-8eac-4c52-a41f-2e48e3120f09.jpg\",\"img/0898/881e2a85-d5c2-49be-a0c6-8a6ce2c4af08.jpg\"]","trial_type":"similarity","trial_index":73,"time_elapsed":380555,"internal_node_id":"0.0-6.0-67.0"},{"sim_score":6,"rt":3251,"stimulus":"[\"img/0902/d1083f2c-5520-44ec-81a8-3f856fbf0e80.jpg\",\"img/0764/cffc80b0-4a90-4acb-a530-6f480f3ca303.jpg\"]","trial_type":"similarity","trial_index":74,"time_elapsed":384811,"internal_node_id":"0.0-6.0-68.0"},{"sim_score":6,"rt":3618,"stimulus":"[\"img/0875/f87b67d7-c33e-40d1-b281-248c4be1cb6e.jpg\",\"img/0867/5e07b34d-b40f-4b1c-ac10-49975bace45f.jpg\"]","trial_type":"similarity","trial_index":75,"time_elapsed":389434,"internal_node_id":"0.0-6.0-69.0"},{"sim_score":6,"rt":2732,"stimulus":"[\"img/0766/2e1cf445-9aef-40e7-92f4-5facf48b64c5.jpg\",\"img/0764/17b088f8-3053-4140-b544-d15654cc79ef.jpg\"]","trial_type":"similarity","trial_index":76,"time_elapsed":393171,"internal_node_id":"0.0-6.0-70.0"},{"sim_score":2,"rt":5401,"stimulus":"[\"img/0894/38cf335f-f76f-4349-8d65-e20cd6859565.jpg\",\"img/0867/aa05d113-fc19-4756-a8eb-7878f580bc92.jpg\"]","trial_type":"similarity","trial_index":77,"time_elapsed":399578,"internal_node_id":"0.0-6.0-71.0"},{"sim_score":1,"rt":4892,"stimulus":"[\"img/0875/99698b4d-b4a1-44bc-8c83-8ea755bbbf61.jpg\",\"img/0764/fb7d4a20-a475-465e-a74f-aa39a0d33d16.jpg\"]","trial_type":"similarity","trial_index":78,"time_elapsed":405474,"internal_node_id":"0.0-6.0-72.0"},{"sim_score":7,"rt":3738,"stimulus":"[\"img/0867/cc72ed48-7704-422c-86d6-467a1145287a.jpg\",\"img/0866/93a27239-8317-4e08-98ca-d8b1ff298e07.jpg\"]","trial_type":"similarity","trial_index":79,"time_elapsed":410218,"internal_node_id":"0.0-6.0-73.0"},{"sim_score":2,"rt":9650,"stimulus":"[\"img/0903/f1fa0f8d-e62b-4b4a-a174-31a0fabfe61b.jpg\",\"img/0758/ddc336e9-a8b6-4bb9-937a-c7e25e0e9250.jpg\"]","trial_type":"similarity","trial_index":80,"time_elapsed":420874,"internal_node_id":"0.0-6.0-74.0"},{"sim_score":2,"rt":3923,"stimulus":"[\"img/0766/0b48f9e0-7d37-4161-8adb-4e3f5b6b7583.jpg\",\"img/0868/d98ca254-b195-477f-b57e-5760a2717db8.jpg\"]","trial_type":"similarity","trial_index":81,"time_elapsed":425802,"internal_node_id":"0.0-6.0-75.0"},{"sim_score":3,"rt":3891,"stimulus":"[\"img/0874/ca76a855-4e77-4f2f-872a-0a718153e7ed.jpg\",\"img/0766/5d1b8041-c5a1-4b02-b4fe-3453d98a0d72.jpg\"]","trial_type":"similarity","trial_index":82,"time_elapsed":430697,"internal_node_id":"0.0-6.0-76.0"},{"sim_score":5,"rt":4331,"stimulus":"[\"img/0881/405484ae-0d00-4b05-bc57-6420a36adfac.jpg\",\"img/0868/6a28c3b0-3d76-498a-9fb7-ddafc665eca8.jpg\"]","trial_type":"similarity","trial_index":83,"time_elapsed":436034,"internal_node_id":"0.0-6.0-77.0"},{"sim_score":1,"rt":5658,"stimulus":"[\"img/0758/7ffbc76b-1fc1-432c-8f7e-9ec8d1b3f643.jpg\",\"img/0901/a6776381-91fe-43f8-ab73-261d318f95fd.jpg\"]","trial_type":"similarity","trial_index":84,"time_elapsed":442697,"internal_node_id":"0.0-6.0-78.0"},{"sim_score":3,"rt":3105,"stimulus":"[\"img/0881/62a64f90-7a72-4aee-a1a1-0c548ac9bdda.jpg\",\"img/0898/08c72dac-f8ad-407a-9ce6-8c9a5d679c3a.jpg\"]","trial_type":"similarity","trial_index":85,"time_elapsed":446809,"internal_node_id":"0.0-6.0-79.0"},{"sim_score":5,"rt":3668,"stimulus":"[\"img/0867/de92135f-5b65-4ed9-b245-188292c7c2f8.jpg\",\"img/0758/65d426d6-3ff6-415d-8654-a43b83ecc4fe.jpg\"]","trial_type":"similarity","trial_index":86,"time_elapsed":451481,"internal_node_id":"0.0-6.0-80.0"},{"sim_score":6,"rt":4362,"stimulus":"[\"img/0769/1ca58b80-2365-446d-9616-6c1719e6c46f.jpg\",\"img/0899/7b7380d5-d2be-44e5-a09a-c1756f87ef71.jpg\"]","trial_type":"similarity","trial_index":87,"time_elapsed":456850,"internal_node_id":"0.0-6.0-81.0"},{"sim_score":7,"rt":2524,"stimulus":"[\"img/0903/36e4ab1f-caa9-40b3-8616-faada076df94.jpg\",\"img/0903/12bd8657-92e6-4c36-a06c-597e7a1d51f3.jpg\"]","trial_type":"similarity","trial_index":88,"time_elapsed":460378,"internal_node_id":"0.0-6.0-82.0"},{"sim_score":3,"rt":3595,"stimulus":"[\"img/0867/a749dddb-69f0-44a6-acdc-2bf295cf6dcc.jpg\",\"img/0766/60033a74-9919-47e5-913c-71d0d483e7e5.jpg\"]","trial_type":"similarity","trial_index":89,"time_elapsed":481089,"internal_node_id":"0.0-6.0-83.0"},{"sim_score":2,"rt":4137,"stimulus":"[\"img/0902/31abfa33-7cdb-44ad-968e-9f7b324d577a.jpg\",\"img/0867/98d8cd96-1476-4fe0-a3a3-04f875500a1b.jpg\"]","trial_type":"similarity","trial_index":90,"time_elapsed":486233,"internal_node_id":"0.0-6.0-84.0"},{"sim_score":1,"rt":4147,"stimulus":"[\"img/0901/d61f267a-c492-4db6-9bfb-61efd49cf072.jpg\",\"img/0875/03c3c331-738b-4446-af92-3d7386b08c2e.jpg\"]","trial_type":"similarity","trial_index":91,"time_elapsed":491385,"internal_node_id":"0.0-6.0-85.0"},{"sim_score":3,"rt":2466,"stimulus":"[\"img/0764/ec2dd087-c471-4370-b570-95a542506a96.jpg\",\"img/0866/0207e9a2-7dbb-40b5-9459-b472aaeceb2a.jpg\"]","trial_type":"similarity","trial_index":92,"time_elapsed":494857,"internal_node_id":"0.0-6.0-86.0"},{"sim_score":6,"rt":4803,"stimulus":"[\"img/0901/f1116359-1ff1-4638-b3b3-700918d36d18.jpg\",\"img/0894/b2d2f66e-e480-46da-a02a-6d0c6b285d78.jpg\"]","trial_type":"similarity","trial_index":93,"time_elapsed":500665,"internal_node_id":"0.0-6.0-87.0"},{"sim_score":5,"rt":3779,"stimulus":"[\"img/0898/01bfe666-3510-4fc7-964f-d00d28732dc8.jpg\",\"img/0769/76eaa4a3-dfe9-4dc1-9efb-caebe86264e1.jpg\"]","trial_type":"similarity","trial_index":94,"time_elapsed":505449,"internal_node_id":"0.0-6.0-88.0"},{"sim_score":7,"rt":5224,"stimulus":"[\"img/0769/ecda2fb3-556b-43ba-8a67-e87dd75ff2b4.jpg\",\"img/0894/9b1333fd-3561-43bf-aee5-99b7b7ca3dc3.jpg\"]","trial_type":"similarity","trial_index":95,"time_elapsed":511681,"internal_node_id":"0.0-6.0-89.0"},{"sim_score":7,"rt":2473,"stimulus":"[\"img/0862/ba89835a-408c-480b-8594-ed4ffa97eb5c.jpg\",\"img/0874/a82926a3-0b43-4add-803c-d5f9ea7798ee.jpg\"]","trial_type":"similarity","trial_index":96,"time_elapsed":515162,"internal_node_id":"0.0-6.0-90.0"},{"sim_score":6,"rt":3048,"stimulus":"[\"img/0894/5c7677b0-a4f1-479e-b274-7822c415175a.jpg\",\"img/0766/26d3ae14-8275-4e08-99b2-a6598c193ddf.jpg\"]","trial_type":"similarity","trial_index":97,"time_elapsed":519218,"internal_node_id":"0.0-6.0-91.0"},{"sim_score":6,"rt":3506,"stimulus":"[\"img/0874/eba003b4-cdab-4eee-8bc3-f064c7d94165.jpg\",\"img/0867/c71dc569-f49c-4397-8381-68b8d726736d.jpg\"]","trial_type":"similarity","trial_index":98,"time_elapsed":523730,"internal_node_id":"0.0-6.0-92.0"},{"sim_score":2,"rt":4402,"stimulus":"[\"img/0899/fd9efb43-701f-4cd6-baaa-4c38315f4bdc.jpg\",\"img/0868/4bd5105a-d2c3-4f82-8c80-57196106ba53.jpg\"]","trial_type":"similarity","trial_index":99,"time_elapsed":529137,"internal_node_id":"0.0-6.0-93.0"},{"sim_score":3,"rt":3444,"stimulus":"[\"img/0903/470acfd5-5571-4a7b-b3a4-28d87e098138.jpg\",\"img/0862/24cdc752-c2e5-4a17-86a6-6f2045d8553b.jpg\"]","trial_type":"similarity","trial_index":100,"time_elapsed":533585,"internal_node_id":"0.0-6.0-94.0"},{"sim_score":5,"rt":8314,"stimulus":"[\"img/0899/d8f2dd94-570e-4e8c-a087-d96090fb9e8c.jpg\",\"img/0766/ba35c0fc-4d5b-490d-959e-c94b279cdd02.jpg\"]","trial_type":"similarity","trial_index":101,"time_elapsed":542905,"internal_node_id":"0.0-6.0-95.0"},{"sim_score":6,"rt":7155,"stimulus":"[\"img/0867/ac1797e4-8afc-48fe-b252-86d1defb1cca.jpg\",\"img/0868/fd307a36-9a3a-47d7-ab7c-f810d0b35040.jpg\"]","trial_type":"similarity","trial_index":102,"time_elapsed":551062,"internal_node_id":"0.0-6.0-96.0"},{"sim_score":3,"rt":3328,"stimulus":"[\"img/0862/f188d4f0-76a4-4102-818c-a209969d73a5.jpg\",\"img/0901/7c16dd9c-44ad-4d5b-990c-6a0b9b48b1b1.jpg\"]","trial_type":"similarity","trial_index":103,"time_elapsed":555393,"internal_node_id":"0.0-6.0-97.0"},{"sim_score":2,"rt":3286,"stimulus":"[\"img/0875/527ced51-8e53-4aab-ab05-86df219104c0.jpg\",\"img/0766/ea09dd5a-d24d-4e97-a099-7da3db1baef1.jpg\"]","trial_type":"similarity","trial_index":104,"time_elapsed":559681,"internal_node_id":"0.0-6.0-98.0"},{"sim_score":7,"rt":4406,"stimulus":"[\"img/0758/67c0be2f-9e91-48b3-8219-70ac0a1802fa.jpg\",\"img/0874/767f289c-9814-4496-803f-745cc8913d1f.jpg\"]","trial_type":"similarity","trial_index":105,"time_elapsed":565089,"internal_node_id":"0.0-6.0-99.0"},{"sim_score":2,"rt":4732,"stimulus":"[\"img/0904/a8c3c7d2-9bcf-4347-9e03-8203adfc1fc5.jpg\",\"img/0868/d6d1f30d-4323-435a-b194-7892521bc57e.jpg\"]","trial_type":"similarity","trial_index":106,"time_elapsed":570825,"internal_node_id":"0.0-6.0-100.0"},{"sim_score":3,"rt":4844,"stimulus":"[\"img/0903/6b5dcc60-3ad3-4962-93e5-e6cf768477af.jpg\",\"img/0866/02f5e6b9-52b7-448c-9708-5b460d0c9a23.jpg\"]","trial_type":"similarity","trial_index":107,"time_elapsed":576673,"internal_node_id":"0.0-6.0-101.0"},{"sim_score":1,"rt":5708,"stimulus":"[\"img/0868/e0aff734-077f-40dd-9781-74821abd3621.jpg\",\"img/0769/c34b7763-8ff2-46d5-9e92-f1d8f3bedbd8.jpg\"]","trial_type":"similarity","trial_index":108,"time_elapsed":583385,"internal_node_id":"0.0-6.0-102.0"},{"sim_score":5,"rt":2525,"stimulus":"[\"img/0902/d5e25767-e8ec-45f3-ac0a-7b4a6f7a9edc.jpg\",\"img/0899/fef567a2-c121-4481-9af0-ff108d199bbf.jpg\"]","trial_type":"similarity","trial_index":109,"time_elapsed":586913,"internal_node_id":"0.0-6.0-103.0"},{"sim_score":5,"rt":3726,"stimulus":"[\"img/0868/5fa7f9d0-f0e5-454c-8224-74d964818f56.jpg\",\"img/0862/00c06b00-3b73-44e9-bc1e-c5aafb438321.jpg\"]","trial_type":"similarity","trial_index":110,"time_elapsed":591641,"internal_node_id":"0.0-6.0-104.0"},{"sim_score":6,"rt":4076,"stimulus":"[\"img/0903/8c358e9e-a4f4-466e-8b93-7aec0d2358e8.jpg\",\"img/0894/2d2db7b3-e8a3-499b-b63a-14f51bf73882.jpg\"]","trial_type":"similarity","trial_index":111,"time_elapsed":596721,"internal_node_id":"0.0-6.0-105.0"},{"sim_score":5,"rt":3757,"stimulus":"[\"img/0864/c22faebd-9c53-47bc-ada3-b9a30c688e75.jpg\",\"img/0874/93d1f8dc-acf2-4f03-bd8d-8ec35df276ed.jpg\"]","trial_type":"similarity","trial_index":112,"time_elapsed":601480,"internal_node_id":"0.0-6.0-106.0"},{"sim_score":2,"rt":5166,"stimulus":"[\"img/0862/5d887e9f-89e2-4ebc-80a0-6d46fe6480db.jpg\",\"img/0902/24d10fe7-314f-4d5a-8c7b-b43121bba0a4.jpg\"]","trial_type":"similarity","trial_index":113,"time_elapsed":607651,"internal_node_id":"0.0-6.0-107.0"},{"sim_score":7,"rt":3338,"stimulus":"[\"img/0904/5aec2708-cf14-4a58-aa30-9a8a61c1be0e.jpg\",\"img/0903/8fcafe03-43df-4c45-9da5-0df3a1eeccc5.jpg\"]","trial_type":"similarity","trial_index":114,"time_elapsed":611992,"internal_node_id":"0.0-6.0-108.0"},{"sim_score":2,"rt":4867,"stimulus":"[\"img/0764/ef0e64c6-d0dd-4dc6-87b6-ce5c0665f421.jpg\",\"img/0864/0f537697-a314-47c3-a8cc-8df23b7e536c.jpg\"]","trial_type":"similarity","trial_index":115,"time_elapsed":617865,"internal_node_id":"0.0-6.0-109.0"},{"sim_score":2,"rt":4018,"stimulus":"[\"img/0866/8efcaa46-83ab-4dee-a35f-850402aa21ae.jpg\",\"img/0894/a98416c0-51e2-4960-85da-d81d8688b9d5.jpg\"]","trial_type":"similarity","trial_index":116,"time_elapsed":622889,"internal_node_id":"0.0-6.0-110.0"},{"sim_score":6,"rt":3189,"stimulus":"[\"img/0899/8de08897-b430-42fe-9d42-840670b80f94.jpg\",\"img/0903/f67c4ab9-f8c2-4fcd-848a-a54a7b031002.jpg\"]","trial_type":"similarity","trial_index":117,"time_elapsed":627081,"internal_node_id":"0.0-6.0-111.0"},{"sim_score":6,"rt":4434,"stimulus":"[\"img/0902/9f543501-3cf1-45a7-a2f1-eeca87cc15b9.jpg\",\"img/0904/696ebb60-8891-417a-91fd-c53218907a95.jpg\"]","trial_type":"similarity","trial_index":118,"time_elapsed":632520,"internal_node_id":"0.0-6.0-112.0"},{"sim_score":5,"rt":4382,"stimulus":"[\"img/0864/c3b63e8f-ea39-4d70-a1f2-b3fe4be8eb75.jpg\",\"img/0860/c3379ff7-0763-48fe-a1ec-7ea3d611bc7a.jpg\"]","trial_type":"similarity","trial_index":119,"time_elapsed":637905,"internal_node_id":"0.0-6.0-113.0"},{"sim_score":3,"rt":3251,"stimulus":"[\"img/0860/b03b963d-949b-4d8d-b19c-4950c89eeca2.jpg\",\"img/0899/66ab3178-c3fe-4455-ad17-d5952b08e018.jpg\"]","trial_type":"similarity","trial_index":120,"time_elapsed":642161,"internal_node_id":"0.0-6.0-114.0"},{"sim_score":3,"rt":3579,"stimulus":"[\"img/0881/c843e210-bdfe-4a7c-8bbe-fcea1f90fe1c.jpg\",\"img/0903/81368973-de81-46f4-844f-b901f3bfd66d.jpg\"]","trial_type":"similarity","trial_index":121,"time_elapsed":646745,"internal_node_id":"0.0-6.0-115.0"},{"sim_score":2,"rt":5876,"stimulus":"[\"img/0894/10f22b96-040c-44f4-950b-a4963f3f506c.jpg\",\"img/0874/31e22c7c-99aa-40b1-bf03-dd73fa2df4d6.jpg\"]","trial_type":"similarity","trial_index":122,"time_elapsed":653625,"internal_node_id":"0.0-6.0-116.0"},{"sim_score":6,"rt":3017,"stimulus":"[\"img/0881/0c7068da-d0d9-4103-bda1-74ef7a2b32c3.jpg\",\"img/0862/47ed5efd-4ec9-4b74-bb4e-a5f5cf0c3e7d.jpg\"]","trial_type":"similarity","trial_index":123,"time_elapsed":657648,"internal_node_id":"0.0-6.0-117.0"},{"sim_score":6,"rt":2611,"stimulus":"[\"img/0868/3a62db2d-97e9-44a3-b8e3-a48c6f0e423b.jpg\",\"img/0875/d59ff733-eaff-4ee2-9443-06954dd0bcb6.jpg\"]","trial_type":"similarity","trial_index":124,"time_elapsed":661264,"internal_node_id":"0.0-6.0-118.0"},{"sim_score":5,"rt":2178,"stimulus":"[\"img/0860/524b2e98-5767-4d53-942c-ebae6925659b.jpg\",\"img/0758/a085b443-b5d7-4cb2-9ad4-b9dab0fc23f1.jpg\"]","trial_type":"similarity","trial_index":125,"time_elapsed":664449,"internal_node_id":"0.0-6.0-119.0"},{"sim_score":5,"rt":3066,"stimulus":"[\"img/0864/3651d070-2fc5-4848-b6a6-088a2d9ac5c9.jpg\",\"img/0875/90da8d75-108a-44ad-b999-e21fee3860d3.jpg\"]","trial_type":"similarity","trial_index":126,"time_elapsed":668520,"internal_node_id":"0.0-6.0-120.0"},{"sim_score":2,"rt":3953,"stimulus":"[\"img/0898/8605a25b-6895-476d-8c13-df7a83f96093.jpg\",\"img/0866/d493a2c8-66eb-44b4-be02-2f327b700b7c.jpg\"]","trial_type":"similarity","trial_index":127,"time_elapsed":673480,"internal_node_id":"0.0-6.0-121.0"},{"sim_score":2,"rt":4291,"stimulus":"[\"img/0874/99f6563c-8a8d-4c1c-a41d-667b618c3fd5.jpg\",\"img/0904/da170c1b-9651-4f08-b231-2bdd1d9a046f.jpg\"]","trial_type":"similarity","trial_index":128,"time_elapsed":678777,"internal_node_id":"0.0-6.0-122.0"},{"sim_score":2,"rt":3050,"stimulus":"[\"img/0904/09dac84f-3d1c-4445-a68e-d0389fdbf1e9.jpg\",\"img/0864/afcba0a3-7e27-4757-b254-e9f05fad27e2.jpg\"]","trial_type":"similarity","trial_index":129,"time_elapsed":682832,"internal_node_id":"0.0-6.0-123.0"},{"sim_score":5,"rt":2794,"stimulus":"[\"img/0894/e2446cf5-cd48-486a-badc-76498e087fbe.jpg\",\"img/0902/a6fb6dd5-696c-47ec-be7d-d7b88f1544f1.jpg\"]","trial_type":"similarity","trial_index":130,"time_elapsed":686632,"internal_node_id":"0.0-6.0-124.0"},{"sim_score":4,"rt":12531,"stimulus":"[\"img/0868/c8ac40c7-6904-4e13-8d61-c75d3052dc4e.jpg\",\"img/0864/b3c4e378-28f0-4699-9338-2a257b4bca04.jpg\"]","trial_type":"similarity","trial_index":131,"time_elapsed":711352,"internal_node_id":"0.0-6.0-125.0"},{"sim_score":2,"rt":2899,"stimulus":"[\"img/0899/a048912c-b12c-40e3-90af-46b69b0cc4fe.jpg\",\"img/0866/23a224f3-2012-4fc8-8e0f-3c36f8de27fd.jpg\"]","trial_type":"similarity","trial_index":132,"time_elapsed":715256,"internal_node_id":"0.0-6.0-126.0"},{"sim_score":3,"rt":3732,"stimulus":"[\"img/0875/2e13d160-eea1-416b-aff1-d37ab99ecc1d.jpg\",\"img/0904/9b3568cc-3cf7-42be-9df3-fdafde7a58b8.jpg\"]","trial_type":"similarity","trial_index":133,"time_elapsed":719992,"internal_node_id":"0.0-6.0-127.0"},{"sim_score":2,"rt":5795,"stimulus":"[\"img/0867/6e19c858-b606-45b2-a4c6-910a73f1d82c.jpg\",\"img/0899/06b0fc99-0581-461a-9913-d1a5a941ac61.jpg\"]","trial_type":"similarity","trial_index":134,"time_elapsed":726792,"internal_node_id":"0.0-6.0-128.0"},{"sim_score":3,"rt":2435,"stimulus":"[\"img/0901/58978a6d-a3e2-4c59-8d62-f60693ecc0f6.jpg\",\"img/0867/2e1a0b58-cdb1-4107-a14e-452530d7b9b0.jpg\"]","trial_type":"similarity","trial_index":135,"time_elapsed":730234,"internal_node_id":"0.0-6.0-129.0"},{"sim_score":3,"rt":2578,"stimulus":"[\"img/0864/6e846d43-94a6-4b37-a268-65eda979f052.jpg\",\"img/0769/f73c5138-2f4c-4354-981c-129dff9cc734.jpg\"]","trial_type":"similarity","trial_index":136,"time_elapsed":733817,"internal_node_id":"0.0-6.0-130.0"},{"sim_score":3,"rt":2978,"stimulus":"[\"img/0903/776b74ee-a8ab-4ab8-a78d-097c0747538d.jpg\",\"img/0868/293079b8-7e0c-4afd-a390-1e5d35fe3ded.jpg\"]","trial_type":"similarity","trial_index":137,"time_elapsed":737800,"internal_node_id":"0.0-6.0-131.0"},{"sim_score":5,"rt":2194,"stimulus":"[\"img/0864/f92649a2-0590-4d31-9a7a-1bfb81666a2d.jpg\",\"img/0867/f8159067-056c-41f1-a136-c529fe5e970a.jpg\"]","trial_type":"similarity","trial_index":138,"time_elapsed":741000,"internal_node_id":"0.0-6.0-132.0"},{"sim_score":3,"rt":4114,"stimulus":"[\"img/0901/04a53755-6da5-44d4-a7a6-48a6bc0a2280.jpg\",\"img/0860/15b24a61-25be-4356-9eac-5ce95d0cb4a4.jpg\"]","trial_type":"similarity","trial_index":139,"time_elapsed":746120,"internal_node_id":"0.0-6.0-133.0"},{"sim_score":3,"rt":3483,"stimulus":"[\"img/0881/4da99fdd-1f40-4bbb-8e21-8833eef313f5.jpg\",\"img/0766/c23b5a20-e50f-4d85-841f-cf89212a4348.jpg\"]","trial_type":"similarity","trial_index":140,"time_elapsed":750608,"internal_node_id":"0.0-6.0-134.0"},{"sim_score":3,"rt":3531,"stimulus":"[\"img/0903/d987e220-f3e6-4b6d-a270-fe6757041f6d.jpg\",\"img/0864/efcfbb1b-8197-44c9-b723-40d6c608dd3c.jpg\"]","trial_type":"similarity","trial_index":141,"time_elapsed":755144,"internal_node_id":"0.0-6.0-135.0"},{"sim_score":2,"rt":3143,"stimulus":"[\"img/0758/e38fd80d-18d0-42f3-b848-f930788e8bd7.jpg\",\"img/0894/8cadb87a-7001-4e47-99fb-1867bebf1668.jpg\"]","trial_type":"similarity","trial_index":142,"time_elapsed":759292,"internal_node_id":"0.0-6.0-136.0"},{"sim_score":3,"rt":3519,"stimulus":"[\"img/0769/3adfa417-3b90-4aab-b437-5eaa474189cb.jpg\",\"img/0860/87039971-2210-4aab-93c0-8e9b5f1655b2.jpg\"]","trial_type":"similarity","trial_index":143,"time_elapsed":763816,"internal_node_id":"0.0-6.0-137.0"},{"sim_score":6,"rt":2851,"stimulus":"[\"img/0904/9d30eff1-46ef-4453-b11e-124ef8145c00.jpg\",\"img/0766/00891401-e4c9-4ce1-bc19-f70740d174bc.jpg\"]","trial_type":"similarity","trial_index":144,"time_elapsed":767673,"internal_node_id":"0.0-6.0-138.0"},{"sim_score":5,"rt":3387,"stimulus":"[\"img/0868/0d3abd3a-b6c3-4584-a9f7-e2da63748b3d.jpg\",\"img/0860/c47fdead-eb02-4989-b078-26f4852f44fe.jpg\"]","trial_type":"similarity","trial_index":145,"time_elapsed":772064,"internal_node_id":"0.0-6.0-139.0"},{"sim_score":5,"rt":3979,"stimulus":"[\"img/0758/e1ba5e53-addc-436a-b428-d34fc1b130dc.jpg\",\"img/0864/5f33e097-23e3-4002-882d-76e8cb15f451.jpg\"]","trial_type":"similarity","trial_index":146,"time_elapsed":777048,"internal_node_id":"0.0-6.0-140.0"},{"sim_score":7,"rt":2253,"stimulus":"[\"img/0867/f26f6b60-f772-4f4c-95a4-addc62cfd692.jpg\",\"img/0867/075e0f95-856b-4cbb-acf5-092393aaf04e.jpg\"]","trial_type":"similarity","trial_index":147,"time_elapsed":780304,"internal_node_id":"0.0-6.0-141.0"},{"sim_score":7,"rt":2972,"stimulus":"[\"img/0898/4184e5a2-84ea-4f36-9b42-ae58646f6f87.jpg\",\"img/0898/81b08535-2020-4c15-9ce4-2f1e460755ae.jpg\"]","trial_type":"similarity","trial_index":148,"time_elapsed":784280,"internal_node_id":"0.0-6.0-142.0"},{"sim_score":3,"rt":3530,"stimulus":"[\"img/0866/945c6710-d15b-4a5b-a8f6-69af0850357f.jpg\",\"img/0769/8c7cf147-1780-4d5c-8ddf-5ea23ff03ac9.jpg\"]","trial_type":"similarity","trial_index":149,"time_elapsed":788816,"internal_node_id":"0.0-6.0-143.0"},{"sim_score":3,"rt":3250,"stimulus":"[\"img/0860/31ff6436-98bf-4652-bed2-40f627229568.jpg\",\"img/0898/e167334e-cc1d-4986-b3b1-c7bc7da64baa.jpg\"]","trial_type":"similarity","trial_index":150,"time_elapsed":793072,"internal_node_id":"0.0-6.0-144.0"},{"sim_score":2,"rt":2363,"stimulus":"[\"img/0766/b84598d0-5b41-4841-88b0-b441b48289f5.jpg\",\"img/0864/0116ca98-293d-4fa6-a93b-5a6144ef64cc.jpg\"]","trial_type":"similarity","trial_index":151,"time_elapsed":796440,"internal_node_id":"0.0-6.0-145.0"},{"sim_score":3,"rt":4259,"stimulus":"[\"img/0860/5383b320-1518-4095-a58e-5cc1ae30b64c.jpg\",\"img/0903/f10e9eb5-0c21-4a6a-944c-5f10a6d0fa4d.jpg\"]","trial_type":"similarity","trial_index":152,"time_elapsed":801704,"internal_node_id":"0.0-6.0-146.0"},{"sim_score":1,"rt":4130,"stimulus":"[\"img/0867/bf560d4f-dee3-4f11-a385-705cc1aa5f3c.jpg\",\"img/0764/1def7b22-b054-4ec2-860b-73d25691823b.jpg\"]","trial_type":"similarity","trial_index":153,"time_elapsed":806840,"internal_node_id":"0.0-6.0-147.0"},{"sim_score":5,"rt":4170,"stimulus":"[\"img/0769/bb8c4e53-6f32-4814-97ee-392d4decfb2e.jpg\",\"img/0904/9dd5708f-3f8b-46a9-b49f-2f2fab87b357.jpg\"]","trial_type":"similarity","trial_index":154,"time_elapsed":812016,"internal_node_id":"0.0-6.0-148.0"},{"sim_score":5,"rt":2327,"stimulus":"[\"img/0764/8740679b-b56f-4292-aece-14063457113a.jpg\",\"img/0901/168eb52c-c415-43f1-b5c8-e76e1a1ec247.jpg\"]","trial_type":"similarity","trial_index":155,"time_elapsed":815352,"internal_node_id":"0.0-6.0-149.0"},{"sim_score":7,"rt":3634,"stimulus":"[\"img/0904/6291eb43-c10c-4810-a36a-101d09868b04.jpg\",\"img/0899/5b56dd3e-3f49-47cc-af84-16da6457753b.jpg\"]","trial_type":"similarity","trial_index":156,"time_elapsed":819992,"internal_node_id":"0.0-6.0-150.0"},{"sim_score":5,"rt":2451,"stimulus":"[\"img/0862/92f0146c-20c4-482e-aef5-adb693790338.jpg\",\"img/0867/50a1b60e-3a29-44bf-b606-d4bd3746fea9.jpg\"]","trial_type":"similarity","trial_index":157,"time_elapsed":823448,"internal_node_id":"0.0-6.0-151.0"},{"sim_score":7,"rt":2162,"stimulus":"[\"img/0766/0bf3793e-c353-45e5-ac6f-753f5f484e10.jpg\",\"img/0766/0025de5e-f620-4079-8a0f-00326ff3a6b0.jpg\"]","trial_type":"similarity","trial_index":158,"time_elapsed":826616,"internal_node_id":"0.0-6.0-152.0"},{"sim_score":3,"rt":2922,"stimulus":"[\"img/0862/4f0a3b4c-afbf-486e-b248-1d54982f54b4.jpg\",\"img/0894/1a010553-d598-4b06-a772-81f1e7b3addb.jpg\"]","trial_type":"similarity","trial_index":159,"time_elapsed":830544,"internal_node_id":"0.0-6.0-153.0"},{"sim_score":6,"rt":2668,"stimulus":"[\"img/0899/a05bea16-2bb4-4cb9-b8fb-4ff975db6971.jpg\",\"img/0901/b9141736-3041-4385-a586-b1fe911c76a5.jpg\"]","trial_type":"similarity","trial_index":160,"time_elapsed":834216,"internal_node_id":"0.0-6.0-154.0"},{"sim_score":7,"rt":4522,"stimulus":"[\"img/0874/995f0332-0439-4eb4-add3-957335dbf6d9.jpg\",\"img/0874/3ce41e7c-40c8-4d58-a546-171114521796.jpg\"]","trial_type":"similarity","trial_index":161,"time_elapsed":839744,"internal_node_id":"0.0-6.0-155.0"},{"sim_score":6,"rt":3202,"stimulus":"[\"img/0860/c5ccd1a4-4bb7-48e1-9b25-72cfaf06909b.jpg\",\"img/0867/f8488a47-94ee-4166-952c-44e16cf172f6.jpg\"]","trial_type":"similarity","trial_index":162,"time_elapsed":843951,"internal_node_id":"0.0-6.0-156.0"},{"sim_score":1,"rt":4267,"stimulus":"[\"img/0901/0f670aef-ac36-496d-8142-ee5fdb21dd82.jpg\",\"img/0881/c24f3051-eefa-42de-aba6-fccb56d93c70.jpg\"]","trial_type":"similarity","trial_index":163,"time_elapsed":849224,"internal_node_id":"0.0-6.0-157.0"},{"sim_score":7,"rt":4162,"stimulus":"[\"img/0903/647ce311-8c71-479a-8361-961db1457139.jpg\",\"img/0902/bd89a85f-3853-4786-acd6-98818ee29f1c.jpg\"]","trial_type":"similarity","trial_index":164,"time_elapsed":854392,"internal_node_id":"0.0-6.0-158.0"},{"sim_score":2,"rt":3690,"stimulus":"[\"img/0860/94ef7afc-e0e6-4a15-98c6-0bfac82bc832.jpg\",\"img/0764/6fbd1902-fa2a-48d8-bc11-705b8ab68d8f.jpg\"]","trial_type":"similarity","trial_index":165,"time_elapsed":859088,"internal_node_id":"0.0-6.0-159.0"},{"sim_score":1,"rt":2650,"stimulus":"[\"img/0902/e5a46bda-30d1-41ca-b36d-b8529b5a63d1.jpg\",\"img/0875/2c361b79-c3d1-4eda-812e-bf03192407bf.jpg\"]","trial_type":"similarity","trial_index":166,"time_elapsed":862743,"internal_node_id":"0.0-6.0-160.0"},{"sim_score":3,"rt":2443,"stimulus":"[\"img/0898/a114b375-cb89-44ba-9498-74213f1ecdee.jpg\",\"img/0862/ee3b7bff-4a70-4e84-9bea-4a565e456acb.jpg\"]","trial_type":"similarity","trial_index":167,"time_elapsed":866192,"internal_node_id":"0.0-6.0-161.0"},{"sim_score":1,"rt":2803,"stimulus":"[\"img/0894/5ff3c4f6-52e2-4075-8679-be0312e59703.jpg\",\"img/0875/3ecb367d-e9eb-4826-8aaa-7aa72fb98019.jpg\"]","trial_type":"similarity","trial_index":168,"time_elapsed":870000,"internal_node_id":"0.0-6.0-162.0"},{"sim_score":5,"rt":3275,"stimulus":"[\"img/0866/d266fece-59b3-46fa-b69f-96f6efb81b59.jpg\",\"img/0864/300bb811-8b3c-4c42-8653-6097c3725197.jpg\"]","trial_type":"similarity","trial_index":169,"time_elapsed":874279,"internal_node_id":"0.0-6.0-163.0"},{"sim_score":2,"rt":2706,"stimulus":"[\"img/0766/2746b119-4bba-463e-acf0-88136dc6600c.jpg\",\"img/0862/064818ee-13d5-4618-bb24-21c7368ea278.jpg\"]","trial_type":"similarity","trial_index":170,"time_elapsed":877991,"internal_node_id":"0.0-6.0-164.0"},{"sim_score":5,"rt":2916,"stimulus":"[\"img/0866/4a87911a-d5be-4d4e-ab8e-3d1f581bf507.jpg\",\"img/0874/29830da7-be5f-44e5-b141-652a0ccf7269.jpg\"]","trial_type":"similarity","trial_index":171,"time_elapsed":881912,"internal_node_id":"0.0-6.0-165.0"},{"sim_score":6,"rt":4868,"stimulus":"[\"img/0862/eefa5588-9efd-4591-aa5f-a2e17c7d7bcc.jpg\",\"img/0860/c7047cd2-7cc1-41b6-8a34-c0986774975f.jpg\"]","trial_type":"similarity","trial_index":172,"time_elapsed":887784,"internal_node_id":"0.0-6.0-166.0"},{"sim_score":5,"rt":2911,"stimulus":"[\"img/0766/27f54113-8561-4568-9ffe-0a1650ae65ec.jpg\",\"img/0901/bc47e078-bda4-40ed-b89a-bbd819164b95.jpg\"]","trial_type":"similarity","trial_index":173,"time_elapsed":898655,"internal_node_id":"0.0-6.0-167.0"},{"sim_score":7,"rt":2547,"stimulus":"[\"img/0862/f43ceabf-acc1-4107-b857-5d1849808f93.jpg\",\"img/0862/e0f1a4e9-e1b6-45f7-af67-89f334e6630d.jpg\"]","trial_type":"similarity","trial_index":174,"time_elapsed":902207,"internal_node_id":"0.0-6.0-168.0"},{"sim_score":6,"rt":2833,"stimulus":"[\"img/0894/151063aa-6472-4745-837b-36603aba5966.jpg\",\"img/0764/3297a811-ea8b-4d74-9547-59cecab7293a.jpg\"]","trial_type":"similarity","trial_index":175,"time_elapsed":906047,"internal_node_id":"0.0-6.0-169.0"},{"sim_score":2,"rt":3003,"stimulus":"[\"img/0874/a3bc679d-619f-4db6-bb68-116dcb757d9c.jpg\",\"img/0898/0af304a2-6a7a-4082-ab7c-4450cd08cc58.jpg\"]","trial_type":"similarity","trial_index":176,"time_elapsed":910056,"internal_node_id":"0.0-6.0-170.0"},{"sim_score":3,"rt":2740,"stimulus":"[\"img/0860/f44ba3fb-03a2-42f0-8509-2c1ded493086.jpg\",\"img/0766/aaec5f42-7f0a-4a16-aeca-488d757acbcc.jpg\"]","trial_type":"similarity","trial_index":177,"time_elapsed":913800,"internal_node_id":"0.0-6.0-171.0"},{"sim_score":2,"rt":3582,"stimulus":"[\"img/0898/68476bbb-34a1-42d9-8bc1-deab783d4489.jpg\",\"img/0864/66091c27-e588-4476-8af9-265dc6be4156.jpg\"]","trial_type":"similarity","trial_index":178,"time_elapsed":918391,"internal_node_id":"0.0-6.0-172.0"},{"sim_score":1,"rt":3074,"stimulus":"[\"img/0881/adc02f34-ce97-4aef-850f-00519df06fd7.jpg\",\"img/0764/c84fbfa8-521c-407a-9bd3-24f7308d896c.jpg\"]","trial_type":"similarity","trial_index":179,"time_elapsed":922471,"internal_node_id":"0.0-6.0-173.0"},{"sim_score":1,"rt":2650,"stimulus":"[\"img/0898/b2732712-71c2-45d8-834f-2b2ed5504910.jpg\",\"img/0868/09a9ef4d-d000-4cfa-a6aa-ebec7c2edeb4.jpg\"]","trial_type":"similarity","trial_index":180,"time_elapsed":926127,"internal_node_id":"0.0-6.0-174.0"},{"sim_score":7,"rt":2386,"stimulus":"[\"img/0864/6f631579-acf1-415c-a42c-1207f62a8d99.jpg\",\"img/0864/a248adb3-c70b-4652-b7a3-776d2a1e904b.jpg\"]","trial_type":"similarity","trial_index":181,"time_elapsed":929519,"internal_node_id":"0.0-6.0-175.0"},{"sim_score":2,"rt":4370,"stimulus":"[\"img/0899/76ad07e2-ca25-45eb-84f2-8d80b8ca3e26.jpg\",\"img/0862/e697469a-ec19-4414-b972-7b9f3564785b.jpg\"]","trial_type":"similarity","trial_index":182,"time_elapsed":934895,"internal_node_id":"0.0-6.0-176.0"},{"sim_score":6,"rt":2402,"stimulus":"[\"img/0875/a4935837-7d3c-4df6-88c1-36a94d4991ca.jpg\",\"img/0758/a709631e-3705-4725-ac40-f0d916924f08.jpg\"]","trial_type":"similarity","trial_index":183,"time_elapsed":938303,"internal_node_id":"0.0-6.0-177.0"},{"sim_score":2,"rt":2886,"stimulus":"[\"img/0866/9b38d691-1802-4959-ab3f-fc902f0e4ea6.jpg\",\"img/0901/c6df1a21-44ed-47c2-960e-7c52220e329e.jpg\"]","trial_type":"similarity","trial_index":184,"time_elapsed":942194,"internal_node_id":"0.0-6.0-178.0"},{"sim_score":2,"rt":4671,"stimulus":"[\"img/0769/5bd04f55-d091-4f57-85db-38426f26bd1a.jpg\",\"img/0874/2c9464dd-8a23-4baa-ac94-1ba3af5c15cc.jpg\"]","trial_type":"similarity","trial_index":185,"time_elapsed":947871,"internal_node_id":"0.0-6.0-179.0"},{"sim_score":6,"rt":3531,"stimulus":"[\"img/0875/5a7c4e35-6514-4e12-8879-d16071da4cd6.jpg\",\"img/0881/633c6f40-56d9-4b48-bf1c-ecd83116eabb.jpg\"]","trial_type":"similarity","trial_index":186,"time_elapsed":952408,"internal_node_id":"0.0-6.0-180.0"},{"sim_score":6,"rt":3786,"stimulus":"[\"img/0866/be24ab58-230e-4db8-9f45-ff04c9aec6bb.jpg\",\"img/0868/4e626425-63c8-484a-8a1d-e66ee4e0bef8.jpg\"]","trial_type":"similarity","trial_index":187,"time_elapsed":957200,"internal_node_id":"0.0-6.0-181.0"},{"sim_score":1,"rt":2602,"stimulus":"[\"img/0899/7f9d45d0-b2c6-40d3-aa41-c207db2c411b.jpg\",\"img/0758/2fa3e613-e676-4e6e-bd12-705327eeb3e1.jpg\"]","trial_type":"similarity","trial_index":188,"time_elapsed":960808,"internal_node_id":"0.0-6.0-182.0"},{"sim_score":6,"rt":3828,"stimulus":"[\"img/0874/3f471690-9788-4d03-90c7-f615aecef149.jpg\",\"img/0875/cff79b3a-a797-4393-9757-6275f999ec04.jpg\"]","trial_type":"similarity","trial_index":189,"time_elapsed":965640,"internal_node_id":"0.0-6.0-183.0"},{"sim_score":2,"rt":2922,"stimulus":"[\"img/0904/1d10df11-b5c8-4370-9a6b-097a7f965895.jpg\",\"img/0862/fb26cb07-d5a9-4653-813c-f41609f26cd5.jpg\"]","trial_type":"similarity","trial_index":190,"time_elapsed":969568,"internal_node_id":"0.0-6.0-184.0"},{"sim_score":6,"rt":4362,"stimulus":"[\"img/0902/ca3160ba-ad5d-459f-a1b6-8b4f3c85ecd5.jpg\",\"img/0766/908bc45b-7c9e-4f95-806e-86b196ebcb2c.jpg\"]","trial_type":"similarity","trial_index":191,"time_elapsed":974936,"internal_node_id":"0.0-6.0-185.0"},{"sim_score":2,"rt":3228,"stimulus":"[\"img/0758/7fba58df-2a7a-4b76-8a8f-62739f97f271.jpg\",\"img/0769/04347740-f8f6-48bb-887a-f68babd0a0d4.jpg\"]","trial_type":"similarity","trial_index":192,"time_elapsed":979168,"internal_node_id":"0.0-6.0-186.0"},{"sim_score":7,"rt":2835,"stimulus":"[\"img/0881/54ea8e77-c7e5-4197-b7fa-00b7020849a7.jpg\",\"img/0881/2a8413be-fec2-4de6-88ad-614dd4cccc9d.jpg\"]","trial_type":"similarity","trial_index":193,"time_elapsed":983008,"internal_node_id":"0.0-6.0-187.0"},{"sim_score":5,"rt":2331,"stimulus":"[\"img/0758/20497cbe-ddae-489e-86e2-ab06985ed07c.jpg\",\"img/0866/386235d2-6857-41e7-88a8-25cfc3430025.jpg\"]","trial_type":"similarity","trial_index":194,"time_elapsed":986344,"internal_node_id":"0.0-6.0-188.0"},{"sim_score":6,"rt":4699,"stimulus":"[\"img/0764/4bec8d92-75aa-475a-954d-8215dbe538f5.jpg\",\"img/0898/0c7dde4f-efce-4b7a-9387-6921635b7890.jpg\"]","trial_type":"similarity","trial_index":195,"time_elapsed":992048,"internal_node_id":"0.0-6.0-189.0"},{"sim_score":6,"rt":3010,"stimulus":"[\"img/0903/4cbdc464-e562-4ec2-9bb6-15f894fdf528.jpg\",\"img/0901/7d4a3388-488d-4e9b-9d32-9d0def7aae8d.jpg\"]","trial_type":"similarity","trial_index":196,"time_elapsed":996064,"internal_node_id":"0.0-6.0-190.0"},{"sim_score":6,"rt":3620,"stimulus":"[\"img/0902/418b716e-63e5-4c77-93e9-95b1f5a3ddf0.jpg\",\"img/0898/661621d4-a14e-487c-8c74-354134a29710.jpg\"]","trial_type":"similarity","trial_index":197,"time_elapsed":1000688,"internal_node_id":"0.0-6.0-191.0"},{"sim_score":2,"rt":3108,"stimulus":"[\"img/0864/ea327690-500b-4137-bf91-451b309fe6a5.jpg\",\"img/0901/f469cb1d-6d81-4a45-bab5-cd0b650c2b4f.jpg\"]","trial_type":"similarity","trial_index":198,"time_elapsed":1004800,"internal_node_id":"0.0-6.0-192.0"},{"sim_score":3,"rt":4972,"stimulus":"[\"img/0894/767a0eec-1064-46b1-b1aa-dfa02b0cd74e.jpg\",\"img/0881/84397291-bc14-4fbf-90e8-241e486ab0fe.jpg\"]","trial_type":"similarity","trial_index":199,"time_elapsed":1010776,"internal_node_id":"0.0-6.0-193.0"},{"sim_score":7,"rt":3593,"stimulus":"[\"img/0868/15dd6fd7-791e-4b53-b203-195d617521a4.jpg\",\"img/0868/179a5502-ab5c-478e-8263-5a1fbcc101d2.jpg\"]","trial_type":"similarity","trial_index":200,"time_elapsed":1015376,"internal_node_id":"0.0-6.0-194.0"},{"sim_score":6,"rt":3595,"stimulus":"[\"img/0899/66bf4113-ee12-426c-84d2-ea410b6c803e.jpg\",\"img/0764/e42c1dc9-7831-4995-be19-7ca7b4d141fc.jpg\"]","trial_type":"similarity","trial_index":201,"time_elapsed":1019976,"internal_node_id":"0.0-6.0-195.0"},{"sim_score":3,"rt":5747,"stimulus":"[\"img/0881/667e2147-d457-4f32-aa5f-6ab86e5848f1.jpg\",\"img/0904/0d25eb24-bb20-4e8d-9787-8b489558b4cb.jpg\"]","trial_type":"similarity","trial_index":202,"time_elapsed":1026728,"internal_node_id":"0.0-6.0-196.0"},{"sim_score":2,"rt":3180,"stimulus":"[\"img/0864/e336a4c5-6648-4fd7-b2f6-93a3fb83f8c6.jpg\",\"img/0902/962f645e-9b55-4628-9b50-c703422bfe1a.jpg\"]","trial_type":"similarity","trial_index":203,"time_elapsed":1030912,"internal_node_id":"0.0-6.0-197.0"},{"sim_score":6,"rt":2603,"stimulus":"[\"img/0894/05161000-f476-499b-a878-c13c7f347fd9.jpg\",\"img/0904/4d7d70a3-9477-4921-bda0-f9531d0a5c5b.jpg\"]","trial_type":"similarity","trial_index":204,"time_elapsed":1034520,"internal_node_id":"0.0-6.0-198.0"},{"sim_score":7,"rt":2403,"stimulus":"[\"img/0901/a9b9c0a0-8aed-4888-a78a-65fb7e764d13.jpg\",\"img/0901/b13fa50f-dbe0-4d0f-8647-6ac0fd8f40bd.jpg\"]","trial_type":"similarity","trial_index":205,"time_elapsed":1037928,"internal_node_id":"0.0-6.0-199.0"},{"sim_score":3,"rt":3683,"stimulus":"[\"img/0894/792c83e9-a747-4000-bc72-5663d2439edb.jpg\",\"img/0860/fd4662f9-4c03-4d79-8593-06735e55a64b.jpg\"]","trial_type":"similarity","trial_index":206,"time_elapsed":1042616,"internal_node_id":"0.0-6.0-200.0"},{"sim_score":7,"rt":2379,"stimulus":"[\"img/0898/5f699581-3853-4547-856c-12f419ba5af7.jpg\",\"img/0903/b0df4094-a3be-4b5b-81bd-8d260f13f61b.jpg\"]","trial_type":"similarity","trial_index":207,"time_elapsed":1046000,"internal_node_id":"0.0-6.0-201.0"},{"sim_score":2,"rt":3373,"stimulus":"[\"img/0864/da39ad34-04e0-40d4-a724-c08d53e0ea09.jpg\",\"img/0894/1b3888e6-cf36-4c4a-a039-187aa5cb71ac.jpg\"]","trial_type":"similarity","trial_index":208,"time_elapsed":1050376,"internal_node_id":"0.0-6.0-202.0"},{"sim_score":5,"rt":3714,"stimulus":"[\"img/0874/1016b306-087c-4afc-aa08-fa527b28dc76.jpg\",\"img/0860/e8b8c51e-1834-4875-8b61-6c5bc9b178bd.jpg\"]","trial_type":"similarity","trial_index":209,"time_elapsed":1055095,"internal_node_id":"0.0-6.0-203.0"},{"sim_score":5,"rt":3083,"stimulus":"[\"img/0862/cdaed51d-9e2f-4807-801a-4663c40077e2.jpg\",\"img/0875/34132396-d896-4c2d-8087-646dd867e769.jpg\"]","trial_type":"similarity","trial_index":210,"time_elapsed":1059184,"internal_node_id":"0.0-6.0-204.0"},{"sim_score":5,"rt":2755,"stimulus":"[\"img/0867/1719a35d-f085-48c0-9099-16c94fe418b4.jpg\",\"img/0881/566f45f8-5fed-4479-a60f-26377e60a62d.jpg\"]","trial_type":"similarity","trial_index":211,"time_elapsed":1062944,"internal_node_id":"0.0-6.0-205.0"},{"sim_score":6,"rt":3636,"stimulus":"[\"img/0901/deff6cfb-0072-4490-bc3e-206bbcd3e8bf.jpg\",\"img/0902/3f0eeac5-c996-4026-a376-563ce8f28521.jpg\"]","trial_type":"similarity","trial_index":212,"time_elapsed":1067584,"internal_node_id":"0.0-6.0-206.0"},{"sim_score":1,"rt":4081,"stimulus":"[\"img/0899/1b3457ea-87d4-4946-a01c-aac1863ed46c.jpg\",\"img/0864/9b2490c5-a282-400a-9736-e1a0ecbf1cb7.jpg\"]","trial_type":"similarity","trial_index":213,"time_elapsed":1072671,"internal_node_id":"0.0-6.0-207.0"},{"sim_score":6,"rt":2291,"stimulus":"[\"img/0901/effc03f6-8f9d-46db-a66c-16fc83891c5c.jpg\",\"img/0769/c7cfacc3-7f07-46ff-9f5d-8073f4c4679b.jpg\"]","trial_type":"similarity","trial_index":214,"time_elapsed":1075967,"internal_node_id":"0.0-6.0-208.0"},{"sim_score":6,"rt":3873,"stimulus":"[\"img/0902/04a6ad4a-afc6-4871-8225-56b299af7b6b.jpg\",\"img/0902/c9c74d2d-9b82-42d7-a9d0-3b8ff67ff81e.jpg\"]","trial_type":"similarity","trial_index":215,"time_elapsed":1085631,"internal_node_id":"0.0-6.0-209.0"},{"view_history":"[{\"page_index\":0,\"viewing_time\":6661}]","rt":6661,"trial_type":"instructions","trial_index":216,"time_elapsed":1093294,"internal_node_id":"0.0-7.0"},{"rt":11707,"responses":"{\"Q0\":\"Nashville Warbler\"}","answer":["Nashville Warbler"],"trial_type":"image-multi-choice","trial_index":217,"time_elapsed":1106032,"internal_node_id":"0.0-8.0-0.0"},{"rt":3435,"responses":"{\"Q0\":\"Black-and-white Warbler\"}","answer":["Black-and-white Warbler"],"trial_type":"image-multi-choice","trial_index":218,"time_elapsed":1110487,"internal_node_id":"0.0-8.0-1.0"},{"rt":6734,"responses":"{\"Q0\":\"Townsend's Warbler\"}","answer":["Townsend's Warbler"],"trial_type":"image-multi-choice","trial_index":219,"time_elapsed":1118239,"internal_node_id":"0.0-8.0-2.0"},{"rt":3388,"responses":"{\"Q0\":\"Lark Sparrow\"}","answer":["Lark Sparrow"],"trial_type":"image-multi-choice","trial_index":220,"time_elapsed":1122647,"internal_node_id":"0.0-8.0-3.0"},{"rt":3354,"responses":"{\"Q0\":\"Yellow Warbler\"}","answer":["Yellow Warbler"],"trial_type":"image-multi-choice","trial_index":221,"time_elapsed":1127019,"internal_node_id":"0.0-8.0-4.0"},{"rt":20895,"responses":"{\"Q0\":\"Orange-crowned Warbler\"}","answer":["Orange-crowned Warbler"],"trial_type":"image-multi-choice","trial_index":222,"time_elapsed":1148935,"internal_node_id":"0.0-8.0-5.0"},{"rt":3591,"responses":"{\"Q0\":\"White-throated Sparrow\"}","answer":["White-throated Sparrow"],"trial_type":"image-multi-choice","trial_index":223,"time_elapsed":1153551,"internal_node_id":"0.0-8.0-6.0"},{"rt":3357,"responses":"{\"Q0\":\"Fox Sparrow\"}","answer":["Fox Sparrow"],"trial_type":"image-multi-choice","trial_index":224,"time_elapsed":1157926,"internal_node_id":"0.0-8.0-7.0"},{"rt":4245,"responses":"{\"Q0\":\"Song Sparrow\"}","answer":["Song Sparrow"],"trial_type":"image-multi-choice","trial_index":225,"time_elapsed":1163190,"internal_node_id":"0.0-8.0-8.0"},{"rt":3125,"responses":"{\"Q0\":\"Blackburnian Warbler\"}","answer":["Blackburnian Warbler"],"trial_type":"image-multi-choice","trial_index":226,"time_elapsed":1167335,"internal_node_id":"0.0-8.0-9.0"},{"rt":4654,"responses":"{\"Q0\":\"Vesper Sparrow\"}","answer":["Vesper Sparrow"],"trial_type":"image-multi-choice","trial_index":227,"time_elapsed":1173006,"internal_node_id":"0.0-8.0-10.0"},{"rt":3108,"responses":"{\"Q0\":\"White-crowned Sparrow\"}","answer":["White-crowned Sparrow"],"trial_type":"image-multi-choice","trial_index":228,"time_elapsed":1177134,"internal_node_id":"0.0-8.0-11.0"},{"rt":3836,"responses":"{\"Q0\":\"American Tree Sparrow\"}","answer":["American Tree Sparrow"],"trial_type":"image-multi-choice","trial_index":229,"time_elapsed":1181990,"internal_node_id":"0.0-8.0-12.0"},{"rt":7187,"responses":"{\"Q0\":\"Tennessee Warbler\"}","answer":["Tennessee Warbler"],"trial_type":"image-multi-choice","trial_index":230,"time_elapsed":1190198,"internal_node_id":"0.0-8.0-13.0"},{"rt":3302,"responses":"{\"Q0\":\"Magnolia Warbler\"}","answer":["Magnolia Warbler"],"trial_type":"image-multi-choice","trial_index":231,"time_elapsed":1194518,"internal_node_id":"0.0-8.0-14.0"},{"rt":4188,"responses":"{\"Q0\":\"Northern Waterthrush\"}","answer":["Northern Waterthrush"],"trial_type":"image-multi-choice","trial_index":232,"time_elapsed":1199726,"internal_node_id":"0.0-8.0-15.0"},{"rt":4058,"responses":"{\"Q0\":\"Chipping Sparrow\"}","answer":["Chipping Sparrow"],"trial_type":"image-multi-choice","trial_index":233,"time_elapsed":1204806,"internal_node_id":"0.0-8.0-16.0"},{"rt":11776,"responses":"{\"Q0\":\"Swamp Sparrow\"}","answer":["Swamp Sparrow"],"trial_type":"image-multi-choice","trial_index":234,"time_elapsed":1217598,"internal_node_id":"0.0-8.0-17.0"},{"rt":3421,"responses":"{\"Q0\":\"Lincoln's Sparrow\"}","answer":["Lincoln's Sparrow"],"trial_type":"image-multi-choice","trial_index":235,"time_elapsed":1222038,"internal_node_id":"0.0-8.0-18.0"},{"rt":3452,"responses":"{\"Q0\":\"Ovenbird\"}","answer":["Ovenbird"],"trial_type":"image-multi-choice","trial_index":236,"time_elapsed":1226510,"internal_node_id":"0.0-8.0-19.0"}]