[{"view_history":"[{\"page_index\":0,\"viewing_time\":15252}]","rt":15254,"trial_type":"instructions","trial_index":0,"time_elapsed":15255,"internal_node_id":"0.0-0.0"},{"sim_score":6,"rt":7206,"stimulus":"[\"img/866.jpg\",\"img/868.jpg\"]","trial_type":"similarity_demo","trial_index":1,"time_elapsed":23477,"internal_node_id":"0.0-1.0"},{"view_history":"[{\"page_index\":0,\"viewing_time\":8633}]","rt":8634,"trial_type":"instructions","trial_index":2,"time_elapsed":33112,"internal_node_id":"0.0-2.0"},{"sim_score":3,"rt":4680,"stimulus":"[\"img/766.jpg\",\"img/867.jpg\"]","trial_type":"similarity_demo","trial_index":3,"time_elapsed":38800,"internal_node_id":"0.0-3.0"},{"view_history":"[{\"page_index\":0,\"viewing_time\":5885}]","rt":5886,"trial_type":"instructions","trial_index":4,"time_elapsed":45687,"internal_node_id":"0.0-4.0"},{"view_history":"[{\"page_index\":0,\"viewing_time\":47199}]","rt":47201,"trial_type":"instructions","trial_index":5,"time_elapsed":93888,"internal_node_id":"0.0-5.0"},{"sim_score":3,"rt":4144,"stimulus":"[\"img/0868/83b4350a-3b70-4cea-b7f5-b5b56f3050a8.jpg\",\"img/0901/c6df1a21-44ed-47c2-960e-7c52220e329e.jpg\"]","trial_type":"similarity","trial_index":6,"time_elapsed":99040,"internal_node_id":"0.0-6.0-0.0"},{"sim_score":2,"rt":4825,"stimulus":"[\"img/0769/aad494cc-674d-4a08-9bfa-24a88ebe3c79.jpg\",\"img/0867/c71dc569-f49c-4397-8381-68b8d726736d.jpg\"]","trial_type":"similarity","trial_index":7,"time_elapsed":104874,"internal_node_id":"0.0-6.0-1.0"},{"sim_score":4,"rt":2408,"stimulus":"[\"img/0766/a0270213-fa0e-4972-8b56-228c3e01ff90.jpg\",\"img/0898/4184e5a2-84ea-4f36-9b42-ae58646f6f87.jpg\"]","trial_type":"similarity","trial_index":8,"time_elapsed":108289,"internal_node_id":"0.0-6.0-2.0"},{"sim_score":2,"rt":3000,"stimulus":"[\"img/0902/2a7ac123-414a-476a-9a96-4757b924baef.jpg\",\"img/0881/5fe04dd0-5c74-47b7-99c8-b068db9ca26a.jpg\"]","trial_type":"similarity","trial_index":9,"time_elapsed":112298,"internal_node_id":"0.0-6.0-3.0"},{"sim_score":4,"rt":3744,"stimulus":"[\"img/0894/492d2f29-d7b9-4422-8be8-47fd58bfaa8b.jpg\",\"img/0894/0130a973-d993-41f8-874a-fee23d9ac11f.jpg\"]","trial_type":"similarity","trial_index":10,"time_elapsed":117047,"internal_node_id":"0.0-6.0-4.0"},{"sim_score":3,"rt":3433,"stimulus":"[\"img/0874/a3bc679d-619f-4db6-bb68-116dcb757d9c.jpg\",\"img/0899/1b3457ea-87d4-4946-a01c-aac1863ed46c.jpg\"]","trial_type":"similarity","trial_index":11,"time_elapsed":121487,"internal_node_id":"0.0-6.0-5.0"},{"sim_score":5,"rt":3723,"stimulus":"[\"img/0904/da170c1b-9651-4f08-b231-2bdd1d9a046f.jpg\",\"img/0764/da207710-e7e4-4f42-b2e6-99b5f357f433.jpg\"]","trial_type":"similarity","trial_index":12,"time_elapsed":126216,"internal_node_id":"0.0-6.0-6.0"},{"sim_score":2,"rt":4489,"stimulus":"[\"img/0899/9de5e857-aa9a-4e0c-8ba2-46d79bd069a4.jpg\",\"img/0898/01bfe666-3510-4fc7-964f-d00d28732dc8.jpg\"]","trial_type":"similarity","trial_index":13,"time_elapsed":131712,"internal_node_id":"0.0-6.0-7.0"},{"sim_score":1,"rt":3226,"stimulus":"[\"img/0874/767f289c-9814-4496-803f-745cc8913d1f.jpg\",\"img/0903/3e9ee8a5-eb66-47f5-8973-8a5af1ddc87e.jpg\"]","trial_type":"similarity","trial_index":14,"time_elapsed":135943,"internal_node_id":"0.0-6.0-8.0"},{"sim_score":5,"rt":2890,"stimulus":"[\"img/0881/48ed65a5-471f-41af-86ec-3793805c116d.jpg\",\"img/0758/6e95579b-5166-487c-b8cb-e417c6a218e3.jpg\"]","trial_type":"similarity","trial_index":15,"time_elapsed":139839,"internal_node_id":"0.0-6.0-9.0"},{"sim_score":4,"rt":2482,"stimulus":"[\"img/0898/40f99fb2-64d2-4e72-8a7f-a1cf60741e69.jpg\",\"img/0901/5b97abf9-f0c8-4fd1-b921-36d574779078.jpg\"]","trial_type":"similarity","trial_index":16,"time_elapsed":143327,"internal_node_id":"0.0-6.0-10.0"},{"sim_score":2,"rt":3314,"stimulus":"[\"img/0903/8fcafe03-43df-4c45-9da5-0df3a1eeccc5.jpg\",\"img/0769/91acb237-65a3-4d0b-9748-af5c7b83d3c7.jpg\"]","trial_type":"similarity","trial_index":17,"time_elapsed":147647,"internal_node_id":"0.0-6.0-11.0"},{"sim_score":4,"rt":2488,"stimulus":"[\"img/0764/ca957454-126a-4bd3-b29c-7174a24c25dc.jpg\",\"img/0868/3a62db2d-97e9-44a3-b8e3-a48c6f0e423b.jpg\"]","trial_type":"similarity","trial_index":18,"time_elapsed":151152,"internal_node_id":"0.0-6.0-12.0"},{"sim_score":2,"rt":2742,"stimulus":"[\"img/0867/26611f4e-d694-4460-b7e2-43c62753ddc3.jpg\",\"img/0903/0e5c2854-42aa-48c0-9c3d-6e1ad2a400bd.jpg\"]","trial_type":"similarity","trial_index":19,"time_elapsed":154921,"internal_node_id":"0.0-6.0-13.0"},{"sim_score":4,"rt":3268,"stimulus":"[\"img/0766/535849cc-ff5d-4df9-8f31-0ce94a97d571.jpg\",\"img/0758/ddc336e9-a8b6-4bb9-937a-c7e25e0e9250.jpg\"]","trial_type":"similarity","trial_index":20,"time_elapsed":159203,"internal_node_id":"0.0-6.0-14.0"},{"sim_score":3,"rt":3625,"stimulus":"[\"img/0902/7f1dcd35-237a-4995-9e42-7f63f3f434d4.jpg\",\"img/0860/524b2e98-5767-4d53-942c-ebae6925659b.jpg\"]","trial_type":"similarity","trial_index":21,"time_elapsed":163840,"internal_node_id":"0.0-6.0-15.0"},{"sim_score":2,"rt":3537,"stimulus":"[\"img/0769/76eaa4a3-dfe9-4dc1-9efb-caebe86264e1.jpg\",\"img/0875/42910c99-5463-450a-a0f8-d4d060a11455.jpg\"]","trial_type":"similarity","trial_index":22,"time_elapsed":168385,"internal_node_id":"0.0-6.0-16.0"},{"sim_score":2,"rt":2983,"stimulus":"[\"img/0904/73920552-103b-4c9c-9ece-e0b8376b4504.jpg\",\"img/0866/93a27239-8317-4e08-98ca-d8b1ff298e07.jpg\"]","trial_type":"similarity","trial_index":23,"time_elapsed":172375,"internal_node_id":"0.0-6.0-17.0"},{"sim_score":5,"rt":3104,"stimulus":"[\"img/0875/527ced51-8e53-4aab-ab05-86df219104c0.jpg\",\"img/0875/e7e66b13-b573-431e-b85e-288ce04a35a3.jpg\"]","trial_type":"similarity","trial_index":24,"time_elapsed":176488,"internal_node_id":"0.0-6.0-18.0"},{"sim_score":5,"rt":3560,"stimulus":"[\"img/0758/9fb5b2fe-3f00-4fe6-973c-1ce10d5f4cd5.jpg\",\"img/0758/f61ecdf8-a7d4-4db0-b84d-be46f7cfaffc.jpg\"]","trial_type":"similarity","trial_index":25,"time_elapsed":181057,"internal_node_id":"0.0-6.0-19.0"},{"sim_score":3,"rt":3591,"stimulus":"[\"img/0902/95a36b6b-9601-4fa5-8fd9-606ea62f9425.jpg\",\"img/0874/29830da7-be5f-44e5-b141-652a0ccf7269.jpg\"]","trial_type":"similarity","trial_index":26,"time_elapsed":185657,"internal_node_id":"0.0-6.0-20.0"},{"sim_score":7,"rt":3519,"stimulus":"[\"img/0764/50f1b062-d608-4bc0-ab25-b872dcf2ed93.jpg\",\"img/0769/75f7e514-0548-4329-b1e4-93c05e74f038.jpg\"]","trial_type":"similarity","trial_index":27,"time_elapsed":190184,"internal_node_id":"0.0-6.0-21.0"},{"sim_score":1,"rt":5253,"stimulus":"[\"img/0901/bc47e078-bda4-40ed-b89a-bbd819164b95.jpg\",\"img/0874/85eb9b8a-c4c6-4e5a-b8e7-363a87a82054.jpg\"]","trial_type":"similarity","trial_index":28,"time_elapsed":196446,"internal_node_id":"0.0-6.0-22.0"},{"sim_score":1,"rt":4114,"stimulus":"[\"img/0875/5a7c4e35-6514-4e12-8879-d16071da4cd6.jpg\",\"img/0903/4cbdc464-e562-4ec2-9bb6-15f894fdf528.jpg\"]","trial_type":"similarity","trial_index":29,"time_elapsed":201566,"internal_node_id":"0.0-6.0-23.0"},{"sim_score":2,"rt":3682,"stimulus":"[\"img/0769/878531fd-e0e8-4ad1-b9ad-f018bb104ca0.jpg\",\"img/0881/f4e3e181-b3c9-4af2-a5a4-fc135ab70d2e.jpg\"]","trial_type":"similarity","trial_index":30,"time_elapsed":206258,"internal_node_id":"0.0-6.0-24.0"},{"sim_score":2,"rt":3006,"stimulus":"[\"img/0867/1719a35d-f085-48c0-9099-16c94fe418b4.jpg\",\"img/0904/09934646-45d2-4147-8fec-64a22a5ac822.jpg\"]","trial_type":"similarity","trial_index":31,"time_elapsed":210272,"internal_node_id":"0.0-6.0-25.0"},{"sim_score":3,"rt":4705,"stimulus":"[\"img/0860/4f695df5-afac-4da7-9875-fee39b0b24ad.jpg\",\"img/0881/566f45f8-5fed-4479-a60f-26377e60a62d.jpg\"]","trial_type":"similarity","trial_index":32,"time_elapsed":215983,"internal_node_id":"0.0-6.0-26.0"},{"sim_score":4,"rt":3370,"stimulus":"[\"img/0866/07c9c966-3c8d-40e7-8128-92b2acbaed5d.jpg\",\"img/0866/386235d2-6857-41e7-88a8-25cfc3430025.jpg\"]","trial_type":"similarity","trial_index":33,"time_elapsed":220358,"internal_node_id":"0.0-6.0-27.0"},{"sim_score":1,"rt":3545,"stimulus":"[\"img/0764/c01e2d65-6586-441b-bef5-3c96fcd85380.jpg\",\"img/0862/24cdc752-c2e5-4a17-86a6-6f2045d8553b.jpg\"]","trial_type":"similarity","trial_index":34,"time_elapsed":224913,"internal_node_id":"0.0-6.0-28.0"},{"sim_score":2,"rt":4040,"stimulus":"[\"img/0904/1d10df11-b5c8-4370-9a6b-097a7f965895.jpg\",\"img/0758/7ffbc76b-1fc1-432c-8f7e-9ec8d1b3f643.jpg\"]","trial_type":"similarity","trial_index":35,"time_elapsed":229957,"internal_node_id":"0.0-6.0-29.0"},{"sim_score":4,"rt":2291,"stimulus":"[\"img/0894/5f15154e-e72e-4ce5-aafb-bce6f0564006.jpg\",\"img/0899/d60714ae-98d7-4564-8c98-94dba1351135.jpg\"]","trial_type":"similarity","trial_index":36,"time_elapsed":233256,"internal_node_id":"0.0-6.0-30.0"},{"sim_score":4,"rt":3361,"stimulus":"[\"img/0860/17b44a7d-c5ca-479f-9e87-f65a64f5c80e.jpg\",\"img/0904/b5855d6a-7ef9-46ca-9215-6e9fa046e543.jpg\"]","trial_type":"similarity","trial_index":37,"time_elapsed":237623,"internal_node_id":"0.0-6.0-31.0"},{"sim_score":5,"rt":3678,"stimulus":"[\"img/0874/8cdb1c07-1c32-46d2-981c-3636560fa6e5.jpg\",\"img/0881/f037e3b0-09cb-4a83-b2d9-6a71fe474e63.jpg\"]","trial_type":"similarity","trial_index":38,"time_elapsed":242320,"internal_node_id":"0.0-6.0-32.0"},{"sim_score":1,"rt":3504,"stimulus":"[\"img/0881/ee44e27f-d662-4608-b265-e7ffa19b216f.jpg\",\"img/0899/565ccdd9-0933-4536-a625-3c0e25a713dd.jpg\"]","trial_type":"similarity","trial_index":39,"time_elapsed":246841,"internal_node_id":"0.0-6.0-33.0"},{"sim_score":1,"rt":4179,"stimulus":"[\"img/0866/4a87911a-d5be-4d4e-ab8e-3d1f581bf507.jpg\",\"img/0862/5d887e9f-89e2-4ebc-80a0-6d46fe6480db.jpg\"]","trial_type":"similarity","trial_index":40,"time_elapsed":252038,"internal_node_id":"0.0-6.0-34.0"},{"sim_score":1,"rt":4512,"stimulus":"[\"img/0868/179a5502-ab5c-478e-8263-5a1fbcc101d2.jpg\",\"img/0894/c505c65a-cde2-4f2c-8cde-f8676f7c894d.jpg\"]","trial_type":"similarity","trial_index":41,"time_elapsed":257560,"internal_node_id":"0.0-6.0-35.0"},{"sim_score":7,"rt":5023,"stimulus":"[\"img/0860/87039971-2210-4aab-93c0-8e9b5f1655b2.jpg\",\"img/0860/c3379ff7-0763-48fe-a1ec-7ea3d611bc7a.jpg\"]","trial_type":"similarity","trial_index":42,"time_elapsed":263592,"internal_node_id":"0.0-6.0-36.0"},{"sim_score":5,"rt":4807,"stimulus":"[\"img/0862/a0a3a7ba-7798-46a3-b4ca-05e1f6e581d0.jpg\",\"img/0864/5f74a653-3bdc-4308-8cca-ac667dc22e1f.jpg\"]","trial_type":"similarity","trial_index":43,"time_elapsed":269407,"internal_node_id":"0.0-6.0-37.0"},{"sim_score":1,"rt":3481,"stimulus":"[\"img/0766/ae0fce93-fe8d-4aa1-87ca-4c3e4b889f2f.jpg\",\"img/0866/bf14b5bd-fb55-47db-86b9-4f8aeb9a6dad.jpg\"]","trial_type":"similarity","trial_index":44,"time_elapsed":273897,"internal_node_id":"0.0-6.0-38.0"},{"sim_score":5,"rt":4980,"stimulus":"[\"img/0875/2e13d160-eea1-416b-aff1-d37ab99ecc1d.jpg\",\"img/0898/a114b375-cb89-44ba-9498-74213f1ecdee.jpg\"]","trial_type":"similarity","trial_index":45,"time_elapsed":279886,"internal_node_id":"0.0-6.0-39.0"},{"sim_score":5,"rt":4114,"stimulus":"[\"img/0766/dd3e18d0-0c98-4d05-b850-69976ee8cd75.jpg\",\"img/0769/1ca58b80-2365-446d-9616-6c1719e6c46f.jpg\"]","trial_type":"similarity","trial_index":46,"time_elapsed":285006,"internal_node_id":"0.0-6.0-40.0"},{"sim_score":2,"rt":3785,"stimulus":"[\"img/0874/adf9a8f1-c40b-402b-b95b-1e85a54a7b62.jpg\",\"img/0764/17b088f8-3053-4140-b544-d15654cc79ef.jpg\"]","trial_type":"similarity","trial_index":47,"time_elapsed":303932,"internal_node_id":"0.0-6.0-41.0"},{"sim_score":1,"rt":4432,"stimulus":"[\"img/0868/0d3abd3a-b6c3-4584-a9f7-e2da63748b3d.jpg\",\"img/0902/eb3e7e71-8ff1-4b88-a6a7-47e2c1ce1683.jpg\"]","trial_type":"similarity","trial_index":48,"time_elapsed":309374,"internal_node_id":"0.0-6.0-42.0"},{"sim_score":2,"rt":4657,"stimulus":"[\"img/0875/f87b67d7-c33e-40d1-b281-248c4be1cb6e.jpg\",\"img/0899/0e1d936a-dbe2-4afc-9f19-7b7a1ae6c9ed.jpg\"]","trial_type":"similarity","trial_index":49,"time_elapsed":315038,"internal_node_id":"0.0-6.0-43.0"},{"sim_score":5,"rt":3826,"stimulus":"[\"img/0866/a15b02be-11bb-43e3-b0e0-ecc3bd7dfc49.jpg\",\"img/0860/61fb959d-d4d9-4de4-9e4e-4fa62b4cfcd5.jpg\"]","trial_type":"similarity","trial_index":50,"time_elapsed":319869,"internal_node_id":"0.0-6.0-44.0"},{"sim_score":5,"rt":4521,"stimulus":"[\"img/0766/ba35c0fc-4d5b-490d-959e-c94b279cdd02.jpg\",\"img/0903/24477210-856c-4550-9de0-9f85a32762eb.jpg\"]","trial_type":"similarity","trial_index":51,"time_elapsed":325399,"internal_node_id":"0.0-6.0-45.0"},{"sim_score":4,"rt":3552,"stimulus":"[\"img/0901/2a953e50-d237-405c-a38d-5ed21494c968.jpg\",\"img/0904/4d7d70a3-9477-4921-bda0-f9531d0a5c5b.jpg\"]","trial_type":"similarity","trial_index":52,"time_elapsed":329956,"internal_node_id":"0.0-6.0-46.0"},{"sim_score":3,"rt":3568,"stimulus":"[\"img/0758/2fa3e613-e676-4e6e-bd12-705327eeb3e1.jpg\",\"img/0902/b03129ba-b087-4558-af37-e8399d6217d6.jpg\"]","trial_type":"similarity","trial_index":53,"time_elapsed":334533,"internal_node_id":"0.0-6.0-47.0"},{"sim_score":7,"rt":3568,"stimulus":"[\"img/0764/f9f890e6-3c2f-40cd-84e9-85e0b54cb28e.jpg\",\"img/0764/bc3865c9-9004-4582-88a7-048478673f97.jpg\"]","trial_type":"similarity","trial_index":54,"time_elapsed":339119,"internal_node_id":"0.0-6.0-48.0"},{"sim_score":3,"rt":3246,"stimulus":"[\"img/0866/02f5e6b9-52b7-448c-9708-5b460d0c9a23.jpg\",\"img/0902/d3e55000-c839-4bf9-9b9b-4af0a9925af1.jpg\"]","trial_type":"similarity","trial_index":55,"time_elapsed":343376,"internal_node_id":"0.0-6.0-49.0"},{"sim_score":6,"rt":5272,"stimulus":"[\"img/0764/c80b3e06-2ee3-4326-9678-340607eb5348.jpg\",\"img/0758/d540bee6-b460-4c32-ac57-bc282742d7d4.jpg\"]","trial_type":"similarity","trial_index":56,"time_elapsed":349662,"internal_node_id":"0.0-6.0-50.0"},{"sim_score":5,"rt":3680,"stimulus":"[\"img/0898/04e39a7a-fcf6-4156-ab0e-f5871f335e1c.jpg\",\"img/0894/1b3888e6-cf36-4c4a-a039-187aa5cb71ac.jpg\"]","trial_type":"similarity","trial_index":57,"time_elapsed":354351,"internal_node_id":"0.0-6.0-51.0"},{"sim_score":5,"rt":3975,"stimulus":"[\"img/0875/a4935837-7d3c-4df6-88c1-36a94d4991ca.jpg\",\"img/0866/c446214b-a368-4c65-ae39-ea46894256ab.jpg\"]","trial_type":"similarity","trial_index":58,"time_elapsed":359335,"internal_node_id":"0.0-6.0-52.0"},{"sim_score":3,"rt":4400,"stimulus":"[\"img/0904/25365108-e038-4021-aac9-797f2063b337.jpg\",\"img/0904/a8c3c7d2-9bcf-4347-9e03-8203adfc1fc5.jpg\"]","trial_type":"similarity","trial_index":59,"time_elapsed":364743,"internal_node_id":"0.0-6.0-53.0"},{"sim_score":6,"rt":4136,"stimulus":"[\"img/0769/4a1d0b52-3fe8-40fb-bb1c-c814fe49a68c.jpg\",\"img/0769/965c3c44-d9e5-47c5-b61a-2bbdf4215d9a.jpg\"]","trial_type":"similarity","trial_index":60,"time_elapsed":369887,"internal_node_id":"0.0-6.0-54.0"},{"sim_score":2,"rt":4031,"stimulus":"[\"img/0898/0af304a2-6a7a-4082-ab7c-4450cd08cc58.jpg\",\"img/0758/e38fd80d-18d0-42f3-b848-f930788e8bd7.jpg\"]","trial_type":"similarity","trial_index":61,"time_elapsed":374926,"internal_node_id":"0.0-6.0-55.0"},{"sim_score":6,"rt":3536,"stimulus":"[\"img/0769/ecda2fb3-556b-43ba-8a67-e87dd75ff2b4.jpg\",\"img/0902/af45fe42-178c-4c1a-99ef-256e87e3b092.jpg\"]","trial_type":"similarity","trial_index":62,"time_elapsed":379469,"internal_node_id":"0.0-6.0-56.0"},{"sim_score":6,"rt":3313,"stimulus":"[\"img/0864/a248adb3-c70b-4652-b7a3-776d2a1e904b.jpg\",\"img/0881/44e09805-5a25-4f17-a716-4ad4a331b174.jpg\"]","trial_type":"similarity","trial_index":63,"time_elapsed":383789,"internal_node_id":"0.0-6.0-57.0"},{"sim_score":5,"rt":3824,"stimulus":"[\"img/0758/6cd8c362-ae2a-41eb-80a3-3a4f7ace1530.jpg\",\"img/0868/8b0b8473-e2c0-4331-aa56-c3a5c29369da.jpg\"]","trial_type":"similarity","trial_index":64,"time_elapsed":388653,"internal_node_id":"0.0-6.0-58.0"},{"sim_score":3,"rt":4024,"stimulus":"[\"img/0862/99a99e39-8355-44ec-b993-e7bcec111e1c.jpg\",\"img/0769/35364db7-e0d5-40ef-93dc-faf9dfb95136.jpg\"]","trial_type":"similarity","trial_index":65,"time_elapsed":393685,"internal_node_id":"0.0-6.0-59.0"},{"sim_score":5,"rt":4440,"stimulus":"[\"img/0764/5d83b9db-3b2b-4dc8-9bd1-2b515b19c858.jpg\",\"img/0903/81368973-de81-46f4-844f-b901f3bfd66d.jpg\"]","trial_type":"similarity","trial_index":66,"time_elapsed":399132,"internal_node_id":"0.0-6.0-60.0"},{"sim_score":5,"rt":5353,"stimulus":"[\"img/0899/a048912c-b12c-40e3-90af-46b69b0cc4fe.jpg\",\"img/0899/b45c550b-96c3-4255-ad59-48a2b4db1c1e.jpg\"]","trial_type":"similarity","trial_index":67,"time_elapsed":405492,"internal_node_id":"0.0-6.0-61.0"},{"sim_score":5,"rt":6625,"stimulus":"[\"img/0860/4a022222-056d-461c-ab02-39fac9647552.jpg\",\"img/0875/99698b4d-b4a1-44bc-8c83-8ea755bbbf61.jpg\"]","trial_type":"similarity","trial_index":68,"time_elapsed":413123,"internal_node_id":"0.0-6.0-62.0"},{"sim_score":5,"rt":4043,"stimulus":"[\"img/0868/d98ca254-b195-477f-b57e-5760a2717db8.jpg\",\"img/0874/7e4f2150-3b59-4a36-b5da-a4e0ba410531.jpg\"]","trial_type":"similarity","trial_index":69,"time_elapsed":418172,"internal_node_id":"0.0-6.0-63.0"},{"sim_score":4,"rt":3449,"stimulus":"[\"img/0758/dd559618-7f09-4a07-8018-d311c4a5ea29.jpg\",\"img/0862/d0ca4c78-fc35-46ed-bdcc-8e124283c53e.jpg\"]","trial_type":"similarity","trial_index":70,"time_elapsed":422630,"internal_node_id":"0.0-6.0-64.0"},{"sim_score":6,"rt":4109,"stimulus":"[\"img/0904/5aec2708-cf14-4a58-aa30-9a8a61c1be0e.jpg\",\"img/0898/c3cecf20-f7fd-45fa-97d0-dc0a63e8d6c0.jpg\"]","trial_type":"similarity","trial_index":71,"time_elapsed":427749,"internal_node_id":"0.0-6.0-65.0"},{"sim_score":5,"rt":3687,"stimulus":"[\"img/0881/f7a8cc63-8842-40a4-9ff8-fe530310d62c.jpg\",\"img/0866/9b38d691-1802-4959-ab3f-fc902f0e4ea6.jpg\"]","trial_type":"similarity","trial_index":72,"time_elapsed":432453,"internal_node_id":"0.0-6.0-66.0"},{"sim_score":2,"rt":3876,"stimulus":"[\"img/0867/a498eef3-9fa4-4ab2-9778-4ae82ac40dc5.jpg\",\"img/0898/82231d4c-218b-4d0a-b50d-35a49b524e97.jpg\"]","trial_type":"similarity","trial_index":73,"time_elapsed":437342,"internal_node_id":"0.0-6.0-67.0"},{"sim_score":4,"rt":5189,"stimulus":"[\"img/0902/168ebd47-9e82-4ab7-a18b-c3da85072db8.jpg\",\"img/0764/6ef77040-1fae-4afa-bfe7-eda98e6d0376.jpg\"]","trial_type":"similarity","trial_index":74,"time_elapsed":443539,"internal_node_id":"0.0-6.0-68.0"},{"sim_score":6,"rt":4538,"stimulus":"[\"img/0875/d59ff733-eaff-4ee2-9443-06954dd0bcb6.jpg\",\"img/0867/c66898ba-b71b-4d50-84f9-f7f84853a98d.jpg\"]","trial_type":"similarity","trial_index":75,"time_elapsed":449085,"internal_node_id":"0.0-6.0-69.0"},{"sim_score":7,"rt":4559,"stimulus":"[\"img/0766/09f646c8-a69e-4ed3-879c-8d29b04ad7f9.jpg\",\"img/0764/21e3292f-01ad-4238-828b-61b817857d16.jpg\"]","trial_type":"similarity","trial_index":76,"time_elapsed":454653,"internal_node_id":"0.0-6.0-70.0"},{"sim_score":3,"rt":4967,"stimulus":"[\"img/0894/e2446cf5-cd48-486a-badc-76498e087fbe.jpg\",\"img/0867/a749dddb-69f0-44a6-acdc-2bf295cf6dcc.jpg\"]","trial_type":"similarity","trial_index":77,"time_elapsed":460627,"internal_node_id":"0.0-6.0-71.0"},{"sim_score":1,"rt":3657,"stimulus":"[\"img/0875/2c361b79-c3d1-4eda-812e-bf03192407bf.jpg\",\"img/0764/06ea144f-f4f3-4a14-ba47-f20f35c561e0.jpg\"]","trial_type":"similarity","trial_index":78,"time_elapsed":465291,"internal_node_id":"0.0-6.0-72.0"},{"sim_score":7,"rt":5130,"stimulus":"[\"img/0867/aa05d113-fc19-4756-a8eb-7878f580bc92.jpg\",\"img/0866/6f2a90d7-14f1-4f1b-bd64-fc0af6b9fe44.jpg\"]","trial_type":"similarity","trial_index":79,"time_elapsed":471426,"internal_node_id":"0.0-6.0-73.0"},{"sim_score":2,"rt":3097,"stimulus":"[\"img/0903/5ea5bbe0-f238-4724-abe7-9ed8dee8c0ba.jpg\",\"img/0758/821c68d3-5cb0-4eae-8659-30e6263fca39.jpg\"]","trial_type":"similarity","trial_index":80,"time_elapsed":475531,"internal_node_id":"0.0-6.0-74.0"},{"sim_score":2,"rt":3665,"stimulus":"[\"img/0766/33aa9ebb-c9f5-418f-8c8b-c77861889568.jpg\",\"img/0868/6a28c3b0-3d76-498a-9fb7-ddafc665eca8.jpg\"]","trial_type":"similarity","trial_index":81,"time_elapsed":480203,"internal_node_id":"0.0-6.0-75.0"},{"sim_score":2,"rt":4056,"stimulus":"[\"img/0874/93d1f8dc-acf2-4f03-bd8d-8ec35df276ed.jpg\",\"img/0766/d3bab2fc-ddcc-40a0-bb72-c0d0ebe19978.jpg\"]","trial_type":"similarity","trial_index":82,"time_elapsed":485269,"internal_node_id":"0.0-6.0-76.0"},{"sim_score":5,"rt":3551,"stimulus":"[\"img/0881/db77fe00-aeb0-4d1d-aa66-f3a96fd077e4.jpg\",\"img/0868/fd307a36-9a3a-47d7-ab7c-f810d0b35040.jpg\"]","trial_type":"similarity","trial_index":83,"time_elapsed":489826,"internal_node_id":"0.0-6.0-77.0"},{"sim_score":2,"rt":3906,"stimulus":"[\"img/0758/67c0be2f-9e91-48b3-8219-70ac0a1802fa.jpg\",\"img/0901/4f9cffe0-c0be-4d7f-bacd-9d51efd19b4a.jpg\"]","trial_type":"similarity","trial_index":84,"time_elapsed":494739,"internal_node_id":"0.0-6.0-78.0"},{"sim_score":3,"rt":3543,"stimulus":"[\"img/0881/19e82c47-8e4b-45d2-a6c8-74181eb4155e.jpg\",\"img/0898/a8f16b02-e19f-423b-86c3-a36562ae1f9b.jpg\"]","trial_type":"similarity","trial_index":85,"time_elapsed":499291,"internal_node_id":"0.0-6.0-79.0"},{"sim_score":4,"rt":3442,"stimulus":"[\"img/0867/7d1c497b-c1b3-4ed8-abb5-d7f73306015f.jpg\",\"img/0758/335851a0-a55b-46d8-ab05-8463eda48349.jpg\"]","trial_type":"similarity","trial_index":86,"time_elapsed":503741,"internal_node_id":"0.0-6.0-80.0"},{"sim_score":5,"rt":5568,"stimulus":"[\"img/0769/47700831-0ca2-4fdd-a498-a3bc5a528f43.jpg\",\"img/0899/fef567a2-c121-4481-9af0-ff108d199bbf.jpg\"]","trial_type":"similarity","trial_index":87,"time_elapsed":510314,"internal_node_id":"0.0-6.0-81.0"},{"sim_score":7,"rt":4506,"stimulus":"[\"img/0903/72197c2b-403e-4a26-b391-f1aa8dea4b76.jpg\",\"img/0903/680ed18e-b311-4ecf-9b00-7dea32128334.jpg\"]","trial_type":"similarity","trial_index":88,"time_elapsed":515826,"internal_node_id":"0.0-6.0-82.0"},{"sim_score":2,"rt":3452,"stimulus":"[\"img/0867/f26f6b60-f772-4f4c-95a4-addc62cfd692.jpg\",\"img/0766/79767d11-b612-4e8a-9e4b-a8ac95bb6a54.jpg\"]","trial_type":"similarity","trial_index":89,"time_elapsed":528900,"internal_node_id":"0.0-6.0-83.0"},{"sim_score":3,"rt":3707,"stimulus":"[\"img/0902/3b243e54-0803-4c29-af42-4037c2118495.jpg\",\"img/0867/ac1797e4-8afc-48fe-b252-86d1defb1cca.jpg\"]","trial_type":"similarity","trial_index":90,"time_elapsed":533619,"internal_node_id":"0.0-6.0-84.0"},{"sim_score":3,"rt":3910,"stimulus":"[\"img/0901/f1116359-1ff1-4638-b3b3-700918d36d18.jpg\",\"img/0875/cff79b3a-a797-4393-9757-6275f999ec04.jpg\"]","trial_type":"similarity","trial_index":91,"time_elapsed":538540,"internal_node_id":"0.0-6.0-85.0"},{"sim_score":2,"rt":2927,"stimulus":"[\"img/0764/f64dfa83-333d-494c-87b5-73e942f1766e.jpg\",\"img/0866/0207e9a2-7dbb-40b5-9459-b472aaeceb2a.jpg\"]","trial_type":"similarity","trial_index":92,"time_elapsed":542476,"internal_node_id":"0.0-6.0-86.0"},{"sim_score":6,"rt":3255,"stimulus":"[\"img/0901/da4fe30f-d12a-491e-96a2-5ab8ebaadd09.jpg\",\"img/0894/10f22b96-040c-44f4-950b-a4963f3f506c.jpg\"]","trial_type":"similarity","trial_index":93,"time_elapsed":546741,"internal_node_id":"0.0-6.0-87.0"},{"sim_score":5,"rt":3359,"stimulus":"[\"img/0898/cd3aaa3f-efa9-4ab3-8d6f-a6a9273ddf42.jpg\",\"img/0769/a1ce8d07-ba37-40de-bade-2778805521e0.jpg\"]","trial_type":"similarity","trial_index":94,"time_elapsed":551106,"internal_node_id":"0.0-6.0-88.0"},{"sim_score":6,"rt":4768,"stimulus":"[\"img/0769/48a1144d-fbda-4809-991b-fc8424a32ee4.jpg\",\"img/0894/bd34223a-2f66-4e16-9d18-193a746b69ff.jpg\"]","trial_type":"similarity","trial_index":95,"time_elapsed":556883,"internal_node_id":"0.0-6.0-89.0"},{"sim_score":7,"rt":4591,"stimulus":"[\"img/0862/1c20f772-3a51-4a80-aac0-f57dc9f86c28.jpg\",\"img/0874/3f471690-9788-4d03-90c7-f615aecef149.jpg\"]","trial_type":"similarity","trial_index":96,"time_elapsed":562483,"internal_node_id":"0.0-6.0-90.0"},{"sim_score":6,"rt":3654,"stimulus":"[\"img/0894/e6385e52-6c35-43bd-b0af-bc803d107b11.jpg\",\"img/0766/60033a74-9919-47e5-913c-71d0d483e7e5.jpg\"]","trial_type":"similarity","trial_index":97,"time_elapsed":567149,"internal_node_id":"0.0-6.0-91.0"},{"sim_score":4,"rt":3637,"stimulus":"[\"img/0874/3ce41e7c-40c8-4d58-a546-171114521796.jpg\",\"img/0867/cc72ed48-7704-422c-86d6-467a1145287a.jpg\"]","trial_type":"similarity","trial_index":98,"time_elapsed":571794,"internal_node_id":"0.0-6.0-92.0"},{"sim_score":2,"rt":4958,"stimulus":"[\"img/0899/25ae6ec8-9565-49fe-a8bb-8d0666f52716.jpg\",\"img/0868/7b212364-ff5f-4e28-9241-7eb6ea00161b.jpg\"]","trial_type":"similarity","trial_index":99,"time_elapsed":577763,"internal_node_id":"0.0-6.0-93.0"},{"sim_score":6,"rt":4655,"stimulus":"[\"img/0903/5248eedd-7e6a-4d39-91b0-06ec227f3ed0.jpg\",\"img/0862/53a9cf7c-93c4-41b9-952f-07d17f7a17b2.jpg\"]","trial_type":"similarity","trial_index":100,"time_elapsed":583425,"internal_node_id":"0.0-6.0-94.0"},{"sim_score":6,"rt":5665,"stimulus":"[\"img/0899/93494f3b-d539-4075-b027-d82e344563da.jpg\",\"img/0766/214866ee-423d-4629-9bb9-41572bdc7dac.jpg\"]","trial_type":"similarity","trial_index":101,"time_elapsed":590097,"internal_node_id":"0.0-6.0-95.0"},{"sim_score":6,"rt":5547,"stimulus":"[\"img/0867/5e07b34d-b40f-4b1c-ac10-49975bace45f.jpg\",\"img/0868/09a9ef4d-d000-4cfa-a6aa-ebec7c2edeb4.jpg\"]","trial_type":"similarity","trial_index":102,"time_elapsed":596649,"internal_node_id":"0.0-6.0-96.0"},{"sim_score":6,"rt":4611,"stimulus":"[\"img/0862/ee3b7bff-4a70-4e84-9bea-4a565e456acb.jpg\",\"img/0901/00acf6c1-b66e-4060-bb04-4caf29b5a8b0.jpg\"]","trial_type":"similarity","trial_index":103,"time_elapsed":602266,"internal_node_id":"0.0-6.0-97.0"},{"sim_score":2,"rt":3250,"stimulus":"[\"img/0875/8521fd58-3b1e-4dc5-97ae-804edfa6734a.jpg\",\"img/0766/c23b5a20-e50f-4d85-841f-cf89212a4348.jpg\"]","trial_type":"similarity","trial_index":104,"time_elapsed":606522,"internal_node_id":"0.0-6.0-98.0"},{"sim_score":6,"rt":5986,"stimulus":"[\"img/0758/61d64021-9214-4951-bdf8-f871f9827cf9.jpg\",\"img/0874/99f6563c-8a8d-4c1c-a41d-667b618c3fd5.jpg\"]","trial_type":"similarity","trial_index":105,"time_elapsed":613516,"internal_node_id":"0.0-6.0-99.0"},{"sim_score":3,"rt":4469,"stimulus":"[\"img/0904/e9423a8c-f946-43ad-ab7b-931acef870e2.jpg\",\"img/0868/77091fc7-a590-4ebb-b915-fdb2483a2399.jpg\"]","trial_type":"similarity","trial_index":106,"time_elapsed":618995,"internal_node_id":"0.0-6.0-100.0"},{"sim_score":2,"rt":4164,"stimulus":"[\"img/0903/a0673b55-6040-47fe-9040-24bca27ca3c9.jpg\",\"img/0866/8efcaa46-83ab-4dee-a35f-850402aa21ae.jpg\"]","trial_type":"similarity","trial_index":107,"time_elapsed":624172,"internal_node_id":"0.0-6.0-101.0"},{"sim_score":3,"rt":4478,"stimulus":"[\"img/0868/c8ac40c7-6904-4e13-8d61-c75d3052dc4e.jpg\",\"img/0769/35f2dd39-40aa-498e-b401-9f1ef2622d00.jpg\"]","trial_type":"similarity","trial_index":108,"time_elapsed":629659,"internal_node_id":"0.0-6.0-102.0"},{"sim_score":5,"rt":3117,"stimulus":"[\"img/0902/c018bd7a-d91a-4192-aea4-7259cfcdb6c4.jpg\",\"img/0899/51a7a498-98c7-42d7-bca8-bc2d8f0b5831.jpg\"]","trial_type":"similarity","trial_index":109,"time_elapsed":633785,"internal_node_id":"0.0-6.0-103.0"},{"sim_score":5,"rt":4266,"stimulus":"[\"img/0868/4bd5105a-d2c3-4f82-8c80-57196106ba53.jpg\",\"img/0862/cdaed51d-9e2f-4807-801a-4663c40077e2.jpg\"]","trial_type":"similarity","trial_index":110,"time_elapsed":639059,"internal_node_id":"0.0-6.0-104.0"},{"sim_score":6,"rt":4688,"stimulus":"[\"img/0903/c3cb4a01-2797-43ca-b216-88c67b323fbb.jpg\",\"img/0894/9b1333fd-3561-43bf-aee5-99b7b7ca3dc3.jpg\"]","trial_type":"similarity","trial_index":111,"time_elapsed":644754,"internal_node_id":"0.0-6.0-105.0"},{"sim_score":7,"rt":4000,"stimulus":"[\"img/0864/afcba0a3-7e27-4757-b254-e9f05fad27e2.jpg\",\"img/0874/1016b306-087c-4afc-aa08-fa527b28dc76.jpg\"]","trial_type":"similarity","trial_index":112,"time_elapsed":649761,"internal_node_id":"0.0-6.0-106.0"},{"sim_score":1,"rt":4225,"stimulus":"[\"img/0862/92f0146c-20c4-482e-aef5-adb693790338.jpg\",\"img/0902/794606a0-d8a8-4e58-8bf8-9d114ed5a548.jpg\"]","trial_type":"similarity","trial_index":113,"time_elapsed":654993,"internal_node_id":"0.0-6.0-107.0"},{"sim_score":6,"rt":3449,"stimulus":"[\"img/0904/5cceabc9-de1d-4c67-989b-c28a4ef77e79.jpg\",\"img/0903/e2e55a9e-0397-4dc0-8adf-4a54cfefe1fe.jpg\"]","trial_type":"similarity","trial_index":114,"time_elapsed":659452,"internal_node_id":"0.0-6.0-108.0"},{"sim_score":2,"rt":3917,"stimulus":"[\"img/0764/e48e6c6f-9e28-420f-836a-8043b2319bb4.jpg\",\"img/0864/e336a4c5-6648-4fd7-b2f6-93a3fb83f8c6.jpg\"]","trial_type":"similarity","trial_index":115,"time_elapsed":664376,"internal_node_id":"0.0-6.0-109.0"},{"sim_score":2,"rt":3730,"stimulus":"[\"img/0866/f756f7d1-9ad8-4a34-9ef6-7a443d705bfe.jpg\",\"img/0894/6b2e9509-8699-42b7-9582-7741df0ba2d7.jpg\"]","trial_type":"similarity","trial_index":116,"time_elapsed":669115,"internal_node_id":"0.0-6.0-110.0"},{"sim_score":6,"rt":3871,"stimulus":"[\"img/0899/66ab3178-c3fe-4455-ad17-d5952b08e018.jpg\",\"img/0903/0fb24af7-9a26-4e9d-aadc-959a36f683e2.jpg\"]","trial_type":"similarity","trial_index":117,"time_elapsed":673992,"internal_node_id":"0.0-6.0-111.0"},{"sim_score":6,"rt":4282,"stimulus":"[\"img/0902/0db94c50-f1fb-4091-953c-29ca0466bee2.jpg\",\"img/0904/fe746a3f-8458-48d0-8a13-8cba2a9df9f8.jpg\"]","trial_type":"similarity","trial_index":118,"time_elapsed":679281,"internal_node_id":"0.0-6.0-112.0"},{"sim_score":5,"rt":4720,"stimulus":"[\"img/0864/3651d070-2fc5-4848-b6a6-088a2d9ac5c9.jpg\",\"img/0860/4c530c3c-6aab-492a-94d1-9c01797bde40.jpg\"]","trial_type":"similarity","trial_index":119,"time_elapsed":685009,"internal_node_id":"0.0-6.0-113.0"},{"sim_score":2,"rt":3954,"stimulus":"[\"img/0860/15b24a61-25be-4356-9eac-5ce95d0cb4a4.jpg\",\"img/0899/4408c14d-c168-4a7d-96f6-bc87bfb58f83.jpg\"]","trial_type":"similarity","trial_index":120,"time_elapsed":689969,"internal_node_id":"0.0-6.0-114.0"},{"sim_score":2,"rt":4191,"stimulus":"[\"img/0881/e046471a-35b4-4159-bbf7-3cfd201bef66.jpg\",\"img/0903/6378ee1e-3d2b-48d2-87be-bebda32c8268.jpg\"]","trial_type":"similarity","trial_index":121,"time_elapsed":695168,"internal_node_id":"0.0-6.0-115.0"},{"sim_score":1,"rt":3923,"stimulus":"[\"img/0894/661b9f9f-4bde-487a-b1ed-87085fde6948.jpg\",\"img/0874/ca23d307-fc00-4d7d-9106-584c6eb21b4d.jpg\"]","trial_type":"similarity","trial_index":122,"time_elapsed":700096,"internal_node_id":"0.0-6.0-116.0"},{"sim_score":6,"rt":4877,"stimulus":"[\"img/0881/4da99fdd-1f40-4bbb-8e21-8833eef313f5.jpg\",\"img/0862/f23038d4-c366-4f70-979f-66b62362efa4.jpg\"]","trial_type":"similarity","trial_index":123,"time_elapsed":705986,"internal_node_id":"0.0-6.0-117.0"},{"sim_score":3,"rt":4339,"stimulus":"[\"img/0868/5fa7f9d0-f0e5-454c-8224-74d964818f56.jpg\",\"img/0875/5a716432-c6ca-4b1c-955a-2b8ac25198ee.jpg\"]","trial_type":"similarity","trial_index":124,"time_elapsed":711339,"internal_node_id":"0.0-6.0-118.0"},{"sim_score":3,"rt":5419,"stimulus":"[\"img/0860/f44ba3fb-03a2-42f0-8509-2c1ded493086.jpg\",\"img/0758/eabcd7a8-56ad-4fd2-bc24-90f6b7b33265.jpg\"]","trial_type":"similarity","trial_index":125,"time_elapsed":717770,"internal_node_id":"0.0-6.0-119.0"},{"sim_score":6,"rt":3462,"stimulus":"[\"img/0864/1d15626a-2f7c-410f-819c-0fa2c967e95e.jpg\",\"img/0875/03c3c331-738b-4446-af92-3d7386b08c2e.jpg\"]","trial_type":"similarity","trial_index":126,"time_elapsed":722242,"internal_node_id":"0.0-6.0-120.0"},{"sim_score":2,"rt":3443,"stimulus":"[\"img/0898/661621d4-a14e-487c-8c74-354134a29710.jpg\",\"img/0866/d493a2c8-66eb-44b4-be02-2f327b700b7c.jpg\"]","trial_type":"similarity","trial_index":127,"time_elapsed":726697,"internal_node_id":"0.0-6.0-121.0"},{"sim_score":2,"rt":4072,"stimulus":"[\"img/0874/31e22c7c-99aa-40b1-bf03-dd73fa2df4d6.jpg\",\"img/0904/2f88ce53-02d0-4f95-a082-182c56a0eeb4.jpg\"]","trial_type":"similarity","trial_index":128,"time_elapsed":731779,"internal_node_id":"0.0-6.0-122.0"},{"sim_score":1,"rt":4470,"stimulus":"[\"img/0904/6291eb43-c10c-4810-a36a-101d09868b04.jpg\",\"img/0864/ef9cbca0-4be8-435d-ad49-977259e80409.jpg\"]","trial_type":"similarity","trial_index":129,"time_elapsed":737256,"internal_node_id":"0.0-6.0-123.0"},{"sim_score":6,"rt":3729,"stimulus":"[\"img/0894/767a0eec-1064-46b1-b1aa-dfa02b0cd74e.jpg\",\"img/0902/aa6fca32-82b0-4414-b20a-8f6f8aa5a2d2.jpg\"]","trial_type":"similarity","trial_index":130,"time_elapsed":741993,"internal_node_id":"0.0-6.0-124.0"},{"sim_score":4,"rt":3656,"stimulus":"[\"img/0868/4a8a45ed-2c4f-421b-9564-409a33ecd26c.jpg\",\"img/0864/3d4de670-b290-4285-9c3d-12a0e3af44e9.jpg\"]","trial_type":"similarity","trial_index":131,"time_elapsed":757478,"internal_node_id":"0.0-6.0-125.0"},{"sim_score":1,"rt":3779,"stimulus":"[\"img/0899/66bf4113-ee12-426c-84d2-ea410b6c803e.jpg\",\"img/0866/d266fece-59b3-46fa-b69f-96f6efb81b59.jpg\"]","trial_type":"similarity","trial_index":132,"time_elapsed":762264,"internal_node_id":"0.0-6.0-126.0"},{"sim_score":2,"rt":3367,"stimulus":"[\"img/0875/ebf7653f-ff45-4e9f-af58-2c042ab3cd2b.jpg\",\"img/0904/96e503ea-6630-4996-85f2-0237688ce441.jpg\"]","trial_type":"similarity","trial_index":133,"time_elapsed":766640,"internal_node_id":"0.0-6.0-127.0"},{"sim_score":1,"rt":3073,"stimulus":"[\"img/0867/98d8cd96-1476-4fe0-a3a3-04f875500a1b.jpg\",\"img/0899/4f7bc593-8ddd-4da3-a0b9-84da730d3370.jpg\"]","trial_type":"similarity","trial_index":134,"time_elapsed":770721,"internal_node_id":"0.0-6.0-128.0"},{"sim_score":6,"rt":3872,"stimulus":"[\"img/0901/1b86f2fc-7a1d-4aa8-9252-114f92edef3b.jpg\",\"img/0867/179ab87a-8eac-4c52-a41f-2e48e3120f09.jpg\"]","trial_type":"similarity","trial_index":135,"time_elapsed":775600,"internal_node_id":"0.0-6.0-129.0"},{"sim_score":3,"rt":4904,"stimulus":"[\"img/0864/4bd81bc6-c13d-46df-95a9-485886dc7c1b.jpg\",\"img/0769/1d8734c4-77ab-4165-9e71-5cfe672ff01c.jpg\"]","trial_type":"similarity","trial_index":136,"time_elapsed":781511,"internal_node_id":"0.0-6.0-130.0"},{"sim_score":1,"rt":6234,"stimulus":"[\"img/0903/2a9c8033-3e70-47fa-816d-97ee1813a3a3.jpg\",\"img/0868/d6d1f30d-4323-435a-b194-7892521bc57e.jpg\"]","trial_type":"similarity","trial_index":137,"time_elapsed":788751,"internal_node_id":"0.0-6.0-131.0"},{"sim_score":6,"rt":4122,"stimulus":"[\"img/0864/6f631579-acf1-415c-a42c-1207f62a8d99.jpg\",\"img/0867/85a96c62-548f-4994-9553-819e03c3135a.jpg\"]","trial_type":"similarity","trial_index":138,"time_elapsed":793880,"internal_node_id":"0.0-6.0-132.0"},{"sim_score":5,"rt":3810,"stimulus":"[\"img/0901/875dedb9-24c9-4443-9f8c-85e97d70ee5a.jpg\",\"img/0860/8fdba999-b946-4c7d-9891-336018b563ef.jpg\"]","trial_type":"similarity","trial_index":139,"time_elapsed":798700,"internal_node_id":"0.0-6.0-133.0"},{"sim_score":3,"rt":4063,"stimulus":"[\"img/0881/1407b85b-a1c6-45b1-9884-3b24203efadb.jpg\",\"img/0766/26d3ae14-8275-4e08-99b2-a6598c193ddf.jpg\"]","trial_type":"similarity","trial_index":140,"time_elapsed":803778,"internal_node_id":"0.0-6.0-134.0"},{"sim_score":2,"rt":3460,"stimulus":"[\"img/0903/2c7b4aed-6038-4aac-958a-e3e58341c313.jpg\",\"img/0864/5f33e097-23e3-4002-882d-76e8cb15f451.jpg\"]","trial_type":"similarity","trial_index":141,"time_elapsed":808247,"internal_node_id":"0.0-6.0-135.0"},{"sim_score":1,"rt":4738,"stimulus":"[\"img/0758/d57c2592-a317-4f63-91be-91a3a9afd222.jpg\",\"img/0894/151063aa-6472-4745-837b-36603aba5966.jpg\"]","trial_type":"similarity","trial_index":142,"time_elapsed":813994,"internal_node_id":"0.0-6.0-136.0"},{"sim_score":3,"rt":3747,"stimulus":"[\"img/0769/387a9744-d6a7-42b8-bab8-33007ec434aa.jpg\",\"img/0860/31ff6436-98bf-4652-bed2-40f627229568.jpg\"]","trial_type":"similarity","trial_index":143,"time_elapsed":818752,"internal_node_id":"0.0-6.0-137.0"},{"sim_score":6,"rt":3849,"stimulus":"[\"img/0904/b7c2a2c8-df33-4473-b3d4-ff7147c60db3.jpg\",\"img/0766/ef3b15ce-abb7-4292-ad93-aec8e8b50520.jpg\"]","trial_type":"similarity","trial_index":144,"time_elapsed":823609,"internal_node_id":"0.0-6.0-138.0"},{"sim_score":5,"rt":3120,"stimulus":"[\"img/0868/4e626425-63c8-484a-8a1d-e66ee4e0bef8.jpg\",\"img/0860/8a92e21b-6a32-4e4a-a445-2d5a487ed0a4.jpg\"]","trial_type":"similarity","trial_index":145,"time_elapsed":827736,"internal_node_id":"0.0-6.0-139.0"},{"sim_score":7,"rt":3792,"stimulus":"[\"img/0758/53f35650-e455-4b53-8be4-c3c8271c6466.jpg\",\"img/0864/c22faebd-9c53-47bc-ada3-b9a30c688e75.jpg\"]","trial_type":"similarity","trial_index":146,"time_elapsed":832535,"internal_node_id":"0.0-6.0-140.0"},{"sim_score":6,"rt":3914,"stimulus":"[\"img/0867/2e1a0b58-cdb1-4107-a14e-452530d7b9b0.jpg\",\"img/0867/db7e032f-162b-46f5-ae67-2b29679adee4.jpg\"]","trial_type":"similarity","trial_index":147,"time_elapsed":837457,"internal_node_id":"0.0-6.0-141.0"},{"sim_score":7,"rt":4321,"stimulus":"[\"img/0898/b2732712-71c2-45d8-834f-2b2ed5504910.jpg\",\"img/0898/ec565187-2e31-4fdd-9a5c-153d0c789ae0.jpg\"]","trial_type":"similarity","trial_index":148,"time_elapsed":842784,"internal_node_id":"0.0-6.0-142.0"},{"sim_score":2,"rt":3344,"stimulus":"[\"img/0866/a04d37f0-99dd-478a-b6c6-58b215138f84.jpg\",\"img/0769/1afb527f-9887-428c-bd26-a12c2f9efb68.jpg\"]","trial_type":"similarity","trial_index":149,"time_elapsed":847134,"internal_node_id":"0.0-6.0-143.0"},{"sim_score":3,"rt":2994,"stimulus":"[\"img/0860/29a21a9f-54bb-4093-ad3f-04823ceaa89f.jpg\",\"img/0898/e167334e-cc1d-4986-b3b1-c7bc7da64baa.jpg\"]","trial_type":"similarity","trial_index":150,"time_elapsed":851137,"internal_node_id":"0.0-6.0-144.0"},{"sim_score":1,"rt":3631,"stimulus":"[\"img/0766/33519c22-aaa4-49d7-8d49-ab551db1945e.jpg\",\"img/0864/ea327690-500b-4137-bf91-451b309fe6a5.jpg\"]","trial_type":"similarity","trial_index":151,"time_elapsed":855777,"internal_node_id":"0.0-6.0-145.0"},{"sim_score":3,"rt":3832,"stimulus":"[\"img/0860/8277806e-b684-4474-8f7b-3fca946d7d4f.jpg\",\"img/0903/f67c4ab9-f8c2-4fcd-848a-a54a7b031002.jpg\"]","trial_type":"similarity","trial_index":152,"time_elapsed":860617,"internal_node_id":"0.0-6.0-146.0"},{"sim_score":3,"rt":2872,"stimulus":"[\"img/0867/f8488a47-94ee-4166-952c-44e16cf172f6.jpg\",\"img/0764/1f95ab5f-fb65-4d70-b5db-d6bd6351a8aa.jpg\"]","trial_type":"similarity","trial_index":153,"time_elapsed":864495,"internal_node_id":"0.0-6.0-147.0"},{"sim_score":6,"rt":4256,"stimulus":"[\"img/0769/f73c5138-2f4c-4354-981c-129dff9cc734.jpg\",\"img/0904/9d30eff1-46ef-4453-b11e-124ef8145c00.jpg\"]","trial_type":"similarity","trial_index":154,"time_elapsed":869759,"internal_node_id":"0.0-6.0-148.0"},{"sim_score":5,"rt":4230,"stimulus":"[\"img/0764/978aede9-4590-4ad0-b234-135c83e5d669.jpg\",\"img/0901/548d1110-7cb8-42a2-9927-9798875c8b5c.jpg\"]","trial_type":"similarity","trial_index":155,"time_elapsed":875000,"internal_node_id":"0.0-6.0-149.0"},{"sim_score":3,"rt":3571,"stimulus":"[\"img/0904/09dac84f-3d1c-4445-a68e-d0389fdbf1e9.jpg\",\"img/0899/76ad07e2-ca25-45eb-84f2-8d80b8ca3e26.jpg\"]","trial_type":"similarity","trial_index":156,"time_elapsed":879579,"internal_node_id":"0.0-6.0-150.0"},{"sim_score":5,"rt":3109,"stimulus":"[\"img/0862/e8cc3bdf-cc43-4565-bccf-492626c70953.jpg\",\"img/0867/8ba0c5a7-c7e4-42cf-a80a-543763b90779.jpg\"]","trial_type":"similarity","trial_index":157,"time_elapsed":883694,"internal_node_id":"0.0-6.0-151.0"},{"sim_score":6,"rt":3706,"stimulus":"[\"img/0766/3c526a07-9e0a-4ae2-8142-00085f0127da.jpg\",\"img/0766/a754e4b6-5019-4cf4-8f58-34c20547a1f5.jpg\"]","trial_type":"similarity","trial_index":158,"time_elapsed":888440,"internal_node_id":"0.0-6.0-152.0"},{"sim_score":3,"rt":4133,"stimulus":"[\"img/0862/92fcd8a4-8193-4a6a-ae09-dd4a6338b0df.jpg\",\"img/0894/86201968-6e78-4d68-9b3a-d1692e066210.jpg\"]","trial_type":"similarity","trial_index":159,"time_elapsed":893584,"internal_node_id":"0.0-6.0-153.0"},{"sim_score":4,"rt":3391,"stimulus":"[\"img/0899/5b56dd3e-3f49-47cc-af84-16da6457753b.jpg\",\"img/0901/4ca4f962-40c0-4c59-b14a-3cd7b8c9029b.jpg\"]","trial_type":"similarity","trial_index":160,"time_elapsed":897985,"internal_node_id":"0.0-6.0-154.0"},{"sim_score":7,"rt":4469,"stimulus":"[\"img/0874/2c9464dd-8a23-4baa-ac94-1ba3af5c15cc.jpg\",\"img/0874/a82926a3-0b43-4add-803c-d5f9ea7798ee.jpg\"]","trial_type":"similarity","trial_index":161,"time_elapsed":903462,"internal_node_id":"0.0-6.0-155.0"},{"sim_score":4,"rt":3025,"stimulus":"[\"img/0860/702bd09d-df3a-40aa-a267-5f04474305b5.jpg\",\"img/0867/de92135f-5b65-4ed9-b245-188292c7c2f8.jpg\"]","trial_type":"similarity","trial_index":162,"time_elapsed":907496,"internal_node_id":"0.0-6.0-156.0"},{"sim_score":2,"rt":4758,"stimulus":"[\"img/0901/d6d15b1c-4a30-4f74-a3fd-d4c8ee4169ca.jpg\",\"img/0881/d1982897-8d8d-4704-a940-1ee5d07a1f15.jpg\"]","trial_type":"similarity","trial_index":163,"time_elapsed":913262,"internal_node_id":"0.0-6.0-157.0"},{"sim_score":6,"rt":2816,"stimulus":"[\"img/0903/70d764d9-1f35-4da7-a35d-4cc39834d270.jpg\",\"img/0902/7499db23-3a41-41ea-ab5b-6ab4d4c3ed35.jpg\"]","trial_type":"similarity","trial_index":164,"time_elapsed":917087,"internal_node_id":"0.0-6.0-158.0"},{"sim_score":4,"rt":2505,"stimulus":"[\"img/0860/5bff793e-cbd5-4d7e-b628-0ac2b0e30b64.jpg\",\"img/0764/c0b03adb-bd0a-4b96-a915-a827c2fd5211.jpg\"]","trial_type":"similarity","trial_index":165,"time_elapsed":920599,"internal_node_id":"0.0-6.0-159.0"},{"sim_score":1,"rt":3832,"stimulus":"[\"img/0902/12452bb1-b8c0-4e4d-ad4d-47e279e5933c.jpg\",\"img/0875/5a1e5100-0d94-4fec-bbe9-ca9894d2cf8e.jpg\"]","trial_type":"similarity","trial_index":166,"time_elapsed":925439,"internal_node_id":"0.0-6.0-160.0"},{"sim_score":4,"rt":4992,"stimulus":"[\"img/0898/08c72dac-f8ad-407a-9ce6-8c9a5d679c3a.jpg\",\"img/0862/ba89835a-408c-480b-8594-ed4ffa97eb5c.jpg\"]","trial_type":"similarity","trial_index":167,"time_elapsed":931438,"internal_node_id":"0.0-6.0-161.0"},{"sim_score":1,"rt":3135,"stimulus":"[\"img/0894/b422d5c6-3c5a-49ae-a53e-7e88ac993f49.jpg\",\"img/0875/fb732ab5-013a-4366-9f65-27811ed157e9.jpg\"]","trial_type":"similarity","trial_index":168,"time_elapsed":935582,"internal_node_id":"0.0-6.0-162.0"},{"sim_score":6,"rt":3465,"stimulus":"[\"img/0866/be24ab58-230e-4db8-9f45-ff04c9aec6bb.jpg\",\"img/0864/87c467d3-abca-482f-ad80-3766c21b1bb3.jpg\"]","trial_type":"similarity","trial_index":169,"time_elapsed":940055,"internal_node_id":"0.0-6.0-163.0"},{"sim_score":3,"rt":4831,"stimulus":"[\"img/0766/e8052e17-9dae-4139-802b-6e590cb2d526.jpg\",\"img/0862/eefa5588-9efd-4591-aa5f-a2e17c7d7bcc.jpg\"]","trial_type":"similarity","trial_index":170,"time_elapsed":945893,"internal_node_id":"0.0-6.0-164.0"},{"sim_score":5,"rt":3522,"stimulus":"[\"img/0866/620cd1aa-0800-4414-8f6e-90342e7a99ad.jpg\",\"img/0874/ca76a855-4e77-4f2f-872a-0a718153e7ed.jpg\"]","trial_type":"similarity","trial_index":171,"time_elapsed":950421,"internal_node_id":"0.0-6.0-165.0"},{"sim_score":5,"rt":3843,"stimulus":"[\"img/0862/00c06b00-3b73-44e9-bc1e-c5aafb438321.jpg\",\"img/0860/c7047cd2-7cc1-41b6-8a34-c0986774975f.jpg\"]","trial_type":"similarity","trial_index":172,"time_elapsed":955270,"internal_node_id":"0.0-6.0-166.0"},{"sim_score":5,"rt":3390,"stimulus":"[\"img/0766/27f54113-8561-4568-9ffe-0a1650ae65ec.jpg\",\"img/0901/deff6cfb-0072-4490-bc3e-206bbcd3e8bf.jpg\"]","trial_type":"similarity","trial_index":173,"time_elapsed":970555,"internal_node_id":"0.0-6.0-167.0"},{"sim_score":7,"rt":5219,"stimulus":"[\"img/0862/de9ad88c-b522-430a-8ee9-eb06a9f85df5.jpg\",\"img/0862/064818ee-13d5-4618-bb24-21c7368ea278.jpg\"]","trial_type":"similarity","trial_index":174,"time_elapsed":976782,"internal_node_id":"0.0-6.0-168.0"},{"sim_score":7,"rt":3744,"stimulus":"[\"img/0894/38f5931f-926d-414e-b498-66b188978b7a.jpg\",\"img/0764/c643e165-df19-459f-8c2b-8357bf432a17.jpg\"]","trial_type":"similarity","trial_index":175,"time_elapsed":981535,"internal_node_id":"0.0-6.0-169.0"},{"sim_score":2,"rt":3862,"stimulus":"[\"img/0874/bf14b896-e930-4fd9-9c05-2e83317a2773.jpg\",\"img/0898/8605a25b-6895-476d-8c13-df7a83f96093.jpg\"]","trial_type":"similarity","trial_index":176,"time_elapsed":986404,"internal_node_id":"0.0-6.0-170.0"},{"sim_score":5,"rt":3779,"stimulus":"[\"img/0860/e8b8c51e-1834-4875-8b61-6c5bc9b178bd.jpg\",\"img/0766/5d6e0d1d-4369-41f0-a64c-91f3503055c7.jpg\"]","trial_type":"similarity","trial_index":177,"time_elapsed":991197,"internal_node_id":"0.0-6.0-171.0"},{"sim_score":2,"rt":3073,"stimulus":"[\"img/0898/5f699581-3853-4547-856c-12f419ba5af7.jpg\",\"img/0864/f92649a2-0590-4d31-9a7a-1bfb81666a2d.jpg\"]","trial_type":"similarity","trial_index":178,"time_elapsed":995278,"internal_node_id":"0.0-6.0-172.0"},{"sim_score":1,"rt":3485,"stimulus":"[\"img/0881/609a5e93-38b5-4940-8627-2bf8fad7f802.jpg\",\"img/0764/f990b2e8-ecee-481e-be7c-0239fce350e2.jpg\"]","trial_type":"similarity","trial_index":179,"time_elapsed":999774,"internal_node_id":"0.0-6.0-173.0"},{"sim_score":1,"rt":3167,"stimulus":"[\"img/0898/993d8f2d-bef7-4251-a193-0f93a32b7763.jpg\",\"img/0868/293079b8-7e0c-4afd-a390-1e5d35fe3ded.jpg\"]","trial_type":"similarity","trial_index":180,"time_elapsed":1003949,"internal_node_id":"0.0-6.0-174.0"},{"sim_score":6,"rt":3928,"stimulus":"[\"img/0864/9b2490c5-a282-400a-9736-e1a0ecbf1cb7.jpg\",\"img/0864/300bb811-8b3c-4c42-8653-6097c3725197.jpg\"]","trial_type":"similarity","trial_index":181,"time_elapsed":1008887,"internal_node_id":"0.0-6.0-175.0"},{"sim_score":1,"rt":4207,"stimulus":"[\"img/0899/57476fed-5962-4272-8fc9-b317bb777b54.jpg\",\"img/0862/f43ceabf-acc1-4107-b857-5d1849808f93.jpg\"]","trial_type":"similarity","trial_index":182,"time_elapsed":1014101,"internal_node_id":"0.0-6.0-176.0"},{"sim_score":6,"rt":5584,"stimulus":"[\"img/0875/dbdd643e-6d0e-4a5c-ab57-b9c29b9c981a.jpg\",\"img/0758/7ee8bc8f-c40b-4b3a-84ec-3e83580622d4.jpg\"]","trial_type":"similarity","trial_index":183,"time_elapsed":1020692,"internal_node_id":"0.0-6.0-177.0"},{"sim_score":2,"rt":3553,"stimulus":"[\"img/0866/23a224f3-2012-4fc8-8e0f-3c36f8de27fd.jpg\",\"img/0901/31c032fd-3c3d-4882-a226-da9a80198937.jpg\"]","trial_type":"similarity","trial_index":184,"time_elapsed":1025252,"internal_node_id":"0.0-6.0-178.0"},{"sim_score":4,"rt":5009,"stimulus":"[\"img/0769/9ea27d61-3d55-418c-8d14-82e90f656f01.jpg\",\"img/0874/c0378dac-9370-439a-8b79-db27c96fb390.jpg\"]","trial_type":"similarity","trial_index":185,"time_elapsed":1031268,"internal_node_id":"0.0-6.0-179.0"},{"sim_score":6,"rt":5297,"stimulus":"[\"img/0875/34132396-d896-4c2d-8087-646dd867e769.jpg\",\"img/0881/84397291-bc14-4fbf-90e8-241e486ab0fe.jpg\"]","trial_type":"similarity","trial_index":186,"time_elapsed":1037571,"internal_node_id":"0.0-6.0-180.0"},{"sim_score":6,"rt":3778,"stimulus":"[\"img/0866/11a1d141-be5e-443c-98c1-a9d4d9e3dec0.jpg\",\"img/0868/15dd6fd7-791e-4b53-b203-195d617521a4.jpg\"]","trial_type":"similarity","trial_index":187,"time_elapsed":1042357,"internal_node_id":"0.0-6.0-181.0"},{"sim_score":1,"rt":4448,"stimulus":"[\"img/0899/0adc0bc3-6fca-4078-be6f-d45ddf1653d5.jpg\",\"img/0758/d41c06bf-ebaf-454b-91c6-1a17f917b659.jpg\"]","trial_type":"similarity","trial_index":188,"time_elapsed":1047812,"internal_node_id":"0.0-6.0-182.0"},{"sim_score":6,"rt":3521,"stimulus":"[\"img/0874/995f0332-0439-4eb4-add3-957335dbf6d9.jpg\",\"img/0875/90da8d75-108a-44ad-b999-e21fee3860d3.jpg\"]","trial_type":"similarity","trial_index":189,"time_elapsed":1052342,"internal_node_id":"0.0-6.0-183.0"},{"sim_score":1,"rt":3711,"stimulus":"[\"img/0904/4b8daf2a-13a9-4ea9-9e0b-b265b6e933e7.jpg\",\"img/0862/e697469a-ec19-4414-b972-7b9f3564785b.jpg\"]","trial_type":"similarity","trial_index":190,"time_elapsed":1057060,"internal_node_id":"0.0-6.0-184.0"},{"sim_score":6,"rt":4134,"stimulus":"[\"img/0902/962f645e-9b55-4628-9b50-c703422bfe1a.jpg\",\"img/0766/91fc8c4d-862f-4d2b-b1a1-2db8d729b6b7.jpg\"]","trial_type":"similarity","trial_index":191,"time_elapsed":1062204,"internal_node_id":"0.0-6.0-185.0"},{"sim_score":1,"rt":3015,"stimulus":"[\"img/0758/7fba58df-2a7a-4b76-8a8f-62739f97f271.jpg\",\"img/0769/f6396414-6788-4d59-9683-de153298d89c.jpg\"]","trial_type":"similarity","trial_index":192,"time_elapsed":1066230,"internal_node_id":"0.0-6.0-186.0"},{"sim_score":7,"rt":3615,"stimulus":"[\"img/0881/adc02f34-ce97-4aef-850f-00519df06fd7.jpg\",\"img/0881/20af39f5-373d-4a55-a437-2dc4c0382c46.jpg\"]","trial_type":"similarity","trial_index":193,"time_elapsed":1070851,"internal_node_id":"0.0-6.0-187.0"},{"sim_score":5,"rt":3405,"stimulus":"[\"img/0758/3ddd05d3-557e-4ee7-8b78-9d2d681d8ae2.jpg\",\"img/0866/945c6710-d15b-4a5b-a8f6-69af0850357f.jpg\"]","trial_type":"similarity","trial_index":194,"time_elapsed":1075268,"internal_node_id":"0.0-6.0-188.0"},{"sim_score":5,"rt":3107,"stimulus":"[\"img/0764/03c07b98-3f18-4b71-bb70-ecff564a78d1.jpg\",\"img/0898/81b08535-2020-4c15-9ce4-2f1e460755ae.jpg\"]","trial_type":"similarity","trial_index":195,"time_elapsed":1079391,"internal_node_id":"0.0-6.0-189.0"},{"sim_score":6,"rt":3261,"stimulus":"[\"img/0903/b7e3723f-fd03-4f3d-8820-f19496463a34.jpg\",\"img/0901/233a6948-48eb-4b67-8259-222b916b2322.jpg\"]","trial_type":"similarity","trial_index":196,"time_elapsed":1083663,"internal_node_id":"0.0-6.0-190.0"},{"sim_score":7,"rt":3834,"stimulus":"[\"img/0902/4e0baa32-988e-46f6-989d-f669225ab645.jpg\",\"img/0898/79233891-305a-4a6a-8ddf-5c8604858203.jpg\"]","trial_type":"similarity","trial_index":197,"time_elapsed":1088509,"internal_node_id":"0.0-6.0-191.0"},{"sim_score":1,"rt":4471,"stimulus":"[\"img/0864/b3c4e378-28f0-4699-9338-2a257b4bca04.jpg\",\"img/0901/08d6d1d1-c043-43c4-bb08-d45e062822b9.jpg\"]","trial_type":"similarity","trial_index":198,"time_elapsed":1093989,"internal_node_id":"0.0-6.0-192.0"},{"sim_score":1,"rt":2943,"stimulus":"[\"img/0894/38cf335f-f76f-4349-8d65-e20cd6859565.jpg\",\"img/0881/62a64f90-7a72-4aee-a1a1-0c548ac9bdda.jpg\"]","trial_type":"similarity","trial_index":199,"time_elapsed":1097940,"internal_node_id":"0.0-6.0-193.0"},{"sim_score":6,"rt":3592,"stimulus":"[\"img/0868/e0aff734-077f-40dd-9781-74821abd3621.jpg\",\"img/0868/1a62b2b2-18f5-466e-b564-5176a57c565e.jpg\"]","trial_type":"similarity","trial_index":200,"time_elapsed":1102540,"internal_node_id":"0.0-6.0-194.0"},{"sim_score":5,"rt":3158,"stimulus":"[\"img/0899/7f9d45d0-b2c6-40d3-aa41-c207db2c411b.jpg\",\"img/0764/958b8576-3a3b-4acc-96dc-06b74de69f37.jpg\"]","trial_type":"similarity","trial_index":201,"time_elapsed":1106708,"internal_node_id":"0.0-6.0-195.0"},{"sim_score":4,"rt":3193,"stimulus":"[\"img/0881/667e2147-d457-4f32-aa5f-6ab86e5848f1.jpg\",\"img/0904/ba8e689e-9ca6-4608-a2a1-3b0940666ae6.jpg\"]","trial_type":"similarity","trial_index":202,"time_elapsed":1110909,"internal_node_id":"0.0-6.0-196.0"},{"sim_score":1,"rt":2973,"stimulus":"[\"img/0864/0116ca98-293d-4fa6-a93b-5a6144ef64cc.jpg\",\"img/0902/e5a46bda-30d1-41ca-b36d-b8529b5a63d1.jpg\"]","trial_type":"similarity","trial_index":203,"time_elapsed":1114892,"internal_node_id":"0.0-6.0-197.0"},{"sim_score":6,"rt":3414,"stimulus":"[\"img/0894/7dd6ff43-f8fc-408a-8a41-a2b261871820.jpg\",\"img/0904/696ebb60-8891-417a-91fd-c53218907a95.jpg\"]","trial_type":"similarity","trial_index":204,"time_elapsed":1119315,"internal_node_id":"0.0-6.0-198.0"},{"sim_score":7,"rt":4225,"stimulus":"[\"img/0901/b9141736-3041-4385-a586-b1fe911c76a5.jpg\",\"img/0901/693e0535-ef7e-4d60-af9d-fac2f38e8307.jpg\"]","trial_type":"similarity","trial_index":205,"time_elapsed":1124548,"internal_node_id":"0.0-6.0-199.0"},{"sim_score":2,"rt":3447,"stimulus":"[\"img/0894/05161000-f476-499b-a878-c13c7f347fd9.jpg\",\"img/0860/94ef7afc-e0e6-4a15-98c6-0bfac82bc832.jpg\"]","trial_type":"similarity","trial_index":206,"time_elapsed":1129004,"internal_node_id":"0.0-6.0-200.0"},{"sim_score":6,"rt":4360,"stimulus":"[\"img/0898/6cd3830b-d44e-4915-be2b-88d31424b91c.jpg\",\"img/0903/f10e9eb5-0c21-4a6a-944c-5f10a6d0fa4d.jpg\"]","trial_type":"similarity","trial_index":207,"time_elapsed":1134372,"internal_node_id":"0.0-6.0-201.0"},{"sim_score":1,"rt":3257,"stimulus":"[\"img/0864/6e846d43-94a6-4b37-a268-65eda979f052.jpg\",\"img/0894/7f2f31fd-6618-41c6-b65a-0fd8b2851bc9.jpg\"]","trial_type":"similarity","trial_index":208,"time_elapsed":1138636,"internal_node_id":"0.0-6.0-202.0"},{"sim_score":3,"rt":3617,"stimulus":"[\"img/0874/eba003b4-cdab-4eee-8bc3-f064c7d94165.jpg\",\"img/0860/18dfed73-e36b-4487-a8bd-0b8cff8e3668.jpg\"]","trial_type":"similarity","trial_index":209,"time_elapsed":1143259,"internal_node_id":"0.0-6.0-203.0"},{"sim_score":2,"rt":3505,"stimulus":"[\"img/0862/fb26cb07-d5a9-4653-813c-f41609f26cd5.jpg\",\"img/0875/3ecb367d-e9eb-4826-8aaa-7aa72fb98019.jpg\"]","trial_type":"similarity","trial_index":210,"time_elapsed":1147775,"internal_node_id":"0.0-6.0-204.0"},{"sim_score":4,"rt":4492,"stimulus":"[\"img/0867/50a1b60e-3a29-44bf-b606-d4bd3746fea9.jpg\",\"img/0881/54ea8e77-c7e5-4197-b7fa-00b7020849a7.jpg\"]","trial_type":"similarity","trial_index":211,"time_elapsed":1153275,"internal_node_id":"0.0-6.0-205.0"},{"sim_score":6,"rt":3465,"stimulus":"[\"img/0901/71e551a2-9ce2-409c-9c7c-dd556a0791e9.jpg\",\"img/0902/10d99c89-71f7-4c81-a31e-dfc7c59f5232.jpg\"]","trial_type":"similarity","trial_index":212,"time_elapsed":1157747,"internal_node_id":"0.0-6.0-206.0"},{"sim_score":1,"rt":4488,"stimulus":"[\"img/0899/d8f2dd94-570e-4e8c-a087-d96090fb9e8c.jpg\",\"img/0864/0f537697-a314-47c3-a8cc-8df23b7e536c.jpg\"]","trial_type":"similarity","trial_index":213,"time_elapsed":1163242,"internal_node_id":"0.0-6.0-207.0"},{"sim_score":6,"rt":3749,"stimulus":"[\"img/0901/a373612d-67e2-4fec-9764-21d3d6ef6359.jpg\",\"img/0769/db94b61b-a5a7-4861-9d32-7b02ad194fb0.jpg\"]","trial_type":"similarity","trial_index":214,"time_elapsed":1168005,"internal_node_id":"0.0-6.0-208.0"},{"sim_score":6,"rt":4122,"stimulus":"[\"img/0902/1a120fb9-dbd6-443e-ba91-b4aceab963da.jpg\",\"img/0902/f3cfec34-482c-4bdb-9c92-19ea6cfce183.jpg\"]","trial_type":"similarity","trial_index":215,"time_elapsed":1177897,"internal_node_id":"0.0-6.0-209.0"},{"view_history":"[{\"page_index\":0,\"viewing_time\":8783}]","rt":8784,"trial_type":"instructions","trial_index":216,"time_elapsed":1187682,"internal_node_id":"0.0-7.0"},{"rt":27161,"responses":"{\"Q0\":\"Swamp Sparrow\"}","answer":["Nashville Warbler"],"trial_type":"image-multi-choice","trial_index":217,"time_elapsed":1215880,"internal_node_id":"0.0-8.0-0.0"},{"rt":6087,"responses":"{\"Q0\":\"Black-and-white Warbler\"}","answer":["Black-and-white Warbler"],"trial_type":"image-multi-choice","trial_index":218,"time_elapsed":1222989,"internal_node_id":"0.0-8.0-1.0"},{"rt":14745,"responses":"{\"Q0\":\"Magnolia Warbler\"}","answer":["Townsend's Warbler"],"trial_type":"image-multi-choice","trial_index":219,"time_elapsed":1238759,"internal_node_id":"0.0-8.0-2.0"},{"rt":22666,"responses":"{\"Q0\":\"American Tree Sparrow\"}","answer":["Lark Sparrow"],"trial_type":"image-multi-choice","trial_index":220,"time_elapsed":1262448,"internal_node_id":"0.0-8.0-3.0"},{"rt":5434,"responses":"{\"Q0\":\"Yellow Warbler\"}","answer":["Yellow Warbler"],"trial_type":"image-multi-choice","trial_index":221,"time_elapsed":1268908,"internal_node_id":"0.0-8.0-4.0"},{"rt":14263,"responses":"{\"Q0\":\"Townsend's Warbler\"}","answer":["Orange-crowned Warbler"],"trial_type":"image-multi-choice","trial_index":222,"time_elapsed":1284208,"internal_node_id":"0.0-8.0-5.0"},{"rt":6572,"responses":"{\"Q0\":\"White-throated Sparrow\"}","answer":["White-throated Sparrow"],"trial_type":"image-multi-choice","trial_index":223,"time_elapsed":1291808,"internal_node_id":"0.0-8.0-6.0"},{"rt":5090,"responses":"{\"Q0\":\"Fox Sparrow\"}","answer":["Fox Sparrow"],"trial_type":"image-multi-choice","trial_index":224,"time_elapsed":1297919,"internal_node_id":"0.0-8.0-7.0"},{"rt":11602,"responses":"{\"Q0\":\"Swamp Sparrow\"}","answer":["Song Sparrow"],"trial_type":"image-multi-choice","trial_index":225,"time_elapsed":1310545,"internal_node_id":"0.0-8.0-8.0"},{"rt":13370,"responses":"{\"Q0\":\"Blackburnian Warbler\"}","answer":["Blackburnian Warbler"],"trial_type":"image-multi-choice","trial_index":226,"time_elapsed":1324952,"internal_node_id":"0.0-8.0-9.0"},{"rt":8064,"responses":"{\"Q0\":\"Chipping Sparrow\"}","answer":["Vesper Sparrow"],"trial_type":"image-multi-choice","trial_index":227,"time_elapsed":1334050,"internal_node_id":"0.0-8.0-10.0"},{"rt":5555,"responses":"{\"Q0\":\"White-crowned Sparrow\"}","answer":["White-crowned Sparrow"],"trial_type":"image-multi-choice","trial_index":228,"time_elapsed":1340646,"internal_node_id":"0.0-8.0-11.0"},{"rt":17479,"responses":"{\"Q0\":\"Lincoln's Sparrow\"}","answer":["American Tree Sparrow"],"trial_type":"image-multi-choice","trial_index":229,"time_elapsed":1359150,"internal_node_id":"0.0-8.0-12.0"},{"rt":24549,"responses":"{\"Q0\":\"Nashville Warbler\"}","answer":["Tennessee Warbler"],"trial_type":"image-multi-choice","trial_index":230,"time_elapsed":1384726,"internal_node_id":"0.0-8.0-13.0"},{"rt":8383,"responses":"{\"Q0\":\"Magnolia Warbler\"}","answer":["Magnolia Warbler"],"trial_type":"image-multi-choice","trial_index":231,"time_elapsed":1394132,"internal_node_id":"0.0-8.0-14.0"},{"rt":15978,"responses":"{\"Q0\":\"Northern Waterthrush\"}","answer":["Northern Waterthrush"],"trial_type":"image-multi-choice","trial_index":232,"time_elapsed":1411137,"internal_node_id":"0.0-8.0-15.0"},{"rt":9103,"responses":"{\"Q0\":\"Lark Sparrow\"}","answer":["Chipping Sparrow"],"trial_type":"image-multi-choice","trial_index":233,"time_elapsed":1421259,"internal_node_id":"0.0-8.0-16.0"},{"rt":7234,"responses":"{\"Q0\":\"Swamp Sparrow\"}","answer":["Swamp Sparrow"],"trial_type":"image-multi-choice","trial_index":234,"time_elapsed":1429522,"internal_node_id":"0.0-8.0-17.0"},{"rt":16702,"responses":"{\"Q0\":\"Vesper Sparrow\"}","answer":["Lincoln's Sparrow"],"trial_type":"image-multi-choice","trial_index":235,"time_elapsed":1447280,"internal_node_id":"0.0-8.0-18.0"},{"rt":5896,"responses":"{\"Q0\":\"Ovenbird\"}","answer":["Ovenbird"],"trial_type":"image-multi-choice","trial_index":236,"time_elapsed":1454209,"internal_node_id":"0.0-8.0-19.0"}]