[{"view_history":"[{\"page_index\":0,\"viewing_time\":12854}]","rt":12860,"trial_type":"instructions","trial_index":0,"time_elapsed":12862,"internal_node_id":"0.0-0.0"},{"sim_score":5,"rt":9970,"stimulus":"[\"img/866.jpg\",\"img/868.jpg\"]","trial_type":"similarity_demo","trial_index":1,"time_elapsed":23867,"internal_node_id":"0.0-1.0"},{"view_history":"[{\"page_index\":0,\"viewing_time\":8959}]","rt":8961,"trial_type":"instructions","trial_index":2,"time_elapsed":33860,"internal_node_id":"0.0-2.0"},{"sim_score":1,"rt":6507,"stimulus":"[\"img/766.jpg\",\"img/867.jpg\"]","trial_type":"similarity_demo","trial_index":3,"time_elapsed":41398,"internal_node_id":"0.0-3.0"},{"view_history":"[{\"page_index\":0,\"viewing_time\":4526}]","rt":4527,"trial_type":"instructions","trial_index":4,"time_elapsed":46930,"internal_node_id":"0.0-4.0"},{"view_history":"[{\"page_index\":0,\"viewing_time\":27422}]","rt":27426,"trial_type":"instructions","trial_index":5,"time_elapsed":75357,"internal_node_id":"0.0-5.0"},{"sim_score":3,"rt":9094,"stimulus":"[\"img/0868/179a5502-ab5c-478e-8263-5a1fbcc101d2.jpg\",\"img/0901/5657dd86-0ff9-4753-ba2b-9dfb223e5c89.jpg\"]","trial_type":"similarity","trial_index":6,"time_elapsed":85493,"internal_node_id":"0.0-6.0-0.0"},{"sim_score":3,"rt":4339,"stimulus":"[\"img/0769/14d393ce-e5be-4ca1-86ce-cc27d4b6074c.jpg\",\"img/0867/cc72ed48-7704-422c-86d6-467a1145287a.jpg\"]","trial_type":"similarity","trial_index":7,"time_elapsed":90873,"internal_node_id":"0.0-6.0-1.0"},{"sim_score":6,"rt":5776,"stimulus":"[\"img/0766/a754e4b6-5019-4cf4-8f58-34c20547a1f5.jpg\",\"img/0898/01bfe666-3510-4fc7-964f-d00d28732dc8.jpg\"]","trial_type":"similarity","trial_index":8,"time_elapsed":97676,"internal_node_id":"0.0-6.0-2.0"},{"sim_score":3,"rt":4353,"stimulus":"[\"img/0902/24d10fe7-314f-4d5a-8c7b-b43121bba0a4.jpg\",\"img/0881/566f45f8-5fed-4479-a60f-26377e60a62d.jpg\"]","trial_type":"similarity","trial_index":9,"time_elapsed":103046,"internal_node_id":"0.0-6.0-3.0"},{"sim_score":7,"rt":4687,"stimulus":"[\"img/0894/b422d5c6-3c5a-49ae-a53e-7e88ac993f49.jpg\",\"img/0894/7dd6ff43-f8fc-408a-8a41-a2b261871820.jpg\"]","trial_type":"similarity","trial_index":10,"time_elapsed":108751,"internal_node_id":"0.0-6.0-4.0"},{"sim_score":6,"rt":6498,"stimulus":"[\"img/0874/c0378dac-9370-439a-8b79-db27c96fb390.jpg\",\"img/0899/8abe6c69-822c-436c-9bf2-96c818b49ba5.jpg\"]","trial_type":"similarity","trial_index":11,"time_elapsed":116305,"internal_node_id":"0.0-6.0-5.0"},{"sim_score":6,"rt":5177,"stimulus":"[\"img/0904/9dd5708f-3f8b-46a9-b49f-2f2fab87b357.jpg\",\"img/0764/7f4ee8e3-9315-4a57-be7d-db8454b33766.jpg\"]","trial_type":"similarity","trial_index":12,"time_elapsed":122502,"internal_node_id":"0.0-6.0-6.0"},{"sim_score":5,"rt":7192,"stimulus":"[\"img/0899/0433d056-aa30-4f8a-9aa1-abbb951e4edd.jpg\",\"img/0898/cd3aaa3f-efa9-4ab3-8d6f-a6a9273ddf42.jpg\"]","trial_type":"similarity","trial_index":13,"time_elapsed":130711,"internal_node_id":"0.0-6.0-7.0"},{"sim_score":3,"rt":6085,"stimulus":"[\"img/0874/29830da7-be5f-44e5-b141-652a0ccf7269.jpg\",\"img/0903/72197c2b-403e-4a26-b391-f1aa8dea4b76.jpg\"]","trial_type":"similarity","trial_index":14,"time_elapsed":137824,"internal_node_id":"0.0-6.0-8.0"},{"sim_score":7,"rt":4366,"stimulus":"[\"img/0881/19e82c47-8e4b-45d2-a6c8-74181eb4155e.jpg\",\"img/0758/b76ceca7-95ac-46e4-ac13-da02c8e93be9.jpg\"]","trial_type":"similarity","trial_index":15,"time_elapsed":143214,"internal_node_id":"0.0-6.0-9.0"},{"sim_score":6,"rt":5184,"stimulus":"[\"img/0898/04e39a7a-fcf6-4156-ab0e-f5871f335e1c.jpg\",\"img/0901/1e23ffbd-19de-4c4f-aa23-c54aaa3319a3.jpg\"]","trial_type":"similarity","trial_index":16,"time_elapsed":149472,"internal_node_id":"0.0-6.0-10.0"},{"sim_score":6,"rt":5610,"stimulus":"[\"img/0903/59defeb8-98bd-4570-a2f8-9bd189e68ef4.jpg\",\"img/0769/3adfa417-3b90-4aab-b437-5eaa474189cb.jpg\"]","trial_type":"similarity","trial_index":17,"time_elapsed":156129,"internal_node_id":"0.0-6.0-11.0"},{"sim_score":3,"rt":3652,"stimulus":"[\"img/0764/974d52cc-6318-4e7a-b294-2f3e92ff800f.jpg\",\"img/0868/8b0b8473-e2c0-4331-aa56-c3a5c29369da.jpg\"]","trial_type":"similarity","trial_index":18,"time_elapsed":160813,"internal_node_id":"0.0-6.0-12.0"},{"sim_score":2,"rt":4632,"stimulus":"[\"img/0867/12264664-1860-46df-8c21-162b9817cdda.jpg\",\"img/0903/b0a3c45f-467e-412f-a183-c9c1827f2e63.jpg\"]","trial_type":"similarity","trial_index":19,"time_elapsed":166460,"internal_node_id":"0.0-6.0-13.0"},{"sim_score":2,"rt":4029,"stimulus":"[\"img/0766/79767d11-b612-4e8a-9e4b-a8ac95bb6a54.jpg\",\"img/0758/eabcd7a8-56ad-4fd2-bc24-90f6b7b33265.jpg\"]","trial_type":"similarity","trial_index":20,"time_elapsed":171526,"internal_node_id":"0.0-6.0-14.0"},{"sim_score":2,"rt":3836,"stimulus":"[\"img/0902/8af4182a-9af9-4212-a436-9195555112d6.jpg\",\"img/0860/9593362c-9fe5-4d12-9735-6000a11f6aa5.jpg\"]","trial_type":"similarity","trial_index":21,"time_elapsed":176410,"internal_node_id":"0.0-6.0-15.0"},{"sim_score":2,"rt":4228,"stimulus":"[\"img/0769/82ab9db6-4578-4e79-874f-f09100439f09.jpg\",\"img/0875/3ecb367d-e9eb-4826-8aaa-7aa72fb98019.jpg\"]","trial_type":"similarity","trial_index":22,"time_elapsed":181655,"internal_node_id":"0.0-6.0-16.0"},{"sim_score":2,"rt":4233,"stimulus":"[\"img/0904/fe746a3f-8458-48d0-8a13-8cba2a9df9f8.jpg\",\"img/0866/620cd1aa-0800-4414-8f6e-90342e7a99ad.jpg\"]","trial_type":"similarity","trial_index":23,"time_elapsed":186924,"internal_node_id":"0.0-6.0-17.0"},{"sim_score":7,"rt":4345,"stimulus":"[\"img/0875/2c361b79-c3d1-4eda-812e-bf03192407bf.jpg\",\"img/0875/d59ff733-eaff-4ee2-9443-06954dd0bcb6.jpg\"]","trial_type":"similarity","trial_index":24,"time_elapsed":192282,"internal_node_id":"0.0-6.0-18.0"},{"sim_score":7,"rt":3640,"stimulus":"[\"img/0758/dd559618-7f09-4a07-8018-d311c4a5ea29.jpg\",\"img/0758/2fa3e613-e676-4e6e-bd12-705327eeb3e1.jpg\"]","trial_type":"similarity","trial_index":25,"time_elapsed":196949,"internal_node_id":"0.0-6.0-19.0"},{"sim_score":3,"rt":5754,"stimulus":"[\"img/0902/27b84584-948a-485b-8749-cb09929ef631.jpg\",\"img/0874/93d1f8dc-acf2-4f03-bd8d-8ec35df276ed.jpg\"]","trial_type":"similarity","trial_index":26,"time_elapsed":203758,"internal_node_id":"0.0-6.0-20.0"},{"sim_score":7,"rt":4093,"stimulus":"[\"img/0764/6c7fe363-2d37-418f-9e5e-a3273af5d4fb.jpg\",\"img/0769/38a88f69-28fd-4bbd-99f0-f4c02bfd3995.jpg\"]","trial_type":"similarity","trial_index":27,"time_elapsed":208867,"internal_node_id":"0.0-6.0-21.0"},{"sim_score":5,"rt":5087,"stimulus":"[\"img/0901/148b747a-7392-437e-8823-33053c5dff3f.jpg\",\"img/0874/99f6563c-8a8d-4c1c-a41d-667b618c3fd5.jpg\"]","trial_type":"similarity","trial_index":28,"time_elapsed":214988,"internal_node_id":"0.0-6.0-22.0"},{"sim_score":3,"rt":4377,"stimulus":"[\"img/0875/a4935837-7d3c-4df6-88c1-36a94d4991ca.jpg\",\"img/0903/5ea5bbe0-f238-4724-abe7-9ed8dee8c0ba.jpg\"]","trial_type":"similarity","trial_index":29,"time_elapsed":220390,"internal_node_id":"0.0-6.0-23.0"},{"sim_score":2,"rt":3954,"stimulus":"[\"img/0769/5bd04f55-d091-4f57-85db-38426f26bd1a.jpg\",\"img/0881/84397291-bc14-4fbf-90e8-241e486ab0fe.jpg\"]","trial_type":"similarity","trial_index":30,"time_elapsed":225373,"internal_node_id":"0.0-6.0-24.0"},{"sim_score":3,"rt":4060,"stimulus":"[\"img/0867/26611f4e-d694-4460-b7e2-43c62753ddc3.jpg\",\"img/0904/ba8e689e-9ca6-4608-a2a1-3b0940666ae6.jpg\"]","trial_type":"similarity","trial_index":31,"time_elapsed":230456,"internal_node_id":"0.0-6.0-25.0"},{"sim_score":5,"rt":6162,"stimulus":"[\"img/0860/87039971-2210-4aab-93c0-8e9b5f1655b2.jpg\",\"img/0881/b549bc99-a61c-4450-bab5-9efc3a197bf0.jpg\"]","trial_type":"similarity","trial_index":32,"time_elapsed":237644,"internal_node_id":"0.0-6.0-26.0"},{"sim_score":6,"rt":4023,"stimulus":"[\"img/0866/11a1d141-be5e-443c-98c1-a9d4d9e3dec0.jpg\",\"img/0866/23a224f3-2012-4fc8-8e0f-3c36f8de27fd.jpg\"]","trial_type":"similarity","trial_index":33,"time_elapsed":242691,"internal_node_id":"0.0-6.0-27.0"},{"sim_score":3,"rt":4939,"stimulus":"[\"img/0764/8740679b-b56f-4292-aece-14063457113a.jpg\",\"img/0862/ad593cc7-cabe-4bb7-8e14-8a447a0717b4.jpg\"]","trial_type":"similarity","trial_index":34,"time_elapsed":248659,"internal_node_id":"0.0-6.0-28.0"},{"sim_score":3,"rt":4171,"stimulus":"[\"img/0904/63dd06dd-dccb-47ba-9740-eb33239e18a7.jpg\",\"img/0758/f61ecdf8-a7d4-4db0-b84d-be46f7cfaffc.jpg\"]","trial_type":"similarity","trial_index":35,"time_elapsed":253852,"internal_node_id":"0.0-6.0-29.0"},{"sim_score":5,"rt":6878,"stimulus":"[\"img/0894/86201968-6e78-4d68-9b3a-d1692e066210.jpg\",\"img/0899/66ab3178-c3fe-4455-ad17-d5952b08e018.jpg\"]","trial_type":"similarity","trial_index":36,"time_elapsed":261915,"internal_node_id":"0.0-6.0-30.0"},{"sim_score":2,"rt":4071,"stimulus":"[\"img/0860/e14d67c1-6d92-4f1e-9257-c8607159c19c.jpg\",\"img/0904/5cceabc9-de1d-4c67-989b-c28a4ef77e79.jpg\"]","trial_type":"similarity","trial_index":37,"time_elapsed":267000,"internal_node_id":"0.0-6.0-31.0"},{"sim_score":5,"rt":5802,"stimulus":"[\"img/0874/ca23d307-fc00-4d7d-9106-584c6eb21b4d.jpg\",\"img/0881/344de456-b358-4887-bd0e-e4c3278af887.jpg\"]","trial_type":"similarity","trial_index":38,"time_elapsed":273818,"internal_node_id":"0.0-6.0-32.0"},{"sim_score":2,"rt":4774,"stimulus":"[\"img/0881/1407b85b-a1c6-45b1-9884-3b24203efadb.jpg\",\"img/0899/76ad07e2-ca25-45eb-84f2-8d80b8ca3e26.jpg\"]","trial_type":"similarity","trial_index":39,"time_elapsed":279608,"internal_node_id":"0.0-6.0-33.0"},{"sim_score":5,"rt":4023,"stimulus":"[\"img/0866/c446214b-a368-4c65-ae39-ea46894256ab.jpg\",\"img/0862/53a9cf7c-93c4-41b9-952f-07d17f7a17b2.jpg\"]","trial_type":"similarity","trial_index":40,"time_elapsed":284662,"internal_node_id":"0.0-6.0-34.0"},{"sim_score":2,"rt":4050,"stimulus":"[\"img/0868/09a9ef4d-d000-4cfa-a6aa-ebec7c2edeb4.jpg\",\"img/0894/3664e04c-c6d3-4c9b-afb6-25d89974b174.jpg\"]","trial_type":"similarity","trial_index":41,"time_elapsed":289738,"internal_node_id":"0.0-6.0-35.0"},{"sim_score":7,"rt":3860,"stimulus":"[\"img/0860/29a21a9f-54bb-4093-ad3f-04823ceaa89f.jpg\",\"img/0860/524b2e98-5767-4d53-942c-ebae6925659b.jpg\"]","trial_type":"similarity","trial_index":42,"time_elapsed":294648,"internal_node_id":"0.0-6.0-36.0"},{"sim_score":5,"rt":5472,"stimulus":"[\"img/0862/f188d4f0-76a4-4102-818c-a209969d73a5.jpg\",\"img/0864/ea327690-500b-4137-bf91-451b309fe6a5.jpg\"]","trial_type":"similarity","trial_index":43,"time_elapsed":301153,"internal_node_id":"0.0-6.0-37.0"},{"sim_score":3,"rt":4602,"stimulus":"[\"img/0766/75c3d627-4f3b-40d5-9d9c-10c8a62db644.jpg\",\"img/0866/f756f7d1-9ad8-4a34-9ef6-7a443d705bfe.jpg\"]","trial_type":"similarity","trial_index":44,"time_elapsed":306821,"internal_node_id":"0.0-6.0-38.0"},{"sim_score":2,"rt":7776,"stimulus":"[\"img/0875/5a1e5100-0d94-4fec-bbe9-ca9894d2cf8e.jpg\",\"img/0898/79233891-305a-4a6a-8ddf-5c8604858203.jpg\"]","trial_type":"similarity","trial_index":45,"time_elapsed":315622,"internal_node_id":"0.0-6.0-39.0"},{"sim_score":5,"rt":5311,"stimulus":"[\"img/0766/60033a74-9919-47e5-913c-71d0d483e7e5.jpg\",\"img/0769/6c0bac4c-5f59-43c7-898c-3ca93cf55cfe.jpg\"]","trial_type":"similarity","trial_index":46,"time_elapsed":321962,"internal_node_id":"0.0-6.0-40.0"},{"sim_score":2,"rt":4832,"stimulus":"[\"img/0874/3ce41e7c-40c8-4d58-a546-171114521796.jpg\",\"img/0764/fb7d4a20-a475-465e-a74f-aa39a0d33d16.jpg\"]","trial_type":"similarity","trial_index":47,"time_elapsed":337831,"internal_node_id":"0.0-6.0-41.0"},{"sim_score":3,"rt":6305,"stimulus":"[\"img/0868/fd307a36-9a3a-47d7-ab7c-f810d0b35040.jpg\",\"img/0902/b03fee99-d5ca-4bf8-871c-a4a743a39842.jpg\"]","trial_type":"similarity","trial_index":48,"time_elapsed":345194,"internal_node_id":"0.0-6.0-42.0"},{"sim_score":2,"rt":6045,"stimulus":"[\"img/0875/03c3c331-738b-4446-af92-3d7386b08c2e.jpg\",\"img/0899/b45c550b-96c3-4255-ad59-48a2b4db1c1e.jpg\"]","trial_type":"similarity","trial_index":49,"time_elapsed":352258,"internal_node_id":"0.0-6.0-43.0"},{"sim_score":5,"rt":4302,"stimulus":"[\"img/0866/9b38d691-1802-4959-ab3f-fc902f0e4ea6.jpg\",\"img/0860/c3379ff7-0763-48fe-a1ec-7ea3d611bc7a.jpg\"]","trial_type":"similarity","trial_index":50,"time_elapsed":357576,"internal_node_id":"0.0-6.0-44.0"},{"sim_score":5,"rt":5300,"stimulus":"[\"img/0766/5d6e0d1d-4369-41f0-a64c-91f3503055c7.jpg\",\"img/0903/bf0a7d60-eca5-44b0-bafd-baf21db9904b.jpg\"]","trial_type":"similarity","trial_index":51,"time_elapsed":363961,"internal_node_id":"0.0-6.0-45.0"},{"sim_score":5,"rt":5318,"stimulus":"[\"img/0901/deff6cfb-0072-4490-bc3e-206bbcd3e8bf.jpg\",\"img/0904/4e58005d-a2ec-4aaa-b199-445343561396.jpg\"]","trial_type":"similarity","trial_index":52,"time_elapsed":370340,"internal_node_id":"0.0-6.0-46.0"},{"sim_score":5,"rt":4719,"stimulus":"[\"img/0758/6e95579b-5166-487c-b8cb-e417c6a218e3.jpg\",\"img/0902/d49743d6-67ae-4c2e-a939-8fd895a0f18e.jpg\"]","trial_type":"similarity","trial_index":53,"time_elapsed":376095,"internal_node_id":"0.0-6.0-47.0"},{"sim_score":7,"rt":4540,"stimulus":"[\"img/0764/5d6fa3ce-9083-410c-bbdb-336a49b94cfc.jpg\",\"img/0764/1f95ab5f-fb65-4d70-b5db-d6bd6351a8aa.jpg\"]","trial_type":"similarity","trial_index":54,"time_elapsed":381665,"internal_node_id":"0.0-6.0-48.0"},{"sim_score":3,"rt":5132,"stimulus":"[\"img/0866/d493a2c8-66eb-44b4-be02-2f327b700b7c.jpg\",\"img/0902/aa6fca32-82b0-4414-b20a-8f6f8aa5a2d2.jpg\"]","trial_type":"similarity","trial_index":55,"time_elapsed":387824,"internal_node_id":"0.0-6.0-49.0"},{"sim_score":1,"rt":4569,"stimulus":"[\"img/0764/50f1b062-d608-4bc0-ab25-b872dcf2ed93.jpg\",\"img/0758/67c0be2f-9e91-48b3-8219-70ac0a1802fa.jpg\"]","trial_type":"similarity","trial_index":56,"time_elapsed":393410,"internal_node_id":"0.0-6.0-50.0"},{"sim_score":5,"rt":4746,"stimulus":"[\"img/0898/0c7dde4f-efce-4b7a-9387-6921635b7890.jpg\",\"img/0894/5ff3c4f6-52e2-4075-8679-be0312e59703.jpg\"]","trial_type":"similarity","trial_index":57,"time_elapsed":399176,"internal_node_id":"0.0-6.0-51.0"},{"sim_score":6,"rt":4203,"stimulus":"[\"img/0875/90da8d75-108a-44ad-b999-e21fee3860d3.jpg\",\"img/0866/bf14b5bd-fb55-47db-86b9-4f8aeb9a6dad.jpg\"]","trial_type":"similarity","trial_index":58,"time_elapsed":404424,"internal_node_id":"0.0-6.0-52.0"},{"sim_score":5,"rt":5054,"stimulus":"[\"img/0904/25365108-e038-4021-aac9-797f2063b337.jpg\",\"img/0904/a8c3c7d2-9bcf-4347-9e03-8203adfc1fc5.jpg\"]","trial_type":"similarity","trial_index":59,"time_elapsed":410497,"internal_node_id":"0.0-6.0-53.0"},{"sim_score":6,"rt":3510,"stimulus":"[\"img/0769/bb8c4e53-6f32-4814-97ee-392d4decfb2e.jpg\",\"img/0769/47700831-0ca2-4fdd-a498-a3bc5a528f43.jpg\"]","trial_type":"similarity","trial_index":60,"time_elapsed":415023,"internal_node_id":"0.0-6.0-54.0"},{"sim_score":1,"rt":3285,"stimulus":"[\"img/0898/26c41340-15bd-4ead-8fe4-c0d0ddca09c2.jpg\",\"img/0758/a085b443-b5d7-4cb2-9ad4-b9dab0fc23f1.jpg\"]","trial_type":"similarity","trial_index":61,"time_elapsed":419363,"internal_node_id":"0.0-6.0-55.0"},{"sim_score":6,"rt":4810,"stimulus":"[\"img/0769/96556ef3-7fac-4c9d-8281-1cb0ea5081bc.jpg\",\"img/0902/3b243e54-0803-4c29-af42-4037c2118495.jpg\"]","trial_type":"similarity","trial_index":62,"time_elapsed":425205,"internal_node_id":"0.0-6.0-56.0"},{"sim_score":5,"rt":4056,"stimulus":"[\"img/0864/8ddd2e30-a1d0-479f-9cbe-591213023893.jpg\",\"img/0881/b1a136f7-8511-4d3a-a0f6-3879acf1e1a1.jpg\"]","trial_type":"similarity","trial_index":63,"time_elapsed":430278,"internal_node_id":"0.0-6.0-57.0"},{"sim_score":6,"rt":3742,"stimulus":"[\"img/0758/ddc336e9-a8b6-4bb9-937a-c7e25e0e9250.jpg\",\"img/0868/4bd5105a-d2c3-4f82-8c80-57196106ba53.jpg\"]","trial_type":"similarity","trial_index":64,"time_elapsed":435037,"internal_node_id":"0.0-6.0-58.0"},{"sim_score":1,"rt":3853,"stimulus":"[\"img/0862/ba89835a-408c-480b-8594-ed4ffa97eb5c.jpg\",\"img/0769/91acb237-65a3-4d0b-9748-af5c7b83d3c7.jpg\"]","trial_type":"similarity","trial_index":65,"time_elapsed":439918,"internal_node_id":"0.0-6.0-59.0"},{"sim_score":6,"rt":4553,"stimulus":"[\"img/0764/55b3fab1-b809-4d38-a461-3f40ce062f52.jpg\",\"img/0903/e2e55a9e-0397-4dc0-8adf-4a54cfefe1fe.jpg\"]","trial_type":"similarity","trial_index":66,"time_elapsed":445504,"internal_node_id":"0.0-6.0-60.0"},{"sim_score":5,"rt":7398,"stimulus":"[\"img/0899/4f7bc593-8ddd-4da3-a0b9-84da730d3370.jpg\",\"img/0899/ddf96ade-692e-4602-bd22-dedbb46401bc.jpg\"]","trial_type":"similarity","trial_index":67,"time_elapsed":453924,"internal_node_id":"0.0-6.0-61.0"},{"sim_score":6,"rt":4552,"stimulus":"[\"img/0860/31ff6436-98bf-4652-bed2-40f627229568.jpg\",\"img/0875/dbdd643e-6d0e-4a5c-ab57-b9c29b9c981a.jpg\"]","trial_type":"similarity","trial_index":68,"time_elapsed":459505,"internal_node_id":"0.0-6.0-62.0"},{"sim_score":5,"rt":4128,"stimulus":"[\"img/0868/d6d1f30d-4323-435a-b194-7892521bc57e.jpg\",\"img/0874/bf14b896-e930-4fd9-9c05-2e83317a2773.jpg\"]","trial_type":"similarity","trial_index":69,"time_elapsed":464657,"internal_node_id":"0.0-6.0-63.0"},{"sim_score":6,"rt":3623,"stimulus":"[\"img/0758/e1ba5e53-addc-436a-b428-d34fc1b130dc.jpg\",\"img/0862/e697469a-ec19-4414-b972-7b9f3564785b.jpg\"]","trial_type":"similarity","trial_index":70,"time_elapsed":469295,"internal_node_id":"0.0-6.0-64.0"},{"sim_score":6,"rt":4216,"stimulus":"[\"img/0904/73920552-103b-4c9c-9ece-e0b8376b4504.jpg\",\"img/0898/40f99fb2-64d2-4e72-8a7f-a1cf60741e69.jpg\"]","trial_type":"similarity","trial_index":71,"time_elapsed":474575,"internal_node_id":"0.0-6.0-65.0"},{"sim_score":5,"rt":3716,"stimulus":"[\"img/0881/f8bd891e-aa09-4782-89db-33e7cb2b0cf1.jpg\",\"img/0866/386235d2-6857-41e7-88a8-25cfc3430025.jpg\"]","trial_type":"similarity","trial_index":72,"time_elapsed":479310,"internal_node_id":"0.0-6.0-66.0"},{"sim_score":2,"rt":4333,"stimulus":"[\"img/0867/f8488a47-94ee-4166-952c-44e16cf172f6.jpg\",\"img/0898/993d8f2d-bef7-4251-a193-0f93a32b7763.jpg\"]","trial_type":"similarity","trial_index":73,"time_elapsed":484657,"internal_node_id":"0.0-6.0-67.0"},{"sim_score":6,"rt":3974,"stimulus":"[\"img/0902/6c2c243a-f663-45db-baf5-038d3d58c589.jpg\",\"img/0764/6fbd1902-fa2a-48d8-bc11-705b8ab68d8f.jpg\"]","trial_type":"similarity","trial_index":74,"time_elapsed":489646,"internal_node_id":"0.0-6.0-68.0"},{"sim_score":7,"rt":4409,"stimulus":"[\"img/0875/8521fd58-3b1e-4dc5-97ae-804edfa6734a.jpg\",\"img/0867/98d8cd96-1476-4fe0-a3a3-04f875500a1b.jpg\"]","trial_type":"similarity","trial_index":75,"time_elapsed":495168,"internal_node_id":"0.0-6.0-69.0"},{"sim_score":6,"rt":5892,"stimulus":"[\"img/0766/989c5c7f-1aff-4442-ac63-9d46acf4a891.jpg\",\"img/0764/39a9fc7e-b863-432c-9374-de43983f31a5.jpg\"]","trial_type":"similarity","trial_index":76,"time_elapsed":502081,"internal_node_id":"0.0-6.0-70.0"},{"sim_score":3,"rt":4112,"stimulus":"[\"img/0894/767a0eec-1064-46b1-b1aa-dfa02b0cd74e.jpg\",\"img/0867/de92135f-5b65-4ed9-b245-188292c7c2f8.jpg\"]","trial_type":"similarity","trial_index":77,"time_elapsed":507253,"internal_node_id":"0.0-6.0-71.0"},{"sim_score":2,"rt":4578,"stimulus":"[\"img/0875/527ced51-8e53-4aab-ab05-86df219104c0.jpg\",\"img/0764/5c8fbafc-e62e-43ed-9b37-f73e8e45147d.jpg\"]","trial_type":"similarity","trial_index":78,"time_elapsed":512865,"internal_node_id":"0.0-6.0-72.0"},{"sim_score":6,"rt":3740,"stimulus":"[\"img/0867/1719a35d-f085-48c0-9099-16c94fe418b4.jpg\",\"img/0866/02f5e6b9-52b7-448c-9708-5b460d0c9a23.jpg\"]","trial_type":"similarity","trial_index":79,"time_elapsed":517635,"internal_node_id":"0.0-6.0-73.0"},{"sim_score":2,"rt":3642,"stimulus":"[\"img/0903/470acfd5-5571-4a7b-b3a4-28d87e098138.jpg\",\"img/0758/20497cbe-ddae-489e-86e2-ab06985ed07c.jpg\"]","trial_type":"similarity","trial_index":80,"time_elapsed":522299,"internal_node_id":"0.0-6.0-74.0"},{"sim_score":1,"rt":4069,"stimulus":"[\"img/0766/d5d38751-8fa5-476f-93e9-86ed2d9045ef.jpg\",\"img/0868/83b4350a-3b70-4cea-b7f5-b5b56f3050a8.jpg\"]","trial_type":"similarity","trial_index":81,"time_elapsed":527406,"internal_node_id":"0.0-6.0-75.0"},{"sim_score":1,"rt":3781,"stimulus":"[\"img/0874/767f289c-9814-4496-803f-745cc8913d1f.jpg\",\"img/0766/d14acac4-7db1-4b07-8f8f-302437326fc0.jpg\"]","trial_type":"similarity","trial_index":82,"time_elapsed":532240,"internal_node_id":"0.0-6.0-76.0"},{"sim_score":5,"rt":4870,"stimulus":"[\"img/0881/4bd34581-94d8-4e88-8c89-5cef864ca3be.jpg\",\"img/0868/3a62db2d-97e9-44a3-b8e3-a48c6f0e423b.jpg\"]","trial_type":"similarity","trial_index":83,"time_elapsed":538127,"internal_node_id":"0.0-6.0-77.0"},{"sim_score":3,"rt":5245,"stimulus":"[\"img/0758/61d64021-9214-4951-bdf8-f871f9827cf9.jpg\",\"img/0901/58978a6d-a3e2-4c59-8d62-f60693ecc0f6.jpg\"]","trial_type":"similarity","trial_index":84,"time_elapsed":544389,"internal_node_id":"0.0-6.0-78.0"},{"sim_score":2,"rt":3570,"stimulus":"[\"img/0881/f4e3e181-b3c9-4af2-a5a4-fc135ab70d2e.jpg\",\"img/0898/81b08535-2020-4c15-9ce4-2f1e460755ae.jpg\"]","trial_type":"similarity","trial_index":85,"time_elapsed":548980,"internal_node_id":"0.0-6.0-79.0"},{"sim_score":3,"rt":4516,"stimulus":"[\"img/0867/a749dddb-69f0-44a6-acdc-2bf295cf6dcc.jpg\",\"img/0758/a709631e-3705-4725-ac40-f0d916924f08.jpg\"]","trial_type":"similarity","trial_index":86,"time_elapsed":554516,"internal_node_id":"0.0-6.0-80.0"},{"sim_score":6,"rt":3593,"stimulus":"[\"img/0769/f73c5138-2f4c-4354-981c-129dff9cc734.jpg\",\"img/0899/a05bea16-2bb4-4cb9-b8fb-4ff975db6971.jpg\"]","trial_type":"similarity","trial_index":87,"time_elapsed":559127,"internal_node_id":"0.0-6.0-81.0"},{"sim_score":7,"rt":4302,"stimulus":"[\"img/0903/aa842abe-6fa3-448a-bf71-88d3ad28663b.jpg\",\"img/0903/81368973-de81-46f4-844f-b901f3bfd66d.jpg\"]","trial_type":"similarity","trial_index":88,"time_elapsed":564480,"internal_node_id":"0.0-6.0-82.0"},{"sim_score":2,"rt":3285,"stimulus":"[\"img/0867/f8159067-056c-41f1-a136-c529fe5e970a.jpg\",\"img/0766/006035d8-c736-4daf-bbe4-a9e373af9da6.jpg\"]","trial_type":"similarity","trial_index":89,"time_elapsed":578097,"internal_node_id":"0.0-6.0-83.0"},{"sim_score":2,"rt":6358,"stimulus":"[\"img/0902/97022122-01e4-46c3-a34f-c6260ad28428.jpg\",\"img/0867/2e1a0b58-cdb1-4107-a14e-452530d7b9b0.jpg\"]","trial_type":"similarity","trial_index":90,"time_elapsed":585493,"internal_node_id":"0.0-6.0-84.0"},{"sim_score":5,"rt":5042,"stimulus":"[\"img/0901/31c032fd-3c3d-4882-a226-da9a80198937.jpg\",\"img/0875/fb732ab5-013a-4366-9f65-27811ed157e9.jpg\"]","trial_type":"similarity","trial_index":91,"time_elapsed":591594,"internal_node_id":"0.0-6.0-85.0"},{"sim_score":2,"rt":4286,"stimulus":"[\"img/0764/cffc80b0-4a90-4acb-a530-6f480f3ca303.jpg\",\"img/0866/be24ab58-230e-4db8-9f45-ff04c9aec6bb.jpg\"]","trial_type":"similarity","trial_index":92,"time_elapsed":596965,"internal_node_id":"0.0-6.0-86.0"},{"sim_score":5,"rt":3903,"stimulus":"[\"img/0901/1b86f2fc-7a1d-4aa8-9252-114f92edef3b.jpg\",\"img/0894/11674fa4-285d-44e2-939f-2228c6a64080.jpg\"]","trial_type":"similarity","trial_index":93,"time_elapsed":601889,"internal_node_id":"0.0-6.0-87.0"},{"sim_score":6,"rt":3154,"stimulus":"[\"img/0898/ec565187-2e31-4fdd-9a5c-153d0c789ae0.jpg\",\"img/0769/a1ce8d07-ba37-40de-bade-2778805521e0.jpg\"]","trial_type":"similarity","trial_index":94,"time_elapsed":606086,"internal_node_id":"0.0-6.0-88.0"},{"sim_score":6,"rt":3780,"stimulus":"[\"img/0769/9ea9ceb6-049e-4ad9-be8f-00645cd35803.jpg\",\"img/0894/e2446cf5-cd48-486a-badc-76498e087fbe.jpg\"]","trial_type":"similarity","trial_index":95,"time_elapsed":610884,"internal_node_id":"0.0-6.0-89.0"},{"sim_score":6,"rt":5162,"stimulus":"[\"img/0862/d0ca4c78-fc35-46ed-bdcc-8e124283c53e.jpg\",\"img/0874/85eb9b8a-c4c6-4e5a-b8e7-363a87a82054.jpg\"]","trial_type":"similarity","trial_index":96,"time_elapsed":617066,"internal_node_id":"0.0-6.0-90.0"},{"sim_score":5,"rt":4263,"stimulus":"[\"img/0894/a3d4170b-b7d8-40e3-955f-87e76ed745fc.jpg\",\"img/0766/908bc45b-7c9e-4f95-806e-86b196ebcb2c.jpg\"]","trial_type":"similarity","trial_index":97,"time_elapsed":622370,"internal_node_id":"0.0-6.0-91.0"},{"sim_score":5,"rt":5904,"stimulus":"[\"img/0874/2c9464dd-8a23-4baa-ac94-1ba3af5c15cc.jpg\",\"img/0867/ac1797e4-8afc-48fe-b252-86d1defb1cca.jpg\"]","trial_type":"similarity","trial_index":98,"time_elapsed":629289,"internal_node_id":"0.0-6.0-92.0"},{"sim_score":2,"rt":4471,"stimulus":"[\"img/0899/0e1d936a-dbe2-4afc-9f19-7b7a1ae6c9ed.jpg\",\"img/0868/6a28c3b0-3d76-498a-9fb7-ddafc665eca8.jpg\"]","trial_type":"similarity","trial_index":99,"time_elapsed":634852,"internal_node_id":"0.0-6.0-93.0"},{"sim_score":2,"rt":4335,"stimulus":"[\"img/0903/6a87dbad-9b8d-4ff5-9c41-03c9aa24f0c3.jpg\",\"img/0862/064818ee-13d5-4618-bb24-21c7368ea278.jpg\"]","trial_type":"similarity","trial_index":100,"time_elapsed":640204,"internal_node_id":"0.0-6.0-94.0"},{"sim_score":5,"rt":6797,"stimulus":"[\"img/0899/66bf4113-ee12-426c-84d2-ea410b6c803e.jpg\",\"img/0766/aaec5f42-7f0a-4a16-aeca-488d757acbcc.jpg\"]","trial_type":"similarity","trial_index":101,"time_elapsed":648024,"internal_node_id":"0.0-6.0-95.0"},{"sim_score":5,"rt":3664,"stimulus":"[\"img/0867/8ba0c5a7-c7e4-42cf-a80a-543763b90779.jpg\",\"img/0868/0d3abd3a-b6c3-4584-a9f7-e2da63748b3d.jpg\"]","trial_type":"similarity","trial_index":102,"time_elapsed":652719,"internal_node_id":"0.0-6.0-96.0"},{"sim_score":5,"rt":5013,"stimulus":"[\"img/0862/de9ad88c-b522-430a-8ee9-eb06a9f85df5.jpg\",\"img/0901/a6776381-91fe-43f8-ab73-261d318f95fd.jpg\"]","trial_type":"similarity","trial_index":103,"time_elapsed":658763,"internal_node_id":"0.0-6.0-97.0"},{"sim_score":1,"rt":4454,"stimulus":"[\"img/0875/ebf7653f-ff45-4e9f-af58-2c042ab3cd2b.jpg\",\"img/0766/5d1b8041-c5a1-4b02-b4fe-3453d98a0d72.jpg\"]","trial_type":"similarity","trial_index":104,"time_elapsed":664274,"internal_node_id":"0.0-6.0-98.0"},{"sim_score":7,"rt":4389,"stimulus":"[\"img/0758/53f35650-e455-4b53-8be4-c3c8271c6466.jpg\",\"img/0874/7e4f2150-3b59-4a36-b5da-a4e0ba410531.jpg\"]","trial_type":"similarity","trial_index":105,"time_elapsed":669692,"internal_node_id":"0.0-6.0-99.0"},{"sim_score":3,"rt":3543,"stimulus":"[\"img/0904/0d25eb24-bb20-4e8d-9787-8b489558b4cb.jpg\",\"img/0868/1a62b2b2-18f5-466e-b564-5176a57c565e.jpg\"]","trial_type":"similarity","trial_index":106,"time_elapsed":674251,"internal_node_id":"0.0-6.0-100.0"},{"sim_score":3,"rt":5373,"stimulus":"[\"img/0903/36e4ab1f-caa9-40b3-8616-faada076df94.jpg\",\"img/0866/93a27239-8317-4e08-98ca-d8b1ff298e07.jpg\"]","trial_type":"similarity","trial_index":107,"time_elapsed":680642,"internal_node_id":"0.0-6.0-101.0"},{"sim_score":2,"rt":3491,"stimulus":"[\"img/0868/15dd6fd7-791e-4b53-b203-195d617521a4.jpg\",\"img/0769/1d8734c4-77ab-4165-9e71-5cfe672ff01c.jpg\"]","trial_type":"similarity","trial_index":108,"time_elapsed":685149,"internal_node_id":"0.0-6.0-102.0"},{"sim_score":5,"rt":4600,"stimulus":"[\"img/0902/b56db912-c3c0-4fc2-b325-d640acd7cb58.jpg\",\"img/0899/fef567a2-c121-4481-9af0-ff108d199bbf.jpg\"]","trial_type":"similarity","trial_index":109,"time_elapsed":690805,"internal_node_id":"0.0-6.0-103.0"},{"sim_score":3,"rt":5094,"stimulus":"[\"img/0868/4a8a45ed-2c4f-421b-9564-409a33ecd26c.jpg\",\"img/0862/f43ceabf-acc1-4107-b857-5d1849808f93.jpg\"]","trial_type":"similarity","trial_index":110,"time_elapsed":696929,"internal_node_id":"0.0-6.0-104.0"},{"sim_score":6,"rt":3760,"stimulus":"[\"img/0903/b548d383-2a95-4575-8c13-647873751ff1.jpg\",\"img/0894/6b2e9509-8699-42b7-9582-7741df0ba2d7.jpg\"]","trial_type":"similarity","trial_index":111,"time_elapsed":701704,"internal_node_id":"0.0-6.0-105.0"},{"sim_score":7,"rt":4250,"stimulus":"[\"img/0864/da39ad34-04e0-40d4-a724-c08d53e0ea09.jpg\",\"img/0874/995f0332-0439-4eb4-add3-957335dbf6d9.jpg\"]","trial_type":"similarity","trial_index":112,"time_elapsed":707049,"internal_node_id":"0.0-6.0-106.0"},{"sim_score":3,"rt":3884,"stimulus":"[\"img/0862/1c20f772-3a51-4a80-aac0-f57dc9f86c28.jpg\",\"img/0902/bd89a85f-3853-4786-acd6-98818ee29f1c.jpg\"]","trial_type":"similarity","trial_index":113,"time_elapsed":711968,"internal_node_id":"0.0-6.0-107.0"},{"sim_score":6,"rt":3753,"stimulus":"[\"img/0904/5aec2708-cf14-4a58-aa30-9a8a61c1be0e.jpg\",\"img/0903/f10e9eb5-0c21-4a6a-944c-5f10a6d0fa4d.jpg\"]","trial_type":"similarity","trial_index":114,"time_elapsed":716739,"internal_node_id":"0.0-6.0-108.0"},{"sim_score":2,"rt":3726,"stimulus":"[\"img/0764/83c93cce-18d1-4aa7-9e23-2c268afe0a46.jpg\",\"img/0864/5f74a653-3bdc-4308-8cca-ac667dc22e1f.jpg\"]","trial_type":"similarity","trial_index":115,"time_elapsed":721488,"internal_node_id":"0.0-6.0-109.0"},{"sim_score":2,"rt":3759,"stimulus":"[\"img/0866/4a87911a-d5be-4d4e-ab8e-3d1f581bf507.jpg\",\"img/0894/6aa5545f-fa7d-4286-bbaa-aaf34dc7ec96.jpg\"]","trial_type":"similarity","trial_index":116,"time_elapsed":726278,"internal_node_id":"0.0-6.0-110.0"},{"sim_score":6,"rt":4557,"stimulus":"[\"img/0899/f95cbdb4-f804-4f5d-ad76-373ad343e658.jpg\",\"img/0903/5248eedd-7e6a-4d39-91b0-06ec227f3ed0.jpg\"]","trial_type":"similarity","trial_index":117,"time_elapsed":731881,"internal_node_id":"0.0-6.0-111.0"},{"sim_score":6,"rt":3713,"stimulus":"[\"img/0902/3f0eeac5-c996-4026-a376-563ce8f28521.jpg\",\"img/0904/b7c2a2c8-df33-4473-b3d4-ff7147c60db3.jpg\"]","trial_type":"similarity","trial_index":118,"time_elapsed":736646,"internal_node_id":"0.0-6.0-112.0"},{"sim_score":6,"rt":5389,"stimulus":"[\"img/0864/c22faebd-9c53-47bc-ada3-b9a30c688e75.jpg\",\"img/0860/99c589b9-9140-4d17-90c0-b344323edcda.jpg\"]","trial_type":"similarity","trial_index":119,"time_elapsed":743058,"internal_node_id":"0.0-6.0-113.0"},{"sim_score":2,"rt":4103,"stimulus":"[\"img/0860/8a92e21b-6a32-4e4a-a445-2d5a487ed0a4.jpg\",\"img/0899/8de08897-b430-42fe-9d42-840670b80f94.jpg\"]","trial_type":"similarity","trial_index":120,"time_elapsed":748178,"internal_node_id":"0.0-6.0-114.0"},{"sim_score":3,"rt":5358,"stimulus":"[\"img/0881/c24f3051-eefa-42de-aba6-fccb56d93c70.jpg\",\"img/0903/0fb24af7-9a26-4e9d-aadc-959a36f683e2.jpg\"]","trial_type":"similarity","trial_index":121,"time_elapsed":754558,"internal_node_id":"0.0-6.0-115.0"},{"sim_score":5,"rt":4279,"stimulus":"[\"img/0894/c505c65a-cde2-4f2c-8cde-f8676f7c894d.jpg\",\"img/0874/eba003b4-cdab-4eee-8bc3-f064c7d94165.jpg\"]","trial_type":"similarity","trial_index":122,"time_elapsed":759867,"internal_node_id":"0.0-6.0-116.0"},{"sim_score":5,"rt":3980,"stimulus":"[\"img/0881/6b1189e6-232d-4042-8885-16dc7b10e0d4.jpg\",\"img/0862/fad1d7c1-8187-43c3-942a-0fc12183e48e.jpg\"]","trial_type":"similarity","trial_index":123,"time_elapsed":764874,"internal_node_id":"0.0-6.0-117.0"},{"sim_score":7,"rt":3691,"stimulus":"[\"img/0868/e0aff734-077f-40dd-9781-74821abd3621.jpg\",\"img/0875/cff79b3a-a797-4393-9757-6275f999ec04.jpg\"]","trial_type":"similarity","trial_index":124,"time_elapsed":769586,"internal_node_id":"0.0-6.0-118.0"},{"sim_score":6,"rt":3639,"stimulus":"[\"img/0860/71e1aad0-2cdf-43bb-94a4-a8c016997c30.jpg\",\"img/0758/d540bee6-b460-4c32-ac57-bc282742d7d4.jpg\"]","trial_type":"similarity","trial_index":125,"time_elapsed":774255,"internal_node_id":"0.0-6.0-119.0"},{"sim_score":7,"rt":3425,"stimulus":"[\"img/0864/87c467d3-abca-482f-ad80-3766c21b1bb3.jpg\",\"img/0875/5a716432-c6ca-4b1c-955a-2b8ac25198ee.jpg\"]","trial_type":"similarity","trial_index":126,"time_elapsed":778696,"internal_node_id":"0.0-6.0-120.0"},{"sim_score":2,"rt":3249,"stimulus":"[\"img/0898/224c1572-56b9-4f16-a9e4-6f3bc9c114bd.jpg\",\"img/0866/8efcaa46-83ab-4dee-a35f-850402aa21ae.jpg\"]","trial_type":"similarity","trial_index":127,"time_elapsed":782974,"internal_node_id":"0.0-6.0-121.0"},{"sim_score":3,"rt":4510,"stimulus":"[\"img/0874/31e22c7c-99aa-40b1-bf03-dd73fa2df4d6.jpg\",\"img/0904/24fc38fe-842c-4831-ad8a-b1de5c25c0a8.jpg\"]","trial_type":"similarity","trial_index":128,"time_elapsed":788508,"internal_node_id":"0.0-6.0-122.0"},{"sim_score":5,"rt":3127,"stimulus":"[\"img/0904/4d7d70a3-9477-4921-bda0-f9531d0a5c5b.jpg\",\"img/0864/49150900-7f25-4ce8-8d10-9b47a71d1997.jpg\"]","trial_type":"similarity","trial_index":129,"time_elapsed":792663,"internal_node_id":"0.0-6.0-123.0"},{"sim_score":7,"rt":3850,"stimulus":"[\"img/0894/792c83e9-a747-4000-bc72-5663d2439edb.jpg\",\"img/0902/511abb54-0094-4f4d-b6dc-3f2c97050521.jpg\"]","trial_type":"similarity","trial_index":130,"time_elapsed":797531,"internal_node_id":"0.0-6.0-124.0"},{"sim_score":5,"rt":4262,"stimulus":"[\"img/0868/5fa7f9d0-f0e5-454c-8224-74d964818f56.jpg\",\"img/0864/300bb811-8b3c-4c42-8653-6097c3725197.jpg\"]","trial_type":"similarity","trial_index":131,"time_elapsed":806710,"internal_node_id":"0.0-6.0-125.0"},{"sim_score":3,"rt":3464,"stimulus":"[\"img/0899/00715b3f-851b-420b-a26b-d7f79f7759a9.jpg\",\"img/0866/d266fece-59b3-46fa-b69f-96f6efb81b59.jpg\"]","trial_type":"similarity","trial_index":132,"time_elapsed":811258,"internal_node_id":"0.0-6.0-126.0"},{"sim_score":2,"rt":3909,"stimulus":"[\"img/0875/2e13d160-eea1-416b-aff1-d37ab99ecc1d.jpg\",\"img/0904/56e73f28-7e64-489b-a161-e6b1a063878d.jpg\"]","trial_type":"similarity","trial_index":133,"time_elapsed":816184,"internal_node_id":"0.0-6.0-127.0"},{"sim_score":2,"rt":3414,"stimulus":"[\"img/0867/179ab87a-8eac-4c52-a41f-2e48e3120f09.jpg\",\"img/0899/25ae6ec8-9565-49fe-a8bb-8d0666f52716.jpg\"]","trial_type":"similarity","trial_index":134,"time_elapsed":820615,"internal_node_id":"0.0-6.0-128.0"},{"sim_score":2,"rt":4418,"stimulus":"[\"img/0901/c6c877e0-dd63-4e00-9657-33af29d55aab.jpg\",\"img/0867/075e0f95-856b-4cbb-acf5-092393aaf04e.jpg\"]","trial_type":"similarity","trial_index":135,"time_elapsed":826050,"internal_node_id":"0.0-6.0-129.0"},{"sim_score":1,"rt":3930,"stimulus":"[\"img/0864/ef9cbca0-4be8-435d-ad49-977259e80409.jpg\",\"img/0769/50985283-d353-4abc-9abe-14a91d56ebe6.jpg\"]","trial_type":"similarity","trial_index":136,"time_elapsed":831049,"internal_node_id":"0.0-6.0-130.0"},{"sim_score":3,"rt":3946,"stimulus":"[\"img/0903/97a42b34-5462-4665-88c7-83c014b33d24.jpg\",\"img/0868/293079b8-7e0c-4afd-a390-1e5d35fe3ded.jpg\"]","trial_type":"similarity","trial_index":137,"time_elapsed":836049,"internal_node_id":"0.0-6.0-131.0"},{"sim_score":5,"rt":3623,"stimulus":"[\"img/0864/efcfbb1b-8197-44c9-b723-40d6c608dd3c.jpg\",\"img/0867/5e07b34d-b40f-4b1c-ac10-49975bace45f.jpg\"]","trial_type":"similarity","trial_index":138,"time_elapsed":840711,"internal_node_id":"0.0-6.0-132.0"},{"sim_score":3,"rt":6548,"stimulus":"[\"img/0901/0adb3bd6-d758-4ba7-9723-3ad6cac05bd5.jpg\",\"img/0860/94ef7afc-e0e6-4a15-98c6-0bfac82bc832.jpg\"]","trial_type":"similarity","trial_index":139,"time_elapsed":848277,"internal_node_id":"0.0-6.0-133.0"},{"sim_score":2,"rt":4398,"stimulus":"[\"img/0881/7e822106-76f7-4b10-a805-14dc68b2cfaf.jpg\",\"img/0766/91fc8c4d-862f-4d2b-b1a1-2db8d729b6b7.jpg\"]","trial_type":"similarity","trial_index":140,"time_elapsed":853767,"internal_node_id":"0.0-6.0-134.0"},{"sim_score":1,"rt":3835,"stimulus":"[\"img/0903/8f7f9939-b8e6-433f-93dd-b362496c80a7.jpg\",\"img/0864/e02eddb5-f468-499c-91bf-f7be3ffe979b.jpg\"]","trial_type":"similarity","trial_index":141,"time_elapsed":858612,"internal_node_id":"0.0-6.0-135.0"},{"sim_score":5,"rt":5665,"stimulus":"[\"img/0758/7fba58df-2a7a-4b76-8a8f-62739f97f271.jpg\",\"img/0894/151063aa-6472-4745-837b-36603aba5966.jpg\"]","trial_type":"similarity","trial_index":142,"time_elapsed":865295,"internal_node_id":"0.0-6.0-136.0"},{"sim_score":2,"rt":4755,"stimulus":"[\"img/0769/1ca58b80-2365-446d-9616-6c1719e6c46f.jpg\",\"img/0860/4c530c3c-6aab-492a-94d1-9c01797bde40.jpg\"]","trial_type":"similarity","trial_index":143,"time_elapsed":871068,"internal_node_id":"0.0-6.0-137.0"},{"sim_score":7,"rt":3801,"stimulus":"[\"img/0904/65e2b70a-b184-4da3-b5c0-5038bdf9469a.jpg\",\"img/0766/d512b99c-a2dc-40d7-8e86-827323a0cbcf.jpg\"]","trial_type":"similarity","trial_index":144,"time_elapsed":875905,"internal_node_id":"0.0-6.0-138.0"},{"sim_score":5,"rt":3314,"stimulus":"[\"img/0868/d98ca254-b195-477f-b57e-5760a2717db8.jpg\",\"img/0860/c7047cd2-7cc1-41b6-8a34-c0986774975f.jpg\"]","trial_type":"similarity","trial_index":145,"time_elapsed":880243,"internal_node_id":"0.0-6.0-139.0"},{"sim_score":5,"rt":4115,"stimulus":"[\"img/0758/7ee8bc8f-c40b-4b3a-84ec-3e83580622d4.jpg\",\"img/0864/65210d57-1153-4657-886a-32e758f49b4a.jpg\"]","trial_type":"similarity","trial_index":146,"time_elapsed":885481,"internal_node_id":"0.0-6.0-140.0"},{"sim_score":6,"rt":5116,"stimulus":"[\"img/0867/db7e032f-162b-46f5-ae67-2b29679adee4.jpg\",\"img/0867/c66898ba-b71b-4d50-84f9-f7f84853a98d.jpg\"]","trial_type":"similarity","trial_index":147,"time_elapsed":891622,"internal_node_id":"0.0-6.0-141.0"},{"sim_score":7,"rt":3125,"stimulus":"[\"img/0898/a8f16b02-e19f-423b-86c3-a36562ae1f9b.jpg\",\"img/0898/f3a3f225-1248-4ac7-b93b-f0ff28485bf3.jpg\"]","trial_type":"similarity","trial_index":148,"time_elapsed":895766,"internal_node_id":"0.0-6.0-142.0"},{"sim_score":3,"rt":4654,"stimulus":"[\"img/0866/07c9c966-3c8d-40e7-8128-92b2acbaed5d.jpg\",\"img/0769/022c7e3b-c3f2-4119-b4bc-f22fa7cae18c.jpg\"]","trial_type":"similarity","trial_index":149,"time_elapsed":901439,"internal_node_id":"0.0-6.0-143.0"},{"sim_score":7,"rt":3443,"stimulus":"[\"img/0860/c5ccd1a4-4bb7-48e1-9b25-72cfaf06909b.jpg\",\"img/0898/08c72dac-f8ad-407a-9ce6-8c9a5d679c3a.jpg\"]","trial_type":"similarity","trial_index":150,"time_elapsed":905901,"internal_node_id":"0.0-6.0-144.0"},{"sim_score":5,"rt":4370,"stimulus":"[\"img/0766/ea09dd5a-d24d-4e97-a099-7da3db1baef1.jpg\",\"img/0864/1d15626a-2f7c-410f-819c-0fa2c967e95e.jpg\"]","trial_type":"similarity","trial_index":151,"time_elapsed":911287,"internal_node_id":"0.0-6.0-145.0"},{"sim_score":1,"rt":3301,"stimulus":"[\"img/0860/702bd09d-df3a-40aa-a267-5f04474305b5.jpg\",\"img/0903/6138142e-c84e-45fc-9487-c974f3d4968a.jpg\"]","trial_type":"similarity","trial_index":152,"time_elapsed":915648,"internal_node_id":"0.0-6.0-146.0"},{"sim_score":3,"rt":4831,"stimulus":"[\"img/0867/6e19c858-b606-45b2-a4c6-910a73f1d82c.jpg\",\"img/0764/f2f23359-8e82-41d3-8900-5b9f4433991d.jpg\"]","trial_type":"similarity","trial_index":153,"time_elapsed":921492,"internal_node_id":"0.0-6.0-147.0"},{"sim_score":6,"rt":4725,"stimulus":"[\"img/0769/3c1efec9-f8fd-487d-8955-4be88e48c832.jpg\",\"img/0904/09dac84f-3d1c-4445-a68e-d0389fdbf1e9.jpg\"]","trial_type":"similarity","trial_index":154,"time_elapsed":927331,"internal_node_id":"0.0-6.0-148.0"},{"sim_score":3,"rt":4228,"stimulus":"[\"img/0764/c643e165-df19-459f-8c2b-8357bf432a17.jpg\",\"img/0901/b123d109-47b4-4f9a-80c9-9bb16da42efa.jpg\"]","trial_type":"similarity","trial_index":155,"time_elapsed":932572,"internal_node_id":"0.0-6.0-149.0"},{"sim_score":3,"rt":4579,"stimulus":"[\"img/0904/1d10df11-b5c8-4370-9a6b-097a7f965895.jpg\",\"img/0899/f58b8d2f-b19d-4b59-8b94-8834be92e4ba.jpg\"]","trial_type":"similarity","trial_index":156,"time_elapsed":938232,"internal_node_id":"0.0-6.0-150.0"},{"sim_score":2,"rt":4136,"stimulus":"[\"img/0862/ee3b7bff-4a70-4e84-9bea-4a565e456acb.jpg\",\"img/0867/85a96c62-548f-4994-9553-819e03c3135a.jpg\"]","trial_type":"similarity","trial_index":157,"time_elapsed":943403,"internal_node_id":"0.0-6.0-151.0"},{"sim_score":7,"rt":4873,"stimulus":"[\"img/0766/26d3ae14-8275-4e08-99b2-a6598c193ddf.jpg\",\"img/0766/e8052e17-9dae-4139-802b-6e590cb2d526.jpg\"]","trial_type":"similarity","trial_index":158,"time_elapsed":949304,"internal_node_id":"0.0-6.0-152.0"},{"sim_score":1,"rt":4409,"stimulus":"[\"img/0862/a0a3a7ba-7798-46a3-b4ca-05e1f6e581d0.jpg\",\"img/0894/e5edf723-72a5-4673-8441-6c1734a8929b.jpg\"]","trial_type":"similarity","trial_index":159,"time_elapsed":954748,"internal_node_id":"0.0-6.0-153.0"},{"sim_score":7,"rt":3214,"stimulus":"[\"img/0899/7b7380d5-d2be-44e5-a09a-c1756f87ef71.jpg\",\"img/0901/00acf6c1-b66e-4060-bb04-4caf29b5a8b0.jpg\"]","trial_type":"similarity","trial_index":160,"time_elapsed":958992,"internal_node_id":"0.0-6.0-154.0"},{"sim_score":7,"rt":3485,"stimulus":"[\"img/0874/adf9a8f1-c40b-402b-b95b-1e85a54a7b62.jpg\",\"img/0874/1016b306-087c-4afc-aa08-fa527b28dc76.jpg\"]","trial_type":"similarity","trial_index":161,"time_elapsed":963493,"internal_node_id":"0.0-6.0-155.0"},{"sim_score":5,"rt":3118,"stimulus":"[\"img/0860/4f695df5-afac-4da7-9875-fee39b0b24ad.jpg\",\"img/0867/50a1b60e-3a29-44bf-b606-d4bd3746fea9.jpg\"]","trial_type":"similarity","trial_index":162,"time_elapsed":967630,"internal_node_id":"0.0-6.0-156.0"},{"sim_score":3,"rt":3307,"stimulus":"[\"img/0901/6e2957f8-f5ab-46f4-87cc-bb50155a098b.jpg\",\"img/0881/db77fe00-aeb0-4d1d-aa66-f3a96fd077e4.jpg\"]","trial_type":"similarity","trial_index":163,"time_elapsed":971957,"internal_node_id":"0.0-6.0-157.0"},{"sim_score":5,"rt":4481,"stimulus":"[\"img/0903/45e2d600-57ff-4d69-b22c-0c7896cd38f0.jpg\",\"img/0902/c920f0e1-1c81-480f-a164-c77f2dc6ce9a.jpg\"]","trial_type":"similarity","trial_index":164,"time_elapsed":977453,"internal_node_id":"0.0-6.0-158.0"},{"sim_score":3,"rt":3712,"stimulus":"[\"img/0860/f44ba3fb-03a2-42f0-8509-2c1ded493086.jpg\",\"img/0764/958b8576-3a3b-4acc-96dc-06b74de69f37.jpg\"]","trial_type":"similarity","trial_index":165,"time_elapsed":982198,"internal_node_id":"0.0-6.0-159.0"},{"sim_score":2,"rt":4519,"stimulus":"[\"img/0902/0eb85fbc-27c8-41df-9d0b-a5f9efd417d1.jpg\",\"img/0875/5a7c4e35-6514-4e12-8879-d16071da4cd6.jpg\"]","trial_type":"similarity","trial_index":166,"time_elapsed":987732,"internal_node_id":"0.0-6.0-160.0"},{"sim_score":2,"rt":4670,"stimulus":"[\"img/0898/b2732712-71c2-45d8-834f-2b2ed5504910.jpg\",\"img/0862/92fcd8a4-8193-4a6a-ae09-dd4a6338b0df.jpg\"]","trial_type":"similarity","trial_index":167,"time_elapsed":993451,"internal_node_id":"0.0-6.0-161.0"},{"sim_score":3,"rt":3819,"stimulus":"[\"img/0894/3adef67d-7676-4995-80b2-bb31b8aca3ef.jpg\",\"img/0875/34132396-d896-4c2d-8087-646dd867e769.jpg\"]","trial_type":"similarity","trial_index":168,"time_elapsed":998297,"internal_node_id":"0.0-6.0-162.0"},{"sim_score":6,"rt":3526,"stimulus":"[\"img/0866/a15b02be-11bb-43e3-b0e0-ecc3bd7dfc49.jpg\",\"img/0864/5f33e097-23e3-4002-882d-76e8cb15f451.jpg\"]","trial_type":"similarity","trial_index":169,"time_elapsed":1002838,"internal_node_id":"0.0-6.0-163.0"},{"sim_score":2,"rt":3339,"stimulus":"[\"img/0766/0bf3793e-c353-45e5-ac6f-753f5f484e10.jpg\",\"img/0862/5d887e9f-89e2-4ebc-80a0-6d46fe6480db.jpg\"]","trial_type":"similarity","trial_index":170,"time_elapsed":1007217,"internal_node_id":"0.0-6.0-164.0"},{"sim_score":6,"rt":3165,"stimulus":"[\"img/0866/0207e9a2-7dbb-40b5-9459-b472aaeceb2a.jpg\",\"img/0874/a3bc679d-619f-4db6-bb68-116dcb757d9c.jpg\"]","trial_type":"similarity","trial_index":171,"time_elapsed":1011394,"internal_node_id":"0.0-6.0-165.0"},{"sim_score":6,"rt":3828,"stimulus":"[\"img/0862/cdaed51d-9e2f-4807-801a-4663c40077e2.jpg\",\"img/0860/8fdba999-b946-4c7d-9891-336018b563ef.jpg\"]","trial_type":"similarity","trial_index":172,"time_elapsed":1016248,"internal_node_id":"0.0-6.0-166.0"},{"sim_score":6,"rt":4627,"stimulus":"[\"img/0766/af3be95e-e52e-4fae-899b-0ff02ec340aa.jpg\",\"img/0901/50e1d53e-a49f-4806-8610-be6dec5a2475.jpg\"]","trial_type":"similarity","trial_index":173,"time_elapsed":1023615,"internal_node_id":"0.0-6.0-167.0"},{"sim_score":7,"rt":4733,"stimulus":"[\"img/0862/00c06b00-3b73-44e9-bc1e-c5aafb438321.jpg\",\"img/0862/4f0a3b4c-afbf-486e-b248-1d54982f54b4.jpg\"]","trial_type":"similarity","trial_index":174,"time_elapsed":1029384,"internal_node_id":"0.0-6.0-168.0"},{"sim_score":7,"rt":3914,"stimulus":"[\"img/0894/492d2f29-d7b9-4422-8be8-47fd58bfaa8b.jpg\",\"img/0764/e30dba15-e68a-4659-89db-e1654b52fe02.jpg\"]","trial_type":"similarity","trial_index":175,"time_elapsed":1034324,"internal_node_id":"0.0-6.0-169.0"},{"sim_score":3,"rt":4081,"stimulus":"[\"img/0874/3f471690-9788-4d03-90c7-f615aecef149.jpg\",\"img/0898/e167334e-cc1d-4986-b3b1-c7bc7da64baa.jpg\"]","trial_type":"similarity","trial_index":176,"time_elapsed":1039451,"internal_node_id":"0.0-6.0-170.0"},{"sim_score":1,"rt":3242,"stimulus":"[\"img/0860/15b24a61-25be-4356-9eac-5ce95d0cb4a4.jpg\",\"img/0766/db750ba0-ce04-46e1-b601-e1b80212bad2.jpg\"]","trial_type":"similarity","trial_index":177,"time_elapsed":1043716,"internal_node_id":"0.0-6.0-171.0"},{"sim_score":1,"rt":3164,"stimulus":"[\"img/0898/661621d4-a14e-487c-8c74-354134a29710.jpg\",\"img/0864/c3b63e8f-ea39-4d70-a1f2-b3fe4be8eb75.jpg\"]","trial_type":"similarity","trial_index":178,"time_elapsed":1048014,"internal_node_id":"0.0-6.0-172.0"},{"sim_score":2,"rt":3526,"stimulus":"[\"img/0881/d373cb9f-a719-4549-a2a4-82def79fb2a5.jpg\",\"img/0764/4bec8d92-75aa-475a-954d-8215dbe538f5.jpg\"]","trial_type":"similarity","trial_index":179,"time_elapsed":1052555,"internal_node_id":"0.0-6.0-173.0"},{"sim_score":1,"rt":3711,"stimulus":"[\"img/0898/5f699581-3853-4547-856c-12f419ba5af7.jpg\",\"img/0868/77091fc7-a590-4ebb-b915-fdb2483a2399.jpg\"]","trial_type":"similarity","trial_index":180,"time_elapsed":1057283,"internal_node_id":"0.0-6.0-174.0"},{"sim_score":7,"rt":3327,"stimulus":"[\"img/0864/6e846d43-94a6-4b37-a268-65eda979f052.jpg\",\"img/0864/1ebbc554-99fa-49f9-8799-317375a79820.jpg\"]","trial_type":"similarity","trial_index":181,"time_elapsed":1061629,"internal_node_id":"0.0-6.0-175.0"},{"sim_score":7,"rt":3332,"stimulus":"[\"img/0899/06b0fc99-0581-461a-9913-d1a5a941ac61.jpg\",\"img/0862/99a99e39-8355-44ec-b993-e7bcec111e1c.jpg\"]","trial_type":"similarity","trial_index":182,"time_elapsed":1065979,"internal_node_id":"0.0-6.0-176.0"},{"sim_score":5,"rt":4425,"stimulus":"[\"img/0875/99698b4d-b4a1-44bc-8c83-8ea755bbbf61.jpg\",\"img/0758/e38fd80d-18d0-42f3-b848-f930788e8bd7.jpg\"]","trial_type":"similarity","trial_index":183,"time_elapsed":1071429,"internal_node_id":"0.0-6.0-177.0"},{"sim_score":1,"rt":3317,"stimulus":"[\"img/0866/6f2a90d7-14f1-4f1b-bd64-fc0af6b9fe44.jpg\",\"img/0901/08d6d1d1-c043-43c4-bb08-d45e062822b9.jpg\"]","trial_type":"similarity","trial_index":184,"time_elapsed":1075762,"internal_node_id":"0.0-6.0-178.0"},{"sim_score":2,"rt":4993,"stimulus":"[\"img/0769/9ea27d61-3d55-418c-8d14-82e90f656f01.jpg\",\"img/0874/a82926a3-0b43-4add-803c-d5f9ea7798ee.jpg\"]","trial_type":"similarity","trial_index":185,"time_elapsed":1081777,"internal_node_id":"0.0-6.0-179.0"},{"sim_score":5,"rt":3155,"stimulus":"[\"img/0875/e7e66b13-b573-431e-b85e-288ce04a35a3.jpg\",\"img/0881/f037e3b0-09cb-4a83-b2d9-6a71fe474e63.jpg\"]","trial_type":"similarity","trial_index":186,"time_elapsed":1085971,"internal_node_id":"0.0-6.0-180.0"},{"sim_score":7,"rt":3239,"stimulus":"[\"img/0866/a04d37f0-99dd-478a-b6c6-58b215138f84.jpg\",\"img/0868/c8ac40c7-6904-4e13-8d61-c75d3052dc4e.jpg\"]","trial_type":"similarity","trial_index":187,"time_elapsed":1090240,"internal_node_id":"0.0-6.0-181.0"},{"sim_score":3,"rt":4832,"stimulus":"[\"img/0899/0adc0bc3-6fca-4078-be6f-d45ddf1653d5.jpg\",\"img/0758/d57c2592-a317-4f63-91be-91a3a9afd222.jpg\"]","trial_type":"similarity","trial_index":188,"time_elapsed":1096126,"internal_node_id":"0.0-6.0-182.0"},{"sim_score":5,"rt":3384,"stimulus":"[\"img/0874/ca76a855-4e77-4f2f-872a-0a718153e7ed.jpg\",\"img/0875/f87b67d7-c33e-40d1-b281-248c4be1cb6e.jpg\"]","trial_type":"similarity","trial_index":189,"time_elapsed":1100538,"internal_node_id":"0.0-6.0-183.0"},{"sim_score":3,"rt":3551,"stimulus":"[\"img/0904/0d17b811-063e-416e-a23c-3b3cfa4fcce5.jpg\",\"img/0862/24cdc752-c2e5-4a17-86a6-6f2045d8553b.jpg\"]","trial_type":"similarity","trial_index":190,"time_elapsed":1105126,"internal_node_id":"0.0-6.0-184.0"},{"sim_score":5,"rt":4193,"stimulus":"[\"img/0902/5b45a7a0-81c8-4a71-aaa2-2ce09adb5a29.jpg\",\"img/0766/33519c22-aaa4-49d7-8d49-ab551db1945e.jpg\"]","trial_type":"similarity","trial_index":191,"time_elapsed":1110344,"internal_node_id":"0.0-6.0-185.0"},{"sim_score":3,"rt":3561,"stimulus":"[\"img/0758/9fb5b2fe-3f00-4fe6-973c-1ce10d5f4cd5.jpg\",\"img/0769/75f7e514-0548-4329-b1e4-93c05e74f038.jpg\"]","trial_type":"similarity","trial_index":192,"time_elapsed":1114923,"internal_node_id":"0.0-6.0-186.0"},{"sim_score":6,"rt":3513,"stimulus":"[\"img/0881/633c6f40-56d9-4b48-bf1c-ecd83116eabb.jpg\",\"img/0881/dea58fad-b4f1-41d9-bd3f-916eff19a3fd.jpg\"]","trial_type":"similarity","trial_index":193,"time_elapsed":1119456,"internal_node_id":"0.0-6.0-187.0"},{"sim_score":6,"rt":3473,"stimulus":"[\"img/0758/caa93da2-9edf-49fa-96b9-32dedd8f5078.jpg\",\"img/0866/945c6710-d15b-4a5b-a8f6-69af0850357f.jpg\"]","trial_type":"similarity","trial_index":194,"time_elapsed":1123945,"internal_node_id":"0.0-6.0-188.0"},{"sim_score":6,"rt":4496,"stimulus":"[\"img/0764/bd2eaa3e-95a9-4a59-a78e-3f81c766eea9.jpg\",\"img/0898/8605a25b-6895-476d-8c13-df7a83f96093.jpg\"]","trial_type":"similarity","trial_index":195,"time_elapsed":1129462,"internal_node_id":"0.0-6.0-189.0"},{"sim_score":6,"rt":4991,"stimulus":"[\"img/0903/2a9c8033-3e70-47fa-816d-97ee1813a3a3.jpg\",\"img/0901/12da1841-e611-435c-9719-109413d536a8.jpg\"]","trial_type":"similarity","trial_index":196,"time_elapsed":1135473,"internal_node_id":"0.0-6.0-190.0"},{"sim_score":5,"rt":3733,"stimulus":"[\"img/0902/44cd9b7e-fdfb-4f78-90de-8d4c9d279365.jpg\",\"img/0898/c3cecf20-f7fd-45fa-97d0-dc0a63e8d6c0.jpg\"]","trial_type":"similarity","trial_index":197,"time_elapsed":1140239,"internal_node_id":"0.0-6.0-191.0"},{"sim_score":2,"rt":5059,"stimulus":"[\"img/0864/a248adb3-c70b-4652-b7a3-776d2a1e904b.jpg\",\"img/0901/f1116359-1ff1-4638-b3b3-700918d36d18.jpg\"]","trial_type":"similarity","trial_index":198,"time_elapsed":1146312,"internal_node_id":"0.0-6.0-192.0"},{"sim_score":2,"rt":3497,"stimulus":"[\"img/0894/1a010553-d598-4b06-a772-81f1e7b3addb.jpg\",\"img/0881/48ed65a5-471f-41af-86ec-3793805c116d.jpg\"]","trial_type":"similarity","trial_index":199,"time_elapsed":1150823,"internal_node_id":"0.0-6.0-193.0"},{"sim_score":5,"rt":3251,"stimulus":"[\"img/0868/7b212364-ff5f-4e28-9241-7eb6ea00161b.jpg\",\"img/0868/4e626425-63c8-484a-8a1d-e66ee4e0bef8.jpg\"]","trial_type":"similarity","trial_index":200,"time_elapsed":1155146,"internal_node_id":"0.0-6.0-194.0"},{"sim_score":5,"rt":3719,"stimulus":"[\"img/0899/ad8268c5-8199-48d0-ad70-c5b6d6c599ec.jpg\",\"img/0764/952d7adc-dc40-4aee-acce-18c2a1d02ea1.jpg\"]","trial_type":"similarity","trial_index":201,"time_elapsed":1159893,"internal_node_id":"0.0-6.0-195.0"},{"sim_score":3,"rt":4117,"stimulus":"[\"img/0881/f6bd3b96-dc40-4e99-8681-bc3a35cf896d.jpg\",\"img/0904/9b3568cc-3cf7-42be-9df3-fdafde7a58b8.jpg\"]","trial_type":"similarity","trial_index":202,"time_elapsed":1165030,"internal_node_id":"0.0-6.0-196.0"},{"sim_score":2,"rt":3277,"stimulus":"[\"img/0864/6f631579-acf1-415c-a42c-1207f62a8d99.jpg\",\"img/0902/0db94c50-f1fb-4091-953c-29ca0466bee2.jpg\"]","trial_type":"similarity","trial_index":203,"time_elapsed":1169336,"internal_node_id":"0.0-6.0-197.0"},{"sim_score":6,"rt":3857,"stimulus":"[\"img/0894/bd34223a-2f66-4e16-9d18-193a746b69ff.jpg\",\"img/0904/60d1a521-edf7-4696-9263-f21ac0e62a01.jpg\"]","trial_type":"similarity","trial_index":204,"time_elapsed":1174224,"internal_node_id":"0.0-6.0-198.0"},{"sim_score":5,"rt":3386,"stimulus":"[\"img/0901/443f2e59-199b-4f7b-9de9-c44ad97326a5.jpg\",\"img/0901/0f670aef-ac36-496d-8142-ee5fdb21dd82.jpg\"]","trial_type":"similarity","trial_index":205,"time_elapsed":1178677,"internal_node_id":"0.0-6.0-199.0"},{"sim_score":2,"rt":3472,"stimulus":"[\"img/0894/9b1333fd-3561-43bf-aee5-99b7b7ca3dc3.jpg\",\"img/0860/b03b963d-949b-4d8d-b19c-4950c89eeca2.jpg\"]","trial_type":"similarity","trial_index":206,"time_elapsed":1183184,"internal_node_id":"0.0-6.0-200.0"},{"sim_score":7,"rt":3522,"stimulus":"[\"img/0898/b3290bf9-215b-4b45-b21a-65bdf73f142f.jpg\",\"img/0903/0e5c2854-42aa-48c0-9c3d-6e1ad2a400bd.jpg\"]","trial_type":"similarity","trial_index":207,"time_elapsed":1187773,"internal_node_id":"0.0-6.0-201.0"},{"sim_score":2,"rt":3532,"stimulus":"[\"img/0864/9b2490c5-a282-400a-9736-e1a0ecbf1cb7.jpg\",\"img/0894/b2d2f66e-e480-46da-a02a-6d0c6b285d78.jpg\"]","trial_type":"similarity","trial_index":208,"time_elapsed":1192333,"internal_node_id":"0.0-6.0-202.0"},{"sim_score":5,"rt":3407,"stimulus":"[\"img/0874/8cdb1c07-1c32-46d2-981c-3636560fa6e5.jpg\",\"img/0860/18dfed73-e36b-4487-a8bd-0b8cff8e3668.jpg\"]","trial_type":"similarity","trial_index":209,"time_elapsed":1196759,"internal_node_id":"0.0-6.0-203.0"},{"sim_score":3,"rt":4053,"stimulus":"[\"img/0862/eefa5588-9efd-4591-aa5f-a2e17c7d7bcc.jpg\",\"img/0875/42910c99-5463-450a-a0f8-d4d060a11455.jpg\"]","trial_type":"similarity","trial_index":210,"time_elapsed":1202516,"internal_node_id":"0.0-6.0-204.0"},{"sim_score":3,"rt":3591,"stimulus":"[\"img/0867/bf560d4f-dee3-4f11-a385-705cc1aa5f3c.jpg\",\"img/0881/4da99fdd-1f40-4bbb-8e21-8833eef313f5.jpg\"]","trial_type":"similarity","trial_index":211,"time_elapsed":1207759,"internal_node_id":"0.0-6.0-205.0"},{"sim_score":2,"rt":3732,"stimulus":"[\"img/0901/fb0a8e69-7f19-4e6e-a6bb-a48f97f9b4f3.jpg\",\"img/0902/6730b12a-f0a7-4587-8c10-a32fae16565b.jpg\"]","trial_type":"similarity","trial_index":212,"time_elapsed":1212566,"internal_node_id":"0.0-6.0-206.0"},{"sim_score":2,"rt":4584,"stimulus":"[\"img/0899/7f9d45d0-b2c6-40d3-aa41-c207db2c411b.jpg\",\"img/0864/0f537697-a314-47c3-a8cc-8df23b7e536c.jpg\"]","trial_type":"similarity","trial_index":213,"time_elapsed":1218251,"internal_node_id":"0.0-6.0-207.0"},{"sim_score":5,"rt":3288,"stimulus":"[\"img/0901/bc47e078-bda4-40ed-b89a-bbd819164b95.jpg\",\"img/0769/35364db7-e0d5-40ef-93dc-faf9dfb95136.jpg\"]","trial_type":"similarity","trial_index":214,"time_elapsed":1222630,"internal_node_id":"0.0-6.0-208.0"},{"sim_score":5,"rt":3935,"stimulus":"[\"img/0902/95a36b6b-9601-4fa5-8fd9-606ea62f9425.jpg\",\"img/0902/04a6ad4a-afc6-4871-8225-56b299af7b6b.jpg\"]","trial_type":"similarity","trial_index":215,"time_elapsed":1231288,"internal_node_id":"0.0-6.0-209.0"},{"view_history":"[{\"page_index\":0,\"viewing_time\":2144}]","rt":2146,"trial_type":"instructions","trial_index":216,"time_elapsed":1234606,"internal_node_id":"0.0-7.0"},{"rt":40657,"responses":"{\"Q0\":\"Townsend's Warbler\"}","answer":["Nashville Warbler"],"trial_type":"image-multi-choice","trial_index":217,"time_elapsed":1276668,"internal_node_id":"0.0-8.0-0.0"},{"rt":4994,"responses":"{\"Q0\":\"Black-and-white Warbler\"}","answer":["Black-and-white Warbler"],"trial_type":"image-multi-choice","trial_index":218,"time_elapsed":1282743,"internal_node_id":"0.0-8.0-1.0"},{"rt":6112,"responses":"{\"Q0\":\"Blackburnian Warbler\"}","answer":["Townsend's Warbler"],"trial_type":"image-multi-choice","trial_index":219,"time_elapsed":1289920,"internal_node_id":"0.0-8.0-2.0"},{"rt":11676,"responses":"{\"Q0\":\"Chipping Sparrow\"}","answer":["Lark Sparrow"],"trial_type":"image-multi-choice","trial_index":220,"time_elapsed":1302695,"internal_node_id":"0.0-8.0-3.0"},{"rt":6203,"responses":"{\"Q0\":\"Tennessee Warbler\"}","answer":["Yellow Warbler"],"trial_type":"image-multi-choice","trial_index":221,"time_elapsed":1310022,"internal_node_id":"0.0-8.0-4.0"},{"rt":17465,"responses":"{\"Q0\":\"Orange-crowned Warbler\"}","answer":["Orange-crowned Warbler"],"trial_type":"image-multi-choice","trial_index":222,"time_elapsed":1328662,"internal_node_id":"0.0-8.0-5.0"},{"rt":5102,"responses":"{\"Q0\":\"White-throated Sparrow\"}","answer":["White-throated Sparrow"],"trial_type":"image-multi-choice","trial_index":223,"time_elapsed":1334922,"internal_node_id":"0.0-8.0-6.0"},{"rt":13278,"responses":"{\"Q0\":\"Lark Sparrow\"}","answer":["Fox Sparrow"],"trial_type":"image-multi-choice","trial_index":224,"time_elapsed":1349266,"internal_node_id":"0.0-8.0-7.0"},{"rt":6590,"responses":"{\"Q0\":\"Swamp Sparrow\"}","answer":["Song Sparrow"],"trial_type":"image-multi-choice","trial_index":225,"time_elapsed":1356966,"internal_node_id":"0.0-8.0-8.0"},{"rt":15476,"responses":"{\"Q0\":\"Magnolia Warbler\"}","answer":["Blackburnian Warbler"],"trial_type":"image-multi-choice","trial_index":226,"time_elapsed":1373481,"internal_node_id":"0.0-8.0-9.0"},{"rt":3747,"responses":"{\"Q0\":\"Song Sparrow\"}","answer":["Vesper Sparrow"],"trial_type":"image-multi-choice","trial_index":227,"time_elapsed":1378267,"internal_node_id":"0.0-8.0-10.0"},{"rt":5362,"responses":"{\"Q0\":\"White-crowned Sparrow\"}","answer":["White-crowned Sparrow"],"trial_type":"image-multi-choice","trial_index":228,"time_elapsed":1384770,"internal_node_id":"0.0-8.0-11.0"},{"rt":11277,"responses":"{\"Q0\":\"Fox Sparrow\"}","answer":["American Tree Sparrow"],"trial_type":"image-multi-choice","trial_index":229,"time_elapsed":1397123,"internal_node_id":"0.0-8.0-12.0"},{"rt":7313,"responses":"{\"Q0\":\"Northern Waterthrush\"}","answer":["Tennessee Warbler"],"trial_type":"image-multi-choice","trial_index":230,"time_elapsed":1405559,"internal_node_id":"0.0-8.0-13.0"},{"rt":6427,"responses":"{\"Q0\":\"Townsend's Warbler\"}","answer":["Magnolia Warbler"],"trial_type":"image-multi-choice","trial_index":231,"time_elapsed":1413066,"internal_node_id":"0.0-8.0-14.0"},{"rt":17915,"responses":"{\"Q0\":\"Tennessee Warbler\"}","answer":["Northern Waterthrush"],"trial_type":"image-multi-choice","trial_index":232,"time_elapsed":1432094,"internal_node_id":"0.0-8.0-15.0"},{"rt":3522,"responses":"{\"Q0\":\"Vesper Sparrow\"}","answer":["Chipping Sparrow"],"trial_type":"image-multi-choice","trial_index":233,"time_elapsed":1436730,"internal_node_id":"0.0-8.0-16.0"},{"rt":8312,"responses":"{\"Q0\":\"Song Sparrow\"}","answer":["Swamp Sparrow"],"trial_type":"image-multi-choice","trial_index":234,"time_elapsed":1446125,"internal_node_id":"0.0-8.0-17.0"},{"rt":3424,"responses":"{\"Q0\":\"Lincoln's Sparrow\"}","answer":["Lincoln's Sparrow"],"trial_type":"image-multi-choice","trial_index":235,"time_elapsed":1450662,"internal_node_id":"0.0-8.0-18.0"},{"rt":6278,"responses":"{\"Q0\":\"Ovenbird\"}","answer":["Ovenbird"],"trial_type":"image-multi-choice","trial_index":236,"time_elapsed":1458009,"internal_node_id":"0.0-8.0-19.0"}]