[{"view_history":"[{\"page_index\":0,\"viewing_time\":1876}]","rt":1878,"trial_type":"instructions","trial_index":0,"time_elapsed":1881,"internal_node_id":"0.0-0.0"},{"sim_score":5,"rt":10486,"stimulus":"[\"img/866.jpg\",\"img/868.jpg\"]","trial_type":"similarity_demo","trial_index":1,"time_elapsed":13386,"internal_node_id":"0.0-1.0"},{"view_history":"[{\"page_index\":0,\"viewing_time\":12896}]","rt":12896,"trial_type":"instructions","trial_index":2,"time_elapsed":27282,"internal_node_id":"0.0-2.0"},{"sim_score":2,"rt":6156,"stimulus":"[\"img/766.jpg\",\"img/867.jpg\"]","trial_type":"similarity_demo","trial_index":3,"time_elapsed":34446,"internal_node_id":"0.0-3.0"},{"view_history":"[{\"page_index\":0,\"viewing_time\":7187}]","rt":7188,"trial_type":"instructions","trial_index":4,"time_elapsed":42635,"internal_node_id":"0.0-4.0"},{"view_history":"[{\"page_index\":0,\"viewing_time\":45606}]","rt":45613,"trial_type":"instructions","trial_index":5,"time_elapsed":89251,"internal_node_id":"0.0-5.0"},{"sim_score":1,"rt":6847,"stimulus":"[\"img/0868/fd307a36-9a3a-47d7-ab7c-f810d0b35040.jpg\",\"img/0901/08d6d1d1-c043-43c4-bb08-d45e062822b9.jpg\"]","trial_type":"similarity","trial_index":6,"time_elapsed":97164,"internal_node_id":"0.0-6.0-0.0"},{"sim_score":2,"rt":3846,"stimulus":"[\"img/0769/e31b3bd8-efcb-413e-aa8c-75fac2b8f2ac.jpg\",\"img/0867/075e0f95-856b-4cbb-acf5-092393aaf04e.jpg\"]","trial_type":"similarity","trial_index":7,"time_elapsed":102021,"internal_node_id":"0.0-6.0-1.0"},{"sim_score":6,"rt":3672,"stimulus":"[\"img/0766/a754e4b6-5019-4cf4-8f58-34c20547a1f5.jpg\",\"img/0898/26c41340-15bd-4ead-8fe4-c0d0ddca09c2.jpg\"]","trial_type":"similarity","trial_index":8,"time_elapsed":106701,"internal_node_id":"0.0-6.0-2.0"},{"sim_score":2,"rt":5152,"stimulus":"[\"img/0902/ca3160ba-ad5d-459f-a1b6-8b4f3c85ecd5.jpg\",\"img/0881/f62bdcd1-a4b7-4d48-83da-d9c9e01c8727.jpg\"]","trial_type":"similarity","trial_index":9,"time_elapsed":112870,"internal_node_id":"0.0-6.0-3.0"},{"sim_score":6,"rt":5396,"stimulus":"[\"img/0894/b422d5c6-3c5a-49ae-a53e-7e88ac993f49.jpg\",\"img/0894/43216a7f-27bc-4b5a-8841-d122a30da9d9.jpg\"]","trial_type":"similarity","trial_index":10,"time_elapsed":119276,"internal_node_id":"0.0-6.0-4.0"},{"sim_score":2,"rt":5038,"stimulus":"[\"img/0874/ca23d307-fc00-4d7d-9106-584c6eb21b4d.jpg\",\"img/0899/5b56dd3e-3f49-47cc-af84-16da6457753b.jpg\"]","trial_type":"similarity","trial_index":11,"time_elapsed":125338,"internal_node_id":"0.0-6.0-5.0"},{"sim_score":6,"rt":3897,"stimulus":"[\"img/0904/b5855d6a-7ef9-46ca-9215-6e9fa046e543.jpg\",\"img/0764/7f4ee8e3-9315-4a57-be7d-db8454b33766.jpg\"]","trial_type":"similarity","trial_index":12,"time_elapsed":130254,"internal_node_id":"0.0-6.0-6.0"},{"sim_score":6,"rt":3310,"stimulus":"[\"img/0899/1b3457ea-87d4-4946-a01c-aac1863ed46c.jpg\",\"img/0898/40f99fb2-64d2-4e72-8a7f-a1cf60741e69.jpg\"]","trial_type":"similarity","trial_index":13,"time_elapsed":134604,"internal_node_id":"0.0-6.0-7.0"},{"sim_score":2,"rt":3184,"stimulus":"[\"img/0874/85eb9b8a-c4c6-4e5a-b8e7-363a87a82054.jpg\",\"img/0903/14f179a2-8786-48a2-8377-88d1d404341b.jpg\"]","trial_type":"similarity","trial_index":14,"time_elapsed":138810,"internal_node_id":"0.0-6.0-8.0"},{"sim_score":6,"rt":3561,"stimulus":"[\"img/0881/292e9b4b-fca0-4ba8-87f1-4048f9e37b7d.jpg\",\"img/0758/d540bee6-b460-4c32-ac57-bc282742d7d4.jpg\"]","trial_type":"similarity","trial_index":15,"time_elapsed":143396,"internal_node_id":"0.0-6.0-9.0"},{"sim_score":6,"rt":6408,"stimulus":"[\"img/0898/b3290bf9-215b-4b45-b21a-65bdf73f142f.jpg\",\"img/0901/4ca4f962-40c0-4c59-b14a-3cd7b8c9029b.jpg\"]","trial_type":"similarity","trial_index":16,"time_elapsed":150816,"internal_node_id":"0.0-6.0-10.0"},{"sim_score":6,"rt":5500,"stimulus":"[\"img/0903/4cbdc464-e562-4ec2-9bb6-15f894fdf528.jpg\",\"img/0769/48a1144d-fbda-4809-991b-fc8424a32ee4.jpg\"]","trial_type":"similarity","trial_index":17,"time_elapsed":157338,"internal_node_id":"0.0-6.0-11.0"},{"sim_score":2,"rt":3515,"stimulus":"[\"img/0764/f2f23359-8e82-41d3-8900-5b9f4433991d.jpg\",\"img/0868/15dd6fd7-791e-4b53-b203-195d617521a4.jpg\"]","trial_type":"similarity","trial_index":18,"time_elapsed":161860,"internal_node_id":"0.0-6.0-12.0"},{"sim_score":2,"rt":3647,"stimulus":"[\"img/0867/a749dddb-69f0-44a6-acdc-2bf295cf6dcc.jpg\",\"img/0903/12bd8657-92e6-4c36-a06c-597e7a1d51f3.jpg\"]","trial_type":"similarity","trial_index":19,"time_elapsed":166538,"internal_node_id":"0.0-6.0-13.0"},{"sim_score":2,"rt":3619,"stimulus":"[\"img/0766/0b48f9e0-7d37-4161-8adb-4e3f5b6b7583.jpg\",\"img/0758/61d64021-9214-4951-bdf8-f871f9827cf9.jpg\"]","trial_type":"similarity","trial_index":20,"time_elapsed":171172,"internal_node_id":"0.0-6.0-14.0"},{"sim_score":5,"rt":5681,"stimulus":"[\"img/0902/5b45a7a0-81c8-4a71-aaa2-2ce09adb5a29.jpg\",\"img/0860/99c589b9-9140-4d17-90c0-b344323edcda.jpg\"]","trial_type":"similarity","trial_index":21,"time_elapsed":177863,"internal_node_id":"0.0-6.0-15.0"},{"sim_score":2,"rt":3171,"stimulus":"[\"img/0769/11518cb3-13ea-4dd0-890c-30cfab728ade.jpg\",\"img/0875/a4935837-7d3c-4df6-88c1-36a94d4991ca.jpg\"]","trial_type":"similarity","trial_index":22,"time_elapsed":182062,"internal_node_id":"0.0-6.0-16.0"},{"sim_score":2,"rt":3856,"stimulus":"[\"img/0904/a8c3c7d2-9bcf-4347-9e03-8203adfc1fc5.jpg\",\"img/0866/bf14b5bd-fb55-47db-86b9-4f8aeb9a6dad.jpg\"]","trial_type":"similarity","trial_index":23,"time_elapsed":186926,"internal_node_id":"0.0-6.0-17.0"},{"sim_score":7,"rt":3527,"stimulus":"[\"img/0875/2c361b79-c3d1-4eda-812e-bf03192407bf.jpg\",\"img/0875/2e13d160-eea1-416b-aff1-d37ab99ecc1d.jpg\"]","trial_type":"similarity","trial_index":24,"time_elapsed":191466,"internal_node_id":"0.0-6.0-18.0"},{"sim_score":7,"rt":4698,"stimulus":"[\"img/0758/53f35650-e455-4b53-8be4-c3c8271c6466.jpg\",\"img/0758/2fa3e613-e676-4e6e-bd12-705327eeb3e1.jpg\"]","trial_type":"similarity","trial_index":25,"time_elapsed":197170,"internal_node_id":"0.0-6.0-19.0"},{"sim_score":2,"rt":4955,"stimulus":"[\"img/0902/6730b12a-f0a7-4587-8c10-a32fae16565b.jpg\",\"img/0874/3ce41e7c-40c8-4d58-a546-171114521796.jpg\"]","trial_type":"similarity","trial_index":26,"time_elapsed":203138,"internal_node_id":"0.0-6.0-20.0"},{"sim_score":6,"rt":5639,"stimulus":"[\"img/0764/d0bef2e0-e16b-4c82-9451-c1d16265eb67.jpg\",\"img/0769/8056889f-2b14-4782-bb25-b4e8896ab65b.jpg\"]","trial_type":"similarity","trial_index":27,"time_elapsed":209804,"internal_node_id":"0.0-6.0-21.0"},{"sim_score":2,"rt":2905,"stimulus":"[\"img/0901/da4fe30f-d12a-491e-96a2-5ab8ebaadd09.jpg\",\"img/0874/99f6563c-8a8d-4c1c-a41d-667b618c3fd5.jpg\"]","trial_type":"similarity","trial_index":28,"time_elapsed":213736,"internal_node_id":"0.0-6.0-22.0"},{"sim_score":2,"rt":3174,"stimulus":"[\"img/0875/dbdd643e-6d0e-4a5c-ab57-b9c29b9c981a.jpg\",\"img/0903/c708d08f-a108-4e04-8288-c3fcf6375db4.jpg\"]","trial_type":"similarity","trial_index":29,"time_elapsed":217939,"internal_node_id":"0.0-6.0-23.0"},{"sim_score":2,"rt":4062,"stimulus":"[\"img/0769/db94b61b-a5a7-4861-9d32-7b02ad194fb0.jpg\",\"img/0881/d373cb9f-a719-4549-a2a4-82def79fb2a5.jpg\"]","trial_type":"similarity","trial_index":30,"time_elapsed":223010,"internal_node_id":"0.0-6.0-24.0"},{"sim_score":2,"rt":3139,"stimulus":"[\"img/0867/85a96c62-548f-4994-9553-819e03c3135a.jpg\",\"img/0904/b7c2a2c8-df33-4473-b3d4-ff7147c60db3.jpg\"]","trial_type":"similarity","trial_index":31,"time_elapsed":227156,"internal_node_id":"0.0-6.0-25.0"},{"sim_score":3,"rt":6372,"stimulus":"[\"img/0860/fd4662f9-4c03-4d79-8593-06735e55a64b.jpg\",\"img/0881/2a8413be-fec2-4de6-88ad-614dd4cccc9d.jpg\"]","trial_type":"similarity","trial_index":32,"time_elapsed":234575,"internal_node_id":"0.0-6.0-26.0"},{"sim_score":5,"rt":5530,"stimulus":"[\"img/0866/be24ab58-230e-4db8-9f45-ff04c9aec6bb.jpg\",\"img/0866/02f5e6b9-52b7-448c-9708-5b460d0c9a23.jpg\"]","trial_type":"similarity","trial_index":33,"time_elapsed":241113,"internal_node_id":"0.0-6.0-27.0"},{"sim_score":2,"rt":3643,"stimulus":"[\"img/0764/21e3292f-01ad-4238-828b-61b817857d16.jpg\",\"img/0862/fb26cb07-d5a9-4653-813c-f41609f26cd5.jpg\"]","trial_type":"similarity","trial_index":34,"time_elapsed":245763,"internal_node_id":"0.0-6.0-28.0"},{"sim_score":2,"rt":5401,"stimulus":"[\"img/0904/6291eb43-c10c-4810-a36a-101d09868b04.jpg\",\"img/0758/caa93da2-9edf-49fa-96b9-32dedd8f5078.jpg\"]","trial_type":"similarity","trial_index":35,"time_elapsed":252169,"internal_node_id":"0.0-6.0-29.0"},{"sim_score":6,"rt":4864,"stimulus":"[\"img/0894/3adef67d-7676-4995-80b2-bb31b8aca3ef.jpg\",\"img/0899/66bf4113-ee12-426c-84d2-ea410b6c803e.jpg\"]","trial_type":"similarity","trial_index":36,"time_elapsed":258050,"internal_node_id":"0.0-6.0-30.0"},{"sim_score":3,"rt":5544,"stimulus":"[\"img/0860/71e1aad0-2cdf-43bb-94a4-a8c016997c30.jpg\",\"img/0904/24fc38fe-842c-4831-ad8a-b1de5c25c0a8.jpg\"]","trial_type":"similarity","trial_index":37,"time_elapsed":264608,"internal_node_id":"0.0-6.0-31.0"},{"sim_score":6,"rt":4893,"stimulus":"[\"img/0874/1016b306-087c-4afc-aa08-fa527b28dc76.jpg\",\"img/0881/f6bd3b96-dc40-4e99-8681-bc3a35cf896d.jpg\"]","trial_type":"similarity","trial_index":38,"time_elapsed":270508,"internal_node_id":"0.0-6.0-32.0"},{"sim_score":2,"rt":4890,"stimulus":"[\"img/0881/d1982897-8d8d-4704-a940-1ee5d07a1f15.jpg\",\"img/0899/4408c14d-c168-4a7d-96f6-bc87bfb58f83.jpg\"]","trial_type":"similarity","trial_index":39,"time_elapsed":276502,"internal_node_id":"0.0-6.0-33.0"},{"sim_score":6,"rt":4781,"stimulus":"[\"img/0866/07c9c966-3c8d-40e7-8128-92b2acbaed5d.jpg\",\"img/0862/d0ca4c78-fc35-46ed-bdcc-8e124283c53e.jpg\"]","trial_type":"similarity","trial_index":40,"time_elapsed":282299,"internal_node_id":"0.0-6.0-34.0"},{"sim_score":2,"rt":3122,"stimulus":"[\"img/0868/e0aff734-077f-40dd-9781-74821abd3621.jpg\",\"img/0894/2d2db7b3-e8a3-499b-b63a-14f51bf73882.jpg\"]","trial_type":"similarity","trial_index":41,"time_elapsed":286435,"internal_node_id":"0.0-6.0-35.0"},{"sim_score":7,"rt":6610,"stimulus":"[\"img/0860/e14d67c1-6d92-4f1e-9257-c8607159c19c.jpg\",\"img/0860/b03b963d-949b-4d8d-b19c-4950c89eeca2.jpg\"]","trial_type":"similarity","trial_index":42,"time_elapsed":294049,"internal_node_id":"0.0-6.0-36.0"},{"sim_score":5,"rt":5795,"stimulus":"[\"img/0862/eefa5588-9efd-4591-aa5f-a2e17c7d7bcc.jpg\",\"img/0864/8ddd2e30-a1d0-479f-9cbe-591213023893.jpg\"]","trial_type":"similarity","trial_index":43,"time_elapsed":300853,"internal_node_id":"0.0-6.0-37.0"},{"sim_score":2,"rt":3264,"stimulus":"[\"img/0766/f011ef45-fb48-44b8-8224-867ed2ccf786.jpg\",\"img/0866/6f2a90d7-14f1-4f1b-bd64-fc0af6b9fe44.jpg\"]","trial_type":"similarity","trial_index":44,"time_elapsed":305123,"internal_node_id":"0.0-6.0-38.0"},{"sim_score":2,"rt":2767,"stimulus":"[\"img/0875/cff79b3a-a797-4393-9757-6275f999ec04.jpg\",\"img/0898/993d8f2d-bef7-4251-a193-0f93a32b7763.jpg\"]","trial_type":"similarity","trial_index":45,"time_elapsed":308897,"internal_node_id":"0.0-6.0-39.0"},{"sim_score":6,"rt":5019,"stimulus":"[\"img/0766/d512b99c-a2dc-40d7-8e86-827323a0cbcf.jpg\",\"img/0769/057eb0a0-aa5b-40c7-9852-21444f68d767.jpg\"]","trial_type":"similarity","trial_index":46,"time_elapsed":314921,"internal_node_id":"0.0-6.0-40.0"},{"sim_score":2,"rt":3626,"stimulus":"[\"img/0874/adf9a8f1-c40b-402b-b95b-1e85a54a7b62.jpg\",\"img/0764/b8e23f4f-ff19-4472-ad9b-2f85548ebca0.jpg\"]","trial_type":"similarity","trial_index":47,"time_elapsed":330175,"internal_node_id":"0.0-6.0-41.0"},{"sim_score":3,"rt":6740,"stimulus":"[\"img/0868/1a62b2b2-18f5-466e-b564-5176a57c565e.jpg\",\"img/0902/1f4a4c62-68c1-4993-b213-05652a173ed1.jpg\"]","trial_type":"similarity","trial_index":48,"time_elapsed":337922,"internal_node_id":"0.0-6.0-42.0"},{"sim_score":2,"rt":3953,"stimulus":"[\"img/0875/ebf7653f-ff45-4e9f-af58-2c042ab3cd2b.jpg\",\"img/0899/25ae6ec8-9565-49fe-a8bb-8d0666f52716.jpg\"]","trial_type":"similarity","trial_index":49,"time_elapsed":342880,"internal_node_id":"0.0-6.0-43.0"},{"sim_score":5,"rt":3615,"stimulus":"[\"img/0866/23a224f3-2012-4fc8-8e0f-3c36f8de27fd.jpg\",\"img/0860/d9a0d117-6d1d-41c0-8fec-9aff0fd9e9f2.jpg\"]","trial_type":"similarity","trial_index":50,"time_elapsed":347504,"internal_node_id":"0.0-6.0-44.0"},{"sim_score":5,"rt":5132,"stimulus":"[\"img/0766/c23b5a20-e50f-4d85-841f-cf89212a4348.jpg\",\"img/0903/f67c4ab9-f8c2-4fcd-848a-a54a7b031002.jpg\"]","trial_type":"similarity","trial_index":51,"time_elapsed":353640,"internal_node_id":"0.0-6.0-45.0"},{"sim_score":6,"rt":3322,"stimulus":"[\"img/0901/00acf6c1-b66e-4060-bb04-4caf29b5a8b0.jpg\",\"img/0904/0d17b811-063e-416e-a23c-3b3cfa4fcce5.jpg\"]","trial_type":"similarity","trial_index":52,"time_elapsed":357986,"internal_node_id":"0.0-6.0-46.0"},{"sim_score":3,"rt":3715,"stimulus":"[\"img/0758/f61ecdf8-a7d4-4db0-b84d-be46f7cfaffc.jpg\",\"img/0902/b76efc44-a50f-4dac-b997-ff0222376067.jpg\"]","trial_type":"similarity","trial_index":53,"time_elapsed":362723,"internal_node_id":"0.0-6.0-47.0"},{"sim_score":7,"rt":3233,"stimulus":"[\"img/0764/56441045-b648-4ede-9632-3e9c0227080b.jpg\",\"img/0764/03c07b98-3f18-4b71-bb70-ecff564a78d1.jpg\"]","trial_type":"similarity","trial_index":54,"time_elapsed":366961,"internal_node_id":"0.0-6.0-48.0"},{"sim_score":2,"rt":8833,"stimulus":"[\"img/0866/a04d37f0-99dd-478a-b6c6-58b215138f84.jpg\",\"img/0902/b03129ba-b087-4558-af37-e8399d6217d6.jpg\"]","trial_type":"similarity","trial_index":55,"time_elapsed":376807,"internal_node_id":"0.0-6.0-49.0"},{"sim_score":1,"rt":6444,"stimulus":"[\"img/0764/c0b03adb-bd0a-4b96-a915-a827c2fd5211.jpg\",\"img/0758/3ddd05d3-557e-4ee7-8b78-9d2d681d8ae2.jpg\"]","trial_type":"similarity","trial_index":56,"time_elapsed":384255,"internal_node_id":"0.0-6.0-50.0"},{"sim_score":6,"rt":5116,"stimulus":"[\"img/0898/81b08535-2020-4c15-9ce4-2f1e460755ae.jpg\",\"img/0894/4739e06d-c31e-4bf1-bf91-c97fa9afb456.jpg\"]","trial_type":"similarity","trial_index":57,"time_elapsed":390375,"internal_node_id":"0.0-6.0-51.0"},{"sim_score":5,"rt":4013,"stimulus":"[\"img/0875/3ecb367d-e9eb-4826-8aaa-7aa72fb98019.jpg\",\"img/0866/11a1d141-be5e-443c-98c1-a9d4d9e3dec0.jpg\"]","trial_type":"similarity","trial_index":58,"time_elapsed":395406,"internal_node_id":"0.0-6.0-52.0"},{"sim_score":5,"rt":5372,"stimulus":"[\"img/0904/9dd5708f-3f8b-46a9-b49f-2f2fab87b357.jpg\",\"img/0904/9d30eff1-46ef-4453-b11e-124ef8145c00.jpg\"]","trial_type":"similarity","trial_index":59,"time_elapsed":401791,"internal_node_id":"0.0-6.0-53.0"},{"sim_score":7,"rt":5843,"stimulus":"[\"img/0769/1ca58b80-2365-446d-9616-6c1719e6c46f.jpg\",\"img/0769/ecda2fb3-556b-43ba-8a67-e87dd75ff2b4.jpg\"]","trial_type":"similarity","trial_index":60,"time_elapsed":408639,"internal_node_id":"0.0-6.0-54.0"},{"sim_score":3,"rt":6189,"stimulus":"[\"img/0898/e167334e-cc1d-4986-b3b1-c7bc7da64baa.jpg\",\"img/0758/65d426d6-3ff6-415d-8654-a43b83ecc4fe.jpg\"]","trial_type":"similarity","trial_index":61,"time_elapsed":415842,"internal_node_id":"0.0-6.0-55.0"},{"sim_score":5,"rt":7761,"stimulus":"[\"img/0769/6c0bac4c-5f59-43c7-898c-3ca93cf55cfe.jpg\",\"img/0902/2db723b6-130f-454c-8c8d-88829edbcd65.jpg\"]","trial_type":"similarity","trial_index":62,"time_elapsed":424607,"internal_node_id":"0.0-6.0-56.0"},{"sim_score":6,"rt":7564,"stimulus":"[\"img/0864/66091c27-e588-4476-8af9-265dc6be4156.jpg\",\"img/0881/4da99fdd-1f40-4bbb-8e21-8833eef313f5.jpg\"]","trial_type":"similarity","trial_index":63,"time_elapsed":433175,"internal_node_id":"0.0-6.0-57.0"},{"sim_score":5,"rt":3724,"stimulus":"[\"img/0758/e38fd80d-18d0-42f3-b848-f930788e8bd7.jpg\",\"img/0868/83b4350a-3b70-4cea-b7f5-b5b56f3050a8.jpg\"]","trial_type":"similarity","trial_index":64,"time_elapsed":437926,"internal_node_id":"0.0-6.0-58.0"},{"sim_score":3,"rt":4660,"stimulus":"[\"img/0862/a0a3a7ba-7798-46a3-b4ca-05e1f6e581d0.jpg\",\"img/0769/180213e5-1e50-4b4e-87b6-add77ba04d39.jpg\"]","trial_type":"similarity","trial_index":65,"time_elapsed":443593,"internal_node_id":"0.0-6.0-59.0"},{"sim_score":5,"rt":5153,"stimulus":"[\"img/0764/62fafeea-6274-48ce-976f-35d3d3484c65.jpg\",\"img/0903/5ea5bbe0-f238-4724-abe7-9ed8dee8c0ba.jpg\"]","trial_type":"similarity","trial_index":66,"time_elapsed":449753,"internal_node_id":"0.0-6.0-60.0"},{"sim_score":7,"rt":6650,"stimulus":"[\"img/0899/565ccdd9-0933-4536-a625-3c0e25a713dd.jpg\",\"img/0899/a048912c-b12c-40e3-90af-46b69b0cc4fe.jpg\"]","trial_type":"similarity","trial_index":67,"time_elapsed":457407,"internal_node_id":"0.0-6.0-61.0"},{"sim_score":5,"rt":6342,"stimulus":"[\"img/0860/15b24a61-25be-4356-9eac-5ce95d0cb4a4.jpg\",\"img/0875/99698b4d-b4a1-44bc-8c83-8ea755bbbf61.jpg\"]","trial_type":"similarity","trial_index":68,"time_elapsed":464754,"internal_node_id":"0.0-6.0-62.0"},{"sim_score":5,"rt":7528,"stimulus":"[\"img/0868/d6d1f30d-4323-435a-b194-7892521bc57e.jpg\",\"img/0874/7e4f2150-3b59-4a36-b5da-a4e0ba410531.jpg\"]","trial_type":"similarity","trial_index":69,"time_elapsed":473287,"internal_node_id":"0.0-6.0-63.0"},{"sim_score":5,"rt":4196,"stimulus":"[\"img/0758/dd559618-7f09-4a07-8018-d311c4a5ea29.jpg\",\"img/0862/ad593cc7-cabe-4bb7-8e14-8a447a0717b4.jpg\"]","trial_type":"similarity","trial_index":70,"time_elapsed":478487,"internal_node_id":"0.0-6.0-64.0"},{"sim_score":5,"rt":5875,"stimulus":"[\"img/0904/fe746a3f-8458-48d0-8a13-8cba2a9df9f8.jpg\",\"img/0898/0c7dde4f-efce-4b7a-9387-6921635b7890.jpg\"]","trial_type":"similarity","trial_index":71,"time_elapsed":485367,"internal_node_id":"0.0-6.0-65.0"},{"sim_score":5,"rt":5978,"stimulus":"[\"img/0881/4bd34581-94d8-4e88-8c89-5cef864ca3be.jpg\",\"img/0866/93a27239-8317-4e08-98ca-d8b1ff298e07.jpg\"]","trial_type":"similarity","trial_index":72,"time_elapsed":492399,"internal_node_id":"0.0-6.0-66.0"},{"sim_score":1,"rt":5987,"stimulus":"[\"img/0867/ac1797e4-8afc-48fe-b252-86d1defb1cca.jpg\",\"img/0898/a114b375-cb89-44ba-9498-74213f1ecdee.jpg\"]","trial_type":"similarity","trial_index":73,"time_elapsed":499391,"internal_node_id":"0.0-6.0-67.0"},{"sim_score":5,"rt":6261,"stimulus":"[\"img/0902/3f0eeac5-c996-4026-a376-563ce8f28521.jpg\",\"img/0764/a3226bc4-dcc3-4608-bde8-1414d685ce5c.jpg\"]","trial_type":"similarity","trial_index":74,"time_elapsed":506655,"internal_node_id":"0.0-6.0-68.0"},{"sim_score":7,"rt":5348,"stimulus":"[\"img/0875/8521fd58-3b1e-4dc5-97ae-804edfa6734a.jpg\",\"img/0867/8ba0c5a7-c7e4-42cf-a80a-543763b90779.jpg\"]","trial_type":"similarity","trial_index":75,"time_elapsed":513007,"internal_node_id":"0.0-6.0-69.0"},{"sim_score":6,"rt":4996,"stimulus":"[\"img/0766/d3bab2fc-ddcc-40a0-bb72-c0d0ebe19978.jpg\",\"img/0764/0e7ed062-f798-4366-8a24-6f430926f919.jpg\"]","trial_type":"similarity","trial_index":76,"time_elapsed":519006,"internal_node_id":"0.0-6.0-70.0"},{"sim_score":2,"rt":8085,"stimulus":"[\"img/0894/133a1636-d123-4893-873c-1718050f832a.jpg\",\"img/0867/a498eef3-9fa4-4ab2-9778-4ae82ac40dc5.jpg\"]","trial_type":"similarity","trial_index":77,"time_elapsed":528160,"internal_node_id":"0.0-6.0-71.0"},{"sim_score":1,"rt":4625,"stimulus":"[\"img/0875/03c3c331-738b-4446-af92-3d7386b08c2e.jpg\",\"img/0764/c643e165-df19-459f-8c2b-8357bf432a17.jpg\"]","trial_type":"similarity","trial_index":78,"time_elapsed":533790,"internal_node_id":"0.0-6.0-72.0"},{"sim_score":7,"rt":4516,"stimulus":"[\"img/0867/50a1b60e-3a29-44bf-b606-d4bd3746fea9.jpg\",\"img/0866/945c6710-d15b-4a5b-a8f6-69af0850357f.jpg\"]","trial_type":"similarity","trial_index":79,"time_elapsed":539310,"internal_node_id":"0.0-6.0-73.0"},{"sim_score":3,"rt":4812,"stimulus":"[\"img/0903/f1fa0f8d-e62b-4b4a-a174-31a0fabfe61b.jpg\",\"img/0758/335851a0-a55b-46d8-ab05-8463eda48349.jpg\"]","trial_type":"similarity","trial_index":80,"time_elapsed":545126,"internal_node_id":"0.0-6.0-74.0"},{"sim_score":3,"rt":5955,"stimulus":"[\"img/0766/27f54113-8561-4568-9ffe-0a1650ae65ec.jpg\",\"img/0868/c8ac40c7-6904-4e13-8d61-c75d3052dc4e.jpg\"]","trial_type":"similarity","trial_index":81,"time_elapsed":552087,"internal_node_id":"0.0-6.0-75.0"},{"sim_score":3,"rt":5981,"stimulus":"[\"img/0874/2c9464dd-8a23-4baa-ac94-1ba3af5c15cc.jpg\",\"img/0766/dd3e18d0-0c98-4d05-b850-69976ee8cd75.jpg\"]","trial_type":"similarity","trial_index":82,"time_elapsed":559072,"internal_node_id":"0.0-6.0-76.0"},{"sim_score":5,"rt":5412,"stimulus":"[\"img/0881/dea58fad-b4f1-41d9-bd3f-916eff19a3fd.jpg\",\"img/0868/8b0b8473-e2c0-4331-aa56-c3a5c29369da.jpg\"]","trial_type":"similarity","trial_index":83,"time_elapsed":565488,"internal_node_id":"0.0-6.0-77.0"},{"sim_score":2,"rt":6180,"stimulus":"[\"img/0758/7ee8bc8f-c40b-4b3a-84ec-3e83580622d4.jpg\",\"img/0901/5657dd86-0ff9-4753-ba2b-9dfb223e5c89.jpg\"]","trial_type":"similarity","trial_index":84,"time_elapsed":572672,"internal_node_id":"0.0-6.0-78.0"},{"sim_score":3,"rt":6884,"stimulus":"[\"img/0881/ed4c971f-0873-4fc8-b6d6-e8bbd82f0bcc.jpg\",\"img/0898/0af304a2-6a7a-4082-ab7c-4450cd08cc58.jpg\"]","trial_type":"similarity","trial_index":85,"time_elapsed":580560,"internal_node_id":"0.0-6.0-79.0"},{"sim_score":5,"rt":5092,"stimulus":"[\"img/0867/de92135f-5b65-4ed9-b245-188292c7c2f8.jpg\",\"img/0758/ddc336e9-a8b6-4bb9-937a-c7e25e0e9250.jpg\"]","trial_type":"similarity","trial_index":86,"time_elapsed":586656,"internal_node_id":"0.0-6.0-80.0"},{"sim_score":5,"rt":6684,"stimulus":"[\"img/0769/5bd04f55-d091-4f57-85db-38426f26bd1a.jpg\",\"img/0899/93494f3b-d539-4075-b027-d82e344563da.jpg\"]","trial_type":"similarity","trial_index":87,"time_elapsed":594344,"internal_node_id":"0.0-6.0-81.0"},{"sim_score":7,"rt":4603,"stimulus":"[\"img/0903/b7e3723f-fd03-4f3d-8820-f19496463a34.jpg\",\"img/0903/70d764d9-1f35-4da7-a35d-4cc39834d270.jpg\"]","trial_type":"similarity","trial_index":88,"time_elapsed":599952,"internal_node_id":"0.0-6.0-82.0"},{"sim_score":2,"rt":6035,"stimulus":"[\"img/0867/179ab87a-8eac-4c52-a41f-2e48e3120f09.jpg\",\"img/0766/d50d734f-285c-4840-bc7a-c8dd4aff391e.jpg\"]","trial_type":"similarity","trial_index":89,"time_elapsed":615850,"internal_node_id":"0.0-6.0-83.0"},{"sim_score":1,"rt":4696,"stimulus":"[\"img/0902/c920f0e1-1c81-480f-a164-c77f2dc6ce9a.jpg\",\"img/0867/cc72ed48-7704-422c-86d6-467a1145287a.jpg\"]","trial_type":"similarity","trial_index":90,"time_elapsed":621551,"internal_node_id":"0.0-6.0-84.0"},{"sim_score":1,"rt":5252,"stimulus":"[\"img/0901/d61f267a-c492-4db6-9bfb-61efd49cf072.jpg\",\"img/0875/42910c99-5463-450a-a0f8-d4d060a11455.jpg\"]","trial_type":"similarity","trial_index":91,"time_elapsed":627807,"internal_node_id":"0.0-6.0-85.0"},{"sim_score":3,"rt":6749,"stimulus":"[\"img/0764/e42c1dc9-7831-4995-be19-7ca7b4d141fc.jpg\",\"img/0866/8efcaa46-83ab-4dee-a35f-850402aa21ae.jpg\"]","trial_type":"similarity","trial_index":92,"time_elapsed":635560,"internal_node_id":"0.0-6.0-86.0"},{"sim_score":4,"rt":4403,"stimulus":"[\"img/0901/b123d109-47b4-4f9a-80c9-9bb16da42efa.jpg\",\"img/0894/5c7677b0-a4f1-479e-b274-7822c415175a.jpg\"]","trial_type":"similarity","trial_index":93,"time_elapsed":640966,"internal_node_id":"0.0-6.0-87.0"},{"sim_score":5,"rt":5268,"stimulus":"[\"img/0898/f3a3f225-1248-4ac7-b93b-f0ff28485bf3.jpg\",\"img/0769/a3cfbdeb-acb3-4eac-87fb-4b117f42d4f8.jpg\"]","trial_type":"similarity","trial_index":94,"time_elapsed":647239,"internal_node_id":"0.0-6.0-88.0"},{"sim_score":7,"rt":7060,"stimulus":"[\"img/0769/8598a429-c671-4d2f-842c-32f681f5e412.jpg\",\"img/0894/5ff3c4f6-52e2-4075-8679-be0312e59703.jpg\"]","trial_type":"similarity","trial_index":95,"time_elapsed":655320,"internal_node_id":"0.0-6.0-89.0"},{"sim_score":6,"rt":8418,"stimulus":"[\"img/0862/e0f1a4e9-e1b6-45f7-af67-89f334e6630d.jpg\",\"img/0874/eba003b4-cdab-4eee-8bc3-f064c7d94165.jpg\"]","trial_type":"similarity","trial_index":96,"time_elapsed":664743,"internal_node_id":"0.0-6.0-90.0"},{"sim_score":6,"rt":7441,"stimulus":"[\"img/0894/b2d2f66e-e480-46da-a02a-6d0c6b285d78.jpg\",\"img/0766/717fd72f-a281-499b-a5ba-5e2ecc4d4866.jpg\"]","trial_type":"similarity","trial_index":97,"time_elapsed":673190,"internal_node_id":"0.0-6.0-91.0"},{"sim_score":4,"rt":2676,"stimulus":"[\"img/0874/ca76a855-4e77-4f2f-872a-0a718153e7ed.jpg\",\"img/0867/6e19c858-b606-45b2-a4c6-910a73f1d82c.jpg\"]","trial_type":"similarity","trial_index":98,"time_elapsed":676871,"internal_node_id":"0.0-6.0-92.0"},{"sim_score":1,"rt":5621,"stimulus":"[\"img/0899/a05bea16-2bb4-4cb9-b8fb-4ff975db6971.jpg\",\"img/0868/4e626425-63c8-484a-8a1d-e66ee4e0bef8.jpg\"]","trial_type":"similarity","trial_index":99,"time_elapsed":683496,"internal_node_id":"0.0-6.0-93.0"},{"sim_score":4,"rt":6493,"stimulus":"[\"img/0903/680ed18e-b311-4ecf-9b00-7dea32128334.jpg\",\"img/0862/99a99e39-8355-44ec-b993-e7bcec111e1c.jpg\"]","trial_type":"similarity","trial_index":100,"time_elapsed":690992,"internal_node_id":"0.0-6.0-94.0"},{"sim_score":5,"rt":7254,"stimulus":"[\"img/0899/fef567a2-c121-4481-9af0-ff108d199bbf.jpg\",\"img/0766/33519c22-aaa4-49d7-8d49-ab551db1945e.jpg\"]","trial_type":"similarity","trial_index":101,"time_elapsed":699250,"internal_node_id":"0.0-6.0-95.0"},{"sim_score":3,"rt":5714,"stimulus":"[\"img/0867/c71dc569-f49c-4397-8381-68b8d726736d.jpg\",\"img/0868/293079b8-7e0c-4afd-a390-1e5d35fe3ded.jpg\"]","trial_type":"similarity","trial_index":102,"time_elapsed":705967,"internal_node_id":"0.0-6.0-96.0"},{"sim_score":4,"rt":3676,"stimulus":"[\"img/0862/4f0a3b4c-afbf-486e-b248-1d54982f54b4.jpg\",\"img/0901/04a53755-6da5-44d4-a7a6-48a6bc0a2280.jpg\"]","trial_type":"similarity","trial_index":103,"time_elapsed":710647,"internal_node_id":"0.0-6.0-97.0"},{"sim_score":1,"rt":4148,"stimulus":"[\"img/0875/5a1e5100-0d94-4fec-bbe9-ca9894d2cf8e.jpg\",\"img/0766/b84598d0-5b41-4841-88b0-b441b48289f5.jpg\"]","trial_type":"similarity","trial_index":104,"time_elapsed":715799,"internal_node_id":"0.0-6.0-98.0"},{"sim_score":7,"rt":4885,"stimulus":"[\"img/0758/d41c06bf-ebaf-454b-91c6-1a17f917b659.jpg\",\"img/0874/29830da7-be5f-44e5-b141-652a0ccf7269.jpg\"]","trial_type":"similarity","trial_index":105,"time_elapsed":721687,"internal_node_id":"0.0-6.0-99.0"},{"sim_score":3,"rt":5341,"stimulus":"[\"img/0904/06dacdc5-2206-4fb8-92b7-88042d22833c.jpg\",\"img/0868/7b212364-ff5f-4e28-9241-7eb6ea00161b.jpg\"]","trial_type":"similarity","trial_index":106,"time_elapsed":728032,"internal_node_id":"0.0-6.0-100.0"},{"sim_score":1,"rt":5116,"stimulus":"[\"img/0903/b548d383-2a95-4575-8c13-647873751ff1.jpg\",\"img/0866/386235d2-6857-41e7-88a8-25cfc3430025.jpg\"]","trial_type":"similarity","trial_index":107,"time_elapsed":734152,"internal_node_id":"0.0-6.0-101.0"},{"sim_score":1,"rt":4460,"stimulus":"[\"img/0868/09a9ef4d-d000-4cfa-a6aa-ebec7c2edeb4.jpg\",\"img/0769/35364db7-e0d5-40ef-93dc-faf9dfb95136.jpg\"]","trial_type":"similarity","trial_index":108,"time_elapsed":739623,"internal_node_id":"0.0-6.0-102.0"},{"sim_score":5,"rt":3637,"stimulus":"[\"img/0902/d49743d6-67ae-4c2e-a939-8fd895a0f18e.jpg\",\"img/0899/06b0fc99-0581-461a-9913-d1a5a941ac61.jpg\"]","trial_type":"similarity","trial_index":109,"time_elapsed":744266,"internal_node_id":"0.0-6.0-103.0"},{"sim_score":4,"rt":5673,"stimulus":"[\"img/0868/d98ca254-b195-477f-b57e-5760a2717db8.jpg\",\"img/0862/24cdc752-c2e5-4a17-86a6-6f2045d8553b.jpg\"]","trial_type":"similarity","trial_index":110,"time_elapsed":750949,"internal_node_id":"0.0-6.0-104.0"},{"sim_score":5,"rt":4016,"stimulus":"[\"img/0903/0fb24af7-9a26-4e9d-aadc-959a36f683e2.jpg\",\"img/0894/3664e04c-c6d3-4c9b-afb6-25d89974b174.jpg\"]","trial_type":"similarity","trial_index":111,"time_elapsed":755988,"internal_node_id":"0.0-6.0-105.0"},{"sim_score":6,"rt":5328,"stimulus":"[\"img/0864/ef9cbca0-4be8-435d-ad49-977259e80409.jpg\",\"img/0874/767f289c-9814-4496-803f-745cc8913d1f.jpg\"]","trial_type":"similarity","trial_index":112,"time_elapsed":762319,"internal_node_id":"0.0-6.0-106.0"},{"sim_score":4,"rt":2747,"stimulus":"[\"img/0862/ee3b7bff-4a70-4e84-9bea-4a565e456acb.jpg\",\"img/0902/8af4182a-9af9-4212-a436-9195555112d6.jpg\"]","trial_type":"similarity","trial_index":113,"time_elapsed":766071,"internal_node_id":"0.0-6.0-107.0"},{"sim_score":5,"rt":3908,"stimulus":"[\"img/0904/56e73f28-7e64-489b-a161-e6b1a063878d.jpg\",\"img/0903/31b5a5f4-b695-4af1-bad2-a19650a05498.jpg\"]","trial_type":"similarity","trial_index":114,"time_elapsed":770983,"internal_node_id":"0.0-6.0-108.0"},{"sim_score":3,"rt":3939,"stimulus":"[\"img/0764/f64dfa83-333d-494c-87b5-73e942f1766e.jpg\",\"img/0864/0116ca98-293d-4fa6-a93b-5a6144ef64cc.jpg\"]","trial_type":"similarity","trial_index":115,"time_elapsed":775927,"internal_node_id":"0.0-6.0-109.0"},{"sim_score":3,"rt":3025,"stimulus":"[\"img/0866/d266fece-59b3-46fa-b69f-96f6efb81b59.jpg\",\"img/0894/a3d4170b-b7d8-40e3-955f-87e76ed745fc.jpg\"]","trial_type":"similarity","trial_index":116,"time_elapsed":779967,"internal_node_id":"0.0-6.0-110.0"},{"sim_score":5,"rt":4380,"stimulus":"[\"img/0899/0adc0bc3-6fca-4078-be6f-d45ddf1653d5.jpg\",\"img/0903/5c6b1f57-b3a2-40f5-9fb1-82785e24b6a0.jpg\"]","trial_type":"similarity","trial_index":117,"time_elapsed":785351,"internal_node_id":"0.0-6.0-111.0"},{"sim_score":5,"rt":3220,"stimulus":"[\"img/0902/c018bd7a-d91a-4192-aea4-7259cfcdb6c4.jpg\",\"img/0904/4e58005d-a2ec-4aaa-b199-445343561396.jpg\"]","trial_type":"similarity","trial_index":118,"time_elapsed":789575,"internal_node_id":"0.0-6.0-112.0"},{"sim_score":4,"rt":3859,"stimulus":"[\"img/0864/e8bd659f-aa43-4748-877e-3118e8b4e189.jpg\",\"img/0860/8a92e21b-6a32-4e4a-a445-2d5a487ed0a4.jpg\"]","trial_type":"similarity","trial_index":119,"time_elapsed":794439,"internal_node_id":"0.0-6.0-113.0"},{"sim_score":4,"rt":2948,"stimulus":"[\"img/0860/524b2e98-5767-4d53-942c-ebae6925659b.jpg\",\"img/0899/d8f2dd94-570e-4e8c-a087-d96090fb9e8c.jpg\"]","trial_type":"similarity","trial_index":120,"time_elapsed":798391,"internal_node_id":"0.0-6.0-114.0"},{"sim_score":3,"rt":4136,"stimulus":"[\"img/0881/f4e3e181-b3c9-4af2-a5a4-fc135ab70d2e.jpg\",\"img/0903/8f7f9939-b8e6-433f-93dd-b362496c80a7.jpg\"]","trial_type":"similarity","trial_index":121,"time_elapsed":803537,"internal_node_id":"0.0-6.0-115.0"},{"sim_score":3,"rt":3641,"stimulus":"[\"img/0894/6aa5545f-fa7d-4286-bbaa-aaf34dc7ec96.jpg\",\"img/0874/3f471690-9788-4d03-90c7-f615aecef149.jpg\"]","trial_type":"similarity","trial_index":122,"time_elapsed":808183,"internal_node_id":"0.0-6.0-116.0"},{"sim_score":4,"rt":3164,"stimulus":"[\"img/0881/0c7068da-d0d9-4103-bda1-74ef7a2b32c3.jpg\",\"img/0862/5d887e9f-89e2-4ebc-80a0-6d46fe6480db.jpg\"]","trial_type":"similarity","trial_index":123,"time_elapsed":812351,"internal_node_id":"0.0-6.0-117.0"},{"sim_score":6,"rt":2772,"stimulus":"[\"img/0868/4a8a45ed-2c4f-421b-9564-409a33ecd26c.jpg\",\"img/0875/5a716432-c6ca-4b1c-955a-2b8ac25198ee.jpg\"]","trial_type":"similarity","trial_index":124,"time_elapsed":816127,"internal_node_id":"0.0-6.0-118.0"},{"sim_score":5,"rt":4500,"stimulus":"[\"img/0860/4c530c3c-6aab-492a-94d1-9c01797bde40.jpg\",\"img/0758/67c0be2f-9e91-48b3-8219-70ac0a1802fa.jpg\"]","trial_type":"similarity","trial_index":125,"time_elapsed":821630,"internal_node_id":"0.0-6.0-119.0"},{"sim_score":5,"rt":4997,"stimulus":"[\"img/0864/e336a4c5-6648-4fd7-b2f6-93a3fb83f8c6.jpg\",\"img/0875/90da8d75-108a-44ad-b999-e21fee3860d3.jpg\"]","trial_type":"similarity","trial_index":126,"time_elapsed":827630,"internal_node_id":"0.0-6.0-120.0"},{"sim_score":3,"rt":4685,"stimulus":"[\"img/0898/4184e5a2-84ea-4f36-9b42-ae58646f6f87.jpg\",\"img/0866/620cd1aa-0800-4414-8f6e-90342e7a99ad.jpg\"]","trial_type":"similarity","trial_index":127,"time_elapsed":833318,"internal_node_id":"0.0-6.0-121.0"},{"sim_score":4,"rt":4388,"stimulus":"[\"img/0874/a82926a3-0b43-4add-803c-d5f9ea7798ee.jpg\",\"img/0904/ba8e689e-9ca6-4608-a2a1-3b0940666ae6.jpg\"]","trial_type":"similarity","trial_index":128,"time_elapsed":838710,"internal_node_id":"0.0-6.0-122.0"},{"sim_score":2,"rt":4029,"stimulus":"[\"img/0904/09dac84f-3d1c-4445-a68e-d0389fdbf1e9.jpg\",\"img/0864/6e846d43-94a6-4b37-a268-65eda979f052.jpg\"]","trial_type":"similarity","trial_index":129,"time_elapsed":843743,"internal_node_id":"0.0-6.0-123.0"},{"sim_score":5,"rt":4476,"stimulus":"[\"img/0894/661b9f9f-4bde-487a-b1ed-87085fde6948.jpg\",\"img/0902/6c2c243a-f663-45db-baf5-038d3d58c589.jpg\"]","trial_type":"similarity","trial_index":130,"time_elapsed":849222,"internal_node_id":"0.0-6.0-124.0"},{"sim_score":4,"rt":3413,"stimulus":"[\"img/0868/0d3abd3a-b6c3-4584-a9f7-e2da63748b3d.jpg\",\"img/0864/c3b63e8f-ea39-4d70-a1f2-b3fe4be8eb75.jpg\"]","trial_type":"similarity","trial_index":131,"time_elapsed":860501,"internal_node_id":"0.0-6.0-125.0"},{"sim_score":3,"rt":5134,"stimulus":"[\"img/0899/ddf96ade-692e-4602-bd22-dedbb46401bc.jpg\",\"img/0866/f756f7d1-9ad8-4a34-9ef6-7a443d705bfe.jpg\"]","trial_type":"similarity","trial_index":132,"time_elapsed":866638,"internal_node_id":"0.0-6.0-126.0"},{"sim_score":2,"rt":4301,"stimulus":"[\"img/0875/f87b67d7-c33e-40d1-b281-248c4be1cb6e.jpg\",\"img/0904/1d10df11-b5c8-4370-9a6b-097a7f965895.jpg\"]","trial_type":"similarity","trial_index":133,"time_elapsed":871942,"internal_node_id":"0.0-6.0-127.0"},{"sim_score":2,"rt":3973,"stimulus":"[\"img/0867/db7e032f-162b-46f5-ae67-2b29679adee4.jpg\",\"img/0899/7f9d45d0-b2c6-40d3-aa41-c207db2c411b.jpg\"]","trial_type":"similarity","trial_index":134,"time_elapsed":876918,"internal_node_id":"0.0-6.0-128.0"},{"sim_score":1,"rt":3700,"stimulus":"[\"img/0901/0f670aef-ac36-496d-8142-ee5fdb21dd82.jpg\",\"img/0867/c66898ba-b71b-4d50-84f9-f7f84853a98d.jpg\"]","trial_type":"similarity","trial_index":135,"time_elapsed":881625,"internal_node_id":"0.0-6.0-129.0"},{"sim_score":4,"rt":2273,"stimulus":"[\"img/0864/e02eddb5-f468-499c-91bf-f7be3ffe979b.jpg\",\"img/0769/f2740c58-7c02-433f-920b-746b0b75435b.jpg\"]","trial_type":"similarity","trial_index":136,"time_elapsed":884902,"internal_node_id":"0.0-6.0-130.0"},{"sim_score":3,"rt":4492,"stimulus":"[\"img/0903/b4a0f61e-a964-4b79-a9a7-f767a8f92f34.jpg\",\"img/0868/5fa7f9d0-f0e5-454c-8224-74d964818f56.jpg\"]","trial_type":"similarity","trial_index":137,"time_elapsed":890398,"internal_node_id":"0.0-6.0-131.0"},{"sim_score":4,"rt":2852,"stimulus":"[\"img/0864/300bb811-8b3c-4c42-8653-6097c3725197.jpg\",\"img/0867/98d8cd96-1476-4fe0-a3a3-04f875500a1b.jpg\"]","trial_type":"similarity","trial_index":138,"time_elapsed":894254,"internal_node_id":"0.0-6.0-132.0"},{"sim_score":4,"rt":4507,"stimulus":"[\"img/0901/b453df0b-4c39-49bb-8ced-6127efffa898.jpg\",\"img/0860/17b44a7d-c5ca-479f-9e87-f65a64f5c80e.jpg\"]","trial_type":"similarity","trial_index":139,"time_elapsed":899766,"internal_node_id":"0.0-6.0-133.0"},{"sim_score":3,"rt":4036,"stimulus":"[\"img/0881/566f45f8-5fed-4479-a60f-26377e60a62d.jpg\",\"img/0766/79767d11-b612-4e8a-9e4b-a8ac95bb6a54.jpg\"]","trial_type":"similarity","trial_index":140,"time_elapsed":904806,"internal_node_id":"0.0-6.0-134.0"},{"sim_score":4,"rt":3020,"stimulus":"[\"img/0903/47e39de8-6959-469f-8be9-6999a6db207c.jpg\",\"img/0864/49150900-7f25-4ce8-8d10-9b47a71d1997.jpg\"]","trial_type":"similarity","trial_index":141,"time_elapsed":908830,"internal_node_id":"0.0-6.0-135.0"},{"sim_score":4,"rt":4972,"stimulus":"[\"img/0758/a709631e-3705-4725-ac40-f0d916924f08.jpg\",\"img/0894/bd34223a-2f66-4e16-9d18-193a746b69ff.jpg\"]","trial_type":"similarity","trial_index":142,"time_elapsed":914805,"internal_node_id":"0.0-6.0-136.0"},{"sim_score":3,"rt":3212,"stimulus":"[\"img/0769/ebef2ddc-ba59-4e0e-97f8-927864eb5081.jpg\",\"img/0860/5383b320-1518-4095-a58e-5cc1ae30b64c.jpg\"]","trial_type":"similarity","trial_index":143,"time_elapsed":919021,"internal_node_id":"0.0-6.0-137.0"},{"sim_score":6,"rt":3796,"stimulus":"[\"img/0904/696ebb60-8891-417a-91fd-c53218907a95.jpg\",\"img/0766/09f646c8-a69e-4ed3-879c-8d29b04ad7f9.jpg\"]","trial_type":"similarity","trial_index":144,"time_elapsed":923822,"internal_node_id":"0.0-6.0-138.0"},{"sim_score":4,"rt":2428,"stimulus":"[\"img/0868/6a28c3b0-3d76-498a-9fb7-ddafc665eca8.jpg\",\"img/0860/9593362c-9fe5-4d12-9735-6000a11f6aa5.jpg\"]","trial_type":"similarity","trial_index":145,"time_elapsed":927254,"internal_node_id":"0.0-6.0-139.0"},{"sim_score":5,"rt":4220,"stimulus":"[\"img/0758/d57c2592-a317-4f63-91be-91a3a9afd222.jpg\",\"img/0864/ea327690-500b-4137-bf91-451b309fe6a5.jpg\"]","trial_type":"similarity","trial_index":146,"time_elapsed":932478,"internal_node_id":"0.0-6.0-140.0"},{"sim_score":5,"rt":5413,"stimulus":"[\"img/0867/1719a35d-f085-48c0-9099-16c94fe418b4.jpg\",\"img/0867/f26f6b60-f772-4f4c-95a4-addc62cfd692.jpg\"]","trial_type":"similarity","trial_index":147,"time_elapsed":938893,"internal_node_id":"0.0-6.0-141.0"},{"sim_score":7,"rt":4764,"stimulus":"[\"img/0898/08c72dac-f8ad-407a-9ce6-8c9a5d679c3a.jpg\",\"img/0898/ec565187-2e31-4fdd-9a5c-153d0c789ae0.jpg\"]","trial_type":"similarity","trial_index":148,"time_elapsed":944665,"internal_node_id":"0.0-6.0-142.0"},{"sim_score":1,"rt":3377,"stimulus":"[\"img/0866/4a87911a-d5be-4d4e-ab8e-3d1f581bf507.jpg\",\"img/0769/96556ef3-7fac-4c9d-8281-1cb0ea5081bc.jpg\"]","trial_type":"similarity","trial_index":149,"time_elapsed":949046,"internal_node_id":"0.0-6.0-143.0"},{"sim_score":4,"rt":2524,"stimulus":"[\"img/0860/c47fdead-eb02-4989-b078-26f4852f44fe.jpg\",\"img/0898/b2732712-71c2-45d8-834f-2b2ed5504910.jpg\"]","trial_type":"similarity","trial_index":150,"time_elapsed":952573,"internal_node_id":"0.0-6.0-144.0"},{"sim_score":2,"rt":2853,"stimulus":"[\"img/0766/f5f78e4e-d88f-4866-951a-118ba9fec4d0.jpg\",\"img/0864/3d4de670-b290-4285-9c3d-12a0e3af44e9.jpg\"]","trial_type":"similarity","trial_index":151,"time_elapsed":956429,"internal_node_id":"0.0-6.0-145.0"},{"sim_score":5,"rt":4444,"stimulus":"[\"img/0860/c5ccd1a4-4bb7-48e1-9b25-72cfaf06909b.jpg\",\"img/0903/b0df4094-a3be-4b5b-81bd-8d260f13f61b.jpg\"]","trial_type":"similarity","trial_index":152,"time_elapsed":961877,"internal_node_id":"0.0-6.0-146.0"},{"sim_score":2,"rt":3349,"stimulus":"[\"img/0867/7d1c497b-c1b3-4ed8-abb5-d7f73306015f.jpg\",\"img/0764/e30dba15-e68a-4659-89db-e1654b52fe02.jpg\"]","trial_type":"similarity","trial_index":153,"time_elapsed":966231,"internal_node_id":"0.0-6.0-147.0"},{"sim_score":5,"rt":6667,"stimulus":"[\"img/0769/688d0c52-ad73-4065-a5eb-f8c10d076bff.jpg\",\"img/0904/96e503ea-6630-4996-85f2-0237688ce441.jpg\"]","trial_type":"similarity","trial_index":154,"time_elapsed":973901,"internal_node_id":"0.0-6.0-148.0"},{"sim_score":5,"rt":3869,"stimulus":"[\"img/0764/55b3fab1-b809-4d38-a461-3f40ce062f52.jpg\",\"img/0901/effc03f6-8f9d-46db-a66c-16fc83891c5c.jpg\"]","trial_type":"similarity","trial_index":155,"time_elapsed":978773,"internal_node_id":"0.0-6.0-149.0"},{"sim_score":6,"rt":2853,"stimulus":"[\"img/0904/60d1a521-edf7-4696-9263-f21ac0e62a01.jpg\",\"img/0899/0433d056-aa30-4f8a-9aa1-abbb951e4edd.jpg\"]","trial_type":"similarity","trial_index":156,"time_elapsed":982630,"internal_node_id":"0.0-6.0-150.0"},{"sim_score":4,"rt":2483,"stimulus":"[\"img/0862/cdaed51d-9e2f-4807-801a-4663c40077e2.jpg\",\"img/0867/12264664-1860-46df-8c21-162b9817cdda.jpg\"]","trial_type":"similarity","trial_index":157,"time_elapsed":986117,"internal_node_id":"0.0-6.0-151.0"},{"sim_score":7,"rt":4437,"stimulus":"[\"img/0766/af3be95e-e52e-4fae-899b-0ff02ec340aa.jpg\",\"img/0766/69e486f7-dbef-456b-9d48-53d814248a28.jpg\"]","trial_type":"similarity","trial_index":158,"time_elapsed":991557,"internal_node_id":"0.0-6.0-152.0"},{"sim_score":3,"rt":3757,"stimulus":"[\"img/0862/47ed5efd-4ec9-4b74-bb4e-a5f5cf0c3e7d.jpg\",\"img/0894/38f5931f-926d-414e-b498-66b188978b7a.jpg\"]","trial_type":"similarity","trial_index":159,"time_elapsed":996317,"internal_node_id":"0.0-6.0-153.0"},{"sim_score":5,"rt":2957,"stimulus":"[\"img/0899/8abe6c69-822c-436c-9bf2-96c818b49ba5.jpg\",\"img/0901/deff6cfb-0072-4490-bc3e-206bbcd3e8bf.jpg\"]","trial_type":"similarity","trial_index":160,"time_elapsed":1000277,"internal_node_id":"0.0-6.0-154.0"},{"sim_score":6,"rt":3955,"stimulus":"[\"img/0874/8cdb1c07-1c32-46d2-981c-3636560fa6e5.jpg\",\"img/0874/bf14b896-e930-4fd9-9c05-2e83317a2773.jpg\"]","trial_type":"similarity","trial_index":161,"time_elapsed":1005238,"internal_node_id":"0.0-6.0-155.0"},{"sim_score":4,"rt":2627,"stimulus":"[\"img/0860/8fdba999-b946-4c7d-9891-336018b563ef.jpg\",\"img/0867/f8488a47-94ee-4166-952c-44e16cf172f6.jpg\"]","trial_type":"similarity","trial_index":162,"time_elapsed":1008869,"internal_node_id":"0.0-6.0-156.0"},{"sim_score":1,"rt":4492,"stimulus":"[\"img/0901/fb0a8e69-7f19-4e6e-a6bb-a48f97f9b4f3.jpg\",\"img/0881/5fe04dd0-5c74-47b7-99c8-b068db9ca26a.jpg\"]","trial_type":"similarity","trial_index":163,"time_elapsed":1014365,"internal_node_id":"0.0-6.0-157.0"},{"sim_score":5,"rt":4645,"stimulus":"[\"img/0903/0e5c2854-42aa-48c0-9c3d-6e1ad2a400bd.jpg\",\"img/0902/d5e25767-e8ec-45f3-ac0a-7b4a6f7a9edc.jpg\"]","trial_type":"similarity","trial_index":164,"time_elapsed":1020013,"internal_node_id":"0.0-6.0-158.0"},{"sim_score":3,"rt":4596,"stimulus":"[\"img/0860/e8b8c51e-1834-4875-8b61-6c5bc9b178bd.jpg\",\"img/0764/d7c215ab-ea9a-45be-8d5f-417d5b9a8a17.jpg\"]","trial_type":"similarity","trial_index":165,"time_elapsed":1025613,"internal_node_id":"0.0-6.0-159.0"},{"sim_score":2,"rt":7516,"stimulus":"[\"img/0902/aa6fca32-82b0-4414-b20a-8f6f8aa5a2d2.jpg\",\"img/0875/34132396-d896-4c2d-8087-646dd867e769.jpg\"]","trial_type":"similarity","trial_index":166,"time_elapsed":1034132,"internal_node_id":"0.0-6.0-160.0"},{"sim_score":4,"rt":4533,"stimulus":"[\"img/0898/01bfe666-3510-4fc7-964f-d00d28732dc8.jpg\",\"img/0862/53a9cf7c-93c4-41b9-952f-07d17f7a17b2.jpg\"]","trial_type":"similarity","trial_index":167,"time_elapsed":1039668,"internal_node_id":"0.0-6.0-161.0"},{"sim_score":3,"rt":6124,"stimulus":"[\"img/0894/5a49e858-2850-4892-9a06-e9f0efb5f94d.jpg\",\"img/0875/d59ff733-eaff-4ee2-9443-06954dd0bcb6.jpg\"]","trial_type":"similarity","trial_index":168,"time_elapsed":1046797,"internal_node_id":"0.0-6.0-162.0"},{"sim_score":5,"rt":4276,"stimulus":"[\"img/0866/0207e9a2-7dbb-40b5-9459-b472aaeceb2a.jpg\",\"img/0864/1ebbc554-99fa-49f9-8799-317375a79820.jpg\"]","trial_type":"similarity","trial_index":169,"time_elapsed":1052077,"internal_node_id":"0.0-6.0-163.0"},{"sim_score":4,"rt":1989,"stimulus":"[\"img/0766/db750ba0-ce04-46e1-b601-e1b80212bad2.jpg\",\"img/0862/064818ee-13d5-4618-bb24-21c7368ea278.jpg\"]","trial_type":"similarity","trial_index":170,"time_elapsed":1055069,"internal_node_id":"0.0-6.0-164.0"},{"sim_score":5,"rt":4044,"stimulus":"[\"img/0866/c446214b-a368-4c65-ae39-ea46894256ab.jpg\",\"img/0874/a3bc679d-619f-4db6-bb68-116dcb757d9c.jpg\"]","trial_type":"similarity","trial_index":171,"time_elapsed":1060116,"internal_node_id":"0.0-6.0-165.0"},{"sim_score":6,"rt":5148,"stimulus":"[\"img/0862/7918ca67-5bd3-4606-a5ea-c39fb11a9297.jpg\",\"img/0860/18dfed73-e36b-4487-a8bd-0b8cff8e3668.jpg\"]","trial_type":"similarity","trial_index":172,"time_elapsed":1066268,"internal_node_id":"0.0-6.0-166.0"},{"sim_score":4,"rt":4052,"stimulus":"[\"img/0766/d14acac4-7db1-4b07-8f8f-302437326fc0.jpg\",\"img/0901/5b97abf9-f0c8-4fd1-b921-36d574779078.jpg\"]","trial_type":"similarity","trial_index":173,"time_elapsed":1075883,"internal_node_id":"0.0-6.0-167.0"},{"sim_score":7,"rt":3590,"stimulus":"[\"img/0862/f43ceabf-acc1-4107-b857-5d1849808f93.jpg\",\"img/0862/fad1d7c1-8187-43c3-942a-0fc12183e48e.jpg\"]","trial_type":"similarity","trial_index":174,"time_elapsed":1080477,"internal_node_id":"0.0-6.0-168.0"},{"sim_score":5,"rt":4212,"stimulus":"[\"img/0894/792c83e9-a747-4000-bc72-5663d2439edb.jpg\",\"img/0764/1f95ab5f-fb65-4d70-b5db-d6bd6351a8aa.jpg\"]","trial_type":"similarity","trial_index":175,"time_elapsed":1085692,"internal_node_id":"0.0-6.0-169.0"},{"sim_score":3,"rt":5677,"stimulus":"[\"img/0874/995f0332-0439-4eb4-add3-957335dbf6d9.jpg\",\"img/0898/79233891-305a-4a6a-8ddf-5c8604858203.jpg\"]","trial_type":"similarity","trial_index":176,"time_elapsed":1092372,"internal_node_id":"0.0-6.0-170.0"},{"sim_score":2,"rt":4213,"stimulus":"[\"img/0860/4f695df5-afac-4da7-9875-fee39b0b24ad.jpg\",\"img/0766/91fc8c4d-862f-4d2b-b1a1-2db8d729b6b7.jpg\"]","trial_type":"similarity","trial_index":177,"time_elapsed":1097588,"internal_node_id":"0.0-6.0-171.0"},{"sim_score":3,"rt":4813,"stimulus":"[\"img/0898/04e39a7a-fcf6-4156-ab0e-f5871f335e1c.jpg\",\"img/0864/0f537697-a314-47c3-a8cc-8df23b7e536c.jpg\"]","trial_type":"similarity","trial_index":178,"time_elapsed":1103404,"internal_node_id":"0.0-6.0-172.0"},{"sim_score":4,"rt":2004,"stimulus":"[\"img/0881/f7a8cc63-8842-40a4-9ff8-fe530310d62c.jpg\",\"img/0764/23ea9375-f801-4a96-9925-7d453da887c7.jpg\"]","trial_type":"similarity","trial_index":179,"time_elapsed":1106412,"internal_node_id":"0.0-6.0-173.0"},{"sim_score":1,"rt":3803,"stimulus":"[\"img/0898/cd3aaa3f-efa9-4ab3-8d6f-a6a9273ddf42.jpg\",\"img/0868/77091fc7-a590-4ebb-b915-fdb2483a2399.jpg\"]","trial_type":"similarity","trial_index":180,"time_elapsed":1111220,"internal_node_id":"0.0-6.0-174.0"},{"sim_score":6,"rt":4085,"stimulus":"[\"img/0864/b3c4e378-28f0-4699-9338-2a257b4bca04.jpg\",\"img/0864/6f631579-acf1-415c-a42c-1207f62a8d99.jpg\"]","trial_type":"similarity","trial_index":181,"time_elapsed":1116308,"internal_node_id":"0.0-6.0-175.0"},{"sim_score":4,"rt":2275,"stimulus":"[\"img/0899/66ab3178-c3fe-4455-ad17-d5952b08e018.jpg\",\"img/0862/de9ad88c-b522-430a-8ee9-eb06a9f85df5.jpg\"]","trial_type":"similarity","trial_index":182,"time_elapsed":1119588,"internal_node_id":"0.0-6.0-176.0"},{"sim_score":6,"rt":4484,"stimulus":"[\"img/0875/fb732ab5-013a-4366-9f65-27811ed157e9.jpg\",\"img/0758/b76ceca7-95ac-46e4-ac13-da02c8e93be9.jpg\"]","trial_type":"similarity","trial_index":183,"time_elapsed":1125076,"internal_node_id":"0.0-6.0-177.0"},{"sim_score":1,"rt":2732,"stimulus":"[\"img/0866/9b38d691-1802-4959-ab3f-fc902f0e4ea6.jpg\",\"img/0901/12da1841-e611-435c-9719-109413d536a8.jpg\"]","trial_type":"similarity","trial_index":184,"time_elapsed":1128812,"internal_node_id":"0.0-6.0-178.0"},{"sim_score":3,"rt":4379,"stimulus":"[\"img/0769/4680bcc3-8fbc-4643-8f9a-12aa0e780b64.jpg\",\"img/0874/31e22c7c-99aa-40b1-bf03-dd73fa2df4d6.jpg\"]","trial_type":"similarity","trial_index":185,"time_elapsed":1134196,"internal_node_id":"0.0-6.0-179.0"},{"sim_score":5,"rt":4500,"stimulus":"[\"img/0875/527ced51-8e53-4aab-ab05-86df219104c0.jpg\",\"img/0881/54ea8e77-c7e5-4197-b7fa-00b7020849a7.jpg\"]","trial_type":"similarity","trial_index":186,"time_elapsed":1139699,"internal_node_id":"0.0-6.0-180.0"},{"sim_score":4,"rt":1829,"stimulus":"[\"img/0866/d493a2c8-66eb-44b4-be02-2f327b700b7c.jpg\",\"img/0868/4bd5105a-d2c3-4f82-8c80-57196106ba53.jpg\"]","trial_type":"similarity","trial_index":187,"time_elapsed":1142532,"internal_node_id":"0.0-6.0-181.0"},{"sim_score":3,"rt":3213,"stimulus":"[\"img/0899/8de08897-b430-42fe-9d42-840670b80f94.jpg\",\"img/0758/821c68d3-5cb0-4eae-8659-30e6263fca39.jpg\"]","trial_type":"similarity","trial_index":188,"time_elapsed":1146748,"internal_node_id":"0.0-6.0-182.0"},{"sim_score":5,"rt":3580,"stimulus":"[\"img/0874/93d1f8dc-acf2-4f03-bd8d-8ec35df276ed.jpg\",\"img/0875/e7e66b13-b573-431e-b85e-288ce04a35a3.jpg\"]","trial_type":"similarity","trial_index":189,"time_elapsed":1151332,"internal_node_id":"0.0-6.0-183.0"},{"sim_score":4,"rt":1972,"stimulus":"[\"img/0904/d23dd7be-7fe8-4435-82f7-bd592c01e6a1.jpg\",\"img/0862/57b6f83f-c763-4858-830d-102f97bfefbf.jpg\"]","trial_type":"similarity","trial_index":190,"time_elapsed":1154307,"internal_node_id":"0.0-6.0-184.0"},{"sim_score":6,"rt":2757,"stimulus":"[\"img/0902/7499db23-3a41-41ea-ab5b-6ab4d4c3ed35.jpg\",\"img/0766/33aa9ebb-c9f5-418f-8c8b-c77861889568.jpg\"]","trial_type":"similarity","trial_index":191,"time_elapsed":1158068,"internal_node_id":"0.0-6.0-185.0"},{"sim_score":5,"rt":5965,"stimulus":"[\"img/0758/6e95579b-5166-487c-b8cb-e417c6a218e3.jpg\",\"img/0769/8c7cf147-1780-4d5c-8ddf-5ea23ff03ac9.jpg\"]","trial_type":"similarity","trial_index":192,"time_elapsed":1165035,"internal_node_id":"0.0-6.0-186.0"},{"sim_score":7,"rt":5044,"stimulus":"[\"img/0881/f037e3b0-09cb-4a83-b2d9-6a71fe474e63.jpg\",\"img/0881/44e09805-5a25-4f17-a716-4ad4a331b174.jpg\"]","trial_type":"similarity","trial_index":193,"time_elapsed":1171084,"internal_node_id":"0.0-6.0-187.0"},{"sim_score":5,"rt":2668,"stimulus":"[\"img/0758/e1ba5e53-addc-436a-b428-d34fc1b130dc.jpg\",\"img/0866/a15b02be-11bb-43e3-b0e0-ecc3bd7dfc49.jpg\"]","trial_type":"similarity","trial_index":194,"time_elapsed":1174756,"internal_node_id":"0.0-6.0-188.0"},{"sim_score":5,"rt":3932,"stimulus":"[\"img/0764/8740679b-b56f-4292-aece-14063457113a.jpg\",\"img/0898/5f699581-3853-4547-856c-12f419ba5af7.jpg\"]","trial_type":"similarity","trial_index":195,"time_elapsed":1179691,"internal_node_id":"0.0-6.0-189.0"},{"sim_score":4,"rt":4572,"stimulus":"[\"img/0903/24477210-856c-4550-9de0-9f85a32762eb.jpg\",\"img/0901/71e551a2-9ce2-409c-9c7c-dd556a0791e9.jpg\"]","trial_type":"similarity","trial_index":196,"time_elapsed":1185267,"internal_node_id":"0.0-6.0-190.0"},{"sim_score":6,"rt":4741,"stimulus":"[\"img/0902/62f11694-7ed7-4cb7-8a73-9e95c43824e7.jpg\",\"img/0898/224c1572-56b9-4f16-a9e4-6f3bc9c114bd.jpg\"]","trial_type":"similarity","trial_index":197,"time_elapsed":1191011,"internal_node_id":"0.0-6.0-191.0"},{"sim_score":4,"rt":3957,"stimulus":"[\"img/0864/87c467d3-abca-482f-ad80-3766c21b1bb3.jpg\",\"img/0901/d4d09bf5-093e-4050-838e-7c738be8e63c.jpg\"]","trial_type":"similarity","trial_index":198,"time_elapsed":1195971,"internal_node_id":"0.0-6.0-192.0"},{"sim_score":3,"rt":4517,"stimulus":"[\"img/0894/0130a973-d993-41f8-874a-fee23d9ac11f.jpg\",\"img/0881/7e822106-76f7-4b10-a805-14dc68b2cfaf.jpg\"]","trial_type":"similarity","trial_index":199,"time_elapsed":1201491,"internal_node_id":"0.0-6.0-193.0"},{"sim_score":6,"rt":5268,"stimulus":"[\"img/0868/179a5502-ab5c-478e-8263-5a1fbcc101d2.jpg\",\"img/0868/3a62db2d-97e9-44a3-b8e3-a48c6f0e423b.jpg\"]","trial_type":"similarity","trial_index":200,"time_elapsed":1207763,"internal_node_id":"0.0-6.0-194.0"},{"sim_score":5,"rt":4044,"stimulus":"[\"img/0899/4f7bc593-8ddd-4da3-a0b9-84da730d3370.jpg\",\"img/0764/5c8fbafc-e62e-43ed-9b37-f73e8e45147d.jpg\"]","trial_type":"similarity","trial_index":201,"time_elapsed":1212811,"internal_node_id":"0.0-6.0-195.0"},{"sim_score":4,"rt":4948,"stimulus":"[\"img/0881/e6746727-7f89-47ec-b939-d98abe78372d.jpg\",\"img/0904/4d7d70a3-9477-4921-bda0-f9531d0a5c5b.jpg\"]","trial_type":"similarity","trial_index":202,"time_elapsed":1218763,"internal_node_id":"0.0-6.0-196.0"},{"sim_score":2,"rt":4276,"stimulus":"[\"img/0864/9b2490c5-a282-400a-9736-e1a0ecbf1cb7.jpg\",\"img/0902/22ed3536-288b-452e-9777-0fa0ab94deb0.jpg\"]","trial_type":"similarity","trial_index":203,"time_elapsed":1224043,"internal_node_id":"0.0-6.0-197.0"},{"sim_score":5,"rt":3808,"stimulus":"[\"img/0894/151063aa-6472-4745-837b-36603aba5966.jpg\",\"img/0904/25365108-e038-4021-aac9-797f2063b337.jpg\"]","trial_type":"similarity","trial_index":204,"time_elapsed":1228855,"internal_node_id":"0.0-6.0-198.0"},{"sim_score":7,"rt":2324,"stimulus":"[\"img/0901/33b51a81-06d9-46d9-9d4f-5a2d6d6b8058.jpg\",\"img/0901/c6df1a21-44ed-47c2-960e-7c52220e329e.jpg\"]","trial_type":"similarity","trial_index":205,"time_elapsed":1232183,"internal_node_id":"0.0-6.0-199.0"},{"sim_score":4,"rt":3018,"stimulus":"[\"img/0894/492d2f29-d7b9-4422-8be8-47fd58bfaa8b.jpg\",\"img/0860/4a022222-056d-461c-ab02-39fac9647552.jpg\"]","trial_type":"similarity","trial_index":206,"time_elapsed":1236204,"internal_node_id":"0.0-6.0-200.0"},{"sim_score":5,"rt":3564,"stimulus":"[\"img/0898/8605a25b-6895-476d-8c13-df7a83f96093.jpg\",\"img/0903/72197c2b-403e-4a26-b391-f1aa8dea4b76.jpg\"]","trial_type":"similarity","trial_index":207,"time_elapsed":1240772,"internal_node_id":"0.0-6.0-201.0"},{"sim_score":3,"rt":5261,"stimulus":"[\"img/0864/da39ad34-04e0-40d4-a724-c08d53e0ea09.jpg\",\"img/0894/e5edf723-72a5-4673-8441-6c1734a8929b.jpg\"]","trial_type":"similarity","trial_index":208,"time_elapsed":1247036,"internal_node_id":"0.0-6.0-202.0"},{"sim_score":4,"rt":5333,"stimulus":"[\"img/0874/c0378dac-9370-439a-8b79-db27c96fb390.jpg\",\"img/0860/5bff793e-cbd5-4d7e-b628-0ac2b0e30b64.jpg\"]","trial_type":"similarity","trial_index":209,"time_elapsed":1253373,"internal_node_id":"0.0-6.0-203.0"},{"sim_score":4,"rt":2615,"stimulus":"[\"img/0862/ba89835a-408c-480b-8594-ed4ffa97eb5c.jpg\",\"img/0875/5a7c4e35-6514-4e12-8879-d16071da4cd6.jpg\"]","trial_type":"similarity","trial_index":210,"time_elapsed":1257008,"internal_node_id":"0.0-6.0-204.0"},{"sim_score":5,"rt":4033,"stimulus":"[\"img/0867/bf560d4f-dee3-4f11-a385-705cc1aa5f3c.jpg\",\"img/0881/633c6f40-56d9-4b48-bf1c-ecd83116eabb.jpg\"]","trial_type":"similarity","trial_index":211,"time_elapsed":1262044,"internal_node_id":"0.0-6.0-205.0"},{"sim_score":6,"rt":2597,"stimulus":"[\"img/0901/1b86f2fc-7a1d-4aa8-9252-114f92edef3b.jpg\",\"img/0902/0eb85fbc-27c8-41df-9d0b-a5f9efd417d1.jpg\"]","trial_type":"similarity","trial_index":212,"time_elapsed":1265644,"internal_node_id":"0.0-6.0-206.0"},{"sim_score":3,"rt":4709,"stimulus":"[\"img/0899/ad8268c5-8199-48d0-ad70-c5b6d6c599ec.jpg\",\"img/0864/5f74a653-3bdc-4308-8cca-ac667dc22e1f.jpg\"]","trial_type":"similarity","trial_index":213,"time_elapsed":1271356,"internal_node_id":"0.0-6.0-207.0"},{"sim_score":6,"rt":3317,"stimulus":"[\"img/0901/f1116359-1ff1-4638-b3b3-700918d36d18.jpg\",\"img/0769/4a1d0b52-3fe8-40fb-bb1c-c814fe49a68c.jpg\"]","trial_type":"similarity","trial_index":214,"time_elapsed":1275676,"internal_node_id":"0.0-6.0-208.0"},{"sim_score":6,"rt":4708,"stimulus":"[\"img/0902/97022122-01e4-46c3-a34f-c6260ad28428.jpg\",\"img/0902/31abfa33-7cdb-44ad-968e-9f7b324d577a.jpg\"]","trial_type":"similarity","trial_index":215,"time_elapsed":1285043,"internal_node_id":"0.0-6.0-209.0"},{"view_history":"[{\"page_index\":0,\"viewing_time\":5519}]","rt":5523,"trial_type":"instructions","trial_index":216,"time_elapsed":1291569,"internal_node_id":"0.0-7.0"},{"rt":31850,"responses":"{\"Q0\":\"Orange-crowned Warbler\"}","answer":["Nashville Warbler"],"trial_type":"image-multi-choice","trial_index":217,"time_elapsed":1324464,"internal_node_id":"0.0-8.0-0.0"},{"rt":37225,"responses":"{\"Q0\":\"Black-and-white Warbler\"}","answer":["Black-and-white Warbler"],"trial_type":"image-multi-choice","trial_index":218,"time_elapsed":1362734,"internal_node_id":"0.0-8.0-1.0"},{"rt":7874,"responses":"{\"Q0\":\"Blackburnian Warbler\"}","answer":["Townsend's Warbler"],"trial_type":"image-multi-choice","trial_index":219,"time_elapsed":1371662,"internal_node_id":"0.0-8.0-2.0"},{"rt":4115,"responses":"{\"Q0\":\"Lark Sparrow\"}","answer":["Lark Sparrow"],"trial_type":"image-multi-choice","trial_index":220,"time_elapsed":1376853,"internal_node_id":"0.0-8.0-3.0"},{"rt":4003,"responses":"{\"Q0\":\"Yellow Warbler\"}","answer":["Yellow Warbler"],"trial_type":"image-multi-choice","trial_index":221,"time_elapsed":1381946,"internal_node_id":"0.0-8.0-4.0"},{"rt":53742,"responses":"{\"Q0\":\"Tennessee Warbler\"}","answer":["Orange-crowned Warbler"],"trial_type":"image-multi-choice","trial_index":222,"time_elapsed":1436780,"internal_node_id":"0.0-8.0-5.0"},{"rt":4154,"responses":"{\"Q0\":\"White-throated Sparrow\"}","answer":["White-throated Sparrow"],"trial_type":"image-multi-choice","trial_index":223,"time_elapsed":1442016,"internal_node_id":"0.0-8.0-6.0"},{"rt":3604,"responses":"{\"Q0\":\"Fox Sparrow\"}","answer":["Fox Sparrow"],"trial_type":"image-multi-choice","trial_index":224,"time_elapsed":1446662,"internal_node_id":"0.0-8.0-7.0"},{"rt":17392,"responses":"{\"Q0\":\"Song Sparrow\"}","answer":["Song Sparrow"],"trial_type":"image-multi-choice","trial_index":225,"time_elapsed":1465111,"internal_node_id":"0.0-8.0-8.0"},{"rt":48500,"responses":"{\"Q0\":\"Blackburnian Warbler\"}","answer":["Blackburnian Warbler"],"trial_type":"image-multi-choice","trial_index":226,"time_elapsed":1514685,"internal_node_id":"0.0-8.0-9.0"},{"rt":10383,"responses":"{\"Q0\":\"Vesper Sparrow\"}","answer":["Vesper Sparrow"],"trial_type":"image-multi-choice","trial_index":227,"time_elapsed":1526158,"internal_node_id":"0.0-8.0-10.0"},{"rt":4124,"responses":"{\"Q0\":\"White-crowned Sparrow\"}","answer":["White-crowned Sparrow"],"trial_type":"image-multi-choice","trial_index":228,"time_elapsed":1531333,"internal_node_id":"0.0-8.0-11.0"},{"rt":12151,"responses":"{\"Q0\":\"American Tree Sparrow\"}","answer":["American Tree Sparrow"],"trial_type":"image-multi-choice","trial_index":229,"time_elapsed":1544534,"internal_node_id":"0.0-8.0-12.0"},{"rt":85788,"responses":"{\"Q0\":\"Tennessee Warbler\"}","answer":["Tennessee Warbler"],"trial_type":"image-multi-choice","trial_index":230,"time_elapsed":1631406,"internal_node_id":"0.0-8.0-13.0"},{"rt":59842,"responses":"{\"Q0\":\"Magnolia Warbler\"}","answer":["Magnolia Warbler"],"trial_type":"image-multi-choice","trial_index":231,"time_elapsed":1692341,"internal_node_id":"0.0-8.0-14.0"},{"rt":8447,"responses":"{\"Q0\":\"Northern Waterthrush\"}","answer":["Northern Waterthrush"],"trial_type":"image-multi-choice","trial_index":232,"time_elapsed":1701869,"internal_node_id":"0.0-8.0-15.0"},{"rt":4823,"responses":"{\"Q0\":\"Chipping Sparrow\"}","answer":["Chipping Sparrow"],"trial_type":"image-multi-choice","trial_index":233,"time_elapsed":1707734,"internal_node_id":"0.0-8.0-16.0"},{"rt":11824,"responses":"{\"Q0\":\"Swamp Sparrow\"}","answer":["Swamp Sparrow"],"trial_type":"image-multi-choice","trial_index":234,"time_elapsed":1720613,"internal_node_id":"0.0-8.0-17.0"},{"rt":6160,"responses":"{\"Q0\":\"Lincoln's Sparrow\"}","answer":["Lincoln's Sparrow"],"trial_type":"image-multi-choice","trial_index":235,"time_elapsed":1727835,"internal_node_id":"0.0-8.0-18.0"},{"rt":5274,"responses":"{\"Q0\":\"Ovenbird\"}","answer":["Ovenbird"],"trial_type":"image-multi-choice","trial_index":236,"time_elapsed":1734248,"internal_node_id":"0.0-8.0-19.0"}]