[{"view_history":"[{\"page_index\":0,\"viewing_time\":33071}]","rt":33074,"trial_type":"instructions","trial_index":0,"time_elapsed":33076,"internal_node_id":"0.0-0.0"},{"sim_score":5,"rt":10994,"stimulus":"[\"img/866.jpg\",\"img/868.jpg\"]","trial_type":"similarity_demo","trial_index":1,"time_elapsed":45115,"internal_node_id":"0.0-1.0"},{"view_history":"[{\"page_index\":0,\"viewing_time\":17754}]","rt":17755,"trial_type":"instructions","trial_index":2,"time_elapsed":63872,"internal_node_id":"0.0-2.0"},{"sim_score":2,"rt":6181,"stimulus":"[\"img/766.jpg\",\"img/867.jpg\"]","trial_type":"similarity_demo","trial_index":3,"time_elapsed":71099,"internal_node_id":"0.0-3.0"},{"view_history":"[{\"page_index\":0,\"viewing_time\":8572}]","rt":8573,"trial_type":"instructions","trial_index":4,"time_elapsed":80673,"internal_node_id":"0.0-4.0"},{"view_history":"[{\"page_index\":0,\"viewing_time\":44929}]","rt":44930,"trial_type":"instructions","trial_index":5,"time_elapsed":126604,"internal_node_id":"0.0-5.0"},{"sim_score":5,"rt":6393,"stimulus":"[\"img/0868/293079b8-7e0c-4afd-a390-1e5d35fe3ded.jpg\",\"img/0901/b13fa50f-dbe0-4d0f-8647-6ac0fd8f40bd.jpg\"]","trial_type":"similarity","trial_index":6,"time_elapsed":134028,"internal_node_id":"0.0-6.0-0.0"},{"sim_score":3,"rt":5089,"stimulus":"[\"img/0769/96556ef3-7fac-4c9d-8281-1cb0ea5081bc.jpg\",\"img/0867/179ab87a-8eac-4c52-a41f-2e48e3120f09.jpg\"]","trial_type":"similarity","trial_index":7,"time_elapsed":140145,"internal_node_id":"0.0-6.0-1.0"},{"sim_score":5,"rt":6412,"stimulus":"[\"img/0766/b84598d0-5b41-4841-88b0-b441b48289f5.jpg\",\"img/0898/a8f16b02-e19f-423b-86c3-a36562ae1f9b.jpg\"]","trial_type":"similarity","trial_index":8,"time_elapsed":147582,"internal_node_id":"0.0-6.0-2.0"},{"sim_score":1,"rt":5426,"stimulus":"[\"img/0902/b56db912-c3c0-4fc2-b325-d640acd7cb58.jpg\",\"img/0881/f6bd3b96-dc40-4e99-8681-bc3a35cf896d.jpg\"]","trial_type":"similarity","trial_index":9,"time_elapsed":154037,"internal_node_id":"0.0-6.0-3.0"},{"sim_score":6,"rt":7735,"stimulus":"[\"img/0894/5ff3c4f6-52e2-4075-8679-be0312e59703.jpg\",\"img/0894/76c1201f-8524-4865-85e6-dda8cb4ac986.jpg\"]","trial_type":"similarity","trial_index":10,"time_elapsed":162800,"internal_node_id":"0.0-6.0-4.0"},{"sim_score":3,"rt":7177,"stimulus":"[\"img/0874/bf14b896-e930-4fd9-9c05-2e83317a2773.jpg\",\"img/0899/93494f3b-d539-4075-b027-d82e344563da.jpg\"]","trial_type":"similarity","trial_index":11,"time_elapsed":170997,"internal_node_id":"0.0-6.0-5.0"},{"sim_score":7,"rt":5652,"stimulus":"[\"img/0904/4e58005d-a2ec-4aaa-b199-445343561396.jpg\",\"img/0764/3297a811-ea8b-4d74-9547-59cecab7293a.jpg\"]","trial_type":"similarity","trial_index":12,"time_elapsed":177671,"internal_node_id":"0.0-6.0-6.0"},{"sim_score":2,"rt":5834,"stimulus":"[\"img/0899/f58b8d2f-b19d-4b59-8b94-8834be92e4ba.jpg\",\"img/0898/661621d4-a14e-487c-8c74-354134a29710.jpg\"]","trial_type":"similarity","trial_index":13,"time_elapsed":184528,"internal_node_id":"0.0-6.0-7.0"},{"sim_score":2,"rt":7598,"stimulus":"[\"img/0874/a3bc679d-619f-4db6-bb68-116dcb757d9c.jpg\",\"img/0903/0a92ec52-4e87-410a-857a-4455cde56a70.jpg\"]","trial_type":"similarity","trial_index":14,"time_elapsed":193147,"internal_node_id":"0.0-6.0-8.0"},{"sim_score":6,"rt":6050,"stimulus":"[\"img/0881/2a8413be-fec2-4de6-88ad-614dd4cccc9d.jpg\",\"img/0758/7ffbc76b-1fc1-432c-8f7e-9ec8d1b3f643.jpg\"]","trial_type":"similarity","trial_index":15,"time_elapsed":200225,"internal_node_id":"0.0-6.0-9.0"},{"sim_score":7,"rt":4696,"stimulus":"[\"img/0898/cd3aaa3f-efa9-4ab3-8d6f-a6a9273ddf42.jpg\",\"img/0901/d6d15b1c-4a30-4f74-a3fd-d4c8ee4169ca.jpg\"]","trial_type":"similarity","trial_index":16,"time_elapsed":205954,"internal_node_id":"0.0-6.0-10.0"},{"sim_score":7,"rt":6236,"stimulus":"[\"img/0903/f10e9eb5-0c21-4a6a-944c-5f10a6d0fa4d.jpg\",\"img/0769/ecda2fb3-556b-43ba-8a67-e87dd75ff2b4.jpg\"]","trial_type":"similarity","trial_index":17,"time_elapsed":213217,"internal_node_id":"0.0-6.0-11.0"},{"sim_score":2,"rt":7146,"stimulus":"[\"img/0764/f64dfa83-333d-494c-87b5-73e942f1766e.jpg\",\"img/0868/fd307a36-9a3a-47d7-ab7c-f810d0b35040.jpg\"]","trial_type":"similarity","trial_index":18,"time_elapsed":221391,"internal_node_id":"0.0-6.0-12.0"},{"sim_score":2,"rt":5584,"stimulus":"[\"img/0867/2e1a0b58-cdb1-4107-a14e-452530d7b9b0.jpg\",\"img/0903/c708d08f-a108-4e04-8288-c3fcf6375db4.jpg\"]","trial_type":"similarity","trial_index":19,"time_elapsed":227998,"internal_node_id":"0.0-6.0-13.0"},{"sim_score":5,"rt":6071,"stimulus":"[\"img/0766/ea09dd5a-d24d-4e97-a099-7da3db1baef1.jpg\",\"img/0758/ddc336e9-a8b6-4bb9-937a-c7e25e0e9250.jpg\"]","trial_type":"similarity","trial_index":20,"time_elapsed":235097,"internal_node_id":"0.0-6.0-14.0"},{"sim_score":5,"rt":10181,"stimulus":"[\"img/0902/51493fab-2a10-4385-aa88-bee3db441626.jpg\",\"img/0860/b03b963d-949b-4d8d-b19c-4950c89eeca2.jpg\"]","trial_type":"similarity","trial_index":21,"time_elapsed":246304,"internal_node_id":"0.0-6.0-15.0"},{"sim_score":2,"rt":5361,"stimulus":"[\"img/0769/387a9744-d6a7-42b8-bab8-33007ec434aa.jpg\",\"img/0875/03c3c331-738b-4446-af92-3d7386b08c2e.jpg\"]","trial_type":"similarity","trial_index":22,"time_elapsed":252689,"internal_node_id":"0.0-6.0-16.0"},{"sim_score":1,"rt":5652,"stimulus":"[\"img/0904/24fc38fe-842c-4831-ad8a-b1de5c25c0a8.jpg\",\"img/0866/8efcaa46-83ab-4dee-a35f-850402aa21ae.jpg\"]","trial_type":"similarity","trial_index":23,"time_elapsed":259369,"internal_node_id":"0.0-6.0-17.0"},{"sim_score":6,"rt":5898,"stimulus":"[\"img/0875/527ced51-8e53-4aab-ab05-86df219104c0.jpg\",\"img/0875/2e13d160-eea1-416b-aff1-d37ab99ecc1d.jpg\"]","trial_type":"similarity","trial_index":24,"time_elapsed":266291,"internal_node_id":"0.0-6.0-18.0"},{"sim_score":7,"rt":5444,"stimulus":"[\"img/0758/e38fd80d-18d0-42f3-b848-f930788e8bd7.jpg\",\"img/0758/61d64021-9214-4951-bdf8-f871f9827cf9.jpg\"]","trial_type":"similarity","trial_index":25,"time_elapsed":272764,"internal_node_id":"0.0-6.0-19.0"},{"sim_score":4,"rt":5700,"stimulus":"[\"img/0902/94ee9c53-a9a2-4f95-b9b7-794a5fc62bb6.jpg\",\"img/0874/2c9464dd-8a23-4baa-ac94-1ba3af5c15cc.jpg\"]","trial_type":"similarity","trial_index":26,"time_elapsed":279515,"internal_node_id":"0.0-6.0-20.0"},{"sim_score":6,"rt":7887,"stimulus":"[\"img/0764/cbdc4f20-3a9a-4211-9b40-090699e0abcc.jpg\",\"img/0769/878531fd-e0e8-4ad1-b9ad-f018bb104ca0.jpg\"]","trial_type":"similarity","trial_index":27,"time_elapsed":288450,"internal_node_id":"0.0-6.0-21.0"},{"sim_score":5,"rt":6928,"stimulus":"[\"img/0901/deff6cfb-0072-4490-bc3e-206bbcd3e8bf.jpg\",\"img/0874/ca23d307-fc00-4d7d-9106-584c6eb21b4d.jpg\"]","trial_type":"similarity","trial_index":28,"time_elapsed":296408,"internal_node_id":"0.0-6.0-22.0"},{"sim_score":4,"rt":5036,"stimulus":"[\"img/0875/2c361b79-c3d1-4eda-812e-bf03192407bf.jpg\",\"img/0903/8fcafe03-43df-4c45-9da5-0df3a1eeccc5.jpg\"]","trial_type":"similarity","trial_index":29,"time_elapsed":302478,"internal_node_id":"0.0-6.0-23.0"},{"sim_score":5,"rt":6094,"stimulus":"[\"img/0769/8598a429-c671-4d2f-842c-32f681f5e412.jpg\",\"img/0881/f7a8cc63-8842-40a4-9ff8-fe530310d62c.jpg\"]","trial_type":"similarity","trial_index":30,"time_elapsed":309601,"internal_node_id":"0.0-6.0-24.0"},{"sim_score":5,"rt":5429,"stimulus":"[\"img/0867/26611f4e-d694-4460-b7e2-43c62753ddc3.jpg\",\"img/0904/96e503ea-6630-4996-85f2-0237688ce441.jpg\"]","trial_type":"similarity","trial_index":31,"time_elapsed":316058,"internal_node_id":"0.0-6.0-25.0"},{"sim_score":5,"rt":5656,"stimulus":"[\"img/0860/61fb959d-d4d9-4de4-9e4e-4fa62b4cfcd5.jpg\",\"img/0881/566f45f8-5fed-4479-a60f-26377e60a62d.jpg\"]","trial_type":"similarity","trial_index":32,"time_elapsed":322741,"internal_node_id":"0.0-6.0-26.0"},{"sim_score":6,"rt":5997,"stimulus":"[\"img/0866/386235d2-6857-41e7-88a8-25cfc3430025.jpg\",\"img/0866/945c6710-d15b-4a5b-a8f6-69af0850357f.jpg\"]","trial_type":"similarity","trial_index":33,"time_elapsed":329769,"internal_node_id":"0.0-6.0-27.0"},{"sim_score":2,"rt":5184,"stimulus":"[\"img/0764/978aede9-4590-4ad0-b234-135c83e5d669.jpg\",\"img/0862/47ed5efd-4ec9-4b74-bb4e-a5f5cf0c3e7d.jpg\"]","trial_type":"similarity","trial_index":34,"time_elapsed":335984,"internal_node_id":"0.0-6.0-28.0"},{"sim_score":1,"rt":5286,"stimulus":"[\"img/0904/60d1a521-edf7-4696-9263-f21ac0e62a01.jpg\",\"img/0758/dd559618-7f09-4a07-8018-d311c4a5ea29.jpg\"]","trial_type":"similarity","trial_index":35,"time_elapsed":342644,"internal_node_id":"0.0-6.0-29.0"},{"sim_score":3,"rt":7065,"stimulus":"[\"img/0894/151063aa-6472-4745-837b-36603aba5966.jpg\",\"img/0899/ddf96ade-692e-4602-bd22-dedbb46401bc.jpg\"]","trial_type":"similarity","trial_index":36,"time_elapsed":350747,"internal_node_id":"0.0-6.0-30.0"},{"sim_score":3,"rt":6045,"stimulus":"[\"img/0860/4a022222-056d-461c-ab02-39fac9647552.jpg\",\"img/0904/9d30eff1-46ef-4453-b11e-124ef8145c00.jpg\"]","trial_type":"similarity","trial_index":37,"time_elapsed":357842,"internal_node_id":"0.0-6.0-31.0"},{"sim_score":6,"rt":6123,"stimulus":"[\"img/0874/a82926a3-0b43-4add-803c-d5f9ea7798ee.jpg\",\"img/0881/0c7068da-d0d9-4103-bda1-74ef7a2b32c3.jpg\"]","trial_type":"similarity","trial_index":38,"time_elapsed":364998,"internal_node_id":"0.0-6.0-32.0"},{"sim_score":3,"rt":5093,"stimulus":"[\"img/0881/445edb15-bd7f-4af3-8bd5-c6ad9677bb31.jpg\",\"img/0899/7f9d45d0-b2c6-40d3-aa41-c207db2c411b.jpg\"]","trial_type":"similarity","trial_index":39,"time_elapsed":371129,"internal_node_id":"0.0-6.0-33.0"},{"sim_score":5,"rt":5480,"stimulus":"[\"img/0866/93a27239-8317-4e08-98ca-d8b1ff298e07.jpg\",\"img/0862/24cdc752-c2e5-4a17-86a6-6f2045d8553b.jpg\"]","trial_type":"similarity","trial_index":40,"time_elapsed":377639,"internal_node_id":"0.0-6.0-34.0"},{"sim_score":2,"rt":4349,"stimulus":"[\"img/0868/4a8a45ed-2c4f-421b-9564-409a33ecd26c.jpg\",\"img/0894/133a1636-d123-4893-873c-1718050f832a.jpg\"]","trial_type":"similarity","trial_index":41,"time_elapsed":383019,"internal_node_id":"0.0-6.0-35.0"},{"sim_score":5,"rt":5461,"stimulus":"[\"img/0860/17b44a7d-c5ca-479f-9e87-f65a64f5c80e.jpg\",\"img/0860/9593362c-9fe5-4d12-9735-6000a11f6aa5.jpg\"]","trial_type":"similarity","trial_index":42,"time_elapsed":389504,"internal_node_id":"0.0-6.0-36.0"},{"sim_score":3,"rt":6116,"stimulus":"[\"img/0862/00c06b00-3b73-44e9-bc1e-c5aafb438321.jpg\",\"img/0864/a248adb3-c70b-4652-b7a3-776d2a1e904b.jpg\"]","trial_type":"similarity","trial_index":43,"time_elapsed":396700,"internal_node_id":"0.0-6.0-37.0"},{"sim_score":2,"rt":5147,"stimulus":"[\"img/0766/0bf3793e-c353-45e5-ac6f-753f5f484e10.jpg\",\"img/0866/bf14b5bd-fb55-47db-86b9-4f8aeb9a6dad.jpg\"]","trial_type":"similarity","trial_index":44,"time_elapsed":402886,"internal_node_id":"0.0-6.0-38.0"},{"sim_score":2,"rt":4984,"stimulus":"[\"img/0875/5a716432-c6ca-4b1c-955a-2b8ac25198ee.jpg\",\"img/0898/b3290bf9-215b-4b45-b21a-65bdf73f142f.jpg\"]","trial_type":"similarity","trial_index":45,"time_elapsed":408907,"internal_node_id":"0.0-6.0-39.0"},{"sim_score":5,"rt":6075,"stimulus":"[\"img/0766/d512b99c-a2dc-40d7-8e86-827323a0cbcf.jpg\",\"img/0769/04347740-f8f6-48bb-887a-f68babd0a0d4.jpg\"]","trial_type":"similarity","trial_index":46,"time_elapsed":416017,"internal_node_id":"0.0-6.0-40.0"},{"sim_score":1,"rt":5038,"stimulus":"[\"img/0874/eba003b4-cdab-4eee-8bc3-f064c7d94165.jpg\",\"img/0764/83c93cce-18d1-4aa7-9e23-2c268afe0a46.jpg\"]","trial_type":"similarity","trial_index":47,"time_elapsed":436824,"internal_node_id":"0.0-6.0-41.0"},{"sim_score":1,"rt":4955,"stimulus":"[\"img/0868/09a9ef4d-d000-4cfa-a6aa-ebec7c2edeb4.jpg\",\"img/0902/d2c34af0-8c50-437d-8cc3-619195a3e8ba.jpg\"]","trial_type":"similarity","trial_index":48,"time_elapsed":442814,"internal_node_id":"0.0-6.0-42.0"},{"sim_score":1,"rt":5748,"stimulus":"[\"img/0875/5a7c4e35-6514-4e12-8879-d16071da4cd6.jpg\",\"img/0899/4408c14d-c168-4a7d-96f6-bc87bfb58f83.jpg\"]","trial_type":"similarity","trial_index":49,"time_elapsed":449599,"internal_node_id":"0.0-6.0-43.0"},{"sim_score":6,"rt":7709,"stimulus":"[\"img/0866/620cd1aa-0800-4414-8f6e-90342e7a99ad.jpg\",\"img/0860/8fdba999-b946-4c7d-9891-336018b563ef.jpg\"]","trial_type":"similarity","trial_index":50,"time_elapsed":458365,"internal_node_id":"0.0-6.0-44.0"},{"sim_score":6,"rt":5466,"stimulus":"[\"img/0766/0b48f9e0-7d37-4161-8adb-4e3f5b6b7583.jpg\",\"img/0903/5c6b1f57-b3a2-40f5-9fb1-82785e24b6a0.jpg\"]","trial_type":"similarity","trial_index":51,"time_elapsed":464861,"internal_node_id":"0.0-6.0-45.0"},{"sim_score":7,"rt":5300,"stimulus":"[\"img/0901/693e0535-ef7e-4d60-af9d-fac2f38e8307.jpg\",\"img/0904/d23dd7be-7fe8-4435-82f7-bd592c01e6a1.jpg\"]","trial_type":"similarity","trial_index":52,"time_elapsed":471196,"internal_node_id":"0.0-6.0-46.0"},{"sim_score":4,"rt":4460,"stimulus":"[\"img/0758/b76ceca7-95ac-46e4-ac13-da02c8e93be9.jpg\",\"img/0902/22ed3536-288b-452e-9777-0fa0ab94deb0.jpg\"]","trial_type":"similarity","trial_index":53,"time_elapsed":476691,"internal_node_id":"0.0-6.0-47.0"},{"sim_score":5,"rt":5337,"stimulus":"[\"img/0764/6c7fe363-2d37-418f-9e5e-a3273af5d4fb.jpg\",\"img/0764/4bec8d92-75aa-475a-954d-8215dbe538f5.jpg\"]","trial_type":"similarity","trial_index":54,"time_elapsed":483075,"internal_node_id":"0.0-6.0-48.0"},{"sim_score":5,"rt":6313,"stimulus":"[\"img/0866/0207e9a2-7dbb-40b5-9459-b472aaeceb2a.jpg\",\"img/0902/2a7ac123-414a-476a-9a96-4757b924baef.jpg\"]","trial_type":"similarity","trial_index":55,"time_elapsed":490424,"internal_node_id":"0.0-6.0-49.0"},{"sim_score":6,"rt":5239,"stimulus":"[\"img/0764/62fafeea-6274-48ce-976f-35d3d3484c65.jpg\",\"img/0758/d41c06bf-ebaf-454b-91c6-1a17f917b659.jpg\"]","trial_type":"similarity","trial_index":56,"time_elapsed":496698,"internal_node_id":"0.0-6.0-50.0"},{"sim_score":5,"rt":6571,"stimulus":"[\"img/0898/224c1572-56b9-4f16-a9e4-6f3bc9c114bd.jpg\",\"img/0894/767a0eec-1064-46b1-b1aa-dfa02b0cd74e.jpg\"]","trial_type":"similarity","trial_index":57,"time_elapsed":504312,"internal_node_id":"0.0-6.0-51.0"},{"sim_score":6,"rt":3974,"stimulus":"[\"img/0875/f87b67d7-c33e-40d1-b281-248c4be1cb6e.jpg\",\"img/0866/9b38d691-1802-4959-ab3f-fc902f0e4ea6.jpg\"]","trial_type":"similarity","trial_index":58,"time_elapsed":509328,"internal_node_id":"0.0-6.0-52.0"},{"sim_score":7,"rt":4097,"stimulus":"[\"img/0904/da170c1b-9651-4f08-b231-2bdd1d9a046f.jpg\",\"img/0904/0d17b811-063e-416e-a23c-3b3cfa4fcce5.jpg\"]","trial_type":"similarity","trial_index":59,"time_elapsed":514478,"internal_node_id":"0.0-6.0-53.0"},{"sim_score":6,"rt":9203,"stimulus":"[\"img/0769/db94b61b-a5a7-4861-9d32-7b02ad194fb0.jpg\",\"img/0769/3c1efec9-f8fd-487d-8955-4be88e48c832.jpg\"]","trial_type":"similarity","trial_index":60,"time_elapsed":524725,"internal_node_id":"0.0-6.0-54.0"},{"sim_score":2,"rt":4579,"stimulus":"[\"img/0898/a114b375-cb89-44ba-9498-74213f1ecdee.jpg\",\"img/0758/f61ecdf8-a7d4-4db0-b84d-be46f7cfaffc.jpg\"]","trial_type":"similarity","trial_index":61,"time_elapsed":530341,"internal_node_id":"0.0-6.0-55.0"},{"sim_score":3,"rt":6056,"stimulus":"[\"img/0769/1d8734c4-77ab-4165-9e71-5cfe672ff01c.jpg\",\"img/0902/c018bd7a-d91a-4192-aea4-7259cfcdb6c4.jpg\"]","trial_type":"similarity","trial_index":62,"time_elapsed":537433,"internal_node_id":"0.0-6.0-56.0"},{"sim_score":6,"rt":6553,"stimulus":"[\"img/0864/8ddd2e30-a1d0-479f-9cbe-591213023893.jpg\",\"img/0881/b1a136f7-8511-4d3a-a0f6-3879acf1e1a1.jpg\"]","trial_type":"similarity","trial_index":63,"time_elapsed":545014,"internal_node_id":"0.0-6.0-57.0"},{"sim_score":5,"rt":7270,"stimulus":"[\"img/0758/7fba58df-2a7a-4b76-8a8f-62739f97f271.jpg\",\"img/0868/e0aff734-077f-40dd-9781-74821abd3621.jpg\"]","trial_type":"similarity","trial_index":64,"time_elapsed":553320,"internal_node_id":"0.0-6.0-58.0"},{"sim_score":2,"rt":4252,"stimulus":"[\"img/0862/847e5208-38ec-4f36-949c-296cdd7424ee.jpg\",\"img/0769/0fe124d3-bcad-45f6-b64d-8f6eb8ee5251.jpg\"]","trial_type":"similarity","trial_index":65,"time_elapsed":558632,"internal_node_id":"0.0-6.0-59.0"},{"sim_score":2,"rt":4940,"stimulus":"[\"img/0764/fb7d4a20-a475-465e-a74f-aa39a0d33d16.jpg\",\"img/0903/2a9c8033-3e70-47fa-816d-97ee1813a3a3.jpg\"]","trial_type":"similarity","trial_index":66,"time_elapsed":564609,"internal_node_id":"0.0-6.0-60.0"},{"sim_score":5,"rt":6597,"stimulus":"[\"img/0899/1b3457ea-87d4-4946-a01c-aac1863ed46c.jpg\",\"img/0899/56a605c3-d0a2-4215-89e1-779279d85a7c.jpg\"]","trial_type":"similarity","trial_index":67,"time_elapsed":572243,"internal_node_id":"0.0-6.0-61.0"},{"sim_score":5,"rt":7959,"stimulus":"[\"img/0860/e14d67c1-6d92-4f1e-9257-c8607159c19c.jpg\",\"img/0875/34132396-d896-4c2d-8087-646dd867e769.jpg\"]","trial_type":"similarity","trial_index":68,"time_elapsed":581240,"internal_node_id":"0.0-6.0-62.0"},{"sim_score":1,"rt":4282,"stimulus":"[\"img/0868/4bd5105a-d2c3-4f82-8c80-57196106ba53.jpg\",\"img/0874/8cdb1c07-1c32-46d2-981c-3636560fa6e5.jpg\"]","trial_type":"similarity","trial_index":69,"time_elapsed":586591,"internal_node_id":"0.0-6.0-63.0"},{"sim_score":4,"rt":4542,"stimulus":"[\"img/0758/2fa3e613-e676-4e6e-bd12-705327eeb3e1.jpg\",\"img/0862/d0ca4c78-fc35-46ed-bdcc-8e124283c53e.jpg\"]","trial_type":"similarity","trial_index":70,"time_elapsed":592170,"internal_node_id":"0.0-6.0-64.0"},{"sim_score":5,"rt":6919,"stimulus":"[\"img/0904/2c98dc56-88d1-4fb5-a999-b6a7861f65f0.jpg\",\"img/0898/993d8f2d-bef7-4251-a193-0f93a32b7763.jpg\"]","trial_type":"similarity","trial_index":71,"time_elapsed":600129,"internal_node_id":"0.0-6.0-65.0"},{"sim_score":5,"rt":4862,"stimulus":"[\"img/0881/5fe04dd0-5c74-47b7-99c8-b068db9ca26a.jpg\",\"img/0866/f756f7d1-9ad8-4a34-9ef6-7a443d705bfe.jpg\"]","trial_type":"similarity","trial_index":72,"time_elapsed":606024,"internal_node_id":"0.0-6.0-66.0"},{"sim_score":1,"rt":4630,"stimulus":"[\"img/0867/98d8cd96-1476-4fe0-a3a3-04f875500a1b.jpg\",\"img/0898/6cd3830b-d44e-4915-be2b-88d31424b91c.jpg\"]","trial_type":"similarity","trial_index":73,"time_elapsed":611689,"internal_node_id":"0.0-6.0-67.0"},{"sim_score":6,"rt":6976,"stimulus":"[\"img/0902/6c2c243a-f663-45db-baf5-038d3d58c589.jpg\",\"img/0764/bd2eaa3e-95a9-4a59-a78e-3f81c766eea9.jpg\"]","trial_type":"similarity","trial_index":74,"time_elapsed":620676,"internal_node_id":"0.0-6.0-68.0"},{"sim_score":6,"rt":4695,"stimulus":"[\"img/0875/3ecb367d-e9eb-4826-8aaa-7aa72fb98019.jpg\",\"img/0867/bf560d4f-dee3-4f11-a385-705cc1aa5f3c.jpg\"]","trial_type":"similarity","trial_index":75,"time_elapsed":626408,"internal_node_id":"0.0-6.0-69.0"},{"sim_score":7,"rt":4519,"stimulus":"[\"img/0766/1865bfc9-2410-4765-a804-3ae4ba2393d0.jpg\",\"img/0764/56441045-b648-4ede-9632-3e9c0227080b.jpg\"]","trial_type":"similarity","trial_index":76,"time_elapsed":631958,"internal_node_id":"0.0-6.0-70.0"},{"sim_score":4,"rt":5742,"stimulus":"[\"img/0894/38f5931f-926d-414e-b498-66b188978b7a.jpg\",\"img/0867/c71dc569-f49c-4397-8381-68b8d726736d.jpg\"]","trial_type":"similarity","trial_index":77,"time_elapsed":638761,"internal_node_id":"0.0-6.0-71.0"},{"sim_score":2,"rt":5675,"stimulus":"[\"img/0875/90da8d75-108a-44ad-b999-e21fee3860d3.jpg\",\"img/0764/d0bef2e0-e16b-4c82-9451-c1d16265eb67.jpg\"]","trial_type":"similarity","trial_index":78,"time_elapsed":645482,"internal_node_id":"0.0-6.0-72.0"},{"sim_score":6,"rt":6143,"stimulus":"[\"img/0867/c66898ba-b71b-4d50-84f9-f7f84853a98d.jpg\",\"img/0866/6f2a90d7-14f1-4f1b-bd64-fc0af6b9fe44.jpg\"]","trial_type":"similarity","trial_index":79,"time_elapsed":652665,"internal_node_id":"0.0-6.0-73.0"},{"sim_score":3,"rt":5438,"stimulus":"[\"img/0903/bf0a7d60-eca5-44b0-bafd-baf21db9904b.jpg\",\"img/0758/d57c2592-a317-4f63-91be-91a3a9afd222.jpg\"]","trial_type":"similarity","trial_index":80,"time_elapsed":659142,"internal_node_id":"0.0-6.0-74.0"},{"sim_score":1,"rt":4433,"stimulus":"[\"img/0766/ba35c0fc-4d5b-490d-959e-c94b279cdd02.jpg\",\"img/0868/6a28c3b0-3d76-498a-9fb7-ddafc665eca8.jpg\"]","trial_type":"similarity","trial_index":81,"time_elapsed":664606,"internal_node_id":"0.0-6.0-75.0"},{"sim_score":2,"rt":6422,"stimulus":"[\"img/0874/767f289c-9814-4496-803f-745cc8913d1f.jpg\",\"img/0766/006035d8-c736-4daf-bbe4-a9e373af9da6.jpg\"]","trial_type":"similarity","trial_index":82,"time_elapsed":672057,"internal_node_id":"0.0-6.0-76.0"},{"sim_score":6,"rt":4799,"stimulus":"[\"img/0881/1407b85b-a1c6-45b1-9884-3b24203efadb.jpg\",\"img/0868/c8ac40c7-6904-4e13-8d61-c75d3052dc4e.jpg\"]","trial_type":"similarity","trial_index":83,"time_elapsed":677888,"internal_node_id":"0.0-6.0-77.0"},{"sim_score":1,"rt":5761,"stimulus":"[\"img/0758/821c68d3-5cb0-4eae-8659-30e6263fca39.jpg\",\"img/0901/33b51a81-06d9-46d9-9d4f-5a2d6d6b8058.jpg\"]","trial_type":"similarity","trial_index":84,"time_elapsed":684680,"internal_node_id":"0.0-6.0-78.0"},{"sim_score":1,"rt":5069,"stimulus":"[\"img/0881/db77fe00-aeb0-4d1d-aa66-f3a96fd077e4.jpg\",\"img/0898/68476bbb-34a1-42d9-8bc1-deab783d4489.jpg\"]","trial_type":"similarity","trial_index":85,"time_elapsed":690810,"internal_node_id":"0.0-6.0-79.0"},{"sim_score":3,"rt":4269,"stimulus":"[\"img/0867/f8159067-056c-41f1-a136-c529fe5e970a.jpg\",\"img/0758/d540bee6-b460-4c32-ac57-bc282742d7d4.jpg\"]","trial_type":"similarity","trial_index":86,"time_elapsed":696126,"internal_node_id":"0.0-6.0-80.0"},{"sim_score":1,"rt":4723,"stimulus":"[\"img/0769/bb8c4e53-6f32-4814-97ee-392d4decfb2e.jpg\",\"img/0899/8abe6c69-822c-436c-9bf2-96c818b49ba5.jpg\"]","trial_type":"similarity","trial_index":87,"time_elapsed":701905,"internal_node_id":"0.0-6.0-81.0"},{"sim_score":7,"rt":5689,"stimulus":"[\"img/0903/31b5a5f4-b695-4af1-bad2-a19650a05498.jpg\",\"img/0903/005ad0de-4f52-433c-b515-dbe8d46184a3.jpg\"]","trial_type":"similarity","trial_index":88,"time_elapsed":708627,"internal_node_id":"0.0-6.0-82.0"},{"sim_score":3,"rt":5760,"stimulus":"[\"img/0867/f8488a47-94ee-4166-952c-44e16cf172f6.jpg\",\"img/0766/3c526a07-9e0a-4ae2-8142-00085f0127da.jpg\"]","trial_type":"similarity","trial_index":89,"time_elapsed":722697,"internal_node_id":"0.0-6.0-83.0"},{"sim_score":2,"rt":5667,"stimulus":"[\"img/0902/d5e25767-e8ec-45f3-ac0a-7b4a6f7a9edc.jpg\",\"img/0867/5e07b34d-b40f-4b1c-ac10-49975bace45f.jpg\"]","trial_type":"similarity","trial_index":90,"time_elapsed":729396,"internal_node_id":"0.0-6.0-84.0"},{"sim_score":2,"rt":4716,"stimulus":"[\"img/0901/148b747a-7392-437e-8823-33053c5dff3f.jpg\",\"img/0875/ebf7653f-ff45-4e9f-af58-2c042ab3cd2b.jpg\"]","trial_type":"similarity","trial_index":91,"time_elapsed":735146,"internal_node_id":"0.0-6.0-85.0"},{"sim_score":2,"rt":5919,"stimulus":"[\"img/0764/5c8fbafc-e62e-43ed-9b37-f73e8e45147d.jpg\",\"img/0866/d266fece-59b3-46fa-b69f-96f6efb81b59.jpg\"]","trial_type":"similarity","trial_index":92,"time_elapsed":742095,"internal_node_id":"0.0-6.0-86.0"},{"sim_score":3,"rt":4055,"stimulus":"[\"img/0901/58978a6d-a3e2-4c59-8d62-f60693ecc0f6.jpg\",\"img/0894/e5edf723-72a5-4673-8441-6c1734a8929b.jpg\"]","trial_type":"similarity","trial_index":93,"time_elapsed":747176,"internal_node_id":"0.0-6.0-87.0"},{"sim_score":3,"rt":4511,"stimulus":"[\"img/0898/c3cecf20-f7fd-45fa-97d0-dc0a63e8d6c0.jpg\",\"img/0769/4a1d0b52-3fe8-40fb-bb1c-c814fe49a68c.jpg\"]","trial_type":"similarity","trial_index":94,"time_elapsed":752718,"internal_node_id":"0.0-6.0-88.0"},{"sim_score":6,"rt":4866,"stimulus":"[\"img/0769/14d393ce-e5be-4ca1-86ce-cc27d4b6074c.jpg\",\"img/0894/4739e06d-c31e-4bf1-bf91-c97fa9afb456.jpg\"]","trial_type":"similarity","trial_index":95,"time_elapsed":758618,"internal_node_id":"0.0-6.0-89.0"},{"sim_score":6,"rt":4714,"stimulus":"[\"img/0862/7918ca67-5bd3-4606-a5ea-c39fb11a9297.jpg\",\"img/0874/995f0332-0439-4eb4-add3-957335dbf6d9.jpg\"]","trial_type":"similarity","trial_index":96,"time_elapsed":765407,"internal_node_id":"0.0-6.0-90.0"},{"sim_score":6,"rt":6216,"stimulus":"[\"img/0894/7f2f31fd-6618-41c6-b65a-0fd8b2851bc9.jpg\",\"img/0766/91fc8c4d-862f-4d2b-b1a1-2db8d729b6b7.jpg\"]","trial_type":"similarity","trial_index":97,"time_elapsed":772654,"internal_node_id":"0.0-6.0-91.0"},{"sim_score":7,"rt":4053,"stimulus":"[\"img/0874/7e4f2150-3b59-4a36-b5da-a4e0ba410531.jpg\",\"img/0867/cc72ed48-7704-422c-86d6-467a1145287a.jpg\"]","trial_type":"similarity","trial_index":98,"time_elapsed":777761,"internal_node_id":"0.0-6.0-92.0"},{"sim_score":4,"rt":4442,"stimulus":"[\"img/0899/ad8268c5-8199-48d0-ad70-c5b6d6c599ec.jpg\",\"img/0868/3a62db2d-97e9-44a3-b8e3-a48c6f0e423b.jpg\"]","trial_type":"similarity","trial_index":99,"time_elapsed":783239,"internal_node_id":"0.0-6.0-93.0"},{"sim_score":5,"rt":6873,"stimulus":"[\"img/0903/8931c67c-a43d-47d3-a4c9-42aa2f81d344.jpg\",\"img/0862/53a9cf7c-93c4-41b9-952f-07d17f7a17b2.jpg\"]","trial_type":"similarity","trial_index":100,"time_elapsed":791145,"internal_node_id":"0.0-6.0-94.0"},{"sim_score":3,"rt":4759,"stimulus":"[\"img/0899/06b0fc99-0581-461a-9913-d1a5a941ac61.jpg\",\"img/0766/d50d734f-285c-4840-bc7a-c8dd4aff391e.jpg\"]","trial_type":"similarity","trial_index":101,"time_elapsed":796940,"internal_node_id":"0.0-6.0-95.0"},{"sim_score":7,"rt":4521,"stimulus":"[\"img/0867/7d1c497b-c1b3-4ed8-abb5-d7f73306015f.jpg\",\"img/0868/0d3abd3a-b6c3-4584-a9f7-e2da63748b3d.jpg\"]","trial_type":"similarity","trial_index":102,"time_elapsed":802491,"internal_node_id":"0.0-6.0-96.0"},{"sim_score":1,"rt":4391,"stimulus":"[\"img/0862/e0f1a4e9-e1b6-45f7-af67-89f334e6630d.jpg\",\"img/0901/6e2957f8-f5ab-46f4-87cc-bb50155a098b.jpg\"]","trial_type":"similarity","trial_index":103,"time_elapsed":807913,"internal_node_id":"0.0-6.0-97.0"},{"sim_score":1,"rt":4827,"stimulus":"[\"img/0875/d59ff733-eaff-4ee2-9443-06954dd0bcb6.jpg\",\"img/0766/110832e5-2646-4bd0-a94e-5df8cc314269.jpg\"]","trial_type":"similarity","trial_index":104,"time_elapsed":813764,"internal_node_id":"0.0-6.0-98.0"},{"sim_score":6,"rt":4403,"stimulus":"[\"img/0758/caa93da2-9edf-49fa-96b9-32dedd8f5078.jpg\",\"img/0874/29830da7-be5f-44e5-b141-652a0ccf7269.jpg\"]","trial_type":"similarity","trial_index":105,"time_elapsed":819192,"internal_node_id":"0.0-6.0-99.0"},{"sim_score":3,"rt":5607,"stimulus":"[\"img/0904/09934646-45d2-4147-8fec-64a22a5ac822.jpg\",\"img/0868/1a62b2b2-18f5-466e-b564-5176a57c565e.jpg\"]","trial_type":"similarity","trial_index":106,"time_elapsed":825833,"internal_node_id":"0.0-6.0-100.0"},{"sim_score":1,"rt":4313,"stimulus":"[\"img/0903/150cf64c-0bd2-4674-abbb-a1387cf1f3e9.jpg\",\"img/0866/02f5e6b9-52b7-448c-9708-5b460d0c9a23.jpg\"]","trial_type":"similarity","trial_index":107,"time_elapsed":831201,"internal_node_id":"0.0-6.0-101.0"},{"sim_score":2,"rt":7748,"stimulus":"[\"img/0868/7b212364-ff5f-4e28-9241-7eb6ea00161b.jpg\",\"img/0769/82ab9db6-4578-4e79-874f-f09100439f09.jpg\"]","trial_type":"similarity","trial_index":108,"time_elapsed":839988,"internal_node_id":"0.0-6.0-102.0"},{"sim_score":6,"rt":5478,"stimulus":"[\"img/0902/cdec1bc6-7f90-4f72-9e01-f5a4111bac1d.jpg\",\"img/0899/8de08897-b430-42fe-9d42-840670b80f94.jpg\"]","trial_type":"similarity","trial_index":109,"time_elapsed":846515,"internal_node_id":"0.0-6.0-103.0"},{"sim_score":5,"rt":6011,"stimulus":"[\"img/0868/77091fc7-a590-4ebb-b915-fdb2483a2399.jpg\",\"img/0862/ee3b7bff-4a70-4e84-9bea-4a565e456acb.jpg\"]","trial_type":"similarity","trial_index":110,"time_elapsed":853560,"internal_node_id":"0.0-6.0-104.0"},{"sim_score":5,"rt":5093,"stimulus":"[\"img/0903/365f176c-25a4-4973-bd3c-279bf1b39476.jpg\",\"img/0894/5a49e858-2850-4892-9a06-e9f0efb5f94d.jpg\"]","trial_type":"similarity","trial_index":111,"time_elapsed":859693,"internal_node_id":"0.0-6.0-105.0"},{"sim_score":2,"rt":5440,"stimulus":"[\"img/0864/6f631579-acf1-415c-a42c-1207f62a8d99.jpg\",\"img/0874/1016b306-087c-4afc-aa08-fa527b28dc76.jpg\"]","trial_type":"similarity","trial_index":112,"time_elapsed":866167,"internal_node_id":"0.0-6.0-106.0"},{"sim_score":2,"rt":5327,"stimulus":"[\"img/0862/99a99e39-8355-44ec-b993-e7bcec111e1c.jpg\",\"img/0902/aa6fca32-82b0-4414-b20a-8f6f8aa5a2d2.jpg\"]","trial_type":"similarity","trial_index":113,"time_elapsed":872525,"internal_node_id":"0.0-6.0-107.0"},{"sim_score":2,"rt":4859,"stimulus":"[\"img/0904/a8c3c7d2-9bcf-4347-9e03-8203adfc1fc5.jpg\",\"img/0903/45e2d600-57ff-4d69-b22c-0c7896cd38f0.jpg\"]","trial_type":"similarity","trial_index":114,"time_elapsed":878446,"internal_node_id":"0.0-6.0-108.0"},{"sim_score":4,"rt":9142,"stimulus":"[\"img/0764/ec2dd087-c471-4370-b570-95a542506a96.jpg\",\"img/0864/afcba0a3-7e27-4757-b254-e9f05fad27e2.jpg\"]","trial_type":"similarity","trial_index":115,"time_elapsed":888620,"internal_node_id":"0.0-6.0-109.0"},{"sim_score":1,"rt":6536,"stimulus":"[\"img/0866/a15b02be-11bb-43e3-b0e0-ecc3bd7dfc49.jpg\",\"img/0894/a3d4170b-b7d8-40e3-955f-87e76ed745fc.jpg\"]","trial_type":"similarity","trial_index":116,"time_elapsed":896190,"internal_node_id":"0.0-6.0-110.0"},{"sim_score":3,"rt":7327,"stimulus":"[\"img/0899/9de5e857-aa9a-4e0c-8ba2-46d79bd069a4.jpg\",\"img/0903/0e5c2854-42aa-48c0-9c3d-6e1ad2a400bd.jpg\"]","trial_type":"similarity","trial_index":117,"time_elapsed":904551,"internal_node_id":"0.0-6.0-111.0"},{"sim_score":5,"rt":5037,"stimulus":"[\"img/0902/b76efc44-a50f-4dac-b997-ff0222376067.jpg\",\"img/0904/73920552-103b-4c9c-9ece-e0b8376b4504.jpg\"]","trial_type":"similarity","trial_index":118,"time_elapsed":910618,"internal_node_id":"0.0-6.0-112.0"},{"sim_score":3,"rt":5293,"stimulus":"[\"img/0864/3651d070-2fc5-4848-b6a6-088a2d9ac5c9.jpg\",\"img/0860/87039971-2210-4aab-93c0-8e9b5f1655b2.jpg\"]","trial_type":"similarity","trial_index":119,"time_elapsed":916955,"internal_node_id":"0.0-6.0-113.0"},{"sim_score":3,"rt":5061,"stimulus":"[\"img/0860/c3379ff7-0763-48fe-a1ec-7ea3d611bc7a.jpg\",\"img/0899/66bf4113-ee12-426c-84d2-ea410b6c803e.jpg\"]","trial_type":"similarity","trial_index":120,"time_elapsed":923051,"internal_node_id":"0.0-6.0-114.0"},{"sim_score":1,"rt":7925,"stimulus":"[\"img/0881/84397291-bc14-4fbf-90e8-241e486ab0fe.jpg\",\"img/0903/680ed18e-b311-4ecf-9b00-7dea32128334.jpg\"]","trial_type":"similarity","trial_index":121,"time_elapsed":932012,"internal_node_id":"0.0-6.0-115.0"},{"sim_score":1,"rt":5265,"stimulus":"[\"img/0894/b2d2f66e-e480-46da-a02a-6d0c6b285d78.jpg\",\"img/0874/ca76a855-4e77-4f2f-872a-0a718153e7ed.jpg\"]","trial_type":"similarity","trial_index":122,"time_elapsed":938309,"internal_node_id":"0.0-6.0-116.0"},{"sim_score":3,"rt":5901,"stimulus":"[\"img/0881/ed4c971f-0873-4fc8-b6d6-e8bbd82f0bcc.jpg\",\"img/0862/57b6f83f-c763-4858-830d-102f97bfefbf.jpg\"]","trial_type":"similarity","trial_index":123,"time_elapsed":945807,"internal_node_id":"0.0-6.0-117.0"},{"sim_score":6,"rt":4396,"stimulus":"[\"img/0868/83b4350a-3b70-4cea-b7f5-b5b56f3050a8.jpg\",\"img/0875/a4935837-7d3c-4df6-88c1-36a94d4991ca.jpg\"]","trial_type":"similarity","trial_index":124,"time_elapsed":951240,"internal_node_id":"0.0-6.0-118.0"},{"sim_score":5,"rt":8264,"stimulus":"[\"img/0860/d9a0d117-6d1d-41c0-8fec-9aff0fd9e9f2.jpg\",\"img/0758/eabcd7a8-56ad-4fd2-bc24-90f6b7b33265.jpg\"]","trial_type":"similarity","trial_index":125,"time_elapsed":960537,"internal_node_id":"0.0-6.0-119.0"},{"sim_score":4,"rt":4103,"stimulus":"[\"img/0864/87c467d3-abca-482f-ad80-3766c21b1bb3.jpg\",\"img/0875/fb732ab5-013a-4366-9f65-27811ed157e9.jpg\"]","trial_type":"similarity","trial_index":126,"time_elapsed":965681,"internal_node_id":"0.0-6.0-120.0"},{"sim_score":4,"rt":5170,"stimulus":"[\"img/0898/8605a25b-6895-476d-8c13-df7a83f96093.jpg\",\"img/0866/c446214b-a368-4c65-ae39-ea46894256ab.jpg\"]","trial_type":"similarity","trial_index":127,"time_elapsed":971982,"internal_node_id":"0.0-6.0-121.0"},{"sim_score":2,"rt":4330,"stimulus":"[\"img/0874/31e22c7c-99aa-40b1-bf03-dd73fa2df4d6.jpg\",\"img/0904/b5855d6a-7ef9-46ca-9215-6e9fa046e543.jpg\"]","trial_type":"similarity","trial_index":128,"time_elapsed":977348,"internal_node_id":"0.0-6.0-122.0"},{"sim_score":1,"rt":4786,"stimulus":"[\"img/0904/4d7d70a3-9477-4921-bda0-f9531d0a5c5b.jpg\",\"img/0864/3d4de670-b290-4285-9c3d-12a0e3af44e9.jpg\"]","trial_type":"similarity","trial_index":129,"time_elapsed":983171,"internal_node_id":"0.0-6.0-123.0"},{"sim_score":6,"rt":4335,"stimulus":"[\"img/0894/492d2f29-d7b9-4422-8be8-47fd58bfaa8b.jpg\",\"img/0902/4e0baa32-988e-46f6-989d-f669225ab645.jpg\"]","trial_type":"similarity","trial_index":130,"time_elapsed":988533,"internal_node_id":"0.0-6.0-124.0"},{"sim_score":6,"rt":4391,"stimulus":"[\"img/0868/d6d1f30d-4323-435a-b194-7892521bc57e.jpg\",\"img/0864/9b2490c5-a282-400a-9736-e1a0ecbf1cb7.jpg\"]","trial_type":"similarity","trial_index":131,"time_elapsed":1000337,"internal_node_id":"0.0-6.0-125.0"},{"sim_score":4,"rt":14391,"stimulus":"[\"img/0899/fd9efb43-701f-4cd6-baaa-4c38315f4bdc.jpg\",\"img/0866/07c9c966-3c8d-40e7-8128-92b2acbaed5d.jpg\"]","trial_type":"similarity","trial_index":132,"time_elapsed":1015763,"internal_node_id":"0.0-6.0-126.0"},{"sim_score":3,"rt":4158,"stimulus":"[\"img/0875/e7e66b13-b573-431e-b85e-288ce04a35a3.jpg\",\"img/0904/9b3568cc-3cf7-42be-9df3-fdafde7a58b8.jpg\"]","trial_type":"similarity","trial_index":133,"time_elapsed":1020970,"internal_node_id":"0.0-6.0-127.0"},{"sim_score":2,"rt":4311,"stimulus":"[\"img/0867/a498eef3-9fa4-4ab2-9778-4ae82ac40dc5.jpg\",\"img/0899/565ccdd9-0933-4536-a625-3c0e25a713dd.jpg\"]","trial_type":"similarity","trial_index":134,"time_elapsed":1026328,"internal_node_id":"0.0-6.0-128.0"},{"sim_score":2,"rt":5341,"stimulus":"[\"img/0901/ae1e6ce4-2e10-4ca9-b1e7-21628637ab74.jpg\",\"img/0867/ac1797e4-8afc-48fe-b252-86d1defb1cca.jpg\"]","trial_type":"similarity","trial_index":135,"time_elapsed":1032725,"internal_node_id":"0.0-6.0-129.0"},{"sim_score":3,"rt":5204,"stimulus":"[\"img/0864/f92649a2-0590-4d31-9a7a-1bfb81666a2d.jpg\",\"img/0769/f229321f-04dd-42d7-b14a-ffad6b509862.jpg\"]","trial_type":"similarity","trial_index":136,"time_elapsed":1038965,"internal_node_id":"0.0-6.0-130.0"},{"sim_score":1,"rt":6780,"stimulus":"[\"img/0903/9b60ef5b-234f-4239-892b-3d4c412accc2.jpg\",\"img/0868/d98ca254-b195-477f-b57e-5760a2717db8.jpg\"]","trial_type":"similarity","trial_index":137,"time_elapsed":1046779,"internal_node_id":"0.0-6.0-131.0"},{"sim_score":3,"rt":8438,"stimulus":"[\"img/0864/1d15626a-2f7c-410f-819c-0fa2c967e95e.jpg\",\"img/0867/50a1b60e-3a29-44bf-b606-d4bd3746fea9.jpg\"]","trial_type":"similarity","trial_index":138,"time_elapsed":1056258,"internal_node_id":"0.0-6.0-132.0"},{"sim_score":2,"rt":4188,"stimulus":"[\"img/0901/b9141736-3041-4385-a586-b1fe911c76a5.jpg\",\"img/0860/15b24a61-25be-4356-9eac-5ce95d0cb4a4.jpg\"]","trial_type":"similarity","trial_index":139,"time_elapsed":1061482,"internal_node_id":"0.0-6.0-133.0"},{"sim_score":2,"rt":5801,"stimulus":"[\"img/0881/f037e3b0-09cb-4a83-b2d9-6a71fe474e63.jpg\",\"img/0766/5d6e0d1d-4369-41f0-a64c-91f3503055c7.jpg\"]","trial_type":"similarity","trial_index":140,"time_elapsed":1068318,"internal_node_id":"0.0-6.0-134.0"},{"sim_score":2,"rt":5763,"stimulus":"[\"img/0903/36e4ab1f-caa9-40b3-8616-faada076df94.jpg\",\"img/0864/4bd81bc6-c13d-46df-95a9-485886dc7c1b.jpg\"]","trial_type":"similarity","trial_index":141,"time_elapsed":1075107,"internal_node_id":"0.0-6.0-135.0"},{"sim_score":4,"rt":5097,"stimulus":"[\"img/0758/a085b443-b5d7-4cb2-9ad4-b9dab0fc23f1.jpg\",\"img/0894/c505c65a-cde2-4f2c-8cde-f8676f7c894d.jpg\"]","trial_type":"similarity","trial_index":142,"time_elapsed":1081236,"internal_node_id":"0.0-6.0-136.0"},{"sim_score":3,"rt":6101,"stimulus":"[\"img/0769/1afb527f-9887-428c-bd26-a12c2f9efb68.jpg\",\"img/0860/c47fdead-eb02-4989-b078-26f4852f44fe.jpg\"]","trial_type":"similarity","trial_index":143,"time_elapsed":1088366,"internal_node_id":"0.0-6.0-137.0"},{"sim_score":3,"rt":7392,"stimulus":"[\"img/0904/2f88ce53-02d0-4f95-a082-182c56a0eeb4.jpg\",\"img/0766/a0270213-fa0e-4972-8b56-228c3e01ff90.jpg\"]","trial_type":"similarity","trial_index":144,"time_elapsed":1096793,"internal_node_id":"0.0-6.0-138.0"},{"sim_score":5,"rt":7150,"stimulus":"[\"img/0868/8b0b8473-e2c0-4331-aa56-c3a5c29369da.jpg\",\"img/0860/71e1aad0-2cdf-43bb-94a4-a8c016997c30.jpg\"]","trial_type":"similarity","trial_index":145,"time_elapsed":1104992,"internal_node_id":"0.0-6.0-139.0"},{"sim_score":6,"rt":5513,"stimulus":"[\"img/0758/6e95579b-5166-487c-b8cb-e417c6a218e3.jpg\",\"img/0864/e02eddb5-f468-499c-91bf-f7be3ffe979b.jpg\"]","trial_type":"similarity","trial_index":146,"time_elapsed":1111536,"internal_node_id":"0.0-6.0-140.0"},{"sim_score":6,"rt":5120,"stimulus":"[\"img/0867/12264664-1860-46df-8c21-162b9817cdda.jpg\",\"img/0867/f26f6b60-f772-4f4c-95a4-addc62cfd692.jpg\"]","trial_type":"similarity","trial_index":147,"time_elapsed":1117696,"internal_node_id":"0.0-6.0-141.0"},{"sim_score":3,"rt":6904,"stimulus":"[\"img/0898/5f699581-3853-4547-856c-12f419ba5af7.jpg\",\"img/0898/4184e5a2-84ea-4f36-9b42-ae58646f6f87.jpg\"]","trial_type":"similarity","trial_index":148,"time_elapsed":1125641,"internal_node_id":"0.0-6.0-142.0"},{"sim_score":3,"rt":5525,"stimulus":"[\"img/0866/be24ab58-230e-4db8-9f45-ff04c9aec6bb.jpg\",\"img/0769/8c7cf147-1780-4d5c-8ddf-5ea23ff03ac9.jpg\"]","trial_type":"similarity","trial_index":149,"time_elapsed":1132233,"internal_node_id":"0.0-6.0-143.0"},{"sim_score":6,"rt":4704,"stimulus":"[\"img/0860/8277806e-b684-4474-8f7b-3fca946d7d4f.jpg\",\"img/0898/e167334e-cc1d-4986-b3b1-c7bc7da64baa.jpg\"]","trial_type":"similarity","trial_index":150,"time_elapsed":1137976,"internal_node_id":"0.0-6.0-144.0"},{"sim_score":3,"rt":6373,"stimulus":"[\"img/0766/33aa9ebb-c9f5-418f-8c8b-c77861889568.jpg\",\"img/0864/6e846d43-94a6-4b37-a268-65eda979f052.jpg\"]","trial_type":"similarity","trial_index":151,"time_elapsed":1145392,"internal_node_id":"0.0-6.0-145.0"},{"sim_score":3,"rt":4881,"stimulus":"[\"img/0860/e8b8c51e-1834-4875-8b61-6c5bc9b178bd.jpg\",\"img/0903/6f343da5-00d9-4d50-89d1-2ed24cdb8319.jpg\"]","trial_type":"similarity","trial_index":152,"time_elapsed":1151315,"internal_node_id":"0.0-6.0-146.0"},{"sim_score":3,"rt":5366,"stimulus":"[\"img/0867/a749dddb-69f0-44a6-acdc-2bf295cf6dcc.jpg\",\"img/0764/713cc27e-2338-4486-bfe9-5f5725fbd7a0.jpg\"]","trial_type":"similarity","trial_index":153,"time_elapsed":1157722,"internal_node_id":"0.0-6.0-147.0"},{"sim_score":6,"rt":6337,"stimulus":"[\"img/0769/458d9c77-b844-40b5-bb1b-1e3bbd4da64e.jpg\",\"img/0904/25365108-e038-4021-aac9-797f2063b337.jpg\"]","trial_type":"similarity","trial_index":154,"time_elapsed":1165924,"internal_node_id":"0.0-6.0-148.0"},{"sim_score":5,"rt":5936,"stimulus":"[\"img/0764/958b8576-3a3b-4acc-96dc-06b74de69f37.jpg\",\"img/0901/1b86f2fc-7a1d-4aa8-9252-114f92edef3b.jpg\"]","trial_type":"similarity","trial_index":155,"time_elapsed":1172899,"internal_node_id":"0.0-6.0-149.0"},{"sim_score":6,"rt":5578,"stimulus":"[\"img/0904/6291eb43-c10c-4810-a36a-101d09868b04.jpg\",\"img/0899/25ae6ec8-9565-49fe-a8bb-8d0666f52716.jpg\"]","trial_type":"similarity","trial_index":156,"time_elapsed":1179530,"internal_node_id":"0.0-6.0-150.0"},{"sim_score":2,"rt":4491,"stimulus":"[\"img/0862/eefa5588-9efd-4591-aa5f-a2e17c7d7bcc.jpg\",\"img/0867/de92135f-5b65-4ed9-b245-188292c7c2f8.jpg\"]","trial_type":"similarity","trial_index":157,"time_elapsed":1185053,"internal_node_id":"0.0-6.0-151.0"},{"sim_score":7,"rt":5152,"stimulus":"[\"img/0766/d5d38751-8fa5-476f-93e9-86ed2d9045ef.jpg\",\"img/0766/c23b5a20-e50f-4d85-841f-cf89212a4348.jpg\"]","trial_type":"similarity","trial_index":158,"time_elapsed":1191243,"internal_node_id":"0.0-6.0-152.0"},{"sim_score":2,"rt":4368,"stimulus":"[\"img/0862/f43ceabf-acc1-4107-b857-5d1849808f93.jpg\",\"img/0894/2217bdcd-23a7-42d3-823b-23f2488d7e87.jpg\"]","trial_type":"similarity","trial_index":159,"time_elapsed":1196643,"internal_node_id":"0.0-6.0-153.0"},{"sim_score":5,"rt":5107,"stimulus":"[\"img/0899/a048912c-b12c-40e3-90af-46b69b0cc4fe.jpg\",\"img/0901/d61f267a-c492-4db6-9bfb-61efd49cf072.jpg\"]","trial_type":"similarity","trial_index":160,"time_elapsed":1202785,"internal_node_id":"0.0-6.0-154.0"},{"sim_score":7,"rt":5958,"stimulus":"[\"img/0874/3ce41e7c-40c8-4d58-a546-171114521796.jpg\",\"img/0874/85eb9b8a-c4c6-4e5a-b8e7-363a87a82054.jpg\"]","trial_type":"similarity","trial_index":161,"time_elapsed":1209774,"internal_node_id":"0.0-6.0-155.0"},{"sim_score":5,"rt":4240,"stimulus":"[\"img/0860/f44ba3fb-03a2-42f0-8509-2c1ded493086.jpg\",\"img/0867/8ba0c5a7-c7e4-42cf-a80a-543763b90779.jpg\"]","trial_type":"similarity","trial_index":162,"time_elapsed":1215050,"internal_node_id":"0.0-6.0-156.0"},{"sim_score":2,"rt":4478,"stimulus":"[\"img/0901/f1116359-1ff1-4638-b3b3-700918d36d18.jpg\",\"img/0881/e6746727-7f89-47ec-b939-d98abe78372d.jpg\"]","trial_type":"similarity","trial_index":163,"time_elapsed":1220582,"internal_node_id":"0.0-6.0-157.0"},{"sim_score":6,"rt":5216,"stimulus":"[\"img/0903/b548d383-2a95-4575-8c13-647873751ff1.jpg\",\"img/0902/27b84584-948a-485b-8749-cb09929ef631.jpg\"]","trial_type":"similarity","trial_index":164,"time_elapsed":1226839,"internal_node_id":"0.0-6.0-158.0"},{"sim_score":2,"rt":7218,"stimulus":"[\"img/0860/4c530c3c-6aab-492a-94d1-9c01797bde40.jpg\",\"img/0764/0e7ed062-f798-4366-8a24-6f430926f919.jpg\"]","trial_type":"similarity","trial_index":165,"time_elapsed":1235101,"internal_node_id":"0.0-6.0-159.0"},{"sim_score":4,"rt":4569,"stimulus":"[\"img/0902/71c03003-03ef-4b0f-8229-e0c857150a5d.jpg\",\"img/0875/5a1e5100-0d94-4fec-bbe9-ca9894d2cf8e.jpg\"]","trial_type":"similarity","trial_index":166,"time_elapsed":1240755,"internal_node_id":"0.0-6.0-160.0"},{"sim_score":4,"rt":6465,"stimulus":"[\"img/0898/0af304a2-6a7a-4082-ab7c-4450cd08cc58.jpg\",\"img/0862/cdaed51d-9e2f-4807-801a-4663c40077e2.jpg\"]","trial_type":"similarity","trial_index":167,"time_elapsed":1248267,"internal_node_id":"0.0-6.0-161.0"},{"sim_score":1,"rt":5382,"stimulus":"[\"img/0894/e6385e52-6c35-43bd-b0af-bc803d107b11.jpg\",\"img/0875/99698b4d-b4a1-44bc-8c83-8ea755bbbf61.jpg\"]","trial_type":"similarity","trial_index":168,"time_elapsed":1254690,"internal_node_id":"0.0-6.0-162.0"},{"sim_score":6,"rt":4704,"stimulus":"[\"img/0866/a04d37f0-99dd-478a-b6c6-58b215138f84.jpg\",\"img/0864/e8bd659f-aa43-4748-877e-3118e8b4e189.jpg\"]","trial_type":"similarity","trial_index":169,"time_elapsed":1260423,"internal_node_id":"0.0-6.0-163.0"},{"sim_score":1,"rt":5148,"stimulus":"[\"img/0766/71b81ebd-0937-4d7f-b8bf-c4e46a4728fd.jpg\",\"img/0862/de9ad88c-b522-430a-8ee9-eb06a9f85df5.jpg\"]","trial_type":"similarity","trial_index":170,"time_elapsed":1266609,"internal_node_id":"0.0-6.0-164.0"},{"sim_score":6,"rt":4768,"stimulus":"[\"img/0866/23a224f3-2012-4fc8-8e0f-3c36f8de27fd.jpg\",\"img/0874/93d1f8dc-acf2-4f03-bd8d-8ec35df276ed.jpg\"]","trial_type":"similarity","trial_index":171,"time_elapsed":1272440,"internal_node_id":"0.0-6.0-165.0"},{"sim_score":7,"rt":5288,"stimulus":"[\"img/0862/ad593cc7-cabe-4bb7-8e14-8a447a0717b4.jpg\",\"img/0860/702bd09d-df3a-40aa-a267-5f04474305b5.jpg\"]","trial_type":"similarity","trial_index":172,"time_elapsed":1278764,"internal_node_id":"0.0-6.0-166.0"},{"sim_score":5,"rt":4369,"stimulus":"[\"img/0766/09f646c8-a69e-4ed3-879c-8d29b04ad7f9.jpg\",\"img/0901/bc47e078-bda4-40ed-b89a-bbd819164b95.jpg\"]","trial_type":"similarity","trial_index":173,"time_elapsed":1289614,"internal_node_id":"0.0-6.0-167.0"},{"sim_score":5,"rt":5864,"stimulus":"[\"img/0862/064818ee-13d5-4618-bb24-21c7368ea278.jpg\",\"img/0862/1c20f772-3a51-4a80-aac0-f57dc9f86c28.jpg\"]","trial_type":"similarity","trial_index":174,"time_elapsed":1296531,"internal_node_id":"0.0-6.0-168.0"},{"sim_score":5,"rt":4496,"stimulus":"[\"img/0894/05161000-f476-499b-a878-c13c7f347fd9.jpg\",\"img/0764/f713847b-4832-42d1-8fb3-e17e37fd745c.jpg\"]","trial_type":"similarity","trial_index":175,"time_elapsed":1302064,"internal_node_id":"0.0-6.0-169.0"},{"sim_score":3,"rt":5795,"stimulus":"[\"img/0874/adf9a8f1-c40b-402b-b95b-1e85a54a7b62.jpg\",\"img/0898/82231d4c-218b-4d0a-b50d-35a49b524e97.jpg\"]","trial_type":"similarity","trial_index":176,"time_elapsed":1308893,"internal_node_id":"0.0-6.0-170.0"},{"sim_score":3,"rt":6885,"stimulus":"[\"img/0860/31ff6436-98bf-4652-bed2-40f627229568.jpg\",\"img/0766/af3be95e-e52e-4fae-899b-0ff02ec340aa.jpg\"]","trial_type":"similarity","trial_index":177,"time_elapsed":1316815,"internal_node_id":"0.0-6.0-171.0"},{"sim_score":3,"rt":6300,"stimulus":"[\"img/0898/ec565187-2e31-4fdd-9a5c-153d0c789ae0.jpg\",\"img/0864/da39ad34-04e0-40d4-a724-c08d53e0ea09.jpg\"]","trial_type":"similarity","trial_index":178,"time_elapsed":1324181,"internal_node_id":"0.0-6.0-172.0"},{"sim_score":2,"rt":5037,"stimulus":"[\"img/0881/19e82c47-8e4b-45d2-a6c8-74181eb4155e.jpg\",\"img/0764/974d52cc-6318-4e7a-b294-2f3e92ff800f.jpg\"]","trial_type":"similarity","trial_index":179,"time_elapsed":1330264,"internal_node_id":"0.0-6.0-173.0"},{"sim_score":4,"rt":5067,"stimulus":"[\"img/0898/04e39a7a-fcf6-4156-ab0e-f5871f335e1c.jpg\",\"img/0868/4e626425-63c8-484a-8a1d-e66ee4e0bef8.jpg\"]","trial_type":"similarity","trial_index":180,"time_elapsed":1337023,"internal_node_id":"0.0-6.0-174.0"},{"sim_score":3,"rt":5910,"stimulus":"[\"img/0864/1ebbc554-99fa-49f9-8799-317375a79820.jpg\",\"img/0864/b3c4e378-28f0-4699-9338-2a257b4bca04.jpg\"]","trial_type":"similarity","trial_index":181,"time_elapsed":1343969,"internal_node_id":"0.0-6.0-175.0"},{"sim_score":2,"rt":5075,"stimulus":"[\"img/0899/f95cbdb4-f804-4f5d-ad76-373ad343e658.jpg\",\"img/0862/92fcd8a4-8193-4a6a-ae09-dd4a6338b0df.jpg\"]","trial_type":"similarity","trial_index":182,"time_elapsed":1350074,"internal_node_id":"0.0-6.0-176.0"},{"sim_score":6,"rt":5748,"stimulus":"[\"img/0875/cff79b3a-a797-4393-9757-6275f999ec04.jpg\",\"img/0758/7ee8bc8f-c40b-4b3a-84ec-3e83580622d4.jpg\"]","trial_type":"similarity","trial_index":183,"time_elapsed":1356854,"internal_node_id":"0.0-6.0-177.0"},{"sim_score":1,"rt":5043,"stimulus":"[\"img/0866/4a87911a-d5be-4d4e-ab8e-3d1f581bf507.jpg\",\"img/0901/548d1110-7cb8-42a2-9927-9798875c8b5c.jpg\"]","trial_type":"similarity","trial_index":184,"time_elapsed":1362947,"internal_node_id":"0.0-6.0-178.0"},{"sim_score":6,"rt":5947,"stimulus":"[\"img/0769/9ea9ceb6-049e-4ad9-be8f-00645cd35803.jpg\",\"img/0874/c0378dac-9370-439a-8b79-db27c96fb390.jpg\"]","trial_type":"similarity","trial_index":185,"time_elapsed":1369928,"internal_node_id":"0.0-6.0-179.0"},{"sim_score":4,"rt":4425,"stimulus":"[\"img/0875/dbdd643e-6d0e-4a5c-ab57-b9c29b9c981a.jpg\",\"img/0881/7e822106-76f7-4b10-a805-14dc68b2cfaf.jpg\"]","trial_type":"similarity","trial_index":186,"time_elapsed":1375391,"internal_node_id":"0.0-6.0-180.0"},{"sim_score":3,"rt":5561,"stimulus":"[\"img/0866/11a1d141-be5e-443c-98c1-a9d4d9e3dec0.jpg\",\"img/0868/15dd6fd7-791e-4b53-b203-195d617521a4.jpg\"]","trial_type":"similarity","trial_index":187,"time_elapsed":1381984,"internal_node_id":"0.0-6.0-181.0"},{"sim_score":2,"rt":5267,"stimulus":"[\"img/0899/00715b3f-851b-420b-a26b-d7f79f7759a9.jpg\",\"img/0758/53f35650-e455-4b53-8be4-c3c8271c6466.jpg\"]","trial_type":"similarity","trial_index":188,"time_elapsed":1388284,"internal_node_id":"0.0-6.0-182.0"},{"sim_score":7,"rt":5978,"stimulus":"[\"img/0874/3f471690-9788-4d03-90c7-f615aecef149.jpg\",\"img/0875/42910c99-5463-450a-a0f8-d4d060a11455.jpg\"]","trial_type":"similarity","trial_index":189,"time_elapsed":1395305,"internal_node_id":"0.0-6.0-183.0"},{"sim_score":1,"rt":4781,"stimulus":"[\"img/0904/56e73f28-7e64-489b-a161-e6b1a063878d.jpg\",\"img/0862/fb26cb07-d5a9-4653-813c-f41609f26cd5.jpg\"]","trial_type":"similarity","trial_index":190,"time_elapsed":1401140,"internal_node_id":"0.0-6.0-184.0"},{"sim_score":6,"rt":6214,"stimulus":"[\"img/0902/a323b62d-2fd5-4ac8-acc6-35b768f3c3f2.jpg\",\"img/0766/908bc45b-7c9e-4f95-806e-86b196ebcb2c.jpg\"]","trial_type":"similarity","trial_index":191,"time_elapsed":1408395,"internal_node_id":"0.0-6.0-185.0"},{"sim_score":2,"rt":5377,"stimulus":"[\"img/0758/9fb5b2fe-3f00-4fe6-973c-1ce10d5f4cd5.jpg\",\"img/0769/91acb237-65a3-4d0b-9748-af5c7b83d3c7.jpg\"]","trial_type":"similarity","trial_index":192,"time_elapsed":1414815,"internal_node_id":"0.0-6.0-186.0"},{"sim_score":7,"rt":5379,"stimulus":"[\"img/0881/609a5e93-38b5-4940-8627-2bf8fad7f802.jpg\",\"img/0881/d1982897-8d8d-4704-a940-1ee5d07a1f15.jpg\"]","trial_type":"similarity","trial_index":193,"time_elapsed":1421254,"internal_node_id":"0.0-6.0-187.0"},{"sim_score":6,"rt":8109,"stimulus":"[\"img/0758/335851a0-a55b-46d8-ab05-8463eda48349.jpg\",\"img/0866/d493a2c8-66eb-44b4-be02-2f327b700b7c.jpg\"]","trial_type":"similarity","trial_index":194,"time_elapsed":1430406,"internal_node_id":"0.0-6.0-188.0"},{"sim_score":3,"rt":5230,"stimulus":"[\"img/0764/b887d7c6-aa81-4637-af8e-05135757ac59.jpg\",\"img/0898/f3a3f225-1248-4ac7-b93b-f0ff28485bf3.jpg\"]","trial_type":"similarity","trial_index":195,"time_elapsed":1436666,"internal_node_id":"0.0-6.0-189.0"},{"sim_score":2,"rt":5629,"stimulus":"[\"img/0903/776b74ee-a8ab-4ab8-a78d-097c0747538d.jpg\",\"img/0901/875dedb9-24c9-4443-9f8c-85e97d70ee5a.jpg\"]","trial_type":"similarity","trial_index":196,"time_elapsed":1443333,"internal_node_id":"0.0-6.0-190.0"},{"sim_score":4,"rt":5287,"stimulus":"[\"img/0902/418b716e-63e5-4c77-93e9-95b1f5a3ddf0.jpg\",\"img/0898/81b08535-2020-4c15-9ce4-2f1e460755ae.jpg\"]","trial_type":"similarity","trial_index":197,"time_elapsed":1449660,"internal_node_id":"0.0-6.0-191.0"},{"sim_score":1,"rt":4943,"stimulus":"[\"img/0864/5f74a653-3bdc-4308-8cca-ac667dc22e1f.jpg\",\"img/0901/2a953e50-d237-405c-a38d-5ed21494c968.jpg\"]","trial_type":"similarity","trial_index":198,"time_elapsed":1455650,"internal_node_id":"0.0-6.0-192.0"},{"sim_score":2,"rt":6238,"stimulus":"[\"img/0894/7fb082e0-ce79-485c-9109-04367fb32275.jpg\",\"img/0881/d373cb9f-a719-4549-a2a4-82def79fb2a5.jpg\"]","trial_type":"similarity","trial_index":199,"time_elapsed":1462922,"internal_node_id":"0.0-6.0-193.0"},{"sim_score":3,"rt":5971,"stimulus":"[\"img/0868/179a5502-ab5c-478e-8263-5a1fbcc101d2.jpg\",\"img/0868/5fa7f9d0-f0e5-454c-8224-74d964818f56.jpg\"]","trial_type":"similarity","trial_index":200,"time_elapsed":1469923,"internal_node_id":"0.0-6.0-194.0"},{"sim_score":5,"rt":4086,"stimulus":"[\"img/0899/a05bea16-2bb4-4cb9-b8fb-4ff975db6971.jpg\",\"img/0764/e0788029-9d7f-414c-b747-46d2a99f7c86.jpg\"]","trial_type":"similarity","trial_index":201,"time_elapsed":1475045,"internal_node_id":"0.0-6.0-195.0"},{"sim_score":3,"rt":4805,"stimulus":"[\"img/0881/33d65d80-8a8e-4ecf-852d-0ad7725c17a2.jpg\",\"img/0904/b7c2a2c8-df33-4473-b3d4-ff7147c60db3.jpg\"]","trial_type":"similarity","trial_index":202,"time_elapsed":1480877,"internal_node_id":"0.0-6.0-196.0"},{"sim_score":3,"rt":5471,"stimulus":"[\"img/0864/ef9cbca0-4be8-435d-ad49-977259e80409.jpg\",\"img/0902/f3cfec34-482c-4bdb-9c92-19ea6cfce183.jpg\"]","trial_type":"similarity","trial_index":203,"time_elapsed":1487373,"internal_node_id":"0.0-6.0-197.0"},{"sim_score":4,"rt":4681,"stimulus":"[\"img/0894/2d2db7b3-e8a3-499b-b63a-14f51bf73882.jpg\",\"img/0904/1d10df11-b5c8-4370-9a6b-097a7f965895.jpg\"]","trial_type":"similarity","trial_index":204,"time_elapsed":1493085,"internal_node_id":"0.0-6.0-198.0"},{"sim_score":2,"rt":4435,"stimulus":"[\"img/0901/a0d65c84-3f20-476a-92d1-0c01e8019cf4.jpg\",\"img/0901/4f9cffe0-c0be-4d7f-bacd-9d51efd19b4a.jpg\"]","trial_type":"similarity","trial_index":205,"time_elapsed":1498578,"internal_node_id":"0.0-6.0-199.0"},{"sim_score":1,"rt":5052,"stimulus":"[\"img/0894/11674fa4-285d-44e2-939f-2228c6a64080.jpg\",\"img/0860/29a21a9f-54bb-4093-ad3f-04823ceaa89f.jpg\"]","trial_type":"similarity","trial_index":206,"time_elapsed":1504666,"internal_node_id":"0.0-6.0-200.0"},{"sim_score":4,"rt":4839,"stimulus":"[\"img/0898/79233891-305a-4a6a-8ddf-5c8604858203.jpg\",\"img/0903/ea75f240-fb62-4edb-a709-83e858b202c0.jpg\"]","trial_type":"similarity","trial_index":207,"time_elapsed":1510555,"internal_node_id":"0.0-6.0-201.0"},{"sim_score":2,"rt":4485,"stimulus":"[\"img/0864/ea327690-500b-4137-bf91-451b309fe6a5.jpg\",\"img/0894/86201968-6e78-4d68-9b3a-d1692e066210.jpg\"]","trial_type":"similarity","trial_index":208,"time_elapsed":1516215,"internal_node_id":"0.0-6.0-202.0"},{"sim_score":3,"rt":4779,"stimulus":"[\"img/0874/99f6563c-8a8d-4c1c-a41d-667b618c3fd5.jpg\",\"img/0860/5bff793e-cbd5-4d7e-b628-0ac2b0e30b64.jpg\"]","trial_type":"similarity","trial_index":209,"time_elapsed":1522026,"internal_node_id":"0.0-6.0-203.0"},{"sim_score":3,"rt":4162,"stimulus":"[\"img/0862/5d887e9f-89e2-4ebc-80a0-6d46fe6480db.jpg\",\"img/0875/8521fd58-3b1e-4dc5-97ae-804edfa6734a.jpg\"]","trial_type":"similarity","trial_index":210,"time_elapsed":1527221,"internal_node_id":"0.0-6.0-204.0"},{"sim_score":4,"rt":5401,"stimulus":"[\"img/0867/6e19c858-b606-45b2-a4c6-910a73f1d82c.jpg\",\"img/0881/54ea8e77-c7e5-4197-b7fa-00b7020849a7.jpg\"]","trial_type":"similarity","trial_index":211,"time_elapsed":1533660,"internal_node_id":"0.0-6.0-205.0"},{"sim_score":7,"rt":4999,"stimulus":"[\"img/0901/5b97abf9-f0c8-4fd1-b921-36d574779078.jpg\",\"img/0902/2db723b6-130f-454c-8c8d-88829edbcd65.jpg\"]","trial_type":"similarity","trial_index":212,"time_elapsed":1539714,"internal_node_id":"0.0-6.0-206.0"},{"sim_score":3,"rt":5752,"stimulus":"[\"img/0899/0433d056-aa30-4f8a-9aa1-abbb951e4edd.jpg\",\"img/0864/e336a4c5-6648-4fd7-b2f6-93a3fb83f8c6.jpg\"]","trial_type":"similarity","trial_index":213,"time_elapsed":1546495,"internal_node_id":"0.0-6.0-207.0"},{"sim_score":2,"rt":7285,"stimulus":"[\"img/0901/1ede21d9-384f-4150-86b5-e1c57b5dc1d4.jpg\",\"img/0769/e8ed913b-8a88-44f6-9327-d34afec3116b.jpg\"]","trial_type":"similarity","trial_index":214,"time_elapsed":1554810,"internal_node_id":"0.0-6.0-208.0"},{"sim_score":7,"rt":5593,"stimulus":"[\"img/0902/0eb85fbc-27c8-41df-9d0b-a5f9efd417d1.jpg\",\"img/0902/511abb54-0094-4f4d-b6dc-3f2c97050521.jpg\"]","trial_type":"similarity","trial_index":215,"time_elapsed":1566410,"internal_node_id":"0.0-6.0-209.0"},{"view_history":"[{\"page_index\":0,\"viewing_time\":9772}]","rt":9773,"trial_type":"instructions","trial_index":216,"time_elapsed":1577187,"internal_node_id":"0.0-7.0"},{"rt":47689,"responses":"{\"Q0\":\"Tennessee Warbler\"}","answer":["Nashville Warbler"],"trial_type":"image-multi-choice","trial_index":217,"time_elapsed":1625952,"internal_node_id":"0.0-8.0-0.0"},{"rt":29924,"responses":"{\"Q0\":\"Magnolia Warbler\"}","answer":["Black-and-white Warbler"],"trial_type":"image-multi-choice","trial_index":218,"time_elapsed":1656983,"internal_node_id":"0.0-8.0-1.0"},{"rt":52598,"responses":"{\"Q0\":\"Magnolia Warbler\"}","answer":["Townsend's Warbler"],"trial_type":"image-multi-choice","trial_index":219,"time_elapsed":1710676,"internal_node_id":"0.0-8.0-2.0"},{"rt":22870,"responses":"{\"Q0\":\"Lark Sparrow\"}","answer":["Lark Sparrow"],"trial_type":"image-multi-choice","trial_index":220,"time_elapsed":1734639,"internal_node_id":"0.0-8.0-3.0"},{"rt":9595,"responses":"{\"Q0\":\"Yellow Warbler\"}","answer":["Yellow Warbler"],"trial_type":"image-multi-choice","trial_index":221,"time_elapsed":1745297,"internal_node_id":"0.0-8.0-4.0"},{"rt":24522,"responses":"{\"Q0\":\"Orange-crowned Warbler\"}","answer":["Orange-crowned Warbler"],"trial_type":"image-multi-choice","trial_index":222,"time_elapsed":1770896,"internal_node_id":"0.0-8.0-5.0"},{"rt":15820,"responses":"{\"Q0\":\"Lincoln's Sparrow\"}","answer":["White-throated Sparrow"],"trial_type":"image-multi-choice","trial_index":223,"time_elapsed":1787777,"internal_node_id":"0.0-8.0-6.0"},{"rt":32119,"responses":"{\"Q0\":\"Lincoln's Sparrow\"}","answer":["Fox Sparrow"],"trial_type":"image-multi-choice","trial_index":224,"time_elapsed":1820969,"internal_node_id":"0.0-8.0-7.0"},{"rt":19648,"responses":"{\"Q0\":\"White-throated Sparrow\"}","answer":["Song Sparrow"],"trial_type":"image-multi-choice","trial_index":225,"time_elapsed":1841676,"internal_node_id":"0.0-8.0-8.0"},{"rt":8706,"responses":"{\"Q0\":\"Blackburnian Warbler\"}","answer":["Blackburnian Warbler"],"trial_type":"image-multi-choice","trial_index":226,"time_elapsed":1851484,"internal_node_id":"0.0-8.0-9.0"},{"rt":39087,"responses":"{\"Q0\":\"Chipping Sparrow\"}","answer":["Vesper Sparrow"],"trial_type":"image-multi-choice","trial_index":227,"time_elapsed":1891645,"internal_node_id":"0.0-8.0-10.0"},{"rt":5424,"responses":"{\"Q0\":\"White-crowned Sparrow\"}","answer":["White-crowned Sparrow"],"trial_type":"image-multi-choice","trial_index":228,"time_elapsed":1898140,"internal_node_id":"0.0-8.0-11.0"},{"rt":23222,"responses":"{\"Q0\":\"Fox Sparrow\"}","answer":["American Tree Sparrow"],"trial_type":"image-multi-choice","trial_index":229,"time_elapsed":1922750,"internal_node_id":"0.0-8.0-12.0"},{"rt":25305,"responses":"{\"Q0\":\"Tennessee Warbler\"}","answer":["Tennessee Warbler"],"trial_type":"image-multi-choice","trial_index":230,"time_elapsed":1949151,"internal_node_id":"0.0-8.0-13.0"},{"rt":15178,"responses":"{\"Q0\":\"Magnolia Warbler\"}","answer":["Magnolia Warbler"],"trial_type":"image-multi-choice","trial_index":231,"time_elapsed":1965391,"internal_node_id":"0.0-8.0-14.0"},{"rt":7405,"responses":"{\"Q0\":\"Northern Waterthrush\"}","answer":["Northern Waterthrush"],"trial_type":"image-multi-choice","trial_index":232,"time_elapsed":1973900,"internal_node_id":"0.0-8.0-15.0"},{"rt":29084,"responses":"{\"Q0\":\"Chipping Sparrow\"}","answer":["Chipping Sparrow"],"trial_type":"image-multi-choice","trial_index":233,"time_elapsed":2004085,"internal_node_id":"0.0-8.0-16.0"},{"rt":36375,"responses":"{\"Q0\":\"Lincoln's Sparrow\"}","answer":["Swamp Sparrow"],"trial_type":"image-multi-choice","trial_index":234,"time_elapsed":2041564,"internal_node_id":"0.0-8.0-17.0"},{"rt":13759,"responses":"{\"Q0\":\"Song Sparrow\"}","answer":["Lincoln's Sparrow"],"trial_type":"image-multi-choice","trial_index":235,"time_elapsed":2056432,"internal_node_id":"0.0-8.0-18.0"},{"rt":5720,"responses":"{\"Q0\":\"Ovenbird\"}","answer":["Ovenbird"],"trial_type":"image-multi-choice","trial_index":236,"time_elapsed":2063228,"internal_node_id":"0.0-8.0-19.0"}]