"view_history","rt","trial_type","trial_index","time_elapsed","internal_node_id","sim_score","stimulus","responses","answer"
"[{""page_index"":0,""viewing_time"":29024}]","29026","instructions","0","29030","0.0-0.0","","","",""
"","12578","similarity_demo","1","42632","0.0-1.0","5","[""img/866.jpg"",""img/868.jpg""]","",""
"[{""page_index"":0,""viewing_time"":8580}]","8580","instructions","2","52213","0.0-2.0","","","",""
"","5582","similarity_demo","3","58807","0.0-3.0","2","[""img/766.jpg"",""img/867.jpg""]","",""
"[{""page_index"":0,""viewing_time"":4422}]","4422","instructions","4","64229","0.0-4.0","","","",""
"[{""page_index"":0,""viewing_time"":42711}]","42711","instructions","5","107941","0.0-5.0","","","",""
"","7990","similarity","6","116936","0.0-6.0-0.0","2","[""img/0868/3a62db2d-97e9-44a3-b8e3-a48c6f0e423b.jpg"",""img/0901/875dedb9-24c9-4443-9f8c-85e97d70ee5a.jpg""]","",""
"","5756","similarity","7","123694","0.0-6.0-1.0","3","[""img/0769/3c1efec9-f8fd-487d-8955-4be88e48c832.jpg"",""img/0867/bf560d4f-dee3-4f11-a385-705cc1aa5f3c.jpg""]","",""
"","4021","similarity","8","128727","0.0-6.0-2.0","2","[""img/0766/ba35c0fc-4d5b-490d-959e-c94b279cdd02.jpg"",""img/0898/f3a3f225-1248-4ac7-b93b-f0ff28485bf3.jpg""]","",""
"","4138","similarity","9","133871","0.0-6.0-3.0","2","[""img/0902/d2c34af0-8c50-437d-8cc3-619195a3e8ba.jpg"",""img/0881/b549bc99-a61c-4450-bab5-9efc3a197bf0.jpg""]","",""
"","5919","similarity","10","140798","0.0-6.0-4.0","5","[""img/0894/151063aa-6472-4745-837b-36603aba5966.jpg"",""img/0894/792c83e9-a747-4000-bc72-5663d2439edb.jpg""]","",""
"","5308","similarity","11","147111","0.0-6.0-5.0","6","[""img/0874/2c9464dd-8a23-4baa-ac94-1ba3af5c15cc.jpg"",""img/0899/93494f3b-d539-4075-b027-d82e344563da.jpg""]","",""
"","4323","similarity","12","152446","0.0-6.0-6.0","2","[""img/0904/b5855d6a-7ef9-46ca-9215-6e9fa046e543.jpg"",""img/0764/d7f3ac54-318a-4dac-a06b-62bed34d01a4.jpg""]","",""
"","6203","similarity","13","159654","0.0-6.0-7.0","3","[""img/0899/56a605c3-d0a2-4215-89e1-779279d85a7c.jpg"",""img/0898/b3290bf9-215b-4b45-b21a-65bdf73f142f.jpg""]","",""
"","4342","similarity","14","165007","0.0-6.0-8.0","1","[""img/0874/767f289c-9814-4496-803f-745cc8913d1f.jpg"",""img/0903/81368973-de81-46f4-844f-b901f3bfd66d.jpg""]","",""
"","7375","similarity","15","173391","0.0-6.0-9.0","2","[""img/0881/d373cb9f-a719-4549-a2a4-82def79fb2a5.jpg"",""img/0758/eabcd7a8-56ad-4fd2-bc24-90f6b7b33265.jpg""]","",""
"","5895","similarity","16","180294","0.0-6.0-10.0","6","[""img/0898/993d8f2d-bef7-4251-a193-0f93a32b7763.jpg"",""img/0901/5657dd86-0ff9-4753-ba2b-9dfb223e5c89.jpg""]","",""
"","5471","similarity","17","186776","0.0-6.0-11.0","3","[""img/0903/5c6b1f57-b3a2-40f5-9fb1-82785e24b6a0.jpg"",""img/0769/878531fd-e0e8-4ad1-b9ad-f018bb104ca0.jpg""]","",""
"","3884","similarity","18","191671","0.0-6.0-12.0","1","[""img/0764/cbdc4f20-3a9a-4211-9b40-090699e0abcc.jpg"",""img/0868/83b4350a-3b70-4cea-b7f5-b5b56f3050a8.jpg""]","",""
"","3854","similarity","19","196535","0.0-6.0-13.0","1","[""img/0867/98d8cd96-1476-4fe0-a3a3-04f875500a1b.jpg"",""img/0903/150cf64c-0bd2-4674-abbb-a1387cf1f3e9.jpg""]","",""
"","4991","similarity","20","202533","0.0-6.0-14.0","2","[""img/0766/fd74fdbb-ea40-4f3a-a091-38d08dfd636e.jpg"",""img/0758/6e95579b-5166-487c-b8cb-e417c6a218e3.jpg""]","",""
"","3807","similarity","21","207350","0.0-6.0-15.0","3","[""img/0902/3b243e54-0803-4c29-af42-4037c2118495.jpg"",""img/0860/4f695df5-afac-4da7-9875-fee39b0b24ad.jpg""]","",""
"","5194","similarity","22","213551","0.0-6.0-16.0","3","[""img/0769/ebef2ddc-ba59-4e0e-97f8-927864eb5081.jpg"",""img/0875/03c3c331-738b-4446-af92-3d7386b08c2e.jpg""]","",""
"","5577","similarity","23","220135","0.0-6.0-17.0","1","[""img/0904/0d25eb24-bb20-4e8d-9787-8b489558b4cb.jpg"",""img/0866/bf14b5bd-fb55-47db-86b9-4f8aeb9a6dad.jpg""]","",""
"","4365","similarity","24","225511","0.0-6.0-18.0","7","[""img/0875/5a1e5100-0d94-4fec-bbe9-ca9894d2cf8e.jpg"",""img/0875/90da8d75-108a-44ad-b999-e21fee3860d3.jpg""]","",""
"","5333","similarity","25","231855","0.0-6.0-19.0","7","[""img/0758/e1ba5e53-addc-436a-b428-d34fc1b130dc.jpg"",""img/0758/b76ceca7-95ac-46e4-ac13-da02c8e93be9.jpg""]","",""
"","4612","similarity","26","237471","0.0-6.0-20.0","2","[""img/0902/af45fe42-178c-4c1a-99ef-256e87e3b092.jpg"",""img/0874/29830da7-be5f-44e5-b141-652a0ccf7269.jpg""]","",""
"","5086","similarity","27","243566","0.0-6.0-21.0","7","[""img/0764/62fafeea-6274-48ce-976f-35d3d3484c65.jpg"",""img/0769/75f7e514-0548-4329-b1e4-93c05e74f038.jpg""]","",""
"","4188","similarity","28","248766","0.0-6.0-22.0","1","[""img/0901/5b97abf9-f0c8-4fd1-b921-36d574779078.jpg"",""img/0874/7e4f2150-3b59-4a36-b5da-a4e0ba410531.jpg""]","",""
"","5374","similarity","29","255150","0.0-6.0-23.0","3","[""img/0875/dbdd643e-6d0e-4a5c-ab57-b9c29b9c981a.jpg"",""img/0903/f45a103c-9bfe-49fd-ad96-bdd8d2589195.jpg""]","",""
"","4252","similarity","30","260415","0.0-6.0-24.0","3","[""img/0769/bb8c4e53-6f32-4814-97ee-392d4decfb2e.jpg"",""img/0881/566f45f8-5fed-4479-a60f-26377e60a62d.jpg""]","",""
"","3876","similarity","31","265296","0.0-6.0-25.0","2","[""img/0867/f8159067-056c-41f1-a136-c529fe5e970a.jpg"",""img/0904/06dacdc5-2206-4fb8-92b7-88042d22833c.jpg""]","",""
"","4071","similarity","32","270374","0.0-6.0-26.0","1","[""img/0860/d9a0d117-6d1d-41c0-8fec-9aff0fd9e9f2.jpg"",""img/0881/c24f3051-eefa-42de-aba6-fccb56d93c70.jpg""]","",""
"","4743","similarity","33","276126","0.0-6.0-27.0","7","[""img/0866/6f2a90d7-14f1-4f1b-bd64-fc0af6b9fe44.jpg"",""img/0866/386235d2-6857-41e7-88a8-25cfc3430025.jpg""]","",""
"","3541","similarity","34","280678","0.0-6.0-28.0","1","[""img/0764/56441045-b648-4ede-9632-3e9c0227080b.jpg"",""img/0862/53a9cf7c-93c4-41b9-952f-07d17f7a17b2.jpg""]","",""
"","4439","similarity","35","286127","0.0-6.0-29.0","1","[""img/0904/2c98dc56-88d1-4fb5-a999-b6a7861f65f0.jpg"",""img/0758/caa93da2-9edf-49fa-96b9-32dedd8f5078.jpg""]","",""
"","5835","similarity","36","292968","0.0-6.0-30.0","4","[""img/0894/7fb082e0-ce79-485c-9109-04367fb32275.jpg"",""img/0899/00715b3f-851b-420b-a26b-d7f79f7759a9.jpg""]","",""
"","4179","similarity","37","298150","0.0-6.0-31.0","2","[""img/0860/e8b8c51e-1834-4875-8b61-6c5bc9b178bd.jpg"",""img/0904/5aec2708-cf14-4a58-aa30-9a8a61c1be0e.jpg""]","",""
"","2847","similarity","38","302006","0.0-6.0-32.0","1","[""img/0874/3f471690-9788-4d03-90c7-f615aecef149.jpg"",""img/0881/f7a8cc63-8842-40a4-9ff8-fe530310d62c.jpg""]","",""
"","5149","similarity","39","308158","0.0-6.0-33.0","2","[""img/0881/2a8413be-fec2-4de6-88ad-614dd4cccc9d.jpg"",""img/0899/06b0fc99-0581-461a-9913-d1a5a941ac61.jpg""]","",""
"","4295","similarity","40","313462","0.0-6.0-34.0","2","[""img/0866/a15b02be-11bb-43e3-b0e0-ecc3bd7dfc49.jpg"",""img/0862/47ed5efd-4ec9-4b74-bb4e-a5f5cf0c3e7d.jpg""]","",""
"","3141","similarity","41","317614","0.0-6.0-35.0","2","[""img/0868/c8ac40c7-6904-4e13-8d61-c75d3052dc4e.jpg"",""img/0894/5ff3c4f6-52e2-4075-8679-be0312e59703.jpg""]","",""
"","4481","similarity","42","323102","0.0-6.0-36.0","3","[""img/0860/4a022222-056d-461c-ab02-39fac9647552.jpg"",""img/0860/5bff793e-cbd5-4d7e-b628-0ac2b0e30b64.jpg""]","",""
"","3991","similarity","43","328102","0.0-6.0-37.0","2","[""img/0862/ee3b7bff-4a70-4e84-9bea-4a565e456acb.jpg"",""img/0864/5f74a653-3bdc-4308-8cca-ac667dc22e1f.jpg""]","",""
"","3883","similarity","44","332998","0.0-6.0-38.0","3","[""img/0766/af3be95e-e52e-4fae-899b-0ff02ec340aa.jpg"",""img/0866/11a1d141-be5e-443c-98c1-a9d4d9e3dec0.jpg""]","",""
"","4485","similarity","45","338494","0.0-6.0-39.0","2","[""img/0875/34132396-d896-4c2d-8087-646dd867e769.jpg"",""img/0898/4184e5a2-84ea-4f36-9b42-ae58646f6f87.jpg""]","",""
"","5488","similarity","46","344992","0.0-6.0-40.0","6","[""img/0766/5d1b8041-c5a1-4b02-b4fe-3453d98a0d72.jpg"",""img/0769/688d0c52-ad73-4065-a5eb-f8c10d076bff.jpg""]","",""
"","4991","similarity","47","365478","0.0-6.0-41.0","6","[""img/0874/c0378dac-9370-439a-8b79-db27c96fb390.jpg"",""img/0764/5d83b9db-3b2b-4dc8-9bd1-2b515b19c858.jpg""]","",""
"","7407","similarity","48","373895","0.0-6.0-42.0","4","[""img/0868/e0aff734-077f-40dd-9781-74821abd3621.jpg"",""img/0902/95a36b6b-9601-4fa5-8fd9-606ea62f9425.jpg""]","",""
"","9340","similarity","49","384238","0.0-6.0-43.0","5","[""img/0875/a4935837-7d3c-4df6-88c1-36a94d4991ca.jpg"",""img/0899/66ab3178-c3fe-4455-ad17-d5952b08e018.jpg""]","",""
"","5276","similarity","50","390519","0.0-6.0-44.0","2","[""img/0866/0207e9a2-7dbb-40b5-9459-b472aaeceb2a.jpg"",""img/0860/e14d67c1-6d92-4f1e-9257-c8607159c19c.jpg""]","",""
"","3887","similarity","51","395415","0.0-6.0-45.0","3","[""img/0766/d14acac4-7db1-4b07-8f8f-302437326fc0.jpg"",""img/0903/365f176c-25a4-4973-bd3c-279bf1b39476.jpg""]","",""
"","5523","similarity","52","401951","0.0-6.0-46.0","3","[""img/0901/d61f267a-c492-4db6-9bfb-61efd49cf072.jpg"",""img/0904/63dd06dd-dccb-47ba-9740-eb33239e18a7.jpg""]","",""
"","4700","similarity","53","407662","0.0-6.0-47.0","3","[""img/0758/ddc336e9-a8b6-4bb9-937a-c7e25e0e9250.jpg"",""img/0902/8065aa6b-4aef-4368-afa2-02c6465ca582.jpg""]","",""
"","5788","similarity","54","414454","0.0-6.0-48.0","5","[""img/0764/bc3865c9-9004-4582-88a7-048478673f97.jpg"",""img/0764/4bec8d92-75aa-475a-954d-8215dbe538f5.jpg""]","",""
"","4060","similarity","55","419525","0.0-6.0-49.0","2","[""img/0866/a04d37f0-99dd-478a-b6c6-58b215138f84.jpg"",""img/0902/4e0baa32-988e-46f6-989d-f669225ab645.jpg""]","",""
"","5857","similarity","56","426391","0.0-6.0-50.0","5","[""img/0764/ba0c0955-acbb-457d-b1c2-f006b88121d5.jpg"",""img/0758/7ee8bc8f-c40b-4b3a-84ec-3e83580622d4.jpg""]","",""
"","4533","similarity","57","431935","0.0-6.0-51.0","4","[""img/0898/e167334e-cc1d-4986-b3b1-c7bc7da64baa.jpg"",""img/0894/7f2f31fd-6618-41c6-b65a-0fd8b2851bc9.jpg""]","",""
"","4719","similarity","58","437662","0.0-6.0-52.0","5","[""img/0875/3ecb367d-e9eb-4826-8aaa-7aa72fb98019.jpg"",""img/0866/945c6710-d15b-4a5b-a8f6-69af0850357f.jpg""]","",""
"","4941","similarity","59","443615","0.0-6.0-53.0","6","[""img/0904/6291eb43-c10c-4810-a36a-101d09868b04.jpg"",""img/0904/25365108-e038-4021-aac9-797f2063b337.jpg""]","",""
"","3895","similarity","60","448519","0.0-6.0-54.0","7","[""img/0769/4680bcc3-8fbc-4643-8f9a-12aa0e780b64.jpg"",""img/0769/180213e5-1e50-4b4e-87b6-add77ba04d39.jpg""]","",""
"","4764","similarity","61","454294","0.0-6.0-55.0","2","[""img/0898/224c1572-56b9-4f16-a9e4-6f3bc9c114bd.jpg"",""img/0758/e38fd80d-18d0-42f3-b848-f930788e8bd7.jpg""]","",""
"","6047","similarity","62","461351","0.0-6.0-56.0","5","[""img/0769/387a9744-d6a7-42b8-bab8-33007ec434aa.jpg"",""img/0902/511abb54-0094-4f4d-b6dc-3f2c97050521.jpg""]","",""
"","3820","similarity","63","466183","0.0-6.0-57.0","4","[""img/0864/1ebbc554-99fa-49f9-8799-317375a79820.jpg"",""img/0881/14236cf2-6b95-48b8-9368-78af09d2d27f.jpg""]","",""
"","3746","similarity","64","470936","0.0-6.0-58.0","1","[""img/0758/a709631e-3705-4725-ac40-f0d916924f08.jpg"",""img/0868/293079b8-7e0c-4afd-a390-1e5d35fe3ded.jpg""]","",""
"","5210","similarity","65","477153","0.0-6.0-59.0","6","[""img/0862/e697469a-ec19-4414-b972-7b9f3564785b.jpg"",""img/0769/f229321f-04dd-42d7-b14a-ffad6b509862.jpg""]","",""
"","3434","similarity","66","481598","0.0-6.0-60.0","5","[""img/0764/ef0e64c6-d0dd-4dc6-87b6-ce5c0665f421.jpg"",""img/0903/f10e9eb5-0c21-4a6a-944c-5f10a6d0fa4d.jpg""]","",""
"","3909","similarity","67","486519","0.0-6.0-61.0","7","[""img/0899/d8f2dd94-570e-4e8c-a087-d96090fb9e8c.jpg"",""img/0899/f95cbdb4-f804-4f5d-ad76-373ad343e658.jpg""]","",""
"","4899","similarity","68","492431","0.0-6.0-62.0","6","[""img/0860/18dfed73-e36b-4487-a8bd-0b8cff8e3668.jpg"",""img/0875/2e13d160-eea1-416b-aff1-d37ab99ecc1d.jpg""]","",""
"","3137","similarity","69","496583","0.0-6.0-63.0","1","[""img/0868/4a8a45ed-2c4f-421b-9564-409a33ecd26c.jpg"",""img/0874/1016b306-087c-4afc-aa08-fa527b28dc76.jpg""]","",""
"","5539","similarity","70","503127","0.0-6.0-64.0","4","[""img/0758/2fa3e613-e676-4e6e-bd12-705327eeb3e1.jpg"",""img/0862/4f0a3b4c-afbf-486e-b248-1d54982f54b4.jpg""]","",""
"","3917","similarity","71","508055","0.0-6.0-65.0","3","[""img/0904/1d10df11-b5c8-4370-9a6b-097a7f965895.jpg"",""img/0898/881e2a85-d5c2-49be-a0c6-8a6ce2c4af08.jpg""]","",""
"","4075","similarity","72","513143","0.0-6.0-66.0","4","[""img/0881/84397291-bc14-4fbf-90e8-241e486ab0fe.jpg"",""img/0866/d266fece-59b3-46fa-b69f-96f6efb81b59.jpg""]","",""
"","4820","similarity","73","518975","0.0-6.0-67.0","5","[""img/0867/1719a35d-f085-48c0-9099-16c94fe418b4.jpg"",""img/0898/c3cecf20-f7fd-45fa-97d0-dc0a63e8d6c0.jpg""]","",""
"","3879","similarity","74","523863","0.0-6.0-68.0","6","[""img/0902/2db723b6-130f-454c-8c8d-88829edbcd65.jpg"",""img/0764/f990b2e8-ecee-481e-be7c-0239fce350e2.jpg""]","",""
"","4715","similarity","75","529583","0.0-6.0-69.0","7","[""img/0875/42910c99-5463-450a-a0f8-d4d060a11455.jpg"",""img/0867/c71dc569-f49c-4397-8381-68b8d726736d.jpg""]","",""
"","4374","similarity","76","534966","0.0-6.0-70.0","7","[""img/0766/0bf3793e-c353-45e5-ac6f-753f5f484e10.jpg"",""img/0764/f9f890e6-3c2f-40cd-84e9-85e0b54cb28e.jpg""]","",""
"","5743","similarity","77","541719","0.0-6.0-71.0","3","[""img/0894/5a49e858-2850-4892-9a06-e9f0efb5f94d.jpg"",""img/0867/c66898ba-b71b-4d50-84f9-f7f84853a98d.jpg""]","",""
"","5780","similarity","78","548510","0.0-6.0-72.0","4","[""img/0875/fb732ab5-013a-4366-9f65-27811ed157e9.jpg"",""img/0764/17b088f8-3053-4140-b544-d15654cc79ef.jpg""]","",""
"","5091","similarity","79","554606","0.0-6.0-73.0","6","[""img/0867/26611f4e-d694-4460-b7e2-43c62753ddc3.jpg"",""img/0866/d493a2c8-66eb-44b4-be02-2f327b700b7c.jpg""]","",""
"","5102","similarity","80","560719","0.0-6.0-74.0","3","[""img/0903/b4a0f61e-a964-4b79-a9a7-f767a8f92f34.jpg"",""img/0758/a085b443-b5d7-4cb2-9ad4-b9dab0fc23f1.jpg""]","",""
"","4118","similarity","81","565847","0.0-6.0-75.0","2","[""img/0766/1bc0dccc-a5b5-4375-87fa-28360ca42b12.jpg"",""img/0868/09a9ef4d-d000-4cfa-a6aa-ebec7c2edeb4.jpg""]","",""
"","3988","similarity","82","570838","0.0-6.0-76.0","7","[""img/0874/a3bc679d-619f-4db6-bb68-116dcb757d9c.jpg"",""img/0766/f5f78e4e-d88f-4866-951a-118ba9fec4d0.jpg""]","",""
"","3182","similarity","83","575031","0.0-6.0-77.0","1","[""img/0881/292e9b4b-fca0-4ba8-87f1-4048f9e37b7d.jpg"",""img/0868/d98ca254-b195-477f-b57e-5760a2717db8.jpg""]","",""
"","4033","similarity","84","580071","0.0-6.0-78.0","3","[""img/0758/821c68d3-5cb0-4eae-8659-30e6263fca39.jpg"",""img/0901/deff6cfb-0072-4490-bc3e-206bbcd3e8bf.jpg""]","",""
"","4513","similarity","85","585591","0.0-6.0-79.0","3","[""img/0881/405484ae-0d00-4b05-bc57-6420a36adfac.jpg"",""img/0898/81b08535-2020-4c15-9ce4-2f1e460755ae.jpg""]","",""
"","3336","similarity","86","589934","0.0-6.0-80.0","1","[""img/0867/85a96c62-548f-4994-9553-819e03c3135a.jpg"",""img/0758/61d64021-9214-4951-bdf8-f871f9827cf9.jpg""]","",""
"","4990","similarity","87","595934","0.0-6.0-81.0","5","[""img/0769/5bd04f55-d091-4f57-85db-38426f26bd1a.jpg"",""img/0899/fef567a2-c121-4481-9af0-ff108d199bbf.jpg""]","",""
"","4044","similarity","88","600981","0.0-6.0-82.0","6","[""img/0903/3e9ee8a5-eb66-47f5-8973-8a5af1ddc87e.jpg"",""img/0903/36e4ab1f-caa9-40b3-8616-faada076df94.jpg""]","",""
"","3341","similarity","89","619694","0.0-6.0-83.0","2","[""img/0867/f26f6b60-f772-4f4c-95a4-addc62cfd692.jpg"",""img/0766/aaec5f42-7f0a-4a16-aeca-488d757acbcc.jpg""]","",""
"","4449","similarity","90","625150","0.0-6.0-84.0","3","[""img/0902/d5e25767-e8ec-45f3-ac0a-7b4a6f7a9edc.jpg"",""img/0867/179ab87a-8eac-4c52-a41f-2e48e3120f09.jpg""]","",""
"","8310","similarity","91","634470","0.0-6.0-85.0","5","[""img/0901/a2d7b2f6-396b-4d91-8403-de5361c74af7.jpg"",""img/0875/f87b67d7-c33e-40d1-b281-248c4be1cb6e.jpg""]","",""
"","3324","similarity","92","638799","0.0-6.0-86.0","4","[""img/0764/b8e23f4f-ff19-4472-ad9b-2f85548ebca0.jpg"",""img/0866/23a224f3-2012-4fc8-8e0f-3c36f8de27fd.jpg""]","",""
"","3758","similarity","93","643566","0.0-6.0-87.0","5","[""img/0901/a373612d-67e2-4fec-9764-21d3d6ef6359.jpg"",""img/0894/10f22b96-040c-44f4-950b-a4963f3f506c.jpg""]","",""
"","2996","similarity","94","647574","0.0-6.0-88.0","5","[""img/0898/a114b375-cb89-44ba-9498-74213f1ecdee.jpg"",""img/0769/f73c5138-2f4c-4354-981c-129dff9cc734.jpg""]","",""
"","5408","similarity","95","653990","0.0-6.0-89.0","5","[""img/0769/3c1203c5-2ce7-466e-957a-8d77b5905460.jpg"",""img/0894/5f15154e-e72e-4ce5-aafb-bce6f0564006.jpg""]","",""
"","4402","similarity","96","659405","0.0-6.0-90.0","2","[""img/0862/a0a3a7ba-7798-46a3-b4ca-05e1f6e581d0.jpg"",""img/0874/85eb9b8a-c4c6-4e5a-b8e7-363a87a82054.jpg""]","",""
"","3304","similarity","97","663718","0.0-6.0-91.0","3","[""img/0894/767a0eec-1064-46b1-b1aa-dfa02b0cd74e.jpg"",""img/0766/71b81ebd-0937-4d7f-b8bf-c4e46a4728fd.jpg""]","",""
"","3758","similarity","98","668487","0.0-6.0-92.0","2","[""img/0874/ca23d307-fc00-4d7d-9106-584c6eb21b4d.jpg"",""img/0867/50a1b60e-3a29-44bf-b606-d4bd3746fea9.jpg""]","",""
"","4811","similarity","99","674311","0.0-6.0-93.0","3","[""img/0899/565ccdd9-0933-4536-a625-3c0e25a713dd.jpg"",""img/0868/4bd5105a-d2c3-4f82-8c80-57196106ba53.jpg""]","",""
"","5120","similarity","100","680439","0.0-6.0-94.0","3","[""img/0903/0a92ec52-4e87-410a-857a-4455cde56a70.jpg"",""img/0862/ba89835a-408c-480b-8594-ed4ffa97eb5c.jpg""]","",""
"","3652","similarity","101","685102","0.0-6.0-95.0","7","[""img/0899/7b7380d5-d2be-44e5-a09a-c1756f87ef71.jpg"",""img/0766/d919cedb-f9b7-4f30-83bb-3e9c65001ceb.jpg""]","",""
"","3310","similarity","102","689423","0.0-6.0-96.0","7","[""img/0867/075e0f95-856b-4cbb-acf5-092393aaf04e.jpg"",""img/0868/7b212364-ff5f-4e28-9241-7eb6ea00161b.jpg""]","",""
"","4250","similarity","103","694685","0.0-6.0-97.0","6","[""img/0862/92fcd8a4-8193-4a6a-ae09-dd4a6338b0df.jpg"",""img/0901/bc47e078-bda4-40ed-b89a-bbd819164b95.jpg""]","",""
"","3212","similarity","104","698909","0.0-6.0-98.0","1","[""img/0875/99698b4d-b4a1-44bc-8c83-8ea755bbbf61.jpg"",""img/0766/c23b5a20-e50f-4d85-841f-cf89212a4348.jpg""]","",""
"","3941","similarity","105","703861","0.0-6.0-99.0","6","[""img/0758/7ffbc76b-1fc1-432c-8f7e-9ec8d1b3f643.jpg"",""img/0874/93d1f8dc-acf2-4f03-bd8d-8ec35df276ed.jpg""]","",""
"","4185","similarity","106","709054","0.0-6.0-100.0","3","[""img/0904/d23dd7be-7fe8-4435-82f7-bd592c01e6a1.jpg"",""img/0868/d6d1f30d-4323-435a-b194-7892521bc57e.jpg""]","",""
"","4966","similarity","107","715031","0.0-6.0-101.0","4","[""img/0903/07b445ee-0cdb-4d2c-a23b-d727613f4059.jpg"",""img/0866/8efcaa46-83ab-4dee-a35f-850402aa21ae.jpg""]","",""
"","2591","similarity","108","718631","0.0-6.0-102.0","3","[""img/0868/6a28c3b0-3d76-498a-9fb7-ddafc665eca8.jpg"",""img/0769/6c0bac4c-5f59-43c7-898c-3ca93cf55cfe.jpg""]","",""
"","5206","similarity","109","724847","0.0-6.0-103.0","5","[""img/0902/418b716e-63e5-4c77-93e9-95b1f5a3ddf0.jpg"",""img/0899/fd9efb43-701f-4cd6-baaa-4c38315f4bdc.jpg""]","",""
"","2950","similarity","110","728806","0.0-6.0-104.0","4","[""img/0868/5fa7f9d0-f0e5-454c-8224-74d964818f56.jpg"",""img/0862/57b6f83f-c763-4858-830d-102f97bfefbf.jpg""]","",""
"","3998","similarity","111","733807","0.0-6.0-105.0","2","[""img/0903/6f343da5-00d9-4d50-89d1-2ed24cdb8319.jpg"",""img/0894/b422d5c6-3c5a-49ae-a53e-7e88ac993f49.jpg""]","",""
"","3034","similarity","112","737845","0.0-6.0-106.0","5","[""img/0864/a248adb3-c70b-4652-b7a3-776d2a1e904b.jpg"",""img/0874/99f6563c-8a8d-4c1c-a41d-667b618c3fd5.jpg""]","",""
"","3885","similarity","113","742742","0.0-6.0-107.0","5","[""img/0862/ad593cc7-cabe-4bb7-8e14-8a447a0717b4.jpg"",""img/0902/e5a46bda-30d1-41ca-b36d-b8529b5a63d1.jpg""]","",""
"","3549","similarity","114","747301","0.0-6.0-108.0","5","[""img/0904/9dd5708f-3f8b-46a9-b49f-2f2fab87b357.jpg"",""img/0903/12bd8657-92e6-4c36-a06c-597e7a1d51f3.jpg""]","",""
"","4196","similarity","115","752501","0.0-6.0-109.0","7","[""img/0764/da207710-e7e4-4f42-b2e6-99b5f357f433.jpg"",""img/0864/afcba0a3-7e27-4757-b254-e9f05fad27e2.jpg""]","",""
"","2896","similarity","116","756407","0.0-6.0-110.0","3","[""img/0866/c446214b-a368-4c65-ae39-ea46894256ab.jpg"",""img/0894/133a1636-d123-4893-873c-1718050f832a.jpg""]","",""
"","4132","similarity","117","761550","0.0-6.0-111.0","6","[""img/0899/1b3457ea-87d4-4946-a01c-aac1863ed46c.jpg"",""img/0903/6b5dcc60-3ad3-4962-93e5-e6cf768477af.jpg""]","",""
"","4854","similarity","118","767414","0.0-6.0-112.0","6","[""img/0902/b56db912-c3c0-4fc2-b325-d640acd7cb58.jpg"",""img/0904/da170c1b-9651-4f08-b231-2bdd1d9a046f.jpg""]","",""
"","4431","similarity","119","772854","0.0-6.0-113.0","4","[""img/0864/f92649a2-0590-4d31-9a7a-1bfb81666a2d.jpg"",""img/0860/524b2e98-5767-4d53-942c-ebae6925659b.jpg""]","",""
"","4541","similarity","120","778399","0.0-6.0-114.0","2","[""img/0860/8fdba999-b946-4c7d-9891-336018b563ef.jpg"",""img/0899/9de5e857-aa9a-4e0c-8ba2-46d79bd069a4.jpg""]","",""
"","4530","similarity","121","783934","0.0-6.0-115.0","3","[""img/0881/20af39f5-373d-4a55-a437-2dc4c0382c46.jpg"",""img/0903/c708d08f-a108-4e04-8288-c3fcf6375db4.jpg""]","",""
"","3894","similarity","122","788838","0.0-6.0-116.0","3","[""img/0894/bd34223a-2f66-4e16-9d18-193a746b69ff.jpg"",""img/0874/ca76a855-4e77-4f2f-872a-0a718153e7ed.jpg""]","",""
"","5303","similarity","123","795150","0.0-6.0-117.0","3","[""img/0881/f4e3e181-b3c9-4af2-a5a4-fc135ab70d2e.jpg"",""img/0862/cdaed51d-9e2f-4807-801a-4663c40077e2.jpg""]","",""
"","6573","similarity","124","802734","0.0-6.0-118.0","7","[""img/0868/179a5502-ab5c-478e-8263-5a1fbcc101d2.jpg"",""img/0875/527ced51-8e53-4aab-ab05-86df219104c0.jpg""]","",""
"","4828","similarity","125","808574","0.0-6.0-119.0","3","[""img/0860/c3379ff7-0763-48fe-a1ec-7ea3d611bc7a.jpg"",""img/0758/d41c06bf-ebaf-454b-91c6-1a17f917b659.jpg""]","",""
"","3745","similarity","126","813326","0.0-6.0-120.0","3","[""img/0864/3d4de670-b290-4285-9c3d-12a0e3af44e9.jpg"",""img/0875/2c361b79-c3d1-4eda-812e-bf03192407bf.jpg""]","",""
"","5159","similarity","127","819494","0.0-6.0-121.0","5","[""img/0898/cd3aaa3f-efa9-4ab3-8d6f-a6a9273ddf42.jpg"",""img/0866/620cd1aa-0800-4414-8f6e-90342e7a99ad.jpg""]","",""
"","4271","similarity","128","824774","0.0-6.0-122.0","2","[""img/0874/eba003b4-cdab-4eee-8bc3-f064c7d94165.jpg"",""img/0904/96e503ea-6630-4996-85f2-0237688ce441.jpg""]","",""
"","3950","similarity","129","829734","0.0-6.0-123.0","3","[""img/0904/2fd488e9-960f-41f7-8a44-33375f7d5051.jpg"",""img/0864/5f33e097-23e3-4002-882d-76e8cb15f451.jpg""]","",""
"","7876","similarity","130","838622","0.0-6.0-124.0","6","[""img/0894/38f5931f-926d-414e-b498-66b188978b7a.jpg"",""img/0902/bd89a85f-3853-4786-acd6-98818ee29f1c.jpg""]","",""
"","2942","similarity","131","849879","0.0-6.0-125.0","1","[""img/0868/77091fc7-a590-4ebb-b915-fdb2483a2399.jpg"",""img/0864/3651d070-2fc5-4848-b6a6-088a2d9ac5c9.jpg""]","",""
"","4968","similarity","132","855854","0.0-6.0-126.0","4","[""img/0899/ad8268c5-8199-48d0-ad70-c5b6d6c599ec.jpg"",""img/0866/07c9c966-3c8d-40e7-8128-92b2acbaed5d.jpg""]","",""
"","4807","similarity","133","861671","0.0-6.0-127.0","3","[""img/0875/d59ff733-eaff-4ee2-9443-06954dd0bcb6.jpg"",""img/0904/9b3568cc-3cf7-42be-9df3-fdafde7a58b8.jpg""]","",""
"","4885","similarity","134","867565","0.0-6.0-128.0","2","[""img/0867/8ba0c5a7-c7e4-42cf-a80a-543763b90779.jpg"",""img/0899/76ad07e2-ca25-45eb-84f2-8d80b8ca3e26.jpg""]","",""
"","5099","similarity","135","873682","0.0-6.0-129.0","4","[""img/0901/d4d09bf5-093e-4050-838e-7c738be8e63c.jpg"",""img/0867/cc72ed48-7704-422c-86d6-467a1145287a.jpg""]","",""
"","5795","similarity","136","880486","0.0-6.0-130.0","2","[""img/0864/9b2490c5-a282-400a-9736-e1a0ecbf1cb7.jpg"",""img/0769/38a88f69-28fd-4bbd-99f0-f4c02bfd3995.jpg""]","",""
"","3603","similarity","137","885102","0.0-6.0-131.0","5","[""img/0903/0e5c2854-42aa-48c0-9c3d-6e1ad2a400bd.jpg"",""img/0868/0d3abd3a-b6c3-4584-a9f7-e2da63748b3d.jpg""]","",""
"","3843","similarity","138","889958","0.0-6.0-132.0","2","[""img/0864/66091c27-e588-4476-8af9-265dc6be4156.jpg"",""img/0867/12264664-1860-46df-8c21-162b9817cdda.jpg""]","",""
"","4325","similarity","139","895294","0.0-6.0-133.0","5","[""img/0901/8bb79e82-9c43-4b6f-a655-40655519598b.jpg"",""img/0860/fd4662f9-4c03-4d79-8593-06735e55a64b.jpg""]","",""
"","4837","similarity","140","901141","0.0-6.0-134.0","6","[""img/0881/344de456-b358-4887-bd0e-e4c3278af887.jpg"",""img/0766/d8221e53-2300-4d99-ae1b-0bfb0eabe579.jpg""]","",""
"","4269","similarity","141","906415","0.0-6.0-135.0","5","[""img/0903/39365c8e-a733-4801-ac7d-b87e38c3784b.jpg"",""img/0864/4bd81bc6-c13d-46df-95a9-485886dc7c1b.jpg""]","",""
"","5021","similarity","142","912440","0.0-6.0-136.0","5","[""img/0758/335851a0-a55b-46d8-ab05-8463eda48349.jpg"",""img/0894/a98416c0-51e2-4960-85da-d81d8688b9d5.jpg""]","",""
"","5781","similarity","143","919232","0.0-6.0-137.0","5","[""img/0769/458d9c77-b844-40b5-bb1b-1e3bbd4da64e.jpg"",""img/0860/5383b320-1518-4095-a58e-5cc1ae30b64c.jpg""]","",""
"","4638","similarity","144","924880","0.0-6.0-138.0","5","[""img/0904/56e73f28-7e64-489b-a161-e6b1a063878d.jpg"",""img/0766/f011ef45-fb48-44b8-8224-867ed2ccf786.jpg""]","",""
"","3489","similarity","145","929385","0.0-6.0-139.0","3","[""img/0868/8b0b8473-e2c0-4331-aa56-c3a5c29369da.jpg"",""img/0860/29a21a9f-54bb-4093-ad3f-04823ceaa89f.jpg""]","",""
"","6084","similarity","146","936480","0.0-6.0-140.0","6","[""img/0758/d540bee6-b460-4c32-ac57-bc282742d7d4.jpg"",""img/0864/6f631579-acf1-415c-a42c-1207f62a8d99.jpg""]","",""
"","3692","similarity","147","941182","0.0-6.0-141.0","7","[""img/0867/a498eef3-9fa4-4ab2-9778-4ae82ac40dc5.jpg"",""img/0867/a749dddb-69f0-44a6-acdc-2bf295cf6dcc.jpg""]","",""
"","4992","similarity","148","947182","0.0-6.0-142.0","6","[""img/0898/68476bbb-34a1-42d9-8bc1-deab783d4489.jpg"",""img/0898/661621d4-a14e-487c-8c74-354134a29710.jpg""]","",""
"","4067","similarity","149","952255","0.0-6.0-143.0","7","[""img/0866/93a27239-8317-4e08-98ca-d8b1ff298e07.jpg"",""img/0769/14d393ce-e5be-4ca1-86ce-cc27d4b6074c.jpg""]","",""
"","4049","similarity","150","957312","0.0-6.0-144.0","5","[""img/0860/c47fdead-eb02-4989-b078-26f4852f44fe.jpg"",""img/0898/26c41340-15bd-4ead-8fe4-c0d0ddca09c2.jpg""]","",""
"","3915","similarity","151","962231","0.0-6.0-145.0","6","[""img/0766/fd064894-7147-4af5-97e9-2089d5472656.jpg"",""img/0864/e02eddb5-f468-499c-91bf-f7be3ffe979b.jpg""]","",""
"","4134","similarity","152","967368","0.0-6.0-146.0","6","[""img/0860/71e1aad0-2cdf-43bb-94a4-a8c016997c30.jpg"",""img/0903/e2e55a9e-0397-4dc0-8adf-4a54cfefe1fe.jpg""]","",""
"","3001","similarity","153","971374","0.0-6.0-147.0","1","[""img/0867/ac1797e4-8afc-48fe-b252-86d1defb1cca.jpg"",""img/0764/bd2eaa3e-95a9-4a59-a78e-3f81c766eea9.jpg""]","",""
"","4728","similarity","154","977111","0.0-6.0-148.0","7","[""img/0769/47700831-0ca2-4fdd-a498-a3bc5a528f43.jpg"",""img/0904/5cceabc9-de1d-4c67-989b-c28a4ef77e79.jpg""]","",""
"","4682","similarity","155","982800","0.0-6.0-149.0","5","[""img/0764/a86eed5b-d0af-4c3f-8c7a-26e98e98cf1a.jpg"",""img/0901/6e2957f8-f5ab-46f4-87cc-bb50155a098b.jpg""]","",""
"","4014","similarity","156","987823","0.0-6.0-150.0","4","[""img/0904/65e2b70a-b184-4da3-b5c0-5038bdf9469a.jpg"",""img/0899/4f7bc593-8ddd-4da3-a0b9-84da730d3370.jpg""]","",""
"","3866","similarity","157","992703","0.0-6.0-151.0","1","[""img/0862/99a99e39-8355-44ec-b993-e7bcec111e1c.jpg"",""img/0867/f8488a47-94ee-4166-952c-44e16cf172f6.jpg""]","",""
"","4930","similarity","158","998639","0.0-6.0-152.0","6","[""img/0766/00891401-e4c9-4ce1-bc19-f70740d174bc.jpg"",""img/0766/2e1cf445-9aef-40e7-92f4-5facf48b64c5.jpg""]","",""
"","4075","similarity","159","1003719","0.0-6.0-153.0","3","[""img/0862/e0f1a4e9-e1b6-45f7-af67-89f334e6630d.jpg"",""img/0894/11674fa4-285d-44e2-939f-2228c6a64080.jpg""]","",""
"","4146","similarity","160","1008870","0.0-6.0-154.0","5","[""img/0899/4408c14d-c168-4a7d-96f6-bc87bfb58f83.jpg"",""img/0901/a0d65c84-3f20-476a-92d1-0c01e8019cf4.jpg""]","",""
"","4855","similarity","161","1014735","0.0-6.0-155.0","7","[""img/0874/8cdb1c07-1c32-46d2-981c-3636560fa6e5.jpg"",""img/0874/adf9a8f1-c40b-402b-b95b-1e85a54a7b62.jpg""]","",""
"","3877","similarity","162","1019616","0.0-6.0-156.0","1","[""img/0860/87039971-2210-4aab-93c0-8e9b5f1655b2.jpg"",""img/0867/db7e032f-162b-46f5-ae67-2b29679adee4.jpg""]","",""
"","5589","similarity","163","1026214","0.0-6.0-157.0","3","[""img/0901/3db47171-0139-4235-82cd-0b1787b6775f.jpg"",""img/0881/1407b85b-a1c6-45b1-9884-3b24203efadb.jpg""]","",""
"","4742","similarity","164","1031959","0.0-6.0-158.0","7","[""img/0903/8f7f9939-b8e6-433f-93dd-b362496c80a7.jpg"",""img/0902/eb3e7e71-8ff1-4b88-a6a7-47e2c1ce1683.jpg""]","",""
"","5830","similarity","165","1038799","0.0-6.0-159.0","5","[""img/0860/c7047cd2-7cc1-41b6-8a34-c0986774975f.jpg"",""img/0764/d0bef2e0-e16b-4c82-9451-c1d16265eb67.jpg""]","",""
"","4028","similarity","166","1043831","0.0-6.0-160.0","6","[""img/0902/ca3160ba-ad5d-459f-a1b6-8b4f3c85ecd5.jpg"",""img/0875/5a716432-c6ca-4b1c-955a-2b8ac25198ee.jpg""]","",""
"","5125","similarity","167","1049959","0.0-6.0-161.0","4","[""img/0898/6cd3830b-d44e-4915-be2b-88d31424b91c.jpg"",""img/0862/d0ca4c78-fc35-46ed-bdcc-8e124283c53e.jpg""]","",""
"","5118","similarity","168","1056087","0.0-6.0-162.0","5","[""img/0894/2217bdcd-23a7-42d3-823b-23f2488d7e87.jpg"",""img/0875/5a7c4e35-6514-4e12-8879-d16071da4cd6.jpg""]","",""
"","3384","similarity","169","1060480","0.0-6.0-163.0","2","[""img/0866/4a87911a-d5be-4d4e-ab8e-3d1f581bf507.jpg"",""img/0864/e8bd659f-aa43-4748-877e-3118e8b4e189.jpg""]","",""
"","5178","similarity","170","1066663","0.0-6.0-164.0","4","[""img/0766/ae0fce93-fe8d-4aa1-87ca-4c3e4b889f2f.jpg"",""img/0862/eefa5588-9efd-4591-aa5f-a2e17c7d7bcc.jpg""]","",""
"","4376","similarity","171","1072047","0.0-6.0-165.0","3","[""img/0866/f756f7d1-9ad8-4a34-9ef6-7a443d705bfe.jpg"",""img/0874/3ce41e7c-40c8-4d58-a546-171114521796.jpg""]","",""
"","4766","similarity","172","1077822","0.0-6.0-166.0","6","[""img/0862/f43ceabf-acc1-4107-b857-5d1849808f93.jpg"",""img/0860/8277806e-b684-4474-8f7b-3fca946d7d4f.jpg""]","",""
"","4670","similarity","173","1089302","0.0-6.0-167.0","5","[""img/0766/79767d11-b612-4e8a-9e4b-a8ac95bb6a54.jpg"",""img/0901/a9b9c0a0-8aed-4888-a78a-65fb7e764d13.jpg""]","",""
"","4235","similarity","174","1094542","0.0-6.0-168.0","7","[""img/0862/e8cc3bdf-cc43-4565-bccf-492626c70953.jpg"",""img/0862/1c20f772-3a51-4a80-aac0-f57dc9f86c28.jpg""]","",""
"","3595","similarity","175","1099150","0.0-6.0-169.0","6","[""img/0894/b2d2f66e-e480-46da-a02a-6d0c6b285d78.jpg"",""img/0764/5d6fa3ce-9083-410c-bbdb-336a49b94cfc.jpg""]","",""
"","4400","similarity","176","1104558","0.0-6.0-170.0","3","[""img/0874/31e22c7c-99aa-40b1-bf03-dd73fa2df4d6.jpg"",""img/0898/40f99fb2-64d2-4e72-8a7f-a1cf60741e69.jpg""]","",""
"","2806","similarity","177","1108379","0.0-6.0-171.0","2","[""img/0860/702bd09d-df3a-40aa-a267-5f04474305b5.jpg"",""img/0766/a1ed3f0f-e338-4a26-8fe4-4370f0c9fa6e.jpg""]","",""
"","3375","similarity","178","1112773","0.0-6.0-172.0","2","[""img/0898/79233891-305a-4a6a-8ddf-5c8604858203.jpg"",""img/0864/efcfbb1b-8197-44c9-b723-40d6c608dd3c.jpg""]","",""
"","4229","similarity","179","1118014","0.0-6.0-173.0","5","[""img/0881/ee44e27f-d662-4608-b265-e7ffa19b216f.jpg"",""img/0764/c643e165-df19-459f-8c2b-8357bf432a17.jpg""]","",""
"","5307","similarity","180","1124335","0.0-6.0-174.0","3","[""img/0898/ec565187-2e31-4fdd-9a5c-153d0c789ae0.jpg"",""img/0868/4e626425-63c8-484a-8a1d-e66ee4e0bef8.jpg""]","",""
"","3678","similarity","181","1129022","0.0-6.0-175.0","7","[""img/0864/300bb811-8b3c-4c42-8653-6097c3725197.jpg"",""img/0864/e336a4c5-6648-4fd7-b2f6-93a3fb83f8c6.jpg""]","",""
"","4969","similarity","182","1134998","0.0-6.0-176.0","6","[""img/0899/0e1d936a-dbe2-4afc-9f19-7b7a1ae6c9ed.jpg"",""img/0862/fb26cb07-d5a9-4653-813c-f41609f26cd5.jpg""]","",""
"","4733","similarity","183","1140741","0.0-6.0-177.0","2","[""img/0875/8521fd58-3b1e-4dc5-97ae-804edfa6734a.jpg"",""img/0758/65d426d6-3ff6-415d-8654-a43b83ecc4fe.jpg""]","",""
"","5631","similarity","184","1147382","0.0-6.0-178.0","2","[""img/0866/9b38d691-1802-4959-ab3f-fc902f0e4ea6.jpg"",""img/0901/4d1bed7e-3c4e-4f6c-ada9-4beb66ba9e39.jpg""]","",""
"","4249","similarity","185","1152638","0.0-6.0-179.0","7","[""img/0769/c34b7763-8ff2-46d5-9e92-f1d8f3bedbd8.jpg"",""img/0874/bf14b896-e930-4fd9-9c05-2e83317a2773.jpg""]","",""
"","5083","similarity","186","1158728","0.0-6.0-180.0","6","[""img/0875/cff79b3a-a797-4393-9757-6275f999ec04.jpg"",""img/0881/e046471a-35b4-4159-bbf7-3cfd201bef66.jpg""]","",""
"","7351","similarity","187","1167086","0.0-6.0-181.0","2","[""img/0866/02f5e6b9-52b7-448c-9708-5b460d0c9a23.jpg"",""img/0868/fd307a36-9a3a-47d7-ab7c-f810d0b35040.jpg""]","",""
"","4554","similarity","188","1172646","0.0-6.0-182.0","6","[""img/0899/0adc0bc3-6fca-4078-be6f-d45ddf1653d5.jpg"",""img/0758/dd559618-7f09-4a07-8018-d311c4a5ea29.jpg""]","",""
"","4222","similarity","189","1177878","0.0-6.0-183.0","1","[""img/0874/a82926a3-0b43-4add-803c-d5f9ea7798ee.jpg"",""img/0875/e7e66b13-b573-431e-b85e-288ce04a35a3.jpg""]","",""
"","5270","similarity","190","1184157","0.0-6.0-184.0","6","[""img/0904/696ebb60-8891-417a-91fd-c53218907a95.jpg"",""img/0862/24cdc752-c2e5-4a17-86a6-6f2045d8553b.jpg""]","",""
"","7734","similarity","191","1192901","0.0-6.0-185.0","6","[""img/0902/b03fee99-d5ca-4bf8-871c-a4a743a39842.jpg"",""img/0766/989c5c7f-1aff-4442-ac63-9d46acf4a891.jpg""]","",""
"","6016","similarity","192","1199926","0.0-6.0-186.0","5","[""img/0758/67c0be2f-9e91-48b3-8219-70ac0a1802fa.jpg"",""img/0769/1d8734c4-77ab-4165-9e71-5cfe672ff01c.jpg""]","",""
"","5159","similarity","193","1206087","0.0-6.0-187.0","6","[""img/0881/445edb15-bd7f-4af3-8bd5-c6ad9677bb31.jpg"",""img/0881/f037e3b0-09cb-4a83-b2d9-6a71fe474e63.jpg""]","",""
"","6815","similarity","194","1213911","0.0-6.0-188.0","3","[""img/0758/f61ecdf8-a7d4-4db0-b84d-be46f7cfaffc.jpg"",""img/0866/be24ab58-230e-4db8-9f45-ff04c9aec6bb.jpg""]","",""
"","4394","similarity","195","1219310","0.0-6.0-189.0","2","[""img/0764/ca957454-126a-4bd3-b29c-7174a24c25dc.jpg"",""img/0898/0c7dde4f-efce-4b7a-9387-6921635b7890.jpg""]","",""
"","4551","similarity","196","1224870","0.0-6.0-190.0","6","[""img/0903/43ffd882-077a-40dd-a264-e58d519420a1.jpg"",""img/0901/58ec7fa9-b466-4651-90aa-c082df0972de.jpg""]","",""
"","3199","similarity","197","1229074","0.0-6.0-191.0","7","[""img/0902/0eb85fbc-27c8-41df-9d0b-a5f9efd417d1.jpg"",""img/0898/08c72dac-f8ad-407a-9ce6-8c9a5d679c3a.jpg""]","",""
"","4236","similarity","198","1234318","0.0-6.0-192.0","5","[""img/0864/49150900-7f25-4ce8-8d10-9b47a71d1997.jpg"",""img/0901/fb0a8e69-7f19-4e6e-a6bb-a48f97f9b4f3.jpg""]","",""
"","5509","similarity","199","1240837","0.0-6.0-193.0","4","[""img/0894/492d2f29-d7b9-4422-8be8-47fd58bfaa8b.jpg"",""img/0881/54ea8e77-c7e5-4197-b7fa-00b7020849a7.jpg""]","",""
"","3014","similarity","200","1244855","0.0-6.0-194.0","7","[""img/0868/1a62b2b2-18f5-466e-b564-5176a57c565e.jpg"",""img/0868/15dd6fd7-791e-4b53-b203-195d617521a4.jpg""]","",""
"","4858","similarity","201","1250717","0.0-6.0-195.0","7","[""img/0899/5b56dd3e-3f49-47cc-af84-16da6457753b.jpg"",""img/0764/c80b3e06-2ee3-4326-9678-340607eb5348.jpg""]","",""
"","5367","similarity","202","1257093","0.0-6.0-196.0","6","[""img/0881/633c6f40-56d9-4b48-bf1c-ecd83116eabb.jpg"",""img/0904/09934646-45d2-4147-8fec-64a22a5ac822.jpg""]","",""
"","5201","similarity","203","1263301","0.0-6.0-197.0","5","[""img/0864/ef9cbca0-4be8-435d-ad49-977259e80409.jpg"",""img/0902/7499db23-3a41-41ea-ab5b-6ab4d4c3ed35.jpg""]","",""
"","4560","similarity","204","1268869","0.0-6.0-198.0","7","[""img/0894/86201968-6e78-4d68-9b3a-d1692e066210.jpg"",""img/0904/ba8e689e-9ca6-4608-a2a1-3b0940666ae6.jpg""]","",""
"","3847","similarity","205","1273725","0.0-6.0-199.0","7","[""img/0901/168eb52c-c415-43f1-b5c8-e76e1a1ec247.jpg"",""img/0901/548d1110-7cb8-42a2-9927-9798875c8b5c.jpg""]","",""
"","5009","similarity","206","1279742","0.0-6.0-200.0","6","[""img/0894/6aa5545f-fa7d-4286-bbaa-aaf34dc7ec96.jpg"",""img/0860/9593362c-9fe5-4d12-9735-6000a11f6aa5.jpg""]","",""
"","4456","similarity","207","1285207","0.0-6.0-201.0","7","[""img/0898/5f699581-3853-4547-856c-12f419ba5af7.jpg"",""img/0903/5ea5bbe0-f238-4724-abe7-9ed8dee8c0ba.jpg""]","",""
"","5749","similarity","208","1291959","0.0-6.0-202.0","2","[""img/0864/0f537697-a314-47c3-a8cc-8df23b7e536c.jpg"",""img/0894/a3d4170b-b7d8-40e3-955f-87e76ed745fc.jpg""]","",""
"","6008","similarity","209","1298975","0.0-6.0-203.0","5","[""img/0874/995f0332-0439-4eb4-add3-957335dbf6d9.jpg"",""img/0860/94ef7afc-e0e6-4a15-98c6-0bfac82bc832.jpg""]","",""
"","5446","similarity","210","1305431","0.0-6.0-204.0","5","[""img/0862/00c06b00-3b73-44e9-bc1e-c5aafb438321.jpg"",""img/0875/ebf7653f-ff45-4e9f-af58-2c042ab3cd2b.jpg""]","",""
"","3304","similarity","211","1309741","0.0-6.0-205.0","1","[""img/0867/5e07b34d-b40f-4b1c-ac10-49975bace45f.jpg"",""img/0881/6b1189e6-232d-4042-8885-16dc7b10e0d4.jpg""]","",""
"","5305","similarity","212","1316054","0.0-6.0-206.0","3","[""img/0901/f469cb1d-6d81-4a45-bab5-cd0b650c2b4f.jpg"",""img/0902/62f11694-7ed7-4cb7-8a73-9e95c43824e7.jpg""]","",""
"","5476","similarity","213","1322542","0.0-6.0-207.0","5","[""img/0899/8abe6c69-822c-436c-9bf2-96c818b49ba5.jpg"",""img/0864/c22faebd-9c53-47bc-ada3-b9a30c688e75.jpg""]","",""
"","4631","similarity","214","1328182","0.0-6.0-208.0","4","[""img/0901/50e1d53e-a49f-4806-8610-be6dec5a2475.jpg"",""img/0769/057eb0a0-aa5b-40c7-9852-21444f68d767.jpg""]","",""
"","4078","similarity","215","1340381","0.0-6.0-209.0","5","[""img/0902/9f543501-3cf1-45a7-a2f1-eeca87cc15b9.jpg"",""img/0902/5b45a7a0-81c8-4a71-aaa2-2ce09adb5a29.jpg""]","",""
"[{""page_index"":0,""viewing_time"":4055}]","4055","instructions","216","1345438","0.0-7.0","","","",""
"","34234","image-multi-choice","217","1380702","0.0-8.0-0.0","","","{""Q0"":""Tennessee Warbler""}","Nashville Warbler"
"","11434","image-multi-choice","218","1393150","0.0-8.0-1.0","","","{""Q0"":""Black-and-white Warbler""}","Black-and-white Warbler"
"","6192","image-multi-choice","219","1400366","0.0-8.0-2.0","","","{""Q0"":""Blackburnian Warbler""}","Townsend's Warbler"
"","5440","image-multi-choice","220","1406831","0.0-8.0-3.0","","","{""Q0"":""Tennessee Warbler""}","Lark Sparrow"
"","11347","image-multi-choice","221","1419200","0.0-8.0-4.0","","","{""Q0"":""Yellow Warbler""}","Yellow Warbler"
"","8958","image-multi-choice","222","1429182","0.0-8.0-5.0","","","{""Q0"":""Magnolia Warbler""}","Orange-crowned Warbler"
"","9858","image-multi-choice","223","1440062","0.0-8.0-6.0","","","{""Q0"":""White-throated Sparrow""}","White-throated Sparrow"
"","10088","image-multi-choice","224","1451158","0.0-8.0-7.0","","","{""Q0"":""Northern Waterthrush""}","Fox Sparrow"
"","4975","image-multi-choice","225","1457142","0.0-8.0-8.0","","","{""Q0"":""Chipping Sparrow""}","Song Sparrow"
"","9223","image-multi-choice","226","1467381","0.0-8.0-9.0","","","{""Q0"":""Townsend's Warbler""}","Blackburnian Warbler"
"","8568","image-multi-choice","227","1476966","0.0-8.0-10.0","","","{""Q0"":""Song Sparrow""}","Vesper Sparrow"
"","6490","image-multi-choice","228","1484478","0.0-8.0-11.0","","","{""Q0"":""White-crowned Sparrow""}","White-crowned Sparrow"
"","13674","image-multi-choice","229","1499174","0.0-8.0-12.0","","","{""Q0"":""American Tree Sparrow""}","American Tree Sparrow"
"","11319","image-multi-choice","230","1511517","0.0-8.0-13.0","","","{""Q0"":""Nashville Warbler""}","Tennessee Warbler"
"","9398","image-multi-choice","231","1521941","0.0-8.0-14.0","","","{""Q0"":""Ovenbird""}","Magnolia Warbler"
"","27807","image-multi-choice","232","1550766","0.0-8.0-15.0","","","{""Q0"":""Nashville Warbler""}","Northern Waterthrush"
"","13768","image-multi-choice","233","1565550","0.0-8.0-16.0","","","{""Q0"":""Vesper Sparrow""}","Chipping Sparrow"
"","5338","image-multi-choice","234","1571911","0.0-8.0-17.0","","","{""Q0"":""Fox Sparrow""}","Swamp Sparrow"
"","12072","image-multi-choice","235","1585006","0.0-8.0-18.0","","","{""Q0"":""Song Sparrow""}","Lincoln's Sparrow"
"","5422","image-multi-choice","236","1591454","0.0-8.0-19.0","","","{""Q0"":""Northern Waterthrush""}","Ovenbird"
