"view_history","rt","trial_type","trial_index","time_elapsed","internal_node_id","sim_score","stimulus","responses","answer"
"[{""page_index"":0,""viewing_time"":32489}]","32490","instructions","0","32491","0.0-0.0","","","",""
"","12634","similarity_demo","1","46136","0.0-1.0","3","[""img/866.jpg"",""img/868.jpg""]","",""
"[{""page_index"":0,""viewing_time"":23073}]","23074","instructions","2","70211","0.0-2.0","","","",""
"","8407","similarity_demo","3","79623","0.0-3.0","1","[""img/766.jpg"",""img/867.jpg""]","",""
"[{""page_index"":0,""viewing_time"":11003}]","11003","instructions","4","91628","0.0-4.0","","","",""
"[{""page_index"":0,""viewing_time"":77608}]","77608","instructions","5","170238","0.0-5.0","","","",""
"","7934","similarity","6","179180","0.0-6.0-0.0","4","[""img/0868/d98ca254-b195-477f-b57e-5760a2717db8.jpg"",""img/0901/c6c877e0-dd63-4e00-9657-33af29d55aab.jpg""]","",""
"","5691","similarity","7","185875","0.0-6.0-1.0","1","[""img/0769/458d9c77-b844-40b5-bb1b-1e3bbd4da64e.jpg"",""img/0867/98d8cd96-1476-4fe0-a3a3-04f875500a1b.jpg""]","",""
"","7525","similarity","8","194406","0.0-6.0-2.0","2","[""img/0766/d50d734f-285c-4840-bc7a-c8dd4aff391e.jpg"",""img/0898/881e2a85-d5c2-49be-a0c6-8a6ce2c4af08.jpg""]","",""
"","6573","similarity","9","201983","0.0-6.0-3.0","3","[""img/0902/07437a16-3d0f-4a5c-89ec-36d0efa4b3b8.jpg"",""img/0881/44e09805-5a25-4f17-a716-4ad4a331b174.jpg""]","",""
"","6854","similarity","10","209844","0.0-6.0-4.0","7","[""img/0894/5c7677b0-a4f1-479e-b274-7822c415175a.jpg"",""img/0894/10f22b96-040c-44f4-950b-a4963f3f506c.jpg""]","",""
"","9430","similarity","11","220280","0.0-6.0-5.0","6","[""img/0874/ca76a855-4e77-4f2f-872a-0a718153e7ed.jpg"",""img/0899/9de5e857-aa9a-4e0c-8ba2-46d79bd069a4.jpg""]","",""
"","8396","similarity","12","229684","0.0-6.0-6.0","5","[""img/0904/5aec2708-cf14-4a58-aa30-9a8a61c1be0e.jpg"",""img/0764/6c7fe363-2d37-418f-9e5e-a3273af5d4fb.jpg""]","",""
"","9178","similarity","13","239868","0.0-6.0-7.0","5","[""img/0899/4408c14d-c168-4a7d-96f6-bc87bfb58f83.jpg"",""img/0898/a8f16b02-e19f-423b-86c3-a36562ae1f9b.jpg""]","",""
"","7549","similarity","14","248423","0.0-6.0-8.0","4","[""img/0874/bf14b896-e930-4fd9-9c05-2e83317a2773.jpg"",""img/0903/8f7f9939-b8e6-433f-93dd-b362496c80a7.jpg""]","",""
"","5646","similarity","15","255075","0.0-6.0-9.0","7","[""img/0881/f037e3b0-09cb-4a83-b2d9-6a71fe474e63.jpg"",""img/0758/d41c06bf-ebaf-454b-91c6-1a17f917b659.jpg""]","",""
"","5472","similarity","16","261552","0.0-6.0-10.0","5","[""img/0898/04e39a7a-fcf6-4156-ab0e-f5871f335e1c.jpg"",""img/0901/a9b9c0a0-8aed-4888-a78a-65fb7e764d13.jpg""]","",""
"","4518","similarity","17","267077","0.0-6.0-11.0","4","[""img/0903/c708d08f-a108-4e04-8288-c3fcf6375db4.jpg"",""img/0769/180213e5-1e50-4b4e-87b6-add77ba04d39.jpg""]","",""
"","4330","similarity","18","272411","0.0-6.0-12.0","3","[""img/0764/55b3fab1-b809-4d38-a461-3f40ce062f52.jpg"",""img/0868/4bd5105a-d2c3-4f82-8c80-57196106ba53.jpg""]","",""
"","5686","similarity","19","279103","0.0-6.0-13.0","4","[""img/0867/7d1c497b-c1b3-4ed8-abb5-d7f73306015f.jpg"",""img/0903/b4a0f61e-a964-4b79-a9a7-f767a8f92f34.jpg""]","",""
"","6914","similarity","20","287022","0.0-6.0-14.0","5","[""img/0766/535849cc-ff5d-4df9-8f31-0ce94a97d571.jpg"",""img/0758/d57c2592-a317-4f63-91be-91a3a9afd222.jpg""]","",""
"","5701","similarity","21","293727","0.0-6.0-15.0","7","[""img/0902/94198618-7047-4dc9-ad04-85f4ba913067.jpg"",""img/0860/15b24a61-25be-4356-9eac-5ce95d0cb4a4.jpg""]","",""
"","4980","similarity","22","299711","0.0-6.0-16.0","2","[""img/0769/aad494cc-674d-4a08-9bfa-24a88ebe3c79.jpg"",""img/0875/2c361b79-c3d1-4eda-812e-bf03192407bf.jpg""]","",""
"","5188","similarity","23","305903","0.0-6.0-17.0","2","[""img/0904/09dac84f-3d1c-4445-a68e-d0389fdbf1e9.jpg"",""img/0866/6f2a90d7-14f1-4f1b-bd64-fc0af6b9fe44.jpg""]","",""
"","5275","similarity","24","312184","0.0-6.0-18.0","7","[""img/0875/2e13d160-eea1-416b-aff1-d37ab99ecc1d.jpg"",""img/0875/5a1e5100-0d94-4fec-bbe9-ca9894d2cf8e.jpg""]","",""
"","4827","similarity","25","318016","0.0-6.0-19.0","7","[""img/0758/d540bee6-b460-4c32-ac57-bc282742d7d4.jpg"",""img/0758/f61ecdf8-a7d4-4db0-b84d-be46f7cfaffc.jpg""]","",""
"","4585","similarity","26","323606","0.0-6.0-20.0","1","[""img/0902/6730b12a-f0a7-4587-8c10-a32fae16565b.jpg"",""img/0874/1016b306-087c-4afc-aa08-fa527b28dc76.jpg""]","",""
"","6471","similarity","27","331082","0.0-6.0-21.0","6","[""img/0764/c0b03adb-bd0a-4b96-a915-a827c2fd5211.jpg"",""img/0769/e8ed913b-8a88-44f6-9327-d34afec3116b.jpg""]","",""
"","4916","similarity","28","337004","0.0-6.0-22.0","1","[""img/0901/a6776381-91fe-43f8-ab73-261d318f95fd.jpg"",""img/0874/c0378dac-9370-439a-8b79-db27c96fb390.jpg""]","",""
"","4724","similarity","29","342733","0.0-6.0-23.0","1","[""img/0875/3ecb367d-e9eb-4826-8aaa-7aa72fb98019.jpg"",""img/0903/e2e55a9e-0397-4dc0-8adf-4a54cfefe1fe.jpg""]","",""
"","4768","similarity","30","348507","0.0-6.0-24.0","1","[""img/0769/387a9744-d6a7-42b8-bab8-33007ec434aa.jpg"",""img/0881/84397291-bc14-4fbf-90e8-241e486ab0fe.jpg""]","",""
"","5031","similarity","31","354543","0.0-6.0-25.0","1","[""img/0867/8ba0c5a7-c7e4-42cf-a80a-543763b90779.jpg"",""img/0904/65e2b70a-b184-4da3-b5c0-5038bdf9469a.jpg""]","",""
"","4922","similarity","32","360470","0.0-6.0-26.0","3","[""img/0860/8a92e21b-6a32-4e4a-a445-2d5a487ed0a4.jpg"",""img/0881/33d65d80-8a8e-4ecf-852d-0ad7725c17a2.jpg""]","",""
"","7009","similarity","33","368484","0.0-6.0-27.0","6","[""img/0866/07c9c966-3c8d-40e7-8128-92b2acbaed5d.jpg"",""img/0866/386235d2-6857-41e7-88a8-25cfc3430025.jpg""]","",""
"","4437","similarity","34","373926","0.0-6.0-28.0","2","[""img/0764/978aede9-4590-4ad0-b234-135c83e5d669.jpg"",""img/0862/ee3b7bff-4a70-4e84-9bea-4a565e456acb.jpg""]","",""
"","4436","similarity","35","379367","0.0-6.0-29.0","1","[""img/0904/2c98dc56-88d1-4fb5-a999-b6a7861f65f0.jpg"",""img/0758/65d426d6-3ff6-415d-8654-a43b83ecc4fe.jpg""]","",""
"","6158","similarity","36","386530","0.0-6.0-30.0","3","[""img/0894/0130a973-d993-41f8-874a-fee23d9ac11f.jpg"",""img/0899/7f9d45d0-b2c6-40d3-aa41-c207db2c411b.jpg""]","",""
"","6164","similarity","37","393699","0.0-6.0-31.0","1","[""img/0860/4a022222-056d-461c-ab02-39fac9647552.jpg"",""img/0904/d23dd7be-7fe8-4435-82f7-bd592c01e6a1.jpg""]","",""
"","6650","similarity","38","401354","0.0-6.0-32.0","6","[""img/0874/a82926a3-0b43-4add-803c-d5f9ea7798ee.jpg"",""img/0881/ed4c971f-0873-4fc8-b6d6-e8bbd82f0bcc.jpg""]","",""
"","5604","similarity","39","407964","0.0-6.0-33.0","2","[""img/0881/405484ae-0d00-4b05-bc57-6420a36adfac.jpg"",""img/0899/1b3457ea-87d4-4946-a01c-aac1863ed46c.jpg""]","",""
"","7077","similarity","40","416046","0.0-6.0-34.0","2","[""img/0866/d266fece-59b3-46fa-b69f-96f6efb81b59.jpg"",""img/0862/1c20f772-3a51-4a80-aac0-f57dc9f86c28.jpg""]","",""
"","4387","similarity","41","421438","0.0-6.0-35.0","1","[""img/0868/e0aff734-077f-40dd-9781-74821abd3621.jpg"",""img/0894/7dd6ff43-f8fc-408a-8a41-a2b261871820.jpg""]","",""
"","6668","similarity","42","429112","0.0-6.0-36.0","5","[""img/0860/e8b8c51e-1834-4875-8b61-6c5bc9b178bd.jpg"",""img/0860/61fb959d-d4d9-4de4-9e4e-4fa62b4cfcd5.jpg""]","",""
"","6224","similarity","43","436341","0.0-6.0-37.0","5","[""img/0862/4f0a3b4c-afbf-486e-b248-1d54982f54b4.jpg"",""img/0864/ef9cbca0-4be8-435d-ad49-977259e80409.jpg""]","",""
"","3686","similarity","44","441031","0.0-6.0-38.0","1","[""img/0766/d3bab2fc-ddcc-40a0-bb72-c0d0ebe19978.jpg"",""img/0866/4a87911a-d5be-4d4e-ab8e-3d1f581bf507.jpg""]","",""
"","3990","similarity","45","446025","0.0-6.0-39.0","1","[""img/0875/d59ff733-eaff-4ee2-9443-06954dd0bcb6.jpg"",""img/0898/40f99fb2-64d2-4e72-8a7f-a1cf60741e69.jpg""]","",""
"","5102","similarity","46","452133","0.0-6.0-40.0","2","[""img/0766/0b48f9e0-7d37-4161-8adb-4e3f5b6b7583.jpg"",""img/0769/35f2dd39-40aa-498e-b401-9f1ef2622d00.jpg""]","",""
"","5472","similarity","47","496421","0.0-6.0-41.0","7","[""img/0874/93d1f8dc-acf2-4f03-bd8d-8ec35df276ed.jpg"",""img/0764/e42c1dc9-7831-4995-be19-7ca7b4d141fc.jpg""]","",""
"","6352","similarity","48","503779","0.0-6.0-42.0","2","[""img/0868/3a62db2d-97e9-44a3-b8e3-a48c6f0e423b.jpg"",""img/0902/8065aa6b-4aef-4368-afa2-02c6465ca582.jpg""]","",""
"","3447","similarity","49","508232","0.0-6.0-43.0","1","[""img/0875/5a7c4e35-6514-4e12-8879-d16071da4cd6.jpg"",""img/0899/b45c550b-96c3-4255-ad59-48a2b4db1c1e.jpg""]","",""
"","5649","similarity","50","514886","0.0-6.0-44.0","6","[""img/0866/0207e9a2-7dbb-40b5-9459-b472aaeceb2a.jpg"",""img/0860/8fdba999-b946-4c7d-9891-336018b563ef.jpg""]","",""
"","3731","similarity","51","519622","0.0-6.0-45.0","1","[""img/0766/af3be95e-e52e-4fae-899b-0ff02ec340aa.jpg"",""img/0903/b0df4094-a3be-4b5b-81bd-8d260f13f61b.jpg""]","",""
"","4762","similarity","52","525390","0.0-6.0-46.0","3","[""img/0901/77087ed2-6e12-4329-b2a5-605bca6d972d.jpg"",""img/0904/96e503ea-6630-4996-85f2-0237688ce441.jpg""]","",""
"","3997","similarity","53","530393","0.0-6.0-47.0","3","[""img/0758/ddc336e9-a8b6-4bb9-937a-c7e25e0e9250.jpg"",""img/0902/1f4a4c62-68c1-4993-b213-05652a173ed1.jpg""]","",""
"","4663","similarity","54","536061","0.0-6.0-48.0","7","[""img/0764/62fafeea-6274-48ce-976f-35d3d3484c65.jpg"",""img/0764/d7c215ab-ea9a-45be-8d5f-417d5b9a8a17.jpg""]","",""
"","4612","similarity","55","541678","0.0-6.0-49.0","1","[""img/0866/620cd1aa-0800-4414-8f6e-90342e7a99ad.jpg"",""img/0902/cf9dee9c-2bdf-4d64-9302-97f1660fe52c.jpg""]","",""
"","4793","similarity","56","547477","0.0-6.0-50.0","6","[""img/0764/b887d7c6-aa81-4637-af8e-05135757ac59.jpg"",""img/0758/3ddd05d3-557e-4ee7-8b78-9d2d681d8ae2.jpg""]","",""
"","5367","similarity","57","553849","0.0-6.0-51.0","5","[""img/0898/0af304a2-6a7a-4082-ab7c-4450cd08cc58.jpg"",""img/0894/b422d5c6-3c5a-49ae-a53e-7e88ac993f49.jpg""]","",""
"","5944","similarity","58","560797","0.0-6.0-52.0","6","[""img/0875/ebf7653f-ff45-4e9f-af58-2c042ab3cd2b.jpg"",""img/0866/8efcaa46-83ab-4dee-a35f-850402aa21ae.jpg""]","",""
"","5310","similarity","59","567110","0.0-6.0-53.0","7","[""img/0904/4d7d70a3-9477-4921-bda0-f9531d0a5c5b.jpg"",""img/0904/25365108-e038-4021-aac9-797f2063b337.jpg""]","",""
"","4490","similarity","60","572605","0.0-6.0-54.0","7","[""img/0769/bb8c4e53-6f32-4814-97ee-392d4decfb2e.jpg"",""img/0769/688d0c52-ad73-4065-a5eb-f8c10d076bff.jpg""]","",""
"","5673","similarity","61","579283","0.0-6.0-55.0","5","[""img/0898/b2732712-71c2-45d8-834f-2b2ed5504910.jpg"",""img/0758/9fb5b2fe-3f00-4fe6-973c-1ce10d5f4cd5.jpg""]","",""
"","5332","similarity","62","585620","0.0-6.0-56.0","7","[""img/0769/75f7e514-0548-4329-b1e4-93c05e74f038.jpg"",""img/0902/8af4182a-9af9-4212-a436-9195555112d6.jpg""]","",""
"","4974","similarity","63","591601","0.0-6.0-57.0","6","[""img/0864/0f537697-a314-47c3-a8cc-8df23b7e536c.jpg"",""img/0881/f8bd891e-aa09-4782-89db-33e7cb2b0cf1.jpg""]","",""
"","4355","similarity","64","596962","0.0-6.0-58.0","1","[""img/0758/b76ceca7-95ac-46e4-ac13-da02c8e93be9.jpg"",""img/0868/0d3abd3a-b6c3-4584-a9f7-e2da63748b3d.jpg""]","",""
"","6580","similarity","65","604548","0.0-6.0-59.0","6","[""img/0862/92fcd8a4-8193-4a6a-ae09-dd4a6338b0df.jpg"",""img/0769/965c3c44-d9e5-47c5-b61a-2bbdf4215d9a.jpg""]","",""
"","9888","similarity","66","615441","0.0-6.0-60.0","5","[""img/0764/a3226bc4-dcc3-4608-bde8-1414d685ce5c.jpg"",""img/0903/776b74ee-a8ab-4ab8-a78d-097c0747538d.jpg""]","",""
"","5776","similarity","67","622223","0.0-6.0-61.0","6","[""img/0899/fd9efb43-701f-4cd6-baaa-4c38315f4bdc.jpg"",""img/0899/76ad07e2-ca25-45eb-84f2-8d80b8ca3e26.jpg""]","",""
"","4433","similarity","68","627661","0.0-6.0-62.0","6","[""img/0860/c5ccd1a4-4bb7-48e1-9b25-72cfaf06909b.jpg"",""img/0875/fb732ab5-013a-4366-9f65-27811ed157e9.jpg""]","",""
"","5285","similarity","69","633951","0.0-6.0-63.0","1","[""img/0868/293079b8-7e0c-4afd-a390-1e5d35fe3ded.jpg"",""img/0874/2c9464dd-8a23-4baa-ac94-1ba3af5c15cc.jpg""]","",""
"","9027","similarity","70","643983","0.0-6.0-64.0","6","[""img/0758/67c0be2f-9e91-48b3-8219-70ac0a1802fa.jpg"",""img/0862/847e5208-38ec-4f36-949c-296cdd7424ee.jpg""]","",""
"","4898","similarity","71","649886","0.0-6.0-65.0","2","[""img/0904/b7c2a2c8-df33-4473-b3d4-ff7147c60db3.jpg"",""img/0898/661621d4-a14e-487c-8c74-354134a29710.jpg""]","",""
"","3933","similarity","72","654825","0.0-6.0-66.0","1","[""img/0881/7e31e5dc-2240-4b1b-b5a0-3acd980099ef.jpg"",""img/0866/23a224f3-2012-4fc8-8e0f-3c36f8de27fd.jpg""]","",""
"","5798","similarity","73","661626","0.0-6.0-67.0","3","[""img/0867/075e0f95-856b-4cbb-acf5-092393aaf04e.jpg"",""img/0898/ec565187-2e31-4fdd-9a5c-153d0c789ae0.jpg""]","",""
"","6016","similarity","74","668649","0.0-6.0-68.0","5","[""img/0902/71c03003-03ef-4b0f-8229-e0c857150a5d.jpg"",""img/0764/83c93cce-18d1-4aa7-9e23-2c268afe0a46.jpg""]","",""
"","3830","similarity","75","673484","0.0-6.0-69.0","4","[""img/0875/42910c99-5463-450a-a0f8-d4d060a11455.jpg"",""img/0867/5e07b34d-b40f-4b1c-ac10-49975bace45f.jpg""]","",""
"","5234","similarity","76","679722","0.0-6.0-70.0","7","[""img/0766/00891401-e4c9-4ce1-bc19-f70740d174bc.jpg"",""img/0764/21e3292f-01ad-4238-828b-61b817857d16.jpg""]","",""
"","5763","similarity","77","686491","0.0-6.0-71.0","1","[""img/0894/661b9f9f-4bde-487a-b1ed-87085fde6948.jpg"",""img/0867/f8488a47-94ee-4166-952c-44e16cf172f6.jpg""]","",""
"","5425","similarity","78","692920","0.0-6.0-72.0","2","[""img/0875/dbdd643e-6d0e-4a5c-ab57-b9c29b9c981a.jpg"",""img/0764/c643e165-df19-459f-8c2b-8357bf432a17.jpg""]","",""
"","7207","similarity","79","701132","0.0-6.0-73.0","5","[""img/0867/cc72ed48-7704-422c-86d6-467a1145287a.jpg"",""img/0866/d493a2c8-66eb-44b4-be02-2f327b700b7c.jpg""]","",""
"","5637","similarity","80","707774","0.0-6.0-74.0","2","[""img/0903/b0a3c45f-467e-412f-a183-c9c1827f2e63.jpg"",""img/0758/caa93da2-9edf-49fa-96b9-32dedd8f5078.jpg""]","",""
"","5436","similarity","81","714215","0.0-6.0-75.0","1","[""img/0766/d512b99c-a2dc-40d7-8e86-827323a0cbcf.jpg"",""img/0868/d6d1f30d-4323-435a-b194-7892521bc57e.jpg""]","",""
"","7680","similarity","82","722899","0.0-6.0-76.0","4","[""img/0874/85eb9b8a-c4c6-4e5a-b8e7-363a87a82054.jpg"",""img/0766/a1ed3f0f-e338-4a26-8fe4-4370f0c9fa6e.jpg""]","",""
"","4130","similarity","83","728036","0.0-6.0-77.0","1","[""img/0881/b549bc99-a61c-4450-bab5-9efc3a197bf0.jpg"",""img/0868/15dd6fd7-791e-4b53-b203-195d617521a4.jpg""]","",""
"","4543","similarity","84","733583","0.0-6.0-78.0","2","[""img/0758/821c68d3-5cb0-4eae-8659-30e6263fca39.jpg"",""img/0901/da4fe30f-d12a-491e-96a2-5ab8ebaadd09.jpg""]","",""
"","4229","similarity","85","738817","0.0-6.0-79.0","1","[""img/0881/6b1189e6-232d-4042-8885-16dc7b10e0d4.jpg"",""img/0898/993d8f2d-bef7-4251-a193-0f93a32b7763.jpg""]","",""
"","3001","similarity","86","742823","0.0-6.0-80.0","1","[""img/0867/2e1a0b58-cdb1-4107-a14e-452530d7b9b0.jpg"",""img/0758/2fa3e613-e676-4e6e-bd12-705327eeb3e1.jpg""]","",""
"","4810","similarity","87","748639","0.0-6.0-81.0","2","[""img/0769/662ab839-88d1-4ebf-af05-9b2980cad943.jpg"",""img/0899/51a7a498-98c7-42d7-bca8-bc2d8f0b5831.jpg""]","",""
"","7881","similarity","88","757524","0.0-6.0-82.0","3","[""img/0903/45e2d600-57ff-4d69-b22c-0c7896cd38f0.jpg"",""img/0903/43ffd882-077a-40dd-a264-e58d519420a1.jpg""]","",""
"","3262","similarity","89","817226","0.0-6.0-83.0","1","[""img/0867/c66898ba-b71b-4d50-84f9-f7f84853a98d.jpg"",""img/0766/1865bfc9-2410-4765-a804-3ae4ba2393d0.jpg""]","",""
"","5098","similarity","90","823329","0.0-6.0-84.0","3","[""img/0902/04a6ad4a-afc6-4871-8225-56b299af7b6b.jpg"",""img/0867/1719a35d-f085-48c0-9099-16c94fe418b4.jpg""]","",""
"","4507","similarity","91","828842","0.0-6.0-85.0","2","[""img/0901/a0d65c84-3f20-476a-92d1-0c01e8019cf4.jpg"",""img/0875/90da8d75-108a-44ad-b999-e21fee3860d3.jpg""]","",""
"","4636","similarity","92","834483","0.0-6.0-86.0","5","[""img/0764/e0788029-9d7f-414c-b747-46d2a99f7c86.jpg"",""img/0866/c446214b-a368-4c65-ae39-ea46894256ab.jpg""]","",""
"","3433","similarity","93","838921","0.0-6.0-87.0","5","[""img/0901/4f9cffe0-c0be-4d7f-bacd-9d51efd19b4a.jpg"",""img/0894/e6385e52-6c35-43bd-b0af-bc803d107b11.jpg""]","",""
"","4217","similarity","94","844143","0.0-6.0-88.0","6","[""img/0898/6cd3830b-d44e-4915-be2b-88d31424b91c.jpg"",""img/0769/d1be2815-fa79-46e8-b5c3-7d81caaca490.jpg""]","",""
"","4469","similarity","95","849616","0.0-6.0-89.0","4","[""img/0769/1afb527f-9887-428c-bd26-a12c2f9efb68.jpg"",""img/0894/767a0eec-1064-46b1-b1aa-dfa02b0cd74e.jpg""]","",""
"","9215","similarity","96","859836","0.0-6.0-90.0","6","[""img/0862/99a99e39-8355-44ec-b993-e7bcec111e1c.jpg"",""img/0874/99f6563c-8a8d-4c1c-a41d-667b618c3fd5.jpg""]","",""
"","5793","similarity","97","866634","0.0-6.0-91.0","3","[""img/0894/e5edf723-72a5-4673-8441-6c1734a8929b.jpg"",""img/0766/ba35c0fc-4d5b-490d-959e-c94b279cdd02.jpg""]","",""
"","6255","similarity","98","873894","0.0-6.0-92.0","1","[""img/0874/29830da7-be5f-44e5-b141-652a0ccf7269.jpg"",""img/0867/6e19c858-b606-45b2-a4c6-910a73f1d82c.jpg""]","",""
"","3891","similarity","99","878790","0.0-6.0-93.0","1","[""img/0899/25ae6ec8-9565-49fe-a8bb-8d0666f52716.jpg"",""img/0868/77091fc7-a590-4ebb-b915-fdb2483a2399.jpg""]","",""
"","4947","similarity","100","884742","0.0-6.0-94.0","2","[""img/0903/005ad0de-4f52-433c-b515-dbe8d46184a3.jpg"",""img/0862/de9ad88c-b522-430a-8ee9-eb06a9f85df5.jpg""]","",""
"","4447","similarity","101","890194","0.0-6.0-95.0","6","[""img/0899/f95cbdb4-f804-4f5d-ad76-373ad343e658.jpg"",""img/0766/aaec5f42-7f0a-4a16-aeca-488d757acbcc.jpg""]","",""
"","5517","similarity","102","896715","0.0-6.0-96.0","7","[""img/0867/f8159067-056c-41f1-a136-c529fe5e970a.jpg"",""img/0868/fd307a36-9a3a-47d7-ab7c-f810d0b35040.jpg""]","",""
"","4365","similarity","103","902085","0.0-6.0-97.0","3","[""img/0862/92f0146c-20c4-482e-aef5-adb693790338.jpg"",""img/0901/0adb3bd6-d758-4ba7-9723-3ad6cac05bd5.jpg""]","",""
"","4037","similarity","104","907128","0.0-6.0-98.0","1","[""img/0875/a4935837-7d3c-4df6-88c1-36a94d4991ca.jpg"",""img/0766/1bc0dccc-a5b5-4375-87fa-28360ca42b12.jpg""]","",""
"","5972","similarity","105","914105","0.0-6.0-99.0","6","[""img/0758/6e95579b-5166-487c-b8cb-e417c6a218e3.jpg"",""img/0874/31e22c7c-99aa-40b1-bf03-dd73fa2df4d6.jpg""]","",""
"","3476","similarity","106","918585","0.0-6.0-100.0","1","[""img/0904/9dd5708f-3f8b-46a9-b49f-2f2fab87b357.jpg"",""img/0868/09a9ef4d-d000-4cfa-a6aa-ebec7c2edeb4.jpg""]","",""
"","6054","similarity","107","925645","0.0-6.0-101.0","3","[""img/0903/3e9ee8a5-eb66-47f5-8973-8a5af1ddc87e.jpg"",""img/0866/bf14b5bd-fb55-47db-86b9-4f8aeb9a6dad.jpg""]","",""
"","3426","similarity","108","930077","0.0-6.0-102.0","1","[""img/0868/83b4350a-3b70-4cea-b7f5-b5b56f3050a8.jpg"",""img/0769/ebef2ddc-ba59-4e0e-97f8-927864eb5081.jpg""]","",""
"","6789","similarity","109","937871","0.0-6.0-103.0","4","[""img/0902/fbef27fa-ac83-4936-ab78-9d1c20a383e1.jpg"",""img/0899/a048912c-b12c-40e3-90af-46b69b0cc4fe.jpg""]","",""
"","4238","similarity","110","943113","0.0-6.0-104.0","3","[""img/0868/4a8a45ed-2c4f-421b-9564-409a33ecd26c.jpg"",""img/0862/24cdc752-c2e5-4a17-86a6-6f2045d8553b.jpg""]","",""
"","5056","similarity","111","949174","0.0-6.0-105.0","7","[""img/0903/6f343da5-00d9-4d50-89d1-2ed24cdb8319.jpg"",""img/0894/4739e06d-c31e-4bf1-bf91-c97fa9afb456.jpg""]","",""
"","5103","similarity","112","955282","0.0-6.0-106.0","3","[""img/0864/e02eddb5-f468-499c-91bf-f7be3ffe979b.jpg"",""img/0874/ca23d307-fc00-4d7d-9106-584c6eb21b4d.jpg""]","",""
"","5088","similarity","113","961376","0.0-6.0-107.0","7","[""img/0862/f23038d4-c366-4f70-979f-66b62362efa4.jpg"",""img/0902/c920f0e1-1c81-480f-a164-c77f2dc6ce9a.jpg""]","",""
"","5586","similarity","114","967968","0.0-6.0-108.0","3","[""img/0904/60d1a521-edf7-4696-9263-f21ac0e62a01.jpg"",""img/0903/150cf64c-0bd2-4674-abbb-a1387cf1f3e9.jpg""]","",""
"","9672","similarity","115","978646","0.0-6.0-109.0","3","[""img/0764/29072395-f595-4e3c-83d3-ff87010039fa.jpg"",""img/0864/1ebbc554-99fa-49f9-8799-317375a79820.jpg""]","",""
"","9919","similarity","116","989570","0.0-6.0-110.0","6","[""img/0866/9b38d691-1802-4959-ab3f-fc902f0e4ea6.jpg"",""img/0894/86201968-6e78-4d68-9b3a-d1692e066210.jpg""]","",""
"","6203","similarity","117","996778","0.0-6.0-111.0","3","[""img/0899/ad8268c5-8199-48d0-ad70-c5b6d6c599ec.jpg"",""img/0903/f1fa0f8d-e62b-4b4a-a174-31a0fabfe61b.jpg""]","",""
"","7885","similarity","118","1005668","0.0-6.0-112.0","3","[""img/0902/962f645e-9b55-4628-9b50-c703422bfe1a.jpg"",""img/0904/56e73f28-7e64-489b-a161-e6b1a063878d.jpg""]","",""
"","6383","similarity","119","1013057","0.0-6.0-113.0","2","[""img/0864/6f631579-acf1-415c-a42c-1207f62a8d99.jpg"",""img/0860/d9a0d117-6d1d-41c0-8fec-9aff0fd9e9f2.jpg""]","",""
"","3940","similarity","120","1018001","0.0-6.0-114.0","2","[""img/0860/71e1aad0-2cdf-43bb-94a4-a8c016997c30.jpg"",""img/0899/66bf4113-ee12-426c-84d2-ea410b6c803e.jpg""]","",""
"","4264","similarity","121","1023269","0.0-6.0-115.0","2","[""img/0881/292e9b4b-fca0-4ba8-87f1-4048f9e37b7d.jpg"",""img/0903/ea75f240-fb62-4edb-a709-83e858b202c0.jpg""]","",""
"","4990","similarity","122","1029263","0.0-6.0-116.0","1","[""img/0894/6b2e9509-8699-42b7-9582-7741df0ba2d7.jpg"",""img/0874/8cdb1c07-1c32-46d2-981c-3636560fa6e5.jpg""]","",""
"","5385","similarity","123","1035653","0.0-6.0-117.0","6","[""img/0881/db77fe00-aeb0-4d1d-aa66-f3a96fd077e4.jpg"",""img/0862/cdaed51d-9e2f-4807-801a-4663c40077e2.jpg""]","",""
"","6168","similarity","124","1042827","0.0-6.0-118.0","5","[""img/0868/4e626425-63c8-484a-8a1d-e66ee4e0bef8.jpg"",""img/0875/527ced51-8e53-4aab-ab05-86df219104c0.jpg""]","",""
"","6729","similarity","125","1050561","0.0-6.0-119.0","3","[""img/0860/b03b963d-949b-4d8d-b19c-4950c89eeca2.jpg"",""img/0758/6cd8c362-ae2a-41eb-80a3-3a4f7ace1530.jpg""]","",""
"","3855","similarity","126","1055421","0.0-6.0-120.0","1","[""img/0864/da39ad34-04e0-40d4-a724-c08d53e0ea09.jpg"",""img/0875/e7e66b13-b573-431e-b85e-288ce04a35a3.jpg""]","",""
"","4626","similarity","127","1061054","0.0-6.0-121.0","2","[""img/0898/cd3aaa3f-efa9-4ab3-8d6f-a6a9273ddf42.jpg"",""img/0866/f756f7d1-9ad8-4a34-9ef6-7a443d705bfe.jpg""]","",""
"","9902","similarity","128","1071961","0.0-6.0-122.0","3","[""img/0874/3f471690-9788-4d03-90c7-f615aecef149.jpg"",""img/0904/06dacdc5-2206-4fb8-92b7-88042d22833c.jpg""]","",""
"","5179","similarity","129","1078145","0.0-6.0-123.0","1","[""img/0904/fe746a3f-8458-48d0-8a13-8cba2a9df9f8.jpg"",""img/0864/3651d070-2fc5-4848-b6a6-088a2d9ac5c9.jpg""]","",""
"","9141","similarity","130","1088290","0.0-6.0-124.0","3","[""img/0894/a3d4170b-b7d8-40e3-955f-87e76ed745fc.jpg"",""img/0902/b56db912-c3c0-4fc2-b325-d640acd7cb58.jpg""]","",""
"","4773","similarity","131","1102656","0.0-6.0-125.0","1","[""img/0868/1a62b2b2-18f5-466e-b564-5176a57c565e.jpg"",""img/0864/49150900-7f25-4ce8-8d10-9b47a71d1997.jpg""]","",""
"","5062","similarity","132","1108724","0.0-6.0-126.0","4","[""img/0899/7b7380d5-d2be-44e5-a09a-c1756f87ef71.jpg"",""img/0866/93a27239-8317-4e08-98ca-d8b1ff298e07.jpg""]","",""
"","3623","similarity","133","1113352","0.0-6.0-127.0","6","[""img/0875/03c3c331-738b-4446-af92-3d7386b08c2e.jpg"",""img/0904/a8c3c7d2-9bcf-4347-9e03-8203adfc1fc5.jpg""]","",""
"","5398","similarity","134","1119755","0.0-6.0-128.0","3","[""img/0867/a498eef3-9fa4-4ab2-9778-4ae82ac40dc5.jpg"",""img/0899/d60714ae-98d7-4564-8c98-94dba1351135.jpg""]","",""
"","3107","similarity","135","1123871","0.0-6.0-129.0","2","[""img/0901/31c032fd-3c3d-4882-a226-da9a80198937.jpg"",""img/0867/db7e032f-162b-46f5-ae67-2b29679adee4.jpg""]","",""
"","7000","similarity","136","1131876","0.0-6.0-130.0","5","[""img/0864/8ddd2e30-a1d0-479f-9cbe-591213023893.jpg"",""img/0769/9ea9ceb6-049e-4ad9-be8f-00645cd35803.jpg""]","",""
"","5039","similarity","137","1137920","0.0-6.0-131.0","3","[""img/0903/5ea5bbe0-f238-4724-abe7-9ed8dee8c0ba.jpg"",""img/0868/6a28c3b0-3d76-498a-9fb7-ddafc665eca8.jpg""]","",""
"","4611","similarity","138","1143537","0.0-6.0-132.0","1","[""img/0864/6e846d43-94a6-4b37-a268-65eda979f052.jpg"",""img/0867/26611f4e-d694-4460-b7e2-43c62753ddc3.jpg""]","",""
"","6600","similarity","139","1151142","0.0-6.0-133.0","6","[""img/0901/58ec7fa9-b466-4651-90aa-c082df0972de.jpg"",""img/0860/29a21a9f-54bb-4093-ad3f-04823ceaa89f.jpg""]","",""
"","4364","similarity","140","1156510","0.0-6.0-134.0","5","[""img/0881/344de456-b358-4887-bd0e-e4c3278af887.jpg"",""img/0766/71b81ebd-0937-4d7f-b8bf-c4e46a4728fd.jpg""]","",""
"","9575","similarity","141","1167089","0.0-6.0-135.0","1","[""img/0903/72197c2b-403e-4a26-b391-f1aa8dea4b76.jpg"",""img/0864/4bd81bc6-c13d-46df-95a9-485886dc7c1b.jpg""]","",""
"","4658","similarity","142","1172752","0.0-6.0-136.0","2","[""img/0758/a085b443-b5d7-4cb2-9ad4-b9dab0fc23f1.jpg"",""img/0894/bd34223a-2f66-4e16-9d18-193a746b69ff.jpg""]","",""
"","4185","similarity","143","1177941","0.0-6.0-137.0","2","[""img/0769/8056889f-2b14-4782-bb25-b4e8896ab65b.jpg"",""img/0860/4f695df5-afac-4da7-9875-fee39b0b24ad.jpg""]","",""
"","5426","similarity","144","1184374","0.0-6.0-138.0","5","[""img/0904/24fc38fe-842c-4831-ad8a-b1de5c25c0a8.jpg"",""img/0766/60033a74-9919-47e5-913c-71d0d483e7e5.jpg""]","",""
"","4150","similarity","145","1189529","0.0-6.0-139.0","3","[""img/0868/7b212364-ff5f-4e28-9241-7eb6ea00161b.jpg"",""img/0860/5383b320-1518-4095-a58e-5cc1ae30b64c.jpg""]","",""
"","5993","similarity","146","1196527","0.0-6.0-140.0","1","[""img/0758/7ee8bc8f-c40b-4b3a-84ec-3e83580622d4.jpg"",""img/0864/a248adb3-c70b-4652-b7a3-776d2a1e904b.jpg""]","",""
"","3925","similarity","147","1201457","0.0-6.0-141.0","7","[""img/0867/de92135f-5b65-4ed9-b245-188292c7c2f8.jpg"",""img/0867/12264664-1860-46df-8c21-162b9817cdda.jpg""]","",""
"","3894","similarity","148","1206354","0.0-6.0-142.0","4","[""img/0898/0c7dde4f-efce-4b7a-9387-6921635b7890.jpg"",""img/0898/5f699581-3853-4547-856c-12f419ba5af7.jpg""]","",""
"","5159","similarity","149","1212519","0.0-6.0-143.0","3","[""img/0866/be24ab58-230e-4db8-9f45-ff04c9aec6bb.jpg"",""img/0769/c34b7763-8ff2-46d5-9e92-f1d8f3bedbd8.jpg""]","",""
"","4149","similarity","150","1217673","0.0-6.0-144.0","3","[""img/0860/9593362c-9fe5-4d12-9735-6000a11f6aa5.jpg"",""img/0898/8605a25b-6895-476d-8c13-df7a83f96093.jpg""]","",""
"","4369","similarity","151","1223047","0.0-6.0-145.0","6","[""img/0766/110832e5-2646-4bd0-a94e-5df8cc314269.jpg"",""img/0864/efcfbb1b-8197-44c9-b723-40d6c608dd3c.jpg""]","",""
"","5523","similarity","152","1229575","0.0-6.0-146.0","1","[""img/0860/f44ba3fb-03a2-42f0-8509-2c1ded493086.jpg"",""img/0903/8635cf25-2648-4fe9-8c42-79d2598e999c.jpg""]","",""
"","4387","similarity","153","1234966","0.0-6.0-147.0","1","[""img/0867/c71dc569-f49c-4397-8381-68b8d726736d.jpg"",""img/0764/958b8576-3a3b-4acc-96dc-06b74de69f37.jpg""]","",""
"","4705","similarity","154","1240676","0.0-6.0-148.0","4","[""img/0769/47700831-0ca2-4fdd-a498-a3bc5a528f43.jpg"",""img/0904/5cceabc9-de1d-4c67-989b-c28a4ef77e79.jpg""]","",""
"","3716","similarity","155","1245398","0.0-6.0-149.0","2","[""img/0764/da207710-e7e4-4f42-b2e6-99b5f357f433.jpg"",""img/0901/58978a6d-a3e2-4c59-8d62-f60693ecc0f6.jpg""]","",""
"","5905","similarity","156","1252310","0.0-6.0-150.0","5","[""img/0904/4e58005d-a2ec-4aaa-b199-445343561396.jpg"",""img/0899/06b0fc99-0581-461a-9913-d1a5a941ac61.jpg""]","",""
"","5255","similarity","157","1258570","0.0-6.0-151.0","4","[""img/0862/d0ca4c78-fc35-46ed-bdcc-8e124283c53e.jpg"",""img/0867/aa05d113-fc19-4756-a8eb-7878f580bc92.jpg""]","",""
"","7755","similarity","158","1267330","0.0-6.0-152.0","7","[""img/0766/d5d38751-8fa5-476f-93e9-86ed2d9045ef.jpg"",""img/0766/ae0fce93-fe8d-4aa1-87ca-4c3e4b889f2f.jpg""]","",""
"","7019","similarity","159","1275354","0.0-6.0-153.0","5","[""img/0862/ad593cc7-cabe-4bb7-8e14-8a447a0717b4.jpg"",""img/0894/7fb082e0-ce79-485c-9109-04367fb32275.jpg""]","",""
"","9052","similarity","160","1285411","0.0-6.0-154.0","2","[""img/0899/8de08897-b430-42fe-9d42-840670b80f94.jpg"",""img/0901/0f670aef-ac36-496d-8142-ee5fdb21dd82.jpg""]","",""
"","5325","similarity","161","1291741","0.0-6.0-155.0","7","[""img/0874/7e4f2150-3b59-4a36-b5da-a4e0ba410531.jpg"",""img/0874/3ce41e7c-40c8-4d58-a546-171114521796.jpg""]","",""
"","4675","similarity","162","1297421","0.0-6.0-156.0","2","[""img/0860/8277806e-b684-4474-8f7b-3fca946d7d4f.jpg"",""img/0867/50a1b60e-3a29-44bf-b606-d4bd3746fea9.jpg""]","",""
"","7423","similarity","163","1305849","0.0-6.0-157.0","1","[""img/0901/1ede21d9-384f-4150-86b5-e1c57b5dc1d4.jpg"",""img/0881/19e82c47-8e4b-45d2-a6c8-74181eb4155e.jpg""]","",""
"","6774","similarity","164","1313627","0.0-6.0-158.0","7","[""img/0903/bf0a7d60-eca5-44b0-bafd-baf21db9904b.jpg"",""img/0902/e5a46bda-30d1-41ca-b36d-b8529b5a63d1.jpg""]","",""
"","5303","similarity","165","1319935","0.0-6.0-159.0","4","[""img/0860/e14d67c1-6d92-4f1e-9257-c8607159c19c.jpg"",""img/0764/952d7adc-dc40-4aee-acce-18c2a1d02ea1.jpg""]","",""
"","4531","similarity","166","1325471","0.0-6.0-160.0","1","[""img/0902/24d10fe7-314f-4d5a-8c7b-b43121bba0a4.jpg"",""img/0875/8521fd58-3b1e-4dc5-97ae-804edfa6734a.jpg""]","",""
"","7941","similarity","167","1334417","0.0-6.0-161.0","5","[""img/0898/26c41340-15bd-4ead-8fe4-c0d0ddca09c2.jpg"",""img/0862/e0f1a4e9-e1b6-45f7-af67-89f334e6630d.jpg""]","",""
"","4804","similarity","168","1340226","0.0-6.0-162.0","3","[""img/0894/2d2db7b3-e8a3-499b-b63a-14f51bf73882.jpg"",""img/0875/f87b67d7-c33e-40d1-b281-248c4be1cb6e.jpg""]","",""
"","5358","similarity","169","1346588","0.0-6.0-163.0","5","[""img/0866/a15b02be-11bb-43e3-b0e0-ecc3bd7dfc49.jpg"",""img/0864/87c467d3-abca-482f-ad80-3766c21b1bb3.jpg""]","",""
"","5927","similarity","170","1353520","0.0-6.0-164.0","3","[""img/0766/fd74fdbb-ea40-4f3a-a091-38d08dfd636e.jpg"",""img/0862/7918ca67-5bd3-4606-a5ea-c39fb11a9297.jpg""]","",""
"","4607","similarity","171","1359130","0.0-6.0-165.0","2","[""img/0866/945c6710-d15b-4a5b-a8f6-69af0850357f.jpg"",""img/0874/995f0332-0439-4eb4-add3-957335dbf6d9.jpg""]","",""
"","8237","similarity","172","1368373","0.0-6.0-166.0","1","[""img/0862/f43ceabf-acc1-4107-b857-5d1849808f93.jpg"",""img/0860/17b44a7d-c5ca-479f-9e87-f65a64f5c80e.jpg""]","",""
"","3996","similarity","173","1383092","0.0-6.0-167.0","4","[""img/0766/26d3ae14-8275-4e08-99b2-a6598c193ddf.jpg"",""img/0901/a373612d-67e2-4fec-9764-21d3d6ef6359.jpg""]","",""
"","4778","similarity","174","1388876","0.0-6.0-168.0","5","[""img/0862/ba89835a-408c-480b-8594-ed4ffa97eb5c.jpg"",""img/0862/e697469a-ec19-4414-b972-7b9f3564785b.jpg""]","",""
"","4727","similarity","175","1394608","0.0-6.0-169.0","2","[""img/0894/11674fa4-285d-44e2-939f-2228c6a64080.jpg"",""img/0764/8389e74f-e0e0-435d-945f-da1f4c92ccb6.jpg""]","",""
"","3873","similarity","176","1399485","0.0-6.0-170.0","2","[""img/0874/a3bc679d-619f-4db6-bb68-116dcb757d9c.jpg"",""img/0898/f3a3f225-1248-4ac7-b93b-f0ff28485bf3.jpg""]","",""
"","4124","similarity","177","1404613","0.0-6.0-171.0","5","[""img/0860/702bd09d-df3a-40aa-a267-5f04474305b5.jpg"",""img/0766/79767d11-b612-4e8a-9e4b-a8ac95bb6a54.jpg""]","",""
"","4288","similarity","178","1409905","0.0-6.0-172.0","4","[""img/0898/82231d4c-218b-4d0a-b50d-35a49b524e97.jpg"",""img/0864/9b2490c5-a282-400a-9736-e1a0ecbf1cb7.jpg""]","",""
"","6077","similarity","179","1416987","0.0-6.0-173.0","6","[""img/0881/adc02f34-ce97-4aef-850f-00519df06fd7.jpg"",""img/0764/1def7b22-b054-4ec2-860b-73d25691823b.jpg""]","",""
"","3174","similarity","180","1421167","0.0-6.0-174.0","3","[""img/0898/c3cecf20-f7fd-45fa-97d0-dc0a63e8d6c0.jpg"",""img/0868/179a5502-ab5c-478e-8263-5a1fbcc101d2.jpg""]","",""
"","6087","similarity","181","1428259","0.0-6.0-175.0","7","[""img/0864/5f33e097-23e3-4002-882d-76e8cb15f451.jpg"",""img/0864/65210d57-1153-4657-886a-32e758f49b4a.jpg""]","",""
"","3389","similarity","182","1432654","0.0-6.0-176.0","4","[""img/0899/66ab3178-c3fe-4455-ad17-d5952b08e018.jpg"",""img/0862/47ed5efd-4ec9-4b74-bb4e-a5f5cf0c3e7d.jpg""]","",""
"","3683","similarity","183","1437343","0.0-6.0-177.0","2","[""img/0875/cff79b3a-a797-4393-9757-6275f999ec04.jpg"",""img/0758/a709631e-3705-4725-ac40-f0d916924f08.jpg""]","",""
"","9451","similarity","184","1447799","0.0-6.0-178.0","3","[""img/0866/11a1d141-be5e-443c-98c1-a9d4d9e3dec0.jpg"",""img/0901/d6d15b1c-4a30-4f74-a3fd-d4c8ee4169ca.jpg""]","",""
"","3260","similarity","185","1452063","0.0-6.0-179.0","2","[""img/0769/38a88f69-28fd-4bbd-99f0-f4c02bfd3995.jpg"",""img/0874/767f289c-9814-4496-803f-745cc8913d1f.jpg""]","",""
"","5386","similarity","186","1458453","0.0-6.0-180.0","5","[""img/0875/5a716432-c6ca-4b1c-955a-2b8ac25198ee.jpg"",""img/0881/f4e3e181-b3c9-4af2-a5a4-fc135ab70d2e.jpg""]","",""
"","4351","similarity","187","1463808","0.0-6.0-181.0","7","[""img/0866/a04d37f0-99dd-478a-b6c6-58b215138f84.jpg"",""img/0868/c8ac40c7-6904-4e13-8d61-c75d3052dc4e.jpg""]","",""
"","4396","similarity","188","1469208","0.0-6.0-182.0","4","[""img/0899/93494f3b-d539-4075-b027-d82e344563da.jpg"",""img/0758/7fba58df-2a7a-4b76-8a8f-62739f97f271.jpg""]","",""
"","6288","similarity","189","1476500","0.0-6.0-183.0","3","[""img/0874/adf9a8f1-c40b-402b-b95b-1e85a54a7b62.jpg"",""img/0875/34132396-d896-4c2d-8087-646dd867e769.jpg""]","",""
"","5115","similarity","190","1482620","0.0-6.0-184.0","5","[""img/0904/4b8daf2a-13a9-4ea9-9e0b-b265b6e933e7.jpg"",""img/0862/064818ee-13d5-4618-bb24-21c7368ea278.jpg""]","",""
"","4840","similarity","191","1488464","0.0-6.0-185.0","2","[""img/0902/5b45a7a0-81c8-4a71-aaa2-2ce09adb5a29.jpg"",""img/0766/a754e4b6-5019-4cf4-8f58-34c20547a1f5.jpg""]","",""
"","5233","similarity","192","1494702","0.0-6.0-186.0","3","[""img/0758/eabcd7a8-56ad-4fd2-bc24-90f6b7b33265.jpg"",""img/0769/022c7e3b-c3f2-4119-b4bc-f22fa7cae18c.jpg""]","",""
"","5365","similarity","193","1501072","0.0-6.0-187.0","7","[""img/0881/c843e210-bdfe-4a7c-8bbe-fcea1f90fe1c.jpg"",""img/0881/445edb15-bd7f-4af3-8bd5-c6ad9677bb31.jpg""]","",""
"","4539","similarity","194","1506616","0.0-6.0-188.0","2","[""img/0758/7ffbc76b-1fc1-432c-8f7e-9ec8d1b3f643.jpg"",""img/0866/02f5e6b9-52b7-448c-9708-5b460d0c9a23.jpg""]","",""
"","4444","similarity","195","1512065","0.0-6.0-189.0","4","[""img/0764/cffc80b0-4a90-4acb-a530-6f480f3ca303.jpg"",""img/0898/79233891-305a-4a6a-8ddf-5c8604858203.jpg""]","",""
"","4399","similarity","196","1517470","0.0-6.0-190.0","6","[""img/0903/81368973-de81-46f4-844f-b901f3bfd66d.jpg"",""img/0901/b9141736-3041-4385-a586-b1fe911c76a5.jpg""]","",""
"","5660","similarity","197","1524133","0.0-6.0-191.0","7","[""img/0902/a6fb6dd5-696c-47ec-be7d-d7b88f1544f1.jpg"",""img/0898/224c1572-56b9-4f16-a9e4-6f3bc9c114bd.jpg""]","",""
"","2968","similarity","198","1528106","0.0-6.0-192.0","4","[""img/0864/66091c27-e588-4476-8af9-265dc6be4156.jpg"",""img/0901/a2d7b2f6-396b-4d91-8403-de5361c74af7.jpg""]","",""
"","5526","similarity","199","1534637","0.0-6.0-193.0","6","[""img/0894/7f2f31fd-6618-41c6-b65a-0fd8b2851bc9.jpg"",""img/0881/f7a8cc63-8842-40a4-9ff8-fe530310d62c.jpg""]","",""
"","7007","similarity","200","1542649","0.0-6.0-194.0","7","[""img/0868/5fa7f9d0-f0e5-454c-8224-74d964818f56.jpg"",""img/0868/8b0b8473-e2c0-4331-aa56-c3a5c29369da.jpg""]","",""
"","5345","similarity","201","1549000","0.0-6.0-195.0","6","[""img/0899/fef567a2-c121-4481-9af0-ff108d199bbf.jpg"",""img/0764/cbdc4f20-3a9a-4211-9b40-090699e0abcc.jpg""]","",""
"","4740","similarity","202","1554745","0.0-6.0-196.0","3","[""img/0881/f62bdcd1-a4b7-4d48-83da-d9c9e01c8727.jpg"",""img/0904/2fd488e9-960f-41f7-8a44-33375f7d5051.jpg""]","",""
"","5549","similarity","203","1561299","0.0-6.0-197.0","1","[""img/0864/300bb811-8b3c-4c42-8653-6097c3725197.jpg"",""img/0902/b76efc44-a50f-4dac-b997-ff0222376067.jpg""]","",""
"","5728","similarity","204","1568031","0.0-6.0-198.0","7","[""img/0894/38f5931f-926d-414e-b498-66b188978b7a.jpg"",""img/0904/b5855d6a-7ef9-46ca-9215-6e9fa046e543.jpg""]","",""
"","6255","similarity","205","1575291","0.0-6.0-199.0","7","[""img/0901/33b51a81-06d9-46d9-9d4f-5a2d6d6b8058.jpg"",""img/0901/1e23ffbd-19de-4c4f-aa23-c54aaa3319a3.jpg""]","",""
"","4409","similarity","206","1580705","0.0-6.0-200.0","2","[""img/0894/76c1201f-8524-4865-85e6-dda8cb4ac986.jpg"",""img/0860/31ff6436-98bf-4652-bed2-40f627229568.jpg""]","",""
"","3728","similarity","207","1585439","0.0-6.0-201.0","3","[""img/0898/68476bbb-34a1-42d9-8bc1-deab783d4489.jpg"",""img/0903/31b5a5f4-b695-4af1-bad2-a19650a05498.jpg""]","",""
"","4902","similarity","208","1591346","0.0-6.0-202.0","2","[""img/0864/5f74a653-3bdc-4308-8cca-ac667dc22e1f.jpg"",""img/0894/5f15154e-e72e-4ce5-aafb-bce6f0564006.jpg""]","",""
"","6471","similarity","209","1598822","0.0-6.0-203.0","2","[""img/0874/eba003b4-cdab-4eee-8bc3-f064c7d94165.jpg"",""img/0860/94ef7afc-e0e6-4a15-98c6-0bfac82bc832.jpg""]","",""
"","5390","similarity","210","1605216","0.0-6.0-204.0","4","[""img/0862/f188d4f0-76a4-4102-818c-a209969d73a5.jpg"",""img/0875/99698b4d-b4a1-44bc-8c83-8ea755bbbf61.jpg""]","",""
"","6612","similarity","211","1612832","0.0-6.0-205.0","2","[""img/0867/85a96c62-548f-4994-9553-819e03c3135a.jpg"",""img/0881/1407b85b-a1c6-45b1-9884-3b24203efadb.jpg""]","",""
"","4220","similarity","212","1618059","0.0-6.0-206.0","1","[""img/0901/443f2e59-199b-4f7b-9de9-c44ad97326a5.jpg"",""img/0902/9f543501-3cf1-45a7-a2f1-eeca87cc15b9.jpg""]","",""
"","5209","similarity","213","1624272","0.0-6.0-207.0","3","[""img/0899/f58b8d2f-b19d-4b59-8b94-8834be92e4ba.jpg"",""img/0864/ea327690-500b-4137-bf91-451b309fe6a5.jpg""]","",""
"","3621","similarity","214","1628897","0.0-6.0-208.0","4","[""img/0901/8bb79e82-9c43-4b6f-a655-40655519598b.jpg"",""img/0769/14d393ce-e5be-4ca1-86ce-cc27d4b6074c.jpg""]","",""
"","6212","similarity","215","1646356","0.0-6.0-209.0","3","[""img/0902/7f1dcd35-237a-4995-9e42-7f63f3f434d4.jpg"",""img/0902/31abfa33-7cdb-44ad-968e-9f7b324d577a.jpg""]","",""
"[{""page_index"":0,""viewing_time"":13946}]","13947","instructions","216","1661305","0.0-7.0","","","",""
"","32886","image-multi-choice","217","1695209","0.0-8.0-0.0","","","{""Q0"":""Yellow Warbler""}","Nashville Warbler"
"","34966","image-multi-choice","218","1731188","0.0-8.0-1.0","","","{""Q0"":""Chipping Sparrow""}","Black-and-white Warbler"
"","8422","image-multi-choice","219","1740623","0.0-8.0-2.0","","","{""Q0"":""Chipping Sparrow""}","Townsend's Warbler"
"","18063","image-multi-choice","220","1759699","0.0-8.0-3.0","","","{""Q0"":""American Tree Sparrow""}","Lark Sparrow"
"","19815","image-multi-choice","221","1780525","0.0-8.0-4.0","","","{""Q0"":""Fox Sparrow""}","Yellow Warbler"
"","13895","image-multi-choice","222","1795433","0.0-8.0-5.0","","","{""Q0"":""Townsend's Warbler""}","Orange-crowned Warbler"
"","11200","image-multi-choice","223","1807649","0.0-8.0-6.0","","","{""Q0"":""White-throated Sparrow""}","White-throated Sparrow"
"","16697","image-multi-choice","224","1825361","0.0-8.0-7.0","","","{""Q0"":""Blackburnian Warbler""}","Fox Sparrow"
"","19059","image-multi-choice","225","1845431","0.0-8.0-8.0","","","{""Q0"":""Song Sparrow""}","Song Sparrow"
"","17459","image-multi-choice","226","1863901","0.0-8.0-9.0","","","{""Q0"":""Northern Waterthrush""}","Blackburnian Warbler"
"","12634","image-multi-choice","227","1877549","0.0-8.0-10.0","","","{""Q0"":""Lark Sparrow""}","Vesper Sparrow"
"","33330","image-multi-choice","228","1911890","0.0-8.0-11.0","","","{""Q0"":""White-crowned Sparrow""}","White-crowned Sparrow"
"","16642","image-multi-choice","229","1929544","0.0-8.0-12.0","","","{""Q0"":""Vesper Sparrow""}","American Tree Sparrow"
"","7926","image-multi-choice","230","1938484","0.0-8.0-13.0","","","{""Q0"":""Nashville Warbler""}","Tennessee Warbler"
"","17401","image-multi-choice","231","1956898","0.0-8.0-14.0","","","{""Q0"":""Lark Sparrow""}","Magnolia Warbler"
"","7448","image-multi-choice","232","1965357","0.0-8.0-15.0","","","{""Q0"":""Chipping Sparrow""}","Northern Waterthrush"
"","6229","image-multi-choice","233","1972599","0.0-8.0-16.0","","","{""Q0"":""Fox Sparrow""}","Chipping Sparrow"
"","7123","image-multi-choice","234","1980735","0.0-8.0-17.0","","","{""Q0"":""Swamp Sparrow""}","Swamp Sparrow"
"","9046","image-multi-choice","235","1990793","0.0-8.0-18.0","","","{""Q0"":""Orange-crowned Warbler""}","Lincoln's Sparrow"
"","10023","image-multi-choice","236","2001829","0.0-8.0-19.0","","","{""Q0"":""Lark Sparrow""}","Ovenbird"
