[{"view_history":"[{\"page_index\":0,\"viewing_time\":20845}]","rt":20846,"trial_type":"instructions","trial_index":0,"time_elapsed":20847,"internal_node_id":"0.0-0.0"},{"sim_score":7,"rt":7461,"stimulus":"[\"img/866.jpg\",\"img/868.jpg\"]","trial_type":"similarity_demo","trial_index":1,"time_elapsed":29319,"internal_node_id":"0.0-1.0"},{"view_history":"[{\"page_index\":0,\"viewing_time\":103750}]","rt":103750,"trial_type":"instructions","trial_index":2,"time_elapsed":134071,"internal_node_id":"0.0-2.0"},{"sim_score":1,"rt":3727,"stimulus":"[\"img/766.jpg\",\"img/867.jpg\"]","trial_type":"similarity_demo","trial_index":3,"time_elapsed":138802,"internal_node_id":"0.0-3.0"},{"view_history":"[{\"page_index\":0,\"viewing_time\":9557}]","rt":9558,"trial_type":"instructions","trial_index":4,"time_elapsed":149361,"internal_node_id":"0.0-4.0"},{"view_history":"[{\"page_index\":0,\"viewing_time\":22613}]","rt":22613,"trial_type":"instructions","trial_index":5,"time_elapsed":172975,"internal_node_id":"0.0-5.0"},{"sim_score":2,"rt":5375,"stimulus":"[\"img/0868/6a28c3b0-3d76-498a-9fb7-ddafc665eca8.jpg\",\"img/0901/da4fe30f-d12a-491e-96a2-5ab8ebaadd09.jpg\"]","trial_type":"similarity","trial_index":6,"time_elapsed":179362,"internal_node_id":"0.0-6.0-0.0"},{"sim_score":7,"rt":3850,"stimulus":"[\"img/0769/50985283-d353-4abc-9abe-14a91d56ebe6.jpg\",\"img/0867/a749dddb-69f0-44a6-acdc-2bf295cf6dcc.jpg\"]","trial_type":"similarity","trial_index":7,"time_elapsed":184219,"internal_node_id":"0.0-6.0-1.0"},{"sim_score":1,"rt":5655,"stimulus":"[\"img/0766/ae0fce93-fe8d-4aa1-87ca-4c3e4b889f2f.jpg\",\"img/0898/4184e5a2-84ea-4f36-9b42-ae58646f6f87.jpg\"]","trial_type":"similarity","trial_index":8,"time_elapsed":190882,"internal_node_id":"0.0-6.0-2.0"},{"sim_score":3,"rt":4434,"stimulus":"[\"img/0902/fbef27fa-ac83-4936-ab78-9d1c20a383e1.jpg\",\"img/0881/5fe04dd0-5c74-47b7-99c8-b068db9ca26a.jpg\"]","trial_type":"similarity","trial_index":9,"time_elapsed":196321,"internal_node_id":"0.0-6.0-3.0"},{"sim_score":5,"rt":3907,"stimulus":"[\"img/0894/e5edf723-72a5-4673-8441-6c1734a8929b.jpg\",\"img/0894/1b3888e6-cf36-4c4a-a039-187aa5cb71ac.jpg\"]","trial_type":"similarity","trial_index":10,"time_elapsed":201235,"internal_node_id":"0.0-6.0-4.0"},{"sim_score":6,"rt":3793,"stimulus":"[\"img/0874/ca76a855-4e77-4f2f-872a-0a718153e7ed.jpg\",\"img/0899/ad8268c5-8199-48d0-ad70-c5b6d6c599ec.jpg\"]","trial_type":"similarity","trial_index":11,"time_elapsed":206033,"internal_node_id":"0.0-6.0-5.0"},{"sim_score":7,"rt":3256,"stimulus":"[\"img/0904/56e73f28-7e64-489b-a161-e6b1a063878d.jpg\",\"img/0764/06ea144f-f4f3-4a14-ba47-f20f35c561e0.jpg\"]","trial_type":"similarity","trial_index":12,"time_elapsed":210296,"internal_node_id":"0.0-6.0-6.0"},{"sim_score":6,"rt":4067,"stimulus":"[\"img/0899/4408c14d-c168-4a7d-96f6-bc87bfb58f83.jpg\",\"img/0898/ec565187-2e31-4fdd-9a5c-153d0c789ae0.jpg\"]","trial_type":"similarity","trial_index":13,"time_elapsed":215372,"internal_node_id":"0.0-6.0-7.0"},{"sim_score":7,"rt":3521,"stimulus":"[\"img/0874/3f471690-9788-4d03-90c7-f615aecef149.jpg\",\"img/0903/f45a103c-9bfe-49fd-ad96-bdd8d2589195.jpg\"]","trial_type":"similarity","trial_index":14,"time_elapsed":219900,"internal_node_id":"0.0-6.0-8.0"},{"sim_score":6,"rt":4824,"stimulus":"[\"img/0881/d373cb9f-a719-4549-a2a4-82def79fb2a5.jpg\",\"img/0758/821c68d3-5cb0-4eae-8659-30e6263fca39.jpg\"]","trial_type":"similarity","trial_index":15,"time_elapsed":225730,"internal_node_id":"0.0-6.0-9.0"},{"sim_score":4,"rt":5899,"stimulus":"[\"img/0898/224c1572-56b9-4f16-a9e4-6f3bc9c114bd.jpg\",\"img/0901/233a6948-48eb-4b67-8259-222b916b2322.jpg\"]","trial_type":"similarity","trial_index":16,"time_elapsed":232634,"internal_node_id":"0.0-6.0-10.0"},{"sim_score":2,"rt":3685,"stimulus":"[\"img/0903/f67c4ab9-f8c2-4fcd-848a-a54a7b031002.jpg\",\"img/0769/76eaa4a3-dfe9-4dc1-9efb-caebe86264e1.jpg\"]","trial_type":"similarity","trial_index":17,"time_elapsed":237325,"internal_node_id":"0.0-6.0-11.0"},{"sim_score":5,"rt":3795,"stimulus":"[\"img/0764/50f1b062-d608-4bc0-ab25-b872dcf2ed93.jpg\",\"img/0868/8b0b8473-e2c0-4331-aa56-c3a5c29369da.jpg\"]","trial_type":"similarity","trial_index":18,"time_elapsed":242124,"internal_node_id":"0.0-6.0-12.0"},{"sim_score":2,"rt":3641,"stimulus":"[\"img/0867/2e1a0b58-cdb1-4107-a14e-452530d7b9b0.jpg\",\"img/0903/5ea5bbe0-f238-4724-abe7-9ed8dee8c0ba.jpg\"]","trial_type":"similarity","trial_index":19,"time_elapsed":246771,"internal_node_id":"0.0-6.0-13.0"},{"sim_score":2,"rt":3693,"stimulus":"[\"img/0766/af3be95e-e52e-4fae-899b-0ff02ec340aa.jpg\",\"img/0758/61d64021-9214-4951-bdf8-f871f9827cf9.jpg\"]","trial_type":"similarity","trial_index":20,"time_elapsed":251470,"internal_node_id":"0.0-6.0-14.0"},{"sim_score":6,"rt":3955,"stimulus":"[\"img/0902/ca3160ba-ad5d-459f-a1b6-8b4f3c85ecd5.jpg\",\"img/0860/94ef7afc-e0e6-4a15-98c6-0bfac82bc832.jpg\"]","trial_type":"similarity","trial_index":21,"time_elapsed":256430,"internal_node_id":"0.0-6.0-15.0"},{"sim_score":5,"rt":125525,"stimulus":"[\"img/0769/8c7cf147-1780-4d5c-8ddf-5ea23ff03ac9.jpg\",\"img/0875/42910c99-5463-450a-a0f8-d4d060a11455.jpg\"]","trial_type":"similarity","trial_index":22,"time_elapsed":382961,"internal_node_id":"0.0-6.0-16.0"},{"sim_score":6,"rt":3597,"stimulus":"[\"img/0904/6291eb43-c10c-4810-a36a-101d09868b04.jpg\",\"img/0866/8efcaa46-83ab-4dee-a35f-850402aa21ae.jpg\"]","trial_type":"similarity","trial_index":23,"time_elapsed":387562,"internal_node_id":"0.0-6.0-17.0"},{"sim_score":5,"rt":3062,"stimulus":"[\"img/0875/5a7c4e35-6514-4e12-8879-d16071da4cd6.jpg\",\"img/0875/fb732ab5-013a-4366-9f65-27811ed157e9.jpg\"]","trial_type":"similarity","trial_index":24,"time_elapsed":391630,"internal_node_id":"0.0-6.0-18.0"},{"sim_score":6,"rt":4184,"stimulus":"[\"img/0758/7ee8bc8f-c40b-4b3a-84ec-3e83580622d4.jpg\",\"img/0758/e38fd80d-18d0-42f3-b848-f930788e8bd7.jpg\"]","trial_type":"similarity","trial_index":25,"time_elapsed":396820,"internal_node_id":"0.0-6.0-19.0"},{"sim_score":7,"rt":2603,"stimulus":"[\"img/0902/04a6ad4a-afc6-4871-8225-56b299af7b6b.jpg\",\"img/0874/ca23d307-fc00-4d7d-9106-584c6eb21b4d.jpg\"]","trial_type":"similarity","trial_index":26,"time_elapsed":400430,"internal_node_id":"0.0-6.0-20.0"},{"sim_score":7,"rt":4416,"stimulus":"[\"img/0764/cbdc4f20-3a9a-4211-9b40-090699e0abcc.jpg\",\"img/0769/3c1203c5-2ce7-466e-957a-8d77b5905460.jpg\"]","trial_type":"similarity","trial_index":27,"time_elapsed":405852,"internal_node_id":"0.0-6.0-21.0"},{"sim_score":4,"rt":3990,"stimulus":"[\"img/0901/a6c90438-fa7c-4418-ac7c-16c2e772dd98.jpg\",\"img/0874/8cdb1c07-1c32-46d2-981c-3636560fa6e5.jpg\"]","trial_type":"similarity","trial_index":28,"time_elapsed":410849,"internal_node_id":"0.0-6.0-22.0"},{"sim_score":3,"rt":2891,"stimulus":"[\"img/0875/2e13d160-eea1-416b-aff1-d37ab99ecc1d.jpg\",\"img/0903/8635cf25-2648-4fe9-8c42-79d2598e999c.jpg\"]","trial_type":"similarity","trial_index":29,"time_elapsed":414746,"internal_node_id":"0.0-6.0-23.0"},{"sim_score":5,"rt":4281,"stimulus":"[\"img/0769/4680bcc3-8fbc-4643-8f9a-12aa0e780b64.jpg\",\"img/0881/f7a8cc63-8842-40a4-9ff8-fe530310d62c.jpg\"]","trial_type":"similarity","trial_index":30,"time_elapsed":420031,"internal_node_id":"0.0-6.0-24.0"},{"sim_score":6,"rt":4340,"stimulus":"[\"img/0867/26611f4e-d694-4460-b7e2-43c62753ddc3.jpg\",\"img/0904/9dd5708f-3f8b-46a9-b49f-2f2fab87b357.jpg\"]","trial_type":"similarity","trial_index":31,"time_elapsed":425378,"internal_node_id":"0.0-6.0-25.0"},{"sim_score":7,"rt":5173,"stimulus":"[\"img/0860/8a92e21b-6a32-4e4a-a445-2d5a487ed0a4.jpg\",\"img/0881/f62bdcd1-a4b7-4d48-83da-d9c9e01c8727.jpg\"]","trial_type":"similarity","trial_index":32,"time_elapsed":431555,"internal_node_id":"0.0-6.0-26.0"},{"sim_score":5,"rt":3635,"stimulus":"[\"img/0866/02f5e6b9-52b7-448c-9708-5b460d0c9a23.jpg\",\"img/0866/23a224f3-2012-4fc8-8e0f-3c36f8de27fd.jpg\"]","trial_type":"similarity","trial_index":33,"time_elapsed":436195,"internal_node_id":"0.0-6.0-27.0"},{"sim_score":5,"rt":5392,"stimulus":"[\"img/0764/e30dba15-e68a-4659-89db-e1654b52fe02.jpg\",\"img/0862/064818ee-13d5-4618-bb24-21c7368ea278.jpg\"]","trial_type":"similarity","trial_index":34,"time_elapsed":442592,"internal_node_id":"0.0-6.0-28.0"},{"sim_score":7,"rt":3041,"stimulus":"[\"img/0904/63dd06dd-dccb-47ba-9740-eb33239e18a7.jpg\",\"img/0758/335851a0-a55b-46d8-ab05-8463eda48349.jpg\"]","trial_type":"similarity","trial_index":35,"time_elapsed":446640,"internal_node_id":"0.0-6.0-29.0"},{"sim_score":5,"rt":3769,"stimulus":"[\"img/0894/7fb082e0-ce79-485c-9109-04367fb32275.jpg\",\"img/0899/4f7bc593-8ddd-4da3-a0b9-84da730d3370.jpg\"]","trial_type":"similarity","trial_index":36,"time_elapsed":451413,"internal_node_id":"0.0-6.0-30.0"},{"sim_score":7,"rt":3039,"stimulus":"[\"img/0860/4f695df5-afac-4da7-9875-fee39b0b24ad.jpg\",\"img/0904/2c98dc56-88d1-4fb5-a999-b6a7861f65f0.jpg\"]","trial_type":"similarity","trial_index":37,"time_elapsed":455456,"internal_node_id":"0.0-6.0-31.0"},{"sim_score":5,"rt":3373,"stimulus":"[\"img/0874/a3bc679d-619f-4db6-bb68-116dcb757d9c.jpg\",\"img/0881/445edb15-bd7f-4af3-8bd5-c6ad9677bb31.jpg\"]","trial_type":"similarity","trial_index":38,"time_elapsed":459835,"internal_node_id":"0.0-6.0-32.0"},{"sim_score":1,"rt":3644,"stimulus":"[\"img/0881/4bd34581-94d8-4e88-8c89-5cef864ca3be.jpg\",\"img/0899/fef567a2-c121-4481-9af0-ff108d199bbf.jpg\"]","trial_type":"similarity","trial_index":39,"time_elapsed":464485,"internal_node_id":"0.0-6.0-33.0"},{"sim_score":1,"rt":2849,"stimulus":"[\"img/0866/be24ab58-230e-4db8-9f45-ff04c9aec6bb.jpg\",\"img/0862/a0a3a7ba-7798-46a3-b4ca-05e1f6e581d0.jpg\"]","trial_type":"similarity","trial_index":40,"time_elapsed":468339,"internal_node_id":"0.0-6.0-34.0"},{"sim_score":3,"rt":3222,"stimulus":"[\"img/0868/15dd6fd7-791e-4b53-b203-195d617521a4.jpg\",\"img/0894/b2d2f66e-e480-46da-a02a-6d0c6b285d78.jpg\"]","trial_type":"similarity","trial_index":41,"time_elapsed":472567,"internal_node_id":"0.0-6.0-35.0"},{"sim_score":2,"rt":3473,"stimulus":"[\"img/0860/5383b320-1518-4095-a58e-5cc1ae30b64c.jpg\",\"img/0860/fd4662f9-4c03-4d79-8593-06735e55a64b.jpg\"]","trial_type":"similarity","trial_index":42,"time_elapsed":477047,"internal_node_id":"0.0-6.0-36.0"},{"sim_score":2,"rt":4074,"stimulus":"[\"img/0862/ad593cc7-cabe-4bb7-8e14-8a447a0717b4.jpg\",\"img/0864/1ebbc554-99fa-49f9-8799-317375a79820.jpg\"]","trial_type":"similarity","trial_index":43,"time_elapsed":482124,"internal_node_id":"0.0-6.0-37.0"},{"sim_score":2,"rt":3412,"stimulus":"[\"img/0766/d3bab2fc-ddcc-40a0-bb72-c0d0ebe19978.jpg\",\"img/0866/a15b02be-11bb-43e3-b0e0-ecc3bd7dfc49.jpg\"]","trial_type":"similarity","trial_index":44,"time_elapsed":486541,"internal_node_id":"0.0-6.0-38.0"},{"sim_score":5,"rt":4363,"stimulus":"[\"img/0875/03c3c331-738b-4446-af92-3d7386b08c2e.jpg\",\"img/0898/79233891-305a-4a6a-8ddf-5c8604858203.jpg\"]","trial_type":"similarity","trial_index":45,"time_elapsed":491909,"internal_node_id":"0.0-6.0-39.0"},{"sim_score":5,"rt":4484,"stimulus":"[\"img/0766/ea09dd5a-d24d-4e97-a099-7da3db1baef1.jpg\",\"img/0769/db94b61b-a5a7-4861-9d32-7b02ad194fb0.jpg\"]","trial_type":"similarity","trial_index":46,"time_elapsed":497400,"internal_node_id":"0.0-6.0-40.0"},{"sim_score":5,"rt":3939,"stimulus":"[\"img/0874/93d1f8dc-acf2-4f03-bd8d-8ec35df276ed.jpg\",\"img/0764/f2f23359-8e82-41d3-8900-5b9f4433991d.jpg\"]","trial_type":"similarity","trial_index":47,"time_elapsed":517678,"internal_node_id":"0.0-6.0-41.0"},{"sim_score":5,"rt":3794,"stimulus":"[\"img/0868/3a62db2d-97e9-44a3-b8e3-a48c6f0e423b.jpg\",\"img/0902/418b716e-63e5-4c77-93e9-95b1f5a3ddf0.jpg\"]","trial_type":"similarity","trial_index":48,"time_elapsed":522478,"internal_node_id":"0.0-6.0-42.0"},{"sim_score":1,"rt":2782,"stimulus":"[\"img/0875/a4935837-7d3c-4df6-88c1-36a94d4991ca.jpg\",\"img/0899/fd9efb43-701f-4cd6-baaa-4c38315f4bdc.jpg\"]","trial_type":"similarity","trial_index":49,"time_elapsed":526265,"internal_node_id":"0.0-6.0-43.0"},{"sim_score":1,"rt":3237,"stimulus":"[\"img/0866/11a1d141-be5e-443c-98c1-a9d4d9e3dec0.jpg\",\"img/0860/f44ba3fb-03a2-42f0-8509-2c1ded493086.jpg\"]","trial_type":"similarity","trial_index":50,"time_elapsed":530506,"internal_node_id":"0.0-6.0-44.0"},{"sim_score":1,"rt":4020,"stimulus":"[\"img/0766/d8221e53-2300-4d99-ae1b-0bfb0eabe579.jpg\",\"img/0903/2c7b4aed-6038-4aac-958a-e3e58341c313.jpg\"]","trial_type":"similarity","trial_index":51,"time_elapsed":535531,"internal_node_id":"0.0-6.0-45.0"},{"sim_score":6,"rt":3128,"stimulus":"[\"img/0901/4f9cffe0-c0be-4d7f-bacd-9d51efd19b4a.jpg\",\"img/0904/24fc38fe-842c-4831-ad8a-b1de5c25c0a8.jpg\"]","trial_type":"similarity","trial_index":52,"time_elapsed":539663,"internal_node_id":"0.0-6.0-46.0"},{"sim_score":7,"rt":4594,"stimulus":"[\"img/0758/3ddd05d3-557e-4ee7-8b78-9d2d681d8ae2.jpg\",\"img/0902/af40b98b-3d23-4d95-b401-49ba5783ce39.jpg\"]","trial_type":"similarity","trial_index":53,"time_elapsed":545263,"internal_node_id":"0.0-6.0-47.0"},{"sim_score":7,"rt":3257,"stimulus":"[\"img/0764/d0bef2e0-e16b-4c82-9451-c1d16265eb67.jpg\",\"img/0764/b887d7c6-aa81-4637-af8e-05135757ac59.jpg\"]","trial_type":"similarity","trial_index":54,"time_elapsed":549526,"internal_node_id":"0.0-6.0-48.0"},{"sim_score":2,"rt":3054,"stimulus":"[\"img/0866/bf14b5bd-fb55-47db-86b9-4f8aeb9a6dad.jpg\",\"img/0902/e5a46bda-30d1-41ca-b36d-b8529b5a63d1.jpg\"]","trial_type":"similarity","trial_index":55,"time_elapsed":553585,"internal_node_id":"0.0-6.0-49.0"},{"sim_score":5,"rt":3559,"stimulus":"[\"img/0764/8389e74f-e0e0-435d-945f-da1f4c92ccb6.jpg\",\"img/0758/d41c06bf-ebaf-454b-91c6-1a17f917b659.jpg\"]","trial_type":"similarity","trial_index":56,"time_elapsed":558148,"internal_node_id":"0.0-6.0-50.0"},{"sim_score":5,"rt":3289,"stimulus":"[\"img/0898/993d8f2d-bef7-4251-a193-0f93a32b7763.jpg\",\"img/0894/1a010553-d598-4b06-a772-81f1e7b3addb.jpg\"]","trial_type":"similarity","trial_index":57,"time_elapsed":562442,"internal_node_id":"0.0-6.0-51.0"},{"sim_score":4,"rt":5783,"stimulus":"[\"img/0875/90da8d75-108a-44ad-b999-e21fee3860d3.jpg\",\"img/0866/93a27239-8317-4e08-98ca-d8b1ff298e07.jpg\"]","trial_type":"similarity","trial_index":58,"time_elapsed":569230,"internal_node_id":"0.0-6.0-52.0"},{"sim_score":2,"rt":4547,"stimulus":"[\"img/0904/a8c3c7d2-9bcf-4347-9e03-8203adfc1fc5.jpg\",\"img/0904/2fd488e9-960f-41f7-8a44-33375f7d5051.jpg\"]","trial_type":"similarity","trial_index":59,"time_elapsed":574784,"internal_node_id":"0.0-6.0-53.0"},{"sim_score":6,"rt":5046,"stimulus":"[\"img/0769/11518cb3-13ea-4dd0-890c-30cfab728ade.jpg\",\"img/0769/47700831-0ca2-4fdd-a498-a3bc5a528f43.jpg\"]","trial_type":"similarity","trial_index":60,"time_elapsed":580836,"internal_node_id":"0.0-6.0-54.0"},{"sim_score":2,"rt":4963,"stimulus":"[\"img/0898/01bfe666-3510-4fc7-964f-d00d28732dc8.jpg\",\"img/0758/eabcd7a8-56ad-4fd2-bc24-90f6b7b33265.jpg\"]","trial_type":"similarity","trial_index":61,"time_elapsed":586804,"internal_node_id":"0.0-6.0-55.0"},{"sim_score":1,"rt":4067,"stimulus":"[\"img/0769/4a1d0b52-3fe8-40fb-bb1c-c814fe49a68c.jpg\",\"img/0902/95a36b6b-9601-4fa5-8fd9-606ea62f9425.jpg\"]","trial_type":"similarity","trial_index":62,"time_elapsed":591877,"internal_node_id":"0.0-6.0-56.0"},{"sim_score":7,"rt":6014,"stimulus":"[\"img/0864/300bb811-8b3c-4c42-8653-6097c3725197.jpg\",\"img/0881/405484ae-0d00-4b05-bc57-6420a36adfac.jpg\"]","trial_type":"similarity","trial_index":63,"time_elapsed":598895,"internal_node_id":"0.0-6.0-57.0"},{"sim_score":1,"rt":3272,"stimulus":"[\"img/0758/7fba58df-2a7a-4b76-8a8f-62739f97f271.jpg\",\"img/0868/293079b8-7e0c-4afd-a390-1e5d35fe3ded.jpg\"]","trial_type":"similarity","trial_index":64,"time_elapsed":603171,"internal_node_id":"0.0-6.0-58.0"},{"sim_score":7,"rt":3717,"stimulus":"[\"img/0862/fb26cb07-d5a9-4653-813c-f41609f26cd5.jpg\",\"img/0769/0fe124d3-bcad-45f6-b64d-8f6eb8ee5251.jpg\"]","trial_type":"similarity","trial_index":65,"time_elapsed":607895,"internal_node_id":"0.0-6.0-59.0"},{"sim_score":5,"rt":3244,"stimulus":"[\"img/0764/4952d0a0-c9be-471a-8ec7-94a37bf4051d.jpg\",\"img/0903/5995f4a8-fa82-46f8-8760-fd7800a5ca34.jpg\"]","trial_type":"similarity","trial_index":66,"time_elapsed":612144,"internal_node_id":"0.0-6.0-60.0"},{"sim_score":6,"rt":3258,"stimulus":"[\"img/0899/d8f2dd94-570e-4e8c-a087-d96090fb9e8c.jpg\",\"img/0899/8de08897-b430-42fe-9d42-840670b80f94.jpg\"]","trial_type":"similarity","trial_index":67,"time_elapsed":616407,"internal_node_id":"0.0-6.0-61.0"},{"sim_score":2,"rt":3786,"stimulus":"[\"img/0860/15b24a61-25be-4356-9eac-5ce95d0cb4a4.jpg\",\"img/0875/527ced51-8e53-4aab-ab05-86df219104c0.jpg\"]","trial_type":"similarity","trial_index":68,"time_elapsed":621197,"internal_node_id":"0.0-6.0-62.0"},{"sim_score":1,"rt":2786,"stimulus":"[\"img/0868/0d3abd3a-b6c3-4584-a9f7-e2da63748b3d.jpg\",\"img/0874/7e4f2150-3b59-4a36-b5da-a4e0ba410531.jpg\"]","trial_type":"similarity","trial_index":69,"time_elapsed":624988,"internal_node_id":"0.0-6.0-63.0"},{"sim_score":5,"rt":3630,"stimulus":"[\"img/0758/d540bee6-b460-4c32-ac57-bc282742d7d4.jpg\",\"img/0862/fad1d7c1-8187-43c3-942a-0fc12183e48e.jpg\"]","trial_type":"similarity","trial_index":70,"time_elapsed":629624,"internal_node_id":"0.0-6.0-64.0"},{"sim_score":7,"rt":3461,"stimulus":"[\"img/0904/1d10df11-b5c8-4370-9a6b-097a7f965895.jpg\",\"img/0898/a8f16b02-e19f-423b-86c3-a36562ae1f9b.jpg\"]","trial_type":"similarity","trial_index":71,"time_elapsed":634090,"internal_node_id":"0.0-6.0-65.0"},{"sim_score":3,"rt":4558,"stimulus":"[\"img/0881/566f45f8-5fed-4479-a60f-26377e60a62d.jpg\",\"img/0866/620cd1aa-0800-4414-8f6e-90342e7a99ad.jpg\"]","trial_type":"similarity","trial_index":72,"time_elapsed":639654,"internal_node_id":"0.0-6.0-66.0"},{"sim_score":2,"rt":3958,"stimulus":"[\"img/0867/50a1b60e-3a29-44bf-b606-d4bd3746fea9.jpg\",\"img/0898/e167334e-cc1d-4986-b3b1-c7bc7da64baa.jpg\"]","trial_type":"similarity","trial_index":73,"time_elapsed":644617,"internal_node_id":"0.0-6.0-67.0"},{"sim_score":1,"rt":3154,"stimulus":"[\"img/0902/4e0baa32-988e-46f6-989d-f669225ab645.jpg\",\"img/0764/d7f3ac54-318a-4dac-a06b-62bed34d01a4.jpg\"]","trial_type":"similarity","trial_index":74,"time_elapsed":648776,"internal_node_id":"0.0-6.0-68.0"},{"sim_score":3,"rt":4662,"stimulus":"[\"img/0875/5a1e5100-0d94-4fec-bbe9-ca9894d2cf8e.jpg\",\"img/0867/aa05d113-fc19-4756-a8eb-7878f580bc92.jpg\"]","trial_type":"similarity","trial_index":75,"time_elapsed":654443,"internal_node_id":"0.0-6.0-69.0"},{"sim_score":5,"rt":4044,"stimulus":"[\"img/0766/2e1cf445-9aef-40e7-92f4-5facf48b64c5.jpg\",\"img/0764/5c8fbafc-e62e-43ed-9b37-f73e8e45147d.jpg\"]","trial_type":"similarity","trial_index":76,"time_elapsed":659493,"internal_node_id":"0.0-6.0-70.0"},{"sim_score":1,"rt":3236,"stimulus":"[\"img/0894/2217bdcd-23a7-42d3-823b-23f2488d7e87.jpg\",\"img/0867/179ab87a-8eac-4c52-a41f-2e48e3120f09.jpg\"]","trial_type":"similarity","trial_index":77,"time_elapsed":663734,"internal_node_id":"0.0-6.0-71.0"},{"sim_score":1,"rt":3158,"stimulus":"[\"img/0875/3ecb367d-e9eb-4826-8aaa-7aa72fb98019.jpg\",\"img/0764/fb92924f-5cfe-4b89-b130-0cce8cc5636b.jpg\"]","trial_type":"similarity","trial_index":78,"time_elapsed":667896,"internal_node_id":"0.0-6.0-72.0"},{"sim_score":5,"rt":4081,"stimulus":"[\"img/0867/5e07b34d-b40f-4b1c-ac10-49975bace45f.jpg\",\"img/0866/d493a2c8-66eb-44b4-be02-2f327b700b7c.jpg\"]","trial_type":"similarity","trial_index":79,"time_elapsed":672981,"internal_node_id":"0.0-6.0-73.0"},{"sim_score":2,"rt":4725,"stimulus":"[\"img/0903/24477210-856c-4550-9de0-9f85a32762eb.jpg\",\"img/0758/6e95579b-5166-487c-b8cb-e417c6a218e3.jpg\"]","trial_type":"similarity","trial_index":80,"time_elapsed":678712,"internal_node_id":"0.0-6.0-74.0"},{"sim_score":1,"rt":3520,"stimulus":"[\"img/0766/989c5c7f-1aff-4442-ac63-9d46acf4a891.jpg\",\"img/0868/5fa7f9d0-f0e5-454c-8224-74d964818f56.jpg\"]","trial_type":"similarity","trial_index":81,"time_elapsed":683238,"internal_node_id":"0.0-6.0-75.0"},{"sim_score":5,"rt":3741,"stimulus":"[\"img/0874/1016b306-087c-4afc-aa08-fa527b28dc76.jpg\",\"img/0766/fd74fdbb-ea40-4f3a-a091-38d08dfd636e.jpg\"]","trial_type":"similarity","trial_index":82,"time_elapsed":687985,"internal_node_id":"0.0-6.0-76.0"},{"sim_score":2,"rt":4926,"stimulus":"[\"img/0881/344de456-b358-4887-bd0e-e4c3278af887.jpg\",\"img/0868/1a62b2b2-18f5-466e-b564-5176a57c565e.jpg\"]","trial_type":"similarity","trial_index":83,"time_elapsed":693916,"internal_node_id":"0.0-6.0-77.0"},{"sim_score":1,"rt":3877,"stimulus":"[\"img/0758/6cd8c362-ae2a-41eb-80a3-3a4f7ace1530.jpg\",\"img/0901/443f2e59-199b-4f7b-9de9-c44ad97326a5.jpg\"]","trial_type":"similarity","trial_index":84,"time_elapsed":698798,"internal_node_id":"0.0-6.0-78.0"},{"sim_score":3,"rt":3594,"stimulus":"[\"img/0881/62a64f90-7a72-4aee-a1a1-0c548ac9bdda.jpg\",\"img/0898/81b08535-2020-4c15-9ce4-2f1e460755ae.jpg\"]","trial_type":"similarity","trial_index":85,"time_elapsed":703398,"internal_node_id":"0.0-6.0-79.0"},{"sim_score":2,"rt":4475,"stimulus":"[\"img/0867/c66898ba-b71b-4d50-84f9-f7f84853a98d.jpg\",\"img/0758/9fb5b2fe-3f00-4fe6-973c-1ce10d5f4cd5.jpg\"]","trial_type":"similarity","trial_index":86,"time_elapsed":708879,"internal_node_id":"0.0-6.0-80.0"},{"sim_score":2,"rt":3718,"stimulus":"[\"img/0769/c7cfacc3-7f07-46ff-9f5d-8073f4c4679b.jpg\",\"img/0899/51a7a498-98c7-42d7-bca8-bc2d8f0b5831.jpg\"]","trial_type":"similarity","trial_index":87,"time_elapsed":713602,"internal_node_id":"0.0-6.0-81.0"},{"sim_score":7,"rt":3591,"stimulus":"[\"img/0903/6b5dcc60-3ad3-4962-93e5-e6cf768477af.jpg\",\"img/0903/470acfd5-5571-4a7b-b3a4-28d87e098138.jpg\"]","trial_type":"similarity","trial_index":88,"time_elapsed":718200,"internal_node_id":"0.0-6.0-82.0"},{"sim_score":2,"rt":3463,"stimulus":"[\"img/0867/98d8cd96-1476-4fe0-a3a3-04f875500a1b.jpg\",\"img/0766/09f646c8-a69e-4ed3-879c-8d29b04ad7f9.jpg\"]","trial_type":"similarity","trial_index":89,"time_elapsed":776879,"internal_node_id":"0.0-6.0-83.0"},{"sim_score":3,"rt":3707,"stimulus":"[\"img/0902/c018bd7a-d91a-4192-aea4-7259cfcdb6c4.jpg\",\"img/0867/6e19c858-b606-45b2-a4c6-910a73f1d82c.jpg\"]","trial_type":"similarity","trial_index":90,"time_elapsed":781588,"internal_node_id":"0.0-6.0-84.0"},{"sim_score":3,"rt":3393,"stimulus":"[\"img/0901/b9141736-3041-4385-a586-b1fe911c76a5.jpg\",\"img/0875/f87b67d7-c33e-40d1-b281-248c4be1cb6e.jpg\"]","trial_type":"similarity","trial_index":91,"time_elapsed":785987,"internal_node_id":"0.0-6.0-85.0"},{"sim_score":1,"rt":4974,"stimulus":"[\"img/0764/62fafeea-6274-48ce-976f-35d3d3484c65.jpg\",\"img/0866/6f2a90d7-14f1-4f1b-bd64-fc0af6b9fe44.jpg\"]","trial_type":"similarity","trial_index":92,"time_elapsed":791967,"internal_node_id":"0.0-6.0-86.0"},{"sim_score":1,"rt":3432,"stimulus":"[\"img/0901/77087ed2-6e12-4329-b2a5-605bca6d972d.jpg\",\"img/0894/bd34223a-2f66-4e16-9d18-193a746b69ff.jpg\"]","trial_type":"similarity","trial_index":93,"time_elapsed":796404,"internal_node_id":"0.0-6.0-87.0"},{"sim_score":6,"rt":4143,"stimulus":"[\"img/0898/b2732712-71c2-45d8-834f-2b2ed5504910.jpg\",\"img/0769/38a88f69-28fd-4bbd-99f0-f4c02bfd3995.jpg\"]","trial_type":"similarity","trial_index":94,"time_elapsed":801551,"internal_node_id":"0.0-6.0-88.0"},{"sim_score":7,"rt":3749,"stimulus":"[\"img/0769/ecda2fb3-556b-43ba-8a67-e87dd75ff2b4.jpg\",\"img/0894/3664e04c-c6d3-4c9b-afb6-25d89974b174.jpg\"]","trial_type":"similarity","trial_index":95,"time_elapsed":806304,"internal_node_id":"0.0-6.0-89.0"},{"sim_score":6,"rt":4549,"stimulus":"[\"img/0862/f43ceabf-acc1-4107-b857-5d1849808f93.jpg\",\"img/0874/adf9a8f1-c40b-402b-b95b-1e85a54a7b62.jpg\"]","trial_type":"similarity","trial_index":96,"time_elapsed":811856,"internal_node_id":"0.0-6.0-90.0"},{"sim_score":1,"rt":3258,"stimulus":"[\"img/0894/7dd6ff43-f8fc-408a-8a41-a2b261871820.jpg\",\"img/0766/d50d734f-285c-4840-bc7a-c8dd4aff391e.jpg\"]","trial_type":"similarity","trial_index":97,"time_elapsed":816119,"internal_node_id":"0.0-6.0-91.0"},{"sim_score":1,"rt":2828,"stimulus":"[\"img/0874/995f0332-0439-4eb4-add3-957335dbf6d9.jpg\",\"img/0867/c71dc569-f49c-4397-8381-68b8d726736d.jpg\"]","trial_type":"similarity","trial_index":98,"time_elapsed":819951,"internal_node_id":"0.0-6.0-92.0"},{"sim_score":1,"rt":2663,"stimulus":"[\"img/0899/0e1d936a-dbe2-4afc-9f19-7b7a1ae6c9ed.jpg\",\"img/0868/77091fc7-a590-4ebb-b915-fdb2483a2399.jpg\"]","trial_type":"similarity","trial_index":99,"time_elapsed":823620,"internal_node_id":"0.0-6.0-93.0"},{"sim_score":3,"rt":3394,"stimulus":"[\"img/0903/f1fa0f8d-e62b-4b4a-a174-31a0fabfe61b.jpg\",\"img/0862/5d887e9f-89e2-4ebc-80a0-6d46fe6480db.jpg\"]","trial_type":"similarity","trial_index":100,"time_elapsed":828020,"internal_node_id":"0.0-6.0-94.0"},{"sim_score":5,"rt":6043,"stimulus":"[\"img/0899/56a605c3-d0a2-4215-89e1-779279d85a7c.jpg\",\"img/0766/d14acac4-7db1-4b07-8f8f-302437326fc0.jpg\"]","trial_type":"similarity","trial_index":101,"time_elapsed":835069,"internal_node_id":"0.0-6.0-95.0"},{"sim_score":7,"rt":3123,"stimulus":"[\"img/0867/f8488a47-94ee-4166-952c-44e16cf172f6.jpg\",\"img/0868/e0aff734-077f-40dd-9781-74821abd3621.jpg\"]","trial_type":"similarity","trial_index":102,"time_elapsed":839196,"internal_node_id":"0.0-6.0-96.0"},{"sim_score":6,"rt":4108,"stimulus":"[\"img/0862/e697469a-ec19-4414-b972-7b9f3564785b.jpg\",\"img/0901/d4d09bf5-093e-4050-838e-7c738be8e63c.jpg\"]","trial_type":"similarity","trial_index":103,"time_elapsed":844309,"internal_node_id":"0.0-6.0-97.0"},{"sim_score":1,"rt":2956,"stimulus":"[\"img/0875/d59ff733-eaff-4ee2-9443-06954dd0bcb6.jpg\",\"img/0766/717fd72f-a281-499b-a5ba-5e2ecc4d4866.jpg\"]","trial_type":"similarity","trial_index":104,"time_elapsed":848270,"internal_node_id":"0.0-6.0-98.0"},{"sim_score":6,"rt":3995,"stimulus":"[\"img/0758/a709631e-3705-4725-ac40-f0d916924f08.jpg\",\"img/0874/c0378dac-9370-439a-8b79-db27c96fb390.jpg\"]","trial_type":"similarity","trial_index":105,"time_elapsed":853269,"internal_node_id":"0.0-6.0-99.0"},{"sim_score":2,"rt":3044,"stimulus":"[\"img/0904/25365108-e038-4021-aac9-797f2063b337.jpg\",\"img/0868/83b4350a-3b70-4cea-b7f5-b5b56f3050a8.jpg\"]","trial_type":"similarity","trial_index":106,"time_elapsed":857318,"internal_node_id":"0.0-6.0-100.0"},{"sim_score":2,"rt":4585,"stimulus":"[\"img/0903/71dbc325-b588-4297-a5cf-7f268a722ad9.jpg\",\"img/0866/f756f7d1-9ad8-4a34-9ef6-7a443d705bfe.jpg\"]","trial_type":"similarity","trial_index":107,"time_elapsed":862908,"internal_node_id":"0.0-6.0-101.0"},{"sim_score":3,"rt":3846,"stimulus":"[\"img/0868/c8ac40c7-6904-4e13-8d61-c75d3052dc4e.jpg\",\"img/0769/662ab839-88d1-4ebf-af05-9b2980cad943.jpg\"]","trial_type":"similarity","trial_index":108,"time_elapsed":867759,"internal_node_id":"0.0-6.0-102.0"},{"sim_score":1,"rt":3538,"stimulus":"[\"img/0902/b03129ba-b087-4558-af37-e8399d6217d6.jpg\",\"img/0899/7b7380d5-d2be-44e5-a09a-c1756f87ef71.jpg\"]","trial_type":"similarity","trial_index":109,"time_elapsed":872301,"internal_node_id":"0.0-6.0-103.0"},{"sim_score":2,"rt":4543,"stimulus":"[\"img/0868/d6d1f30d-4323-435a-b194-7892521bc57e.jpg\",\"img/0862/d0ca4c78-fc35-46ed-bdcc-8e124283c53e.jpg\"]","trial_type":"similarity","trial_index":110,"time_elapsed":877849,"internal_node_id":"0.0-6.0-104.0"},{"sim_score":1,"rt":3958,"stimulus":"[\"img/0903/d987e220-f3e6-4b6d-a270-fe6757041f6d.jpg\",\"img/0894/6b2e9509-8699-42b7-9582-7741df0ba2d7.jpg\"]","trial_type":"similarity","trial_index":111,"time_elapsed":882810,"internal_node_id":"0.0-6.0-105.0"},{"sim_score":3,"rt":3961,"stimulus":"[\"img/0864/5f74a653-3bdc-4308-8cca-ac667dc22e1f.jpg\",\"img/0874/767f289c-9814-4496-803f-745cc8913d1f.jpg\"]","trial_type":"similarity","trial_index":112,"time_elapsed":887776,"internal_node_id":"0.0-6.0-106.0"},{"sim_score":3,"rt":3996,"stimulus":"[\"img/0862/92fcd8a4-8193-4a6a-ae09-dd4a6338b0df.jpg\",\"img/0902/97022122-01e4-46c3-a34f-c6260ad28428.jpg\"]","trial_type":"similarity","trial_index":113,"time_elapsed":892779,"internal_node_id":"0.0-6.0-107.0"},{"sim_score":7,"rt":4476,"stimulus":"[\"img/0904/696ebb60-8891-417a-91fd-c53218907a95.jpg\",\"img/0903/3e9ee8a5-eb66-47f5-8973-8a5af1ddc87e.jpg\"]","trial_type":"similarity","trial_index":114,"time_elapsed":898260,"internal_node_id":"0.0-6.0-108.0"},{"sim_score":5,"rt":3535,"stimulus":"[\"img/0764/ba0c0955-acbb-457d-b1c2-f006b88121d5.jpg\",\"img/0864/f92649a2-0590-4d31-9a7a-1bfb81666a2d.jpg\"]","trial_type":"similarity","trial_index":115,"time_elapsed":902799,"internal_node_id":"0.0-6.0-109.0"},{"sim_score":2,"rt":3391,"stimulus":"[\"img/0866/945c6710-d15b-4a5b-a8f6-69af0850357f.jpg\",\"img/0894/767a0eec-1064-46b1-b1aa-dfa02b0cd74e.jpg\"]","trial_type":"similarity","trial_index":116,"time_elapsed":907194,"internal_node_id":"0.0-6.0-110.0"},{"sim_score":1,"rt":2941,"stimulus":"[\"img/0899/9de5e857-aa9a-4e0c-8ba2-46d79bd069a4.jpg\",\"img/0903/14f179a2-8786-48a2-8377-88d1d404341b.jpg\"]","trial_type":"similarity","trial_index":117,"time_elapsed":911139,"internal_node_id":"0.0-6.0-111.0"},{"sim_score":5,"rt":4860,"stimulus":"[\"img/0902/bd89a85f-3853-4786-acd6-98818ee29f1c.jpg\",\"img/0904/96e503ea-6630-4996-85f2-0237688ce441.jpg\"]","trial_type":"similarity","trial_index":118,"time_elapsed":917005,"internal_node_id":"0.0-6.0-112.0"},{"sim_score":3,"rt":5597,"stimulus":"[\"img/0864/c3b63e8f-ea39-4d70-a1f2-b3fe4be8eb75.jpg\",\"img/0860/9593362c-9fe5-4d12-9735-6000a11f6aa5.jpg\"]","trial_type":"similarity","trial_index":119,"time_elapsed":923608,"internal_node_id":"0.0-6.0-113.0"},{"sim_score":1,"rt":3408,"stimulus":"[\"img/0860/c7047cd2-7cc1-41b6-8a34-c0986774975f.jpg\",\"img/0899/00715b3f-851b-420b-a26b-d7f79f7759a9.jpg\"]","trial_type":"similarity","trial_index":120,"time_elapsed":928021,"internal_node_id":"0.0-6.0-114.0"},{"sim_score":4,"rt":3498,"stimulus":"[\"img/0881/2a8413be-fec2-4de6-88ad-614dd4cccc9d.jpg\",\"img/0903/150cf64c-0bd2-4674-abbb-a1387cf1f3e9.jpg\"]","trial_type":"similarity","trial_index":121,"time_elapsed":932526,"internal_node_id":"0.0-6.0-115.0"},{"sim_score":2,"rt":4313,"stimulus":"[\"img/0894/6aa5545f-fa7d-4286-bbaa-aaf34dc7ec96.jpg\",\"img/0874/2c9464dd-8a23-4baa-ac94-1ba3af5c15cc.jpg\"]","trial_type":"similarity","trial_index":122,"time_elapsed":937844,"internal_node_id":"0.0-6.0-116.0"},{"sim_score":3,"rt":4325,"stimulus":"[\"img/0881/0c7068da-d0d9-4103-bda1-74ef7a2b32c3.jpg\",\"img/0862/f23038d4-c366-4f70-979f-66b62362efa4.jpg\"]","trial_type":"similarity","trial_index":123,"time_elapsed":943175,"internal_node_id":"0.0-6.0-117.0"},{"sim_score":2,"rt":4369,"stimulus":"[\"img/0868/4e626425-63c8-484a-8a1d-e66ee4e0bef8.jpg\",\"img/0875/ebf7653f-ff45-4e9f-af58-2c042ab3cd2b.jpg\"]","trial_type":"similarity","trial_index":124,"time_elapsed":948548,"internal_node_id":"0.0-6.0-118.0"},{"sim_score":5,"rt":4625,"stimulus":"[\"img/0860/4a022222-056d-461c-ab02-39fac9647552.jpg\",\"img/0758/53f35650-e455-4b53-8be4-c3c8271c6466.jpg\"]","trial_type":"similarity","trial_index":125,"time_elapsed":954178,"internal_node_id":"0.0-6.0-119.0"},{"sim_score":5,"rt":3696,"stimulus":"[\"img/0864/0f537697-a314-47c3-a8cc-8df23b7e536c.jpg\",\"img/0875/dbdd643e-6d0e-4a5c-ab57-b9c29b9c981a.jpg\"]","trial_type":"similarity","trial_index":126,"time_elapsed":958880,"internal_node_id":"0.0-6.0-120.0"},{"sim_score":1,"rt":2627,"stimulus":"[\"img/0898/26c41340-15bd-4ead-8fe4-c0d0ddca09c2.jpg\",\"img/0866/c446214b-a368-4c65-ae39-ea46894256ab.jpg\"]","trial_type":"similarity","trial_index":127,"time_elapsed":962512,"internal_node_id":"0.0-6.0-121.0"},{"sim_score":2,"rt":4076,"stimulus":"[\"img/0874/3ce41e7c-40c8-4d58-a546-171114521796.jpg\",\"img/0904/fe746a3f-8458-48d0-8a13-8cba2a9df9f8.jpg\"]","trial_type":"similarity","trial_index":128,"time_elapsed":967593,"internal_node_id":"0.0-6.0-122.0"},{"sim_score":2,"rt":3759,"stimulus":"[\"img/0904/e9423a8c-f946-43ad-ab7b-931acef870e2.jpg\",\"img/0864/e336a4c5-6648-4fd7-b2f6-93a3fb83f8c6.jpg\"]","trial_type":"similarity","trial_index":129,"time_elapsed":972355,"internal_node_id":"0.0-6.0-123.0"},{"sim_score":3,"rt":4352,"stimulus":"[\"img/0894/5a49e858-2850-4892-9a06-e9f0efb5f94d.jpg\",\"img/0902/44cd9b7e-fdfb-4f78-90de-8d4c9d279365.jpg\"]","trial_type":"similarity","trial_index":130,"time_elapsed":977720,"internal_node_id":"0.0-6.0-124.0"},{"sim_score":1,"rt":2618,"stimulus":"[\"img/0868/fd307a36-9a3a-47d7-ab7c-f810d0b35040.jpg\",\"img/0864/65210d57-1153-4657-886a-32e758f49b4a.jpg\"]","trial_type":"similarity","trial_index":131,"time_elapsed":991179,"internal_node_id":"0.0-6.0-125.0"},{"sim_score":3,"rt":3084,"stimulus":"[\"img/0899/f95cbdb4-f804-4f5d-ad76-373ad343e658.jpg\",\"img/0866/d266fece-59b3-46fa-b69f-96f6efb81b59.jpg\"]","trial_type":"similarity","trial_index":132,"time_elapsed":995268,"internal_node_id":"0.0-6.0-126.0"},{"sim_score":5,"rt":2991,"stimulus":"[\"img/0875/8521fd58-3b1e-4dc5-97ae-804edfa6734a.jpg\",\"img/0904/4b8daf2a-13a9-4ea9-9e0b-b265b6e933e7.jpg\"]","trial_type":"similarity","trial_index":133,"time_elapsed":999264,"internal_node_id":"0.0-6.0-127.0"},{"sim_score":4,"rt":4212,"stimulus":"[\"img/0867/f26f6b60-f772-4f4c-95a4-addc62cfd692.jpg\",\"img/0899/66bf4113-ee12-426c-84d2-ea410b6c803e.jpg\"]","trial_type":"similarity","trial_index":134,"time_elapsed":1004481,"internal_node_id":"0.0-6.0-128.0"},{"sim_score":2,"rt":3398,"stimulus":"[\"img/0901/f469cb1d-6d81-4a45-bab5-cd0b650c2b4f.jpg\",\"img/0867/bf560d4f-dee3-4f11-a385-705cc1aa5f3c.jpg\"]","trial_type":"similarity","trial_index":135,"time_elapsed":1008891,"internal_node_id":"0.0-6.0-129.0"},{"sim_score":5,"rt":5526,"stimulus":"[\"img/0864/4bd81bc6-c13d-46df-95a9-485886dc7c1b.jpg\",\"img/0769/b664b502-a86c-46c1-ad6f-5ebffc2e1bd3.jpg\"]","trial_type":"similarity","trial_index":136,"time_elapsed":1015421,"internal_node_id":"0.0-6.0-130.0"},{"sim_score":3,"rt":3563,"stimulus":"[\"img/0903/72197c2b-403e-4a26-b391-f1aa8dea4b76.jpg\",\"img/0868/4bd5105a-d2c3-4f82-8c80-57196106ba53.jpg\"]","trial_type":"similarity","trial_index":137,"time_elapsed":1019989,"internal_node_id":"0.0-6.0-131.0"},{"sim_score":1,"rt":3535,"stimulus":"[\"img/0864/5f33e097-23e3-4002-882d-76e8cb15f451.jpg\",\"img/0867/de92135f-5b65-4ed9-b245-188292c7c2f8.jpg\"]","trial_type":"similarity","trial_index":138,"time_elapsed":1024530,"internal_node_id":"0.0-6.0-132.0"},{"sim_score":3,"rt":3239,"stimulus":"[\"img/0901/7d4a3388-488d-4e9b-9d32-9d0def7aae8d.jpg\",\"img/0860/31ff6436-98bf-4652-bed2-40f627229568.jpg\"]","trial_type":"similarity","trial_index":139,"time_elapsed":1028774,"internal_node_id":"0.0-6.0-133.0"},{"sim_score":5,"rt":5897,"stimulus":"[\"img/0881/ee44e27f-d662-4608-b265-e7ffa19b216f.jpg\",\"img/0766/60033a74-9919-47e5-913c-71d0d483e7e5.jpg\"]","trial_type":"similarity","trial_index":140,"time_elapsed":1035677,"internal_node_id":"0.0-6.0-134.0"},{"sim_score":1,"rt":3257,"stimulus":"[\"img/0903/59defeb8-98bd-4570-a2f8-9bd189e68ef4.jpg\",\"img/0864/ef9cbca0-4be8-435d-ad49-977259e80409.jpg\"]","trial_type":"similarity","trial_index":141,"time_elapsed":1039939,"internal_node_id":"0.0-6.0-135.0"},{"sim_score":2,"rt":3024,"stimulus":"[\"img/0758/dd559618-7f09-4a07-8018-d311c4a5ea29.jpg\",\"img/0894/0130a973-d993-41f8-874a-fee23d9ac11f.jpg\"]","trial_type":"similarity","trial_index":142,"time_elapsed":1043968,"internal_node_id":"0.0-6.0-136.0"},{"sim_score":3,"rt":4089,"stimulus":"[\"img/0769/1d8734c4-77ab-4165-9e71-5cfe672ff01c.jpg\",\"img/0860/18dfed73-e36b-4487-a8bd-0b8cff8e3668.jpg\"]","trial_type":"similarity","trial_index":143,"time_elapsed":1049063,"internal_node_id":"0.0-6.0-137.0"},{"sim_score":1,"rt":3957,"stimulus":"[\"img/0904/65e2b70a-b184-4da3-b5c0-5038bdf9469a.jpg\",\"img/0766/6d32752d-aa05-40dc-9541-640b6e9d6fa1.jpg\"]","trial_type":"similarity","trial_index":144,"time_elapsed":1054026,"internal_node_id":"0.0-6.0-138.0"},{"sim_score":4,"rt":3932,"stimulus":"[\"img/0868/179a5502-ab5c-478e-8263-5a1fbcc101d2.jpg\",\"img/0860/29a21a9f-54bb-4093-ad3f-04823ceaa89f.jpg\"]","trial_type":"similarity","trial_index":145,"time_elapsed":1058963,"internal_node_id":"0.0-6.0-139.0"},{"sim_score":4,"rt":3979,"stimulus":"[\"img/0758/20497cbe-ddae-489e-86e2-ab06985ed07c.jpg\",\"img/0864/49150900-7f25-4ce8-8d10-9b47a71d1997.jpg\"]","trial_type":"similarity","trial_index":146,"time_elapsed":1063947,"internal_node_id":"0.0-6.0-140.0"},{"sim_score":5,"rt":3712,"stimulus":"[\"img/0867/85a96c62-548f-4994-9553-819e03c3135a.jpg\",\"img/0867/a498eef3-9fa4-4ab2-9778-4ae82ac40dc5.jpg\"]","trial_type":"similarity","trial_index":147,"time_elapsed":1068665,"internal_node_id":"0.0-6.0-141.0"},{"sim_score":7,"rt":2891,"stimulus":"[\"img/0898/661621d4-a14e-487c-8c74-354134a29710.jpg\",\"img/0898/b3290bf9-215b-4b45-b21a-65bdf73f142f.jpg\"]","trial_type":"similarity","trial_index":148,"time_elapsed":1072562,"internal_node_id":"0.0-6.0-142.0"},{"sim_score":3,"rt":5737,"stimulus":"[\"img/0866/386235d2-6857-41e7-88a8-25cfc3430025.jpg\",\"img/0769/ebef2ddc-ba59-4e0e-97f8-927864eb5081.jpg\"]","trial_type":"similarity","trial_index":149,"time_elapsed":1079304,"internal_node_id":"0.0-6.0-143.0"},{"sim_score":2,"rt":5477,"stimulus":"[\"img/0860/8fdba999-b946-4c7d-9891-336018b563ef.jpg\",\"img/0898/5f699581-3853-4547-856c-12f419ba5af7.jpg\"]","trial_type":"similarity","trial_index":150,"time_elapsed":1085786,"internal_node_id":"0.0-6.0-144.0"},{"sim_score":5,"rt":4512,"stimulus":"[\"img/0766/5d6e0d1d-4369-41f0-a64c-91f3503055c7.jpg\",\"img/0864/a248adb3-c70b-4652-b7a3-776d2a1e904b.jpg\"]","trial_type":"similarity","trial_index":151,"time_elapsed":1091302,"internal_node_id":"0.0-6.0-145.0"},{"sim_score":6,"rt":3209,"stimulus":"[\"img/0860/c3379ff7-0763-48fe-a1ec-7ea3d611bc7a.jpg\",\"img/0903/36e4ab1f-caa9-40b3-8616-faada076df94.jpg\"]","trial_type":"similarity","trial_index":152,"time_elapsed":1095515,"internal_node_id":"0.0-6.0-146.0"},{"sim_score":3,"rt":3286,"stimulus":"[\"img/0867/7d1c497b-c1b3-4ed8-abb5-d7f73306015f.jpg\",\"img/0764/c84fbfa8-521c-407a-9bd3-24f7308d896c.jpg\"]","trial_type":"similarity","trial_index":153,"time_elapsed":1099806,"internal_node_id":"0.0-6.0-147.0"},{"sim_score":4,"rt":3924,"stimulus":"[\"img/0769/da36e3f7-2337-434f-ab57-11822dd7eed7.jpg\",\"img/0904/60d1a521-edf7-4696-9263-f21ac0e62a01.jpg\"]","trial_type":"similarity","trial_index":154,"time_elapsed":1104734,"internal_node_id":"0.0-6.0-148.0"},{"sim_score":1,"rt":2989,"stimulus":"[\"img/0764/f713847b-4832-42d1-8fb3-e17e37fd745c.jpg\",\"img/0901/12da1841-e611-435c-9719-109413d536a8.jpg\"]","trial_type":"similarity","trial_index":155,"time_elapsed":1108728,"internal_node_id":"0.0-6.0-149.0"},{"sim_score":6,"rt":4378,"stimulus":"[\"img/0904/0d17b811-063e-416e-a23c-3b3cfa4fcce5.jpg\",\"img/0899/76ad07e2-ca25-45eb-84f2-8d80b8ca3e26.jpg\"]","trial_type":"similarity","trial_index":156,"time_elapsed":1114112,"internal_node_id":"0.0-6.0-150.0"},{"sim_score":1,"rt":4469,"stimulus":"[\"img/0862/eefa5588-9efd-4591-aa5f-a2e17c7d7bcc.jpg\",\"img/0867/db7e032f-162b-46f5-ae67-2b29679adee4.jpg\"]","trial_type":"similarity","trial_index":157,"time_elapsed":1119587,"internal_node_id":"0.0-6.0-151.0"},{"sim_score":7,"rt":3441,"stimulus":"[\"img/0766/fd064894-7147-4af5-97e9-2089d5472656.jpg\",\"img/0766/535849cc-ff5d-4df9-8f31-0ce94a97d571.jpg\"]","trial_type":"similarity","trial_index":158,"time_elapsed":1124034,"internal_node_id":"0.0-6.0-152.0"},{"sim_score":5,"rt":3834,"stimulus":"[\"img/0862/1c20f772-3a51-4a80-aac0-f57dc9f86c28.jpg\",\"img/0894/c505c65a-cde2-4f2c-8cde-f8676f7c894d.jpg\"]","trial_type":"similarity","trial_index":159,"time_elapsed":1128873,"internal_node_id":"0.0-6.0-153.0"},{"sim_score":1,"rt":2432,"stimulus":"[\"img/0899/0433d056-aa30-4f8a-9aa1-abbb951e4edd.jpg\",\"img/0901/00acf6c1-b66e-4060-bb04-4caf29b5a8b0.jpg\"]","trial_type":"similarity","trial_index":160,"time_elapsed":1132310,"internal_node_id":"0.0-6.0-154.0"},{"sim_score":7,"rt":3004,"stimulus":"[\"img/0874/31e22c7c-99aa-40b1-bf03-dd73fa2df4d6.jpg\",\"img/0874/eba003b4-cdab-4eee-8bc3-f064c7d94165.jpg\"]","trial_type":"similarity","trial_index":161,"time_elapsed":1136318,"internal_node_id":"0.0-6.0-155.0"},{"sim_score":2,"rt":3070,"stimulus":"[\"img/0860/61fb959d-d4d9-4de4-9e4e-4fa62b4cfcd5.jpg\",\"img/0867/12264664-1860-46df-8c21-162b9817cdda.jpg\"]","trial_type":"similarity","trial_index":162,"time_elapsed":1140394,"internal_node_id":"0.0-6.0-156.0"},{"sim_score":1,"rt":3127,"stimulus":"[\"img/0901/168eb52c-c415-43f1-b5c8-e76e1a1ec247.jpg\",\"img/0881/b1a136f7-8511-4d3a-a0f6-3879acf1e1a1.jpg\"]","trial_type":"similarity","trial_index":163,"time_elapsed":1144526,"internal_node_id":"0.0-6.0-157.0"},{"sim_score":2,"rt":6469,"stimulus":"[\"img/0903/8f7f9939-b8e6-433f-93dd-b362496c80a7.jpg\",\"img/0902/6730b12a-f0a7-4587-8c10-a32fae16565b.jpg\"]","trial_type":"similarity","trial_index":164,"time_elapsed":1152000,"internal_node_id":"0.0-6.0-158.0"},{"sim_score":1,"rt":4520,"stimulus":"[\"img/0860/e8b8c51e-1834-4875-8b61-6c5bc9b178bd.jpg\",\"img/0764/23ea9375-f801-4a96-9925-7d453da887c7.jpg\"]","trial_type":"similarity","trial_index":165,"time_elapsed":1157525,"internal_node_id":"0.0-6.0-159.0"},{"sim_score":1,"rt":2476,"stimulus":"[\"img/0902/71c03003-03ef-4b0f-8229-e0c857150a5d.jpg\",\"img/0875/2c361b79-c3d1-4eda-812e-bf03192407bf.jpg\"]","trial_type":"similarity","trial_index":166,"time_elapsed":1161005,"internal_node_id":"0.0-6.0-160.0"},{"sim_score":3,"rt":4503,"stimulus":"[\"img/0898/cd3aaa3f-efa9-4ab3-8d6f-a6a9273ddf42.jpg\",\"img/0862/de9ad88c-b522-430a-8ee9-eb06a9f85df5.jpg\"]","trial_type":"similarity","trial_index":167,"time_elapsed":1166514,"internal_node_id":"0.0-6.0-161.0"},{"sim_score":1,"rt":3813,"stimulus":"[\"img/0894/38f5931f-926d-414e-b498-66b188978b7a.jpg\",\"img/0875/99698b4d-b4a1-44bc-8c83-8ea755bbbf61.jpg\"]","trial_type":"similarity","trial_index":168,"time_elapsed":1171331,"internal_node_id":"0.0-6.0-162.0"},{"sim_score":4,"rt":3195,"stimulus":"[\"img/0866/a04d37f0-99dd-478a-b6c6-58b215138f84.jpg\",\"img/0864/87c467d3-abca-482f-ad80-3766c21b1bb3.jpg\"]","trial_type":"similarity","trial_index":169,"time_elapsed":1175530,"internal_node_id":"0.0-6.0-163.0"},{"sim_score":5,"rt":5070,"stimulus":"[\"img/0766/1865bfc9-2410-4765-a804-3ae4ba2393d0.jpg\",\"img/0862/e8cc3bdf-cc43-4565-bccf-492626c70953.jpg\"]","trial_type":"similarity","trial_index":170,"time_elapsed":1181605,"internal_node_id":"0.0-6.0-164.0"},{"sim_score":5,"rt":3796,"stimulus":"[\"img/0866/07c9c966-3c8d-40e7-8128-92b2acbaed5d.jpg\",\"img/0874/a82926a3-0b43-4add-803c-d5f9ea7798ee.jpg\"]","trial_type":"similarity","trial_index":171,"time_elapsed":1186407,"internal_node_id":"0.0-6.0-165.0"},{"sim_score":6,"rt":3428,"stimulus":"[\"img/0862/99a99e39-8355-44ec-b993-e7bcec111e1c.jpg\",\"img/0860/b03b963d-949b-4d8d-b19c-4950c89eeca2.jpg\"]","trial_type":"similarity","trial_index":172,"time_elapsed":1190841,"internal_node_id":"0.0-6.0-166.0"},{"sim_score":4,"rt":3334,"stimulus":"[\"img/0766/006035d8-c736-4daf-bbe4-a9e373af9da6.jpg\",\"img/0901/b123d109-47b4-4f9a-80c9-9bb16da42efa.jpg\"]","trial_type":"similarity","trial_index":173,"time_elapsed":1202519,"internal_node_id":"0.0-6.0-167.0"},{"sim_score":6,"rt":5263,"stimulus":"[\"img/0862/4f0a3b4c-afbf-486e-b248-1d54982f54b4.jpg\",\"img/0862/f188d4f0-76a4-4102-818c-a209969d73a5.jpg\"]","trial_type":"similarity","trial_index":174,"time_elapsed":1208787,"internal_node_id":"0.0-6.0-168.0"},{"sim_score":6,"rt":3675,"stimulus":"[\"img/0894/5c7677b0-a4f1-479e-b274-7822c415175a.jpg\",\"img/0764/b328441c-f81c-486c-9eae-b947c70ba7cd.jpg\"]","trial_type":"similarity","trial_index":175,"time_elapsed":1213468,"internal_node_id":"0.0-6.0-169.0"},{"sim_score":5,"rt":4366,"stimulus":"[\"img/0874/99f6563c-8a8d-4c1c-a41d-667b618c3fd5.jpg\",\"img/0898/a114b375-cb89-44ba-9498-74213f1ecdee.jpg\"]","trial_type":"similarity","trial_index":176,"time_elapsed":1218839,"internal_node_id":"0.0-6.0-170.0"},{"sim_score":3,"rt":4903,"stimulus":"[\"img/0860/99c589b9-9140-4d17-90c0-b344323edcda.jpg\",\"img/0766/91fc8c4d-862f-4d2b-b1a1-2db8d729b6b7.jpg\"]","trial_type":"similarity","trial_index":177,"time_elapsed":1224748,"internal_node_id":"0.0-6.0-171.0"},{"sim_score":1,"rt":4066,"stimulus":"[\"img/0898/40f99fb2-64d2-4e72-8a7f-a1cf60741e69.jpg\",\"img/0864/3d4de670-b290-4285-9c3d-12a0e3af44e9.jpg\"]","trial_type":"similarity","trial_index":178,"time_elapsed":1229820,"internal_node_id":"0.0-6.0-172.0"},{"sim_score":5,"rt":4032,"stimulus":"[\"img/0881/b549bc99-a61c-4450-bab5-9efc3a197bf0.jpg\",\"img/0764/e42c1dc9-7831-4995-be19-7ca7b4d141fc.jpg\"]","trial_type":"similarity","trial_index":179,"time_elapsed":1234858,"internal_node_id":"0.0-6.0-173.0"},{"sim_score":1,"rt":4257,"stimulus":"[\"img/0898/68476bbb-34a1-42d9-8bc1-deab783d4489.jpg\",\"img/0868/09a9ef4d-d000-4cfa-a6aa-ebec7c2edeb4.jpg\"]","trial_type":"similarity","trial_index":180,"time_elapsed":1240120,"internal_node_id":"0.0-6.0-174.0"},{"sim_score":7,"rt":3735,"stimulus":"[\"img/0864/e8bd659f-aa43-4748-877e-3118e8b4e189.jpg\",\"img/0864/da39ad34-04e0-40d4-a724-c08d53e0ea09.jpg\"]","trial_type":"similarity","trial_index":181,"time_elapsed":1244859,"internal_node_id":"0.0-6.0-175.0"},{"sim_score":6,"rt":3650,"stimulus":"[\"img/0899/a05bea16-2bb4-4cb9-b8fb-4ff975db6971.jpg\",\"img/0862/cdaed51d-9e2f-4807-801a-4663c40077e2.jpg\"]","trial_type":"similarity","trial_index":182,"time_elapsed":1249514,"internal_node_id":"0.0-6.0-176.0"},{"sim_score":2,"rt":4053,"stimulus":"[\"img/0875/cff79b3a-a797-4393-9757-6275f999ec04.jpg\",\"img/0758/b76ceca7-95ac-46e4-ac13-da02c8e93be9.jpg\"]","trial_type":"similarity","trial_index":183,"time_elapsed":1254573,"internal_node_id":"0.0-6.0-177.0"},{"sim_score":6,"rt":3798,"stimulus":"[\"img/0866/0207e9a2-7dbb-40b5-9459-b472aaeceb2a.jpg\",\"img/0901/ae1e6ce4-2e10-4ca9-b1e7-21628637ab74.jpg\"]","trial_type":"similarity","trial_index":184,"time_elapsed":1259376,"internal_node_id":"0.0-6.0-178.0"},{"sim_score":7,"rt":3602,"stimulus":"[\"img/0769/f6396414-6788-4d59-9683-de153298d89c.jpg\",\"img/0874/bf14b896-e930-4fd9-9c05-2e83317a2773.jpg\"]","trial_type":"similarity","trial_index":185,"time_elapsed":1263983,"internal_node_id":"0.0-6.0-179.0"},{"sim_score":2,"rt":3454,"stimulus":"[\"img/0875/e7e66b13-b573-431e-b85e-288ce04a35a3.jpg\",\"img/0881/667e2147-d457-4f32-aa5f-6ab86e5848f1.jpg\"]","trial_type":"similarity","trial_index":186,"time_elapsed":1268442,"internal_node_id":"0.0-6.0-180.0"},{"sim_score":7,"rt":3222,"stimulus":"[\"img/0866/4a87911a-d5be-4d4e-ab8e-3d1f581bf507.jpg\",\"img/0868/d98ca254-b195-477f-b57e-5760a2717db8.jpg\"]","trial_type":"similarity","trial_index":187,"time_elapsed":1272670,"internal_node_id":"0.0-6.0-181.0"},{"sim_score":6,"rt":3321,"stimulus":"[\"img/0899/ddf96ade-692e-4602-bd22-dedbb46401bc.jpg\",\"img/0758/caa93da2-9edf-49fa-96b9-32dedd8f5078.jpg\"]","trial_type":"similarity","trial_index":188,"time_elapsed":1276996,"internal_node_id":"0.0-6.0-182.0"},{"sim_score":2,"rt":4334,"stimulus":"[\"img/0874/29830da7-be5f-44e5-b141-652a0ccf7269.jpg\",\"img/0875/5a716432-c6ca-4b1c-955a-2b8ac25198ee.jpg\"]","trial_type":"similarity","trial_index":189,"time_elapsed":1282335,"internal_node_id":"0.0-6.0-183.0"},{"sim_score":5,"rt":3018,"stimulus":"[\"img/0904/ba8e689e-9ca6-4608-a2a1-3b0940666ae6.jpg\",\"img/0862/57b6f83f-c763-4858-830d-102f97bfefbf.jpg\"]","trial_type":"similarity","trial_index":190,"time_elapsed":1286357,"internal_node_id":"0.0-6.0-184.0"},{"sim_score":4,"rt":2557,"stimulus":"[\"img/0902/2db723b6-130f-454c-8c8d-88829edbcd65.jpg\",\"img/0766/d5d38751-8fa5-476f-93e9-86ed2d9045ef.jpg\"]","trial_type":"similarity","trial_index":191,"time_elapsed":1289919,"internal_node_id":"0.0-6.0-185.0"},{"sim_score":4,"rt":2404,"stimulus":"[\"img/0758/ddc336e9-a8b6-4bb9-937a-c7e25e0e9250.jpg\",\"img/0769/c34b7763-8ff2-46d5-9e92-f1d8f3bedbd8.jpg\"]","trial_type":"similarity","trial_index":192,"time_elapsed":1293327,"internal_node_id":"0.0-6.0-186.0"},{"sim_score":7,"rt":3599,"stimulus":"[\"img/0881/7e31e5dc-2240-4b1b-b5a0-3acd980099ef.jpg\",\"img/0881/f4e3e181-b3c9-4af2-a5a4-fc135ab70d2e.jpg\"]","trial_type":"similarity","trial_index":193,"time_elapsed":1297930,"internal_node_id":"0.0-6.0-187.0"},{"sim_score":2,"rt":3815,"stimulus":"[\"img/0758/2fa3e613-e676-4e6e-bd12-705327eeb3e1.jpg\",\"img/0866/9b38d691-1802-4959-ab3f-fc902f0e4ea6.jpg\"]","trial_type":"similarity","trial_index":194,"time_elapsed":1302750,"internal_node_id":"0.0-6.0-188.0"},{"sim_score":4,"rt":4313,"stimulus":"[\"img/0764/952d7adc-dc40-4aee-acce-18c2a1d02ea1.jpg\",\"img/0898/8605a25b-6895-476d-8c13-df7a83f96093.jpg\"]","trial_type":"similarity","trial_index":195,"time_elapsed":1308069,"internal_node_id":"0.0-6.0-189.0"},{"sim_score":3,"rt":3724,"stimulus":"[\"img/0903/776b74ee-a8ab-4ab8-a78d-097c0747538d.jpg\",\"img/0901/8bb79e82-9c43-4b6f-a655-40655519598b.jpg\"]","trial_type":"similarity","trial_index":196,"time_elapsed":1312799,"internal_node_id":"0.0-6.0-190.0"},{"sim_score":5,"rt":5245,"stimulus":"[\"img/0902/31abfa33-7cdb-44ad-968e-9f7b324d577a.jpg\",\"img/0898/6cd3830b-d44e-4915-be2b-88d31424b91c.jpg\"]","trial_type":"similarity","trial_index":197,"time_elapsed":1319049,"internal_node_id":"0.0-6.0-191.0"},{"sim_score":2,"rt":3302,"stimulus":"[\"img/0864/ea327690-500b-4137-bf91-451b309fe6a5.jpg\",\"img/0901/a9b9c0a0-8aed-4888-a78a-65fb7e764d13.jpg\"]","trial_type":"similarity","trial_index":198,"time_elapsed":1323356,"internal_node_id":"0.0-6.0-192.0"},{"sim_score":3,"rt":3394,"stimulus":"[\"img/0894/38cf335f-f76f-4349-8d65-e20cd6859565.jpg\",\"img/0881/54ea8e77-c7e5-4197-b7fa-00b7020849a7.jpg\"]","trial_type":"similarity","trial_index":199,"time_elapsed":1327757,"internal_node_id":"0.0-6.0-193.0"},{"sim_score":7,"rt":2532,"stimulus":"[\"img/0868/4a8a45ed-2c4f-421b-9564-409a33ecd26c.jpg\",\"img/0868/7b212364-ff5f-4e28-9241-7eb6ea00161b.jpg\"]","trial_type":"similarity","trial_index":200,"time_elapsed":1331293,"internal_node_id":"0.0-6.0-194.0"},{"sim_score":6,"rt":3695,"stimulus":"[\"img/0899/25ae6ec8-9565-49fe-a8bb-8d0666f52716.jpg\",\"img/0764/f64dfa83-333d-494c-87b5-73e942f1766e.jpg\"]","trial_type":"similarity","trial_index":201,"time_elapsed":1335994,"internal_node_id":"0.0-6.0-195.0"},{"sim_score":5,"rt":3057,"stimulus":"[\"img/0881/adc02f34-ce97-4aef-850f-00519df06fd7.jpg\",\"img/0904/da170c1b-9651-4f08-b231-2bdd1d9a046f.jpg\"]","trial_type":"similarity","trial_index":202,"time_elapsed":1340057,"internal_node_id":"0.0-6.0-196.0"},{"sim_score":7,"rt":2609,"stimulus":"[\"img/0864/1d15626a-2f7c-410f-819c-0fa2c967e95e.jpg\",\"img/0902/3b243e54-0803-4c29-af42-4037c2118495.jpg\"]","trial_type":"similarity","trial_index":203,"time_elapsed":1343672,"internal_node_id":"0.0-6.0-197.0"},{"sim_score":4,"rt":2227,"stimulus":"[\"img/0894/e2446cf5-cd48-486a-badc-76498e087fbe.jpg\",\"img/0904/9d30eff1-46ef-4453-b11e-124ef8145c00.jpg\"]","trial_type":"similarity","trial_index":204,"time_elapsed":1346904,"internal_node_id":"0.0-6.0-198.0"},{"sim_score":7,"rt":2923,"stimulus":"[\"img/0901/2a953e50-d237-405c-a38d-5ed21494c968.jpg\",\"img/0901/a0d65c84-3f20-476a-92d1-0c01e8019cf4.jpg\"]","trial_type":"similarity","trial_index":205,"time_elapsed":1350831,"internal_node_id":"0.0-6.0-199.0"},{"sim_score":5,"rt":3190,"stimulus":"[\"img/0894/2d2db7b3-e8a3-499b-b63a-14f51bf73882.jpg\",\"img/0860/e14d67c1-6d92-4f1e-9257-c8607159c19c.jpg\"]","trial_type":"similarity","trial_index":206,"time_elapsed":1355027,"internal_node_id":"0.0-6.0-200.0"},{"sim_score":7,"rt":2720,"stimulus":"[\"img/0898/82231d4c-218b-4d0a-b50d-35a49b524e97.jpg\",\"img/0903/47e39de8-6959-469f-8be9-6999a6db207c.jpg\"]","trial_type":"similarity","trial_index":207,"time_elapsed":1358752,"internal_node_id":"0.0-6.0-201.0"},{"sim_score":1,"rt":7746,"stimulus":"[\"img/0864/66091c27-e588-4476-8af9-265dc6be4156.jpg\",\"img/0894/11674fa4-285d-44e2-939f-2228c6a64080.jpg\"]","trial_type":"similarity","trial_index":208,"time_elapsed":1367502,"internal_node_id":"0.0-6.0-202.0"},{"sim_score":4,"rt":2531,"stimulus":"[\"img/0874/85eb9b8a-c4c6-4e5a-b8e7-363a87a82054.jpg\",\"img/0860/d9a0d117-6d1d-41c0-8fec-9aff0fd9e9f2.jpg\"]","trial_type":"similarity","trial_index":209,"time_elapsed":1371037,"internal_node_id":"0.0-6.0-203.0"},{"sim_score":4,"rt":2408,"stimulus":"[\"img/0862/47ed5efd-4ec9-4b74-bb4e-a5f5cf0c3e7d.jpg\",\"img/0875/34132396-d896-4c2d-8087-646dd867e769.jpg\"]","trial_type":"similarity","trial_index":210,"time_elapsed":1374449,"internal_node_id":"0.0-6.0-204.0"},{"sim_score":1,"rt":3248,"stimulus":"[\"img/0867/cc72ed48-7704-422c-86d6-467a1145287a.jpg\",\"img/0881/7e822106-76f7-4b10-a805-14dc68b2cfaf.jpg\"]","trial_type":"similarity","trial_index":211,"time_elapsed":1378700,"internal_node_id":"0.0-6.0-205.0"},{"sim_score":5,"rt":2797,"stimulus":"[\"img/0901/58ec7fa9-b466-4651-90aa-c082df0972de.jpg\",\"img/0902/417d8b4a-3c72-4adc-ac78-820e833316f2.jpg\"]","trial_type":"similarity","trial_index":212,"time_elapsed":1382501,"internal_node_id":"0.0-6.0-206.0"},{"sim_score":4,"rt":2261,"stimulus":"[\"img/0899/f58b8d2f-b19d-4b59-8b94-8834be92e4ba.jpg\",\"img/0864/c22faebd-9c53-47bc-ada3-b9a30c688e75.jpg\"]","trial_type":"similarity","trial_index":213,"time_elapsed":1385766,"internal_node_id":"0.0-6.0-207.0"},{"sim_score":4,"rt":2800,"stimulus":"[\"img/0901/fb0a8e69-7f19-4e6e-a6bb-a48f97f9b4f3.jpg\",\"img/0769/5bd04f55-d091-4f57-85db-38426f26bd1a.jpg\"]","trial_type":"similarity","trial_index":214,"time_elapsed":1389572,"internal_node_id":"0.0-6.0-208.0"},{"sim_score":2,"rt":3238,"stimulus":"[\"img/0902/94ee9c53-a9a2-4f95-b9b7-794a5fc62bb6.jpg\",\"img/0902/22ed3536-288b-452e-9777-0fa0ab94deb0.jpg\"]","trial_type":"similarity","trial_index":215,"time_elapsed":1396982,"internal_node_id":"0.0-6.0-209.0"},{"view_history":"[{\"page_index\":0,\"viewing_time\":7169}]","rt":7169,"trial_type":"instructions","trial_index":216,"time_elapsed":1405152,"internal_node_id":"0.0-7.0"},{"rt":16641,"responses":"{\"Q0\":\"Nashville Warbler\"}","answer":["Nashville Warbler"],"trial_type":"image-multi-choice","trial_index":217,"time_elapsed":1422812,"internal_node_id":"0.0-8.0-0.0"},{"rt":5493,"responses":"{\"Q0\":\"Black-and-white Warbler\"}","answer":["Black-and-white Warbler"],"trial_type":"image-multi-choice","trial_index":218,"time_elapsed":1429317,"internal_node_id":"0.0-8.0-1.0"},{"rt":4814,"responses":"{\"Q0\":\"Swamp Sparrow\"}","answer":["Townsend's Warbler"],"trial_type":"image-multi-choice","trial_index":219,"time_elapsed":1435144,"internal_node_id":"0.0-8.0-2.0"},{"rt":6507,"responses":"{\"Q0\":\"White-crowned Sparrow\"}","answer":["Lark Sparrow"],"trial_type":"image-multi-choice","trial_index":220,"time_elapsed":1442663,"internal_node_id":"0.0-8.0-3.0"},{"rt":3833,"responses":"{\"Q0\":\"Yellow Warbler\"}","answer":["Yellow Warbler"],"trial_type":"image-multi-choice","trial_index":221,"time_elapsed":1447510,"internal_node_id":"0.0-8.0-4.0"},{"rt":6696,"responses":"{\"Q0\":\"Magnolia Warbler\"}","answer":["Orange-crowned Warbler"],"trial_type":"image-multi-choice","trial_index":222,"time_elapsed":1455218,"internal_node_id":"0.0-8.0-5.0"},{"rt":3246,"responses":"{\"Q0\":\"White-throated Sparrow\"}","answer":["White-throated Sparrow"],"trial_type":"image-multi-choice","trial_index":223,"time_elapsed":1459479,"internal_node_id":"0.0-8.0-6.0"},{"rt":2794,"responses":"{\"Q0\":\"Townsend's Warbler\"}","answer":["Fox Sparrow"],"trial_type":"image-multi-choice","trial_index":224,"time_elapsed":1463287,"internal_node_id":"0.0-8.0-7.0"},{"rt":8948,"responses":"{\"Q0\":\"Song Sparrow\"}","answer":["Song Sparrow"],"trial_type":"image-multi-choice","trial_index":225,"time_elapsed":1473248,"internal_node_id":"0.0-8.0-8.0"},{"rt":5299,"responses":"{\"Q0\":\"Orange-crowned Warbler\"}","answer":["Blackburnian Warbler"],"trial_type":"image-multi-choice","trial_index":226,"time_elapsed":1479565,"internal_node_id":"0.0-8.0-9.0"},{"rt":2857,"responses":"{\"Q0\":\"Ovenbird\"}","answer":["Vesper Sparrow"],"trial_type":"image-multi-choice","trial_index":227,"time_elapsed":1483433,"internal_node_id":"0.0-8.0-10.0"},{"rt":4094,"responses":"{\"Q0\":\"White-crowned Sparrow\"}","answer":["White-crowned Sparrow"],"trial_type":"image-multi-choice","trial_index":228,"time_elapsed":1488538,"internal_node_id":"0.0-8.0-11.0"},{"rt":3812,"responses":"{\"Q0\":\"Lincoln's Sparrow\"}","answer":["American Tree Sparrow"],"trial_type":"image-multi-choice","trial_index":229,"time_elapsed":1493360,"internal_node_id":"0.0-8.0-12.0"},{"rt":3511,"responses":"{\"Q0\":\"Fox Sparrow\"}","answer":["Tennessee Warbler"],"trial_type":"image-multi-choice","trial_index":230,"time_elapsed":1497887,"internal_node_id":"0.0-8.0-13.0"},{"rt":4839,"responses":"{\"Q0\":\"Blackburnian Warbler\"}","answer":["Magnolia Warbler"],"trial_type":"image-multi-choice","trial_index":231,"time_elapsed":1503740,"internal_node_id":"0.0-8.0-14.0"},{"rt":3444,"responses":"{\"Q0\":\"Chipping Sparrow\"}","answer":["Northern Waterthrush"],"trial_type":"image-multi-choice","trial_index":232,"time_elapsed":1508199,"internal_node_id":"0.0-8.0-15.0"},{"rt":2095,"responses":"{\"Q0\":\"American Tree Sparrow\"}","answer":["Chipping Sparrow"],"trial_type":"image-multi-choice","trial_index":233,"time_elapsed":1511309,"internal_node_id":"0.0-8.0-16.0"},{"rt":5923,"responses":"{\"Q0\":\"Northern Waterthrush\"}","answer":["Swamp Sparrow"],"trial_type":"image-multi-choice","trial_index":234,"time_elapsed":1518246,"internal_node_id":"0.0-8.0-17.0"},{"rt":3759,"responses":"{\"Q0\":\"Vesper Sparrow\"}","answer":["Lincoln's Sparrow"],"trial_type":"image-multi-choice","trial_index":235,"time_elapsed":1523020,"internal_node_id":"0.0-8.0-18.0"},{"rt":3928,"responses":"{\"Q0\":\"Lark Sparrow\"}","answer":["Ovenbird"],"trial_type":"image-multi-choice","trial_index":236,"time_elapsed":1527962,"internal_node_id":"0.0-8.0-19.0"}]