"view_history","rt","trial_type","trial_index","time_elapsed","internal_node_id","sim_score","stimulus","responses","answer"
"[{""page_index"":0,""viewing_time"":20845}]","20846","instructions","0","20847","0.0-0.0","","","",""
"","7461","similarity_demo","1","29319","0.0-1.0","7","[""img/866.jpg"",""img/868.jpg""]","",""
"[{""page_index"":0,""viewing_time"":103750}]","103750","instructions","2","134071","0.0-2.0","","","",""
"","3727","similarity_demo","3","138802","0.0-3.0","1","[""img/766.jpg"",""img/867.jpg""]","",""
"[{""page_index"":0,""viewing_time"":9557}]","9558","instructions","4","149361","0.0-4.0","","","",""
"[{""page_index"":0,""viewing_time"":22613}]","22613","instructions","5","172975","0.0-5.0","","","",""
"","5375","similarity","6","179362","0.0-6.0-0.0","2","[""img/0868/6a28c3b0-3d76-498a-9fb7-ddafc665eca8.jpg"",""img/0901/da4fe30f-d12a-491e-96a2-5ab8ebaadd09.jpg""]","",""
"","3850","similarity","7","184219","0.0-6.0-1.0","7","[""img/0769/50985283-d353-4abc-9abe-14a91d56ebe6.jpg"",""img/0867/a749dddb-69f0-44a6-acdc-2bf295cf6dcc.jpg""]","",""
"","5655","similarity","8","190882","0.0-6.0-2.0","1","[""img/0766/ae0fce93-fe8d-4aa1-87ca-4c3e4b889f2f.jpg"",""img/0898/4184e5a2-84ea-4f36-9b42-ae58646f6f87.jpg""]","",""
"","4434","similarity","9","196321","0.0-6.0-3.0","3","[""img/0902/fbef27fa-ac83-4936-ab78-9d1c20a383e1.jpg"",""img/0881/5fe04dd0-5c74-47b7-99c8-b068db9ca26a.jpg""]","",""
"","3907","similarity","10","201235","0.0-6.0-4.0","5","[""img/0894/e5edf723-72a5-4673-8441-6c1734a8929b.jpg"",""img/0894/1b3888e6-cf36-4c4a-a039-187aa5cb71ac.jpg""]","",""
"","3793","similarity","11","206033","0.0-6.0-5.0","6","[""img/0874/ca76a855-4e77-4f2f-872a-0a718153e7ed.jpg"",""img/0899/ad8268c5-8199-48d0-ad70-c5b6d6c599ec.jpg""]","",""
"","3256","similarity","12","210296","0.0-6.0-6.0","7","[""img/0904/56e73f28-7e64-489b-a161-e6b1a063878d.jpg"",""img/0764/06ea144f-f4f3-4a14-ba47-f20f35c561e0.jpg""]","",""
"","4067","similarity","13","215372","0.0-6.0-7.0","6","[""img/0899/4408c14d-c168-4a7d-96f6-bc87bfb58f83.jpg"",""img/0898/ec565187-2e31-4fdd-9a5c-153d0c789ae0.jpg""]","",""
"","3521","similarity","14","219900","0.0-6.0-8.0","7","[""img/0874/3f471690-9788-4d03-90c7-f615aecef149.jpg"",""img/0903/f45a103c-9bfe-49fd-ad96-bdd8d2589195.jpg""]","",""
"","4824","similarity","15","225730","0.0-6.0-9.0","6","[""img/0881/d373cb9f-a719-4549-a2a4-82def79fb2a5.jpg"",""img/0758/821c68d3-5cb0-4eae-8659-30e6263fca39.jpg""]","",""
"","5899","similarity","16","232634","0.0-6.0-10.0","4","[""img/0898/224c1572-56b9-4f16-a9e4-6f3bc9c114bd.jpg"",""img/0901/233a6948-48eb-4b67-8259-222b916b2322.jpg""]","",""
"","3685","similarity","17","237325","0.0-6.0-11.0","2","[""img/0903/f67c4ab9-f8c2-4fcd-848a-a54a7b031002.jpg"",""img/0769/76eaa4a3-dfe9-4dc1-9efb-caebe86264e1.jpg""]","",""
"","3795","similarity","18","242124","0.0-6.0-12.0","5","[""img/0764/50f1b062-d608-4bc0-ab25-b872dcf2ed93.jpg"",""img/0868/8b0b8473-e2c0-4331-aa56-c3a5c29369da.jpg""]","",""
"","3641","similarity","19","246771","0.0-6.0-13.0","2","[""img/0867/2e1a0b58-cdb1-4107-a14e-452530d7b9b0.jpg"",""img/0903/5ea5bbe0-f238-4724-abe7-9ed8dee8c0ba.jpg""]","",""
"","3693","similarity","20","251470","0.0-6.0-14.0","2","[""img/0766/af3be95e-e52e-4fae-899b-0ff02ec340aa.jpg"",""img/0758/61d64021-9214-4951-bdf8-f871f9827cf9.jpg""]","",""
"","3955","similarity","21","256430","0.0-6.0-15.0","6","[""img/0902/ca3160ba-ad5d-459f-a1b6-8b4f3c85ecd5.jpg"",""img/0860/94ef7afc-e0e6-4a15-98c6-0bfac82bc832.jpg""]","",""
"","125525","similarity","22","382961","0.0-6.0-16.0","5","[""img/0769/8c7cf147-1780-4d5c-8ddf-5ea23ff03ac9.jpg"",""img/0875/42910c99-5463-450a-a0f8-d4d060a11455.jpg""]","",""
"","3597","similarity","23","387562","0.0-6.0-17.0","6","[""img/0904/6291eb43-c10c-4810-a36a-101d09868b04.jpg"",""img/0866/8efcaa46-83ab-4dee-a35f-850402aa21ae.jpg""]","",""
"","3062","similarity","24","391630","0.0-6.0-18.0","5","[""img/0875/5a7c4e35-6514-4e12-8879-d16071da4cd6.jpg"",""img/0875/fb732ab5-013a-4366-9f65-27811ed157e9.jpg""]","",""
"","4184","similarity","25","396820","0.0-6.0-19.0","6","[""img/0758/7ee8bc8f-c40b-4b3a-84ec-3e83580622d4.jpg"",""img/0758/e38fd80d-18d0-42f3-b848-f930788e8bd7.jpg""]","",""
"","2603","similarity","26","400430","0.0-6.0-20.0","7","[""img/0902/04a6ad4a-afc6-4871-8225-56b299af7b6b.jpg"",""img/0874/ca23d307-fc00-4d7d-9106-584c6eb21b4d.jpg""]","",""
"","4416","similarity","27","405852","0.0-6.0-21.0","7","[""img/0764/cbdc4f20-3a9a-4211-9b40-090699e0abcc.jpg"",""img/0769/3c1203c5-2ce7-466e-957a-8d77b5905460.jpg""]","",""
"","3990","similarity","28","410849","0.0-6.0-22.0","4","[""img/0901/a6c90438-fa7c-4418-ac7c-16c2e772dd98.jpg"",""img/0874/8cdb1c07-1c32-46d2-981c-3636560fa6e5.jpg""]","",""
"","2891","similarity","29","414746","0.0-6.0-23.0","3","[""img/0875/2e13d160-eea1-416b-aff1-d37ab99ecc1d.jpg"",""img/0903/8635cf25-2648-4fe9-8c42-79d2598e999c.jpg""]","",""
"","4281","similarity","30","420031","0.0-6.0-24.0","5","[""img/0769/4680bcc3-8fbc-4643-8f9a-12aa0e780b64.jpg"",""img/0881/f7a8cc63-8842-40a4-9ff8-fe530310d62c.jpg""]","",""
"","4340","similarity","31","425378","0.0-6.0-25.0","6","[""img/0867/26611f4e-d694-4460-b7e2-43c62753ddc3.jpg"",""img/0904/9dd5708f-3f8b-46a9-b49f-2f2fab87b357.jpg""]","",""
"","5173","similarity","32","431555","0.0-6.0-26.0","7","[""img/0860/8a92e21b-6a32-4e4a-a445-2d5a487ed0a4.jpg"",""img/0881/f62bdcd1-a4b7-4d48-83da-d9c9e01c8727.jpg""]","",""
"","3635","similarity","33","436195","0.0-6.0-27.0","5","[""img/0866/02f5e6b9-52b7-448c-9708-5b460d0c9a23.jpg"",""img/0866/23a224f3-2012-4fc8-8e0f-3c36f8de27fd.jpg""]","",""
"","5392","similarity","34","442592","0.0-6.0-28.0","5","[""img/0764/e30dba15-e68a-4659-89db-e1654b52fe02.jpg"",""img/0862/064818ee-13d5-4618-bb24-21c7368ea278.jpg""]","",""
"","3041","similarity","35","446640","0.0-6.0-29.0","7","[""img/0904/63dd06dd-dccb-47ba-9740-eb33239e18a7.jpg"",""img/0758/335851a0-a55b-46d8-ab05-8463eda48349.jpg""]","",""
"","3769","similarity","36","451413","0.0-6.0-30.0","5","[""img/0894/7fb082e0-ce79-485c-9109-04367fb32275.jpg"",""img/0899/4f7bc593-8ddd-4da3-a0b9-84da730d3370.jpg""]","",""
"","3039","similarity","37","455456","0.0-6.0-31.0","7","[""img/0860/4f695df5-afac-4da7-9875-fee39b0b24ad.jpg"",""img/0904/2c98dc56-88d1-4fb5-a999-b6a7861f65f0.jpg""]","",""
"","3373","similarity","38","459835","0.0-6.0-32.0","5","[""img/0874/a3bc679d-619f-4db6-bb68-116dcb757d9c.jpg"",""img/0881/445edb15-bd7f-4af3-8bd5-c6ad9677bb31.jpg""]","",""
"","3644","similarity","39","464485","0.0-6.0-33.0","1","[""img/0881/4bd34581-94d8-4e88-8c89-5cef864ca3be.jpg"",""img/0899/fef567a2-c121-4481-9af0-ff108d199bbf.jpg""]","",""
"","2849","similarity","40","468339","0.0-6.0-34.0","1","[""img/0866/be24ab58-230e-4db8-9f45-ff04c9aec6bb.jpg"",""img/0862/a0a3a7ba-7798-46a3-b4ca-05e1f6e581d0.jpg""]","",""
"","3222","similarity","41","472567","0.0-6.0-35.0","3","[""img/0868/15dd6fd7-791e-4b53-b203-195d617521a4.jpg"",""img/0894/b2d2f66e-e480-46da-a02a-6d0c6b285d78.jpg""]","",""
"","3473","similarity","42","477047","0.0-6.0-36.0","2","[""img/0860/5383b320-1518-4095-a58e-5cc1ae30b64c.jpg"",""img/0860/fd4662f9-4c03-4d79-8593-06735e55a64b.jpg""]","",""
"","4074","similarity","43","482124","0.0-6.0-37.0","2","[""img/0862/ad593cc7-cabe-4bb7-8e14-8a447a0717b4.jpg"",""img/0864/1ebbc554-99fa-49f9-8799-317375a79820.jpg""]","",""
"","3412","similarity","44","486541","0.0-6.0-38.0","2","[""img/0766/d3bab2fc-ddcc-40a0-bb72-c0d0ebe19978.jpg"",""img/0866/a15b02be-11bb-43e3-b0e0-ecc3bd7dfc49.jpg""]","",""
"","4363","similarity","45","491909","0.0-6.0-39.0","5","[""img/0875/03c3c331-738b-4446-af92-3d7386b08c2e.jpg"",""img/0898/79233891-305a-4a6a-8ddf-5c8604858203.jpg""]","",""
"","4484","similarity","46","497400","0.0-6.0-40.0","5","[""img/0766/ea09dd5a-d24d-4e97-a099-7da3db1baef1.jpg"",""img/0769/db94b61b-a5a7-4861-9d32-7b02ad194fb0.jpg""]","",""
"","3939","similarity","47","517678","0.0-6.0-41.0","5","[""img/0874/93d1f8dc-acf2-4f03-bd8d-8ec35df276ed.jpg"",""img/0764/f2f23359-8e82-41d3-8900-5b9f4433991d.jpg""]","",""
"","3794","similarity","48","522478","0.0-6.0-42.0","5","[""img/0868/3a62db2d-97e9-44a3-b8e3-a48c6f0e423b.jpg"",""img/0902/418b716e-63e5-4c77-93e9-95b1f5a3ddf0.jpg""]","",""
"","2782","similarity","49","526265","0.0-6.0-43.0","1","[""img/0875/a4935837-7d3c-4df6-88c1-36a94d4991ca.jpg"",""img/0899/fd9efb43-701f-4cd6-baaa-4c38315f4bdc.jpg""]","",""
"","3237","similarity","50","530506","0.0-6.0-44.0","1","[""img/0866/11a1d141-be5e-443c-98c1-a9d4d9e3dec0.jpg"",""img/0860/f44ba3fb-03a2-42f0-8509-2c1ded493086.jpg""]","",""
"","4020","similarity","51","535531","0.0-6.0-45.0","1","[""img/0766/d8221e53-2300-4d99-ae1b-0bfb0eabe579.jpg"",""img/0903/2c7b4aed-6038-4aac-958a-e3e58341c313.jpg""]","",""
"","3128","similarity","52","539663","0.0-6.0-46.0","6","[""img/0901/4f9cffe0-c0be-4d7f-bacd-9d51efd19b4a.jpg"",""img/0904/24fc38fe-842c-4831-ad8a-b1de5c25c0a8.jpg""]","",""
"","4594","similarity","53","545263","0.0-6.0-47.0","7","[""img/0758/3ddd05d3-557e-4ee7-8b78-9d2d681d8ae2.jpg"",""img/0902/af40b98b-3d23-4d95-b401-49ba5783ce39.jpg""]","",""
"","3257","similarity","54","549526","0.0-6.0-48.0","7","[""img/0764/d0bef2e0-e16b-4c82-9451-c1d16265eb67.jpg"",""img/0764/b887d7c6-aa81-4637-af8e-05135757ac59.jpg""]","",""
"","3054","similarity","55","553585","0.0-6.0-49.0","2","[""img/0866/bf14b5bd-fb55-47db-86b9-4f8aeb9a6dad.jpg"",""img/0902/e5a46bda-30d1-41ca-b36d-b8529b5a63d1.jpg""]","",""
"","3559","similarity","56","558148","0.0-6.0-50.0","5","[""img/0764/8389e74f-e0e0-435d-945f-da1f4c92ccb6.jpg"",""img/0758/d41c06bf-ebaf-454b-91c6-1a17f917b659.jpg""]","",""
"","3289","similarity","57","562442","0.0-6.0-51.0","5","[""img/0898/993d8f2d-bef7-4251-a193-0f93a32b7763.jpg"",""img/0894/1a010553-d598-4b06-a772-81f1e7b3addb.jpg""]","",""
"","5783","similarity","58","569230","0.0-6.0-52.0","4","[""img/0875/90da8d75-108a-44ad-b999-e21fee3860d3.jpg"",""img/0866/93a27239-8317-4e08-98ca-d8b1ff298e07.jpg""]","",""
"","4547","similarity","59","574784","0.0-6.0-53.0","2","[""img/0904/a8c3c7d2-9bcf-4347-9e03-8203adfc1fc5.jpg"",""img/0904/2fd488e9-960f-41f7-8a44-33375f7d5051.jpg""]","",""
"","5046","similarity","60","580836","0.0-6.0-54.0","6","[""img/0769/11518cb3-13ea-4dd0-890c-30cfab728ade.jpg"",""img/0769/47700831-0ca2-4fdd-a498-a3bc5a528f43.jpg""]","",""
"","4963","similarity","61","586804","0.0-6.0-55.0","2","[""img/0898/01bfe666-3510-4fc7-964f-d00d28732dc8.jpg"",""img/0758/eabcd7a8-56ad-4fd2-bc24-90f6b7b33265.jpg""]","",""
"","4067","similarity","62","591877","0.0-6.0-56.0","1","[""img/0769/4a1d0b52-3fe8-40fb-bb1c-c814fe49a68c.jpg"",""img/0902/95a36b6b-9601-4fa5-8fd9-606ea62f9425.jpg""]","",""
"","6014","similarity","63","598895","0.0-6.0-57.0","7","[""img/0864/300bb811-8b3c-4c42-8653-6097c3725197.jpg"",""img/0881/405484ae-0d00-4b05-bc57-6420a36adfac.jpg""]","",""
"","3272","similarity","64","603171","0.0-6.0-58.0","1","[""img/0758/7fba58df-2a7a-4b76-8a8f-62739f97f271.jpg"",""img/0868/293079b8-7e0c-4afd-a390-1e5d35fe3ded.jpg""]","",""
"","3717","similarity","65","607895","0.0-6.0-59.0","7","[""img/0862/fb26cb07-d5a9-4653-813c-f41609f26cd5.jpg"",""img/0769/0fe124d3-bcad-45f6-b64d-8f6eb8ee5251.jpg""]","",""
"","3244","similarity","66","612144","0.0-6.0-60.0","5","[""img/0764/4952d0a0-c9be-471a-8ec7-94a37bf4051d.jpg"",""img/0903/5995f4a8-fa82-46f8-8760-fd7800a5ca34.jpg""]","",""
"","3258","similarity","67","616407","0.0-6.0-61.0","6","[""img/0899/d8f2dd94-570e-4e8c-a087-d96090fb9e8c.jpg"",""img/0899/8de08897-b430-42fe-9d42-840670b80f94.jpg""]","",""
"","3786","similarity","68","621197","0.0-6.0-62.0","2","[""img/0860/15b24a61-25be-4356-9eac-5ce95d0cb4a4.jpg"",""img/0875/527ced51-8e53-4aab-ab05-86df219104c0.jpg""]","",""
"","2786","similarity","69","624988","0.0-6.0-63.0","1","[""img/0868/0d3abd3a-b6c3-4584-a9f7-e2da63748b3d.jpg"",""img/0874/7e4f2150-3b59-4a36-b5da-a4e0ba410531.jpg""]","",""
"","3630","similarity","70","629624","0.0-6.0-64.0","5","[""img/0758/d540bee6-b460-4c32-ac57-bc282742d7d4.jpg"",""img/0862/fad1d7c1-8187-43c3-942a-0fc12183e48e.jpg""]","",""
"","3461","similarity","71","634090","0.0-6.0-65.0","7","[""img/0904/1d10df11-b5c8-4370-9a6b-097a7f965895.jpg"",""img/0898/a8f16b02-e19f-423b-86c3-a36562ae1f9b.jpg""]","",""
"","4558","similarity","72","639654","0.0-6.0-66.0","3","[""img/0881/566f45f8-5fed-4479-a60f-26377e60a62d.jpg"",""img/0866/620cd1aa-0800-4414-8f6e-90342e7a99ad.jpg""]","",""
"","3958","similarity","73","644617","0.0-6.0-67.0","2","[""img/0867/50a1b60e-3a29-44bf-b606-d4bd3746fea9.jpg"",""img/0898/e167334e-cc1d-4986-b3b1-c7bc7da64baa.jpg""]","",""
"","3154","similarity","74","648776","0.0-6.0-68.0","1","[""img/0902/4e0baa32-988e-46f6-989d-f669225ab645.jpg"",""img/0764/d7f3ac54-318a-4dac-a06b-62bed34d01a4.jpg""]","",""
"","4662","similarity","75","654443","0.0-6.0-69.0","3","[""img/0875/5a1e5100-0d94-4fec-bbe9-ca9894d2cf8e.jpg"",""img/0867/aa05d113-fc19-4756-a8eb-7878f580bc92.jpg""]","",""
"","4044","similarity","76","659493","0.0-6.0-70.0","5","[""img/0766/2e1cf445-9aef-40e7-92f4-5facf48b64c5.jpg"",""img/0764/5c8fbafc-e62e-43ed-9b37-f73e8e45147d.jpg""]","",""
"","3236","similarity","77","663734","0.0-6.0-71.0","1","[""img/0894/2217bdcd-23a7-42d3-823b-23f2488d7e87.jpg"",""img/0867/179ab87a-8eac-4c52-a41f-2e48e3120f09.jpg""]","",""
"","3158","similarity","78","667896","0.0-6.0-72.0","1","[""img/0875/3ecb367d-e9eb-4826-8aaa-7aa72fb98019.jpg"",""img/0764/fb92924f-5cfe-4b89-b130-0cce8cc5636b.jpg""]","",""
"","4081","similarity","79","672981","0.0-6.0-73.0","5","[""img/0867/5e07b34d-b40f-4b1c-ac10-49975bace45f.jpg"",""img/0866/d493a2c8-66eb-44b4-be02-2f327b700b7c.jpg""]","",""
"","4725","similarity","80","678712","0.0-6.0-74.0","2","[""img/0903/24477210-856c-4550-9de0-9f85a32762eb.jpg"",""img/0758/6e95579b-5166-487c-b8cb-e417c6a218e3.jpg""]","",""
"","3520","similarity","81","683238","0.0-6.0-75.0","1","[""img/0766/989c5c7f-1aff-4442-ac63-9d46acf4a891.jpg"",""img/0868/5fa7f9d0-f0e5-454c-8224-74d964818f56.jpg""]","",""
"","3741","similarity","82","687985","0.0-6.0-76.0","5","[""img/0874/1016b306-087c-4afc-aa08-fa527b28dc76.jpg"",""img/0766/fd74fdbb-ea40-4f3a-a091-38d08dfd636e.jpg""]","",""
"","4926","similarity","83","693916","0.0-6.0-77.0","2","[""img/0881/344de456-b358-4887-bd0e-e4c3278af887.jpg"",""img/0868/1a62b2b2-18f5-466e-b564-5176a57c565e.jpg""]","",""
"","3877","similarity","84","698798","0.0-6.0-78.0","1","[""img/0758/6cd8c362-ae2a-41eb-80a3-3a4f7ace1530.jpg"",""img/0901/443f2e59-199b-4f7b-9de9-c44ad97326a5.jpg""]","",""
"","3594","similarity","85","703398","0.0-6.0-79.0","3","[""img/0881/62a64f90-7a72-4aee-a1a1-0c548ac9bdda.jpg"",""img/0898/81b08535-2020-4c15-9ce4-2f1e460755ae.jpg""]","",""
"","4475","similarity","86","708879","0.0-6.0-80.0","2","[""img/0867/c66898ba-b71b-4d50-84f9-f7f84853a98d.jpg"",""img/0758/9fb5b2fe-3f00-4fe6-973c-1ce10d5f4cd5.jpg""]","",""
"","3718","similarity","87","713602","0.0-6.0-81.0","2","[""img/0769/c7cfacc3-7f07-46ff-9f5d-8073f4c4679b.jpg"",""img/0899/51a7a498-98c7-42d7-bca8-bc2d8f0b5831.jpg""]","",""
"","3591","similarity","88","718200","0.0-6.0-82.0","7","[""img/0903/6b5dcc60-3ad3-4962-93e5-e6cf768477af.jpg"",""img/0903/470acfd5-5571-4a7b-b3a4-28d87e098138.jpg""]","",""
"","3463","similarity","89","776879","0.0-6.0-83.0","2","[""img/0867/98d8cd96-1476-4fe0-a3a3-04f875500a1b.jpg"",""img/0766/09f646c8-a69e-4ed3-879c-8d29b04ad7f9.jpg""]","",""
"","3707","similarity","90","781588","0.0-6.0-84.0","3","[""img/0902/c018bd7a-d91a-4192-aea4-7259cfcdb6c4.jpg"",""img/0867/6e19c858-b606-45b2-a4c6-910a73f1d82c.jpg""]","",""
"","3393","similarity","91","785987","0.0-6.0-85.0","3","[""img/0901/b9141736-3041-4385-a586-b1fe911c76a5.jpg"",""img/0875/f87b67d7-c33e-40d1-b281-248c4be1cb6e.jpg""]","",""
"","4974","similarity","92","791967","0.0-6.0-86.0","1","[""img/0764/62fafeea-6274-48ce-976f-35d3d3484c65.jpg"",""img/0866/6f2a90d7-14f1-4f1b-bd64-fc0af6b9fe44.jpg""]","",""
"","3432","similarity","93","796404","0.0-6.0-87.0","1","[""img/0901/77087ed2-6e12-4329-b2a5-605bca6d972d.jpg"",""img/0894/bd34223a-2f66-4e16-9d18-193a746b69ff.jpg""]","",""
"","4143","similarity","94","801551","0.0-6.0-88.0","6","[""img/0898/b2732712-71c2-45d8-834f-2b2ed5504910.jpg"",""img/0769/38a88f69-28fd-4bbd-99f0-f4c02bfd3995.jpg""]","",""
"","3749","similarity","95","806304","0.0-6.0-89.0","7","[""img/0769/ecda2fb3-556b-43ba-8a67-e87dd75ff2b4.jpg"",""img/0894/3664e04c-c6d3-4c9b-afb6-25d89974b174.jpg""]","",""
"","4549","similarity","96","811856","0.0-6.0-90.0","6","[""img/0862/f43ceabf-acc1-4107-b857-5d1849808f93.jpg"",""img/0874/adf9a8f1-c40b-402b-b95b-1e85a54a7b62.jpg""]","",""
"","3258","similarity","97","816119","0.0-6.0-91.0","1","[""img/0894/7dd6ff43-f8fc-408a-8a41-a2b261871820.jpg"",""img/0766/d50d734f-285c-4840-bc7a-c8dd4aff391e.jpg""]","",""
"","2828","similarity","98","819951","0.0-6.0-92.0","1","[""img/0874/995f0332-0439-4eb4-add3-957335dbf6d9.jpg"",""img/0867/c71dc569-f49c-4397-8381-68b8d726736d.jpg""]","",""
"","2663","similarity","99","823620","0.0-6.0-93.0","1","[""img/0899/0e1d936a-dbe2-4afc-9f19-7b7a1ae6c9ed.jpg"",""img/0868/77091fc7-a590-4ebb-b915-fdb2483a2399.jpg""]","",""
"","3394","similarity","100","828020","0.0-6.0-94.0","3","[""img/0903/f1fa0f8d-e62b-4b4a-a174-31a0fabfe61b.jpg"",""img/0862/5d887e9f-89e2-4ebc-80a0-6d46fe6480db.jpg""]","",""
"","6043","similarity","101","835069","0.0-6.0-95.0","5","[""img/0899/56a605c3-d0a2-4215-89e1-779279d85a7c.jpg"",""img/0766/d14acac4-7db1-4b07-8f8f-302437326fc0.jpg""]","",""
"","3123","similarity","102","839196","0.0-6.0-96.0","7","[""img/0867/f8488a47-94ee-4166-952c-44e16cf172f6.jpg"",""img/0868/e0aff734-077f-40dd-9781-74821abd3621.jpg""]","",""
"","4108","similarity","103","844309","0.0-6.0-97.0","6","[""img/0862/e697469a-ec19-4414-b972-7b9f3564785b.jpg"",""img/0901/d4d09bf5-093e-4050-838e-7c738be8e63c.jpg""]","",""
"","2956","similarity","104","848270","0.0-6.0-98.0","1","[""img/0875/d59ff733-eaff-4ee2-9443-06954dd0bcb6.jpg"",""img/0766/717fd72f-a281-499b-a5ba-5e2ecc4d4866.jpg""]","",""
"","3995","similarity","105","853269","0.0-6.0-99.0","6","[""img/0758/a709631e-3705-4725-ac40-f0d916924f08.jpg"",""img/0874/c0378dac-9370-439a-8b79-db27c96fb390.jpg""]","",""
"","3044","similarity","106","857318","0.0-6.0-100.0","2","[""img/0904/25365108-e038-4021-aac9-797f2063b337.jpg"",""img/0868/83b4350a-3b70-4cea-b7f5-b5b56f3050a8.jpg""]","",""
"","4585","similarity","107","862908","0.0-6.0-101.0","2","[""img/0903/71dbc325-b588-4297-a5cf-7f268a722ad9.jpg"",""img/0866/f756f7d1-9ad8-4a34-9ef6-7a443d705bfe.jpg""]","",""
"","3846","similarity","108","867759","0.0-6.0-102.0","3","[""img/0868/c8ac40c7-6904-4e13-8d61-c75d3052dc4e.jpg"",""img/0769/662ab839-88d1-4ebf-af05-9b2980cad943.jpg""]","",""
"","3538","similarity","109","872301","0.0-6.0-103.0","1","[""img/0902/b03129ba-b087-4558-af37-e8399d6217d6.jpg"",""img/0899/7b7380d5-d2be-44e5-a09a-c1756f87ef71.jpg""]","",""
"","4543","similarity","110","877849","0.0-6.0-104.0","2","[""img/0868/d6d1f30d-4323-435a-b194-7892521bc57e.jpg"",""img/0862/d0ca4c78-fc35-46ed-bdcc-8e124283c53e.jpg""]","",""
"","3958","similarity","111","882810","0.0-6.0-105.0","1","[""img/0903/d987e220-f3e6-4b6d-a270-fe6757041f6d.jpg"",""img/0894/6b2e9509-8699-42b7-9582-7741df0ba2d7.jpg""]","",""
"","3961","similarity","112","887776","0.0-6.0-106.0","3","[""img/0864/5f74a653-3bdc-4308-8cca-ac667dc22e1f.jpg"",""img/0874/767f289c-9814-4496-803f-745cc8913d1f.jpg""]","",""
"","3996","similarity","113","892779","0.0-6.0-107.0","3","[""img/0862/92fcd8a4-8193-4a6a-ae09-dd4a6338b0df.jpg"",""img/0902/97022122-01e4-46c3-a34f-c6260ad28428.jpg""]","",""
"","4476","similarity","114","898260","0.0-6.0-108.0","7","[""img/0904/696ebb60-8891-417a-91fd-c53218907a95.jpg"",""img/0903/3e9ee8a5-eb66-47f5-8973-8a5af1ddc87e.jpg""]","",""
"","3535","similarity","115","902799","0.0-6.0-109.0","5","[""img/0764/ba0c0955-acbb-457d-b1c2-f006b88121d5.jpg"",""img/0864/f92649a2-0590-4d31-9a7a-1bfb81666a2d.jpg""]","",""
"","3391","similarity","116","907194","0.0-6.0-110.0","2","[""img/0866/945c6710-d15b-4a5b-a8f6-69af0850357f.jpg"",""img/0894/767a0eec-1064-46b1-b1aa-dfa02b0cd74e.jpg""]","",""
"","2941","similarity","117","911139","0.0-6.0-111.0","1","[""img/0899/9de5e857-aa9a-4e0c-8ba2-46d79bd069a4.jpg"",""img/0903/14f179a2-8786-48a2-8377-88d1d404341b.jpg""]","",""
"","4860","similarity","118","917005","0.0-6.0-112.0","5","[""img/0902/bd89a85f-3853-4786-acd6-98818ee29f1c.jpg"",""img/0904/96e503ea-6630-4996-85f2-0237688ce441.jpg""]","",""
"","5597","similarity","119","923608","0.0-6.0-113.0","3","[""img/0864/c3b63e8f-ea39-4d70-a1f2-b3fe4be8eb75.jpg"",""img/0860/9593362c-9fe5-4d12-9735-6000a11f6aa5.jpg""]","",""
"","3408","similarity","120","928021","0.0-6.0-114.0","1","[""img/0860/c7047cd2-7cc1-41b6-8a34-c0986774975f.jpg"",""img/0899/00715b3f-851b-420b-a26b-d7f79f7759a9.jpg""]","",""
"","3498","similarity","121","932526","0.0-6.0-115.0","4","[""img/0881/2a8413be-fec2-4de6-88ad-614dd4cccc9d.jpg"",""img/0903/150cf64c-0bd2-4674-abbb-a1387cf1f3e9.jpg""]","",""
"","4313","similarity","122","937844","0.0-6.0-116.0","2","[""img/0894/6aa5545f-fa7d-4286-bbaa-aaf34dc7ec96.jpg"",""img/0874/2c9464dd-8a23-4baa-ac94-1ba3af5c15cc.jpg""]","",""
"","4325","similarity","123","943175","0.0-6.0-117.0","3","[""img/0881/0c7068da-d0d9-4103-bda1-74ef7a2b32c3.jpg"",""img/0862/f23038d4-c366-4f70-979f-66b62362efa4.jpg""]","",""
"","4369","similarity","124","948548","0.0-6.0-118.0","2","[""img/0868/4e626425-63c8-484a-8a1d-e66ee4e0bef8.jpg"",""img/0875/ebf7653f-ff45-4e9f-af58-2c042ab3cd2b.jpg""]","",""
"","4625","similarity","125","954178","0.0-6.0-119.0","5","[""img/0860/4a022222-056d-461c-ab02-39fac9647552.jpg"",""img/0758/53f35650-e455-4b53-8be4-c3c8271c6466.jpg""]","",""
"","3696","similarity","126","958880","0.0-6.0-120.0","5","[""img/0864/0f537697-a314-47c3-a8cc-8df23b7e536c.jpg"",""img/0875/dbdd643e-6d0e-4a5c-ab57-b9c29b9c981a.jpg""]","",""
"","2627","similarity","127","962512","0.0-6.0-121.0","1","[""img/0898/26c41340-15bd-4ead-8fe4-c0d0ddca09c2.jpg"",""img/0866/c446214b-a368-4c65-ae39-ea46894256ab.jpg""]","",""
"","4076","similarity","128","967593","0.0-6.0-122.0","2","[""img/0874/3ce41e7c-40c8-4d58-a546-171114521796.jpg"",""img/0904/fe746a3f-8458-48d0-8a13-8cba2a9df9f8.jpg""]","",""
"","3759","similarity","129","972355","0.0-6.0-123.0","2","[""img/0904/e9423a8c-f946-43ad-ab7b-931acef870e2.jpg"",""img/0864/e336a4c5-6648-4fd7-b2f6-93a3fb83f8c6.jpg""]","",""
"","4352","similarity","130","977720","0.0-6.0-124.0","3","[""img/0894/5a49e858-2850-4892-9a06-e9f0efb5f94d.jpg"",""img/0902/44cd9b7e-fdfb-4f78-90de-8d4c9d279365.jpg""]","",""
"","2618","similarity","131","991179","0.0-6.0-125.0","1","[""img/0868/fd307a36-9a3a-47d7-ab7c-f810d0b35040.jpg"",""img/0864/65210d57-1153-4657-886a-32e758f49b4a.jpg""]","",""
"","3084","similarity","132","995268","0.0-6.0-126.0","3","[""img/0899/f95cbdb4-f804-4f5d-ad76-373ad343e658.jpg"",""img/0866/d266fece-59b3-46fa-b69f-96f6efb81b59.jpg""]","",""
"","2991","similarity","133","999264","0.0-6.0-127.0","5","[""img/0875/8521fd58-3b1e-4dc5-97ae-804edfa6734a.jpg"",""img/0904/4b8daf2a-13a9-4ea9-9e0b-b265b6e933e7.jpg""]","",""
"","4212","similarity","134","1004481","0.0-6.0-128.0","4","[""img/0867/f26f6b60-f772-4f4c-95a4-addc62cfd692.jpg"",""img/0899/66bf4113-ee12-426c-84d2-ea410b6c803e.jpg""]","",""
"","3398","similarity","135","1008891","0.0-6.0-129.0","2","[""img/0901/f469cb1d-6d81-4a45-bab5-cd0b650c2b4f.jpg"",""img/0867/bf560d4f-dee3-4f11-a385-705cc1aa5f3c.jpg""]","",""
"","5526","similarity","136","1015421","0.0-6.0-130.0","5","[""img/0864/4bd81bc6-c13d-46df-95a9-485886dc7c1b.jpg"",""img/0769/b664b502-a86c-46c1-ad6f-5ebffc2e1bd3.jpg""]","",""
"","3563","similarity","137","1019989","0.0-6.0-131.0","3","[""img/0903/72197c2b-403e-4a26-b391-f1aa8dea4b76.jpg"",""img/0868/4bd5105a-d2c3-4f82-8c80-57196106ba53.jpg""]","",""
"","3535","similarity","138","1024530","0.0-6.0-132.0","1","[""img/0864/5f33e097-23e3-4002-882d-76e8cb15f451.jpg"",""img/0867/de92135f-5b65-4ed9-b245-188292c7c2f8.jpg""]","",""
"","3239","similarity","139","1028774","0.0-6.0-133.0","3","[""img/0901/7d4a3388-488d-4e9b-9d32-9d0def7aae8d.jpg"",""img/0860/31ff6436-98bf-4652-bed2-40f627229568.jpg""]","",""
"","5897","similarity","140","1035677","0.0-6.0-134.0","5","[""img/0881/ee44e27f-d662-4608-b265-e7ffa19b216f.jpg"",""img/0766/60033a74-9919-47e5-913c-71d0d483e7e5.jpg""]","",""
"","3257","similarity","141","1039939","0.0-6.0-135.0","1","[""img/0903/59defeb8-98bd-4570-a2f8-9bd189e68ef4.jpg"",""img/0864/ef9cbca0-4be8-435d-ad49-977259e80409.jpg""]","",""
"","3024","similarity","142","1043968","0.0-6.0-136.0","2","[""img/0758/dd559618-7f09-4a07-8018-d311c4a5ea29.jpg"",""img/0894/0130a973-d993-41f8-874a-fee23d9ac11f.jpg""]","",""
"","4089","similarity","143","1049063","0.0-6.0-137.0","3","[""img/0769/1d8734c4-77ab-4165-9e71-5cfe672ff01c.jpg"",""img/0860/18dfed73-e36b-4487-a8bd-0b8cff8e3668.jpg""]","",""
"","3957","similarity","144","1054026","0.0-6.0-138.0","1","[""img/0904/65e2b70a-b184-4da3-b5c0-5038bdf9469a.jpg"",""img/0766/6d32752d-aa05-40dc-9541-640b6e9d6fa1.jpg""]","",""
"","3932","similarity","145","1058963","0.0-6.0-139.0","4","[""img/0868/179a5502-ab5c-478e-8263-5a1fbcc101d2.jpg"",""img/0860/29a21a9f-54bb-4093-ad3f-04823ceaa89f.jpg""]","",""
"","3979","similarity","146","1063947","0.0-6.0-140.0","4","[""img/0758/20497cbe-ddae-489e-86e2-ab06985ed07c.jpg"",""img/0864/49150900-7f25-4ce8-8d10-9b47a71d1997.jpg""]","",""
"","3712","similarity","147","1068665","0.0-6.0-141.0","5","[""img/0867/85a96c62-548f-4994-9553-819e03c3135a.jpg"",""img/0867/a498eef3-9fa4-4ab2-9778-4ae82ac40dc5.jpg""]","",""
"","2891","similarity","148","1072562","0.0-6.0-142.0","7","[""img/0898/661621d4-a14e-487c-8c74-354134a29710.jpg"",""img/0898/b3290bf9-215b-4b45-b21a-65bdf73f142f.jpg""]","",""
"","5737","similarity","149","1079304","0.0-6.0-143.0","3","[""img/0866/386235d2-6857-41e7-88a8-25cfc3430025.jpg"",""img/0769/ebef2ddc-ba59-4e0e-97f8-927864eb5081.jpg""]","",""
"","5477","similarity","150","1085786","0.0-6.0-144.0","2","[""img/0860/8fdba999-b946-4c7d-9891-336018b563ef.jpg"",""img/0898/5f699581-3853-4547-856c-12f419ba5af7.jpg""]","",""
"","4512","similarity","151","1091302","0.0-6.0-145.0","5","[""img/0766/5d6e0d1d-4369-41f0-a64c-91f3503055c7.jpg"",""img/0864/a248adb3-c70b-4652-b7a3-776d2a1e904b.jpg""]","",""
"","3209","similarity","152","1095515","0.0-6.0-146.0","6","[""img/0860/c3379ff7-0763-48fe-a1ec-7ea3d611bc7a.jpg"",""img/0903/36e4ab1f-caa9-40b3-8616-faada076df94.jpg""]","",""
"","3286","similarity","153","1099806","0.0-6.0-147.0","3","[""img/0867/7d1c497b-c1b3-4ed8-abb5-d7f73306015f.jpg"",""img/0764/c84fbfa8-521c-407a-9bd3-24f7308d896c.jpg""]","",""
"","3924","similarity","154","1104734","0.0-6.0-148.0","4","[""img/0769/da36e3f7-2337-434f-ab57-11822dd7eed7.jpg"",""img/0904/60d1a521-edf7-4696-9263-f21ac0e62a01.jpg""]","",""
"","2989","similarity","155","1108728","0.0-6.0-149.0","1","[""img/0764/f713847b-4832-42d1-8fb3-e17e37fd745c.jpg"",""img/0901/12da1841-e611-435c-9719-109413d536a8.jpg""]","",""
"","4378","similarity","156","1114112","0.0-6.0-150.0","6","[""img/0904/0d17b811-063e-416e-a23c-3b3cfa4fcce5.jpg"",""img/0899/76ad07e2-ca25-45eb-84f2-8d80b8ca3e26.jpg""]","",""
"","4469","similarity","157","1119587","0.0-6.0-151.0","1","[""img/0862/eefa5588-9efd-4591-aa5f-a2e17c7d7bcc.jpg"",""img/0867/db7e032f-162b-46f5-ae67-2b29679adee4.jpg""]","",""
"","3441","similarity","158","1124034","0.0-6.0-152.0","7","[""img/0766/fd064894-7147-4af5-97e9-2089d5472656.jpg"",""img/0766/535849cc-ff5d-4df9-8f31-0ce94a97d571.jpg""]","",""
"","3834","similarity","159","1128873","0.0-6.0-153.0","5","[""img/0862/1c20f772-3a51-4a80-aac0-f57dc9f86c28.jpg"",""img/0894/c505c65a-cde2-4f2c-8cde-f8676f7c894d.jpg""]","",""
"","2432","similarity","160","1132310","0.0-6.0-154.0","1","[""img/0899/0433d056-aa30-4f8a-9aa1-abbb951e4edd.jpg"",""img/0901/00acf6c1-b66e-4060-bb04-4caf29b5a8b0.jpg""]","",""
"","3004","similarity","161","1136318","0.0-6.0-155.0","7","[""img/0874/31e22c7c-99aa-40b1-bf03-dd73fa2df4d6.jpg"",""img/0874/eba003b4-cdab-4eee-8bc3-f064c7d94165.jpg""]","",""
"","3070","similarity","162","1140394","0.0-6.0-156.0","2","[""img/0860/61fb959d-d4d9-4de4-9e4e-4fa62b4cfcd5.jpg"",""img/0867/12264664-1860-46df-8c21-162b9817cdda.jpg""]","",""
"","3127","similarity","163","1144526","0.0-6.0-157.0","1","[""img/0901/168eb52c-c415-43f1-b5c8-e76e1a1ec247.jpg"",""img/0881/b1a136f7-8511-4d3a-a0f6-3879acf1e1a1.jpg""]","",""
"","6469","similarity","164","1152000","0.0-6.0-158.0","2","[""img/0903/8f7f9939-b8e6-433f-93dd-b362496c80a7.jpg"",""img/0902/6730b12a-f0a7-4587-8c10-a32fae16565b.jpg""]","",""
"","4520","similarity","165","1157525","0.0-6.0-159.0","1","[""img/0860/e8b8c51e-1834-4875-8b61-6c5bc9b178bd.jpg"",""img/0764/23ea9375-f801-4a96-9925-7d453da887c7.jpg""]","",""
"","2476","similarity","166","1161005","0.0-6.0-160.0","1","[""img/0902/71c03003-03ef-4b0f-8229-e0c857150a5d.jpg"",""img/0875/2c361b79-c3d1-4eda-812e-bf03192407bf.jpg""]","",""
"","4503","similarity","167","1166514","0.0-6.0-161.0","3","[""img/0898/cd3aaa3f-efa9-4ab3-8d6f-a6a9273ddf42.jpg"",""img/0862/de9ad88c-b522-430a-8ee9-eb06a9f85df5.jpg""]","",""
"","3813","similarity","168","1171331","0.0-6.0-162.0","1","[""img/0894/38f5931f-926d-414e-b498-66b188978b7a.jpg"",""img/0875/99698b4d-b4a1-44bc-8c83-8ea755bbbf61.jpg""]","",""
"","3195","similarity","169","1175530","0.0-6.0-163.0","4","[""img/0866/a04d37f0-99dd-478a-b6c6-58b215138f84.jpg"",""img/0864/87c467d3-abca-482f-ad80-3766c21b1bb3.jpg""]","",""
"","5070","similarity","170","1181605","0.0-6.0-164.0","5","[""img/0766/1865bfc9-2410-4765-a804-3ae4ba2393d0.jpg"",""img/0862/e8cc3bdf-cc43-4565-bccf-492626c70953.jpg""]","",""
"","3796","similarity","171","1186407","0.0-6.0-165.0","5","[""img/0866/07c9c966-3c8d-40e7-8128-92b2acbaed5d.jpg"",""img/0874/a82926a3-0b43-4add-803c-d5f9ea7798ee.jpg""]","",""
"","3428","similarity","172","1190841","0.0-6.0-166.0","6","[""img/0862/99a99e39-8355-44ec-b993-e7bcec111e1c.jpg"",""img/0860/b03b963d-949b-4d8d-b19c-4950c89eeca2.jpg""]","",""
"","3334","similarity","173","1202519","0.0-6.0-167.0","4","[""img/0766/006035d8-c736-4daf-bbe4-a9e373af9da6.jpg"",""img/0901/b123d109-47b4-4f9a-80c9-9bb16da42efa.jpg""]","",""
"","5263","similarity","174","1208787","0.0-6.0-168.0","6","[""img/0862/4f0a3b4c-afbf-486e-b248-1d54982f54b4.jpg"",""img/0862/f188d4f0-76a4-4102-818c-a209969d73a5.jpg""]","",""
"","3675","similarity","175","1213468","0.0-6.0-169.0","6","[""img/0894/5c7677b0-a4f1-479e-b274-7822c415175a.jpg"",""img/0764/b328441c-f81c-486c-9eae-b947c70ba7cd.jpg""]","",""
"","4366","similarity","176","1218839","0.0-6.0-170.0","5","[""img/0874/99f6563c-8a8d-4c1c-a41d-667b618c3fd5.jpg"",""img/0898/a114b375-cb89-44ba-9498-74213f1ecdee.jpg""]","",""
"","4903","similarity","177","1224748","0.0-6.0-171.0","3","[""img/0860/99c589b9-9140-4d17-90c0-b344323edcda.jpg"",""img/0766/91fc8c4d-862f-4d2b-b1a1-2db8d729b6b7.jpg""]","",""
"","4066","similarity","178","1229820","0.0-6.0-172.0","1","[""img/0898/40f99fb2-64d2-4e72-8a7f-a1cf60741e69.jpg"",""img/0864/3d4de670-b290-4285-9c3d-12a0e3af44e9.jpg""]","",""
"","4032","similarity","179","1234858","0.0-6.0-173.0","5","[""img/0881/b549bc99-a61c-4450-bab5-9efc3a197bf0.jpg"",""img/0764/e42c1dc9-7831-4995-be19-7ca7b4d141fc.jpg""]","",""
"","4257","similarity","180","1240120","0.0-6.0-174.0","1","[""img/0898/68476bbb-34a1-42d9-8bc1-deab783d4489.jpg"",""img/0868/09a9ef4d-d000-4cfa-a6aa-ebec7c2edeb4.jpg""]","",""
"","3735","similarity","181","1244859","0.0-6.0-175.0","7","[""img/0864/e8bd659f-aa43-4748-877e-3118e8b4e189.jpg"",""img/0864/da39ad34-04e0-40d4-a724-c08d53e0ea09.jpg""]","",""
"","3650","similarity","182","1249514","0.0-6.0-176.0","6","[""img/0899/a05bea16-2bb4-4cb9-b8fb-4ff975db6971.jpg"",""img/0862/cdaed51d-9e2f-4807-801a-4663c40077e2.jpg""]","",""
"","4053","similarity","183","1254573","0.0-6.0-177.0","2","[""img/0875/cff79b3a-a797-4393-9757-6275f999ec04.jpg"",""img/0758/b76ceca7-95ac-46e4-ac13-da02c8e93be9.jpg""]","",""
"","3798","similarity","184","1259376","0.0-6.0-178.0","6","[""img/0866/0207e9a2-7dbb-40b5-9459-b472aaeceb2a.jpg"",""img/0901/ae1e6ce4-2e10-4ca9-b1e7-21628637ab74.jpg""]","",""
"","3602","similarity","185","1263983","0.0-6.0-179.0","7","[""img/0769/f6396414-6788-4d59-9683-de153298d89c.jpg"",""img/0874/bf14b896-e930-4fd9-9c05-2e83317a2773.jpg""]","",""
"","3454","similarity","186","1268442","0.0-6.0-180.0","2","[""img/0875/e7e66b13-b573-431e-b85e-288ce04a35a3.jpg"",""img/0881/667e2147-d457-4f32-aa5f-6ab86e5848f1.jpg""]","",""
"","3222","similarity","187","1272670","0.0-6.0-181.0","7","[""img/0866/4a87911a-d5be-4d4e-ab8e-3d1f581bf507.jpg"",""img/0868/d98ca254-b195-477f-b57e-5760a2717db8.jpg""]","",""
"","3321","similarity","188","1276996","0.0-6.0-182.0","6","[""img/0899/ddf96ade-692e-4602-bd22-dedbb46401bc.jpg"",""img/0758/caa93da2-9edf-49fa-96b9-32dedd8f5078.jpg""]","",""
"","4334","similarity","189","1282335","0.0-6.0-183.0","2","[""img/0874/29830da7-be5f-44e5-b141-652a0ccf7269.jpg"",""img/0875/5a716432-c6ca-4b1c-955a-2b8ac25198ee.jpg""]","",""
"","3018","similarity","190","1286357","0.0-6.0-184.0","5","[""img/0904/ba8e689e-9ca6-4608-a2a1-3b0940666ae6.jpg"",""img/0862/57b6f83f-c763-4858-830d-102f97bfefbf.jpg""]","",""
"","2557","similarity","191","1289919","0.0-6.0-185.0","4","[""img/0902/2db723b6-130f-454c-8c8d-88829edbcd65.jpg"",""img/0766/d5d38751-8fa5-476f-93e9-86ed2d9045ef.jpg""]","",""
"","2404","similarity","192","1293327","0.0-6.0-186.0","4","[""img/0758/ddc336e9-a8b6-4bb9-937a-c7e25e0e9250.jpg"",""img/0769/c34b7763-8ff2-46d5-9e92-f1d8f3bedbd8.jpg""]","",""
"","3599","similarity","193","1297930","0.0-6.0-187.0","7","[""img/0881/7e31e5dc-2240-4b1b-b5a0-3acd980099ef.jpg"",""img/0881/f4e3e181-b3c9-4af2-a5a4-fc135ab70d2e.jpg""]","",""
"","3815","similarity","194","1302750","0.0-6.0-188.0","2","[""img/0758/2fa3e613-e676-4e6e-bd12-705327eeb3e1.jpg"",""img/0866/9b38d691-1802-4959-ab3f-fc902f0e4ea6.jpg""]","",""
"","4313","similarity","195","1308069","0.0-6.0-189.0","4","[""img/0764/952d7adc-dc40-4aee-acce-18c2a1d02ea1.jpg"",""img/0898/8605a25b-6895-476d-8c13-df7a83f96093.jpg""]","",""
"","3724","similarity","196","1312799","0.0-6.0-190.0","3","[""img/0903/776b74ee-a8ab-4ab8-a78d-097c0747538d.jpg"",""img/0901/8bb79e82-9c43-4b6f-a655-40655519598b.jpg""]","",""
"","5245","similarity","197","1319049","0.0-6.0-191.0","5","[""img/0902/31abfa33-7cdb-44ad-968e-9f7b324d577a.jpg"",""img/0898/6cd3830b-d44e-4915-be2b-88d31424b91c.jpg""]","",""
"","3302","similarity","198","1323356","0.0-6.0-192.0","2","[""img/0864/ea327690-500b-4137-bf91-451b309fe6a5.jpg"",""img/0901/a9b9c0a0-8aed-4888-a78a-65fb7e764d13.jpg""]","",""
"","3394","similarity","199","1327757","0.0-6.0-193.0","3","[""img/0894/38cf335f-f76f-4349-8d65-e20cd6859565.jpg"",""img/0881/54ea8e77-c7e5-4197-b7fa-00b7020849a7.jpg""]","",""
"","2532","similarity","200","1331293","0.0-6.0-194.0","7","[""img/0868/4a8a45ed-2c4f-421b-9564-409a33ecd26c.jpg"",""img/0868/7b212364-ff5f-4e28-9241-7eb6ea00161b.jpg""]","",""
"","3695","similarity","201","1335994","0.0-6.0-195.0","6","[""img/0899/25ae6ec8-9565-49fe-a8bb-8d0666f52716.jpg"",""img/0764/f64dfa83-333d-494c-87b5-73e942f1766e.jpg""]","",""
"","3057","similarity","202","1340057","0.0-6.0-196.0","5","[""img/0881/adc02f34-ce97-4aef-850f-00519df06fd7.jpg"",""img/0904/da170c1b-9651-4f08-b231-2bdd1d9a046f.jpg""]","",""
"","2609","similarity","203","1343672","0.0-6.0-197.0","7","[""img/0864/1d15626a-2f7c-410f-819c-0fa2c967e95e.jpg"",""img/0902/3b243e54-0803-4c29-af42-4037c2118495.jpg""]","",""
"","2227","similarity","204","1346904","0.0-6.0-198.0","4","[""img/0894/e2446cf5-cd48-486a-badc-76498e087fbe.jpg"",""img/0904/9d30eff1-46ef-4453-b11e-124ef8145c00.jpg""]","",""
"","2923","similarity","205","1350831","0.0-6.0-199.0","7","[""img/0901/2a953e50-d237-405c-a38d-5ed21494c968.jpg"",""img/0901/a0d65c84-3f20-476a-92d1-0c01e8019cf4.jpg""]","",""
"","3190","similarity","206","1355027","0.0-6.0-200.0","5","[""img/0894/2d2db7b3-e8a3-499b-b63a-14f51bf73882.jpg"",""img/0860/e14d67c1-6d92-4f1e-9257-c8607159c19c.jpg""]","",""
"","2720","similarity","207","1358752","0.0-6.0-201.0","7","[""img/0898/82231d4c-218b-4d0a-b50d-35a49b524e97.jpg"",""img/0903/47e39de8-6959-469f-8be9-6999a6db207c.jpg""]","",""
"","7746","similarity","208","1367502","0.0-6.0-202.0","1","[""img/0864/66091c27-e588-4476-8af9-265dc6be4156.jpg"",""img/0894/11674fa4-285d-44e2-939f-2228c6a64080.jpg""]","",""
"","2531","similarity","209","1371037","0.0-6.0-203.0","4","[""img/0874/85eb9b8a-c4c6-4e5a-b8e7-363a87a82054.jpg"",""img/0860/d9a0d117-6d1d-41c0-8fec-9aff0fd9e9f2.jpg""]","",""
"","2408","similarity","210","1374449","0.0-6.0-204.0","4","[""img/0862/47ed5efd-4ec9-4b74-bb4e-a5f5cf0c3e7d.jpg"",""img/0875/34132396-d896-4c2d-8087-646dd867e769.jpg""]","",""
"","3248","similarity","211","1378700","0.0-6.0-205.0","1","[""img/0867/cc72ed48-7704-422c-86d6-467a1145287a.jpg"",""img/0881/7e822106-76f7-4b10-a805-14dc68b2cfaf.jpg""]","",""
"","2797","similarity","212","1382501","0.0-6.0-206.0","5","[""img/0901/58ec7fa9-b466-4651-90aa-c082df0972de.jpg"",""img/0902/417d8b4a-3c72-4adc-ac78-820e833316f2.jpg""]","",""
"","2261","similarity","213","1385766","0.0-6.0-207.0","4","[""img/0899/f58b8d2f-b19d-4b59-8b94-8834be92e4ba.jpg"",""img/0864/c22faebd-9c53-47bc-ada3-b9a30c688e75.jpg""]","",""
"","2800","similarity","214","1389572","0.0-6.0-208.0","4","[""img/0901/fb0a8e69-7f19-4e6e-a6bb-a48f97f9b4f3.jpg"",""img/0769/5bd04f55-d091-4f57-85db-38426f26bd1a.jpg""]","",""
"","3238","similarity","215","1396982","0.0-6.0-209.0","2","[""img/0902/94ee9c53-a9a2-4f95-b9b7-794a5fc62bb6.jpg"",""img/0902/22ed3536-288b-452e-9777-0fa0ab94deb0.jpg""]","",""
"[{""page_index"":0,""viewing_time"":7169}]","7169","instructions","216","1405152","0.0-7.0","","","",""
"","16641","image-multi-choice","217","1422812","0.0-8.0-0.0","","","{""Q0"":""Nashville Warbler""}","Nashville Warbler"
"","5493","image-multi-choice","218","1429317","0.0-8.0-1.0","","","{""Q0"":""Black-and-white Warbler""}","Black-and-white Warbler"
"","4814","image-multi-choice","219","1435144","0.0-8.0-2.0","","","{""Q0"":""Swamp Sparrow""}","Townsend's Warbler"
"","6507","image-multi-choice","220","1442663","0.0-8.0-3.0","","","{""Q0"":""White-crowned Sparrow""}","Lark Sparrow"
"","3833","image-multi-choice","221","1447510","0.0-8.0-4.0","","","{""Q0"":""Yellow Warbler""}","Yellow Warbler"
"","6696","image-multi-choice","222","1455218","0.0-8.0-5.0","","","{""Q0"":""Magnolia Warbler""}","Orange-crowned Warbler"
"","3246","image-multi-choice","223","1459479","0.0-8.0-6.0","","","{""Q0"":""White-throated Sparrow""}","White-throated Sparrow"
"","2794","image-multi-choice","224","1463287","0.0-8.0-7.0","","","{""Q0"":""Townsend's Warbler""}","Fox Sparrow"
"","8948","image-multi-choice","225","1473248","0.0-8.0-8.0","","","{""Q0"":""Song Sparrow""}","Song Sparrow"
"","5299","image-multi-choice","226","1479565","0.0-8.0-9.0","","","{""Q0"":""Orange-crowned Warbler""}","Blackburnian Warbler"
"","2857","image-multi-choice","227","1483433","0.0-8.0-10.0","","","{""Q0"":""Ovenbird""}","Vesper Sparrow"
"","4094","image-multi-choice","228","1488538","0.0-8.0-11.0","","","{""Q0"":""White-crowned Sparrow""}","White-crowned Sparrow"
"","3812","image-multi-choice","229","1493360","0.0-8.0-12.0","","","{""Q0"":""Lincoln's Sparrow""}","American Tree Sparrow"
"","3511","image-multi-choice","230","1497887","0.0-8.0-13.0","","","{""Q0"":""Fox Sparrow""}","Tennessee Warbler"
"","4839","image-multi-choice","231","1503740","0.0-8.0-14.0","","","{""Q0"":""Blackburnian Warbler""}","Magnolia Warbler"
"","3444","image-multi-choice","232","1508199","0.0-8.0-15.0","","","{""Q0"":""Chipping Sparrow""}","Northern Waterthrush"
"","2095","image-multi-choice","233","1511309","0.0-8.0-16.0","","","{""Q0"":""American Tree Sparrow""}","Chipping Sparrow"
"","5923","image-multi-choice","234","1518246","0.0-8.0-17.0","","","{""Q0"":""Northern Waterthrush""}","Swamp Sparrow"
"","3759","image-multi-choice","235","1523020","0.0-8.0-18.0","","","{""Q0"":""Vesper Sparrow""}","Lincoln's Sparrow"
"","3928","image-multi-choice","236","1527962","0.0-8.0-19.0","","","{""Q0"":""Lark Sparrow""}","Ovenbird"
