"view_history","rt","trial_type","trial_index","time_elapsed","internal_node_id","sim_score","stimulus","responses","answer"
"[{""page_index"":0,""viewing_time"":17584}]","17593","instructions","0","17599","0.0-0.0","","","",""
"","5909","similarity_demo","1","24611","0.0-1.0","5","[""img/866.jpg"",""img/868.jpg""]","",""
"[{""page_index"":0,""viewing_time"":12258}]","12261","instructions","2","37861","0.0-2.0","","","",""
"","3860","similarity_demo","3","42781","0.0-3.0","1","[""img/766.jpg"",""img/867.jpg""]","",""
"[{""page_index"":0,""viewing_time"":7159}]","7168","instructions","4","50953","0.0-4.0","","","",""
"[{""page_index"":0,""viewing_time"":431097}]","431111","instructions","5","483064","0.0-5.0","","","",""
"","4190","similarity","6","488387","0.0-6.0-0.0","1","[""img/0868/4a8a45ed-2c4f-421b-9564-409a33ecd26c.jpg"",""img/0901/da4fe30f-d12a-491e-96a2-5ab8ebaadd09.jpg""]","",""
"","4045","similarity","7","493492","0.0-6.0-1.0","1","[""img/0769/48a1144d-fbda-4809-991b-fc8424a32ee4.jpg"",""img/0867/6e19c858-b606-45b2-a4c6-910a73f1d82c.jpg""]","",""
"","5303","similarity","8","499836","0.0-6.0-2.0","2","[""img/0766/d14acac4-7db1-4b07-8f8f-302437326fc0.jpg"",""img/0898/01bfe666-3510-4fc7-964f-d00d28732dc8.jpg""]","",""
"","3791","similarity","9","504681","0.0-6.0-3.0","1","[""img/0902/31abfa33-7cdb-44ad-968e-9f7b324d577a.jpg"",""img/0881/adc02f34-ce97-4aef-850f-00519df06fd7.jpg""]","",""
"","4972","similarity","10","510704","0.0-6.0-4.0","7","[""img/0894/661b9f9f-4bde-487a-b1ed-87085fde6948.jpg"",""img/0894/bd34223a-2f66-4e16-9d18-193a746b69ff.jpg""]","",""
"","3735","similarity","11","515470","0.0-6.0-5.0","1","[""img/0874/767f289c-9814-4496-803f-745cc8913d1f.jpg"",""img/0899/06b0fc99-0581-461a-9913-d1a5a941ac61.jpg""]","",""
"","6103","similarity","12","522600","0.0-6.0-6.0","5","[""img/0904/4d7d70a3-9477-4921-bda0-f9531d0a5c5b.jpg"",""img/0764/d7c215ab-ea9a-45be-8d5f-417d5b9a8a17.jpg""]","",""
"","3780","similarity","13","527437","0.0-6.0-7.0","4","[""img/0899/f95cbdb4-f804-4f5d-ad76-373ad343e658.jpg"",""img/0898/0af304a2-6a7a-4082-ab7c-4450cd08cc58.jpg""]","",""
"","3022","similarity","14","531496","0.0-6.0-8.0","1","[""img/0874/2c9464dd-8a23-4baa-ac94-1ba3af5c15cc.jpg"",""img/0903/c708d08f-a108-4e04-8288-c3fcf6375db4.jpg""]","",""
"","4240","similarity","15","536789","0.0-6.0-9.0","5","[""img/0881/e6746727-7f89-47ec-b939-d98abe78372d.jpg"",""img/0758/821c68d3-5cb0-4eae-8659-30e6263fca39.jpg""]","",""
"","3428","similarity","16","541280","0.0-6.0-10.0","4","[""img/0898/68476bbb-34a1-42d9-8bc1-deab783d4489.jpg"",""img/0901/4f9cffe0-c0be-4d7f-bacd-9d51efd19b4a.jpg""]","",""
"","5265","similarity","17","547598","0.0-6.0-11.0","4","[""img/0903/36e4ab1f-caa9-40b3-8616-faada076df94.jpg"",""img/0769/11518cb3-13ea-4dd0-890c-30cfab728ade.jpg""]","",""
"","3647","similarity","18","552294","0.0-6.0-12.0","1","[""img/0764/e42c1dc9-7831-4995-be19-7ca7b4d141fc.jpg"",""img/0868/d6d1f30d-4323-435a-b194-7892521bc57e.jpg""]","",""
"","4407","similarity","19","557731","0.0-6.0-13.0","1","[""img/0867/50a1b60e-3a29-44bf-b606-d4bd3746fea9.jpg"",""img/0903/ea75f240-fb62-4edb-a709-83e858b202c0.jpg""]","",""
"","2749","similarity","20","561545","0.0-6.0-14.0","1","[""img/0766/0bf3793e-c353-45e5-ac6f-753f5f484e10.jpg"",""img/0758/a085b443-b5d7-4cb2-9ad4-b9dab0fc23f1.jpg""]","",""
"","3654","similarity","21","566234","0.0-6.0-15.0","1","[""img/0902/418b716e-63e5-4c77-93e9-95b1f5a3ddf0.jpg"",""img/0860/c47fdead-eb02-4989-b078-26f4852f44fe.jpg""]","",""
"","2957","similarity","22","570231","0.0-6.0-16.0","1","[""img/0769/0fe124d3-bcad-45f6-b64d-8f6eb8ee5251.jpg"",""img/0875/ebf7653f-ff45-4e9f-af58-2c042ab3cd2b.jpg""]","",""
"","3322","similarity","23","574579","0.0-6.0-17.0","1","[""img/0904/696ebb60-8891-417a-91fd-c53218907a95.jpg"",""img/0866/620cd1aa-0800-4414-8f6e-90342e7a99ad.jpg""]","",""
"","5265","similarity","24","580886","0.0-6.0-18.0","7","[""img/0875/f87b67d7-c33e-40d1-b281-248c4be1cb6e.jpg"",""img/0875/5a7c4e35-6514-4e12-8879-d16071da4cd6.jpg""]","",""
"","2734","similarity","25","584655","0.0-6.0-19.0","7","[""img/0758/20497cbe-ddae-489e-86e2-ab06985ed07c.jpg"",""img/0758/d540bee6-b460-4c32-ac57-bc282742d7d4.jpg""]","",""
"","3243","similarity","26","588925","0.0-6.0-20.0","1","[""img/0902/8065aa6b-4aef-4368-afa2-02c6465ca582.jpg"",""img/0874/c0378dac-9370-439a-8b79-db27c96fb390.jpg""]","",""
"","7286","similarity","27","597264","0.0-6.0-21.0","2","[""img/0764/c01e2d65-6586-441b-bef5-3c96fcd85380.jpg"",""img/0769/458d9c77-b844-40b5-bb1b-1e3bbd4da64e.jpg""]","",""
"","3248","similarity","28","601537","0.0-6.0-22.0","1","[""img/0901/b9141736-3041-4385-a586-b1fe911c76a5.jpg"",""img/0874/ca76a855-4e77-4f2f-872a-0a718153e7ed.jpg""]","",""
"","4122","similarity","29","606739","0.0-6.0-23.0","1","[""img/0875/99698b4d-b4a1-44bc-8c83-8ea755bbbf61.jpg"",""img/0903/4cbdc464-e562-4ec2-9bb6-15f894fdf528.jpg""]","",""
"","3220","similarity","30","611007","0.0-6.0-24.0","1","[""img/0769/38a88f69-28fd-4bbd-99f0-f4c02bfd3995.jpg"",""img/0881/667e2147-d457-4f32-aa5f-6ab86e5848f1.jpg""]","",""
"","2959","similarity","31","615023","0.0-6.0-25.0","1","[""img/0867/f26f6b60-f772-4f4c-95a4-addc62cfd692.jpg"",""img/0904/6291eb43-c10c-4810-a36a-101d09868b04.jpg""]","",""
"","3976","similarity","32","620052","0.0-6.0-26.0","2","[""img/0860/4a022222-056d-461c-ab02-39fac9647552.jpg"",""img/0881/633c6f40-56d9-4b48-bf1c-ecd83116eabb.jpg""]","",""
"","7156","similarity","33","628249","0.0-6.0-27.0","5","[""img/0866/23a224f3-2012-4fc8-8e0f-3c36f8de27fd.jpg"",""img/0866/d266fece-59b3-46fa-b69f-96f6efb81b59.jpg""]","",""
"","3491","similarity","34","632798","0.0-6.0-28.0","1","[""img/0764/f64dfa83-333d-494c-87b5-73e942f1766e.jpg"",""img/0862/fad1d7c1-8187-43c3-942a-0fc12183e48e.jpg""]","",""
"","4048","similarity","35","637869","0.0-6.0-29.0","1","[""img/0904/9d30eff1-46ef-4453-b11e-124ef8145c00.jpg"",""img/0758/a709631e-3705-4725-ac40-f0d916924f08.jpg""]","",""
"","3626","similarity","36","642536","0.0-6.0-30.0","5","[""img/0894/9b1333fd-3561-43bf-aee5-99b7b7ca3dc3.jpg"",""img/0899/51a7a498-98c7-42d7-bca8-bc2d8f0b5831.jpg""]","",""
"","3108","similarity","37","646833","0.0-6.0-31.0","1","[""img/0860/c7047cd2-7cc1-41b6-8a34-c0986774975f.jpg"",""img/0904/5cceabc9-de1d-4c67-989b-c28a4ef77e79.jpg""]","",""
"","4158","similarity","38","652031","0.0-6.0-32.0","5","[""img/0874/a3bc679d-619f-4db6-bb68-116dcb757d9c.jpg"",""img/0881/54ea8e77-c7e5-4197-b7fa-00b7020849a7.jpg""]","",""
"","4364","similarity","39","657438","0.0-6.0-33.0","1","[""img/0881/e046471a-35b4-4159-bbf7-3cfd201bef66.jpg"",""img/0899/a05bea16-2bb4-4cb9-b8fb-4ff975db6971.jpg""]","",""
"","3708","similarity","40","662161","0.0-6.0-34.0","2","[""img/0866/d493a2c8-66eb-44b4-be02-2f327b700b7c.jpg"",""img/0862/e697469a-ec19-4414-b972-7b9f3564785b.jpg""]","",""
"","3175","similarity","41","666375","0.0-6.0-35.0","1","[""img/0868/5fa7f9d0-f0e5-454c-8224-74d964818f56.jpg"",""img/0894/38cf335f-f76f-4349-8d65-e20cd6859565.jpg""]","",""
"","3318","similarity","42","670742","0.0-6.0-36.0","7","[""img/0860/e8b8c51e-1834-4875-8b61-6c5bc9b178bd.jpg"",""img/0860/29a21a9f-54bb-4093-ad3f-04823ceaa89f.jpg""]","",""
"","3890","similarity","43","675674","0.0-6.0-37.0","6","[""img/0862/ad593cc7-cabe-4bb7-8e14-8a447a0717b4.jpg"",""img/0864/0116ca98-293d-4fa6-a93b-5a6144ef64cc.jpg""]","",""
"","3799","similarity","44","680484","0.0-6.0-38.0","1","[""img/0766/a1ed3f0f-e338-4a26-8fe4-4370f0c9fa6e.jpg"",""img/0866/93a27239-8317-4e08-98ca-d8b1ff298e07.jpg""]","",""
"","2645","similarity","45","684156","0.0-6.0-39.0","1","[""img/0875/34132396-d896-4c2d-8087-646dd867e769.jpg"",""img/0898/4184e5a2-84ea-4f36-9b42-ae58646f6f87.jpg""]","",""
"","3507","similarity","46","688686","0.0-6.0-40.0","5","[""img/0766/1865bfc9-2410-4765-a804-3ae4ba2393d0.jpg"",""img/0769/35f2dd39-40aa-498e-b401-9f1ef2622d00.jpg""]","",""
"","3203","similarity","47","720104","0.0-6.0-41.0","1","[""img/0874/995f0332-0439-4eb4-add3-957335dbf6d9.jpg"",""img/0764/21e3292f-01ad-4238-828b-61b817857d16.jpg""]","",""
"","3377","similarity","48","724526","0.0-6.0-42.0","1","[""img/0868/6a28c3b0-3d76-498a-9fb7-ddafc665eca8.jpg"",""img/0902/0c760cc9-10ac-429e-8957-a7d51fc99683.jpg""]","",""
"","3294","similarity","49","728851","0.0-6.0-43.0","1","[""img/0875/2e13d160-eea1-416b-aff1-d37ab99ecc1d.jpg"",""img/0899/25ae6ec8-9565-49fe-a8bb-8d0666f52716.jpg""]","",""
"","6502","similarity","50","736431","0.0-6.0-44.0","2","[""img/0866/945c6710-d15b-4a5b-a8f6-69af0850357f.jpg"",""img/0860/94ef7afc-e0e6-4a15-98c6-0bfac82bc832.jpg""]","",""
"","3816","similarity","51","741276","0.0-6.0-45.0","2","[""img/0766/00891401-e4c9-4ce1-bc19-f70740d174bc.jpg"",""img/0903/6138142e-c84e-45fc-9487-c974f3d4968a.jpg""]","",""
"","3972","similarity","52","746285","0.0-6.0-46.0","5","[""img/0901/50e1d53e-a49f-4806-8610-be6dec5a2475.jpg"",""img/0904/96e503ea-6630-4996-85f2-0237688ce441.jpg""]","",""
"","3803","similarity","53","751124","0.0-6.0-47.0","1","[""img/0758/7fba58df-2a7a-4b76-8a8f-62739f97f271.jpg"",""img/0902/97022122-01e4-46c3-a34f-c6260ad28428.jpg""]","",""
"","3316","similarity","54","755478","0.0-6.0-48.0","7","[""img/0764/5d6fa3ce-9083-410c-bbdb-336a49b94cfc.jpg"",""img/0764/cbdc4f20-3a9a-4211-9b40-090699e0abcc.jpg""]","",""
"","3045","similarity","55","759566","0.0-6.0-49.0","1","[""img/0866/6f2a90d7-14f1-4f1b-bd64-fc0af6b9fe44.jpg"",""img/0902/bd89a85f-3853-4786-acd6-98818ee29f1c.jpg""]","",""
"","4182","similarity","56","764777","0.0-6.0-50.0","1","[""img/0764/03c07b98-3f18-4b71-bb70-ecff564a78d1.jpg"",""img/0758/e1ba5e53-addc-436a-b428-d34fc1b130dc.jpg""]","",""
"","6643","similarity","57","772451","0.0-6.0-51.0","2","[""img/0898/993d8f2d-bef7-4251-a193-0f93a32b7763.jpg"",""img/0894/2d2db7b3-e8a3-499b-b63a-14f51bf73882.jpg""]","",""
"","3370","similarity","58","776841","0.0-6.0-52.0","4","[""img/0875/fb732ab5-013a-4366-9f65-27811ed157e9.jpg"",""img/0866/11a1d141-be5e-443c-98c1-a9d4d9e3dec0.jpg""]","",""
"","2695","similarity","59","780554","0.0-6.0-53.0","7","[""img/0904/b5855d6a-7ef9-46ca-9215-6e9fa046e543.jpg"",""img/0904/da170c1b-9651-4f08-b231-2bdd1d9a046f.jpg""]","",""
"","4901","similarity","60","786476","0.0-6.0-54.0","7","[""img/0769/a3cfbdeb-acb3-4eac-87fb-4b117f42d4f8.jpg"",""img/0769/a1ce8d07-ba37-40de-bade-2778805521e0.jpg""]","",""
"","3561","similarity","61","791097","0.0-6.0-55.0","1","[""img/0898/6cd3830b-d44e-4915-be2b-88d31424b91c.jpg"",""img/0758/335851a0-a55b-46d8-ab05-8463eda48349.jpg""]","",""
"","6292","similarity","62","798423","0.0-6.0-56.0","5","[""img/0769/82ab9db6-4578-4e79-874f-f09100439f09.jpg"",""img/0902/d49743d6-67ae-4c2e-a939-8fd895a0f18e.jpg""]","",""
"","3972","similarity","63","803427","0.0-6.0-57.0","5","[""img/0864/f92649a2-0590-4d31-9a7a-1bfb81666a2d.jpg"",""img/0881/445edb15-bd7f-4af3-8bd5-c6ad9677bb31.jpg""]","",""
"","3367","similarity","64","807816","0.0-6.0-58.0","2","[""img/0758/d41c06bf-ebaf-454b-91c6-1a17f917b659.jpg"",""img/0868/7b212364-ff5f-4e28-9241-7eb6ea00161b.jpg""]","",""
"","3393","similarity","65","812245","0.0-6.0-59.0","1","[""img/0862/847e5208-38ec-4f36-949c-296cdd7424ee.jpg"",""img/0769/aad494cc-674d-4a08-9bfa-24a88ebe3c79.jpg""]","",""
"","3426","similarity","66","816698","0.0-6.0-60.0","2","[""img/0764/0e7ed062-f798-4366-8a24-6f430926f919.jpg"",""img/0903/5ea5bbe0-f238-4724-abe7-9ed8dee8c0ba.jpg""]","",""
"","2907","similarity","67","820617","0.0-6.0-61.0","7","[""img/0899/0e1d936a-dbe2-4afc-9f19-7b7a1ae6c9ed.jpg"",""img/0899/d60714ae-98d7-4564-8c98-94dba1351135.jpg""]","",""
"","4962","similarity","68","826622","0.0-6.0-62.0","3","[""img/0860/31ff6436-98bf-4652-bed2-40f627229568.jpg"",""img/0875/cff79b3a-a797-4393-9757-6275f999ec04.jpg""]","",""
"","4444","similarity","69","832084","0.0-6.0-63.0","3","[""img/0868/0d3abd3a-b6c3-4584-a9f7-e2da63748b3d.jpg"",""img/0874/3f471690-9788-4d03-90c7-f615aecef149.jpg""]","",""
"","3678","similarity","70","836803","0.0-6.0-64.0","3","[""img/0758/eabcd7a8-56ad-4fd2-bc24-90f6b7b33265.jpg"",""img/0862/92f0146c-20c4-482e-aef5-adb693790338.jpg""]","",""
"","6397","similarity","71","844223","0.0-6.0-65.0","5","[""img/0904/9dd5708f-3f8b-46a9-b49f-2f2fab87b357.jpg"",""img/0898/e167334e-cc1d-4986-b3b1-c7bc7da64baa.jpg""]","",""
"","3932","similarity","72","849188","0.0-6.0-66.0","3","[""img/0881/db77fe00-aeb0-4d1d-aa66-f3a96fd077e4.jpg"",""img/0866/bf14b5bd-fb55-47db-86b9-4f8aeb9a6dad.jpg""]","",""
"","3506","similarity","73","853713","0.0-6.0-67.0","1","[""img/0867/26611f4e-d694-4460-b7e2-43c62753ddc3.jpg"",""img/0898/04e39a7a-fcf6-4156-ab0e-f5871f335e1c.jpg""]","",""
"","7469","similarity","74","862209","0.0-6.0-68.0","4","[""img/0902/962f645e-9b55-4628-9b50-c703422bfe1a.jpg"",""img/0764/a3226bc4-dcc3-4608-bde8-1414d685ce5c.jpg""]","",""
"","5860","similarity","75","869092","0.0-6.0-69.0","3","[""img/0875/03c3c331-738b-4446-af92-3d7386b08c2e.jpg"",""img/0867/075e0f95-856b-4cbb-acf5-092393aaf04e.jpg""]","",""
"","4405","similarity","76","874518","0.0-6.0-70.0","6","[""img/0766/3c526a07-9e0a-4ae2-8142-00085f0127da.jpg"",""img/0764/f2f23359-8e82-41d3-8900-5b9f4433991d.jpg""]","",""
"","3270","similarity","77","878807","0.0-6.0-71.0","1","[""img/0894/3664e04c-c6d3-4c9b-afb6-25d89974b174.jpg"",""img/0867/8ba0c5a7-c7e4-42cf-a80a-543763b90779.jpg""]","",""
"","2803","similarity","78","882628","0.0-6.0-72.0","1","[""img/0875/42910c99-5463-450a-a0f8-d4d060a11455.jpg"",""img/0764/974d52cc-6318-4e7a-b294-2f3e92ff800f.jpg""]","",""
"","3770","similarity","79","887442","0.0-6.0-73.0","6","[""img/0867/85a96c62-548f-4994-9553-819e03c3135a.jpg"",""img/0866/4a87911a-d5be-4d4e-ab8e-3d1f581bf507.jpg""]","",""
"","3624","similarity","80","892097","0.0-6.0-74.0","1","[""img/0903/647ce311-8c71-479a-8361-961db1457139.jpg"",""img/0758/9fb5b2fe-3f00-4fe6-973c-1ce10d5f4cd5.jpg""]","",""
"","2881","similarity","81","895999","0.0-6.0-75.0","1","[""img/0766/5d1b8041-c5a1-4b02-b4fe-3453d98a0d72.jpg"",""img/0868/293079b8-7e0c-4afd-a390-1e5d35fe3ded.jpg""]","",""
"","2695","similarity","82","899726","0.0-6.0-76.0","1","[""img/0874/85eb9b8a-c4c6-4e5a-b8e7-363a87a82054.jpg"",""img/0766/110832e5-2646-4bd0-a94e-5df8cc314269.jpg""]","",""
"","4030","similarity","83","904791","0.0-6.0-77.0","3","[""img/0881/d373cb9f-a719-4549-a2a4-82def79fb2a5.jpg"",""img/0868/4bd5105a-d2c3-4f82-8c80-57196106ba53.jpg""]","",""
"","2957","similarity","84","908793","0.0-6.0-78.0","1","[""img/0758/d57c2592-a317-4f63-91be-91a3a9afd222.jpg"",""img/0901/f469cb1d-6d81-4a45-bab5-cd0b650c2b4f.jpg""]","",""
"","4085","similarity","85","913902","0.0-6.0-79.0","1","[""img/0881/405484ae-0d00-4b05-bc57-6420a36adfac.jpg"",""img/0898/8605a25b-6895-476d-8c13-df7a83f96093.jpg""]","",""
"","4455","similarity","86","919377","0.0-6.0-80.0","2","[""img/0867/db7e032f-162b-46f5-ae67-2b29679adee4.jpg"",""img/0758/f61ecdf8-a7d4-4db0-b84d-be46f7cfaffc.jpg""]","",""
"","3352","similarity","87","923745","0.0-6.0-81.0","5","[""img/0769/c34b7763-8ff2-46d5-9e92-f1d8f3bedbd8.jpg"",""img/0899/1b3457ea-87d4-4946-a01c-aac1863ed46c.jpg""]","",""
"","4480","similarity","88","929260","0.0-6.0-82.0","7","[""img/0903/a0673b55-6040-47fe-9040-24bca27ca3c9.jpg"",""img/0903/0fb24af7-9a26-4e9d-aadc-959a36f683e2.jpg""]","",""
"","3514","similarity","89","987825","0.0-6.0-83.0","1","[""img/0867/bf560d4f-dee3-4f11-a385-705cc1aa5f3c.jpg"",""img/0766/fd74fdbb-ea40-4f3a-a091-38d08dfd636e.jpg""]","",""
"","8604","similarity","90","1001277","0.0-6.0-84.0","1","[""img/0902/b56db912-c3c0-4fc2-b325-d640acd7cb58.jpg"",""img/0867/cc72ed48-7704-422c-86d6-467a1145287a.jpg""]","",""
"","48657","similarity","91","1054360","0.0-6.0-85.0","1","[""img/0901/693e0535-ef7e-4d60-af9d-fac2f38e8307.jpg"",""img/0875/2c361b79-c3d1-4eda-812e-bf03192407bf.jpg""]","",""
"","28884","similarity","92","1092482","0.0-6.0-86.0","4","[""img/0764/56441045-b648-4ede-9632-3e9c0227080b.jpg"",""img/0866/a15b02be-11bb-43e3-b0e0-ecc3bd7dfc49.jpg""]","",""
"","4488","similarity","93","1098225","0.0-6.0-87.0","4","[""img/0901/b13fa50f-dbe0-4d0f-8647-6ac0fd8f40bd.jpg"",""img/0894/5c7677b0-a4f1-479e-b274-7822c415175a.jpg""]","",""
"","3962","similarity","94","1104011","0.0-6.0-88.0","4","[""img/0898/224c1572-56b9-4f16-a9e4-6f3bc9c114bd.jpg"",""img/0769/bb8c4e53-6f32-4814-97ee-392d4decfb2e.jpg""]","",""
"","4656","similarity","95","1109729","0.0-6.0-89.0","7","[""img/0769/f229321f-04dd-42d7-b14a-ffad6b509862.jpg"",""img/0894/38f5931f-926d-414e-b498-66b188978b7a.jpg""]","",""
"","4956","similarity","96","1115727","0.0-6.0-90.0","4","[""img/0862/f43ceabf-acc1-4107-b857-5d1849808f93.jpg"",""img/0874/adf9a8f1-c40b-402b-b95b-1e85a54a7b62.jpg""]","",""
"","4186","similarity","97","1120970","0.0-6.0-91.0","5","[""img/0894/c505c65a-cde2-4f2c-8cde-f8676f7c894d.jpg"",""img/0766/ef3b15ce-abb7-4292-ad93-aec8e8b50520.jpg""]","",""
"","3120","similarity","98","1125143","0.0-6.0-92.0","2","[""img/0874/eba003b4-cdab-4eee-8bc3-f064c7d94165.jpg"",""img/0867/2e1a0b58-cdb1-4107-a14e-452530d7b9b0.jpg""]","",""
"","3758","similarity","99","1129932","0.0-6.0-93.0","1","[""img/0899/56a605c3-d0a2-4215-89e1-779279d85a7c.jpg"",""img/0868/179a5502-ab5c-478e-8263-5a1fbcc101d2.jpg""]","",""
"","3299","similarity","100","1134264","0.0-6.0-94.0","1","[""img/0903/2a9c8033-3e70-47fa-816d-97ee1813a3a3.jpg"",""img/0862/a0a3a7ba-7798-46a3-b4ca-05e1f6e581d0.jpg""]","",""
"","3811","similarity","101","1139111","0.0-6.0-95.0","5","[""img/0899/565ccdd9-0933-4536-a625-3c0e25a713dd.jpg"",""img/0766/2e1cf445-9aef-40e7-92f4-5facf48b64c5.jpg""]","",""
"","3150","similarity","102","1143291","0.0-6.0-96.0","7","[""img/0867/c71dc569-f49c-4397-8381-68b8d726736d.jpg"",""img/0868/e0aff734-077f-40dd-9781-74821abd3621.jpg""]","",""
"","3123","similarity","103","1147564","0.0-6.0-97.0","1","[""img/0862/f23038d4-c366-4f70-979f-66b62362efa4.jpg"",""img/0901/4d1bed7e-3c4e-4f6c-ada9-4beb66ba9e39.jpg""]","",""
"","4271","similarity","104","1152887","0.0-6.0-98.0","1","[""img/0875/527ced51-8e53-4aab-ab05-86df219104c0.jpg"",""img/0766/989c5c7f-1aff-4442-ac63-9d46acf4a891.jpg""]","",""
"","4292","similarity","105","1158274","0.0-6.0-99.0","6","[""img/0758/ddc336e9-a8b6-4bb9-937a-c7e25e0e9250.jpg"",""img/0874/7e4f2150-3b59-4a36-b5da-a4e0ba410531.jpg""]","",""
"","3544","similarity","106","1162895","0.0-6.0-100.0","1","[""img/0904/60d1a521-edf7-4696-9263-f21ac0e62a01.jpg"",""img/0868/3a62db2d-97e9-44a3-b8e3-a48c6f0e423b.jpg""]","",""
"","2962","similarity","107","1166915","0.0-6.0-101.0","1","[""img/0903/bf0a7d60-eca5-44b0-bafd-baf21db9904b.jpg"",""img/0866/02f5e6b9-52b7-448c-9708-5b460d0c9a23.jpg""]","",""
"","2471","similarity","108","1170425","0.0-6.0-102.0","1","[""img/0868/4e626425-63c8-484a-8a1d-e66ee4e0bef8.jpg"",""img/0769/47700831-0ca2-4fdd-a498-a3bc5a528f43.jpg""]","",""
"","4043","similarity","109","1175527","0.0-6.0-103.0","4","[""img/0902/b03fee99-d5ca-4bf8-871c-a4a743a39842.jpg"",""img/0899/5b56dd3e-3f49-47cc-af84-16da6457753b.jpg""]","",""
"","3557","similarity","110","1180127","0.0-6.0-104.0","3","[""img/0868/fd307a36-9a3a-47d7-ab7c-f810d0b35040.jpg"",""img/0862/f188d4f0-76a4-4102-818c-a209969d73a5.jpg""]","",""
"","5078","similarity","111","1186238","0.0-6.0-105.0","2","[""img/0903/8c358e9e-a4f4-466e-8b93-7aec0d2358e8.jpg"",""img/0894/7f2f31fd-6618-41c6-b65a-0fd8b2851bc9.jpg""]","",""
"","4625","similarity","112","1191909","0.0-6.0-106.0","6","[""img/0864/65210d57-1153-4657-886a-32e758f49b4a.jpg"",""img/0874/93d1f8dc-acf2-4f03-bd8d-8ec35df276ed.jpg""]","",""
"","3020","similarity","113","1195954","0.0-6.0-107.0","1","[""img/0862/1c20f772-3a51-4a80-aac0-f57dc9f86c28.jpg"",""img/0902/168ebd47-9e82-4ab7-a18b-c3da85072db8.jpg""]","",""
"","4626","similarity","114","1201617","0.0-6.0-108.0","2","[""img/0904/a8c3c7d2-9bcf-4347-9e03-8203adfc1fc5.jpg"",""img/0903/470acfd5-5571-4a7b-b3a4-28d87e098138.jpg""]","",""
"","3434","similarity","115","1206111","0.0-6.0-109.0","1","[""img/0764/ba0c0955-acbb-457d-b1c2-f006b88121d5.jpg"",""img/0864/49150900-7f25-4ce8-8d10-9b47a71d1997.jpg""]","",""
"","3263","similarity","116","1210421","0.0-6.0-110.0","1","[""img/0866/07c9c966-3c8d-40e7-8128-92b2acbaed5d.jpg"",""img/0894/e2446cf5-cd48-486a-badc-76498e087fbe.jpg""]","",""
"","3565","similarity","117","1215010","0.0-6.0-111.0","2","[""img/0899/66bf4113-ee12-426c-84d2-ea410b6c803e.jpg"",""img/0903/71dbc325-b588-4297-a5cf-7f268a722ad9.jpg""]","",""
"","8315","similarity","118","1224375","0.0-6.0-112.0","7","[""img/0902/d5e25767-e8ec-45f3-ac0a-7b4a6f7a9edc.jpg"",""img/0904/4b8daf2a-13a9-4ea9-9e0b-b265b6e933e7.jpg""]","",""
"","3974","similarity","119","1229412","0.0-6.0-113.0","4","[""img/0864/87c467d3-abca-482f-ad80-3766c21b1bb3.jpg"",""img/0860/8277806e-b684-4474-8f7b-3fca946d7d4f.jpg""]","",""
"","3861","similarity","120","1234309","0.0-6.0-114.0","1","[""img/0860/4f695df5-afac-4da7-9875-fee39b0b24ad.jpg"",""img/0899/76ad07e2-ca25-45eb-84f2-8d80b8ca3e26.jpg""]","",""
"","3076","similarity","121","1238421","0.0-6.0-115.0","1","[""img/0881/14236cf2-6b95-48b8-9368-78af09d2d27f.jpg"",""img/0903/8931c67c-a43d-47d3-a4c9-42aa2f81d344.jpg""]","",""
"","3316","similarity","122","1242787","0.0-6.0-116.0","1","[""img/0894/5f15154e-e72e-4ce5-aafb-bce6f0564006.jpg"",""img/0874/29830da7-be5f-44e5-b141-652a0ccf7269.jpg""]","",""
"","5307","similarity","123","1249139","0.0-6.0-117.0","3","[""img/0881/20af39f5-373d-4a55-a437-2dc4c0382c46.jpg"",""img/0862/eefa5588-9efd-4591-aa5f-a2e17c7d7bcc.jpg""]","",""
"","3289","similarity","124","1253461","0.0-6.0-118.0","5","[""img/0868/77091fc7-a590-4ebb-b915-fdb2483a2399.jpg"",""img/0875/5a1e5100-0d94-4fec-bbe9-ca9894d2cf8e.jpg""]","",""
"","2867","similarity","125","1257359","0.0-6.0-119.0","4","[""img/0860/524b2e98-5767-4d53-942c-ebae6925659b.jpg"",""img/0758/53f35650-e455-4b53-8be4-c3c8271c6466.jpg""]","",""
"","3172","similarity","126","1261577","0.0-6.0-120.0","2","[""img/0864/e336a4c5-6648-4fd7-b2f6-93a3fb83f8c6.jpg"",""img/0875/8521fd58-3b1e-4dc5-97ae-804edfa6734a.jpg""]","",""
"","3208","similarity","127","1265924","0.0-6.0-121.0","1","[""img/0898/81b08535-2020-4c15-9ce4-2f1e460755ae.jpg"",""img/0866/386235d2-6857-41e7-88a8-25cfc3430025.jpg""]","",""
"","2890","similarity","128","1269861","0.0-6.0-122.0","1","[""img/0874/1016b306-087c-4afc-aa08-fa527b28dc76.jpg"",""img/0904/25365108-e038-4021-aac9-797f2063b337.jpg""]","",""
"","4262","similarity","129","1275159","0.0-6.0-123.0","1","[""img/0904/24fc38fe-842c-4831-ad8a-b1de5c25c0a8.jpg"",""img/0864/66091c27-e588-4476-8af9-265dc6be4156.jpg""]","",""
"","5800","similarity","130","1281983","0.0-6.0-124.0","3","[""img/0894/4739e06d-c31e-4bf1-bf91-c97fa9afb456.jpg"",""img/0902/6730b12a-f0a7-4587-8c10-a32fae16565b.jpg""]","",""
"","3125","similarity","131","1844337","0.0-6.0-125.0","2","[""img/0868/c8ac40c7-6904-4e13-8d61-c75d3052dc4e.jpg"",""img/0864/c3b63e8f-ea39-4d70-a1f2-b3fe4be8eb75.jpg""]","",""
"","6242","similarity","132","1852359","0.0-6.0-126.0","4","[""img/0899/b45c550b-96c3-4255-ad59-48a2b4db1c1e.jpg"",""img/0866/be24ab58-230e-4db8-9f45-ff04c9aec6bb.jpg""]","",""
"","11778","similarity","133","1865465","0.0-6.0-127.0","4","[""img/0875/e7e66b13-b573-431e-b85e-288ce04a35a3.jpg"",""img/0904/ba8e689e-9ca6-4608-a2a1-3b0940666ae6.jpg""]","",""
"","4775","similarity","134","1871346","0.0-6.0-128.0","1","[""img/0867/1719a35d-f085-48c0-9099-16c94fe418b4.jpg"",""img/0899/ad8268c5-8199-48d0-ad70-c5b6d6c599ec.jpg""]","",""
"","5084","similarity","135","1877507","0.0-6.0-129.0","1","[""img/0901/5b97abf9-f0c8-4fd1-b921-36d574779078.jpg"",""img/0867/aa05d113-fc19-4756-a8eb-7878f580bc92.jpg""]","",""
"","3219","similarity","136","1881788","0.0-6.0-130.0","1","[""img/0864/e8bd659f-aa43-4748-877e-3118e8b4e189.jpg"",""img/0769/96556ef3-7fac-4c9d-8281-1cb0ea5081bc.jpg""]","",""
"","3785","similarity","137","1886646","0.0-6.0-131.0","1","[""img/0903/70d764d9-1f35-4da7-a35d-4cc39834d270.jpg"",""img/0868/83b4350a-3b70-4cea-b7f5-b5b56f3050a8.jpg""]","",""
"","3265","similarity","138","1890954","0.0-6.0-132.0","2","[""img/0864/efcfbb1b-8197-44c9-b723-40d6c608dd3c.jpg"",""img/0867/98d8cd96-1476-4fe0-a3a3-04f875500a1b.jpg""]","",""
"","2936","similarity","139","1894923","0.0-6.0-133.0","1","[""img/0901/77087ed2-6e12-4329-b2a5-605bca6d972d.jpg"",""img/0860/5bff793e-cbd5-4d7e-b628-0ac2b0e30b64.jpg""]","",""
"","3285","similarity","140","1899249","0.0-6.0-134.0","1","[""img/0881/44e09805-5a25-4f17-a716-4ad4a331b174.jpg"",""img/0766/006035d8-c736-4daf-bbe4-a9e373af9da6.jpg""]","",""
"","3222","similarity","141","1903510","0.0-6.0-135.0","1","[""img/0903/31b5a5f4-b695-4af1-bad2-a19650a05498.jpg"",""img/0864/6f631579-acf1-415c-a42c-1207f62a8d99.jpg""]","",""
"","2947","similarity","142","1907506","0.0-6.0-136.0","1","[""img/0758/3ddd05d3-557e-4ee7-8b78-9d2d681d8ae2.jpg"",""img/0894/1b3888e6-cf36-4c4a-a039-187aa5cb71ac.jpg""]","",""
"","2417","similarity","143","1910971","0.0-6.0-137.0","1","[""img/0769/662ab839-88d1-4ebf-af05-9b2980cad943.jpg"",""img/0860/8a92e21b-6a32-4e4a-a445-2d5a487ed0a4.jpg""]","",""
"","6841","similarity","144","1918839","0.0-6.0-138.0","4","[""img/0904/5aec2708-cf14-4a58-aa30-9a8a61c1be0e.jpg"",""img/0766/c23b5a20-e50f-4d85-841f-cf89212a4348.jpg""]","",""
"","4769","similarity","145","1924642","0.0-6.0-139.0","3","[""img/0868/8b0b8473-e2c0-4331-aa56-c3a5c29369da.jpg"",""img/0860/8fdba999-b946-4c7d-9891-336018b563ef.jpg""]","",""
"","3574","similarity","146","1929233","0.0-6.0-140.0","4","[""img/0758/6cd8c362-ae2a-41eb-80a3-3a4f7ace1530.jpg"",""img/0864/6e846d43-94a6-4b37-a268-65eda979f052.jpg""]","",""
"","4144","similarity","147","1934416","0.0-6.0-141.0","7","[""img/0867/12264664-1860-46df-8c21-162b9817cdda.jpg"",""img/0867/de92135f-5b65-4ed9-b245-188292c7c2f8.jpg""]","",""
"","3336","similarity","148","1938820","0.0-6.0-142.0","7","[""img/0898/5f699581-3853-4547-856c-12f419ba5af7.jpg"",""img/0898/79233891-305a-4a6a-8ddf-5c8604858203.jpg""]","",""
"","2715","similarity","149","1942579","0.0-6.0-143.0","1","[""img/0866/9b38d691-1802-4959-ab3f-fc902f0e4ea6.jpg"",""img/0769/4a1d0b52-3fe8-40fb-bb1c-c814fe49a68c.jpg""]","",""
"","3645","similarity","150","1947258","0.0-6.0-144.0","1","[""img/0860/61fb959d-d4d9-4de4-9e4e-4fa62b4cfcd5.jpg"",""img/0898/26c41340-15bd-4ead-8fe4-c0d0ddca09c2.jpg""]","",""
"","3654","similarity","151","1951953","0.0-6.0-145.0","1","[""img/0766/79767d11-b612-4e8a-9e4b-a8ac95bb6a54.jpg"",""img/0864/e02eddb5-f468-499c-91bf-f7be3ffe979b.jpg""]","",""
"","2777","similarity","152","1955763","0.0-6.0-146.0","1","[""img/0860/9593362c-9fe5-4d12-9735-6000a11f6aa5.jpg"",""img/0903/b7e3723f-fd03-4f3d-8820-f19496463a34.jpg""]","",""
"","2983","similarity","153","1959790","0.0-6.0-147.0","1","[""img/0867/179ab87a-8eac-4c52-a41f-2e48e3120f09.jpg"",""img/0764/b328441c-f81c-486c-9eae-b947c70ba7cd.jpg""]","",""
"","5838","similarity","154","1966672","0.0-6.0-148.0","6","[""img/0769/9ea27d61-3d55-418c-8d14-82e90f656f01.jpg"",""img/0904/b7c2a2c8-df33-4473-b3d4-ff7147c60db3.jpg""]","",""
"","2785","similarity","155","1970485","0.0-6.0-149.0","2","[""img/0764/958b8576-3a3b-4acc-96dc-06b74de69f37.jpg"",""img/0901/875dedb9-24c9-4443-9f8c-85e97d70ee5a.jpg""]","",""
"","4563","similarity","156","1976061","0.0-6.0-150.0","4","[""img/0904/2c98dc56-88d1-4fb5-a999-b6a7861f65f0.jpg"",""img/0899/4408c14d-c168-4a7d-96f6-bc87bfb58f83.jpg""]","",""
"","5202","similarity","157","1982292","0.0-6.0-151.0","2","[""img/0862/00c06b00-3b73-44e9-bc1e-c5aafb438321.jpg"",""img/0867/f8488a47-94ee-4166-952c-44e16cf172f6.jpg""]","",""
"","2865","similarity","158","1986188","0.0-6.0-152.0","7","[""img/0766/69e486f7-dbef-456b-9d48-53d814248a28.jpg"",""img/0766/27f54113-8561-4568-9ffe-0a1650ae65ec.jpg""]","",""
"","6276","similarity","159","1993488","0.0-6.0-153.0","1","[""img/0862/7918ca67-5bd3-4606-a5ea-c39fb11a9297.jpg"",""img/0894/43216a7f-27bc-4b5a-8841-d122a30da9d9.jpg""]","",""
"","2983","similarity","160","1997519","0.0-6.0-154.0","2","[""img/0899/0adc0bc3-6fca-4078-be6f-d45ddf1653d5.jpg"",""img/0901/a0d65c84-3f20-476a-92d1-0c01e8019cf4.jpg""]","",""
"","3787","similarity","161","2002333","0.0-6.0-155.0","7","[""img/0874/31e22c7c-99aa-40b1-bf03-dd73fa2df4d6.jpg"",""img/0874/a82926a3-0b43-4add-803c-d5f9ea7798ee.jpg""]","",""
"","4802","similarity","162","2008168","0.0-6.0-156.0","4","[""img/0860/702bd09d-df3a-40aa-a267-5f04474305b5.jpg"",""img/0867/f8159067-056c-41f1-a136-c529fe5e970a.jpg""]","",""
"","4095","similarity","163","2013293","0.0-6.0-157.0","1","[""img/0901/08d6d1d1-c043-43c4-bb08-d45e062822b9.jpg"",""img/0881/7e31e5dc-2240-4b1b-b5a0-3acd980099ef.jpg""]","",""
"","3819","similarity","164","2018135","0.0-6.0-158.0","5","[""img/0903/e2e55a9e-0397-4dc0-8adf-4a54cfefe1fe.jpg"",""img/0902/cf9dee9c-2bdf-4d64-9302-97f1660fe52c.jpg""]","",""
"","4341","similarity","165","2023496","0.0-6.0-159.0","1","[""img/0860/71e1aad0-2cdf-43bb-94a4-a8c016997c30.jpg"",""img/0764/e30dba15-e68a-4659-89db-e1654b52fe02.jpg""]","",""
"","2883","similarity","166","2027405","0.0-6.0-160.0","1","[""img/0902/44cd9b7e-fdfb-4f78-90de-8d4c9d279365.jpg"",""img/0875/3ecb367d-e9eb-4826-8aaa-7aa72fb98019.jpg""]","",""
"","2950","similarity","167","2031382","0.0-6.0-161.0","1","[""img/0898/b2732712-71c2-45d8-834f-2b2ed5504910.jpg"",""img/0862/064818ee-13d5-4618-bb24-21c7368ea278.jpg""]","",""
"","3134","similarity","168","2035553","0.0-6.0-162.0","1","[""img/0894/86201968-6e78-4d68-9b3a-d1692e066210.jpg"",""img/0875/5a716432-c6ca-4b1c-955a-2b8ac25198ee.jpg""]","",""
"","2999","similarity","169","2039572","0.0-6.0-163.0","2","[""img/0866/a04d37f0-99dd-478a-b6c6-58b215138f84.jpg"",""img/0864/3d4de670-b290-4285-9c3d-12a0e3af44e9.jpg""]","",""
"","3039","similarity","170","2043636","0.0-6.0-164.0","1","[""img/0766/d50d734f-285c-4840-bc7a-c8dd4aff391e.jpg"",""img/0862/57b6f83f-c763-4858-830d-102f97bfefbf.jpg""]","",""
"","3487","similarity","171","2048134","0.0-6.0-165.0","3","[""img/0866/f756f7d1-9ad8-4a34-9ef6-7a443d705bfe.jpg"",""img/0874/ca23d307-fc00-4d7d-9106-584c6eb21b4d.jpg""]","",""
"","3207","similarity","172","2052366","0.0-6.0-166.0","6","[""img/0862/24cdc752-c2e5-4a17-86a6-6f2045d8553b.jpg"",""img/0860/87039971-2210-4aab-93c0-8e9b5f1655b2.jpg""]","",""
"","3464","similarity","173","2067144","0.0-6.0-167.0","2","[""img/0766/d512b99c-a2dc-40d7-8e86-827323a0cbcf.jpg"",""img/0901/12da1841-e611-435c-9719-109413d536a8.jpg""]","",""
"","3312","similarity","174","2071510","0.0-6.0-168.0","7","[""img/0862/99a99e39-8355-44ec-b993-e7bcec111e1c.jpg"",""img/0862/ee3b7bff-4a70-4e84-9bea-4a565e456acb.jpg""]","",""
"","4396","similarity","175","2076947","0.0-6.0-169.0","6","[""img/0894/6b2e9509-8699-42b7-9582-7741df0ba2d7.jpg"",""img/0764/ec2dd087-c471-4370-b570-95a542506a96.jpg""]","",""
"","4112","similarity","176","2082108","0.0-6.0-170.0","1","[""img/0874/bf14b896-e930-4fd9-9c05-2e83317a2773.jpg"",""img/0898/08c72dac-f8ad-407a-9ce6-8c9a5d679c3a.jpg""]","",""
"","2965","similarity","177","2086102","0.0-6.0-171.0","1","[""img/0860/d9a0d117-6d1d-41c0-8fec-9aff0fd9e9f2.jpg"",""img/0766/0025de5e-f620-4079-8a0f-00326ff3a6b0.jpg""]","",""
"","2805","similarity","178","2089937","0.0-6.0-172.0","1","[""img/0898/a8f16b02-e19f-423b-86c3-a36562ae1f9b.jpg"",""img/0864/1d15626a-2f7c-410f-819c-0fa2c967e95e.jpg""]","",""
"","4116","similarity","179","2095075","0.0-6.0-173.0","1","[""img/0881/c24f3051-eefa-42de-aba6-fccb56d93c70.jpg"",""img/0764/cffc80b0-4a90-4acb-a530-6f480f3ca303.jpg""]","",""
"","3259","similarity","180","2099365","0.0-6.0-174.0","1","[""img/0898/82231d4c-218b-4d0a-b50d-35a49b524e97.jpg"",""img/0868/1a62b2b2-18f5-466e-b564-5176a57c565e.jpg""]","",""
"","2691","similarity","181","2103096","0.0-6.0-175.0","7","[""img/0864/4bd81bc6-c13d-46df-95a9-485886dc7c1b.jpg"",""img/0864/1ebbc554-99fa-49f9-8799-317375a79820.jpg""]","",""
"","2962","similarity","182","2107081","0.0-6.0-176.0","1","[""img/0899/fd9efb43-701f-4cd6-baaa-4c38315f4bdc.jpg"",""img/0862/4f0a3b4c-afbf-486e-b248-1d54982f54b4.jpg""]","",""
"","3233","similarity","183","2111338","0.0-6.0-177.0","2","[""img/0875/dbdd643e-6d0e-4a5c-ab57-b9c29b9c981a.jpg"",""img/0758/65d426d6-3ff6-415d-8654-a43b83ecc4fe.jpg""]","",""
"","3027","similarity","184","2115383","0.0-6.0-178.0","1","[""img/0866/8efcaa46-83ab-4dee-a35f-850402aa21ae.jpg"",""img/0901/4ca4f962-40c0-4c59-b14a-3cd7b8c9029b.jpg""]","",""
"","2196","similarity","185","2118597","0.0-6.0-179.0","1","[""img/0769/50985283-d353-4abc-9abe-14a91d56ebe6.jpg"",""img/0874/8cdb1c07-1c32-46d2-981c-3636560fa6e5.jpg""]","",""
"","3853","similarity","186","2123475","0.0-6.0-180.0","3","[""img/0875/d59ff733-eaff-4ee2-9443-06954dd0bcb6.jpg"",""img/0881/b549bc99-a61c-4450-bab5-9efc3a197bf0.jpg""]","",""
"","3894","similarity","187","2128394","0.0-6.0-181.0","6","[""img/0866/0207e9a2-7dbb-40b5-9459-b472aaeceb2a.jpg"",""img/0868/d98ca254-b195-477f-b57e-5760a2717db8.jpg""]","",""
"","3949","similarity","188","2133367","0.0-6.0-182.0","1","[""img/0899/4f7bc593-8ddd-4da3-a0b9-84da730d3370.jpg"",""img/0758/61d64021-9214-4951-bdf8-f871f9827cf9.jpg""]","",""
"","2756","similarity","189","2137142","0.0-6.0-183.0","2","[""img/0874/99f6563c-8a8d-4c1c-a41d-667b618c3fd5.jpg"",""img/0875/90da8d75-108a-44ad-b999-e21fee3860d3.jpg""]","",""
"","4321","similarity","190","2142477","0.0-6.0-184.0","1","[""img/0904/2fd488e9-960f-41f7-8a44-33375f7d5051.jpg"",""img/0862/fb26cb07-d5a9-4653-813c-f41609f26cd5.jpg""]","",""
"","3607","similarity","191","2147103","0.0-6.0-185.0","2","[""img/0902/2db723b6-130f-454c-8c8d-88829edbcd65.jpg"",""img/0766/6d32752d-aa05-40dc-9541-640b6e9d6fa1.jpg""]","",""
"","3001","similarity","192","2151124","0.0-6.0-186.0","1","[""img/0758/dd559618-7f09-4a07-8018-d311c4a5ea29.jpg"",""img/0769/ecda2fb3-556b-43ba-8a67-e87dd75ff2b4.jpg""]","",""
"","4884","similarity","193","2157025","0.0-6.0-187.0","7","[""img/0881/292e9b4b-fca0-4ba8-87f1-4048f9e37b7d.jpg"",""img/0881/566f45f8-5fed-4479-a60f-26377e60a62d.jpg""]","",""
"","5289","similarity","194","2163337","0.0-6.0-188.0","3","[""img/0758/e38fd80d-18d0-42f3-b848-f930788e8bd7.jpg"",""img/0866/c446214b-a368-4c65-ae39-ea46894256ab.jpg""]","",""
"","3522","similarity","195","2167893","0.0-6.0-189.0","3","[""img/0764/3297a811-ea8b-4d74-9547-59cecab7293a.jpg"",""img/0898/40f99fb2-64d2-4e72-8a7f-a1cf60741e69.jpg""]","",""
"","4215","similarity","196","2173119","0.0-6.0-190.0","3","[""img/0903/f1fa0f8d-e62b-4b4a-a174-31a0fabfe61b.jpg"",""img/0901/1e23ffbd-19de-4c4f-aa23-c54aaa3319a3.jpg""]","",""
"","4016","similarity","197","2178153","0.0-6.0-191.0","6","[""img/0902/62f11694-7ed7-4cb7-8a73-9e95c43824e7.jpg"",""img/0898/ec565187-2e31-4fdd-9a5c-153d0c789ae0.jpg""]","",""
"","2331","similarity","198","2181504","0.0-6.0-192.0","1","[""img/0864/ef9cbca0-4be8-435d-ad49-977259e80409.jpg"",""img/0901/fb0a8e69-7f19-4e6e-a6bb-a48f97f9b4f3.jpg""]","",""
"","3514","similarity","199","2186059","0.0-6.0-193.0","1","[""img/0894/6aa5545f-fa7d-4286-bbaa-aaf34dc7ec96.jpg"",""img/0881/33d65d80-8a8e-4ecf-852d-0ad7725c17a2.jpg""]","",""
"","3507","similarity","200","2190583","0.0-6.0-194.0","7","[""img/0868/15dd6fd7-791e-4b53-b203-195d617521a4.jpg"",""img/0868/09a9ef4d-d000-4cfa-a6aa-ebec7c2edeb4.jpg""]","",""
"","4221","similarity","201","2195825","0.0-6.0-195.0","4","[""img/0899/f58b8d2f-b19d-4b59-8b94-8834be92e4ba.jpg"",""img/0764/ca957454-126a-4bd3-b29c-7174a24c25dc.jpg""]","",""
"","3686","similarity","202","2200527","0.0-6.0-196.0","1","[""img/0881/19e82c47-8e4b-45d2-a6c8-74181eb4155e.jpg"",""img/0904/65e2b70a-b184-4da3-b5c0-5038bdf9469a.jpg""]","",""
"","5507","similarity","203","2207049","0.0-6.0-197.0","1","[""img/0864/ea327690-500b-4137-bf91-451b309fe6a5.jpg"",""img/0902/fbef27fa-ac83-4936-ab78-9d1c20a383e1.jpg""]","",""
"","4336","similarity","204","2212411","0.0-6.0-198.0","6","[""img/0894/7dd6ff43-f8fc-408a-8a41-a2b261871820.jpg"",""img/0904/e9423a8c-f946-43ad-ab7b-931acef870e2.jpg""]","",""
"","2253","similarity","205","2215695","0.0-6.0-199.0","7","[""img/0901/ae1e6ce4-2e10-4ca9-b1e7-21628637ab74.jpg"",""img/0901/233a6948-48eb-4b67-8259-222b916b2322.jpg""]","",""
"","4263","similarity","206","2220988","0.0-6.0-200.0","1","[""img/0894/1a010553-d598-4b06-a772-81f1e7b3addb.jpg"",""img/0860/5383b320-1518-4095-a58e-5cc1ae30b64c.jpg""]","",""
"","3307","similarity","207","2225315","0.0-6.0-201.0","6","[""img/0898/661621d4-a14e-487c-8c74-354134a29710.jpg"",""img/0903/8635cf25-2648-4fe9-8c42-79d2598e999c.jpg""]","",""
"","3577","similarity","208","2229899","0.0-6.0-202.0","1","[""img/0864/da39ad34-04e0-40d4-a724-c08d53e0ea09.jpg"",""img/0894/b422d5c6-3c5a-49ae-a53e-7e88ac993f49.jpg""]","",""
"","3018","similarity","209","2233948","0.0-6.0-203.0","3","[""img/0874/3ce41e7c-40c8-4d58-a546-171114521796.jpg"",""img/0860/99c589b9-9140-4d17-90c0-b344323edcda.jpg""]","",""
"","3483","similarity","210","2238451","0.0-6.0-204.0","3","[""img/0862/de9ad88c-b522-430a-8ee9-eb06a9f85df5.jpg"",""img/0875/a4935837-7d3c-4df6-88c1-36a94d4991ca.jpg""]","",""
"","4737","similarity","211","2244204","0.0-6.0-205.0","2","[""img/0867/a749dddb-69f0-44a6-acdc-2bf295cf6dcc.jpg"",""img/0881/ee44e27f-d662-4608-b265-e7ffa19b216f.jpg""]","",""
"","3039","similarity","212","2248257","0.0-6.0-206.0","2","[""img/0901/62315ff5-ed95-46b4-b099-92552079659b.jpg"",""img/0902/40d0b6ec-3907-4573-b227-e7d8e9cad1c3.jpg""]","",""
"","3023","similarity","213","2252300","0.0-6.0-207.0","1","[""img/0899/00715b3f-851b-420b-a26b-d7f79f7759a9.jpg"",""img/0864/b3c4e378-28f0-4699-9338-2a257b4bca04.jpg""]","",""
"","3216","similarity","214","2256546","0.0-6.0-208.0","2","[""img/0901/0adb3bd6-d758-4ba7-9723-3ad6cac05bd5.jpg"",""img/0769/14d393ce-e5be-4ca1-86ce-cc27d4b6074c.jpg""]","",""
"","4457","similarity","215","2271788","0.0-6.0-209.0","7","[""img/0902/0eb85fbc-27c8-41df-9d0b-a5f9efd417d1.jpg"",""img/0902/95a36b6b-9601-4fa5-8fd9-606ea62f9425.jpg""]","",""
"[{""page_index"":0,""viewing_time"":10117}]","10119","instructions","216","2282911","0.0-7.0","","","",""
"","8019","image-multi-choice","217","2292103","0.0-8.0-0.0","","","{""Q0"":""Nashville Warbler""}","Nashville Warbler"
"","3478","image-multi-choice","218","2296697","0.0-8.0-1.0","","","{""Q0"":""Black-and-white Warbler""}","Black-and-white Warbler"
"","7359","image-multi-choice","219","2305209","0.0-8.0-2.0","","","{""Q0"":""Townsend's Warbler""}","Townsend's Warbler"
"","3838","image-multi-choice","220","2310134","0.0-8.0-3.0","","","{""Q0"":""Lark Sparrow""}","Lark Sparrow"
"","3127","image-multi-choice","221","2314369","0.0-8.0-4.0","","","{""Q0"":""Yellow Warbler""}","Yellow Warbler"
"","4243","image-multi-choice","222","2319708","0.0-8.0-5.0","","","{""Q0"":""Orange-crowned Warbler""}","Orange-crowned Warbler"
"","3047","image-multi-choice","223","2323837","0.0-8.0-6.0","","","{""Q0"":""White-throated Sparrow""}","White-throated Sparrow"
"","3083","image-multi-choice","224","2328016","0.0-8.0-7.0","","","{""Q0"":""Fox Sparrow""}","Fox Sparrow"
"","4143","image-multi-choice","225","2333231","0.0-8.0-8.0","","","{""Q0"":""Song Sparrow""}","Song Sparrow"
"","3455","image-multi-choice","226","2337754","0.0-8.0-9.0","","","{""Q0"":""Blackburnian Warbler""}","Blackburnian Warbler"
"","3076","image-multi-choice","227","2341934","0.0-8.0-10.0","","","{""Q0"":""Vesper Sparrow""}","Vesper Sparrow"
"","2933","image-multi-choice","228","2345952","0.0-8.0-11.0","","","{""Q0"":""White-crowned Sparrow""}","White-crowned Sparrow"
"","4503","image-multi-choice","229","2351553","0.0-8.0-12.0","","","{""Q0"":""American Tree Sparrow""}","American Tree Sparrow"
"","4272","image-multi-choice","230","2356912","0.0-8.0-13.0","","","{""Q0"":""Tennessee Warbler""}","Tennessee Warbler"
"","3107","image-multi-choice","231","2361108","0.0-8.0-14.0","","","{""Q0"":""Magnolia Warbler""}","Magnolia Warbler"
"","3325","image-multi-choice","232","2365510","0.0-8.0-15.0","","","{""Q0"":""Northern Waterthrush""}","Northern Waterthrush"
"","2852","image-multi-choice","233","2369437","0.0-8.0-16.0","","","{""Q0"":""Chipping Sparrow""}","Chipping Sparrow"
"","5647","image-multi-choice","234","2376153","0.0-8.0-17.0","","","{""Q0"":""Swamp Sparrow""}","Swamp Sparrow"
"","3238","image-multi-choice","235","2380473","0.0-8.0-18.0","","","{""Q0"":""Lincoln's Sparrow""}","Lincoln's Sparrow"
"","2693","image-multi-choice","236","2384239","0.0-8.0-19.0","","","{""Q0"":""Ovenbird""}","Ovenbird"
