[{"view_history":"[{\"page_index\":0,\"viewing_time\":7929}]","rt":7931,"trial_type":"instructions","trial_index":0,"time_elapsed":7933,"internal_node_id":"0.0-0.0"},{"sim_score":5,"rt":7593,"stimulus":"[\"img/866.jpg\",\"img/868.jpg\"]","trial_type":"similarity_demo","trial_index":1,"time_elapsed":16553,"internal_node_id":"0.0-1.0"},{"view_history":"[{\"page_index\":0,\"viewing_time\":6748}]","rt":6748,"trial_type":"instructions","trial_index":2,"time_elapsed":24302,"internal_node_id":"0.0-2.0"},{"sim_score":1,"rt":5082,"stimulus":"[\"img/766.jpg\",\"img/867.jpg\"]","trial_type":"similarity_demo","trial_index":3,"time_elapsed":30399,"internal_node_id":"0.0-3.0"},{"view_history":"[{\"page_index\":0,\"viewing_time\":4126}]","rt":4126,"trial_type":"instructions","trial_index":4,"time_elapsed":35525,"internal_node_id":"0.0-4.0"},{"view_history":"[{\"page_index\":0,\"viewing_time\":15024}]","rt":15025,"trial_type":"instructions","trial_index":5,"time_elapsed":51551,"internal_node_id":"0.0-5.0"},{"sim_score":1,"rt":3232,"stimulus":"[\"img/0868/fd307a36-9a3a-47d7-ab7c-f810d0b35040.jpg\",\"img/0901/33b51a81-06d9-46d9-9d4f-5a2d6d6b8058.jpg\"]","trial_type":"similarity","trial_index":6,"time_elapsed":55816,"internal_node_id":"0.0-6.0-0.0"},{"sim_score":3,"rt":3522,"stimulus":"[\"img/0769/db94b61b-a5a7-4861-9d32-7b02ad194fb0.jpg\",\"img/0867/075e0f95-856b-4cbb-acf5-092393aaf04e.jpg\"]","trial_type":"similarity","trial_index":7,"time_elapsed":60358,"internal_node_id":"0.0-6.0-1.0"},{"sim_score":5,"rt":3436,"stimulus":"[\"img/0766/2da002a4-05c9-4f5c-9ed7-433b4183e273.jpg\",\"img/0898/08c72dac-f8ad-407a-9ce6-8c9a5d679c3a.jpg\"]","trial_type":"similarity","trial_index":8,"time_elapsed":64814,"internal_node_id":"0.0-6.0-2.0"},{"sim_score":6,"rt":4129,"stimulus":"[\"img/0902/6730b12a-f0a7-4587-8c10-a32fae16565b.jpg\",\"img/0881/2a8413be-fec2-4de6-88ad-614dd4cccc9d.jpg\"]","trial_type":"similarity","trial_index":9,"time_elapsed":69959,"internal_node_id":"0.0-6.0-3.0"},{"sim_score":6,"rt":4313,"stimulus":"[\"img/0894/43216a7f-27bc-4b5a-8841-d122a30da9d9.jpg\",\"img/0894/38f5931f-926d-414e-b498-66b188978b7a.jpg\"]","trial_type":"similarity","trial_index":10,"time_elapsed":75286,"internal_node_id":"0.0-6.0-4.0"},{"sim_score":5,"rt":3250,"stimulus":"[\"img/0874/bf14b896-e930-4fd9-9c05-2e83317a2773.jpg\",\"img/0899/ad8268c5-8199-48d0-ad70-c5b6d6c599ec.jpg\"]","trial_type":"similarity","trial_index":11,"time_elapsed":79550,"internal_node_id":"0.0-6.0-5.0"},{"sim_score":5,"rt":3146,"stimulus":"[\"img/0904/6291eb43-c10c-4810-a36a-101d09868b04.jpg\",\"img/0764/56441045-b648-4ede-9632-3e9c0227080b.jpg\"]","trial_type":"similarity","trial_index":12,"time_elapsed":83710,"internal_node_id":"0.0-6.0-6.0"},{"sim_score":7,"rt":3255,"stimulus":"[\"img/0899/7f9d45d0-b2c6-40d3-aa41-c207db2c411b.jpg\",\"img/0898/5f699581-3853-4547-856c-12f419ba5af7.jpg\"]","trial_type":"similarity","trial_index":13,"time_elapsed":87982,"internal_node_id":"0.0-6.0-7.0"},{"sim_score":1,"rt":3561,"stimulus":"[\"img/0874/767f289c-9814-4496-803f-745cc8913d1f.jpg\",\"img/0903/6138142e-c84e-45fc-9487-c974f3d4968a.jpg\"]","trial_type":"similarity","trial_index":14,"time_elapsed":92581,"internal_node_id":"0.0-6.0-8.0"},{"sim_score":7,"rt":3477,"stimulus":"[\"img/0881/20af39f5-373d-4a55-a437-2dc4c0382c46.jpg\",\"img/0758/53f35650-e455-4b53-8be4-c3c8271c6466.jpg\"]","trial_type":"similarity","trial_index":15,"time_elapsed":97070,"internal_node_id":"0.0-6.0-9.0"},{"sim_score":6,"rt":2977,"stimulus":"[\"img/0898/4184e5a2-84ea-4f36-9b42-ae58646f6f87.jpg\",\"img/0901/b13fa50f-dbe0-4d0f-8647-6ac0fd8f40bd.jpg\"]","trial_type":"similarity","trial_index":16,"time_elapsed":101062,"internal_node_id":"0.0-6.0-10.0"},{"sim_score":6,"rt":3083,"stimulus":"[\"img/0903/71dbc325-b588-4297-a5cf-7f268a722ad9.jpg\",\"img/0769/8c7cf147-1780-4d5c-8ddf-5ea23ff03ac9.jpg\"]","trial_type":"similarity","trial_index":17,"time_elapsed":105165,"internal_node_id":"0.0-6.0-11.0"},{"sim_score":1,"rt":3331,"stimulus":"[\"img/0764/f64dfa83-333d-494c-87b5-73e942f1766e.jpg\",\"img/0868/179a5502-ab5c-478e-8263-5a1fbcc101d2.jpg\"]","trial_type":"similarity","trial_index":18,"time_elapsed":109509,"internal_node_id":"0.0-6.0-12.0"},{"sim_score":2,"rt":4149,"stimulus":"[\"img/0867/26611f4e-d694-4460-b7e2-43c62753ddc3.jpg\",\"img/0903/c3cb4a01-2797-43ca-b216-88c67b323fbb.jpg\"]","trial_type":"similarity","trial_index":19,"time_elapsed":114674,"internal_node_id":"0.0-6.0-13.0"},{"sim_score":5,"rt":3653,"stimulus":"[\"img/0766/0bf3793e-c353-45e5-ac6f-753f5f484e10.jpg\",\"img/0758/caa93da2-9edf-49fa-96b9-32dedd8f5078.jpg\"]","trial_type":"similarity","trial_index":20,"time_elapsed":119341,"internal_node_id":"0.0-6.0-14.0"},{"sim_score":5,"rt":3300,"stimulus":"[\"img/0902/6c2c243a-f663-45db-baf5-038d3d58c589.jpg\",\"img/0860/4f695df5-afac-4da7-9875-fee39b0b24ad.jpg\"]","trial_type":"similarity","trial_index":21,"time_elapsed":123653,"internal_node_id":"0.0-6.0-15.0"},{"sim_score":1,"rt":2981,"stimulus":"[\"img/0769/f2740c58-7c02-433f-920b-746b0b75435b.jpg\",\"img/0875/527ced51-8e53-4aab-ab05-86df219104c0.jpg\"]","trial_type":"similarity","trial_index":22,"time_elapsed":127645,"internal_node_id":"0.0-6.0-16.0"},{"sim_score":1,"rt":3061,"stimulus":"[\"img/0904/2c98dc56-88d1-4fb5-a999-b6a7861f65f0.jpg\",\"img/0866/a15b02be-11bb-43e3-b0e0-ecc3bd7dfc49.jpg\"]","trial_type":"similarity","trial_index":23,"time_elapsed":131717,"internal_node_id":"0.0-6.0-17.0"},{"sim_score":7,"rt":3356,"stimulus":"[\"img/0875/a4935837-7d3c-4df6-88c1-36a94d4991ca.jpg\",\"img/0875/ebf7653f-ff45-4e9f-af58-2c042ab3cd2b.jpg\"]","trial_type":"similarity","trial_index":24,"time_elapsed":136085,"internal_node_id":"0.0-6.0-18.0"},{"sim_score":5,"rt":2987,"stimulus":"[\"img/0758/2fa3e613-e676-4e6e-bd12-705327eeb3e1.jpg\",\"img/0758/dd559618-7f09-4a07-8018-d311c4a5ea29.jpg\"]","trial_type":"similarity","trial_index":25,"time_elapsed":140085,"internal_node_id":"0.0-6.0-19.0"},{"sim_score":2,"rt":3588,"stimulus":"[\"img/0902/3f0eeac5-c996-4026-a376-563ce8f28521.jpg\",\"img/0874/995f0332-0439-4eb4-add3-957335dbf6d9.jpg\"]","trial_type":"similarity","trial_index":26,"time_elapsed":144685,"internal_node_id":"0.0-6.0-20.0"},{"sim_score":5,"rt":3357,"stimulus":"[\"img/0764/cffc80b0-4a90-4acb-a530-6f480f3ca303.jpg\",\"img/0769/aad494cc-674d-4a08-9bfa-24a88ebe3c79.jpg\"]","trial_type":"similarity","trial_index":27,"time_elapsed":149054,"internal_node_id":"0.0-6.0-21.0"},{"sim_score":1,"rt":2857,"stimulus":"[\"img/0901/04a53755-6da5-44d4-a7a6-48a6bc0a2280.jpg\",\"img/0874/99f6563c-8a8d-4c1c-a41d-667b618c3fd5.jpg\"]","trial_type":"similarity","trial_index":28,"time_elapsed":152925,"internal_node_id":"0.0-6.0-22.0"},{"sim_score":1,"rt":2658,"stimulus":"[\"img/0875/3ecb367d-e9eb-4826-8aaa-7aa72fb98019.jpg\",\"img/0903/72197c2b-403e-4a26-b391-f1aa8dea4b76.jpg\"]","trial_type":"similarity","trial_index":29,"time_elapsed":156596,"internal_node_id":"0.0-6.0-23.0"},{"sim_score":3,"rt":4300,"stimulus":"[\"img/0769/0fe124d3-bcad-45f6-b64d-8f6eb8ee5251.jpg\",\"img/0881/6b1189e6-232d-4042-8885-16dc7b10e0d4.jpg\"]","trial_type":"similarity","trial_index":30,"time_elapsed":161913,"internal_node_id":"0.0-6.0-24.0"},{"sim_score":3,"rt":2743,"stimulus":"[\"img/0867/a498eef3-9fa4-4ab2-9778-4ae82ac40dc5.jpg\",\"img/0904/25365108-e038-4021-aac9-797f2063b337.jpg\"]","trial_type":"similarity","trial_index":31,"time_elapsed":165669,"internal_node_id":"0.0-6.0-25.0"},{"sim_score":5,"rt":3756,"stimulus":"[\"img/0860/9593362c-9fe5-4d12-9735-6000a11f6aa5.jpg\",\"img/0881/0c7068da-d0d9-4103-bda1-74ef7a2b32c3.jpg\"]","trial_type":"similarity","trial_index":32,"time_elapsed":170436,"internal_node_id":"0.0-6.0-26.0"},{"sim_score":3,"rt":3478,"stimulus":"[\"img/0866/9b38d691-1802-4959-ab3f-fc902f0e4ea6.jpg\",\"img/0866/386235d2-6857-41e7-88a8-25cfc3430025.jpg\"]","trial_type":"similarity","trial_index":33,"time_elapsed":174928,"internal_node_id":"0.0-6.0-27.0"},{"sim_score":5,"rt":3345,"stimulus":"[\"img/0764/952d7adc-dc40-4aee-acce-18c2a1d02ea1.jpg\",\"img/0862/ba89835a-408c-480b-8594-ed4ffa97eb5c.jpg\"]","trial_type":"similarity","trial_index":34,"time_elapsed":179285,"internal_node_id":"0.0-6.0-28.0"},{"sim_score":1,"rt":2821,"stimulus":"[\"img/0904/65e2b70a-b184-4da3-b5c0-5038bdf9469a.jpg\",\"img/0758/d540bee6-b460-4c32-ac57-bc282742d7d4.jpg\"]","trial_type":"similarity","trial_index":35,"time_elapsed":183116,"internal_node_id":"0.0-6.0-29.0"},{"sim_score":5,"rt":4598,"stimulus":"[\"img/0894/86201968-6e78-4d68-9b3a-d1692e066210.jpg\",\"img/0899/ddf96ade-692e-4602-bd22-dedbb46401bc.jpg\"]","trial_type":"similarity","trial_index":36,"time_elapsed":188724,"internal_node_id":"0.0-6.0-30.0"},{"sim_score":1,"rt":4292,"stimulus":"[\"img/0860/f44ba3fb-03a2-42f0-8509-2c1ded493086.jpg\",\"img/0904/63dd06dd-dccb-47ba-9740-eb33239e18a7.jpg\"]","trial_type":"similarity","trial_index":37,"time_elapsed":194028,"internal_node_id":"0.0-6.0-31.0"},{"sim_score":5,"rt":4101,"stimulus":"[\"img/0874/31e22c7c-99aa-40b1-bf03-dd73fa2df4d6.jpg\",\"img/0881/633c6f40-56d9-4b48-bf1c-ecd83116eabb.jpg\"]","trial_type":"similarity","trial_index":38,"time_elapsed":199140,"internal_node_id":"0.0-6.0-32.0"},{"sim_score":3,"rt":4492,"stimulus":"[\"img/0881/4da99fdd-1f40-4bbb-8e21-8833eef313f5.jpg\",\"img/0899/7b7380d5-d2be-44e5-a09a-c1756f87ef71.jpg\"]","trial_type":"similarity","trial_index":39,"time_elapsed":204644,"internal_node_id":"0.0-6.0-33.0"},{"sim_score":1,"rt":5469,"stimulus":"[\"img/0866/620cd1aa-0800-4414-8f6e-90342e7a99ad.jpg\",\"img/0862/a0a3a7ba-7798-46a3-b4ca-05e1f6e581d0.jpg\"]","trial_type":"similarity","trial_index":40,"time_elapsed":211124,"internal_node_id":"0.0-6.0-34.0"},{"sim_score":6,"rt":3348,"stimulus":"[\"img/0868/4a8a45ed-2c4f-421b-9564-409a33ecd26c.jpg\",\"img/0894/151063aa-6472-4745-837b-36603aba5966.jpg\"]","trial_type":"similarity","trial_index":41,"time_elapsed":215484,"internal_node_id":"0.0-6.0-35.0"},{"sim_score":7,"rt":3685,"stimulus":"[\"img/0860/71e1aad0-2cdf-43bb-94a4-a8c016997c30.jpg\",\"img/0860/4a022222-056d-461c-ab02-39fac9647552.jpg\"]","trial_type":"similarity","trial_index":42,"time_elapsed":220180,"internal_node_id":"0.0-6.0-36.0"},{"sim_score":5,"rt":5181,"stimulus":"[\"img/0862/de9ad88c-b522-430a-8ee9-eb06a9f85df5.jpg\",\"img/0864/e8bd659f-aa43-4748-877e-3118e8b4e189.jpg\"]","trial_type":"similarity","trial_index":43,"time_elapsed":226372,"internal_node_id":"0.0-6.0-37.0"},{"sim_score":2,"rt":3477,"stimulus":"[\"img/0766/ea09dd5a-d24d-4e97-a099-7da3db1baef1.jpg\",\"img/0866/0207e9a2-7dbb-40b5-9459-b472aaeceb2a.jpg\"]","trial_type":"similarity","trial_index":44,"time_elapsed":230860,"internal_node_id":"0.0-6.0-38.0"},{"sim_score":1,"rt":3031,"stimulus":"[\"img/0875/42910c99-5463-450a-a0f8-d4d060a11455.jpg\",\"img/0898/c3cecf20-f7fd-45fa-97d0-dc0a63e8d6c0.jpg\"]","trial_type":"similarity","trial_index":45,"time_elapsed":234899,"internal_node_id":"0.0-6.0-39.0"},{"sim_score":6,"rt":5213,"stimulus":"[\"img/0766/33519c22-aaa4-49d7-8d49-ab551db1945e.jpg\",\"img/0769/48a1144d-fbda-4809-991b-fc8424a32ee4.jpg\"]","trial_type":"similarity","trial_index":46,"time_elapsed":241123,"internal_node_id":"0.0-6.0-40.0"},{"sim_score":5,"rt":3158,"stimulus":"[\"img/0874/adf9a8f1-c40b-402b-b95b-1e85a54a7b62.jpg\",\"img/0764/e48e6c6f-9e28-420f-836a-8043b2319bb4.jpg\"]","trial_type":"similarity","trial_index":47,"time_elapsed":277611,"internal_node_id":"0.0-6.0-41.0"},{"sim_score":1,"rt":3733,"stimulus":"[\"img/0868/77091fc7-a590-4ebb-b915-fdb2483a2399.jpg\",\"img/0902/8af4182a-9af9-4212-a436-9195555112d6.jpg\"]","trial_type":"similarity","trial_index":48,"time_elapsed":282356,"internal_node_id":"0.0-6.0-42.0"},{"sim_score":1,"rt":2541,"stimulus":"[\"img/0875/8521fd58-3b1e-4dc5-97ae-804edfa6734a.jpg\",\"img/0899/4f7bc593-8ddd-4da3-a0b9-84da730d3370.jpg\"]","trial_type":"similarity","trial_index":49,"time_elapsed":285908,"internal_node_id":"0.0-6.0-43.0"},{"sim_score":1,"rt":2717,"stimulus":"[\"img/0866/be24ab58-230e-4db8-9f45-ff04c9aec6bb.jpg\",\"img/0860/8277806e-b684-4474-8f7b-3fca946d7d4f.jpg\"]","trial_type":"similarity","trial_index":50,"time_elapsed":289636,"internal_node_id":"0.0-6.0-44.0"},{"sim_score":7,"rt":2565,"stimulus":"[\"img/0766/d14acac4-7db1-4b07-8f8f-302437326fc0.jpg\",\"img/0903/b4a0f61e-a964-4b79-a9a7-f767a8f92f34.jpg\"]","trial_type":"similarity","trial_index":51,"time_elapsed":293211,"internal_node_id":"0.0-6.0-45.0"},{"sim_score":5,"rt":3340,"stimulus":"[\"img/0901/c6c877e0-dd63-4e00-9657-33af29d55aab.jpg\",\"img/0904/56e73f28-7e64-489b-a161-e6b1a063878d.jpg\"]","trial_type":"similarity","trial_index":52,"time_elapsed":297563,"internal_node_id":"0.0-6.0-46.0"},{"sim_score":1,"rt":3909,"stimulus":"[\"img/0758/7ffbc76b-1fc1-432c-8f7e-9ec8d1b3f643.jpg\",\"img/0902/62f11694-7ed7-4cb7-8a73-9e95c43824e7.jpg\"]","trial_type":"similarity","trial_index":53,"time_elapsed":302483,"internal_node_id":"0.0-6.0-47.0"},{"sim_score":7,"rt":3157,"stimulus":"[\"img/0764/0e7ed062-f798-4366-8a24-6f430926f919.jpg\",\"img/0764/4bec8d92-75aa-475a-954d-8215dbe538f5.jpg\"]","trial_type":"similarity","trial_index":54,"time_elapsed":306651,"internal_node_id":"0.0-6.0-48.0"},{"sim_score":1,"rt":2979,"stimulus":"[\"img/0866/6f2a90d7-14f1-4f1b-bd64-fc0af6b9fe44.jpg\",\"img/0902/10d99c89-71f7-4c81-a31e-dfc7c59f5232.jpg\"]","trial_type":"similarity","trial_index":55,"time_elapsed":310647,"internal_node_id":"0.0-6.0-49.0"},{"sim_score":1,"rt":2704,"stimulus":"[\"img/0764/f990b2e8-ecee-481e-be7c-0239fce350e2.jpg\",\"img/0758/e1ba5e53-addc-436a-b428-d34fc1b130dc.jpg\"]","trial_type":"similarity","trial_index":56,"time_elapsed":314372,"internal_node_id":"0.0-6.0-50.0"},{"sim_score":5,"rt":3065,"stimulus":"[\"img/0898/68476bbb-34a1-42d9-8bc1-deab783d4489.jpg\",\"img/0894/661b9f9f-4bde-487a-b1ed-87085fde6948.jpg\"]","trial_type":"similarity","trial_index":57,"time_elapsed":318455,"internal_node_id":"0.0-6.0-51.0"},{"sim_score":5,"rt":3242,"stimulus":"[\"img/0875/5a1e5100-0d94-4fec-bbe9-ca9894d2cf8e.jpg\",\"img/0866/4a87911a-d5be-4d4e-ab8e-3d1f581bf507.jpg\"]","trial_type":"similarity","trial_index":58,"time_elapsed":322717,"internal_node_id":"0.0-6.0-52.0"},{"sim_score":5,"rt":3028,"stimulus":"[\"img/0904/96e503ea-6630-4996-85f2-0237688ce441.jpg\",\"img/0904/09934646-45d2-4147-8fec-64a22a5ac822.jpg\"]","trial_type":"similarity","trial_index":59,"time_elapsed":326758,"internal_node_id":"0.0-6.0-53.0"},{"sim_score":5,"rt":3318,"stimulus":"[\"img/0769/8598a429-c671-4d2f-842c-32f681f5e412.jpg\",\"img/0769/8056889f-2b14-4782-bb25-b4e8896ab65b.jpg\"]","trial_type":"similarity","trial_index":60,"time_elapsed":331093,"internal_node_id":"0.0-6.0-54.0"},{"sim_score":1,"rt":3377,"stimulus":"[\"img/0898/26c41340-15bd-4ead-8fe4-c0d0ddca09c2.jpg\",\"img/0758/61d64021-9214-4951-bdf8-f871f9827cf9.jpg\"]","trial_type":"similarity","trial_index":61,"time_elapsed":335483,"internal_node_id":"0.0-6.0-55.0"},{"sim_score":7,"rt":3067,"stimulus":"[\"img/0769/878531fd-e0e8-4ad1-b9ad-f018bb104ca0.jpg\",\"img/0902/511abb54-0094-4f4d-b6dc-3f2c97050521.jpg\"]","trial_type":"similarity","trial_index":62,"time_elapsed":339564,"internal_node_id":"0.0-6.0-56.0"},{"sim_score":7,"rt":3186,"stimulus":"[\"img/0864/66091c27-e588-4476-8af9-265dc6be4156.jpg\",\"img/0881/f62bdcd1-a4b7-4d48-83da-d9c9e01c8727.jpg\"]","trial_type":"similarity","trial_index":63,"time_elapsed":343764,"internal_node_id":"0.0-6.0-57.0"},{"sim_score":5,"rt":3731,"stimulus":"[\"img/0758/7fba58df-2a7a-4b76-8a8f-62739f97f271.jpg\",\"img/0868/d6d1f30d-4323-435a-b194-7892521bc57e.jpg\"]","trial_type":"similarity","trial_index":64,"time_elapsed":348507,"internal_node_id":"0.0-6.0-58.0"},{"sim_score":3,"rt":2763,"stimulus":"[\"img/0862/d0ca4c78-fc35-46ed-bdcc-8e124283c53e.jpg\",\"img/0769/1afb527f-9887-428c-bd26-a12c2f9efb68.jpg\"]","trial_type":"similarity","trial_index":65,"time_elapsed":352283,"internal_node_id":"0.0-6.0-59.0"},{"sim_score":5,"rt":5641,"stimulus":"[\"img/0764/fb92924f-5cfe-4b89-b130-0cce8cc5636b.jpg\",\"img/0903/b7e3723f-fd03-4f3d-8820-f19496463a34.jpg\"]","trial_type":"similarity","trial_index":66,"time_elapsed":358939,"internal_node_id":"0.0-6.0-60.0"},{"sim_score":7,"rt":3261,"stimulus":"[\"img/0899/93494f3b-d539-4075-b027-d82e344563da.jpg\",\"img/0899/76ad07e2-ca25-45eb-84f2-8d80b8ca3e26.jpg\"]","trial_type":"similarity","trial_index":67,"time_elapsed":363212,"internal_node_id":"0.0-6.0-61.0"},{"sim_score":3,"rt":3194,"stimulus":"[\"img/0860/99c589b9-9140-4d17-90c0-b344323edcda.jpg\",\"img/0875/e7e66b13-b573-431e-b85e-288ce04a35a3.jpg\"]","trial_type":"similarity","trial_index":68,"time_elapsed":367419,"internal_node_id":"0.0-6.0-62.0"},{"sim_score":3,"rt":5117,"stimulus":"[\"img/0868/d98ca254-b195-477f-b57e-5760a2717db8.jpg\",\"img/0874/ca76a855-4e77-4f2f-872a-0a718153e7ed.jpg\"]","trial_type":"similarity","trial_index":69,"time_elapsed":373550,"internal_node_id":"0.0-6.0-63.0"},{"sim_score":5,"rt":4601,"stimulus":"[\"img/0758/6e95579b-5166-487c-b8cb-e417c6a218e3.jpg\",\"img/0862/92fcd8a4-8193-4a6a-ae09-dd4a6338b0df.jpg\"]","trial_type":"similarity","trial_index":70,"time_elapsed":379172,"internal_node_id":"0.0-6.0-64.0"},{"sim_score":7,"rt":3080,"stimulus":"[\"img/0904/9d30eff1-46ef-4453-b11e-124ef8145c00.jpg\",\"img/0898/661621d4-a14e-487c-8c74-354134a29710.jpg\"]","trial_type":"similarity","trial_index":71,"time_elapsed":383267,"internal_node_id":"0.0-6.0-65.0"},{"sim_score":3,"rt":2858,"stimulus":"[\"img/0881/f7a8cc63-8842-40a4-9ff8-fe530310d62c.jpg\",\"img/0866/945c6710-d15b-4a5b-a8f6-69af0850357f.jpg\"]","trial_type":"similarity","trial_index":72,"time_elapsed":387139,"internal_node_id":"0.0-6.0-66.0"},{"sim_score":1,"rt":3156,"stimulus":"[\"img/0867/c66898ba-b71b-4d50-84f9-f7f84853a98d.jpg\",\"img/0898/cd3aaa3f-efa9-4ab3-8d6f-a6a9273ddf42.jpg\"]","trial_type":"similarity","trial_index":73,"time_elapsed":391308,"internal_node_id":"0.0-6.0-67.0"},{"sim_score":7,"rt":2619,"stimulus":"[\"img/0902/71c03003-03ef-4b0f-8229-e0c857150a5d.jpg\",\"img/0764/55b3fab1-b809-4d38-a461-3f40ce062f52.jpg\"]","trial_type":"similarity","trial_index":74,"time_elapsed":394939,"internal_node_id":"0.0-6.0-68.0"},{"sim_score":5,"rt":2745,"stimulus":"[\"img/0875/dbdd643e-6d0e-4a5c-ab57-b9c29b9c981a.jpg\",\"img/0867/7d1c497b-c1b3-4ed8-abb5-d7f73306015f.jpg\"]","trial_type":"similarity","trial_index":75,"time_elapsed":398699,"internal_node_id":"0.0-6.0-69.0"},{"sim_score":7,"rt":2748,"stimulus":"[\"img/0766/110832e5-2646-4bd0-a94e-5df8cc314269.jpg\",\"img/0764/06ea144f-f4f3-4a14-ba47-f20f35c561e0.jpg\"]","trial_type":"similarity","trial_index":76,"time_elapsed":402458,"internal_node_id":"0.0-6.0-70.0"},{"sim_score":3,"rt":4301,"stimulus":"[\"img/0894/b422d5c6-3c5a-49ae-a53e-7e88ac993f49.jpg\",\"img/0867/ac1797e4-8afc-48fe-b252-86d1defb1cca.jpg\"]","trial_type":"similarity","trial_index":77,"time_elapsed":407773,"internal_node_id":"0.0-6.0-71.0"},{"sim_score":3,"rt":3279,"stimulus":"[\"img/0875/5a7c4e35-6514-4e12-8879-d16071da4cd6.jpg\",\"img/0764/713cc27e-2338-4486-bfe9-5f5725fbd7a0.jpg\"]","trial_type":"similarity","trial_index":78,"time_elapsed":412066,"internal_node_id":"0.0-6.0-72.0"},{"sim_score":3,"rt":5390,"stimulus":"[\"img/0867/85a96c62-548f-4994-9553-819e03c3135a.jpg\",\"img/0866/d266fece-59b3-46fa-b69f-96f6efb81b59.jpg\"]","trial_type":"similarity","trial_index":79,"time_elapsed":418469,"internal_node_id":"0.0-6.0-73.0"},{"sim_score":3,"rt":5352,"stimulus":"[\"img/0903/07b445ee-0cdb-4d2c-a23b-d727613f4059.jpg\",\"img/0758/ddc336e9-a8b6-4bb9-937a-c7e25e0e9250.jpg\"]","trial_type":"similarity","trial_index":80,"time_elapsed":424843,"internal_node_id":"0.0-6.0-74.0"},{"sim_score":1,"rt":3938,"stimulus":"[\"img/0766/27f54113-8561-4568-9ffe-0a1650ae65ec.jpg\",\"img/0868/4e626425-63c8-484a-8a1d-e66ee4e0bef8.jpg\"]","trial_type":"similarity","trial_index":81,"time_elapsed":429795,"internal_node_id":"0.0-6.0-75.0"},{"sim_score":5,"rt":3297,"stimulus":"[\"img/0874/ca23d307-fc00-4d7d-9106-584c6eb21b4d.jpg\",\"img/0766/09f646c8-a69e-4ed3-879c-8d29b04ad7f9.jpg\"]","trial_type":"similarity","trial_index":82,"time_elapsed":434107,"internal_node_id":"0.0-6.0-76.0"},{"sim_score":3,"rt":5067,"stimulus":"[\"img/0881/566f45f8-5fed-4479-a60f-26377e60a62d.jpg\",\"img/0868/1a62b2b2-18f5-466e-b564-5176a57c565e.jpg\"]","trial_type":"similarity","trial_index":83,"time_elapsed":440187,"internal_node_id":"0.0-6.0-77.0"},{"sim_score":3,"rt":5961,"stimulus":"[\"img/0758/3ddd05d3-557e-4ee7-8b78-9d2d681d8ae2.jpg\",\"img/0901/f469cb1d-6d81-4a45-bab5-cd0b650c2b4f.jpg\"]","trial_type":"similarity","trial_index":84,"time_elapsed":447164,"internal_node_id":"0.0-6.0-78.0"},{"sim_score":3,"rt":2810,"stimulus":"[\"img/0881/14236cf2-6b95-48b8-9368-78af09d2d27f.jpg\",\"img/0898/224c1572-56b9-4f16-a9e4-6f3bc9c114bd.jpg\"]","trial_type":"similarity","trial_index":85,"time_elapsed":450987,"internal_node_id":"0.0-6.0-79.0"},{"sim_score":1,"rt":2570,"stimulus":"[\"img/0867/179ab87a-8eac-4c52-a41f-2e48e3120f09.jpg\",\"img/0758/6cd8c362-ae2a-41eb-80a3-3a4f7ace1530.jpg\"]","trial_type":"similarity","trial_index":86,"time_elapsed":454570,"internal_node_id":"0.0-6.0-80.0"},{"sim_score":5,"rt":2893,"stimulus":"[\"img/0769/5bd04f55-d091-4f57-85db-38426f26bd1a.jpg\",\"img/0899/51a7a498-98c7-42d7-bca8-bc2d8f0b5831.jpg\"]","trial_type":"similarity","trial_index":87,"time_elapsed":458474,"internal_node_id":"0.0-6.0-81.0"},{"sim_score":7,"rt":2589,"stimulus":"[\"img/0903/4cbdc464-e562-4ec2-9bb6-15f894fdf528.jpg\",\"img/0903/59defeb8-98bd-4570-a2f8-9bd189e68ef4.jpg\"]","trial_type":"similarity","trial_index":88,"time_elapsed":462080,"internal_node_id":"0.0-6.0-82.0"},{"sim_score":1,"rt":2605,"stimulus":"[\"img/0867/db7e032f-162b-46f5-ae67-2b29679adee4.jpg\",\"img/0766/006035d8-c736-4daf-bbe4-a9e373af9da6.jpg\"]","trial_type":"similarity","trial_index":89,"time_elapsed":476891,"internal_node_id":"0.0-6.0-83.0"},{"sim_score":1,"rt":4824,"stimulus":"[\"img/0902/0c760cc9-10ac-429e-8957-a7d51fc99683.jpg\",\"img/0867/5e07b34d-b40f-4b1c-ac10-49975bace45f.jpg\"]","trial_type":"similarity","trial_index":90,"time_elapsed":482739,"internal_node_id":"0.0-6.0-84.0"},{"sim_score":1,"rt":2591,"stimulus":"[\"img/0901/58ec7fa9-b466-4651-90aa-c082df0972de.jpg\",\"img/0875/2e13d160-eea1-416b-aff1-d37ab99ecc1d.jpg\"]","trial_type":"similarity","trial_index":91,"time_elapsed":486346,"internal_node_id":"0.0-6.0-85.0"},{"sim_score":1,"rt":3009,"stimulus":"[\"img/0764/958b8576-3a3b-4acc-96dc-06b74de69f37.jpg\",\"img/0866/93a27239-8317-4e08-98ca-d8b1ff298e07.jpg\"]","trial_type":"similarity","trial_index":92,"time_elapsed":490371,"internal_node_id":"0.0-6.0-86.0"},{"sim_score":7,"rt":3450,"stimulus":"[\"img/0901/71e551a2-9ce2-409c-9c7c-dd556a0791e9.jpg\",\"img/0894/7fb082e0-ce79-485c-9109-04367fb32275.jpg\"]","trial_type":"similarity","trial_index":93,"time_elapsed":494834,"internal_node_id":"0.0-6.0-87.0"},{"sim_score":7,"rt":2996,"stimulus":"[\"img/0898/993d8f2d-bef7-4251-a193-0f93a32b7763.jpg\",\"img/0769/1d8734c4-77ab-4165-9e71-5cfe672ff01c.jpg\"]","trial_type":"similarity","trial_index":94,"time_elapsed":498843,"internal_node_id":"0.0-6.0-88.0"},{"sim_score":7,"rt":3529,"stimulus":"[\"img/0769/f73c5138-2f4c-4354-981c-129dff9cc734.jpg\",\"img/0894/792c83e9-a747-4000-bc72-5663d2439edb.jpg\"]","trial_type":"similarity","trial_index":95,"time_elapsed":503386,"internal_node_id":"0.0-6.0-89.0"},{"sim_score":3,"rt":3580,"stimulus":"[\"img/0862/7918ca67-5bd3-4606-a5ea-c39fb11a9297.jpg\",\"img/0874/29830da7-be5f-44e5-b141-652a0ccf7269.jpg\"]","trial_type":"similarity","trial_index":96,"time_elapsed":507978,"internal_node_id":"0.0-6.0-90.0"},{"sim_score":5,"rt":2996,"stimulus":"[\"img/0894/05161000-f476-499b-a878-c13c7f347fd9.jpg\",\"img/0766/60033a74-9919-47e5-913c-71d0d483e7e5.jpg\"]","trial_type":"similarity","trial_index":97,"time_elapsed":511986,"internal_node_id":"0.0-6.0-91.0"},{"sim_score":1,"rt":3180,"stimulus":"[\"img/0874/3ce41e7c-40c8-4d58-a546-171114521796.jpg\",\"img/0867/c71dc569-f49c-4397-8381-68b8d726736d.jpg\"]","trial_type":"similarity","trial_index":98,"time_elapsed":516201,"internal_node_id":"0.0-6.0-92.0"},{"sim_score":1,"rt":3059,"stimulus":"[\"img/0899/8de08897-b430-42fe-9d42-840670b80f94.jpg\",\"img/0868/4bd5105a-d2c3-4f82-8c80-57196106ba53.jpg\"]","trial_type":"similarity","trial_index":99,"time_elapsed":520273,"internal_node_id":"0.0-6.0-93.0"},{"sim_score":7,"rt":2668,"stimulus":"[\"img/0903/2c7b4aed-6038-4aac-958a-e3e58341c313.jpg\",\"img/0862/4f0a3b4c-afbf-486e-b248-1d54982f54b4.jpg\"]","trial_type":"similarity","trial_index":100,"time_elapsed":523954,"internal_node_id":"0.0-6.0-94.0"},{"sim_score":7,"rt":3020,"stimulus":"[\"img/0899/a05bea16-2bb4-4cb9-b8fb-4ff975db6971.jpg\",\"img/0766/dd3e18d0-0c98-4d05-b850-69976ee8cd75.jpg\"]","trial_type":"similarity","trial_index":101,"time_elapsed":527989,"internal_node_id":"0.0-6.0-95.0"},{"sim_score":5,"rt":4713,"stimulus":"[\"img/0867/aa05d113-fc19-4756-a8eb-7878f580bc92.jpg\",\"img/0868/7b212364-ff5f-4e28-9241-7eb6ea00161b.jpg\"]","trial_type":"similarity","trial_index":102,"time_elapsed":533713,"internal_node_id":"0.0-6.0-96.0"},{"sim_score":7,"rt":3213,"stimulus":"[\"img/0862/e697469a-ec19-4414-b972-7b9f3564785b.jpg\",\"img/0901/7c16dd9c-44ad-4d5b-990c-6a0b9b48b1b1.jpg\"]","trial_type":"similarity","trial_index":103,"time_elapsed":537937,"internal_node_id":"0.0-6.0-97.0"},{"sim_score":1,"rt":2637,"stimulus":"[\"img/0875/d59ff733-eaff-4ee2-9443-06954dd0bcb6.jpg\",\"img/0766/a1ed3f0f-e338-4a26-8fe4-4370f0c9fa6e.jpg\"]","trial_type":"similarity","trial_index":104,"time_elapsed":541585,"internal_node_id":"0.0-6.0-98.0"},{"sim_score":7,"rt":2808,"stimulus":"[\"img/0758/d57c2592-a317-4f63-91be-91a3a9afd222.jpg\",\"img/0874/93d1f8dc-acf2-4f03-bd8d-8ec35df276ed.jpg\"]","trial_type":"similarity","trial_index":105,"time_elapsed":545409,"internal_node_id":"0.0-6.0-99.0"},{"sim_score":3,"rt":3117,"stimulus":"[\"img/0904/9dd5708f-3f8b-46a9-b49f-2f2fab87b357.jpg\",\"img/0868/09a9ef4d-d000-4cfa-a6aa-ebec7c2edeb4.jpg\"]","trial_type":"similarity","trial_index":106,"time_elapsed":549537,"internal_node_id":"0.0-6.0-100.0"},{"sim_score":1,"rt":4445,"stimulus":"[\"img/0903/14f179a2-8786-48a2-8377-88d1d404341b.jpg\",\"img/0866/07c9c966-3c8d-40e7-8128-92b2acbaed5d.jpg\"]","trial_type":"similarity","trial_index":107,"time_elapsed":554992,"internal_node_id":"0.0-6.0-101.0"},{"sim_score":1,"rt":2541,"stimulus":"[\"img/0868/0d3abd3a-b6c3-4584-a9f7-e2da63748b3d.jpg\",\"img/0769/022c7e3b-c3f2-4119-b4bc-f22fa7cae18c.jpg\"]","trial_type":"similarity","trial_index":108,"time_elapsed":558544,"internal_node_id":"0.0-6.0-102.0"},{"sim_score":7,"rt":3286,"stimulus":"[\"img/0902/51493fab-2a10-4385-aa88-bee3db441626.jpg\",\"img/0899/8abe6c69-822c-436c-9bf2-96c818b49ba5.jpg\"]","trial_type":"similarity","trial_index":109,"time_elapsed":562841,"internal_node_id":"0.0-6.0-103.0"},{"sim_score":1,"rt":2795,"stimulus":"[\"img/0868/293079b8-7e0c-4afd-a390-1e5d35fe3ded.jpg\",\"img/0862/ee3b7bff-4a70-4e84-9bea-4a565e456acb.jpg\"]","trial_type":"similarity","trial_index":110,"time_elapsed":566649,"internal_node_id":"0.0-6.0-104.0"},{"sim_score":5,"rt":3286,"stimulus":"[\"img/0903/8f7f9939-b8e6-433f-93dd-b362496c80a7.jpg\",\"img/0894/492d2f29-d7b9-4422-8be8-47fd58bfaa8b.jpg\"]","trial_type":"similarity","trial_index":111,"time_elapsed":570945,"internal_node_id":"0.0-6.0-105.0"},{"sim_score":7,"rt":2517,"stimulus":"[\"img/0864/0f537697-a314-47c3-a8cc-8df23b7e536c.jpg\",\"img/0874/2c9464dd-8a23-4baa-ac94-1ba3af5c15cc.jpg\"]","trial_type":"similarity","trial_index":112,"time_elapsed":574473,"internal_node_id":"0.0-6.0-106.0"},{"sim_score":5,"rt":3290,"stimulus":"[\"img/0862/ad593cc7-cabe-4bb7-8e14-8a447a0717b4.jpg\",\"img/0902/b03129ba-b087-4558-af37-e8399d6217d6.jpg\"]","trial_type":"similarity","trial_index":113,"time_elapsed":578776,"internal_node_id":"0.0-6.0-107.0"},{"sim_score":7,"rt":3110,"stimulus":"[\"img/0904/24fc38fe-842c-4831-ad8a-b1de5c25c0a8.jpg\",\"img/0903/680ed18e-b311-4ecf-9b00-7dea32128334.jpg\"]","trial_type":"similarity","trial_index":114,"time_elapsed":582896,"internal_node_id":"0.0-6.0-108.0"},{"sim_score":3,"rt":3630,"stimulus":"[\"img/0764/f713847b-4832-42d1-8fb3-e17e37fd745c.jpg\",\"img/0864/9b2490c5-a282-400a-9736-e1a0ecbf1cb7.jpg\"]","trial_type":"similarity","trial_index":115,"time_elapsed":587538,"internal_node_id":"0.0-6.0-109.0"},{"sim_score":3,"rt":2987,"stimulus":"[\"img/0866/11a1d141-be5e-443c-98c1-a9d4d9e3dec0.jpg\",\"img/0894/9b1333fd-3561-43bf-aee5-99b7b7ca3dc3.jpg\"]","trial_type":"similarity","trial_index":116,"time_elapsed":591537,"internal_node_id":"0.0-6.0-110.0"},{"sim_score":7,"rt":2877,"stimulus":"[\"img/0899/06b0fc99-0581-461a-9913-d1a5a941ac61.jpg\",\"img/0903/005ad0de-4f52-433c-b515-dbe8d46184a3.jpg\"]","trial_type":"similarity","trial_index":117,"time_elapsed":595424,"internal_node_id":"0.0-6.0-111.0"},{"sim_score":7,"rt":2956,"stimulus":"[\"img/0902/d49743d6-67ae-4c2e-a939-8fd895a0f18e.jpg\",\"img/0904/2f88ce53-02d0-4f95-a082-182c56a0eeb4.jpg\"]","trial_type":"similarity","trial_index":118,"time_elapsed":599392,"internal_node_id":"0.0-6.0-112.0"},{"sim_score":1,"rt":2605,"stimulus":"[\"img/0864/5f74a653-3bdc-4308-8cca-ac667dc22e1f.jpg\",\"img/0860/17b44a7d-c5ca-479f-9e87-f65a64f5c80e.jpg\"]","trial_type":"similarity","trial_index":119,"time_elapsed":603008,"internal_node_id":"0.0-6.0-113.0"},{"sim_score":1,"rt":2630,"stimulus":"[\"img/0860/94ef7afc-e0e6-4a15-98c6-0bfac82bc832.jpg\",\"img/0899/f58b8d2f-b19d-4b59-8b94-8834be92e4ba.jpg\"]","trial_type":"similarity","trial_index":120,"time_elapsed":606648,"internal_node_id":"0.0-6.0-114.0"},{"sim_score":3,"rt":5187,"stimulus":"[\"img/0881/db77fe00-aeb0-4d1d-aa66-f3a96fd077e4.jpg\",\"img/0903/6b5dcc60-3ad3-4962-93e5-e6cf768477af.jpg\"]","trial_type":"similarity","trial_index":121,"time_elapsed":612844,"internal_node_id":"0.0-6.0-115.0"},{"sim_score":1,"rt":4161,"stimulus":"[\"img/0894/3664e04c-c6d3-4c9b-afb6-25d89974b174.jpg\",\"img/0874/85eb9b8a-c4c6-4e5a-b8e7-363a87a82054.jpg\"]","trial_type":"similarity","trial_index":122,"time_elapsed":618015,"internal_node_id":"0.0-6.0-116.0"},{"sim_score":1,"rt":2990,"stimulus":"[\"img/0881/adc02f34-ce97-4aef-850f-00519df06fd7.jpg\",\"img/0862/f188d4f0-76a4-4102-818c-a209969d73a5.jpg\"]","trial_type":"similarity","trial_index":123,"time_elapsed":622016,"internal_node_id":"0.0-6.0-117.0"},{"sim_score":5,"rt":2878,"stimulus":"[\"img/0868/6a28c3b0-3d76-498a-9fb7-ddafc665eca8.jpg\",\"img/0875/fb732ab5-013a-4366-9f65-27811ed157e9.jpg\"]","trial_type":"similarity","trial_index":124,"time_elapsed":625903,"internal_node_id":"0.0-6.0-118.0"},{"sim_score":7,"rt":2886,"stimulus":"[\"img/0860/b03b963d-949b-4d8d-b19c-4950c89eeca2.jpg\",\"img/0758/67c0be2f-9e91-48b3-8219-70ac0a1802fa.jpg\"]","trial_type":"similarity","trial_index":125,"time_elapsed":629800,"internal_node_id":"0.0-6.0-119.0"},{"sim_score":5,"rt":2486,"stimulus":"[\"img/0864/1ebbc554-99fa-49f9-8799-317375a79820.jpg\",\"img/0875/34132396-d896-4c2d-8087-646dd867e769.jpg\"]","trial_type":"similarity","trial_index":126,"time_elapsed":633296,"internal_node_id":"0.0-6.0-120.0"},{"sim_score":1,"rt":3358,"stimulus":"[\"img/0898/881e2a85-d5c2-49be-a0c6-8a6ce2c4af08.jpg\",\"img/0866/02f5e6b9-52b7-448c-9708-5b460d0c9a23.jpg\"]","trial_type":"similarity","trial_index":127,"time_elapsed":637663,"internal_node_id":"0.0-6.0-121.0"},{"sim_score":1,"rt":2502,"stimulus":"[\"img/0874/eba003b4-cdab-4eee-8bc3-f064c7d94165.jpg\",\"img/0904/b5855d6a-7ef9-46ca-9215-6e9fa046e543.jpg\"]","trial_type":"similarity","trial_index":128,"time_elapsed":641176,"internal_node_id":"0.0-6.0-122.0"},{"sim_score":1,"rt":3876,"stimulus":"[\"img/0904/06dacdc5-2206-4fb8-92b7-88042d22833c.jpg\",\"img/0864/a248adb3-c70b-4652-b7a3-776d2a1e904b.jpg\"]","trial_type":"similarity","trial_index":129,"time_elapsed":646063,"internal_node_id":"0.0-6.0-123.0"},{"sim_score":5,"rt":3326,"stimulus":"[\"img/0894/6aa5545f-fa7d-4286-bbaa-aaf34dc7ec96.jpg\",\"img/0902/31abfa33-7cdb-44ad-968e-9f7b324d577a.jpg\"]","trial_type":"similarity","trial_index":130,"time_elapsed":650399,"internal_node_id":"0.0-6.0-124.0"},{"sim_score":5,"rt":3407,"stimulus":"[\"img/0868/e0aff734-077f-40dd-9781-74821abd3621.jpg\",\"img/0864/3651d070-2fc5-4848-b6a6-088a2d9ac5c9.jpg\"]","trial_type":"similarity","trial_index":131,"time_elapsed":660670,"internal_node_id":"0.0-6.0-125.0"},{"sim_score":1,"rt":3565,"stimulus":"[\"img/0899/d60714ae-98d7-4564-8c98-94dba1351135.jpg\",\"img/0866/d493a2c8-66eb-44b4-be02-2f327b700b7c.jpg\"]","trial_type":"similarity","trial_index":132,"time_elapsed":665248,"internal_node_id":"0.0-6.0-126.0"},{"sim_score":3,"rt":2780,"stimulus":"[\"img/0875/cff79b3a-a797-4393-9757-6275f999ec04.jpg\",\"img/0904/fe746a3f-8458-48d0-8a13-8cba2a9df9f8.jpg\"]","trial_type":"similarity","trial_index":133,"time_elapsed":669039,"internal_node_id":"0.0-6.0-127.0"},{"sim_score":1,"rt":2781,"stimulus":"[\"img/0867/de92135f-5b65-4ed9-b245-188292c7c2f8.jpg\",\"img/0899/66ab3178-c3fe-4455-ad17-d5952b08e018.jpg\"]","trial_type":"similarity","trial_index":134,"time_elapsed":672832,"internal_node_id":"0.0-6.0-128.0"},{"sim_score":1,"rt":3421,"stimulus":"[\"img/0901/12da1841-e611-435c-9719-109413d536a8.jpg\",\"img/0867/50a1b60e-3a29-44bf-b606-d4bd3746fea9.jpg\"]","trial_type":"similarity","trial_index":135,"time_elapsed":677263,"internal_node_id":"0.0-6.0-129.0"},{"sim_score":1,"rt":2460,"stimulus":"[\"img/0864/49150900-7f25-4ce8-8d10-9b47a71d1997.jpg\",\"img/0769/04347740-f8f6-48bb-887a-f68babd0a0d4.jpg\"]","trial_type":"similarity","trial_index":136,"time_elapsed":680735,"internal_node_id":"0.0-6.0-130.0"},{"sim_score":1,"rt":3851,"stimulus":"[\"img/0903/b548d383-2a95-4575-8c13-647873751ff1.jpg\",\"img/0868/8b0b8473-e2c0-4331-aa56-c3a5c29369da.jpg\"]","trial_type":"similarity","trial_index":137,"time_elapsed":685600,"internal_node_id":"0.0-6.0-131.0"},{"sim_score":1,"rt":2491,"stimulus":"[\"img/0864/1d15626a-2f7c-410f-819c-0fa2c967e95e.jpg\",\"img/0867/a749dddb-69f0-44a6-acdc-2bf295cf6dcc.jpg\"]","trial_type":"similarity","trial_index":138,"time_elapsed":689103,"internal_node_id":"0.0-6.0-132.0"},{"sim_score":7,"rt":2900,"stimulus":"[\"img/0901/77087ed2-6e12-4329-b2a5-605bca6d972d.jpg\",\"img/0860/524b2e98-5767-4d53-942c-ebae6925659b.jpg\"]","trial_type":"similarity","trial_index":139,"time_elapsed":693016,"internal_node_id":"0.0-6.0-133.0"},{"sim_score":1,"rt":3253,"stimulus":"[\"img/0881/84397291-bc14-4fbf-90e8-241e486ab0fe.jpg\",\"img/0766/69e486f7-dbef-456b-9d48-53d814248a28.jpg\"]","trial_type":"similarity","trial_index":140,"time_elapsed":697279,"internal_node_id":"0.0-6.0-134.0"},{"sim_score":1,"rt":2510,"stimulus":"[\"img/0903/150cf64c-0bd2-4674-abbb-a1387cf1f3e9.jpg\",\"img/0864/65210d57-1153-4657-886a-32e758f49b4a.jpg\"]","trial_type":"similarity","trial_index":141,"time_elapsed":700799,"internal_node_id":"0.0-6.0-135.0"},{"sim_score":1,"rt":3029,"stimulus":"[\"img/0758/9fb5b2fe-3f00-4fe6-973c-1ce10d5f4cd5.jpg\",\"img/0894/38cf335f-f76f-4349-8d65-e20cd6859565.jpg\"]","trial_type":"similarity","trial_index":142,"time_elapsed":704839,"internal_node_id":"0.0-6.0-136.0"},{"sim_score":3,"rt":2821,"stimulus":"[\"img/0769/14d393ce-e5be-4ca1-86ce-cc27d4b6074c.jpg\",\"img/0860/e8b8c51e-1834-4875-8b61-6c5bc9b178bd.jpg\"]","trial_type":"similarity","trial_index":143,"time_elapsed":708671,"internal_node_id":"0.0-6.0-137.0"},{"sim_score":5,"rt":3374,"stimulus":"[\"img/0904/60d1a521-edf7-4696-9263-f21ac0e62a01.jpg\",\"img/0766/e8052e17-9dae-4139-802b-6e590cb2d526.jpg\"]","trial_type":"similarity","trial_index":144,"time_elapsed":713055,"internal_node_id":"0.0-6.0-138.0"},{"sim_score":1,"rt":2762,"stimulus":"[\"img/0868/c8ac40c7-6904-4e13-8d61-c75d3052dc4e.jpg\",\"img/0860/31ff6436-98bf-4652-bed2-40f627229568.jpg\"]","trial_type":"similarity","trial_index":145,"time_elapsed":716833,"internal_node_id":"0.0-6.0-139.0"},{"sim_score":7,"rt":2315,"stimulus":"[\"img/0758/a085b443-b5d7-4cb2-9ad4-b9dab0fc23f1.jpg\",\"img/0864/c3b63e8f-ea39-4d70-a1f2-b3fe4be8eb75.jpg\"]","trial_type":"similarity","trial_index":146,"time_elapsed":720159,"internal_node_id":"0.0-6.0-140.0"},{"sim_score":7,"rt":2708,"stimulus":"[\"img/0867/6e19c858-b606-45b2-a4c6-910a73f1d82c.jpg\",\"img/0867/f26f6b60-f772-4f4c-95a4-addc62cfd692.jpg\"]","trial_type":"similarity","trial_index":147,"time_elapsed":723879,"internal_node_id":"0.0-6.0-141.0"},{"sim_score":7,"rt":2542,"stimulus":"[\"img/0898/40f99fb2-64d2-4e72-8a7f-a1cf60741e69.jpg\",\"img/0898/ec565187-2e31-4fdd-9a5c-153d0c789ae0.jpg\"]","trial_type":"similarity","trial_index":148,"time_elapsed":727430,"internal_node_id":"0.0-6.0-142.0"},{"sim_score":7,"rt":2966,"stimulus":"[\"img/0866/23a224f3-2012-4fc8-8e0f-3c36f8de27fd.jpg\",\"img/0769/9ea27d61-3d55-418c-8d14-82e90f656f01.jpg\"]","trial_type":"similarity","trial_index":149,"time_elapsed":731407,"internal_node_id":"0.0-6.0-143.0"},{"sim_score":5,"rt":2525,"stimulus":"[\"img/0860/fd4662f9-4c03-4d79-8593-06735e55a64b.jpg\",\"img/0898/a8f16b02-e19f-423b-86c3-a36562ae1f9b.jpg\"]","trial_type":"similarity","trial_index":150,"time_elapsed":734942,"internal_node_id":"0.0-6.0-144.0"},{"sim_score":3,"rt":2638,"stimulus":"[\"img/0766/79767d11-b612-4e8a-9e4b-a8ac95bb6a54.jpg\",\"img/0864/6f631579-acf1-415c-a42c-1207f62a8d99.jpg\"]","trial_type":"similarity","trial_index":151,"time_elapsed":738590,"internal_node_id":"0.0-6.0-145.0"},{"sim_score":1,"rt":3526,"stimulus":"[\"img/0860/8fdba999-b946-4c7d-9891-336018b563ef.jpg\",\"img/0903/12bd8657-92e6-4c36-a06c-597e7a1d51f3.jpg\"]","trial_type":"similarity","trial_index":152,"time_elapsed":743126,"internal_node_id":"0.0-6.0-146.0"},{"sim_score":1,"rt":2815,"stimulus":"[\"img/0867/2e1a0b58-cdb1-4107-a14e-452530d7b9b0.jpg\",\"img/0764/8389e74f-e0e0-435d-945f-da1f4c92ccb6.jpg\"]","trial_type":"similarity","trial_index":153,"time_elapsed":746950,"internal_node_id":"0.0-6.0-147.0"},{"sim_score":7,"rt":2998,"stimulus":"[\"img/0769/3adfa417-3b90-4aab-b437-5eaa474189cb.jpg\",\"img/0904/4e58005d-a2ec-4aaa-b199-445343561396.jpg\"]","trial_type":"similarity","trial_index":154,"time_elapsed":750958,"internal_node_id":"0.0-6.0-148.0"},{"sim_score":5,"rt":2781,"stimulus":"[\"img/0764/d7f3ac54-318a-4dac-a06b-62bed34d01a4.jpg\",\"img/0901/1b86f2fc-7a1d-4aa8-9252-114f92edef3b.jpg\"]","trial_type":"similarity","trial_index":155,"time_elapsed":754750,"internal_node_id":"0.0-6.0-149.0"},{"sim_score":5,"rt":2353,"stimulus":"[\"img/0904/696ebb60-8891-417a-91fd-c53218907a95.jpg\",\"img/0899/f95cbdb4-f804-4f5d-ad76-373ad343e658.jpg\"]","trial_type":"similarity","trial_index":156,"time_elapsed":758162,"internal_node_id":"0.0-6.0-150.0"},{"sim_score":3,"rt":4469,"stimulus":"[\"img/0862/fad1d7c1-8187-43c3-942a-0fc12183e48e.jpg\",\"img/0867/f8159067-056c-41f1-a136-c529fe5e970a.jpg\"]","trial_type":"similarity","trial_index":157,"time_elapsed":763651,"internal_node_id":"0.0-6.0-151.0"},{"sim_score":7,"rt":2504,"stimulus":"[\"img/0766/5d1b8041-c5a1-4b02-b4fe-3453d98a0d72.jpg\",\"img/0766/d3bab2fc-ddcc-40a0-bb72-c0d0ebe19978.jpg\"]","trial_type":"similarity","trial_index":158,"time_elapsed":767176,"internal_node_id":"0.0-6.0-152.0"},{"sim_score":1,"rt":3600,"stimulus":"[\"img/0862/1c20f772-3a51-4a80-aac0-f57dc9f86c28.jpg\",\"img/0894/c505c65a-cde2-4f2c-8cde-f8676f7c894d.jpg\"]","trial_type":"similarity","trial_index":159,"time_elapsed":771792,"internal_node_id":"0.0-6.0-153.0"},{"sim_score":5,"rt":2706,"stimulus":"[\"img/0899/d8f2dd94-570e-4e8c-a087-d96090fb9e8c.jpg\",\"img/0901/5657dd86-0ff9-4753-ba2b-9dfb223e5c89.jpg\"]","trial_type":"similarity","trial_index":160,"time_elapsed":775513,"internal_node_id":"0.0-6.0-154.0"},{"sim_score":1,"rt":2864,"stimulus":"[\"img/0874/3f471690-9788-4d03-90c7-f615aecef149.jpg\",\"img/0874/1016b306-087c-4afc-aa08-fa527b28dc76.jpg\"]","trial_type":"similarity","trial_index":161,"time_elapsed":779391,"internal_node_id":"0.0-6.0-155.0"},{"sim_score":3,"rt":3499,"stimulus":"[\"img/0860/15b24a61-25be-4356-9eac-5ce95d0cb4a4.jpg\",\"img/0867/bf560d4f-dee3-4f11-a385-705cc1aa5f3c.jpg\"]","trial_type":"similarity","trial_index":162,"time_elapsed":783904,"internal_node_id":"0.0-6.0-156.0"},{"sim_score":5,"rt":2616,"stimulus":"[\"img/0901/a6c90438-fa7c-4418-ac7c-16c2e772dd98.jpg\",\"img/0881/c843e210-bdfe-4a7c-8bbe-fcea1f90fe1c.jpg\"]","trial_type":"similarity","trial_index":163,"time_elapsed":787535,"internal_node_id":"0.0-6.0-157.0"},{"sim_score":5,"rt":2780,"stimulus":"[\"img/0903/8635cf25-2648-4fe9-8c42-79d2598e999c.jpg\",\"img/0902/3b243e54-0803-4c29-af42-4037c2118495.jpg\"]","trial_type":"similarity","trial_index":164,"time_elapsed":791326,"internal_node_id":"0.0-6.0-158.0"},{"sim_score":5,"rt":2924,"stimulus":"[\"img/0860/5383b320-1518-4095-a58e-5cc1ae30b64c.jpg\",\"img/0764/c01e2d65-6586-441b-bef5-3c96fcd85380.jpg\"]","trial_type":"similarity","trial_index":165,"time_elapsed":795264,"internal_node_id":"0.0-6.0-159.0"},{"sim_score":3,"rt":4992,"stimulus":"[\"img/0902/d2c34af0-8c50-437d-8cc3-619195a3e8ba.jpg\",\"img/0875/99698b4d-b4a1-44bc-8c83-8ea755bbbf61.jpg\"]","trial_type":"similarity","trial_index":166,"time_elapsed":801270,"internal_node_id":"0.0-6.0-160.0"},{"sim_score":5,"rt":3020,"stimulus":"[\"img/0898/01bfe666-3510-4fc7-964f-d00d28732dc8.jpg\",\"img/0862/92f0146c-20c4-482e-aef5-adb693790338.jpg\"]","trial_type":"similarity","trial_index":167,"time_elapsed":805303,"internal_node_id":"0.0-6.0-161.0"},{"sim_score":1,"rt":3250,"stimulus":"[\"img/0894/76c1201f-8524-4865-85e6-dda8cb4ac986.jpg\",\"img/0875/5a716432-c6ca-4b1c-955a-2b8ac25198ee.jpg\"]","trial_type":"similarity","trial_index":168,"time_elapsed":809570,"internal_node_id":"0.0-6.0-162.0"},{"sim_score":3,"rt":4299,"stimulus":"[\"img/0866/f756f7d1-9ad8-4a34-9ef6-7a443d705bfe.jpg\",\"img/0864/8ddd2e30-a1d0-479f-9cbe-591213023893.jpg\"]","trial_type":"similarity","trial_index":169,"time_elapsed":814886,"internal_node_id":"0.0-6.0-163.0"},{"sim_score":3,"rt":2798,"stimulus":"[\"img/0766/717fd72f-a281-499b-a5ba-5e2ecc4d4866.jpg\",\"img/0862/eefa5588-9efd-4591-aa5f-a2e17c7d7bcc.jpg\"]","trial_type":"similarity","trial_index":170,"time_elapsed":818697,"internal_node_id":"0.0-6.0-164.0"},{"sim_score":3,"rt":2723,"stimulus":"[\"img/0866/c446214b-a368-4c65-ae39-ea46894256ab.jpg\",\"img/0874/a82926a3-0b43-4add-803c-d5f9ea7798ee.jpg\"]","trial_type":"similarity","trial_index":171,"time_elapsed":822440,"internal_node_id":"0.0-6.0-165.0"},{"sim_score":7,"rt":2621,"stimulus":"[\"img/0862/f43ceabf-acc1-4107-b857-5d1849808f93.jpg\",\"img/0860/61fb959d-d4d9-4de4-9e4e-4fa62b4cfcd5.jpg\"]","trial_type":"similarity","trial_index":172,"time_elapsed":826079,"internal_node_id":"0.0-6.0-166.0"},{"sim_score":5,"rt":2577,"stimulus":"[\"img/0766/ef3b15ce-abb7-4292-ad93-aec8e8b50520.jpg\",\"img/0901/693e0535-ef7e-4d60-af9d-fac2f38e8307.jpg\"]","trial_type":"similarity","trial_index":173,"time_elapsed":834325,"internal_node_id":"0.0-6.0-167.0"},{"sim_score":7,"rt":3016,"stimulus":"[\"img/0862/f23038d4-c366-4f70-979f-66b62362efa4.jpg\",\"img/0862/e0f1a4e9-e1b6-45f7-af67-89f334e6630d.jpg\"]","trial_type":"similarity","trial_index":174,"time_elapsed":838353,"internal_node_id":"0.0-6.0-168.0"},{"sim_score":5,"rt":2705,"stimulus":"[\"img/0894/11674fa4-285d-44e2-939f-2228c6a64080.jpg\",\"img/0764/5c8fbafc-e62e-43ed-9b37-f73e8e45147d.jpg\"]","trial_type":"similarity","trial_index":175,"time_elapsed":842071,"internal_node_id":"0.0-6.0-169.0"},{"sim_score":1,"rt":2601,"stimulus":"[\"img/0874/8cdb1c07-1c32-46d2-981c-3636560fa6e5.jpg\",\"img/0898/0c7dde4f-efce-4b7a-9387-6921635b7890.jpg\"]","trial_type":"similarity","trial_index":176,"time_elapsed":845687,"internal_node_id":"0.0-6.0-170.0"},{"sim_score":5,"rt":2635,"stimulus":"[\"img/0860/c7047cd2-7cc1-41b6-8a34-c0986774975f.jpg\",\"img/0766/989c5c7f-1aff-4442-ac63-9d46acf4a891.jpg\"]","trial_type":"similarity","trial_index":177,"time_elapsed":849337,"internal_node_id":"0.0-6.0-171.0"},{"sim_score":3,"rt":2706,"stimulus":"[\"img/0898/8605a25b-6895-476d-8c13-df7a83f96093.jpg\",\"img/0864/f92649a2-0590-4d31-9a7a-1bfb81666a2d.jpg\"]","trial_type":"similarity","trial_index":178,"time_elapsed":853064,"internal_node_id":"0.0-6.0-172.0"},{"sim_score":3,"rt":2712,"stimulus":"[\"img/0881/e6746727-7f89-47ec-b939-d98abe78372d.jpg\",\"img/0764/5d83b9db-3b2b-4dc8-9bd1-2b515b19c858.jpg\"]","trial_type":"similarity","trial_index":179,"time_elapsed":856791,"internal_node_id":"0.0-6.0-173.0"},{"sim_score":3,"rt":3129,"stimulus":"[\"img/0898/04e39a7a-fcf6-4156-ab0e-f5871f335e1c.jpg\",\"img/0868/15dd6fd7-791e-4b53-b203-195d617521a4.jpg\"]","trial_type":"similarity","trial_index":180,"time_elapsed":860936,"internal_node_id":"0.0-6.0-174.0"},{"sim_score":7,"rt":2831,"stimulus":"[\"img/0864/efcfbb1b-8197-44c9-b723-40d6c608dd3c.jpg\",\"img/0864/e02eddb5-f468-499c-91bf-f7be3ffe979b.jpg\"]","trial_type":"similarity","trial_index":181,"time_elapsed":864782,"internal_node_id":"0.0-6.0-175.0"},{"sim_score":5,"rt":3738,"stimulus":"[\"img/0899/5b56dd3e-3f49-47cc-af84-16da6457753b.jpg\",\"img/0862/47ed5efd-4ec9-4b74-bb4e-a5f5cf0c3e7d.jpg\"]","trial_type":"similarity","trial_index":182,"time_elapsed":869535,"internal_node_id":"0.0-6.0-176.0"},{"sim_score":5,"rt":2997,"stimulus":"[\"img/0875/03c3c331-738b-4446-af92-3d7386b08c2e.jpg\",\"img/0758/f61ecdf8-a7d4-4db0-b84d-be46f7cfaffc.jpg\"]","trial_type":"similarity","trial_index":183,"time_elapsed":873543,"internal_node_id":"0.0-6.0-177.0"},{"sim_score":5,"rt":3003,"stimulus":"[\"img/0866/bf14b5bd-fb55-47db-86b9-4f8aeb9a6dad.jpg\",\"img/0901/0adb3bd6-d758-4ba7-9723-3ad6cac05bd5.jpg\"]","trial_type":"similarity","trial_index":184,"time_elapsed":877558,"internal_node_id":"0.0-6.0-178.0"},{"sim_score":1,"rt":3266,"stimulus":"[\"img/0769/a3cfbdeb-acb3-4eac-87fb-4b117f42d4f8.jpg\",\"img/0874/c0378dac-9370-439a-8b79-db27c96fb390.jpg\"]","trial_type":"similarity","trial_index":185,"time_elapsed":881838,"internal_node_id":"0.0-6.0-179.0"},{"sim_score":5,"rt":2835,"stimulus":"[\"img/0875/2c361b79-c3d1-4eda-812e-bf03192407bf.jpg\",\"img/0881/1407b85b-a1c6-45b1-9884-3b24203efadb.jpg\"]","trial_type":"similarity","trial_index":186,"time_elapsed":885685,"internal_node_id":"0.0-6.0-180.0"},{"sim_score":7,"rt":2604,"stimulus":"[\"img/0866/8efcaa46-83ab-4dee-a35f-850402aa21ae.jpg\",\"img/0868/3a62db2d-97e9-44a3-b8e3-a48c6f0e423b.jpg\"]","trial_type":"similarity","trial_index":187,"time_elapsed":889302,"internal_node_id":"0.0-6.0-181.0"},{"sim_score":5,"rt":2529,"stimulus":"[\"img/0899/00715b3f-851b-420b-a26b-d7f79f7759a9.jpg\",\"img/0758/a709631e-3705-4725-ac40-f0d916924f08.jpg\"]","trial_type":"similarity","trial_index":188,"time_elapsed":892845,"internal_node_id":"0.0-6.0-182.0"},{"sim_score":3,"rt":2372,"stimulus":"[\"img/0874/7e4f2150-3b59-4a36-b5da-a4e0ba410531.jpg\",\"img/0875/90da8d75-108a-44ad-b999-e21fee3860d3.jpg\"]","trial_type":"similarity","trial_index":189,"time_elapsed":896230,"internal_node_id":"0.0-6.0-183.0"},{"sim_score":7,"rt":2715,"stimulus":"[\"img/0904/b7c2a2c8-df33-4473-b3d4-ff7147c60db3.jpg\",\"img/0862/cdaed51d-9e2f-4807-801a-4663c40077e2.jpg\"]","trial_type":"similarity","trial_index":190,"time_elapsed":899962,"internal_node_id":"0.0-6.0-184.0"},{"sim_score":5,"rt":2448,"stimulus":"[\"img/0902/a323b62d-2fd5-4ac8-acc6-35b768f3c3f2.jpg\",\"img/0766/f5f78e4e-d88f-4866-951a-118ba9fec4d0.jpg\"]","trial_type":"similarity","trial_index":191,"time_elapsed":903425,"internal_node_id":"0.0-6.0-185.0"},{"sim_score":1,"rt":2991,"stimulus":"[\"img/0758/821c68d3-5cb0-4eae-8659-30e6263fca39.jpg\",\"img/0769/662ab839-88d1-4ebf-af05-9b2980cad943.jpg\"]","trial_type":"similarity","trial_index":192,"time_elapsed":907429,"internal_node_id":"0.0-6.0-186.0"},{"sim_score":7,"rt":2502,"stimulus":"[\"img/0881/7e822106-76f7-4b10-a805-14dc68b2cfaf.jpg\",\"img/0881/f037e3b0-09cb-4a83-b2d9-6a71fe474e63.jpg\"]","trial_type":"similarity","trial_index":193,"time_elapsed":910944,"internal_node_id":"0.0-6.0-187.0"},{"sim_score":3,"rt":2777,"stimulus":"[\"img/0758/e38fd80d-18d0-42f3-b848-f930788e8bd7.jpg\",\"img/0866/a04d37f0-99dd-478a-b6c6-58b215138f84.jpg\"]","trial_type":"similarity","trial_index":194,"time_elapsed":914743,"internal_node_id":"0.0-6.0-188.0"},{"sim_score":5,"rt":2911,"stimulus":"[\"img/0764/f9f890e6-3c2f-40cd-84e9-85e0b54cb28e.jpg\",\"img/0898/82231d4c-218b-4d0a-b50d-35a49b524e97.jpg\"]","trial_type":"similarity","trial_index":195,"time_elapsed":918670,"internal_node_id":"0.0-6.0-189.0"},{"sim_score":7,"rt":2376,"stimulus":"[\"img/0903/365f176c-25a4-4973-bd3c-279bf1b39476.jpg\",\"img/0901/168eb52c-c415-43f1-b5c8-e76e1a1ec247.jpg\"]","trial_type":"similarity","trial_index":196,"time_elapsed":922063,"internal_node_id":"0.0-6.0-190.0"},{"sim_score":7,"rt":2617,"stimulus":"[\"img/0902/af45fe42-178c-4c1a-99ef-256e87e3b092.jpg\",\"img/0898/b2732712-71c2-45d8-834f-2b2ed5504910.jpg\"]","trial_type":"similarity","trial_index":197,"time_elapsed":925693,"internal_node_id":"0.0-6.0-191.0"},{"sim_score":5,"rt":3970,"stimulus":"[\"img/0864/ef9cbca0-4be8-435d-ad49-977259e80409.jpg\",\"img/0901/b9141736-3041-4385-a586-b1fe911c76a5.jpg\"]","trial_type":"similarity","trial_index":198,"time_elapsed":930679,"internal_node_id":"0.0-6.0-192.0"},{"sim_score":3,"rt":5034,"stimulus":"[\"img/0894/5ff3c4f6-52e2-4075-8679-be0312e59703.jpg\",\"img/0881/4bd34581-94d8-4e88-8c89-5cef864ca3be.jpg\"]","trial_type":"similarity","trial_index":199,"time_elapsed":936725,"internal_node_id":"0.0-6.0-193.0"},{"sim_score":7,"rt":2976,"stimulus":"[\"img/0868/5fa7f9d0-f0e5-454c-8224-74d964818f56.jpg\",\"img/0868/83b4350a-3b70-4cea-b7f5-b5b56f3050a8.jpg\"]","trial_type":"similarity","trial_index":200,"time_elapsed":940721,"internal_node_id":"0.0-6.0-194.0"},{"sim_score":5,"rt":2407,"stimulus":"[\"img/0899/fd9efb43-701f-4cd6-baaa-4c38315f4bdc.jpg\",\"img/0764/b8e23f4f-ff19-4472-ad9b-2f85548ebca0.jpg\"]","trial_type":"similarity","trial_index":201,"time_elapsed":944150,"internal_node_id":"0.0-6.0-195.0"},{"sim_score":1,"rt":2992,"stimulus":"[\"img/0881/292e9b4b-fca0-4ba8-87f1-4048f9e37b7d.jpg\",\"img/0904/09dac84f-3d1c-4445-a68e-d0389fdbf1e9.jpg\"]","trial_type":"similarity","trial_index":202,"time_elapsed":948158,"internal_node_id":"0.0-6.0-196.0"},{"sim_score":1,"rt":3713,"stimulus":"[\"img/0864/6e846d43-94a6-4b37-a268-65eda979f052.jpg\",\"img/0902/b76efc44-a50f-4dac-b997-ff0222376067.jpg\"]","trial_type":"similarity","trial_index":203,"time_elapsed":952886,"internal_node_id":"0.0-6.0-197.0"},{"sim_score":5,"rt":3801,"stimulus":"[\"img/0894/a98416c0-51e2-4960-85da-d81d8688b9d5.jpg\",\"img/0904/d23dd7be-7fe8-4435-82f7-bd592c01e6a1.jpg\"]","trial_type":"similarity","trial_index":204,"time_elapsed":957702,"internal_node_id":"0.0-6.0-198.0"},{"sim_score":7,"rt":2948,"stimulus":"[\"img/0901/4ca4f962-40c0-4c59-b14a-3cd7b8c9029b.jpg\",\"img/0901/875dedb9-24c9-4443-9f8c-85e97d70ee5a.jpg\"]","trial_type":"similarity","trial_index":205,"time_elapsed":961661,"internal_node_id":"0.0-6.0-199.0"},{"sim_score":1,"rt":3139,"stimulus":"[\"img/0894/2d2db7b3-e8a3-499b-b63a-14f51bf73882.jpg\",\"img/0860/29a21a9f-54bb-4093-ad3f-04823ceaa89f.jpg\"]","trial_type":"similarity","trial_index":206,"time_elapsed":965814,"internal_node_id":"0.0-6.0-200.0"},{"sim_score":3,"rt":3325,"stimulus":"[\"img/0898/6cd3830b-d44e-4915-be2b-88d31424b91c.jpg\",\"img/0903/647ce311-8c71-479a-8361-961db1457139.jpg\"]","trial_type":"similarity","trial_index":207,"time_elapsed":970157,"internal_node_id":"0.0-6.0-201.0"},{"sim_score":1,"rt":3059,"stimulus":"[\"img/0864/3d4de670-b290-4285-9c3d-12a0e3af44e9.jpg\",\"img/0894/e6385e52-6c35-43bd-b0af-bc803d107b11.jpg\"]","trial_type":"similarity","trial_index":208,"time_elapsed":974231,"internal_node_id":"0.0-6.0-202.0"},{"sim_score":1,"rt":2993,"stimulus":"[\"img/0874/a3bc679d-619f-4db6-bb68-116dcb757d9c.jpg\",\"img/0860/5bff793e-cbd5-4d7e-b628-0ac2b0e30b64.jpg\"]","trial_type":"similarity","trial_index":209,"time_elapsed":978237,"internal_node_id":"0.0-6.0-203.0"},{"sim_score":5,"rt":2820,"stimulus":"[\"img/0862/e8cc3bdf-cc43-4565-bccf-492626c70953.jpg\",\"img/0875/f87b67d7-c33e-40d1-b281-248c4be1cb6e.jpg\"]","trial_type":"similarity","trial_index":210,"time_elapsed":982070,"internal_node_id":"0.0-6.0-204.0"},{"sim_score":5,"rt":2640,"stimulus":"[\"img/0867/cc72ed48-7704-422c-86d6-467a1145287a.jpg\",\"img/0881/c24f3051-eefa-42de-aba6-fccb56d93c70.jpg\"]","trial_type":"similarity","trial_index":211,"time_elapsed":985724,"internal_node_id":"0.0-6.0-205.0"},{"sim_score":7,"rt":3283,"stimulus":"[\"img/0901/8bb79e82-9c43-4b6f-a655-40655519598b.jpg\",\"img/0902/9f543501-3cf1-45a7-a2f1-eeca87cc15b9.jpg\"]","trial_type":"similarity","trial_index":212,"time_elapsed":990020,"internal_node_id":"0.0-6.0-206.0"},{"sim_score":1,"rt":2885,"stimulus":"[\"img/0899/57476fed-5962-4272-8fc9-b317bb777b54.jpg\",\"img/0864/300bb811-8b3c-4c42-8653-6097c3725197.jpg\"]","trial_type":"similarity","trial_index":213,"time_elapsed":993920,"internal_node_id":"0.0-6.0-207.0"},{"sim_score":5,"rt":2185,"stimulus":"[\"img/0901/62315ff5-ed95-46b4-b099-92552079659b.jpg\",\"img/0769/ecda2fb3-556b-43ba-8a67-e87dd75ff2b4.jpg\"]","trial_type":"similarity","trial_index":214,"time_elapsed":997120,"internal_node_id":"0.0-6.0-208.0"},{"sim_score":5,"rt":4274,"stimulus":"[\"img/0902/bd89a85f-3853-4786-acd6-98818ee29f1c.jpg\",\"img/0902/417d8b4a-3c72-4adc-ac78-820e833316f2.jpg\"]","trial_type":"similarity","trial_index":215,"time_elapsed":1006997,"internal_node_id":"0.0-6.0-209.0"},{"view_history":"[{\"page_index\":0,\"viewing_time\":2574}]","rt":2574,"trial_type":"instructions","trial_index":216,"time_elapsed":1010573,"internal_node_id":"0.0-7.0"},{"rt":17287,"responses":"{\"Q0\":\"Orange-crowned Warbler\"}","answer":["Nashville Warbler"],"trial_type":"image-multi-choice","trial_index":217,"time_elapsed":1028922,"internal_node_id":"0.0-8.0-0.0"},{"rt":6636,"responses":"{\"Q0\":\"Magnolia Warbler\"}","answer":["Black-and-white Warbler"],"trial_type":"image-multi-choice","trial_index":218,"time_elapsed":1036601,"internal_node_id":"0.0-8.0-1.0"},{"rt":6835,"responses":"{\"Q0\":\"Magnolia Warbler\"}","answer":["Townsend's Warbler"],"trial_type":"image-multi-choice","trial_index":219,"time_elapsed":1044479,"internal_node_id":"0.0-8.0-2.0"},{"rt":4912,"responses":"{\"Q0\":\"White-throated Sparrow\"}","answer":["Lark Sparrow"],"trial_type":"image-multi-choice","trial_index":220,"time_elapsed":1050431,"internal_node_id":"0.0-8.0-3.0"},{"rt":3110,"responses":"{\"Q0\":\"Yellow Warbler\"}","answer":["Yellow Warbler"],"trial_type":"image-multi-choice","trial_index":221,"time_elapsed":1054575,"internal_node_id":"0.0-8.0-4.0"},{"rt":9306,"responses":"{\"Q0\":\"Tennessee Warbler\"}","answer":["Orange-crowned Warbler"],"trial_type":"image-multi-choice","trial_index":222,"time_elapsed":1064919,"internal_node_id":"0.0-8.0-5.0"},{"rt":3116,"responses":"{\"Q0\":\"White-crowned Sparrow\"}","answer":["White-throated Sparrow"],"trial_type":"image-multi-choice","trial_index":223,"time_elapsed":1069076,"internal_node_id":"0.0-8.0-6.0"},{"rt":7433,"responses":"{\"Q0\":\"Lincoln's Sparrow\"}","answer":["Fox Sparrow"],"trial_type":"image-multi-choice","trial_index":224,"time_elapsed":1077560,"internal_node_id":"0.0-8.0-7.0"},{"rt":12710,"responses":"{\"Q0\":\"Fox Sparrow\"}","answer":["Song Sparrow"],"trial_type":"image-multi-choice","trial_index":225,"time_elapsed":1091311,"internal_node_id":"0.0-8.0-8.0"},{"rt":12504,"responses":"{\"Q0\":\"Nashville Warbler\"}","answer":["Blackburnian Warbler"],"trial_type":"image-multi-choice","trial_index":226,"time_elapsed":1104855,"internal_node_id":"0.0-8.0-9.0"},{"rt":5200,"responses":"{\"Q0\":\"Vesper Sparrow\"}","answer":["Vesper Sparrow"],"trial_type":"image-multi-choice","trial_index":227,"time_elapsed":1111102,"internal_node_id":"0.0-8.0-10.0"},{"rt":5610,"responses":"{\"Q0\":\"White-crowned Sparrow\"}","answer":["White-crowned Sparrow"],"trial_type":"image-multi-choice","trial_index":228,"time_elapsed":1117751,"internal_node_id":"0.0-8.0-11.0"},{"rt":6209,"responses":"{\"Q0\":\"American Tree Sparrow\"}","answer":["American Tree Sparrow"],"trial_type":"image-multi-choice","trial_index":229,"time_elapsed":1124999,"internal_node_id":"0.0-8.0-12.0"},{"rt":7420,"responses":"{\"Q0\":\"Orange-crowned Warbler\"}","answer":["Tennessee Warbler"],"trial_type":"image-multi-choice","trial_index":230,"time_elapsed":1133454,"internal_node_id":"0.0-8.0-13.0"},{"rt":5873,"responses":"{\"Q0\":\"Magnolia Warbler\"}","answer":["Magnolia Warbler"],"trial_type":"image-multi-choice","trial_index":231,"time_elapsed":1140358,"internal_node_id":"0.0-8.0-14.0"},{"rt":3586,"responses":"{\"Q0\":\"Northern Waterthrush\"}","answer":["Northern Waterthrush"],"trial_type":"image-multi-choice","trial_index":232,"time_elapsed":1144973,"internal_node_id":"0.0-8.0-15.0"},{"rt":16447,"responses":"{\"Q0\":\"Chipping Sparrow\"}","answer":["Chipping Sparrow"],"trial_type":"image-multi-choice","trial_index":233,"time_elapsed":1162449,"internal_node_id":"0.0-8.0-16.0"},{"rt":7700,"responses":"{\"Q0\":\"Swamp Sparrow\"}","answer":["Swamp Sparrow"],"trial_type":"image-multi-choice","trial_index":234,"time_elapsed":1171181,"internal_node_id":"0.0-8.0-17.0"},{"rt":7623,"responses":"{\"Q0\":\"Swamp Sparrow\"}","answer":["Lincoln's Sparrow"],"trial_type":"image-multi-choice","trial_index":235,"time_elapsed":1179837,"internal_node_id":"0.0-8.0-18.0"},{"rt":3354,"responses":"{\"Q0\":\"Ovenbird\"}","answer":["Ovenbird"],"trial_type":"image-multi-choice","trial_index":236,"time_elapsed":1184221,"internal_node_id":"0.0-8.0-19.0"}]