"view_history","rt","trial_type","trial_index","time_elapsed","internal_node_id","sim_score","stimulus","responses","answer"
"[{""page_index"":0,""viewing_time"":9131}]","9132","instructions","0","9134","0.0-0.0","","","",""
"","7632","similarity_demo","1","17773","0.0-1.0","5","[""img/866.jpg"",""img/868.jpg""]","",""
"[{""page_index"":0,""viewing_time"":9767}]","9767","instructions","2","28542","0.0-2.0","","","",""
"","2790","similarity_demo","3","32338","0.0-3.0","1","[""img/766.jpg"",""img/867.jpg""]","",""
"[{""page_index"":0,""viewing_time"":6207}]","6207","instructions","4","39546","0.0-4.0","","","",""
"[{""page_index"":0,""viewing_time"":24983}]","24983","instructions","5","65531","0.0-5.0","","","",""
"","4769","similarity","6","71307","0.0-6.0-0.0","1","[""img/0868/77091fc7-a590-4ebb-b915-fdb2483a2399.jpg"",""img/0901/3db47171-0139-4235-82cd-0b1787b6775f.jpg""]","",""
"","4267","similarity","7","76580","0.0-6.0-1.0","1","[""img/0769/c7cfacc3-7f07-46ff-9f5d-8073f4c4679b.jpg"",""img/0867/50a1b60e-3a29-44bf-b606-d4bd3746fea9.jpg""]","",""
"","3880","similarity","8","81466","0.0-6.0-2.0","6","[""img/0766/ea09dd5a-d24d-4e97-a099-7da3db1baef1.jpg"",""img/0898/b3290bf9-215b-4b45-b21a-65bdf73f142f.jpg""]","",""
"","3719","similarity","9","86189","0.0-6.0-3.0","3","[""img/0902/c018bd7a-d91a-4192-aea4-7259cfcdb6c4.jpg"",""img/0881/dea58fad-b4f1-41d9-bd3f-916eff19a3fd.jpg""]","",""
"","2383","similarity","10","89577","0.0-6.0-4.0","7","[""img/0894/b2d2f66e-e480-46da-a02a-6d0c6b285d78.jpg"",""img/0894/767a0eec-1064-46b1-b1aa-dfa02b0cd74e.jpg""]","",""
"","5045","similarity","11","95627","0.0-6.0-5.0","2","[""img/0874/3f471690-9788-4d03-90c7-f615aecef149.jpg"",""img/0899/0e1d936a-dbe2-4afc-9f19-7b7a1ae6c9ed.jpg""]","",""
"","6551","similarity","12","103183","0.0-6.0-6.0","6","[""img/0904/63dd06dd-dccb-47ba-9740-eb33239e18a7.jpg"",""img/0764/50f1b062-d608-4bc0-ab25-b872dcf2ed93.jpg""]","",""
"","3323","similarity","13","107511","0.0-6.0-7.0","7","[""img/0899/5b56dd3e-3f49-47cc-af84-16da6457753b.jpg"",""img/0898/26c41340-15bd-4ead-8fe4-c0d0ddca09c2.jpg""]","",""
"","3057","similarity","14","111573","0.0-6.0-8.0","5","[""img/0874/93d1f8dc-acf2-4f03-bd8d-8ec35df276ed.jpg"",""img/0903/2a9c8033-3e70-47fa-816d-97ee1813a3a3.jpg""]","",""
"","3171","similarity","15","115748","0.0-6.0-9.0","7","[""img/0881/0c7068da-d0d9-4103-bda1-74ef7a2b32c3.jpg"",""img/0758/e38fd80d-18d0-42f3-b848-f930788e8bd7.jpg""]","",""
"","4921","similarity","16","121674","0.0-6.0-10.0","7","[""img/0898/e167334e-cc1d-4986-b3b1-c7bc7da64baa.jpg"",""img/0901/168eb52c-c415-43f1-b5c8-e76e1a1ec247.jpg""]","",""
"","3626","similarity","17","126306","0.0-6.0-11.0","2","[""img/0903/45e2d600-57ff-4d69-b22c-0c7896cd38f0.jpg"",""img/0769/11518cb3-13ea-4dd0-890c-30cfab728ade.jpg""]","",""
"","2763","similarity","18","130074","0.0-6.0-12.0","2","[""img/0764/29072395-f595-4e3c-83d3-ff87010039fa.jpg"",""img/0868/15dd6fd7-791e-4b53-b203-195d617521a4.jpg""]","",""
"","2473","similarity","19","133552","0.0-6.0-13.0","2","[""img/0867/f26f6b60-f772-4f4c-95a4-addc62cfd692.jpg"",""img/0903/24477210-856c-4550-9de0-9f85a32762eb.jpg""]","",""
"","6193","similarity","20","140749","0.0-6.0-14.0","3","[""img/0766/ae0fce93-fe8d-4aa1-87ca-4c3e4b889f2f.jpg"",""img/0758/e1ba5e53-addc-436a-b428-d34fc1b130dc.jpg""]","",""
"","3309","similarity","21","145063","0.0-6.0-15.0","1","[""img/0902/a323b62d-2fd5-4ac8-acc6-35b768f3c3f2.jpg"",""img/0860/87039971-2210-4aab-93c0-8e9b5f1655b2.jpg""]","",""
"","3901","similarity","22","149969","0.0-6.0-16.0","3","[""img/0769/965c3c44-d9e5-47c5-b61a-2bbdf4215d9a.jpg"",""img/0875/d59ff733-eaff-4ee2-9443-06954dd0bcb6.jpg""]","",""
"","3373","similarity","23","154347","0.0-6.0-17.0","5","[""img/0904/09934646-45d2-4147-8fec-64a22a5ac822.jpg"",""img/0866/945c6710-d15b-4a5b-a8f6-69af0850357f.jpg""]","",""
"","3187","similarity","24","158539","0.0-6.0-18.0","7","[""img/0875/90da8d75-108a-44ad-b999-e21fee3860d3.jpg"",""img/0875/5a7c4e35-6514-4e12-8879-d16071da4cd6.jpg""]","",""
"","3363","similarity","25","162906","0.0-6.0-19.0","7","[""img/0758/7fba58df-2a7a-4b76-8a8f-62739f97f271.jpg"",""img/0758/65d426d6-3ff6-415d-8654-a43b83ecc4fe.jpg""]","",""
"","3092","similarity","26","167002","0.0-6.0-20.0","3","[""img/0902/1f4a4c62-68c1-4993-b213-05652a173ed1.jpg"",""img/0874/a82926a3-0b43-4add-803c-d5f9ea7798ee.jpg""]","",""
"","2891","similarity","27","170898","0.0-6.0-21.0","7","[""img/0764/da207710-e7e4-4f42-b2e6-99b5f357f433.jpg"",""img/0769/3c1efec9-f8fd-487d-8955-4be88e48c832.jpg""]","",""
"","2660","similarity","28","174562","0.0-6.0-22.0","6","[""img/0901/a6c90438-fa7c-4418-ac7c-16c2e772dd98.jpg"",""img/0874/adf9a8f1-c40b-402b-b95b-1e85a54a7b62.jpg""]","",""
"","2618","similarity","29","178184","0.0-6.0-23.0","3","[""img/0875/f87b67d7-c33e-40d1-b281-248c4be1cb6e.jpg"",""img/0903/b548d383-2a95-4575-8c13-647873751ff1.jpg""]","",""
"","2579","similarity","30","181768","0.0-6.0-24.0","3","[""img/0769/387a9744-d6a7-42b8-bab8-33007ec434aa.jpg"",""img/0881/19e82c47-8e4b-45d2-a6c8-74181eb4155e.jpg""]","",""
"","2615","similarity","31","185387","0.0-6.0-25.0","1","[""img/0867/179ab87a-8eac-4c52-a41f-2e48e3120f09.jpg"",""img/0904/6291eb43-c10c-4810-a36a-101d09868b04.jpg""]","",""
"","2442","similarity","32","188833","0.0-6.0-26.0","5","[""img/0860/e8b8c51e-1834-4875-8b61-6c5bc9b178bd.jpg"",""img/0881/566f45f8-5fed-4479-a60f-26377e60a62d.jpg""]","",""
"","2628","similarity","33","192466","0.0-6.0-27.0","6","[""img/0866/be24ab58-230e-4db8-9f45-ff04c9aec6bb.jpg"",""img/0866/a04d37f0-99dd-478a-b6c6-58b215138f84.jpg""]","",""
"","2442","similarity","34","195911","0.0-6.0-28.0","3","[""img/0764/b887d7c6-aa81-4637-af8e-05135757ac59.jpg"",""img/0862/e0f1a4e9-e1b6-45f7-af67-89f334e6630d.jpg""]","",""
"","2778","similarity","35","199693","0.0-6.0-29.0","5","[""img/0904/09dac84f-3d1c-4445-a68e-d0389fdbf1e9.jpg"",""img/0758/a085b443-b5d7-4cb2-9ad4-b9dab0fc23f1.jpg""]","",""
"","3132","similarity","36","203829","0.0-6.0-30.0","7","[""img/0894/792c83e9-a747-4000-bc72-5663d2439edb.jpg"",""img/0899/0adc0bc3-6fca-4078-be6f-d45ddf1653d5.jpg""]","",""
"","2674","similarity","37","207507","0.0-6.0-31.0","2","[""img/0860/4a022222-056d-461c-ab02-39fac9647552.jpg"",""img/0904/60d1a521-edf7-4696-9263-f21ac0e62a01.jpg""]","",""
"","3157","similarity","38","211669","0.0-6.0-32.0","7","[""img/0874/8cdb1c07-1c32-46d2-981c-3636560fa6e5.jpg"",""img/0881/4bd34581-94d8-4e88-8c89-5cef864ca3be.jpg""]","",""
"","2785","similarity","39","215458","0.0-6.0-33.0","2","[""img/0881/7e822106-76f7-4b10-a805-14dc68b2cfaf.jpg"",""img/0899/51a7a498-98c7-42d7-bca8-bc2d8f0b5831.jpg""]","",""
"","2226","similarity","40","218689","0.0-6.0-34.0","7","[""img/0866/23a224f3-2012-4fc8-8e0f-3c36f8de27fd.jpg"",""img/0862/1c20f772-3a51-4a80-aac0-f57dc9f86c28.jpg""]","",""
"","2701","similarity","41","222395","0.0-6.0-35.0","1","[""img/0868/83b4350a-3b70-4cea-b7f5-b5b56f3050a8.jpg"",""img/0894/8cadb87a-7001-4e47-99fb-1867bebf1668.jpg""]","",""
"","4072","similarity","42","227470","0.0-6.0-36.0","7","[""img/0860/d9a0d117-6d1d-41c0-8fec-9aff0fd9e9f2.jpg"",""img/0860/4c530c3c-6aab-492a-94d1-9c01797bde40.jpg""]","",""
"","2578","similarity","43","231052","0.0-6.0-37.0","3","[""img/0862/ad593cc7-cabe-4bb7-8e14-8a447a0717b4.jpg"",""img/0864/a248adb3-c70b-4652-b7a3-776d2a1e904b.jpg""]","",""
"","3689","similarity","44","235746","0.0-6.0-38.0","1","[""img/0766/d14acac4-7db1-4b07-8f8f-302437326fc0.jpg"",""img/0866/9b38d691-1802-4959-ab3f-fc902f0e4ea6.jpg""]","",""
"","2953","similarity","45","239704","0.0-6.0-39.0","1","[""img/0875/3ecb367d-e9eb-4826-8aaa-7aa72fb98019.jpg"",""img/0898/0af304a2-6a7a-4082-ab7c-4450cd08cc58.jpg""]","",""
"","2980","similarity","46","243688","0.0-6.0-40.0","7","[""img/0766/0025de5e-f620-4079-8a0f-00326ff3a6b0.jpg"",""img/0769/aad494cc-674d-4a08-9bfa-24a88ebe3c79.jpg""]","",""
"","2943","similarity","47","263452","0.0-6.0-41.0","5","[""img/0874/1016b306-087c-4afc-aa08-fa527b28dc76.jpg"",""img/0764/d0bef2e0-e16b-4c82-9451-c1d16265eb67.jpg""]","",""
"","3176","similarity","48","267633","0.0-6.0-42.0","2","[""img/0868/c8ac40c7-6904-4e13-8d61-c75d3052dc4e.jpg"",""img/0902/51493fab-2a10-4385-aa88-bee3db441626.jpg""]","",""
"","2603","similarity","49","271240","0.0-6.0-43.0","1","[""img/0875/42910c99-5463-450a-a0f8-d4d060a11455.jpg"",""img/0899/fef567a2-c121-4481-9af0-ff108d199bbf.jpg""]","",""
"","3394","similarity","50","275638","0.0-6.0-44.0","5","[""img/0866/11a1d141-be5e-443c-98c1-a9d4d9e3dec0.jpg"",""img/0860/fd4662f9-4c03-4d79-8593-06735e55a64b.jpg""]","",""
"","3002","similarity","51","279644","0.0-6.0-45.0","7","[""img/0766/5d6e0d1d-4369-41f0-a64c-91f3503055c7.jpg"",""img/0903/ea75f240-fb62-4edb-a709-83e858b202c0.jpg""]","",""
"","2600","similarity","52","283248","0.0-6.0-46.0","6","[""img/0901/f1116359-1ff1-4638-b3b3-700918d36d18.jpg"",""img/0904/2c98dc56-88d1-4fb5-a999-b6a7861f65f0.jpg""]","",""
"","3082","similarity","53","287334","0.0-6.0-47.0","2","[""img/0758/7ffbc76b-1fc1-432c-8f7e-9ec8d1b3f643.jpg"",""img/0902/fbef27fa-ac83-4936-ab78-9d1c20a383e1.jpg""]","",""
"","3193","similarity","54","291532","0.0-6.0-48.0","2","[""img/0764/56441045-b648-4ede-9632-3e9c0227080b.jpg"",""img/0764/c643e165-df19-459f-8c2b-8357bf432a17.jpg""]","",""
"","4320","similarity","55","296856","0.0-6.0-49.0","1","[""img/0866/8efcaa46-83ab-4dee-a35f-850402aa21ae.jpg"",""img/0902/e5a46bda-30d1-41ca-b36d-b8529b5a63d1.jpg""]","",""
"","3161","similarity","56","301022","0.0-6.0-50.0","2","[""img/0764/3297a811-ea8b-4d74-9547-59cecab7293a.jpg"",""img/0758/335851a0-a55b-46d8-ab05-8463eda48349.jpg""]","",""
"","2868","similarity","57","304893","0.0-6.0-51.0","6","[""img/0898/8605a25b-6895-476d-8c13-df7a83f96093.jpg"",""img/0894/1a010553-d598-4b06-a772-81f1e7b3addb.jpg""]","",""
"","3222","similarity","58","309119","0.0-6.0-52.0","6","[""img/0875/34132396-d896-4c2d-8087-646dd867e769.jpg"",""img/0866/d493a2c8-66eb-44b4-be02-2f327b700b7c.jpg""]","",""
"","3262","similarity","59","313385","0.0-6.0-53.0","6","[""img/0904/ba8e689e-9ca6-4608-a2a1-3b0940666ae6.jpg"",""img/0904/696ebb60-8891-417a-91fd-c53218907a95.jpg""]","",""
"","3030","similarity","60","317419","0.0-6.0-54.0","7","[""img/0769/48a1144d-fbda-4809-991b-fc8424a32ee4.jpg"",""img/0769/c34b7763-8ff2-46d5-9e92-f1d8f3bedbd8.jpg""]","",""
"","2385","similarity","61","320809","0.0-6.0-55.0","2","[""img/0898/ec565187-2e31-4fdd-9a5c-153d0c789ae0.jpg"",""img/0758/dd559618-7f09-4a07-8018-d311c4a5ea29.jpg""]","",""
"","4689","similarity","62","326503","0.0-6.0-56.0","6","[""img/0769/3adfa417-3b90-4aab-b437-5eaa474189cb.jpg"",""img/0902/d3e55000-c839-4bf9-9b9b-4af0a9925af1.jpg""]","",""
"","4196","similarity","63","331702","0.0-6.0-57.0","5","[""img/0864/6e846d43-94a6-4b37-a268-65eda979f052.jpg"",""img/0881/d1982897-8d8d-4704-a940-1ee5d07a1f15.jpg""]","",""
"","3262","similarity","64","335968","0.0-6.0-58.0","5","[""img/0758/caa93da2-9edf-49fa-96b9-32dedd8f5078.jpg"",""img/0868/7b212364-ff5f-4e28-9241-7eb6ea00161b.jpg""]","",""
"","4070","similarity","65","341042","0.0-6.0-59.0","6","[""img/0862/e8cc3bdf-cc43-4565-bccf-492626c70953.jpg"",""img/0769/180213e5-1e50-4b4e-87b6-add77ba04d39.jpg""]","",""
"","4009","similarity","66","346054","0.0-6.0-60.0","5","[""img/0764/6fbd1902-fa2a-48d8-bc11-705b8ab68d8f.jpg"",""img/0903/f1fa0f8d-e62b-4b4a-a174-31a0fabfe61b.jpg""]","",""
"","2957","similarity","67","350014","0.0-6.0-61.0","5","[""img/0899/f58b8d2f-b19d-4b59-8b94-8834be92e4ba.jpg"",""img/0899/7b7380d5-d2be-44e5-a09a-c1756f87ef71.jpg""]","",""
"","3389","similarity","68","354408","0.0-6.0-62.0","5","[""img/0860/18dfed73-e36b-4487-a8bd-0b8cff8e3668.jpg"",""img/0875/03c3c331-738b-4446-af92-3d7386b08c2e.jpg""]","",""
"","3292","similarity","69","358703","0.0-6.0-63.0","5","[""img/0868/179a5502-ab5c-478e-8263-5a1fbcc101d2.jpg"",""img/0874/85eb9b8a-c4c6-4e5a-b8e7-363a87a82054.jpg""]","",""
"","3022","similarity","70","362729","0.0-6.0-64.0","6","[""img/0758/7ee8bc8f-c40b-4b3a-84ec-3e83580622d4.jpg"",""img/0862/00c06b00-3b73-44e9-bc1e-c5aafb438321.jpg""]","",""
"","3686","similarity","71","367419","0.0-6.0-65.0","5","[""img/0904/0d25eb24-bb20-4e8d-9787-8b489558b4cb.jpg"",""img/0898/0c7dde4f-efce-4b7a-9387-6921635b7890.jpg""]","",""
"","3494","similarity","72","371917","0.0-6.0-66.0","5","[""img/0881/b549bc99-a61c-4450-bab5-9efc3a197bf0.jpg"",""img/0866/07c9c966-3c8d-40e7-8128-92b2acbaed5d.jpg""]","",""
"","2700","similarity","73","375621","0.0-6.0-67.0","1","[""img/0867/c71dc569-f49c-4397-8381-68b8d726736d.jpg"",""img/0898/04e39a7a-fcf6-4156-ab0e-f5871f335e1c.jpg""]","",""
"","3189","similarity","74","379814","0.0-6.0-68.0","5","[""img/0902/eb3e7e71-8ff1-4b88-a6a7-47e2c1ce1683.jpg"",""img/0764/bd2eaa3e-95a9-4a59-a78e-3f81c766eea9.jpg""]","",""
"","3126","similarity","75","383944","0.0-6.0-69.0","6","[""img/0875/8521fd58-3b1e-4dc5-97ae-804edfa6734a.jpg"",""img/0867/db7e032f-162b-46f5-ae67-2b29679adee4.jpg""]","",""
"","3988","similarity","76","388936","0.0-6.0-70.0","7","[""img/0766/d512b99c-a2dc-40d7-8e86-827323a0cbcf.jpg"",""img/0764/21e3292f-01ad-4238-828b-61b817857d16.jpg""]","",""
"","2804","similarity","77","392744","0.0-6.0-71.0","2","[""img/0894/b422d5c6-3c5a-49ae-a53e-7e88ac993f49.jpg"",""img/0867/075e0f95-856b-4cbb-acf5-092393aaf04e.jpg""]","",""
"","3068","similarity","78","396816","0.0-6.0-72.0","1","[""img/0875/5a716432-c6ca-4b1c-955a-2b8ac25198ee.jpg"",""img/0764/6ef77040-1fae-4afa-bfe7-eda98e6d0376.jpg""]","",""
"","4348","similarity","79","402168","0.0-6.0-73.0","7","[""img/0867/8ba0c5a7-c7e4-42cf-a80a-543763b90779.jpg"",""img/0866/620cd1aa-0800-4414-8f6e-90342e7a99ad.jpg""]","",""
"","3316","similarity","80","406488","0.0-6.0-74.0","1","[""img/0903/005ad0de-4f52-433c-b515-dbe8d46184a3.jpg"",""img/0758/9fb5b2fe-3f00-4fe6-973c-1ce10d5f4cd5.jpg""]","",""
"","2692","similarity","81","410184","0.0-6.0-75.0","1","[""img/0766/91fc8c4d-862f-4d2b-b1a1-2db8d729b6b7.jpg"",""img/0868/4bd5105a-d2c3-4f82-8c80-57196106ba53.jpg""]","",""
"","3934","similarity","82","415121","0.0-6.0-76.0","2","[""img/0874/3ce41e7c-40c8-4d58-a546-171114521796.jpg"",""img/0766/1865bfc9-2410-4765-a804-3ae4ba2393d0.jpg""]","",""
"","2951","similarity","83","419075","0.0-6.0-77.0","5","[""img/0881/6b1189e6-232d-4042-8885-16dc7b10e0d4.jpg"",""img/0868/5fa7f9d0-f0e5-454c-8224-74d964818f56.jpg""]","",""
"","4824","similarity","84","424903","0.0-6.0-78.0","1","[""img/0758/eabcd7a8-56ad-4fd2-bc24-90f6b7b33265.jpg"",""img/0901/8bb79e82-9c43-4b6f-a655-40655519598b.jpg""]","",""
"","3286","similarity","85","429193","0.0-6.0-79.0","2","[""img/0881/ed4c971f-0873-4fc8-b6d6-e8bbd82f0bcc.jpg"",""img/0898/224c1572-56b9-4f16-a9e4-6f3bc9c114bd.jpg""]","",""
"","2553","similarity","86","432749","0.0-6.0-80.0","5","[""img/0867/de92135f-5b65-4ed9-b245-188292c7c2f8.jpg"",""img/0758/d540bee6-b460-4c32-ac57-bc282742d7d4.jpg""]","",""
"","3725","similarity","87","437478","0.0-6.0-81.0","6","[""img/0769/4a1d0b52-3fe8-40fb-bb1c-c814fe49a68c.jpg"",""img/0899/1b3457ea-87d4-4946-a01c-aac1863ed46c.jpg""]","",""
"","3476","similarity","88","441958","0.0-6.0-82.0","7","[""img/0903/8635cf25-2648-4fe9-8c42-79d2598e999c.jpg"",""img/0903/d987e220-f3e6-4b6d-a270-fe6757041f6d.jpg""]","",""
"","2530","similarity","89","474117","0.0-6.0-83.0","1","[""img/0867/12264664-1860-46df-8c21-162b9817cdda.jpg"",""img/0766/33aa9ebb-c9f5-418f-8c8b-c77861889568.jpg""]","",""
"","3703","similarity","90","478824","0.0-6.0-84.0","1","[""img/0902/01b41522-de46-4c3a-b0af-a61b2682b40e.jpg"",""img/0867/7d1c497b-c1b3-4ed8-abb5-d7f73306015f.jpg""]","",""
"","3886","similarity","91","483714","0.0-6.0-85.0","2","[""img/0901/548d1110-7cb8-42a2-9927-9798875c8b5c.jpg"",""img/0875/5a1e5100-0d94-4fec-bbe9-ca9894d2cf8e.jpg""]","",""
"","3615","similarity","92","488332","0.0-6.0-86.0","1","[""img/0764/b8e23f4f-ff19-4472-ad9b-2f85548ebca0.jpg"",""img/0866/d266fece-59b3-46fa-b69f-96f6efb81b59.jpg""]","",""
"","3175","similarity","93","492510","0.0-6.0-87.0","7","[""img/0901/12da1841-e611-435c-9719-109413d536a8.jpg"",""img/0894/7dd6ff43-f8fc-408a-8a41-a2b261871820.jpg""]","",""
"","4062","similarity","94","497575","0.0-6.0-88.0","3","[""img/0898/6cd3830b-d44e-4915-be2b-88d31424b91c.jpg"",""img/0769/75f7e514-0548-4329-b1e4-93c05e74f038.jpg""]","",""
"","2940","similarity","95","501519","0.0-6.0-89.0","3","[""img/0769/8598a429-c671-4d2f-842c-32f681f5e412.jpg"",""img/0894/38f5931f-926d-414e-b498-66b188978b7a.jpg""]","",""
"","2882","similarity","96","505405","0.0-6.0-90.0","6","[""img/0862/24cdc752-c2e5-4a17-86a6-6f2045d8553b.jpg"",""img/0874/bf14b896-e930-4fd9-9c05-2e83317a2773.jpg""]","",""
"","3066","similarity","97","509475","0.0-6.0-91.0","7","[""img/0894/7f2f31fd-6618-41c6-b65a-0fd8b2851bc9.jpg"",""img/0766/a0270213-fa0e-4972-8b56-228c3e01ff90.jpg""]","",""
"","2439","similarity","98","512919","0.0-6.0-92.0","6","[""img/0874/29830da7-be5f-44e5-b141-652a0ccf7269.jpg"",""img/0867/98d8cd96-1476-4fe0-a3a3-04f875500a1b.jpg""]","",""
"","3293","similarity","99","517217","0.0-6.0-93.0","2","[""img/0899/66bf4113-ee12-426c-84d2-ea410b6c803e.jpg"",""img/0868/09a9ef4d-d000-4cfa-a6aa-ebec7c2edeb4.jpg""]","",""
"","4328","similarity","100","522548","0.0-6.0-94.0","3","[""img/0903/14f179a2-8786-48a2-8377-88d1d404341b.jpg"",""img/0862/92fcd8a4-8193-4a6a-ae09-dd4a6338b0df.jpg""]","",""
"","3020","similarity","101","526572","0.0-6.0-95.0","5","[""img/0899/0433d056-aa30-4f8a-9aa1-abbb951e4edd.jpg"",""img/0766/110832e5-2646-4bd0-a94e-5df8cc314269.jpg""]","",""
"","2972","similarity","102","530548","0.0-6.0-96.0","7","[""img/0867/cc72ed48-7704-422c-86d6-467a1145287a.jpg"",""img/0868/4a8a45ed-2c4f-421b-9564-409a33ecd26c.jpg""]","",""
"","3594","similarity","103","535146","0.0-6.0-97.0","2","[""img/0862/847e5208-38ec-4f36-949c-296cdd7424ee.jpg"",""img/0901/58978a6d-a3e2-4c59-8d62-f60693ecc0f6.jpg""]","",""
"","3310","similarity","104","539460","0.0-6.0-98.0","1","[""img/0875/dbdd643e-6d0e-4a5c-ab57-b9c29b9c981a.jpg"",""img/0766/fd74fdbb-ea40-4f3a-a091-38d08dfd636e.jpg""]","",""
"","4439","similarity","105","544902","0.0-6.0-99.0","6","[""img/0758/d41c06bf-ebaf-454b-91c6-1a17f917b659.jpg"",""img/0874/eba003b4-cdab-4eee-8bc3-f064c7d94165.jpg""]","",""
"","3820","similarity","106","549725","0.0-6.0-100.0","3","[""img/0904/73920552-103b-4c9c-9ece-e0b8376b4504.jpg"",""img/0868/293079b8-7e0c-4afd-a390-1e5d35fe3ded.jpg""]","",""
"","3120","similarity","107","553849","0.0-6.0-101.0","2","[""img/0903/0a92ec52-4e87-410a-857a-4455cde56a70.jpg"",""img/0866/4a87911a-d5be-4d4e-ab8e-3d1f581bf507.jpg""]","",""
"","3484","similarity","108","558337","0.0-6.0-102.0","2","[""img/0868/0d3abd3a-b6c3-4584-a9f7-e2da63748b3d.jpg"",""img/0769/f2740c58-7c02-433f-920b-746b0b75435b.jpg""]","",""
"","4464","similarity","109","563805","0.0-6.0-103.0","5","[""img/0902/24d10fe7-314f-4d5a-8c7b-b43121bba0a4.jpg"",""img/0899/a048912c-b12c-40e3-90af-46b69b0cc4fe.jpg""]","",""
"","2901","similarity","110","567709","0.0-6.0-104.0","5","[""img/0868/d98ca254-b195-477f-b57e-5760a2717db8.jpg"",""img/0862/ee3b7bff-4a70-4e84-9bea-4a565e456acb.jpg""]","",""
"","3263","similarity","111","571975","0.0-6.0-105.0","2","[""img/0903/3e9ee8a5-eb66-47f5-8973-8a5af1ddc87e.jpg"",""img/0894/10f22b96-040c-44f4-950b-a4963f3f506c.jpg""]","",""
"","3509","similarity","112","576488","0.0-6.0-106.0","7","[""img/0864/4bd81bc6-c13d-46df-95a9-485886dc7c1b.jpg"",""img/0874/ca76a855-4e77-4f2f-872a-0a718153e7ed.jpg""]","",""
"","3530","similarity","113","581022","0.0-6.0-107.0","6","[""img/0862/f188d4f0-76a4-4102-818c-a209969d73a5.jpg"",""img/0902/2db723b6-130f-454c-8c8d-88829edbcd65.jpg""]","",""
"","3820","similarity","114","585846","0.0-6.0-108.0","1","[""img/0904/4e58005d-a2ec-4aaa-b199-445343561396.jpg"",""img/0903/47e39de8-6959-469f-8be9-6999a6db207c.jpg""]","",""
"","2738","similarity","115","589588","0.0-6.0-109.0","1","[""img/0764/c0b03adb-bd0a-4b96-a915-a827c2fd5211.jpg"",""img/0864/afcba0a3-7e27-4757-b254-e9f05fad27e2.jpg""]","",""
"","3124","similarity","116","593716","0.0-6.0-110.0","2","[""img/0866/386235d2-6857-41e7-88a8-25cfc3430025.jpg"",""img/0894/e6385e52-6c35-43bd-b0af-bc803d107b11.jpg""]","",""
"","3517","similarity","117","598238","0.0-6.0-111.0","6","[""img/0899/565ccdd9-0933-4536-a625-3c0e25a713dd.jpg"",""img/0903/8fcafe03-43df-4c45-9da5-0df3a1eeccc5.jpg""]","",""
"","3420","similarity","118","602661","0.0-6.0-112.0","7","[""img/0902/d2c34af0-8c50-437d-8cc3-619195a3e8ba.jpg"",""img/0904/da170c1b-9651-4f08-b231-2bdd1d9a046f.jpg""]","",""
"","3876","similarity","119","607541","0.0-6.0-113.0","5","[""img/0864/87c467d3-abca-482f-ad80-3766c21b1bb3.jpg"",""img/0860/e14d67c1-6d92-4f1e-9257-c8607159c19c.jpg""]","",""
"","4084","similarity","120","612629","0.0-6.0-114.0","2","[""img/0860/8277806e-b684-4474-8f7b-3fca946d7d4f.jpg"",""img/0899/4408c14d-c168-4a7d-96f6-bc87bfb58f83.jpg""]","",""
"","3804","similarity","121","617437","0.0-6.0-115.0","1","[""img/0881/f7a8cc63-8842-40a4-9ff8-fe530310d62c.jpg"",""img/0903/71dbc325-b588-4297-a5cf-7f268a722ad9.jpg""]","",""
"","3798","similarity","122","622239","0.0-6.0-116.0","2","[""img/0894/4739e06d-c31e-4bf1-bf91-c97fa9afb456.jpg"",""img/0874/2c9464dd-8a23-4baa-ac94-1ba3af5c15cc.jpg""]","",""
"","2409","similarity","123","625651","0.0-6.0-117.0","5","[""img/0881/609a5e93-38b5-4940-8627-2bf8fad7f802.jpg"",""img/0862/47ed5efd-4ec9-4b74-bb4e-a5f5cf0c3e7d.jpg""]","",""
"","3187","similarity","124","629843","0.0-6.0-118.0","5","[""img/0868/d6d1f30d-4323-435a-b194-7892521bc57e.jpg"",""img/0875/ebf7653f-ff45-4e9f-af58-2c042ab3cd2b.jpg""]","",""
"","2916","similarity","125","633762","0.0-6.0-119.0","5","[""img/0860/71e1aad0-2cdf-43bb-94a4-a8c016997c30.jpg"",""img/0758/b76ceca7-95ac-46e4-ac13-da02c8e93be9.jpg""]","",""
"","3482","similarity","126","638248","0.0-6.0-120.0","6","[""img/0864/49150900-7f25-4ce8-8d10-9b47a71d1997.jpg"",""img/0875/2c361b79-c3d1-4eda-812e-bf03192407bf.jpg""]","",""
"","2607","similarity","127","641858","0.0-6.0-121.0","2","[""img/0898/993d8f2d-bef7-4251-a193-0f93a32b7763.jpg"",""img/0866/93a27239-8317-4e08-98ca-d8b1ff298e07.jpg""]","",""
"","4044","similarity","128","646906","0.0-6.0-122.0","1","[""img/0874/995f0332-0439-4eb4-add3-957335dbf6d9.jpg"",""img/0904/2f88ce53-02d0-4f95-a082-182c56a0eeb4.jpg""]","",""
"","4027","similarity","129","651938","0.0-6.0-123.0","1","[""img/0904/65e2b70a-b184-4da3-b5c0-5038bdf9469a.jpg"",""img/0864/f92649a2-0590-4d31-9a7a-1bfb81666a2d.jpg""]","",""
"","4127","similarity","130","657070","0.0-6.0-124.0","7","[""img/0894/492d2f29-d7b9-4422-8be8-47fd58bfaa8b.jpg"",""img/0902/9f543501-3cf1-45a7-a2f1-eeca87cc15b9.jpg""]","",""
"","2608","similarity","131","663171","0.0-6.0-125.0","5","[""img/0868/3a62db2d-97e9-44a3-b8e3-a48c6f0e423b.jpg"",""img/0864/66091c27-e588-4476-8af9-265dc6be4156.jpg""]","",""
"","4971","similarity","132","669145","0.0-6.0-126.0","1","[""img/0899/9de5e857-aa9a-4e0c-8ba2-46d79bd069a4.jpg"",""img/0866/0207e9a2-7dbb-40b5-9459-b472aaeceb2a.jpg""]","",""
"","5330","similarity","133","675479","0.0-6.0-127.0","2","[""img/0875/e7e66b13-b573-431e-b85e-288ce04a35a3.jpg"",""img/0904/a8c3c7d2-9bcf-4347-9e03-8203adfc1fc5.jpg""]","",""
"","2834","similarity","134","679317","0.0-6.0-128.0","1","[""img/0867/f8488a47-94ee-4166-952c-44e16cf172f6.jpg"",""img/0899/66ab3178-c3fe-4455-ad17-d5952b08e018.jpg""]","",""
"","3730","similarity","135","684050","0.0-6.0-129.0","3","[""img/0901/c6c877e0-dd63-4e00-9657-33af29d55aab.jpg"",""img/0867/c66898ba-b71b-4d50-84f9-f7f84853a98d.jpg""]","",""
"","4352","similarity","136","689404","0.0-6.0-130.0","1","[""img/0864/e02eddb5-f468-499c-91bf-f7be3ffe979b.jpg"",""img/0769/5bd04f55-d091-4f57-85db-38426f26bd1a.jpg""]","",""
"","2242","similarity","137","692650","0.0-6.0-131.0","2","[""img/0903/e2e55a9e-0397-4dc0-8adf-4a54cfefe1fe.jpg"",""img/0868/6a28c3b0-3d76-498a-9fb7-ddafc665eca8.jpg""]","",""
"","3687","similarity","138","697340","0.0-6.0-132.0","3","[""img/0864/ef9cbca0-4be8-435d-ad49-977259e80409.jpg"",""img/0867/bf560d4f-dee3-4f11-a385-705cc1aa5f3c.jpg""]","",""
"","3340","similarity","139","701683","0.0-6.0-133.0","3","[""img/0901/62315ff5-ed95-46b4-b099-92552079659b.jpg"",""img/0860/29a21a9f-54bb-4093-ad3f-04823ceaa89f.jpg""]","",""
"","3076","similarity","140","705763","0.0-6.0-134.0","3","[""img/0881/db77fe00-aeb0-4d1d-aa66-f3a96fd077e4.jpg"",""img/0766/535849cc-ff5d-4df9-8f31-0ce94a97d571.jpg""]","",""
"","3586","similarity","141","710353","0.0-6.0-135.0","2","[""img/0903/776b74ee-a8ab-4ab8-a78d-097c0747538d.jpg"",""img/0864/5f74a653-3bdc-4308-8cca-ac667dc22e1f.jpg""]","",""
"","2846","similarity","142","714203","0.0-6.0-136.0","2","[""img/0758/3ddd05d3-557e-4ee7-8b78-9d2d681d8ae2.jpg"",""img/0894/e2446cf5-cd48-486a-badc-76498e087fbe.jpg""]","",""
"","3161","similarity","143","718369","0.0-6.0-137.0","2","[""img/0769/14d393ce-e5be-4ca1-86ce-cc27d4b6074c.jpg"",""img/0860/94ef7afc-e0e6-4a15-98c6-0bfac82bc832.jpg""]","",""
"","3148","similarity","144","722521","0.0-6.0-138.0","5","[""img/0904/06dacdc5-2206-4fb8-92b7-88042d22833c.jpg"",""img/0766/717fd72f-a281-499b-a5ba-5e2ecc4d4866.jpg""]","",""
"","3308","similarity","145","726832","0.0-6.0-139.0","3","[""img/0868/e0aff734-077f-40dd-9781-74821abd3621.jpg"",""img/0860/9593362c-9fe5-4d12-9735-6000a11f6aa5.jpg""]","",""
"","3602","similarity","146","731438","0.0-6.0-140.0","3","[""img/0758/d57c2592-a317-4f63-91be-91a3a9afd222.jpg"",""img/0864/e336a4c5-6648-4fd7-b2f6-93a3fb83f8c6.jpg""]","",""
"","2472","similarity","147","734914","0.0-6.0-141.0","6","[""img/0867/f8159067-056c-41f1-a136-c529fe5e970a.jpg"",""img/0867/ac1797e4-8afc-48fe-b252-86d1defb1cca.jpg""]","",""
"","2812","similarity","148","738730","0.0-6.0-142.0","7","[""img/0898/b2732712-71c2-45d8-834f-2b2ed5504910.jpg"",""img/0898/5f699581-3853-4547-856c-12f419ba5af7.jpg""]","",""
"","3808","similarity","149","743542","0.0-6.0-143.0","3","[""img/0866/6f2a90d7-14f1-4f1b-bd64-fc0af6b9fe44.jpg"",""img/0769/9ea27d61-3d55-418c-8d14-82e90f656f01.jpg""]","",""
"","3484","similarity","150","748030","0.0-6.0-144.0","3","[""img/0860/524b2e98-5767-4d53-942c-ebae6925659b.jpg"",""img/0898/661621d4-a14e-487c-8c74-354134a29710.jpg""]","",""
"","3818","similarity","151","752851","0.0-6.0-145.0","1","[""img/0766/d8221e53-2300-4d99-ae1b-0bfb0eabe579.jpg"",""img/0864/3651d070-2fc5-4848-b6a6-088a2d9ac5c9.jpg""]","",""
"","3268","similarity","152","757123","0.0-6.0-146.0","3","[""img/0860/c5ccd1a4-4bb7-48e1-9b25-72cfaf06909b.jpg"",""img/0903/0fb24af7-9a26-4e9d-aadc-959a36f683e2.jpg""]","",""
"","2142","similarity","153","760269","0.0-6.0-147.0","2","[""img/0867/a498eef3-9fa4-4ab2-9778-4ae82ac40dc5.jpg"",""img/0764/ec2dd087-c471-4370-b570-95a542506a96.jpg""]","",""
"","3648","similarity","154","764921","0.0-6.0-148.0","6","[""img/0769/7c50e5f5-cc38-4d48-b009-fbe17bcea61c.jpg"",""img/0904/96e503ea-6630-4996-85f2-0237688ce441.jpg""]","",""
"","3134","similarity","155","769059","0.0-6.0-149.0","5","[""img/0764/5c8fbafc-e62e-43ed-9b37-f73e8e45147d.jpg"",""img/0901/71e551a2-9ce2-409c-9c7c-dd556a0791e9.jpg""]","",""
"","2510","similarity","156","772573","0.0-6.0-150.0","6","[""img/0904/4b8daf2a-13a9-4ea9-9e0b-b265b6e933e7.jpg"",""img/0899/57476fed-5962-4272-8fc9-b317bb777b54.jpg""]","",""
"","2973","similarity","157","776551","0.0-6.0-151.0","5","[""img/0862/92f0146c-20c4-482e-aef5-adb693790338.jpg"",""img/0867/a749dddb-69f0-44a6-acdc-2bf295cf6dcc.jpg""]","",""
"","2892","similarity","158","780446","0.0-6.0-152.0","7","[""img/0766/f5f78e4e-d88f-4866-951a-118ba9fec4d0.jpg"",""img/0766/0b48f9e0-7d37-4161-8adb-4e3f5b6b7583.jpg""]","",""
"","2525","similarity","159","783976","0.0-6.0-153.0","6","[""img/0862/57b6f83f-c763-4858-830d-102f97bfefbf.jpg"",""img/0894/5f15154e-e72e-4ce5-aafb-bce6f0564006.jpg""]","",""
"","3098","similarity","160","788078","0.0-6.0-154.0","5","[""img/0899/25ae6ec8-9565-49fe-a8bb-8d0666f52716.jpg"",""img/0901/148b747a-7392-437e-8823-33053c5dff3f.jpg""]","",""
"","3102","similarity","161","792184","0.0-6.0-155.0","6","[""img/0874/31e22c7c-99aa-40b1-bf03-dd73fa2df4d6.jpg"",""img/0874/ca23d307-fc00-4d7d-9106-584c6eb21b4d.jpg""]","",""
"","2286","similarity","162","795474","0.0-6.0-156.0","6","[""img/0860/61fb959d-d4d9-4de4-9e4e-4fa62b4cfcd5.jpg"",""img/0867/aa05d113-fc19-4756-a8eb-7878f580bc92.jpg""]","",""
"","3740","similarity","163","800218","0.0-6.0-157.0","2","[""img/0901/4f9cffe0-c0be-4d7f-bacd-9d51efd19b4a.jpg"",""img/0881/f4e3e181-b3c9-4af2-a5a4-fc135ab70d2e.jpg""]","",""
"","2895","similarity","164","804118","0.0-6.0-158.0","6","[""img/0903/8c358e9e-a4f4-466e-8b93-7aec0d2358e8.jpg"",""img/0902/8065aa6b-4aef-4368-afa2-02c6465ca582.jpg""]","",""
"","2637","similarity","165","807759","0.0-6.0-159.0","5","[""img/0860/b03b963d-949b-4d8d-b19c-4950c89eeca2.jpg"",""img/0764/f64dfa83-333d-494c-87b5-73e942f1766e.jpg""]","",""
"","3649","similarity","166","812414","0.0-6.0-160.0","2","[""img/0902/04a6ad4a-afc6-4871-8225-56b299af7b6b.jpg"",""img/0875/99698b4d-b4a1-44bc-8c83-8ea755bbbf61.jpg""]","",""
"","3279","similarity","167","816697","0.0-6.0-161.0","2","[""img/0898/40f99fb2-64d2-4e72-8a7f-a1cf60741e69.jpg"",""img/0862/f23038d4-c366-4f70-979f-66b62362efa4.jpg""]","",""
"","2992","similarity","168","820693","0.0-6.0-162.0","3","[""img/0894/e5edf723-72a5-4673-8441-6c1734a8929b.jpg"",""img/0875/a4935837-7d3c-4df6-88c1-36a94d4991ca.jpg""]","",""
"","2423","similarity","169","824119","0.0-6.0-163.0","5","[""img/0866/c446214b-a368-4c65-ae39-ea46894256ab.jpg"",""img/0864/ea327690-500b-4137-bf91-451b309fe6a5.jpg""]","",""
"","2728","similarity","170","827851","0.0-6.0-164.0","3","[""img/0766/a1ed3f0f-e338-4a26-8fe4-4370f0c9fa6e.jpg"",""img/0862/53a9cf7c-93c4-41b9-952f-07d17f7a17b2.jpg""]","",""
"","3300","similarity","171","832155","0.0-6.0-165.0","5","[""img/0866/f756f7d1-9ad8-4a34-9ef6-7a443d705bfe.jpg"",""img/0874/767f289c-9814-4496-803f-745cc8913d1f.jpg""]","",""
"","2573","similarity","172","835733","0.0-6.0-166.0","6","[""img/0862/cdaed51d-9e2f-4807-801a-4663c40077e2.jpg"",""img/0860/15b24a61-25be-4356-9eac-5ce95d0cb4a4.jpg""]","",""
"","2540","similarity","173","843547","0.0-6.0-167.0","5","[""img/0766/1bc0dccc-a5b5-4375-87fa-28360ca42b12.jpg"",""img/0901/1e23ffbd-19de-4c4f-aa23-c54aaa3319a3.jpg""]","",""
"","2723","similarity","174","847274","0.0-6.0-168.0","7","[""img/0862/064818ee-13d5-4618-bb24-21c7368ea278.jpg"",""img/0862/d0ca4c78-fc35-46ed-bdcc-8e124283c53e.jpg""]","",""
"","2848","similarity","175","851126","0.0-6.0-169.0","7","[""img/0894/3adef67d-7676-4995-80b2-bb31b8aca3ef.jpg"",""img/0764/5d6fa3ce-9083-410c-bbdb-336a49b94cfc.jpg""]","",""
"","5742","similarity","176","857872","0.0-6.0-170.0","6","[""img/0874/c0378dac-9370-439a-8b79-db27c96fb390.jpg"",""img/0898/82231d4c-218b-4d0a-b50d-35a49b524e97.jpg""]","",""
"","2797","similarity","177","861674","0.0-6.0-171.0","3","[""img/0860/c7047cd2-7cc1-41b6-8a34-c0986774975f.jpg"",""img/0766/2da002a4-05c9-4f5c-9ed7-433b4183e273.jpg""]","",""
"","2903","similarity","178","865581","0.0-6.0-172.0","2","[""img/0898/81b08535-2020-4c15-9ce4-2f1e460755ae.jpg"",""img/0864/3d4de670-b290-4285-9c3d-12a0e3af44e9.jpg""]","",""
"","2629","similarity","179","869215","0.0-6.0-173.0","2","[""img/0881/f6bd3b96-dc40-4e99-8681-bc3a35cf896d.jpg"",""img/0764/17b088f8-3053-4140-b544-d15654cc79ef.jpg""]","",""
"","3803","similarity","180","874021","0.0-6.0-174.0","3","[""img/0898/f3a3f225-1248-4ac7-b93b-f0ff28485bf3.jpg"",""img/0868/8b0b8473-e2c0-4331-aa56-c3a5c29369da.jpg""]","",""
"","3198","similarity","181","878221","0.0-6.0-175.0","7","[""img/0864/c22faebd-9c53-47bc-ada3-b9a30c688e75.jpg"",""img/0864/b3c4e378-28f0-4699-9338-2a257b4bca04.jpg""]","",""
"","3842","similarity","182","883067","0.0-6.0-176.0","3","[""img/0899/ddf96ade-692e-4602-bd22-dedbb46401bc.jpg"",""img/0862/a0a3a7ba-7798-46a3-b4ca-05e1f6e581d0.jpg""]","",""
"","3499","similarity","183","887570","0.0-6.0-177.0","5","[""img/0875/527ced51-8e53-4aab-ab05-86df219104c0.jpg"",""img/0758/53f35650-e455-4b53-8be4-c3c8271c6466.jpg""]","",""
"","3562","similarity","184","892137","0.0-6.0-178.0","2","[""img/0866/a15b02be-11bb-43e3-b0e0-ecc3bd7dfc49.jpg"",""img/0901/08d6d1d1-c043-43c4-bb08-d45e062822b9.jpg""]","",""
"","6126","similarity","185","899267","0.0-6.0-179.0","3","[""img/0769/1d8734c4-77ab-4165-9e71-5cfe672ff01c.jpg"",""img/0874/99f6563c-8a8d-4c1c-a41d-667b618c3fd5.jpg""]","",""
"","2473","similarity","186","902744","0.0-6.0-180.0","6","[""img/0875/cff79b3a-a797-4393-9757-6275f999ec04.jpg"",""img/0881/14236cf2-6b95-48b8-9368-78af09d2d27f.jpg""]","",""
"","2282","similarity","187","906030","0.0-6.0-181.0","7","[""img/0866/02f5e6b9-52b7-448c-9708-5b460d0c9a23.jpg"",""img/0868/1a62b2b2-18f5-466e-b564-5176a57c565e.jpg""]","",""
"","3980","similarity","188","911014","0.0-6.0-182.0","5","[""img/0899/d8f2dd94-570e-4e8c-a087-d96090fb9e8c.jpg"",""img/0758/ddc336e9-a8b6-4bb9-937a-c7e25e0e9250.jpg""]","",""
"","3740","similarity","189","915758","0.0-6.0-183.0","7","[""img/0874/7e4f2150-3b59-4a36-b5da-a4e0ba410531.jpg"",""img/0875/fb732ab5-013a-4366-9f65-27811ed157e9.jpg""]","",""
"","2376","similarity","190","919138","0.0-6.0-184.0","3","[""img/0904/9d30eff1-46ef-4453-b11e-124ef8145c00.jpg"",""img/0862/99a99e39-8355-44ec-b993-e7bcec111e1c.jpg""]","",""
"","3370","similarity","191","923512","0.0-6.0-185.0","7","[""img/0902/5b45a7a0-81c8-4a71-aaa2-2ce09adb5a29.jpg"",""img/0766/aaec5f42-7f0a-4a16-aeca-488d757acbcc.jpg""]","",""
"","2834","similarity","192","927350","0.0-6.0-186.0","3","[""img/0758/61d64021-9214-4951-bdf8-f871f9827cf9.jpg"",""img/0769/1afb527f-9887-428c-bd26-a12c2f9efb68.jpg""]","",""
"","4911","similarity","193","933265","0.0-6.0-187.0","7","[""img/0881/e046471a-35b4-4159-bbf7-3cfd201bef66.jpg"",""img/0881/5fe04dd0-5c74-47b7-99c8-b068db9ca26a.jpg""]","",""
"","2612","similarity","194","936881","0.0-6.0-188.0","6","[""img/0758/a709631e-3705-4725-ac40-f0d916924f08.jpg"",""img/0866/bf14b5bd-fb55-47db-86b9-4f8aeb9a6dad.jpg""]","",""
"","3410","similarity","195","941295","0.0-6.0-189.0","5","[""img/0764/8389e74f-e0e0-435d-945f-da1f4c92ccb6.jpg"",""img/0898/79233891-305a-4a6a-8ddf-5c8604858203.jpg""]","",""
"","2439","similarity","196","944737","0.0-6.0-190.0","5","[""img/0903/59defeb8-98bd-4570-a2f8-9bd189e68ef4.jpg"",""img/0901/ae1e6ce4-2e10-4ca9-b1e7-21628637ab74.jpg""]","",""
"","2534","similarity","197","948275","0.0-6.0-191.0","7","[""img/0902/44cd9b7e-fdfb-4f78-90de-8d4c9d279365.jpg"",""img/0898/a8f16b02-e19f-423b-86c3-a36562ae1f9b.jpg""]","",""
"","3778","similarity","198","953057","0.0-6.0-192.0","1","[""img/0864/da39ad34-04e0-40d4-a724-c08d53e0ea09.jpg"",""img/0901/58ec7fa9-b466-4651-90aa-c082df0972de.jpg""]","",""
"","3735","similarity","199","957796","0.0-6.0-193.0","1","[""img/0894/38cf335f-f76f-4349-8d65-e20cd6859565.jpg"",""img/0881/445edb15-bd7f-4af3-8bd5-c6ad9677bb31.jpg""]","",""
"","2621","similarity","200","961422","0.0-6.0-194.0","7","[""img/0868/fd307a36-9a3a-47d7-ab7c-f810d0b35040.jpg"",""img/0868/4e626425-63c8-484a-8a1d-e66ee4e0bef8.jpg""]","",""
"","3651","similarity","201","966077","0.0-6.0-195.0","5","[""img/0899/ad8268c5-8199-48d0-ad70-c5b6d6c599ec.jpg"",""img/0764/06ea144f-f4f3-4a14-ba47-f20f35c561e0.jpg""]","",""
"","3758","similarity","202","970838","0.0-6.0-196.0","3","[""img/0881/1407b85b-a1c6-45b1-9884-3b24203efadb.jpg"",""img/0904/1d10df11-b5c8-4370-9a6b-097a7f965895.jpg""]","",""
"","2486","similarity","203","974328","0.0-6.0-197.0","3","[""img/0864/8ddd2e30-a1d0-479f-9cbe-591213023893.jpg"",""img/0902/a6fb6dd5-696c-47ec-be7d-d7b88f1544f1.jpg""]","",""
"","3183","similarity","204","978515","0.0-6.0-198.0","7","[""img/0894/5c7677b0-a4f1-479e-b274-7822c415175a.jpg"",""img/0904/5cceabc9-de1d-4c67-989b-c28a4ef77e79.jpg""]","",""
"","2926","similarity","205","982445","0.0-6.0-199.0","7","[""img/0901/50e1d53e-a49f-4806-8610-be6dec5a2475.jpg"",""img/0901/5b97abf9-f0c8-4fd1-b921-36d574779078.jpg""]","",""
"","4331","similarity","206","987780","0.0-6.0-200.0","1","[""img/0894/5a49e858-2850-4892-9a06-e9f0efb5f94d.jpg"",""img/0860/8a92e21b-6a32-4e4a-a445-2d5a487ed0a4.jpg""]","",""
"","5206","similarity","207","993989","0.0-6.0-201.0","5","[""img/0898/c3cecf20-f7fd-45fa-97d0-dc0a63e8d6c0.jpg"",""img/0903/680ed18e-b311-4ecf-9b00-7dea32128334.jpg""]","",""
"","2664","similarity","208","997657","0.0-6.0-202.0","3","[""img/0864/9b2490c5-a282-400a-9736-e1a0ecbf1cb7.jpg"",""img/0894/5ff3c4f6-52e2-4075-8679-be0312e59703.jpg""]","",""
"","3930","similarity","209","1002591","0.0-6.0-203.0","6","[""img/0874/a3bc679d-619f-4db6-bb68-116dcb757d9c.jpg"",""img/0860/99c589b9-9140-4d17-90c0-b344323edcda.jpg""]","",""
"","2677","similarity","210","1006272","0.0-6.0-204.0","5","[""img/0862/4f0a3b4c-afbf-486e-b248-1d54982f54b4.jpg"",""img/0875/2e13d160-eea1-416b-aff1-d37ab99ecc1d.jpg""]","",""
"","3176","similarity","211","1010452","0.0-6.0-205.0","5","[""img/0867/85a96c62-548f-4994-9553-819e03c3135a.jpg"",""img/0881/ee44e27f-d662-4608-b265-e7ffa19b216f.jpg""]","",""
"","3048","similarity","212","1014504","0.0-6.0-206.0","6","[""img/0901/4d1bed7e-3c4e-4f6c-ada9-4beb66ba9e39.jpg"",""img/0902/b03129ba-b087-4558-af37-e8399d6217d6.jpg""]","",""
"","2417","similarity","213","1017926","0.0-6.0-207.0","1","[""img/0899/7f9d45d0-b2c6-40d3-aa41-c207db2c411b.jpg"",""img/0864/1d15626a-2f7c-410f-819c-0fa2c967e95e.jpg""]","",""
"","3790","similarity","214","1022720","0.0-6.0-208.0","5","[""img/0901/00acf6c1-b66e-4060-bb04-4caf29b5a8b0.jpg"",""img/0769/4680bcc3-8fbc-4643-8f9a-12aa0e780b64.jpg""]","",""
"","3402","similarity","215","1029367","0.0-6.0-209.0","7","[""img/0902/0eb85fbc-27c8-41df-9d0b-a5f9efd417d1.jpg"",""img/0902/7499db23-3a41-41ea-ab5b-6ab4d4c3ed35.jpg""]","",""
"[{""page_index"":0,""viewing_time"":1359}]","1359","instructions","216","1031727","0.0-7.0","","","",""
"","59827","image-multi-choice","217","1092565","0.0-8.0-0.0","","","{""Q0"":""Orange-crowned Warbler""}","Nashville Warbler"
"","4274","image-multi-choice","218","1097848","0.0-8.0-1.0","","","{""Q0"":""Black-and-white Warbler""}","Black-and-white Warbler"
"","7192","image-multi-choice","219","1106049","0.0-8.0-2.0","","","{""Q0"":""Blackburnian Warbler""}","Townsend's Warbler"
"","4223","image-multi-choice","220","1111280","0.0-8.0-3.0","","","{""Q0"":""Lark Sparrow""}","Lark Sparrow"
"","3187","image-multi-choice","221","1115475","0.0-8.0-4.0","","","{""Q0"":""Yellow Warbler""}","Yellow Warbler"
"","26466","image-multi-choice","222","1142950","0.0-8.0-5.0","","","{""Q0"":""Orange-crowned Warbler""}","Orange-crowned Warbler"
"","8955","image-multi-choice","223","1152914","0.0-8.0-6.0","","","{""Q0"":""White-throated Sparrow""}","White-throated Sparrow"
"","3705","image-multi-choice","224","1157627","0.0-8.0-7.0","","","{""Q0"":""Fox Sparrow""}","Fox Sparrow"
"","6267","image-multi-choice","225","1164903","0.0-8.0-8.0","","","{""Q0"":""Lincoln's Sparrow""}","Song Sparrow"
"","36738","image-multi-choice","226","1202649","0.0-8.0-9.0","","","{""Q0"":""Townsend's Warbler""}","Blackburnian Warbler"
"","7373","image-multi-choice","227","1211030","0.0-8.0-10.0","","","{""Q0"":""Vesper Sparrow""}","Vesper Sparrow"
"","3901","image-multi-choice","228","1215940","0.0-8.0-11.0","","","{""Q0"":""White-crowned Sparrow""}","White-crowned Sparrow"
"","14492","image-multi-choice","229","1231440","0.0-8.0-12.0","","","{""Q0"":""American Tree Sparrow""}","American Tree Sparrow"
"","27309","image-multi-choice","230","1259757","0.0-8.0-13.0","","","{""Q0"":""Tennessee Warbler""}","Tennessee Warbler"
"","12144","image-multi-choice","231","1272909","0.0-8.0-14.0","","","{""Q0"":""Magnolia Warbler""}","Magnolia Warbler"
"","12795","image-multi-choice","232","1286712","0.0-8.0-15.0","","","{""Q0"":""Northern Waterthrush""}","Northern Waterthrush"
"","7923","image-multi-choice","233","1295641","0.0-8.0-16.0","","","{""Q0"":""Chipping Sparrow""}","Chipping Sparrow"
"","4121","image-multi-choice","234","1300771","0.0-8.0-17.0","","","{""Q0"":""Swamp Sparrow""}","Swamp Sparrow"
"","54463","image-multi-choice","235","1356243","0.0-8.0-18.0","","","{""Q0"":""Swamp Sparrow""}","Lincoln's Sparrow"
"","3231","image-multi-choice","236","1360482","0.0-8.0-19.0","","","{""Q0"":""Ovenbird""}","Ovenbird"
