"view_history","rt","trial_type","trial_index","time_elapsed","internal_node_id","sim_score","stimulus","responses","answer"
"[{""page_index"":0,""viewing_time"":15156}]","15157","instructions","0","15159","0.0-0.0","","","",""
"","6786","similarity_demo","1","22958","0.0-1.0","5","[""img/866.jpg"",""img/868.jpg""]","",""
"[{""page_index"":0,""viewing_time"":7413}]","7414","instructions","2","31377","0.0-2.0","","","",""
"","5562","similarity_demo","3","37947","0.0-3.0","1","[""img/766.jpg"",""img/867.jpg""]","",""
"[{""page_index"":0,""viewing_time"":5859}]","5860","instructions","4","44812","0.0-4.0","","","",""
"[{""page_index"":0,""viewing_time"":16324}]","16325","instructions","5","62141","0.0-5.0","","","",""
"","4940","similarity","6","68091","0.0-6.0-0.0","1","[""img/0868/8b0b8473-e2c0-4331-aa56-c3a5c29369da.jpg"",""img/0901/fb0a8e69-7f19-4e6e-a6bb-a48f97f9b4f3.jpg""]","",""
"","5029","similarity","7","74127","0.0-6.0-1.0","1","[""img/0769/022c7e3b-c3f2-4119-b4bc-f22fa7cae18c.jpg"",""img/0867/a498eef3-9fa4-4ab2-9778-4ae82ac40dc5.jpg""]","",""
"","6433","similarity","8","81568","0.0-6.0-2.0","2","[""img/0766/2746b119-4bba-463e-acf0-88136dc6600c.jpg"",""img/0898/79233891-305a-4a6a-8ddf-5c8604858203.jpg""]","",""
"","5395","similarity","9","87972","0.0-6.0-3.0","3","[""img/0902/aa6fca32-82b0-4414-b20a-8f6f8aa5a2d2.jpg"",""img/0881/5fe04dd0-5c74-47b7-99c8-b068db9ca26a.jpg""]","",""
"","4367","similarity","10","93350","0.0-6.0-4.0","5","[""img/0894/7dd6ff43-f8fc-408a-8a41-a2b261871820.jpg"",""img/0894/38cf335f-f76f-4349-8d65-e20cd6859565.jpg""]","",""
"","4952","similarity","11","99318","0.0-6.0-5.0","4","[""img/0874/7e4f2150-3b59-4a36-b5da-a4e0ba410531.jpg"",""img/0899/1b3457ea-87d4-4946-a01c-aac1863ed46c.jpg""]","",""
"","5291","similarity","12","105620","0.0-6.0-6.0","5","[""img/0904/a8c3c7d2-9bcf-4347-9e03-8203adfc1fc5.jpg"",""img/0764/d7f3ac54-318a-4dac-a06b-62bed34d01a4.jpg""]","",""
"","6411","similarity","13","113046","0.0-6.0-7.0","7","[""img/0899/5b56dd3e-3f49-47cc-af84-16da6457753b.jpg"",""img/0898/6cd3830b-d44e-4915-be2b-88d31424b91c.jpg""]","",""
"","5892","similarity","14","119945","0.0-6.0-8.0","3","[""img/0874/3f471690-9788-4d03-90c7-f615aecef149.jpg"",""img/0903/005ad0de-4f52-433c-b515-dbe8d46184a3.jpg""]","",""
"","5987","similarity","15","126941","0.0-6.0-9.0","6","[""img/0881/405484ae-0d00-4b05-bc57-6420a36adfac.jpg"",""img/0758/b76ceca7-95ac-46e4-ac13-da02c8e93be9.jpg""]","",""
"","6076","similarity","16","134022","0.0-6.0-10.0","6","[""img/0898/224c1572-56b9-4f16-a9e4-6f3bc9c114bd.jpg"",""img/0901/d4d09bf5-093e-4050-838e-7c738be8e63c.jpg""]","",""
"","6397","similarity","17","141426","0.0-6.0-11.0","5","[""img/0903/f45a103c-9bfe-49fd-ad96-bdd8d2589195.jpg"",""img/0769/c7cfacc3-7f07-46ff-9f5d-8073f4c4679b.jpg""]","",""
"","4146","similarity","18","146582","0.0-6.0-12.0","2","[""img/0764/a3226bc4-dcc3-4608-bde8-1414d685ce5c.jpg"",""img/0868/fd307a36-9a3a-47d7-ab7c-f810d0b35040.jpg""]","",""
"","3975","similarity","19","151565","0.0-6.0-13.0","1","[""img/0867/50a1b60e-3a29-44bf-b606-d4bd3746fea9.jpg"",""img/0903/8931c67c-a43d-47d3-a4c9-42aa2f81d344.jpg""]","",""
"","4783","similarity","20","157356","0.0-6.0-14.0","5","[""img/0766/0025de5e-f620-4079-8a0f-00326ff3a6b0.jpg"",""img/0758/eabcd7a8-56ad-4fd2-bc24-90f6b7b33265.jpg""]","",""
"","6188","similarity","21","164553","0.0-6.0-15.0","6","[""img/0902/eb3e7e71-8ff1-4b88-a6a7-47e2c1ce1683.jpg"",""img/0860/f44ba3fb-03a2-42f0-8509-2c1ded493086.jpg""]","",""
"","5604","similarity","22","171162","0.0-6.0-16.0","2","[""img/0769/b664b502-a86c-46c1-ad6f-5ebffc2e1bd3.jpg"",""img/0875/ebf7653f-ff45-4e9f-af58-2c042ab3cd2b.jpg""]","",""
"","5585","similarity","23","177754","0.0-6.0-17.0","2","[""img/0904/65e2b70a-b184-4da3-b5c0-5038bdf9469a.jpg"",""img/0866/386235d2-6857-41e7-88a8-25cfc3430025.jpg""]","",""
"","5652","similarity","24","184416","0.0-6.0-18.0","6","[""img/0875/34132396-d896-4c2d-8087-646dd867e769.jpg"",""img/0875/dbdd643e-6d0e-4a5c-ab57-b9c29b9c981a.jpg""]","",""
"","5280","similarity","25","190703","0.0-6.0-19.0","7","[""img/0758/e38fd80d-18d0-42f3-b848-f930788e8bd7.jpg"",""img/0758/d540bee6-b460-4c32-ac57-bc282742d7d4.jpg""]","",""
"","4794","similarity","26","196504","0.0-6.0-20.0","5","[""img/0902/168ebd47-9e82-4ab7-a18b-c3da85072db8.jpg"",""img/0874/ca76a855-4e77-4f2f-872a-0a718153e7ed.jpg""]","",""
"","5911","similarity","27","203421","0.0-6.0-21.0","6","[""img/0764/e0788029-9d7f-414c-b747-46d2a99f7c86.jpg"",""img/0769/662ab839-88d1-4ebf-af05-9b2980cad943.jpg""]","",""
"","6298","similarity","28","210724","0.0-6.0-22.0","3","[""img/0901/f1116359-1ff1-4638-b3b3-700918d36d18.jpg"",""img/0874/adf9a8f1-c40b-402b-b95b-1e85a54a7b62.jpg""]","",""
"","4914","similarity","29","216645","0.0-6.0-23.0","3","[""img/0875/2c361b79-c3d1-4eda-812e-bf03192407bf.jpg"",""img/0903/5c6b1f57-b3a2-40f5-9fb1-82785e24b6a0.jpg""]","",""
"","4580","similarity","30","222236","0.0-6.0-24.0","4","[""img/0769/da36e3f7-2337-434f-ab57-11822dd7eed7.jpg"",""img/0881/44e09805-5a25-4f17-a716-4ad4a331b174.jpg""]","",""
"","3611","similarity","31","226856","0.0-6.0-25.0","3","[""img/0867/a749dddb-69f0-44a6-acdc-2bf295cf6dcc.jpg"",""img/0904/1d10df11-b5c8-4370-9a6b-097a7f965895.jpg""]","",""
"","4003","similarity","32","231868","0.0-6.0-26.0","1","[""img/0860/18dfed73-e36b-4487-a8bd-0b8cff8e3668.jpg"",""img/0881/f6bd3b96-dc40-4e99-8681-bc3a35cf896d.jpg""]","",""
"","5508","similarity","33","238383","0.0-6.0-27.0","7","[""img/0866/a04d37f0-99dd-478a-b6c6-58b215138f84.jpg"",""img/0866/9b38d691-1802-4959-ab3f-fc902f0e4ea6.jpg""]","",""
"","4182","similarity","34","243570","0.0-6.0-28.0","3","[""img/0764/50f1b062-d608-4bc0-ab25-b872dcf2ed93.jpg"",""img/0862/eefa5588-9efd-4591-aa5f-a2e17c7d7bcc.jpg""]","",""
"","5582","similarity","35","250160","0.0-6.0-29.0","5","[""img/0904/b7c2a2c8-df33-4473-b3d4-ff7147c60db3.jpg"",""img/0758/f61ecdf8-a7d4-4db0-b84d-be46f7cfaffc.jpg""]","",""
"","5104","similarity","36","256272","0.0-6.0-30.0","4","[""img/0894/38f5931f-926d-414e-b498-66b188978b7a.jpg"",""img/0899/f58b8d2f-b19d-4b59-8b94-8834be92e4ba.jpg""]","",""
"","4868","similarity","37","262149","0.0-6.0-31.0","2","[""img/0860/5bff793e-cbd5-4d7e-b628-0ac2b0e30b64.jpg"",""img/0904/96e503ea-6630-4996-85f2-0237688ce441.jpg""]","",""
"","5173","similarity","38","268329","0.0-6.0-32.0","5","[""img/0874/c0378dac-9370-439a-8b79-db27c96fb390.jpg"",""img/0881/f62bdcd1-a4b7-4d48-83da-d9c9e01c8727.jpg""]","",""
"","5359","similarity","39","274698","0.0-6.0-33.0","6","[""img/0881/f037e3b0-09cb-4a83-b2d9-6a71fe474e63.jpg"",""img/0899/ad8268c5-8199-48d0-ad70-c5b6d6c599ec.jpg""]","",""
"","3814","similarity","40","279520","0.0-6.0-34.0","1","[""img/0866/be24ab58-230e-4db8-9f45-ff04c9aec6bb.jpg"",""img/0862/d0ca4c78-fc35-46ed-bdcc-8e124283c53e.jpg""]","",""
"","5452","similarity","41","285981","0.0-6.0-35.0","6","[""img/0868/77091fc7-a590-4ebb-b915-fdb2483a2399.jpg"",""img/0894/b422d5c6-3c5a-49ae-a53e-7e88ac993f49.jpg""]","",""
"","4931","similarity","42","291920","0.0-6.0-36.0","7","[""img/0860/fd4662f9-4c03-4d79-8593-06735e55a64b.jpg"",""img/0860/c5ccd1a4-4bb7-48e1-9b25-72cfaf06909b.jpg""]","",""
"","5417","similarity","43","298348","0.0-6.0-37.0","5","[""img/0862/ee3b7bff-4a70-4e84-9bea-4a565e456acb.jpg"",""img/0864/da39ad34-04e0-40d4-a724-c08d53e0ea09.jpg""]","",""
"","5523","similarity","44","304879","0.0-6.0-38.0","6","[""img/0766/27f54113-8561-4568-9ffe-0a1650ae65ec.jpg"",""img/0866/07c9c966-3c8d-40e7-8128-92b2acbaed5d.jpg""]","",""
"","5252","similarity","45","311140","0.0-6.0-39.0","5","[""img/0875/527ced51-8e53-4aab-ab05-86df219104c0.jpg"",""img/0898/4184e5a2-84ea-4f36-9b42-ae58646f6f87.jpg""]","",""
"","5802","similarity","46","317949","0.0-6.0-40.0","5","[""img/0766/fd74fdbb-ea40-4f3a-a091-38d08dfd636e.jpg"",""img/0769/1afb527f-9887-428c-bd26-a12c2f9efb68.jpg""]","",""
"","6648","similarity","47","333673","0.0-6.0-41.0","5","[""img/0874/8cdb1c07-1c32-46d2-981c-3636560fa6e5.jpg"",""img/0764/21e3292f-01ad-4238-828b-61b817857d16.jpg""]","",""
"","3096","similarity","48","337781","0.0-6.0-42.0","1","[""img/0868/293079b8-7e0c-4afd-a390-1e5d35fe3ded.jpg"",""img/0902/3b243e54-0803-4c29-af42-4037c2118495.jpg""]","",""
"","4816","similarity","49","343603","0.0-6.0-43.0","3","[""img/0875/f87b67d7-c33e-40d1-b281-248c4be1cb6e.jpg"",""img/0899/4f7bc593-8ddd-4da3-a0b9-84da730d3370.jpg""]","",""
"","3843","similarity","50","348481","0.0-6.0-44.0","1","[""img/0866/945c6710-d15b-4a5b-a8f6-69af0850357f.jpg"",""img/0860/99c589b9-9140-4d17-90c0-b344323edcda.jpg""]","",""
"","4484","similarity","51","353973","0.0-6.0-45.0","4","[""img/0766/2e1cf445-9aef-40e7-92f4-5facf48b64c5.jpg"",""img/0903/5ea5bbe0-f238-4724-abe7-9ed8dee8c0ba.jpg""]","",""
"","4111","similarity","52","359093","0.0-6.0-46.0","3","[""img/0901/0adb3bd6-d758-4ba7-9723-3ad6cac05bd5.jpg"",""img/0904/9d30eff1-46ef-4453-b11e-124ef8145c00.jpg""]","",""
"","5490","similarity","53","365593","0.0-6.0-47.0","3","[""img/0758/ddc336e9-a8b6-4bb9-937a-c7e25e0e9250.jpg"",""img/0902/511abb54-0094-4f4d-b6dc-3f2c97050521.jpg""]","",""
"","4687","similarity","54","371288","0.0-6.0-48.0","5","[""img/0764/ec2dd087-c471-4370-b570-95a542506a96.jpg"",""img/0764/da207710-e7e4-4f42-b2e6-99b5f357f433.jpg""]","",""
"","3981","similarity","55","376275","0.0-6.0-49.0","2","[""img/0866/0207e9a2-7dbb-40b5-9459-b472aaeceb2a.jpg"",""img/0902/d2c34af0-8c50-437d-8cc3-619195a3e8ba.jpg""]","",""
"","6881","similarity","56","384165","0.0-6.0-50.0","5","[""img/0764/5c8fbafc-e62e-43ed-9b37-f73e8e45147d.jpg"",""img/0758/335851a0-a55b-46d8-ab05-8463eda48349.jpg""]","",""
"","5441","similarity","57","390616","0.0-6.0-51.0","4","[""img/0898/cd3aaa3f-efa9-4ab3-8d6f-a6a9273ddf42.jpg"",""img/0894/7fb082e0-ce79-485c-9109-04367fb32275.jpg""]","",""
"","5253","similarity","58","396879","0.0-6.0-52.0","7","[""img/0875/2e13d160-eea1-416b-aff1-d37ab99ecc1d.jpg"",""img/0866/620cd1aa-0800-4414-8f6e-90342e7a99ad.jpg""]","",""
"","4661","similarity","59","402547","0.0-6.0-53.0","6","[""img/0904/4e58005d-a2ec-4aaa-b199-445343561396.jpg"",""img/0904/5aec2708-cf14-4a58-aa30-9a8a61c1be0e.jpg""]","",""
"","4728","similarity","60","408285","0.0-6.0-54.0","6","[""img/0769/688d0c52-ad73-4065-a5eb-f8c10d076bff.jpg"",""img/0769/96556ef3-7fac-4c9d-8281-1cb0ea5081bc.jpg""]","",""
"","4217","similarity","61","413512","0.0-6.0-55.0","1","[""img/0898/a114b375-cb89-44ba-9498-74213f1ecdee.jpg"",""img/0758/a085b443-b5d7-4cb2-9ad4-b9dab0fc23f1.jpg""]","",""
"","5777","similarity","62","420296","0.0-6.0-56.0","6","[""img/0769/387a9744-d6a7-42b8-bab8-33007ec434aa.jpg"",""img/0902/07437a16-3d0f-4a5c-89ec-36d0efa4b3b8.jpg""]","",""
"","6336","similarity","63","427639","0.0-6.0-57.0","7","[""img/0864/0116ca98-293d-4fa6-a93b-5a6144ef64cc.jpg"",""img/0881/adc02f34-ce97-4aef-850f-00519df06fd7.jpg""]","",""
"","3661","similarity","64","432309","0.0-6.0-58.0","1","[""img/0758/2fa3e613-e676-4e6e-bd12-705327eeb3e1.jpg"",""img/0868/0d3abd3a-b6c3-4584-a9f7-e2da63748b3d.jpg""]","",""
"","5447","similarity","65","438765","0.0-6.0-59.0","6","[""img/0862/064818ee-13d5-4618-bb24-21c7368ea278.jpg"",""img/0769/38a88f69-28fd-4bbd-99f0-f4c02bfd3995.jpg""]","",""
"","5048","similarity","66","444822","0.0-6.0-60.0","5","[""img/0764/83c93cce-18d1-4aa7-9e23-2c268afe0a46.jpg"",""img/0903/8f7f9939-b8e6-433f-93dd-b362496c80a7.jpg""]","",""
"","5505","similarity","67","451336","0.0-6.0-61.0","7","[""img/0899/a05bea16-2bb4-4cb9-b8fb-4ff975db6971.jpg"",""img/0899/25ae6ec8-9565-49fe-a8bb-8d0666f52716.jpg""]","",""
"","4667","similarity","68","457009","0.0-6.0-62.0","7","[""img/0860/87039971-2210-4aab-93c0-8e9b5f1655b2.jpg"",""img/0875/fb732ab5-013a-4366-9f65-27811ed157e9.jpg""]","",""
"","3228","similarity","69","461248","0.0-6.0-63.0","1","[""img/0868/179a5502-ab5c-478e-8263-5a1fbcc101d2.jpg"",""img/0874/2c9464dd-8a23-4baa-ac94-1ba3af5c15cc.jpg""]","",""
"","4806","similarity","70","467063","0.0-6.0-64.0","3","[""img/0758/d41c06bf-ebaf-454b-91c6-1a17f917b659.jpg"",""img/0862/92f0146c-20c4-482e-aef5-adb693790338.jpg""]","",""
"","6140","similarity","71","474209","0.0-6.0-65.0","6","[""img/0904/da170c1b-9651-4f08-b231-2bdd1d9a046f.jpg"",""img/0898/661621d4-a14e-487c-8c74-354134a29710.jpg""]","",""
"","4987","similarity","72","480203","0.0-6.0-66.0","1","[""img/0881/f8bd891e-aa09-4782-89db-33e7cb2b0cf1.jpg"",""img/0866/6f2a90d7-14f1-4f1b-bd64-fc0af6b9fe44.jpg""]","",""
"","6392","similarity","73","487599","0.0-6.0-67.0","2","[""img/0867/f26f6b60-f772-4f4c-95a4-addc62cfd692.jpg"",""img/0898/0af304a2-6a7a-4082-ab7c-4450cd08cc58.jpg""]","",""
"","5504","similarity","74","494111","0.0-6.0-68.0","3","[""img/0902/94ee9c53-a9a2-4f95-b9b7-794a5fc62bb6.jpg"",""img/0764/713cc27e-2338-4486-bfe9-5f5725fbd7a0.jpg""]","",""
"","5138","similarity","75","500258","0.0-6.0-69.0","3","[""img/0875/a4935837-7d3c-4df6-88c1-36a94d4991ca.jpg"",""img/0867/f8159067-056c-41f1-a136-c529fe5e970a.jpg""]","",""
"","4826","similarity","76","506089","0.0-6.0-70.0","7","[""img/0766/5d6e0d1d-4369-41f0-a64c-91f3503055c7.jpg"",""img/0764/cffc80b0-4a90-4acb-a530-6f480f3ca303.jpg""]","",""
"","5189","similarity","77","512287","0.0-6.0-71.0","2","[""img/0894/a98416c0-51e2-4960-85da-d81d8688b9d5.jpg"",""img/0867/6e19c858-b606-45b2-a4c6-910a73f1d82c.jpg""]","",""
"","3873","similarity","78","517164","0.0-6.0-72.0","1","[""img/0875/99698b4d-b4a1-44bc-8c83-8ea755bbbf61.jpg"",""img/0764/c80b3e06-2ee3-4326-9678-340607eb5348.jpg""]","",""
"","5534","similarity","79","523709","0.0-6.0-73.0","7","[""img/0867/ac1797e4-8afc-48fe-b252-86d1defb1cca.jpg"",""img/0866/d266fece-59b3-46fa-b69f-96f6efb81b59.jpg""]","",""
"","3938","similarity","80","528654","0.0-6.0-74.0","1","[""img/0903/14f179a2-8786-48a2-8377-88d1d404341b.jpg"",""img/0758/61d64021-9214-4951-bdf8-f871f9827cf9.jpg""]","",""
"","4211","similarity","81","533874","0.0-6.0-75.0","1","[""img/0766/ea09dd5a-d24d-4e97-a099-7da3db1baef1.jpg"",""img/0868/1a62b2b2-18f5-466e-b564-5176a57c565e.jpg""]","",""
"","4584","similarity","82","539466","0.0-6.0-76.0","5","[""img/0874/bf14b896-e930-4fd9-9c05-2e83317a2773.jpg"",""img/0766/ba35c0fc-4d5b-490d-959e-c94b279cdd02.jpg""]","",""
"","4321","similarity","83","544793","0.0-6.0-77.0","1","[""img/0881/c24f3051-eefa-42de-aba6-fccb56d93c70.jpg"",""img/0868/4a8a45ed-2c4f-421b-9564-409a33ecd26c.jpg""]","",""
"","3861","similarity","84","549661","0.0-6.0-78.0","2","[""img/0758/6cd8c362-ae2a-41eb-80a3-3a4f7ace1530.jpg"",""img/0901/8bb79e82-9c43-4b6f-a655-40655519598b.jpg""]","",""
"","4281","similarity","85","554948","0.0-6.0-79.0","1","[""img/0881/6b1189e6-232d-4042-8885-16dc7b10e0d4.jpg"",""img/0898/881e2a85-d5c2-49be-a0c6-8a6ce2c4af08.jpg""]","",""
"","4486","similarity","86","560439","0.0-6.0-80.0","2","[""img/0867/85a96c62-548f-4994-9553-819e03c3135a.jpg"",""img/0758/3ddd05d3-557e-4ee7-8b78-9d2d681d8ae2.jpg""]","",""
"","5073","similarity","87","566518","0.0-6.0-81.0","6","[""img/0769/0fe124d3-bcad-45f6-b64d-8f6eb8ee5251.jpg"",""img/0899/06b0fc99-0581-461a-9913-d1a5a941ac61.jpg""]","",""
"","4848","similarity","88","572372","0.0-6.0-82.0","7","[""img/0903/8fcafe03-43df-4c45-9da5-0df3a1eeccc5.jpg"",""img/0903/97a42b34-5462-4665-88c7-83c014b33d24.jpg""]","",""
"","3602","similarity","89","586631","0.0-6.0-83.0","1","[""img/0867/c66898ba-b71b-4d50-84f9-f7f84853a98d.jpg"",""img/0766/a1ed3f0f-e338-4a26-8fe4-4370f0c9fa6e.jpg""]","",""
"","4852","similarity","90","592493","0.0-6.0-84.0","3","[""img/0902/962f645e-9b55-4628-9b50-c703422bfe1a.jpg"",""img/0867/f8488a47-94ee-4166-952c-44e16cf172f6.jpg""]","",""
"","3997","similarity","91","597500","0.0-6.0-85.0","2","[""img/0901/a373612d-67e2-4fec-9764-21d3d6ef6359.jpg"",""img/0875/3ecb367d-e9eb-4826-8aaa-7aa72fb98019.jpg""]","",""
"","3827","similarity","92","602334","0.0-6.0-86.0","2","[""img/0764/f9f890e6-3c2f-40cd-84e9-85e0b54cb28e.jpg"",""img/0866/a15b02be-11bb-43e3-b0e0-ecc3bd7dfc49.jpg""]","",""
"","3388","similarity","93","606731","0.0-6.0-87.0","4","[""img/0901/1b86f2fc-7a1d-4aa8-9252-114f92edef3b.jpg"",""img/0894/05161000-f476-499b-a878-c13c7f347fd9.jpg""]","",""
"","4421","similarity","94","612159","0.0-6.0-88.0","3","[""img/0898/08c72dac-f8ad-407a-9ce6-8c9a5d679c3a.jpg"",""img/0769/1d8734c4-77ab-4165-9e71-5cfe672ff01c.jpg""]","",""
"","4977","similarity","95","618141","0.0-6.0-89.0","6","[""img/0769/3c1203c5-2ce7-466e-957a-8d77b5905460.jpg"",""img/0894/6b2e9509-8699-42b7-9582-7741df0ba2d7.jpg""]","",""
"","4766","similarity","96","623915","0.0-6.0-90.0","5","[""img/0862/00c06b00-3b73-44e9-bc1e-c5aafb438321.jpg"",""img/0874/99f6563c-8a8d-4c1c-a41d-667b618c3fd5.jpg""]","",""
"","4074","similarity","97","629002","0.0-6.0-91.0","2","[""img/0894/43216a7f-27bc-4b5a-8841-d122a30da9d9.jpg"",""img/0766/51d3aab4-3d09-4dda-b99d-3dc7aaabc6f2.jpg""]","",""
"","3856","similarity","98","633870","0.0-6.0-92.0","1","[""img/0874/85eb9b8a-c4c6-4e5a-b8e7-363a87a82054.jpg"",""img/0867/1719a35d-f085-48c0-9099-16c94fe418b4.jpg""]","",""
"","4427","similarity","99","639304","0.0-6.0-93.0","2","[""img/0899/fef567a2-c121-4481-9af0-ff108d199bbf.jpg"",""img/0868/4bd5105a-d2c3-4f82-8c80-57196106ba53.jpg""]","",""
"","4023","similarity","100","644335","0.0-6.0-94.0","2","[""img/0903/4cbdc464-e562-4ec2-9bb6-15f894fdf528.jpg"",""img/0862/92fcd8a4-8193-4a6a-ae09-dd4a6338b0df.jpg""]","",""
"","4357","similarity","101","649700","0.0-6.0-95.0","6","[""img/0899/51a7a498-98c7-42d7-bca8-bc2d8f0b5831.jpg"",""img/0766/79767d11-b612-4e8a-9e4b-a8ac95bb6a54.jpg""]","",""
"","5305","similarity","102","656012","0.0-6.0-96.0","7","[""img/0867/075e0f95-856b-4cbb-acf5-092393aaf04e.jpg"",""img/0868/3a62db2d-97e9-44a3-b8e3-a48c6f0e423b.jpg""]","",""
"","4122","similarity","103","661140","0.0-6.0-97.0","4","[""img/0862/99a99e39-8355-44ec-b993-e7bcec111e1c.jpg"",""img/0901/a2d7b2f6-396b-4d91-8403-de5361c74af7.jpg""]","",""
"","3985","similarity","104","666133","0.0-6.0-98.0","2","[""img/0875/d59ff733-eaff-4ee2-9443-06954dd0bcb6.jpg"",""img/0766/717fd72f-a281-499b-a5ba-5e2ecc4d4866.jpg""]","",""
"","4184","similarity","105","671327","0.0-6.0-99.0","6","[""img/0758/e1ba5e53-addc-436a-b428-d34fc1b130dc.jpg"",""img/0874/767f289c-9814-4496-803f-745cc8913d1f.jpg""]","",""
"","3871","similarity","106","676203","0.0-6.0-100.0","3","[""img/0904/5cceabc9-de1d-4c67-989b-c28a4ef77e79.jpg"",""img/0868/4e626425-63c8-484a-8a1d-e66ee4e0bef8.jpg""]","",""
"","3847","similarity","107","681056","0.0-6.0-101.0","3","[""img/0903/6b5dcc60-3ad3-4962-93e5-e6cf768477af.jpg"",""img/0866/4a87911a-d5be-4d4e-ab8e-3d1f581bf507.jpg""]","",""
"","3859","similarity","108","685921","0.0-6.0-102.0","2","[""img/0868/7b212364-ff5f-4e28-9241-7eb6ea00161b.jpg"",""img/0769/1ca58b80-2365-446d-9616-6c1719e6c46f.jpg""]","",""
"","2764","similarity","109","689691","0.0-6.0-103.0","4","[""img/0902/8065aa6b-4aef-4368-afa2-02c6465ca582.jpg"",""img/0899/56a605c3-d0a2-4215-89e1-779279d85a7c.jpg""]","",""
"","4011","similarity","110","694711","0.0-6.0-104.0","2","[""img/0868/d98ca254-b195-477f-b57e-5760a2717db8.jpg"",""img/0862/53a9cf7c-93c4-41b9-952f-07d17f7a17b2.jpg""]","",""
"","4865","similarity","111","700585","0.0-6.0-105.0","4","[""img/0903/07b445ee-0cdb-4d2c-a23b-d727613f4059.jpg"",""img/0894/767a0eec-1064-46b1-b1aa-dfa02b0cd74e.jpg""]","",""
"","4252","similarity","112","705843","0.0-6.0-106.0","3","[""img/0864/e02eddb5-f468-499c-91bf-f7be3ffe979b.jpg"",""img/0874/29830da7-be5f-44e5-b141-652a0ccf7269.jpg""]","",""
"","6161","similarity","113","713010","0.0-6.0-107.0","2","[""img/0862/f43ceabf-acc1-4107-b857-5d1849808f93.jpg"",""img/0902/d5e25767-e8ec-45f3-ac0a-7b4a6f7a9edc.jpg""]","",""
"","6850","similarity","114","720872","0.0-6.0-108.0","6","[""img/0904/0d25eb24-bb20-4e8d-9787-8b489558b4cb.jpg"",""img/0903/d987e220-f3e6-4b6d-a270-fe6757041f6d.jpg""]","",""
"","5677","similarity","115","727556","0.0-6.0-109.0","6","[""img/0764/958b8576-3a3b-4acc-96dc-06b74de69f37.jpg"",""img/0864/49150900-7f25-4ce8-8d10-9b47a71d1997.jpg""]","",""
"","2883","similarity","116","731444","0.0-6.0-110.0","4","[""img/0866/8efcaa46-83ab-4dee-a35f-850402aa21ae.jpg"",""img/0894/5c7677b0-a4f1-479e-b274-7822c415175a.jpg""]","",""
"","4518","similarity","117","736970","0.0-6.0-111.0","5","[""img/0899/76ad07e2-ca25-45eb-84f2-8d80b8ca3e26.jpg"",""img/0903/81368973-de81-46f4-844f-b901f3bfd66d.jpg""]","",""
"","5351","similarity","118","743329","0.0-6.0-112.0","5","[""img/0902/51493fab-2a10-4385-aa88-bee3db441626.jpg"",""img/0904/9b3568cc-3cf7-42be-9df3-fdafde7a58b8.jpg""]","",""
"","4414","similarity","119","748747","0.0-6.0-113.0","3","[""img/0864/9b2490c5-a282-400a-9736-e1a0ecbf1cb7.jpg"",""img/0860/c3379ff7-0763-48fe-a1ec-7ea3d611bc7a.jpg""]","",""
"","5224","similarity","120","754980","0.0-6.0-114.0","6","[""img/0860/17b44a7d-c5ca-479f-9e87-f65a64f5c80e.jpg"",""img/0899/0adc0bc3-6fca-4078-be6f-d45ddf1653d5.jpg""]","",""
"","3441","similarity","121","759429","0.0-6.0-115.0","4","[""img/0881/f4e3e181-b3c9-4af2-a5a4-fc135ab70d2e.jpg"",""img/0903/39365c8e-a733-4801-ac7d-b87e38c3784b.jpg""]","",""
"","4411","similarity","122","764849","0.0-6.0-116.0","3","[""img/0894/661b9f9f-4bde-487a-b1ed-87085fde6948.jpg"",""img/0874/a3bc679d-619f-4db6-bb68-116dcb757d9c.jpg""]","",""
"","4147","similarity","123","770003","0.0-6.0-117.0","1","[""img/0881/54ea8e77-c7e5-4197-b7fa-00b7020849a7.jpg"",""img/0862/f188d4f0-76a4-4102-818c-a209969d73a5.jpg""]","",""
"","5870","similarity","124","776883","0.0-6.0-118.0","6","[""img/0868/e0aff734-077f-40dd-9781-74821abd3621.jpg"",""img/0875/90da8d75-108a-44ad-b999-e21fee3860d3.jpg""]","",""
"","4231","similarity","125","782121","0.0-6.0-119.0","1","[""img/0860/d9a0d117-6d1d-41c0-8fec-9aff0fd9e9f2.jpg"",""img/0758/20497cbe-ddae-489e-86e2-ab06985ed07c.jpg""]","",""
"","4732","similarity","126","787858","0.0-6.0-120.0","2","[""img/0864/e8bd659f-aa43-4748-877e-3118e8b4e189.jpg"",""img/0875/5a716432-c6ca-4b1c-955a-2b8ac25198ee.jpg""]","",""
"","5692","similarity","127","794560","0.0-6.0-121.0","2","[""img/0898/993d8f2d-bef7-4251-a193-0f93a32b7763.jpg"",""img/0866/93a27239-8317-4e08-98ca-d8b1ff298e07.jpg""]","",""
"","3577","similarity","128","799142","0.0-6.0-122.0","3","[""img/0874/93d1f8dc-acf2-4f03-bd8d-8ec35df276ed.jpg"",""img/0904/b5855d6a-7ef9-46ca-9215-6e9fa046e543.jpg""]","",""
"","4514","similarity","129","804663","0.0-6.0-123.0","1","[""img/0904/2fd488e9-960f-41f7-8a44-33375f7d5051.jpg"",""img/0864/ef9cbca0-4be8-435d-ad49-977259e80409.jpg""]","",""
"","4720","similarity","130","810393","0.0-6.0-124.0","2","[""img/0894/3664e04c-c6d3-4c9b-afb6-25d89974b174.jpg"",""img/0902/f3cfec34-482c-4bdb-9c92-19ea6cfce183.jpg""]","",""
"","3788","similarity","131","822489","0.0-6.0-125.0","1","[""img/0868/83b4350a-3b70-4cea-b7f5-b5b56f3050a8.jpg"",""img/0864/4bd81bc6-c13d-46df-95a9-485886dc7c1b.jpg""]","",""
"","3474","similarity","132","826977","0.0-6.0-126.0","3","[""img/0899/f95cbdb4-f804-4f5d-ad76-373ad343e658.jpg"",""img/0866/11a1d141-be5e-443c-98c1-a9d4d9e3dec0.jpg""]","",""
"","4470","similarity","133","832453","0.0-6.0-127.0","5","[""img/0875/5a1e5100-0d94-4fec-bbe9-ca9894d2cf8e.jpg"",""img/0904/4b8daf2a-13a9-4ea9-9e0b-b265b6e933e7.jpg""]","",""
"","3701","similarity","134","837164","0.0-6.0-128.0","3","[""img/0867/aa05d113-fc19-4756-a8eb-7878f580bc92.jpg"",""img/0899/d60714ae-98d7-4564-8c98-94dba1351135.jpg""]","",""
"","3953","similarity","135","842127","0.0-6.0-129.0","2","[""img/0901/ae1e6ce4-2e10-4ca9-b1e7-21628637ab74.jpg"",""img/0867/5e07b34d-b40f-4b1c-ac10-49975bace45f.jpg""]","",""
"","5250","similarity","136","848386","0.0-6.0-130.0","2","[""img/0864/300bb811-8b3c-4c42-8653-6097c3725197.jpg"",""img/0769/50985283-d353-4abc-9abe-14a91d56ebe6.jpg""]","",""
"","4073","similarity","137","853466","0.0-6.0-131.0","2","[""img/0903/b0a3c45f-467e-412f-a183-c9c1827f2e63.jpg"",""img/0868/09a9ef4d-d000-4cfa-a6aa-ebec7c2edeb4.jpg""]","",""
"","4089","similarity","138","858564","0.0-6.0-132.0","1","[""img/0864/e336a4c5-6648-4fd7-b2f6-93a3fb83f8c6.jpg"",""img/0867/26611f4e-d694-4460-b7e2-43c62753ddc3.jpg""]","",""
"","5209","similarity","139","864786","0.0-6.0-133.0","6","[""img/0901/77087ed2-6e12-4329-b2a5-605bca6d972d.jpg"",""img/0860/702bd09d-df3a-40aa-a267-5f04474305b5.jpg""]","",""
"","3369","similarity","140","869168","0.0-6.0-134.0","4","[""img/0881/62a64f90-7a72-4aee-a1a1-0c548ac9bdda.jpg"",""img/0766/aaec5f42-7f0a-4a16-aeca-488d757acbcc.jpg""]","",""
"","2713","similarity","141","872889","0.0-6.0-135.0","4","[""img/0903/36e4ab1f-caa9-40b3-8616-faada076df94.jpg"",""img/0864/5f33e097-23e3-4002-882d-76e8cb15f451.jpg""]","",""
"","4585","similarity","142","878481","0.0-6.0-136.0","2","[""img/0758/d57c2592-a317-4f63-91be-91a3a9afd222.jpg"",""img/0894/3adef67d-7676-4995-80b2-bb31b8aca3ef.jpg""]","",""
"","4291","similarity","143","883777","0.0-6.0-137.0","3","[""img/0769/04347740-f8f6-48bb-887a-f68babd0a0d4.jpg"",""img/0860/4f695df5-afac-4da7-9875-fee39b0b24ad.jpg""]","",""
"","5172","similarity","144","889958","0.0-6.0-138.0","3","[""img/0904/60d1a521-edf7-4696-9263-f21ac0e62a01.jpg"",""img/0766/5d1b8041-c5a1-4b02-b4fe-3453d98a0d72.jpg""]","",""
"","4274","similarity","145","895239","0.0-6.0-139.0","2","[""img/0868/c8ac40c7-6904-4e13-8d61-c75d3052dc4e.jpg"",""img/0860/61fb959d-d4d9-4de4-9e4e-4fa62b4cfcd5.jpg""]","",""
"","4196","similarity","146","900442","0.0-6.0-140.0","5","[""img/0758/caa93da2-9edf-49fa-96b9-32dedd8f5078.jpg"",""img/0864/afcba0a3-7e27-4757-b254-e9f05fad27e2.jpg""]","",""
"","4234","similarity","147","905685","0.0-6.0-141.0","7","[""img/0867/db7e032f-162b-46f5-ae67-2b29679adee4.jpg"",""img/0867/179ab87a-8eac-4c52-a41f-2e48e3120f09.jpg""]","",""
"","5380","similarity","148","912075","0.0-6.0-142.0","6","[""img/0898/a8f16b02-e19f-423b-86c3-a36562ae1f9b.jpg"",""img/0898/e167334e-cc1d-4986-b3b1-c7bc7da64baa.jpg""]","",""
"","4232","similarity","149","917314","0.0-6.0-143.0","3","[""img/0866/c446214b-a368-4c65-ae39-ea46894256ab.jpg"",""img/0769/48a1144d-fbda-4809-991b-fc8424a32ee4.jpg""]","",""
"","4950","similarity","150","923270","0.0-6.0-144.0","3","[""img/0860/e14d67c1-6d92-4f1e-9257-c8607159c19c.jpg"",""img/0898/68476bbb-34a1-42d9-8bc1-deab783d4489.jpg""]","",""
"","3349","similarity","151","927628","0.0-6.0-145.0","4","[""img/0766/fd064894-7147-4af5-97e9-2089d5472656.jpg"",""img/0864/1d15626a-2f7c-410f-819c-0fa2c967e95e.jpg""]","",""
"","4264","similarity","152","932902","0.0-6.0-146.0","6","[""img/0860/c47fdead-eb02-4989-b078-26f4852f44fe.jpg"",""img/0903/24477210-856c-4550-9de0-9f85a32762eb.jpg""]","",""
"","4308","similarity","153","938219","0.0-6.0-147.0","2","[""img/0867/cc72ed48-7704-422c-86d6-467a1145287a.jpg"",""img/0764/e42c1dc9-7831-4995-be19-7ca7b4d141fc.jpg""]","",""
"","4045","similarity","154","943275","0.0-6.0-148.0","2","[""img/0769/9ea27d61-3d55-418c-8d14-82e90f656f01.jpg"",""img/0904/06dacdc5-2206-4fb8-92b7-88042d22833c.jpg""]","",""
"","5010","similarity","155","949293","0.0-6.0-149.0","3","[""img/0764/c01e2d65-6586-441b-bef5-3c96fcd85380.jpg"",""img/0901/b13fa50f-dbe0-4d0f-8647-6ac0fd8f40bd.jpg""]","",""
"","6076","similarity","156","956378","0.0-6.0-150.0","7","[""img/0904/d23dd7be-7fe8-4435-82f7-bd592c01e6a1.jpg"",""img/0899/d8f2dd94-570e-4e8c-a087-d96090fb9e8c.jpg""]","",""
"","3910","similarity","157","961298","0.0-6.0-151.0","3","[""img/0862/1c20f772-3a51-4a80-aac0-f57dc9f86c28.jpg"",""img/0867/8ba0c5a7-c7e4-42cf-a80a-543763b90779.jpg""]","",""
"","5013","similarity","158","967319","0.0-6.0-152.0","7","[""img/0766/989c5c7f-1aff-4442-ac63-9d46acf4a891.jpg"",""img/0766/d8221e53-2300-4d99-ae1b-0bfb0eabe579.jpg""]","",""
"","4091","similarity","159","972415","0.0-6.0-153.0","4","[""img/0862/5d887e9f-89e2-4ebc-80a0-6d46fe6480db.jpg"",""img/0894/e2446cf5-cd48-486a-badc-76498e087fbe.jpg""]","",""
"","3973","similarity","160","977395","0.0-6.0-154.0","2","[""img/0899/9de5e857-aa9a-4e0c-8ba2-46d79bd069a4.jpg"",""img/0901/effc03f6-8f9d-46db-a66c-16fc83891c5c.jpg""]","",""
"","4361","similarity","161","982764","0.0-6.0-155.0","7","[""img/0874/995f0332-0439-4eb4-add3-957335dbf6d9.jpg"",""img/0874/1016b306-087c-4afc-aa08-fa527b28dc76.jpg""]","",""
"","6560","similarity","162","990332","0.0-6.0-156.0","2","[""img/0860/4a022222-056d-461c-ab02-39fac9647552.jpg"",""img/0867/12264664-1860-46df-8c21-162b9817cdda.jpg""]","",""
"","5173","similarity","163","996514","0.0-6.0-157.0","1","[""img/0901/d6d15b1c-4a30-4f74-a3fd-d4c8ee4169ca.jpg"",""img/0881/292e9b4b-fca0-4ba8-87f1-4048f9e37b7d.jpg""]","",""
"","4900","similarity","164","1002419","0.0-6.0-158.0","7","[""img/0903/b4a0f61e-a964-4b79-a9a7-f767a8f92f34.jpg"",""img/0902/82d20e8c-2162-47a6-925b-52906558c046.jpg""]","",""
"","4129","similarity","165","1007559","0.0-6.0-159.0","3","[""img/0860/71e1aad0-2cdf-43bb-94a4-a8c016997c30.jpg"",""img/0764/23ea9375-f801-4a96-9925-7d453da887c7.jpg""]","",""
"","4081","similarity","166","1012646","0.0-6.0-160.0","2","[""img/0902/31abfa33-7cdb-44ad-968e-9f7b324d577a.jpg"",""img/0875/5a7c4e35-6514-4e12-8879-d16071da4cd6.jpg""]","",""
"","4306","similarity","167","1017958","0.0-6.0-161.0","3","[""img/0898/b3290bf9-215b-4b45-b21a-65bdf73f142f.jpg"",""img/0862/ad593cc7-cabe-4bb7-8e14-8a447a0717b4.jpg""]","",""
"","3809","similarity","168","1022772","0.0-6.0-162.0","2","[""img/0894/1b3888e6-cf36-4c4a-a039-187aa5cb71ac.jpg"",""img/0875/e7e66b13-b573-431e-b85e-288ce04a35a3.jpg""]","",""
"","3910","similarity","169","1027690","0.0-6.0-163.0","1","[""img/0866/bf14b5bd-fb55-47db-86b9-4f8aeb9a6dad.jpg"",""img/0864/c3b63e8f-ea39-4d70-a1f2-b3fe4be8eb75.jpg""]","",""
"","3444","similarity","170","1032144","0.0-6.0-164.0","3","[""img/0766/d5d38751-8fa5-476f-93e9-86ed2d9045ef.jpg"",""img/0862/e8cc3bdf-cc43-4565-bccf-492626c70953.jpg""]","",""
"","3739","similarity","171","1036891","0.0-6.0-165.0","2","[""img/0866/23a224f3-2012-4fc8-8e0f-3c36f8de27fd.jpg"",""img/0874/a82926a3-0b43-4add-803c-d5f9ea7798ee.jpg""]","",""
"","2955","similarity","172","1040855","0.0-6.0-166.0","4","[""img/0862/a0a3a7ba-7798-46a3-b4ca-05e1f6e581d0.jpg"",""img/0860/e8b8c51e-1834-4875-8b61-6c5bc9b178bd.jpg""]","",""
"","4375","similarity","173","1052082","0.0-6.0-167.0","2","[""img/0766/535849cc-ff5d-4df9-8f31-0ce94a97d571.jpg"",""img/0901/7c16dd9c-44ad-4d5b-990c-6a0b9b48b1b1.jpg""]","",""
"","6026","similarity","174","1059115","0.0-6.0-168.0","7","[""img/0862/24cdc752-c2e5-4a17-86a6-6f2045d8553b.jpg"",""img/0862/cdaed51d-9e2f-4807-801a-4663c40077e2.jpg""]","",""
"","4030","similarity","175","1064153","0.0-6.0-169.0","4","[""img/0894/e6385e52-6c35-43bd-b0af-bc803d107b11.jpg"",""img/0764/8740679b-b56f-4292-aece-14063457113a.jpg""]","",""
"","4371","similarity","176","1069532","0.0-6.0-170.0","2","[""img/0874/3ce41e7c-40c8-4d58-a546-171114521796.jpg"",""img/0898/c3cecf20-f7fd-45fa-97d0-dc0a63e8d6c0.jpg""]","",""
"","4487","similarity","177","1075027","0.0-6.0-171.0","2","[""img/0860/4c530c3c-6aab-492a-94d1-9c01797bde40.jpg"",""img/0766/a0270213-fa0e-4972-8b56-228c3e01ff90.jpg""]","",""
"","4070","similarity","178","1080106","0.0-6.0-172.0","3","[""img/0898/04e39a7a-fcf6-4156-ab0e-f5871f335e1c.jpg"",""img/0864/6f631579-acf1-415c-a42c-1207f62a8d99.jpg""]","",""
"","4929","similarity","179","1086043","0.0-6.0-173.0","5","[""img/0881/4bd34581-94d8-4e88-8c89-5cef864ca3be.jpg"",""img/0764/b328441c-f81c-486c-9eae-b947c70ba7cd.jpg""]","",""
"","2599","similarity","180","1089646","0.0-6.0-174.0","4","[""img/0898/ec565187-2e31-4fdd-9a5c-153d0c789ae0.jpg"",""img/0868/5fa7f9d0-f0e5-454c-8224-74d964818f56.jpg""]","",""
"","4051","similarity","181","1094702","0.0-6.0-175.0","7","[""img/0864/efcfbb1b-8197-44c9-b723-40d6c608dd3c.jpg"",""img/0864/66091c27-e588-4476-8af9-265dc6be4156.jpg""]","",""
"","4281","similarity","182","1099991","0.0-6.0-176.0","6","[""img/0899/66bf4113-ee12-426c-84d2-ea410b6c803e.jpg"",""img/0862/fb26cb07-d5a9-4653-813c-f41609f26cd5.jpg""]","",""
"","4740","similarity","183","1105738","0.0-6.0-177.0","3","[""img/0875/cff79b3a-a797-4393-9757-6275f999ec04.jpg"",""img/0758/821c68d3-5cb0-4eae-8659-30e6263fca39.jpg""]","",""
"","4019","similarity","184","1110764","0.0-6.0-178.0","2","[""img/0866/f756f7d1-9ad8-4a34-9ef6-7a443d705bfe.jpg"",""img/0901/bc47e078-bda4-40ed-b89a-bbd819164b95.jpg""]","",""
"","4241","similarity","185","1116014","0.0-6.0-179.0","2","[""img/0769/bb8c4e53-6f32-4814-97ee-392d4decfb2e.jpg"",""img/0874/eba003b4-cdab-4eee-8bc3-f064c7d94165.jpg""]","",""
"","4305","similarity","186","1121325","0.0-6.0-180.0","3","[""img/0875/42910c99-5463-450a-a0f8-d4d060a11455.jpg"",""img/0881/7e31e5dc-2240-4b1b-b5a0-3acd980099ef.jpg""]","",""
"","4063","similarity","187","1126395","0.0-6.0-181.0","6","[""img/0866/d493a2c8-66eb-44b4-be02-2f327b700b7c.jpg"",""img/0868/6a28c3b0-3d76-498a-9fb7-ddafc665eca8.jpg""]","",""
"","5560","similarity","188","1132963","0.0-6.0-182.0","5","[""img/0899/ddf96ade-692e-4602-bd22-dedbb46401bc.jpg"",""img/0758/7fba58df-2a7a-4b76-8a8f-62739f97f271.jpg""]","",""
"","3241","similarity","189","1137211","0.0-6.0-183.0","3","[""img/0874/ca23d307-fc00-4d7d-9106-584c6eb21b4d.jpg"",""img/0875/8521fd58-3b1e-4dc5-97ae-804edfa6734a.jpg""]","",""
"","4140","similarity","190","1142358","0.0-6.0-184.0","5","[""img/0904/ba8e689e-9ca6-4608-a2a1-3b0940666ae6.jpg"",""img/0862/7918ca67-5bd3-4606-a5ea-c39fb11a9297.jpg""]","",""
"","4987","similarity","191","1148351","0.0-6.0-185.0","6","[""img/0902/a6fb6dd5-696c-47ec-be7d-d7b88f1544f1.jpg"",""img/0766/f011ef45-fb48-44b8-8224-867ed2ccf786.jpg""]","",""
"","4801","similarity","192","1154158","0.0-6.0-186.0","4","[""img/0758/65d426d6-3ff6-415d-8654-a43b83ecc4fe.jpg"",""img/0769/7c50e5f5-cc38-4d48-b009-fbe17bcea61c.jpg""]","",""
"","4096","similarity","193","1159262","0.0-6.0-187.0","7","[""img/0881/f7a8cc63-8842-40a4-9ff8-fe530310d62c.jpg"",""img/0881/4da99fdd-1f40-4bbb-8e21-8833eef313f5.jpg""]","",""
"","2939","similarity","194","1163209","0.0-6.0-188.0","4","[""img/0758/7ffbc76b-1fc1-432c-8f7e-9ec8d1b3f643.jpg"",""img/0866/02f5e6b9-52b7-448c-9708-5b460d0c9a23.jpg""]","",""
"","4421","similarity","195","1168638","0.0-6.0-189.0","5","[""img/0764/438c0217-036f-43c9-9b87-f43144e46011.jpg"",""img/0898/26c41340-15bd-4ead-8fe4-c0d0ddca09c2.jpg""]","",""
"","5006","similarity","196","1174649","0.0-6.0-190.0","3","[""img/0903/776b74ee-a8ab-4ab8-a78d-097c0747538d.jpg"",""img/0901/da4fe30f-d12a-491e-96a2-5ab8ebaadd09.jpg""]","",""
"","3414","similarity","197","1179073","0.0-6.0-191.0","4","[""img/0902/cdec1bc6-7f90-4f72-9e01-f5a4111bac1d.jpg"",""img/0898/01bfe666-3510-4fc7-964f-d00d28732dc8.jpg""]","",""
"","3695","similarity","198","1183776","0.0-6.0-192.0","3","[""img/0864/8ddd2e30-a1d0-479f-9cbe-591213023893.jpg"",""img/0901/693e0535-ef7e-4d60-af9d-fac2f38e8307.jpg""]","",""
"","4187","similarity","199","1188971","0.0-6.0-193.0","3","[""img/0894/8cadb87a-7001-4e47-99fb-1867bebf1668.jpg"",""img/0881/0c7068da-d0d9-4103-bda1-74ef7a2b32c3.jpg""]","",""
"","5316","similarity","200","1195298","0.0-6.0-194.0","7","[""img/0868/15dd6fd7-791e-4b53-b203-195d617521a4.jpg"",""img/0868/d6d1f30d-4323-435a-b194-7892521bc57e.jpg""]","",""
"","3814","similarity","201","1200120","0.0-6.0-195.0","4","[""img/0899/57476fed-5962-4272-8fc9-b317bb777b54.jpg"",""img/0764/17b088f8-3053-4140-b544-d15654cc79ef.jpg""]","",""
"","4005","similarity","202","1205132","0.0-6.0-196.0","3","[""img/0881/dea58fad-b4f1-41d9-bd3f-916eff19a3fd.jpg"",""img/0904/24fc38fe-842c-4831-ad8a-b1de5c25c0a8.jpg""]","",""
"","4902","similarity","203","1211040","0.0-6.0-197.0","5","[""img/0864/1ebbc554-99fa-49f9-8799-317375a79820.jpg"",""img/0902/62f11694-7ed7-4cb7-8a73-9e95c43824e7.jpg""]","",""
"","5330","similarity","204","1217379","0.0-6.0-198.0","5","[""img/0894/5f15154e-e72e-4ce5-aafb-bce6f0564006.jpg"",""img/0904/e9423a8c-f946-43ad-ab7b-931acef870e2.jpg""]","",""
"","4639","similarity","205","1223024","0.0-6.0-199.0","6","[""img/0901/875dedb9-24c9-4443-9f8c-85e97d70ee5a.jpg"",""img/0901/b9141736-3041-4385-a586-b1fe911c76a5.jpg""]","",""
"","4839","similarity","206","1228869","0.0-6.0-200.0","3","[""img/0894/b2d2f66e-e480-46da-a02a-6d0c6b285d78.jpg"",""img/0860/15b24a61-25be-4356-9eac-5ce95d0cb4a4.jpg""]","",""
"","4740","similarity","207","1234614","0.0-6.0-201.0","6","[""img/0898/81b08535-2020-4c15-9ce4-2f1e460755ae.jpg"",""img/0903/6f343da5-00d9-4d50-89d1-2ed24cdb8319.jpg""]","",""
"","3045","similarity","208","1238666","0.0-6.0-202.0","4","[""img/0864/5f74a653-3bdc-4308-8cca-ac667dc22e1f.jpg"",""img/0894/e5edf723-72a5-4673-8441-6c1734a8929b.jpg""]","",""
"","5660","similarity","209","1245333","0.0-6.0-203.0","6","[""img/0874/31e22c7c-99aa-40b1-bf03-dd73fa2df4d6.jpg"",""img/0860/b03b963d-949b-4d8d-b19c-4950c89eeca2.jpg""]","",""
"","4424","similarity","210","1250767","0.0-6.0-204.0","4","[""img/0862/847e5208-38ec-4f36-949c-296cdd7424ee.jpg"",""img/0875/03c3c331-738b-4446-af92-3d7386b08c2e.jpg""]","",""
"","4051","similarity","211","1255824","0.0-6.0-205.0","3","[""img/0867/7d1c497b-c1b3-4ed8-abb5-d7f73306015f.jpg"",""img/0881/e6746727-7f89-47ec-b939-d98abe78372d.jpg""]","",""
"","3710","similarity","212","1260543","0.0-6.0-206.0","4","[""img/0901/4ca4f962-40c0-4c59-b14a-3cd7b8c9029b.jpg"",""img/0902/a323b62d-2fd5-4ac8-acc6-35b768f3c3f2.jpg""]","",""
"","4545","similarity","213","1266092","0.0-6.0-207.0","3","[""img/0899/565ccdd9-0933-4536-a625-3c0e25a713dd.jpg"",""img/0864/0f537697-a314-47c3-a8cc-8df23b7e536c.jpg""]","",""
"","5601","similarity","214","1272703","0.0-6.0-208.0","3","[""img/0901/c6df1a21-44ed-47c2-960e-7c52220e329e.jpg"",""img/0769/3c1efec9-f8fd-487d-8955-4be88e48c832.jpg""]","",""
"","5281","similarity","215","1292420","0.0-6.0-209.0","7","[""img/0902/24d10fe7-314f-4d5a-8c7b-b43121bba0a4.jpg"",""img/0902/4e0baa32-988e-46f6-989d-f669225ab645.jpg""]","",""
"[{""page_index"":0,""viewing_time"":7259}]","7261","instructions","216","1300683","0.0-7.0","","","",""
"","38086","image-multi-choice","217","1339823","0.0-8.0-0.0","","","{""Q0"":""Nashville Warbler""}","Nashville Warbler"
"","11269","image-multi-choice","218","1352107","0.0-8.0-1.0","","","{""Q0"":""Black-and-white Warbler""}","Black-and-white Warbler"
"","17682","image-multi-choice","219","1370805","0.0-8.0-2.0","","","{""Q0"":""Magnolia Warbler""}","Townsend's Warbler"
"","24087","image-multi-choice","220","1395907","0.0-8.0-3.0","","","{""Q0"":""Fox Sparrow""}","Lark Sparrow"
"","6138","image-multi-choice","221","1403060","0.0-8.0-4.0","","","{""Q0"":""Yellow Warbler""}","Yellow Warbler"
"","13192","image-multi-choice","222","1417265","0.0-8.0-5.0","","","{""Q0"":""Orange-crowned Warbler""}","Orange-crowned Warbler"
"","5502","image-multi-choice","223","1423786","0.0-8.0-6.0","","","{""Q0"":""White-throated Sparrow""}","White-throated Sparrow"
"","11927","image-multi-choice","224","1436727","0.0-8.0-7.0","","","{""Q0"":""Ovenbird""}","Fox Sparrow"
"","19478","image-multi-choice","225","1457222","0.0-8.0-8.0","","","{""Q0"":""Vesper Sparrow""}","Song Sparrow"
"","19611","image-multi-choice","226","1477849","0.0-8.0-9.0","","","{""Q0"":""Townsend's Warbler""}","Blackburnian Warbler"
"","10280","image-multi-choice","227","1489142","0.0-8.0-10.0","","","{""Q0"":""Lark Sparrow""}","Vesper Sparrow"
"","4120","image-multi-choice","228","1494280","0.0-8.0-11.0","","","{""Q0"":""White-crowned Sparrow""}","White-crowned Sparrow"
"","19174","image-multi-choice","229","1514470","0.0-8.0-12.0","","","{""Q0"":""Chipping Sparrow""}","American Tree Sparrow"
"","12482","image-multi-choice","230","1527972","0.0-8.0-13.0","","","{""Q0"":""Tennessee Warbler""}","Tennessee Warbler"
"","6820","image-multi-choice","231","1535811","0.0-8.0-14.0","","","{""Q0"":""Black-and-white Warbler""}","Magnolia Warbler"
"","6599","image-multi-choice","232","1543426","0.0-8.0-15.0","","","{""Q0"":""Northern Waterthrush""}","Northern Waterthrush"
"","18546","image-multi-choice","233","1562992","0.0-8.0-16.0","","","{""Q0"":""Swamp Sparrow""}","Chipping Sparrow"
"","10042","image-multi-choice","234","1574050","0.0-8.0-17.0","","","{""Q0"":""Chipping Sparrow""}","Swamp Sparrow"
"","10721","image-multi-choice","235","1585785","0.0-8.0-18.0","","","{""Q0"":""American Tree Sparrow""}","Lincoln's Sparrow"
"","5337","image-multi-choice","236","1592136","0.0-8.0-19.0","","","{""Q0"":""Ovenbird""}","Ovenbird"
