[{"view_history":"[{\"page_index\":0,\"viewing_time\":17841}]","rt":17845,"trial_type":"instructions","trial_index":0,"time_elapsed":17849,"internal_node_id":"0.0-0.0"},{"sim_score":4,"rt":9163,"stimulus":"[\"img/866.jpg\",\"img/868.jpg\"]","trial_type":"similarity_demo","trial_index":1,"time_elapsed":28059,"internal_node_id":"0.0-1.0"},{"view_history":"[{\"page_index\":0,\"viewing_time\":9660}]","rt":9670,"trial_type":"instructions","trial_index":2,"time_elapsed":38732,"internal_node_id":"0.0-2.0"},{"sim_score":2,"rt":6382,"stimulus":"[\"img/766.jpg\",\"img/867.jpg\"]","trial_type":"similarity_demo","trial_index":3,"time_elapsed":46147,"internal_node_id":"0.0-3.0"},{"view_history":"[{\"page_index\":0,\"viewing_time\":4189}]","rt":4191,"trial_type":"instructions","trial_index":4,"time_elapsed":51412,"internal_node_id":"0.0-4.0"},{"view_history":"[{\"page_index\":0,\"viewing_time\":5142}]","rt":5143,"trial_type":"instructions","trial_index":5,"time_elapsed":57558,"internal_node_id":"0.0-5.0"},{"sim_score":2,"rt":4037,"stimulus":"[\"img/0868/4a8a45ed-2c4f-421b-9564-409a33ecd26c.jpg\",\"img/0901/a6c90438-fa7c-4418-ac7c-16c2e772dd98.jpg\"]","trial_type":"similarity","trial_index":6,"time_elapsed":62600,"internal_node_id":"0.0-6.0-0.0"},{"sim_score":2,"rt":5133,"stimulus":"[\"img/0769/35364db7-e0d5-40ef-93dc-faf9dfb95136.jpg\",\"img/0867/7d1c497b-c1b3-4ed8-abb5-d7f73306015f.jpg\"]","trial_type":"similarity","trial_index":7,"time_elapsed":68743,"internal_node_id":"0.0-6.0-1.0"},{"sim_score":3,"rt":3487,"stimulus":"[\"img/0766/6d32752d-aa05-40dc-9541-640b6e9d6fa1.jpg\",\"img/0898/b3290bf9-215b-4b45-b21a-65bdf73f142f.jpg\"]","trial_type":"similarity","trial_index":8,"time_elapsed":73249,"internal_node_id":"0.0-6.0-2.0"},{"sim_score":2,"rt":4933,"stimulus":"[\"img/0902/b03fee99-d5ca-4bf8-871c-a4a743a39842.jpg\",\"img/0881/84397291-bc14-4fbf-90e8-241e486ab0fe.jpg\"]","trial_type":"similarity","trial_index":9,"time_elapsed":79218,"internal_node_id":"0.0-6.0-3.0"},{"sim_score":6,"rt":5332,"stimulus":"[\"img/0894/792c83e9-a747-4000-bc72-5663d2439edb.jpg\",\"img/0894/05161000-f476-499b-a878-c13c7f347fd9.jpg\"]","trial_type":"similarity","trial_index":10,"time_elapsed":85579,"internal_node_id":"0.0-6.0-4.0"},{"sim_score":2,"rt":3782,"stimulus":"[\"img/0874/eba003b4-cdab-4eee-8bc3-f064c7d94165.jpg\",\"img/0899/76ad07e2-ca25-45eb-84f2-8d80b8ca3e26.jpg\"]","trial_type":"similarity","trial_index":11,"time_elapsed":90375,"internal_node_id":"0.0-6.0-5.0"},{"sim_score":6,"rt":6139,"stimulus":"[\"img/0904/da170c1b-9651-4f08-b231-2bdd1d9a046f.jpg\",\"img/0764/d7c215ab-ea9a-45be-8d5f-417d5b9a8a17.jpg\"]","trial_type":"similarity","trial_index":12,"time_elapsed":97701,"internal_node_id":"0.0-6.0-6.0"},{"sim_score":4,"rt":4502,"stimulus":"[\"img/0899/8abe6c69-822c-436c-9bf2-96c818b49ba5.jpg\",\"img/0898/224c1572-56b9-4f16-a9e4-6f3bc9c114bd.jpg\"]","trial_type":"similarity","trial_index":13,"time_elapsed":103226,"internal_node_id":"0.0-6.0-7.0"},{"sim_score":2,"rt":4245,"stimulus":"[\"img/0874/31e22c7c-99aa-40b1-bf03-dd73fa2df4d6.jpg\",\"img/0903/36e4ab1f-caa9-40b3-8616-faada076df94.jpg\"]","trial_type":"similarity","trial_index":14,"time_elapsed":108483,"internal_node_id":"0.0-6.0-8.0"},{"sim_score":5,"rt":4191,"stimulus":"[\"img/0881/33d65d80-8a8e-4ecf-852d-0ad7725c17a2.jpg\",\"img/0758/6cd8c362-ae2a-41eb-80a3-3a4f7ace1530.jpg\"]","trial_type":"similarity","trial_index":15,"time_elapsed":113721,"internal_node_id":"0.0-6.0-9.0"},{"sim_score":3,"rt":4509,"stimulus":"[\"img/0898/79233891-305a-4a6a-8ddf-5c8604858203.jpg\",\"img/0901/5657dd86-0ff9-4753-ba2b-9dfb223e5c89.jpg\"]","trial_type":"similarity","trial_index":16,"time_elapsed":119247,"internal_node_id":"0.0-6.0-10.0"},{"sim_score":3,"rt":4517,"stimulus":"[\"img/0903/0a92ec52-4e87-410a-857a-4455cde56a70.jpg\",\"img/0769/96556ef3-7fac-4c9d-8281-1cb0ea5081bc.jpg\"]","trial_type":"similarity","trial_index":17,"time_elapsed":124769,"internal_node_id":"0.0-6.0-11.0"},{"sim_score":2,"rt":3279,"stimulus":"[\"img/0764/713cc27e-2338-4486-bfe9-5f5725fbd7a0.jpg\",\"img/0868/3a62db2d-97e9-44a3-b8e3-a48c6f0e423b.jpg\"]","trial_type":"similarity","trial_index":18,"time_elapsed":129069,"internal_node_id":"0.0-6.0-12.0"},{"sim_score":2,"rt":4052,"stimulus":"[\"img/0867/26611f4e-d694-4460-b7e2-43c62753ddc3.jpg\",\"img/0903/ea75f240-fb62-4edb-a709-83e858b202c0.jpg\"]","trial_type":"similarity","trial_index":19,"time_elapsed":134133,"internal_node_id":"0.0-6.0-13.0"},{"sim_score":2,"rt":4005,"stimulus":"[\"img/0766/f3276cc4-65de-4c2d-88d5-6cfebce14b8f.jpg\",\"img/0758/7fba58df-2a7a-4b76-8a8f-62739f97f271.jpg\"]","trial_type":"similarity","trial_index":20,"time_elapsed":139226,"internal_node_id":"0.0-6.0-14.0"},{"sim_score":2,"rt":3487,"stimulus":"[\"img/0902/8af4182a-9af9-4212-a436-9195555112d6.jpg\",\"img/0860/524b2e98-5767-4d53-942c-ebae6925659b.jpg\"]","trial_type":"similarity","trial_index":21,"time_elapsed":143724,"internal_node_id":"0.0-6.0-15.0"},{"sim_score":2,"rt":3072,"stimulus":"[\"img/0769/4a1d0b52-3fe8-40fb-bb1c-c814fe49a68c.jpg\",\"img/0875/8521fd58-3b1e-4dc5-97ae-804edfa6734a.jpg\"]","trial_type":"similarity","trial_index":22,"time_elapsed":147806,"internal_node_id":"0.0-6.0-16.0"},{"sim_score":2,"rt":3540,"stimulus":"[\"img/0904/a8c3c7d2-9bcf-4347-9e03-8203adfc1fc5.jpg\",\"img/0866/8efcaa46-83ab-4dee-a35f-850402aa21ae.jpg\"]","trial_type":"similarity","trial_index":23,"time_elapsed":152359,"internal_node_id":"0.0-6.0-17.0"},{"sim_score":6,"rt":4067,"stimulus":"[\"img/0875/dbdd643e-6d0e-4a5c-ab57-b9c29b9c981a.jpg\",\"img/0875/e7e66b13-b573-431e-b85e-288ce04a35a3.jpg\"]","trial_type":"similarity","trial_index":24,"time_elapsed":157442,"internal_node_id":"0.0-6.0-18.0"},{"sim_score":6,"rt":5768,"stimulus":"[\"img/0758/6e95579b-5166-487c-b8cb-e417c6a218e3.jpg\",\"img/0758/d41c06bf-ebaf-454b-91c6-1a17f917b659.jpg\"]","trial_type":"similarity","trial_index":25,"time_elapsed":164219,"internal_node_id":"0.0-6.0-19.0"},{"sim_score":3,"rt":5952,"stimulus":"[\"img/0902/7f1dcd35-237a-4995-9e42-7f63f3f434d4.jpg\",\"img/0874/29830da7-be5f-44e5-b141-652a0ccf7269.jpg\"]","trial_type":"similarity","trial_index":26,"time_elapsed":171183,"internal_node_id":"0.0-6.0-20.0"},{"sim_score":3,"rt":3892,"stimulus":"[\"img/0764/8389e74f-e0e0-435d-945f-da1f4c92ccb6.jpg\",\"img/0769/75f7e514-0548-4329-b1e4-93c05e74f038.jpg\"]","trial_type":"similarity","trial_index":27,"time_elapsed":176102,"internal_node_id":"0.0-6.0-21.0"},{"sim_score":2,"rt":3184,"stimulus":"[\"img/0901/3db47171-0139-4235-82cd-0b1787b6775f.jpg\",\"img/0874/3ce41e7c-40c8-4d58-a546-171114521796.jpg\"]","trial_type":"similarity","trial_index":28,"time_elapsed":180316,"internal_node_id":"0.0-6.0-22.0"},{"sim_score":2,"rt":3539,"stimulus":"[\"img/0875/a4935837-7d3c-4df6-88c1-36a94d4991ca.jpg\",\"img/0903/8f7f9939-b8e6-433f-93dd-b362496c80a7.jpg\"]","trial_type":"similarity","trial_index":29,"time_elapsed":184880,"internal_node_id":"0.0-6.0-23.0"},{"sim_score":2,"rt":3809,"stimulus":"[\"img/0769/11518cb3-13ea-4dd0-890c-30cfab728ade.jpg\",\"img/0881/f7a8cc63-8842-40a4-9ff8-fe530310d62c.jpg\"]","trial_type":"similarity","trial_index":30,"time_elapsed":189717,"internal_node_id":"0.0-6.0-24.0"},{"sim_score":2,"rt":5501,"stimulus":"[\"img/0867/6e19c858-b606-45b2-a4c6-910a73f1d82c.jpg\",\"img/0904/6291eb43-c10c-4810-a36a-101d09868b04.jpg\"]","trial_type":"similarity","trial_index":31,"time_elapsed":196245,"internal_node_id":"0.0-6.0-25.0"},{"sim_score":4,"rt":4330,"stimulus":"[\"img/0860/18dfed73-e36b-4487-a8bd-0b8cff8e3668.jpg\",\"img/0881/ed4c971f-0873-4fc8-b6d6-e8bbd82f0bcc.jpg\"]","trial_type":"similarity","trial_index":32,"time_elapsed":201643,"internal_node_id":"0.0-6.0-26.0"},{"sim_score":4,"rt":4761,"stimulus":"[\"img/0866/be24ab58-230e-4db8-9f45-ff04c9aec6bb.jpg\",\"img/0866/d266fece-59b3-46fa-b69f-96f6efb81b59.jpg\"]","trial_type":"similarity","trial_index":33,"time_elapsed":207422,"internal_node_id":"0.0-6.0-27.0"},{"sim_score":2,"rt":4031,"stimulus":"[\"img/0764/4eff630a-6426-4f8d-b2ba-b4d9842a0962.jpg\",\"img/0862/92f0146c-20c4-482e-aef5-adb693790338.jpg\"]","trial_type":"similarity","trial_index":34,"time_elapsed":212463,"internal_node_id":"0.0-6.0-28.0"},{"sim_score":2,"rt":3493,"stimulus":"[\"img/0904/2c98dc56-88d1-4fb5-a999-b6a7861f65f0.jpg\",\"img/0758/2fa3e613-e676-4e6e-bd12-705327eeb3e1.jpg\"]","trial_type":"similarity","trial_index":35,"time_elapsed":217010,"internal_node_id":"0.0-6.0-29.0"},{"sim_score":3,"rt":5480,"stimulus":"[\"img/0894/492d2f29-d7b9-4422-8be8-47fd58bfaa8b.jpg\",\"img/0899/7f9d45d0-b2c6-40d3-aa41-c207db2c411b.jpg\"]","trial_type":"similarity","trial_index":36,"time_elapsed":223505,"internal_node_id":"0.0-6.0-30.0"},{"sim_score":2,"rt":3723,"stimulus":"[\"img/0860/8a92e21b-6a32-4e4a-a445-2d5a487ed0a4.jpg\",\"img/0904/73920552-103b-4c9c-9ece-e0b8376b4504.jpg\"]","trial_type":"similarity","trial_index":37,"time_elapsed":228322,"internal_node_id":"0.0-6.0-31.0"},{"sim_score":5,"rt":4395,"stimulus":"[\"img/0874/a82926a3-0b43-4add-803c-d5f9ea7798ee.jpg\",\"img/0881/7e31e5dc-2240-4b1b-b5a0-3acd980099ef.jpg\"]","trial_type":"similarity","trial_index":38,"time_elapsed":233735,"internal_node_id":"0.0-6.0-32.0"},{"sim_score":2,"rt":3379,"stimulus":"[\"img/0881/44e09805-5a25-4f17-a716-4ad4a331b174.jpg\",\"img/0899/25ae6ec8-9565-49fe-a8bb-8d0666f52716.jpg\"]","trial_type":"similarity","trial_index":39,"time_elapsed":238146,"internal_node_id":"0.0-6.0-33.0"},{"sim_score":3,"rt":5503,"stimulus":"[\"img/0866/a15b02be-11bb-43e3-b0e0-ecc3bd7dfc49.jpg\",\"img/0862/53a9cf7c-93c4-41b9-952f-07d17f7a17b2.jpg\"]","trial_type":"similarity","trial_index":40,"time_elapsed":244683,"internal_node_id":"0.0-6.0-34.0"},{"sim_score":2,"rt":3538,"stimulus":"[\"img/0868/293079b8-7e0c-4afd-a390-1e5d35fe3ded.jpg\",\"img/0894/5a49e858-2850-4892-9a06-e9f0efb5f94d.jpg\"]","trial_type":"similarity","trial_index":41,"time_elapsed":249253,"internal_node_id":"0.0-6.0-35.0"},{"sim_score":6,"rt":4492,"stimulus":"[\"img/0860/c47fdead-eb02-4989-b078-26f4852f44fe.jpg\",\"img/0860/87039971-2210-4aab-93c0-8e9b5f1655b2.jpg\"]","trial_type":"similarity","trial_index":42,"time_elapsed":254761,"internal_node_id":"0.0-6.0-36.0"},{"sim_score":5,"rt":4368,"stimulus":"[\"img/0862/de9ad88c-b522-430a-8ee9-eb06a9f85df5.jpg\",\"img/0864/9b2490c5-a282-400a-9736-e1a0ecbf1cb7.jpg\"]","trial_type":"similarity","trial_index":43,"time_elapsed":260222,"internal_node_id":"0.0-6.0-37.0"},{"sim_score":2,"rt":3476,"stimulus":"[\"img/0766/0b48f9e0-7d37-4161-8adb-4e3f5b6b7583.jpg\",\"img/0866/9b38d691-1802-4959-ab3f-fc902f0e4ea6.jpg\"]","trial_type":"similarity","trial_index":44,"time_elapsed":264716,"internal_node_id":"0.0-6.0-38.0"},{"sim_score":2,"rt":2934,"stimulus":"[\"img/0875/42910c99-5463-450a-a0f8-d4d060a11455.jpg\",\"img/0898/82231d4c-218b-4d0a-b50d-35a49b524e97.jpg\"]","trial_type":"similarity","trial_index":45,"time_elapsed":268661,"internal_node_id":"0.0-6.0-39.0"},{"sim_score":5,"rt":4050,"stimulus":"[\"img/0766/006035d8-c736-4daf-bbe4-a9e373af9da6.jpg\",\"img/0769/662ab839-88d1-4ebf-af05-9b2980cad943.jpg\"]","trial_type":"similarity","trial_index":46,"time_elapsed":273749,"internal_node_id":"0.0-6.0-40.0"},{"sim_score":2,"rt":3575,"stimulus":"[\"img/0874/995f0332-0439-4eb4-add3-957335dbf6d9.jpg\",\"img/0764/f2f23359-8e82-41d3-8900-5b9f4433991d.jpg\"]","trial_type":"similarity","trial_index":47,"time_elapsed":294037,"internal_node_id":"0.0-6.0-41.0"},{"sim_score":2,"rt":4502,"stimulus":"[\"img/0868/09a9ef4d-d000-4cfa-a6aa-ebec7c2edeb4.jpg\",\"img/0902/2a7ac123-414a-476a-9a96-4757b924baef.jpg\"]","trial_type":"similarity","trial_index":48,"time_elapsed":299624,"internal_node_id":"0.0-6.0-42.0"},{"sim_score":2,"rt":3641,"stimulus":"[\"img/0875/d59ff733-eaff-4ee2-9443-06954dd0bcb6.jpg\",\"img/0899/51a7a498-98c7-42d7-bca8-bc2d8f0b5831.jpg\"]","trial_type":"similarity","trial_index":49,"time_elapsed":304328,"internal_node_id":"0.0-6.0-43.0"},{"sim_score":3,"rt":3598,"stimulus":"[\"img/0866/0207e9a2-7dbb-40b5-9459-b472aaeceb2a.jpg\",\"img/0860/fd4662f9-4c03-4d79-8593-06735e55a64b.jpg\"]","trial_type":"similarity","trial_index":50,"time_elapsed":308940,"internal_node_id":"0.0-6.0-44.0"},{"sim_score":5,"rt":4452,"stimulus":"[\"img/0766/dd3e18d0-0c98-4d05-b850-69976ee8cd75.jpg\",\"img/0903/aa842abe-6fa3-448a-bf71-88d3ad28663b.jpg\"]","trial_type":"similarity","trial_index":51,"time_elapsed":314415,"internal_node_id":"0.0-6.0-45.0"},{"sim_score":5,"rt":3975,"stimulus":"[\"img/0901/77087ed2-6e12-4329-b2a5-605bca6d972d.jpg\",\"img/0904/5cceabc9-de1d-4c67-989b-c28a4ef77e79.jpg\"]","trial_type":"similarity","trial_index":52,"time_elapsed":319398,"internal_node_id":"0.0-6.0-46.0"},{"sim_score":2,"rt":3490,"stimulus":"[\"img/0758/335851a0-a55b-46d8-ab05-8463eda48349.jpg\",\"img/0902/44cd9b7e-fdfb-4f78-90de-8d4c9d279365.jpg\"]","trial_type":"similarity","trial_index":53,"time_elapsed":324001,"internal_node_id":"0.0-6.0-47.0"},{"sim_score":7,"rt":5812,"stimulus":"[\"img/0764/06ea144f-f4f3-4a14-ba47-f20f35c561e0.jpg\",\"img/0764/d0bef2e0-e16b-4c82-9451-c1d16265eb67.jpg\"]","trial_type":"similarity","trial_index":54,"time_elapsed":330836,"internal_node_id":"0.0-6.0-48.0"},{"sim_score":2,"rt":3381,"stimulus":"[\"img/0866/f756f7d1-9ad8-4a34-9ef6-7a443d705bfe.jpg\",\"img/0902/794606a0-d8a8-4e58-8bf8-9d114ed5a548.jpg\"]","trial_type":"similarity","trial_index":55,"time_elapsed":335262,"internal_node_id":"0.0-6.0-49.0"},{"sim_score":2,"rt":3192,"stimulus":"[\"img/0764/03c07b98-3f18-4b71-bb70-ecff564a78d1.jpg\",\"img/0758/dd559618-7f09-4a07-8018-d311c4a5ea29.jpg\"]","trial_type":"similarity","trial_index":56,"time_elapsed":339477,"internal_node_id":"0.0-6.0-50.0"},{"sim_score":5,"rt":4527,"stimulus":"[\"img/0898/f3a3f225-1248-4ac7-b93b-f0ff28485bf3.jpg\",\"img/0894/4739e06d-c31e-4bf1-bf91-c97fa9afb456.jpg\"]","trial_type":"similarity","trial_index":57,"time_elapsed":345014,"internal_node_id":"0.0-6.0-51.0"},{"sim_score":5,"rt":5081,"stimulus":"[\"img/0875/2e13d160-eea1-416b-aff1-d37ab99ecc1d.jpg\",\"img/0866/93a27239-8317-4e08-98ca-d8b1ff298e07.jpg\"]","trial_type":"similarity","trial_index":58,"time_elapsed":351105,"internal_node_id":"0.0-6.0-52.0"},{"sim_score":6,"rt":4215,"stimulus":"[\"img/0904/d23dd7be-7fe8-4435-82f7-bd592c01e6a1.jpg\",\"img/0904/24fc38fe-842c-4831-ad8a-b1de5c25c0a8.jpg\"]","trial_type":"similarity","trial_index":59,"time_elapsed":356344,"internal_node_id":"0.0-6.0-53.0"},{"sim_score":6,"rt":3560,"stimulus":"[\"img/0769/e31b3bd8-efcb-413e-aa8c-75fac2b8f2ac.jpg\",\"img/0769/f6396414-6788-4d59-9683-de153298d89c.jpg\"]","trial_type":"similarity","trial_index":60,"time_elapsed":360960,"internal_node_id":"0.0-6.0-54.0"},{"sim_score":2,"rt":3758,"stimulus":"[\"img/0898/a114b375-cb89-44ba-9498-74213f1ecdee.jpg\",\"img/0758/d540bee6-b460-4c32-ac57-bc282742d7d4.jpg\"]","trial_type":"similarity","trial_index":61,"time_elapsed":365723,"internal_node_id":"0.0-6.0-55.0"},{"sim_score":5,"rt":4528,"stimulus":"[\"img/0769/9ea27d61-3d55-418c-8d14-82e90f656f01.jpg\",\"img/0902/fbef27fa-ac83-4936-ab78-9d1c20a383e1.jpg\"]","trial_type":"similarity","trial_index":62,"time_elapsed":371283,"internal_node_id":"0.0-6.0-56.0"},{"sim_score":6,"rt":3586,"stimulus":"[\"img/0864/65210d57-1153-4657-886a-32e758f49b4a.jpg\",\"img/0881/db77fe00-aeb0-4d1d-aa66-f3a96fd077e4.jpg\"]","trial_type":"similarity","trial_index":63,"time_elapsed":375884,"internal_node_id":"0.0-6.0-57.0"},{"sim_score":4,"rt":5663,"stimulus":"[\"img/0758/53f35650-e455-4b53-8be4-c3c8271c6466.jpg\",\"img/0868/179a5502-ab5c-478e-8263-5a1fbcc101d2.jpg\"]","trial_type":"similarity","trial_index":64,"time_elapsed":382562,"internal_node_id":"0.0-6.0-58.0"},{"sim_score":2,"rt":3772,"stimulus":"[\"img/0862/eefa5588-9efd-4591-aa5f-a2e17c7d7bcc.jpg\",\"img/0769/458d9c77-b844-40b5-bb1b-1e3bbd4da64e.jpg\"]","trial_type":"similarity","trial_index":65,"time_elapsed":387350,"internal_node_id":"0.0-6.0-59.0"},{"sim_score":4,"rt":6725,"stimulus":"[\"img/0764/ec2dd087-c471-4370-b570-95a542506a96.jpg\",\"img/0903/680ed18e-b311-4ecf-9b00-7dea32128334.jpg\"]","trial_type":"similarity","trial_index":66,"time_elapsed":395089,"internal_node_id":"0.0-6.0-60.0"},{"sim_score":6,"rt":4681,"stimulus":"[\"img/0899/7b7380d5-d2be-44e5-a09a-c1756f87ef71.jpg\",\"img/0899/ddf96ade-692e-4602-bd22-dedbb46401bc.jpg\"]","trial_type":"similarity","trial_index":67,"time_elapsed":400783,"internal_node_id":"0.0-6.0-61.0"},{"sim_score":3,"rt":5981,"stimulus":"[\"img/0860/61fb959d-d4d9-4de4-9e4e-4fa62b4cfcd5.jpg\",\"img/0875/90da8d75-108a-44ad-b999-e21fee3860d3.jpg\"]","trial_type":"similarity","trial_index":68,"time_elapsed":407782,"internal_node_id":"0.0-6.0-62.0"},{"sim_score":3,"rt":5967,"stimulus":"[\"img/0868/5fa7f9d0-f0e5-454c-8224-74d964818f56.jpg\",\"img/0874/adf9a8f1-c40b-402b-b95b-1e85a54a7b62.jpg\"]","trial_type":"similarity","trial_index":69,"time_elapsed":414760,"internal_node_id":"0.0-6.0-63.0"},{"sim_score":4,"rt":6537,"stimulus":"[\"img/0758/a085b443-b5d7-4cb2-9ad4-b9dab0fc23f1.jpg\",\"img/0862/fad1d7c1-8187-43c3-942a-0fc12183e48e.jpg\"]","trial_type":"similarity","trial_index":70,"time_elapsed":422303,"internal_node_id":"0.0-6.0-64.0"},{"sim_score":5,"rt":4531,"stimulus":"[\"img/0904/09dac84f-3d1c-4445-a68e-d0389fdbf1e9.jpg\",\"img/0898/81b08535-2020-4c15-9ce4-2f1e460755ae.jpg\"]","trial_type":"similarity","trial_index":71,"time_elapsed":427850,"internal_node_id":"0.0-6.0-65.0"},{"sim_score":4,"rt":4103,"stimulus":"[\"img/0881/54ea8e77-c7e5-4197-b7fa-00b7020849a7.jpg\",\"img/0866/386235d2-6857-41e7-88a8-25cfc3430025.jpg\"]","trial_type":"similarity","trial_index":72,"time_elapsed":432960,"internal_node_id":"0.0-6.0-66.0"},{"sim_score":2,"rt":4154,"stimulus":"[\"img/0867/db7e032f-162b-46f5-ae67-2b29679adee4.jpg\",\"img/0898/881e2a85-d5c2-49be-a0c6-8a6ce2c4af08.jpg\"]","trial_type":"similarity","trial_index":73,"time_elapsed":438139,"internal_node_id":"0.0-6.0-67.0"},{"sim_score":5,"rt":4926,"stimulus":"[\"img/0902/94ee9c53-a9a2-4f95-b9b7-794a5fc62bb6.jpg\",\"img/0764/1def7b22-b054-4ec2-860b-73d25691823b.jpg\"]","trial_type":"similarity","trial_index":74,"time_elapsed":444136,"internal_node_id":"0.0-6.0-68.0"},{"sim_score":4,"rt":4298,"stimulus":"[\"img/0875/cff79b3a-a797-4393-9757-6275f999ec04.jpg\",\"img/0867/2e1a0b58-cdb1-4107-a14e-452530d7b9b0.jpg\"]","trial_type":"similarity","trial_index":75,"time_elapsed":449509,"internal_node_id":"0.0-6.0-69.0"},{"sim_score":5,"rt":3953,"stimulus":"[\"img/0766/33aa9ebb-c9f5-418f-8c8b-c77861889568.jpg\",\"img/0764/62fafeea-6274-48ce-976f-35d3d3484c65.jpg\"]","trial_type":"similarity","trial_index":76,"time_elapsed":454465,"internal_node_id":"0.0-6.0-70.0"},{"sim_score":2,"rt":4924,"stimulus":"[\"img/0894/7dd6ff43-f8fc-408a-8a41-a2b261871820.jpg\",\"img/0867/c66898ba-b71b-4d50-84f9-f7f84853a98d.jpg\"]","trial_type":"similarity","trial_index":77,"time_elapsed":460405,"internal_node_id":"0.0-6.0-71.0"},{"sim_score":2,"rt":3083,"stimulus":"[\"img/0875/fb732ab5-013a-4366-9f65-27811ed157e9.jpg\",\"img/0764/cffc80b0-4a90-4acb-a530-6f480f3ca303.jpg\"]","trial_type":"similarity","trial_index":78,"time_elapsed":464502,"internal_node_id":"0.0-6.0-72.0"},{"sim_score":5,"rt":4894,"stimulus":"[\"img/0867/cc72ed48-7704-422c-86d6-467a1145287a.jpg\",\"img/0866/11a1d141-be5e-443c-98c1-a9d4d9e3dec0.jpg\"]","trial_type":"similarity","trial_index":79,"time_elapsed":470410,"internal_node_id":"0.0-6.0-73.0"},{"sim_score":2,"rt":4397,"stimulus":"[\"img/0903/39365c8e-a733-4801-ac7d-b87e38c3784b.jpg\",\"img/0758/65d426d6-3ff6-415d-8654-a43b83ecc4fe.jpg\"]","trial_type":"similarity","trial_index":80,"time_elapsed":475821,"internal_node_id":"0.0-6.0-74.0"},{"sim_score":2,"rt":3236,"stimulus":"[\"img/0766/00891401-e4c9-4ce1-bc19-f70740d174bc.jpg\",\"img/0868/83b4350a-3b70-4cea-b7f5-b5b56f3050a8.jpg\"]","trial_type":"similarity","trial_index":81,"time_elapsed":480074,"internal_node_id":"0.0-6.0-75.0"},{"sim_score":2,"rt":3581,"stimulus":"[\"img/0874/8cdb1c07-1c32-46d2-981c-3636560fa6e5.jpg\",\"img/0766/a754e4b6-5019-4cf4-8f58-34c20547a1f5.jpg\"]","trial_type":"similarity","trial_index":82,"time_elapsed":484670,"internal_node_id":"0.0-6.0-76.0"},{"sim_score":3,"rt":3902,"stimulus":"[\"img/0881/adc02f34-ce97-4aef-850f-00519df06fd7.jpg\",\"img/0868/7b212364-ff5f-4e28-9241-7eb6ea00161b.jpg\"]","trial_type":"similarity","trial_index":83,"time_elapsed":489607,"internal_node_id":"0.0-6.0-77.0"},{"sim_score":2,"rt":3076,"stimulus":"[\"img/0758/9fb5b2fe-3f00-4fe6-973c-1ce10d5f4cd5.jpg\",\"img/0901/4ca4f962-40c0-4c59-b14a-3cd7b8c9029b.jpg\"]","trial_type":"similarity","trial_index":84,"time_elapsed":493690,"internal_node_id":"0.0-6.0-78.0"},{"sim_score":2,"rt":5814,"stimulus":"[\"img/0881/f6bd3b96-dc40-4e99-8681-bc3a35cf896d.jpg\",\"img/0898/26c41340-15bd-4ead-8fe4-c0d0ddca09c2.jpg\"]","trial_type":"similarity","trial_index":85,"time_elapsed":500533,"internal_node_id":"0.0-6.0-79.0"},{"sim_score":4,"rt":4064,"stimulus":"[\"img/0867/aa05d113-fc19-4756-a8eb-7878f580bc92.jpg\",\"img/0758/3ddd05d3-557e-4ee7-8b78-9d2d681d8ae2.jpg\"]","trial_type":"similarity","trial_index":86,"time_elapsed":505602,"internal_node_id":"0.0-6.0-80.0"},{"sim_score":5,"rt":4602,"stimulus":"[\"img/0769/db94b61b-a5a7-4861-9d32-7b02ad194fb0.jpg\",\"img/0899/56a605c3-d0a2-4215-89e1-779279d85a7c.jpg\"]","trial_type":"similarity","trial_index":87,"time_elapsed":511218,"internal_node_id":"0.0-6.0-81.0"},{"sim_score":6,"rt":5715,"stimulus":"[\"img/0903/f45a103c-9bfe-49fd-ad96-bdd8d2589195.jpg\",\"img/0903/d987e220-f3e6-4b6d-a270-fe6757041f6d.jpg\"]","trial_type":"similarity","trial_index":88,"time_elapsed":517939,"internal_node_id":"0.0-6.0-82.0"},{"sim_score":2,"rt":3797,"stimulus":"[\"img/0867/179ab87a-8eac-4c52-a41f-2e48e3120f09.jpg\",\"img/0766/0025de5e-f620-4079-8a0f-00326ff3a6b0.jpg\"]","trial_type":"similarity","trial_index":89,"time_elapsed":528619,"internal_node_id":"0.0-6.0-83.0"},{"sim_score":2,"rt":3218,"stimulus":"[\"img/0902/10d99c89-71f7-4c81-a31e-dfc7c59f5232.jpg\",\"img/0867/12264664-1860-46df-8c21-162b9817cdda.jpg\"]","trial_type":"similarity","trial_index":90,"time_elapsed":532838,"internal_node_id":"0.0-6.0-84.0"},{"sim_score":2,"rt":3343,"stimulus":"[\"img/0901/d61f267a-c492-4db6-9bfb-61efd49cf072.jpg\",\"img/0875/ebf7653f-ff45-4e9f-af58-2c042ab3cd2b.jpg\"]","trial_type":"similarity","trial_index":91,"time_elapsed":537212,"internal_node_id":"0.0-6.0-85.0"},{"sim_score":2,"rt":3373,"stimulus":"[\"img/0764/7f4ee8e3-9315-4a57-be7d-db8454b33766.jpg\",\"img/0866/620cd1aa-0800-4414-8f6e-90342e7a99ad.jpg\"]","trial_type":"similarity","trial_index":92,"time_elapsed":541591,"internal_node_id":"0.0-6.0-86.0"},{"sim_score":4,"rt":4208,"stimulus":"[\"img/0901/7d4a3388-488d-4e9b-9d32-9d0def7aae8d.jpg\",\"img/0894/9b1333fd-3561-43bf-aee5-99b7b7ca3dc3.jpg\"]","trial_type":"similarity","trial_index":93,"time_elapsed":546808,"internal_node_id":"0.0-6.0-87.0"},{"sim_score":3,"rt":5145,"stimulus":"[\"img/0898/01bfe666-3510-4fc7-964f-d00d28732dc8.jpg\",\"img/0769/4680bcc3-8fbc-4643-8f9a-12aa0e780b64.jpg\"]","trial_type":"similarity","trial_index":94,"time_elapsed":552961,"internal_node_id":"0.0-6.0-88.0"},{"sim_score":5,"rt":3639,"stimulus":"[\"img/0769/1d8734c4-77ab-4165-9e71-5cfe672ff01c.jpg\",\"img/0894/8cadb87a-7001-4e47-99fb-1867bebf1668.jpg\"]","trial_type":"similarity","trial_index":95,"time_elapsed":557610,"internal_node_id":"0.0-6.0-89.0"},{"sim_score":5,"rt":3857,"stimulus":"[\"img/0862/ba89835a-408c-480b-8594-ed4ffa97eb5c.jpg\",\"img/0874/99f6563c-8a8d-4c1c-a41d-667b618c3fd5.jpg\"]","trial_type":"similarity","trial_index":96,"time_elapsed":562491,"internal_node_id":"0.0-6.0-90.0"},{"sim_score":5,"rt":4778,"stimulus":"[\"img/0894/86201968-6e78-4d68-9b3a-d1692e066210.jpg\",\"img/0766/26d3ae14-8275-4e08-99b2-a6598c193ddf.jpg\"]","trial_type":"similarity","trial_index":97,"time_elapsed":568281,"internal_node_id":"0.0-6.0-91.0"},{"sim_score":3,"rt":4700,"stimulus":"[\"img/0874/c0378dac-9370-439a-8b79-db27c96fb390.jpg\",\"img/0867/de92135f-5b65-4ed9-b245-188292c7c2f8.jpg\"]","trial_type":"similarity","trial_index":98,"time_elapsed":574007,"internal_node_id":"0.0-6.0-92.0"},{"sim_score":2,"rt":4600,"stimulus":"[\"img/0899/0e1d936a-dbe2-4afc-9f19-7b7a1ae6c9ed.jpg\",\"img/0868/d98ca254-b195-477f-b57e-5760a2717db8.jpg\"]","trial_type":"similarity","trial_index":99,"time_elapsed":579614,"internal_node_id":"0.0-6.0-93.0"},{"sim_score":2,"rt":3222,"stimulus":"[\"img/0903/647ce311-8c71-479a-8361-961db1457139.jpg\",\"img/0862/5d887e9f-89e2-4ebc-80a0-6d46fe6480db.jpg\"]","trial_type":"similarity","trial_index":100,"time_elapsed":583850,"internal_node_id":"0.0-6.0-94.0"},{"sim_score":3,"rt":5234,"stimulus":"[\"img/0899/a05bea16-2bb4-4cb9-b8fb-4ff975db6971.jpg\",\"img/0766/d3bab2fc-ddcc-40a0-bb72-c0d0ebe19978.jpg\"]","trial_type":"similarity","trial_index":101,"time_elapsed":590099,"internal_node_id":"0.0-6.0-95.0"},{"sim_score":5,"rt":5030,"stimulus":"[\"img/0867/f26f6b60-f772-4f4c-95a4-addc62cfd692.jpg\",\"img/0868/c8ac40c7-6904-4e13-8d61-c75d3052dc4e.jpg\"]","trial_type":"similarity","trial_index":102,"time_elapsed":596143,"internal_node_id":"0.0-6.0-96.0"},{"sim_score":2,"rt":3158,"stimulus":"[\"img/0862/f43ceabf-acc1-4107-b857-5d1849808f93.jpg\",\"img/0901/effc03f6-8f9d-46db-a66c-16fc83891c5c.jpg\"]","trial_type":"similarity","trial_index":103,"time_elapsed":600351,"internal_node_id":"0.0-6.0-97.0"},{"sim_score":2,"rt":3276,"stimulus":"[\"img/0875/34132396-d896-4c2d-8087-646dd867e769.jpg\",\"img/0766/ef3b15ce-abb7-4292-ad93-aec8e8b50520.jpg\"]","trial_type":"similarity","trial_index":104,"time_elapsed":604633,"internal_node_id":"0.0-6.0-98.0"},{"sim_score":5,"rt":5369,"stimulus":"[\"img/0758/7ffbc76b-1fc1-432c-8f7e-9ec8d1b3f643.jpg\",\"img/0874/1016b306-087c-4afc-aa08-fa527b28dc76.jpg\"]","trial_type":"similarity","trial_index":105,"time_elapsed":611016,"internal_node_id":"0.0-6.0-99.0"},{"sim_score":2,"rt":2990,"stimulus":"[\"img/0904/25365108-e038-4021-aac9-797f2063b337.jpg\",\"img/0868/fd307a36-9a3a-47d7-ab7c-f810d0b35040.jpg\"]","trial_type":"similarity","trial_index":106,"time_elapsed":615032,"internal_node_id":"0.0-6.0-100.0"},{"sim_score":3,"rt":4108,"stimulus":"[\"img/0903/14f179a2-8786-48a2-8377-88d1d404341b.jpg\",\"img/0866/23a224f3-2012-4fc8-8e0f-3c36f8de27fd.jpg\"]","trial_type":"similarity","trial_index":107,"time_elapsed":620155,"internal_node_id":"0.0-6.0-101.0"},{"sim_score":2,"rt":4336,"stimulus":"[\"img/0868/e0aff734-077f-40dd-9781-74821abd3621.jpg\",\"img/0769/35f2dd39-40aa-498e-b401-9f1ef2622d00.jpg\"]","trial_type":"similarity","trial_index":108,"time_elapsed":625592,"internal_node_id":"0.0-6.0-102.0"},{"sim_score":6,"rt":3595,"stimulus":"[\"img/0902/b03129ba-b087-4558-af37-e8399d6217d6.jpg\",\"img/0899/b45c550b-96c3-4255-ad59-48a2b4db1c1e.jpg\"]","trial_type":"similarity","trial_index":109,"time_elapsed":630196,"internal_node_id":"0.0-6.0-103.0"},{"sim_score":2,"rt":4017,"stimulus":"[\"img/0868/d6d1f30d-4323-435a-b194-7892521bc57e.jpg\",\"img/0862/f188d4f0-76a4-4102-818c-a209969d73a5.jpg\"]","trial_type":"similarity","trial_index":110,"time_elapsed":635234,"internal_node_id":"0.0-6.0-104.0"},{"sim_score":4,"rt":7015,"stimulus":"[\"img/0903/5ea5bbe0-f238-4724-abe7-9ed8dee8c0ba.jpg\",\"img/0894/c505c65a-cde2-4f2c-8cde-f8676f7c894d.jpg\"]","trial_type":"similarity","trial_index":111,"time_elapsed":643265,"internal_node_id":"0.0-6.0-105.0"},{"sim_score":5,"rt":6704,"stimulus":"[\"img/0864/3d4de670-b290-4285-9c3d-12a0e3af44e9.jpg\",\"img/0874/2c9464dd-8a23-4baa-ac94-1ba3af5c15cc.jpg\"]","trial_type":"similarity","trial_index":112,"time_elapsed":650980,"internal_node_id":"0.0-6.0-106.0"},{"sim_score":2,"rt":4684,"stimulus":"[\"img/0862/a0a3a7ba-7798-46a3-b4ca-05e1f6e581d0.jpg\",\"img/0902/ca3160ba-ad5d-459f-a1b6-8b4f3c85ecd5.jpg\"]","trial_type":"similarity","trial_index":113,"time_elapsed":656674,"internal_node_id":"0.0-6.0-107.0"},{"sim_score":5,"rt":3674,"stimulus":"[\"img/0904/2f88ce53-02d0-4f95-a082-182c56a0eeb4.jpg\",\"img/0903/07b445ee-0cdb-4d2c-a23b-d727613f4059.jpg\"]","trial_type":"similarity","trial_index":114,"time_elapsed":661355,"internal_node_id":"0.0-6.0-108.0"},{"sim_score":2,"rt":3603,"stimulus":"[\"img/0764/952d7adc-dc40-4aee-acce-18c2a1d02ea1.jpg\",\"img/0864/e8bd659f-aa43-4748-877e-3118e8b4e189.jpg\"]","trial_type":"similarity","trial_index":115,"time_elapsed":665972,"internal_node_id":"0.0-6.0-109.0"},{"sim_score":2,"rt":3603,"stimulus":"[\"img/0866/d493a2c8-66eb-44b4-be02-2f327b700b7c.jpg\",\"img/0894/76c1201f-8524-4865-85e6-dda8cb4ac986.jpg\"]","trial_type":"similarity","trial_index":116,"time_elapsed":670585,"internal_node_id":"0.0-6.0-110.0"},{"sim_score":4,"rt":4655,"stimulus":"[\"img/0899/4408c14d-c168-4a7d-96f6-bc87bfb58f83.jpg\",\"img/0903/6f343da5-00d9-4d50-89d1-2ed24cdb8319.jpg\"]","trial_type":"similarity","trial_index":117,"time_elapsed":676280,"internal_node_id":"0.0-6.0-111.0"},{"sim_score":4,"rt":2986,"stimulus":"[\"img/0902/168ebd47-9e82-4ab7-a18b-c3da85072db8.jpg\",\"img/0904/9dd5708f-3f8b-46a9-b49f-2f2fab87b357.jpg\"]","trial_type":"similarity","trial_index":118,"time_elapsed":680272,"internal_node_id":"0.0-6.0-112.0"},{"sim_score":3,"rt":4014,"stimulus":"[\"img/0864/f92649a2-0590-4d31-9a7a-1bfb81666a2d.jpg\",\"img/0860/4c530c3c-6aab-492a-94d1-9c01797bde40.jpg\"]","trial_type":"similarity","trial_index":119,"time_elapsed":685295,"internal_node_id":"0.0-6.0-113.0"},{"sim_score":2,"rt":3137,"stimulus":"[\"img/0860/f44ba3fb-03a2-42f0-8509-2c1ded493086.jpg\",\"img/0899/d60714ae-98d7-4564-8c98-94dba1351135.jpg\"]","trial_type":"similarity","trial_index":120,"time_elapsed":689438,"internal_node_id":"0.0-6.0-114.0"},{"sim_score":2,"rt":3515,"stimulus":"[\"img/0881/14236cf2-6b95-48b8-9368-78af09d2d27f.jpg\",\"img/0903/97a42b34-5462-4665-88c7-83c014b33d24.jpg\"]","trial_type":"similarity","trial_index":121,"time_elapsed":693965,"internal_node_id":"0.0-6.0-115.0"},{"sim_score":2,"rt":3240,"stimulus":"[\"img/0894/a98416c0-51e2-4960-85da-d81d8688b9d5.jpg\",\"img/0874/a3bc679d-619f-4db6-bb68-116dcb757d9c.jpg\"]","trial_type":"similarity","trial_index":122,"time_elapsed":698222,"internal_node_id":"0.0-6.0-116.0"},{"sim_score":4,"rt":4422,"stimulus":"[\"img/0881/6b1189e6-232d-4042-8885-16dc7b10e0d4.jpg\",\"img/0862/ad593cc7-cabe-4bb7-8e14-8a447a0717b4.jpg\"]","trial_type":"similarity","trial_index":123,"time_elapsed":703650,"internal_node_id":"0.0-6.0-117.0"},{"sim_score":5,"rt":4127,"stimulus":"[\"img/0868/6a28c3b0-3d76-498a-9fb7-ddafc665eca8.jpg\",\"img/0875/03c3c331-738b-4446-af92-3d7386b08c2e.jpg\"]","trial_type":"similarity","trial_index":124,"time_elapsed":708782,"internal_node_id":"0.0-6.0-118.0"},{"sim_score":3,"rt":7709,"stimulus":"[\"img/0860/99c589b9-9140-4d17-90c0-b344323edcda.jpg\",\"img/0758/e1ba5e53-addc-436a-b428-d34fc1b130dc.jpg\"]","trial_type":"similarity","trial_index":125,"time_elapsed":717497,"internal_node_id":"0.0-6.0-119.0"},{"sim_score":3,"rt":3267,"stimulus":"[\"img/0864/1d15626a-2f7c-410f-819c-0fa2c967e95e.jpg\",\"img/0875/5a1e5100-0d94-4fec-bbe9-ca9894d2cf8e.jpg\"]","trial_type":"similarity","trial_index":126,"time_elapsed":721774,"internal_node_id":"0.0-6.0-120.0"},{"sim_score":4,"rt":4172,"stimulus":"[\"img/0898/8605a25b-6895-476d-8c13-df7a83f96093.jpg\",\"img/0866/02f5e6b9-52b7-448c-9708-5b460d0c9a23.jpg\"]","trial_type":"similarity","trial_index":127,"time_elapsed":726965,"internal_node_id":"0.0-6.0-121.0"},{"sim_score":2,"rt":3696,"stimulus":"[\"img/0874/7e4f2150-3b59-4a36-b5da-a4e0ba410531.jpg\",\"img/0904/e9423a8c-f946-43ad-ab7b-931acef870e2.jpg\"]","trial_type":"similarity","trial_index":128,"time_elapsed":731673,"internal_node_id":"0.0-6.0-122.0"},{"sim_score":2,"rt":4528,"stimulus":"[\"img/0904/9b3568cc-3cf7-42be-9df3-fdafde7a58b8.jpg\",\"img/0864/87c467d3-abca-482f-ad80-3766c21b1bb3.jpg\"]","trial_type":"similarity","trial_index":129,"time_elapsed":737217,"internal_node_id":"0.0-6.0-123.0"},{"sim_score":5,"rt":4642,"stimulus":"[\"img/0894/1a010553-d598-4b06-a772-81f1e7b3addb.jpg\",\"img/0902/9f543501-3cf1-45a7-a2f1-eeca87cc15b9.jpg\"]","trial_type":"similarity","trial_index":130,"time_elapsed":742871,"internal_node_id":"0.0-6.0-124.0"},{"sim_score":3,"rt":4757,"stimulus":"[\"img/0868/0d3abd3a-b6c3-4584-a9f7-e2da63748b3d.jpg\",\"img/0864/3651d070-2fc5-4848-b6a6-088a2d9ac5c9.jpg\"]","trial_type":"similarity","trial_index":131,"time_elapsed":757407,"internal_node_id":"0.0-6.0-125.0"},{"sim_score":2,"rt":2750,"stimulus":"[\"img/0899/8de08897-b430-42fe-9d42-840670b80f94.jpg\",\"img/0866/a04d37f0-99dd-478a-b6c6-58b215138f84.jpg\"]","trial_type":"similarity","trial_index":132,"time_elapsed":761166,"internal_node_id":"0.0-6.0-126.0"},{"sim_score":2,"rt":2884,"stimulus":"[\"img/0875/2c361b79-c3d1-4eda-812e-bf03192407bf.jpg\",\"img/0904/1d10df11-b5c8-4370-9a6b-097a7f965895.jpg\"]","trial_type":"similarity","trial_index":133,"time_elapsed":765066,"internal_node_id":"0.0-6.0-127.0"},{"sim_score":2,"rt":2991,"stimulus":"[\"img/0867/f8488a47-94ee-4166-952c-44e16cf172f6.jpg\",\"img/0899/0433d056-aa30-4f8a-9aa1-abbb951e4edd.jpg\"]","trial_type":"similarity","trial_index":134,"time_elapsed":769082,"internal_node_id":"0.0-6.0-128.0"},{"sim_score":3,"rt":4889,"stimulus":"[\"img/0901/a6776381-91fe-43f8-ab73-261d318f95fd.jpg\",\"img/0867/8ba0c5a7-c7e4-42cf-a80a-543763b90779.jpg\"]","trial_type":"similarity","trial_index":135,"time_elapsed":774986,"internal_node_id":"0.0-6.0-129.0"},{"sim_score":2,"rt":3053,"stimulus":"[\"img/0864/300bb811-8b3c-4c42-8653-6097c3725197.jpg\",\"img/0769/14d393ce-e5be-4ca1-86ce-cc27d4b6074c.jpg\"]","trial_type":"similarity","trial_index":136,"time_elapsed":779064,"internal_node_id":"0.0-6.0-130.0"},{"sim_score":2,"rt":4253,"stimulus":"[\"img/0903/776b74ee-a8ab-4ab8-a78d-097c0747538d.jpg\",\"img/0868/15dd6fd7-791e-4b53-b203-195d617521a4.jpg\"]","trial_type":"similarity","trial_index":137,"time_elapsed":784350,"internal_node_id":"0.0-6.0-131.0"},{"sim_score":3,"rt":3500,"stimulus":"[\"img/0864/e336a4c5-6648-4fd7-b2f6-93a3fb83f8c6.jpg\",\"img/0867/a749dddb-69f0-44a6-acdc-2bf295cf6dcc.jpg\"]","trial_type":"similarity","trial_index":138,"time_elapsed":788862,"internal_node_id":"0.0-6.0-132.0"},{"sim_score":2,"rt":3244,"stimulus":"[\"img/0901/b9141736-3041-4385-a586-b1fe911c76a5.jpg\",\"img/0860/4a022222-056d-461c-ab02-39fac9647552.jpg\"]","trial_type":"similarity","trial_index":139,"time_elapsed":793123,"internal_node_id":"0.0-6.0-133.0"},{"sim_score":2,"rt":4664,"stimulus":"[\"img/0881/292e9b4b-fca0-4ba8-87f1-4048f9e37b7d.jpg\",\"img/0766/aaec5f42-7f0a-4a16-aeca-488d757acbcc.jpg\"]","trial_type":"similarity","trial_index":140,"time_elapsed":798800,"internal_node_id":"0.0-6.0-134.0"},{"sim_score":2,"rt":2896,"stimulus":"[\"img/0903/59defeb8-98bd-4570-a2f8-9bd189e68ef4.jpg\",\"img/0864/0f537697-a314-47c3-a8cc-8df23b7e536c.jpg\"]","trial_type":"similarity","trial_index":141,"time_elapsed":802715,"internal_node_id":"0.0-6.0-135.0"},{"sim_score":2,"rt":4594,"stimulus":"[\"img/0758/caa93da2-9edf-49fa-96b9-32dedd8f5078.jpg\",\"img/0894/bd34223a-2f66-4e16-9d18-193a746b69ff.jpg\"]","trial_type":"similarity","trial_index":142,"time_elapsed":808313,"internal_node_id":"0.0-6.0-136.0"},{"sim_score":2,"rt":2896,"stimulus":"[\"img/0769/057eb0a0-aa5b-40c7-9852-21444f68d767.jpg\",\"img/0860/e14d67c1-6d92-4f1e-9257-c8607159c19c.jpg\"]","trial_type":"similarity","trial_index":143,"time_elapsed":812218,"internal_node_id":"0.0-6.0-137.0"},{"sim_score":5,"rt":4001,"stimulus":"[\"img/0904/96e503ea-6630-4996-85f2-0237688ce441.jpg\",\"img/0766/33519c22-aaa4-49d7-8d49-ab551db1945e.jpg\"]","trial_type":"similarity","trial_index":144,"time_elapsed":817233,"internal_node_id":"0.0-6.0-138.0"},{"sim_score":4,"rt":3607,"stimulus":"[\"img/0868/4bd5105a-d2c3-4f82-8c80-57196106ba53.jpg\",\"img/0860/5bff793e-cbd5-4d7e-b628-0ac2b0e30b64.jpg\"]","trial_type":"similarity","trial_index":145,"time_elapsed":821844,"internal_node_id":"0.0-6.0-139.0"},{"sim_score":4,"rt":4377,"stimulus":"[\"img/0758/20497cbe-ddae-489e-86e2-ab06985ed07c.jpg\",\"img/0864/4bd81bc6-c13d-46df-95a9-485886dc7c1b.jpg\"]","trial_type":"similarity","trial_index":146,"time_elapsed":827236,"internal_node_id":"0.0-6.0-140.0"},{"sim_score":5,"rt":4390,"stimulus":"[\"img/0867/85a96c62-548f-4994-9553-819e03c3135a.jpg\",\"img/0867/c71dc569-f49c-4397-8381-68b8d726736d.jpg\"]","trial_type":"similarity","trial_index":147,"time_elapsed":832664,"internal_node_id":"0.0-6.0-141.0"},{"sim_score":6,"rt":4937,"stimulus":"[\"img/0898/0af304a2-6a7a-4082-ab7c-4450cd08cc58.jpg\",\"img/0898/4184e5a2-84ea-4f36-9b42-ae58646f6f87.jpg\"]","trial_type":"similarity","trial_index":148,"time_elapsed":838615,"internal_node_id":"0.0-6.0-142.0"},{"sim_score":2,"rt":3785,"stimulus":"[\"img/0866/bf14b5bd-fb55-47db-86b9-4f8aeb9a6dad.jpg\",\"img/0769/f2740c58-7c02-433f-920b-746b0b75435b.jpg\"]","trial_type":"similarity","trial_index":149,"time_elapsed":843400,"internal_node_id":"0.0-6.0-143.0"},{"sim_score":3,"rt":6707,"stimulus":"[\"img/0860/5383b320-1518-4095-a58e-5cc1ae30b64c.jpg\",\"img/0898/0c7dde4f-efce-4b7a-9387-6921635b7890.jpg\"]","trial_type":"similarity","trial_index":150,"time_elapsed":851116,"internal_node_id":"0.0-6.0-144.0"},{"sim_score":2,"rt":2665,"stimulus":"[\"img/0766/d5d38751-8fa5-476f-93e9-86ed2d9045ef.jpg\",\"img/0864/6e846d43-94a6-4b37-a268-65eda979f052.jpg\"]","trial_type":"similarity","trial_index":151,"time_elapsed":854798,"internal_node_id":"0.0-6.0-145.0"},{"sim_score":2,"rt":3963,"stimulus":"[\"img/0860/31ff6436-98bf-4652-bed2-40f627229568.jpg\",\"img/0903/8931c67c-a43d-47d3-a4c9-42aa2f81d344.jpg\"]","trial_type":"similarity","trial_index":152,"time_elapsed":859776,"internal_node_id":"0.0-6.0-146.0"},{"sim_score":1,"rt":5791,"stimulus":"[\"img/0867/ac1797e4-8afc-48fe-b252-86d1defb1cca.jpg\",\"img/0764/3297a811-ea8b-4d74-9547-59cecab7293a.jpg\"]","trial_type":"similarity","trial_index":153,"time_elapsed":866577,"internal_node_id":"0.0-6.0-147.0"},{"sim_score":5,"rt":4273,"stimulus":"[\"img/0769/38a88f69-28fd-4bbd-99f0-f4c02bfd3995.jpg\",\"img/0904/b7c2a2c8-df33-4473-b3d4-ff7147c60db3.jpg\"]","trial_type":"similarity","trial_index":154,"time_elapsed":871865,"internal_node_id":"0.0-6.0-148.0"},{"sim_score":4,"rt":4078,"stimulus":"[\"img/0764/5d83b9db-3b2b-4dc8-9bd1-2b515b19c858.jpg\",\"img/0901/31c032fd-3c3d-4882-a226-da9a80198937.jpg\"]","trial_type":"similarity","trial_index":155,"time_elapsed":876965,"internal_node_id":"0.0-6.0-149.0"},{"sim_score":5,"rt":4634,"stimulus":"[\"img/0904/4b8daf2a-13a9-4ea9-9e0b-b265b6e933e7.jpg\",\"img/0899/f95cbdb4-f804-4f5d-ad76-373ad343e658.jpg\"]","trial_type":"similarity","trial_index":156,"time_elapsed":882608,"internal_node_id":"0.0-6.0-150.0"},{"sim_score":4,"rt":3410,"stimulus":"[\"img/0862/f23038d4-c366-4f70-979f-66b62362efa4.jpg\",\"img/0867/f8159067-056c-41f1-a136-c529fe5e970a.jpg\"]","trial_type":"similarity","trial_index":157,"time_elapsed":887026,"internal_node_id":"0.0-6.0-151.0"},{"sim_score":7,"rt":4342,"stimulus":"[\"img/0766/1bc0dccc-a5b5-4375-87fa-28360ca42b12.jpg\",\"img/0766/1865bfc9-2410-4765-a804-3ae4ba2393d0.jpg\"]","trial_type":"similarity","trial_index":158,"time_elapsed":892378,"internal_node_id":"0.0-6.0-152.0"},{"sim_score":2,"rt":3460,"stimulus":"[\"img/0862/1c20f772-3a51-4a80-aac0-f57dc9f86c28.jpg\",\"img/0894/661b9f9f-4bde-487a-b1ed-87085fde6948.jpg\"]","trial_type":"similarity","trial_index":159,"time_elapsed":896845,"internal_node_id":"0.0-6.0-153.0"},{"sim_score":4,"rt":2682,"stimulus":"[\"img/0899/0adc0bc3-6fca-4078-be6f-d45ddf1653d5.jpg\",\"img/0901/233a6948-48eb-4b67-8259-222b916b2322.jpg\"]","trial_type":"similarity","trial_index":160,"time_elapsed":900541,"internal_node_id":"0.0-6.0-154.0"},{"sim_score":4,"rt":4011,"stimulus":"[\"img/0874/93d1f8dc-acf2-4f03-bd8d-8ec35df276ed.jpg\",\"img/0874/3f471690-9788-4d03-90c7-f615aecef149.jpg\"]","trial_type":"similarity","trial_index":161,"time_elapsed":905567,"internal_node_id":"0.0-6.0-155.0"},{"sim_score":4,"rt":2449,"stimulus":"[\"img/0860/d9a0d117-6d1d-41c0-8fec-9aff0fd9e9f2.jpg\",\"img/0867/5e07b34d-b40f-4b1c-ac10-49975bace45f.jpg\"]","trial_type":"similarity","trial_index":162,"time_elapsed":909031,"internal_node_id":"0.0-6.0-156.0"},{"sim_score":2,"rt":2693,"stimulus":"[\"img/0901/0f670aef-ac36-496d-8142-ee5fdb21dd82.jpg\",\"img/0881/20af39f5-373d-4a55-a437-2dc4c0382c46.jpg\"]","trial_type":"similarity","trial_index":163,"time_elapsed":912742,"internal_node_id":"0.0-6.0-157.0"},{"sim_score":5,"rt":4121,"stimulus":"[\"img/0903/150cf64c-0bd2-4674-abbb-a1387cf1f3e9.jpg\",\"img/0902/01b41522-de46-4c3a-b0af-a61b2682b40e.jpg\"]","trial_type":"similarity","trial_index":164,"time_elapsed":917870,"internal_node_id":"0.0-6.0-158.0"},{"sim_score":2,"rt":3531,"stimulus":"[\"img/0860/c3379ff7-0763-48fe-a1ec-7ea3d611bc7a.jpg\",\"img/0764/21e3292f-01ad-4238-828b-61b817857d16.jpg\"]","trial_type":"similarity","trial_index":165,"time_elapsed":922430,"internal_node_id":"0.0-6.0-159.0"},{"sim_score":2,"rt":3868,"stimulus":"[\"img/0902/eb3e7e71-8ff1-4b88-a6a7-47e2c1ce1683.jpg\",\"img/0875/f87b67d7-c33e-40d1-b281-248c4be1cb6e.jpg\"]","trial_type":"similarity","trial_index":166,"time_elapsed":927304,"internal_node_id":"0.0-6.0-160.0"},{"sim_score":2,"rt":4057,"stimulus":"[\"img/0898/5f699581-3853-4547-856c-12f419ba5af7.jpg\",\"img/0862/cdaed51d-9e2f-4807-801a-4663c40077e2.jpg\"]","trial_type":"similarity","trial_index":167,"time_elapsed":932377,"internal_node_id":"0.0-6.0-161.0"},{"sim_score":2,"rt":2858,"stimulus":"[\"img/0894/2217bdcd-23a7-42d3-823b-23f2488d7e87.jpg\",\"img/0875/527ced51-8e53-4aab-ab05-86df219104c0.jpg\"]","trial_type":"similarity","trial_index":168,"time_elapsed":936244,"internal_node_id":"0.0-6.0-162.0"},{"sim_score":4,"rt":4229,"stimulus":"[\"img/0866/07c9c966-3c8d-40e7-8128-92b2acbaed5d.jpg\",\"img/0864/e02eddb5-f468-499c-91bf-f7be3ffe979b.jpg\"]","trial_type":"similarity","trial_index":169,"time_elapsed":941481,"internal_node_id":"0.0-6.0-163.0"},{"sim_score":2,"rt":2947,"stimulus":"[\"img/0766/e8052e17-9dae-4139-802b-6e590cb2d526.jpg\",\"img/0862/4f0a3b4c-afbf-486e-b248-1d54982f54b4.jpg\"]","trial_type":"similarity","trial_index":170,"time_elapsed":945456,"internal_node_id":"0.0-6.0-164.0"},{"sim_score":4,"rt":3746,"stimulus":"[\"img/0866/c446214b-a368-4c65-ae39-ea46894256ab.jpg\",\"img/0874/85eb9b8a-c4c6-4e5a-b8e7-363a87a82054.jpg\"]","trial_type":"similarity","trial_index":171,"time_elapsed":950212,"internal_node_id":"0.0-6.0-165.0"},{"sim_score":4,"rt":4247,"stimulus":"[\"img/0862/99a99e39-8355-44ec-b993-e7bcec111e1c.jpg\",\"img/0860/b03b963d-949b-4d8d-b19c-4950c89eeca2.jpg\"]","trial_type":"similarity","trial_index":172,"time_elapsed":955465,"internal_node_id":"0.0-6.0-166.0"},{"sim_score":4,"rt":2936,"stimulus":"[\"img/0766/d14acac4-7db1-4b07-8f8f-302437326fc0.jpg\",\"img/0901/da4fe30f-d12a-491e-96a2-5ab8ebaadd09.jpg\"]","trial_type":"similarity","trial_index":173,"time_elapsed":962928,"internal_node_id":"0.0-6.0-167.0"},{"sim_score":6,"rt":4128,"stimulus":"[\"img/0862/fb26cb07-d5a9-4653-813c-f41609f26cd5.jpg\",\"img/0862/ee3b7bff-4a70-4e84-9bea-4a565e456acb.jpg\"]","trial_type":"similarity","trial_index":174,"time_elapsed":968064,"internal_node_id":"0.0-6.0-168.0"},{"sim_score":5,"rt":4627,"stimulus":"[\"img/0894/5ff3c4f6-52e2-4075-8679-be0312e59703.jpg\",\"img/0764/23ea9375-f801-4a96-9925-7d453da887c7.jpg\"]","trial_type":"similarity","trial_index":175,"time_elapsed":973707,"internal_node_id":"0.0-6.0-169.0"},{"sim_score":2,"rt":3066,"stimulus":"[\"img/0874/ca76a855-4e77-4f2f-872a-0a718153e7ed.jpg\",\"img/0898/b2732712-71c2-45d8-834f-2b2ed5504910.jpg\"]","trial_type":"similarity","trial_index":176,"time_elapsed":977785,"internal_node_id":"0.0-6.0-170.0"},{"sim_score":2,"rt":3740,"stimulus":"[\"img/0860/8277806e-b684-4474-8f7b-3fca946d7d4f.jpg\",\"img/0766/60033a74-9919-47e5-913c-71d0d483e7e5.jpg\"]","trial_type":"similarity","trial_index":177,"time_elapsed":982544,"internal_node_id":"0.0-6.0-171.0"},{"sim_score":3,"rt":5637,"stimulus":"[\"img/0898/661621d4-a14e-487c-8c74-354134a29710.jpg\",\"img/0864/ef9cbca0-4be8-435d-ad49-977259e80409.jpg\"]","trial_type":"similarity","trial_index":178,"time_elapsed":989197,"internal_node_id":"0.0-6.0-172.0"},{"sim_score":3,"rt":6229,"stimulus":"[\"img/0881/c843e210-bdfe-4a7c-8bbe-fcea1f90fe1c.jpg\",\"img/0764/c80b3e06-2ee3-4326-9678-340607eb5348.jpg\"]","trial_type":"similarity","trial_index":179,"time_elapsed":996445,"internal_node_id":"0.0-6.0-173.0"},{"sim_score":2,"rt":3172,"stimulus":"[\"img/0898/6cd3830b-d44e-4915-be2b-88d31424b91c.jpg\",\"img/0868/8b0b8473-e2c0-4331-aa56-c3a5c29369da.jpg\"]","trial_type":"similarity","trial_index":180,"time_elapsed":1000627,"internal_node_id":"0.0-6.0-174.0"},{"sim_score":6,"rt":6057,"stimulus":"[\"img/0864/a248adb3-c70b-4652-b7a3-776d2a1e904b.jpg\",\"img/0864/da39ad34-04e0-40d4-a724-c08d53e0ea09.jpg\"]","trial_type":"similarity","trial_index":181,"time_elapsed":1007699,"internal_node_id":"0.0-6.0-175.0"},{"sim_score":2,"rt":2660,"stimulus":"[\"img/0899/fd9efb43-701f-4cd6-baaa-4c38315f4bdc.jpg\",\"img/0862/e697469a-ec19-4414-b972-7b9f3564785b.jpg\"]","trial_type":"similarity","trial_index":182,"time_elapsed":1011369,"internal_node_id":"0.0-6.0-176.0"},{"sim_score":5,"rt":5090,"stimulus":"[\"img/0875/5a7c4e35-6514-4e12-8879-d16071da4cd6.jpg\",\"img/0758/d57c2592-a317-4f63-91be-91a3a9afd222.jpg\"]","trial_type":"similarity","trial_index":183,"time_elapsed":1017466,"internal_node_id":"0.0-6.0-177.0"},{"sim_score":2,"rt":2932,"stimulus":"[\"img/0866/4a87911a-d5be-4d4e-ab8e-3d1f581bf507.jpg\",\"img/0901/00acf6c1-b66e-4060-bb04-4caf29b5a8b0.jpg\"]","trial_type":"similarity","trial_index":184,"time_elapsed":1021411,"internal_node_id":"0.0-6.0-178.0"},{"sim_score":4,"rt":4187,"stimulus":"[\"img/0769/c7cfacc3-7f07-46ff-9f5d-8073f4c4679b.jpg\",\"img/0874/ca23d307-fc00-4d7d-9106-584c6eb21b4d.jpg\"]","trial_type":"similarity","trial_index":185,"time_elapsed":1026606,"internal_node_id":"0.0-6.0-179.0"},{"sim_score":4,"rt":2603,"stimulus":"[\"img/0875/5a716432-c6ca-4b1c-955a-2b8ac25198ee.jpg\",\"img/0881/f62bdcd1-a4b7-4d48-83da-d9c9e01c8727.jpg\"]","trial_type":"similarity","trial_index":186,"time_elapsed":1030218,"internal_node_id":"0.0-6.0-180.0"},{"sim_score":4,"rt":3033,"stimulus":"[\"img/0866/6f2a90d7-14f1-4f1b-bd64-fc0af6b9fe44.jpg\",\"img/0868/77091fc7-a590-4ebb-b915-fdb2483a2399.jpg\"]","trial_type":"similarity","trial_index":187,"time_elapsed":1034270,"internal_node_id":"0.0-6.0-181.0"},{"sim_score":2,"rt":3766,"stimulus":"[\"img/0899/fef567a2-c121-4481-9af0-ff108d199bbf.jpg\",\"img/0758/ddc336e9-a8b6-4bb9-937a-c7e25e0e9250.jpg\"]","trial_type":"similarity","trial_index":188,"time_elapsed":1039055,"internal_node_id":"0.0-6.0-182.0"},{"sim_score":5,"rt":4295,"stimulus":"[\"img/0874/bf14b896-e930-4fd9-9c05-2e83317a2773.jpg\",\"img/0875/99698b4d-b4a1-44bc-8c83-8ea755bbbf61.jpg\"]","trial_type":"similarity","trial_index":189,"time_elapsed":1044355,"internal_node_id":"0.0-6.0-183.0"},{"sim_score":2,"rt":3377,"stimulus":"[\"img/0904/56e73f28-7e64-489b-a161-e6b1a063878d.jpg\",\"img/0862/47ed5efd-4ec9-4b74-bb4e-a5f5cf0c3e7d.jpg\"]","trial_type":"similarity","trial_index":190,"time_elapsed":1048741,"internal_node_id":"0.0-6.0-184.0"},{"sim_score":5,"rt":5598,"stimulus":"[\"img/0902/a323b62d-2fd5-4ac8-acc6-35b768f3c3f2.jpg\",\"img/0766/db750ba0-ce04-46e1-b601-e1b80212bad2.jpg\"]","trial_type":"similarity","trial_index":191,"time_elapsed":1055348,"internal_node_id":"0.0-6.0-185.0"},{"sim_score":3,"rt":5254,"stimulus":"[\"img/0758/a709631e-3705-4725-ac40-f0d916924f08.jpg\",\"img/0769/aad494cc-674d-4a08-9bfa-24a88ebe3c79.jpg\"]","trial_type":"similarity","trial_index":192,"time_elapsed":1061621,"internal_node_id":"0.0-6.0-186.0"},{"sim_score":6,"rt":3271,"stimulus":"[\"img/0881/4bd34581-94d8-4e88-8c89-5cef864ca3be.jpg\",\"img/0881/667e2147-d457-4f32-aa5f-6ab86e5848f1.jpg\"]","trial_type":"similarity","trial_index":193,"time_elapsed":1065909,"internal_node_id":"0.0-6.0-187.0"},{"sim_score":4,"rt":4041,"stimulus":"[\"img/0758/f61ecdf8-a7d4-4db0-b84d-be46f7cfaffc.jpg\",\"img/0866/945c6710-d15b-4a5b-a8f6-69af0850357f.jpg\"]","trial_type":"similarity","trial_index":194,"time_elapsed":1070967,"internal_node_id":"0.0-6.0-188.0"},{"sim_score":4,"rt":2105,"stimulus":"[\"img/0764/1f95ab5f-fb65-4d70-b5db-d6bd6351a8aa.jpg\",\"img/0898/04e39a7a-fcf6-4156-ab0e-f5871f335e1c.jpg\"]","trial_type":"similarity","trial_index":195,"time_elapsed":1074074,"internal_node_id":"0.0-6.0-189.0"},{"sim_score":5,"rt":3728,"stimulus":"[\"img/0903/b4a0f61e-a964-4b79-a9a7-f767a8f92f34.jpg\",\"img/0901/08d6d1d1-c043-43c4-bb08-d45e062822b9.jpg\"]","trial_type":"similarity","trial_index":196,"time_elapsed":1078816,"internal_node_id":"0.0-6.0-190.0"},{"sim_score":5,"rt":4005,"stimulus":"[\"img/0902/3b243e54-0803-4c29-af42-4037c2118495.jpg\",\"img/0898/08c72dac-f8ad-407a-9ce6-8c9a5d679c3a.jpg\"]","trial_type":"similarity","trial_index":197,"time_elapsed":1083840,"internal_node_id":"0.0-6.0-191.0"},{"sim_score":2,"rt":3879,"stimulus":"[\"img/0864/afcba0a3-7e27-4757-b254-e9f05fad27e2.jpg\",\"img/0901/50e1d53e-a49f-4806-8610-be6dec5a2475.jpg\"]","trial_type":"similarity","trial_index":198,"time_elapsed":1088723,"internal_node_id":"0.0-6.0-192.0"},{"sim_score":2,"rt":3909,"stimulus":"[\"img/0894/5f15154e-e72e-4ce5-aafb-bce6f0564006.jpg\",\"img/0881/f4e3e181-b3c9-4af2-a5a4-fc135ab70d2e.jpg\"]","trial_type":"similarity","trial_index":199,"time_elapsed":1093640,"internal_node_id":"0.0-6.0-193.0"},{"sim_score":5,"rt":4570,"stimulus":"[\"img/0868/1a62b2b2-18f5-466e-b564-5176a57c565e.jpg\",\"img/0868/4e626425-63c8-484a-8a1d-e66ee4e0bef8.jpg\"]","trial_type":"similarity","trial_index":200,"time_elapsed":1099219,"internal_node_id":"0.0-6.0-194.0"},{"sim_score":5,"rt":4038,"stimulus":"[\"img/0899/93494f3b-d539-4075-b027-d82e344563da.jpg\",\"img/0764/56441045-b648-4ede-9632-3e9c0227080b.jpg\"]","trial_type":"similarity","trial_index":201,"time_elapsed":1104267,"internal_node_id":"0.0-6.0-195.0"},{"sim_score":2,"rt":3142,"stimulus":"[\"img/0881/48ed65a5-471f-41af-86ec-3793805c116d.jpg\",\"img/0904/ba8e689e-9ca6-4608-a2a1-3b0940666ae6.jpg\"]","trial_type":"similarity","trial_index":202,"time_elapsed":1108446,"internal_node_id":"0.0-6.0-196.0"},{"sim_score":2,"rt":2724,"stimulus":"[\"img/0864/5f33e097-23e3-4002-882d-76e8cb15f451.jpg\",\"img/0902/b76efc44-a50f-4dac-b997-ff0222376067.jpg\"]","trial_type":"similarity","trial_index":203,"time_elapsed":1112186,"internal_node_id":"0.0-6.0-197.0"},{"sim_score":5,"rt":3637,"stimulus":"[\"img/0894/3adef67d-7676-4995-80b2-bb31b8aca3ef.jpg\",\"img/0904/4e58005d-a2ec-4aaa-b199-445343561396.jpg\"]","trial_type":"similarity","trial_index":204,"time_elapsed":1116844,"internal_node_id":"0.0-6.0-198.0"},{"sim_score":7,"rt":5877,"stimulus":"[\"img/0901/ae1e6ce4-2e10-4ca9-b1e7-21628637ab74.jpg\",\"img/0901/f469cb1d-6d81-4a45-bab5-cd0b650c2b4f.jpg\"]","trial_type":"similarity","trial_index":205,"time_elapsed":1123728,"internal_node_id":"0.0-6.0-199.0"},{"sim_score":2,"rt":3152,"stimulus":"[\"img/0894/6b2e9509-8699-42b7-9582-7741df0ba2d7.jpg\",\"img/0860/e8b8c51e-1834-4875-8b61-6c5bc9b178bd.jpg\"]","trial_type":"similarity","trial_index":206,"time_elapsed":1127898,"internal_node_id":"0.0-6.0-200.0"},{"sim_score":6,"rt":4124,"stimulus":"[\"img/0898/e167334e-cc1d-4986-b3b1-c7bc7da64baa.jpg\",\"img/0903/c708d08f-a108-4e04-8288-c3fcf6375db4.jpg\"]","trial_type":"similarity","trial_index":207,"time_elapsed":1133024,"internal_node_id":"0.0-6.0-201.0"},{"sim_score":2,"rt":3230,"stimulus":"[\"img/0864/66091c27-e588-4476-8af9-265dc6be4156.jpg\",\"img/0894/38f5931f-926d-414e-b498-66b188978b7a.jpg\"]","trial_type":"similarity","trial_index":208,"time_elapsed":1137270,"internal_node_id":"0.0-6.0-202.0"},{"sim_score":4,"rt":4423,"stimulus":"[\"img/0874/767f289c-9814-4496-803f-745cc8913d1f.jpg\",\"img/0860/4f695df5-afac-4da7-9875-fee39b0b24ad.jpg\"]","trial_type":"similarity","trial_index":209,"time_elapsed":1142711,"internal_node_id":"0.0-6.0-203.0"},{"sim_score":4,"rt":3280,"stimulus":"[\"img/0862/57b6f83f-c763-4858-830d-102f97bfefbf.jpg\",\"img/0875/3ecb367d-e9eb-4826-8aaa-7aa72fb98019.jpg\"]","trial_type":"similarity","trial_index":210,"time_elapsed":1146997,"internal_node_id":"0.0-6.0-204.0"},{"sim_score":4,"rt":2617,"stimulus":"[\"img/0867/075e0f95-856b-4cbb-acf5-092393aaf04e.jpg\",\"img/0881/5fe04dd0-5c74-47b7-99c8-b068db9ca26a.jpg\"]","trial_type":"similarity","trial_index":211,"time_elapsed":1150633,"internal_node_id":"0.0-6.0-205.0"},{"sim_score":5,"rt":3142,"stimulus":"[\"img/0901/fb0a8e69-7f19-4e6e-a6bb-a48f97f9b4f3.jpg\",\"img/0902/d2c34af0-8c50-437d-8cc3-619195a3e8ba.jpg\"]","trial_type":"similarity","trial_index":212,"time_elapsed":1154794,"internal_node_id":"0.0-6.0-206.0"},{"sim_score":2,"rt":4727,"stimulus":"[\"img/0899/ad8268c5-8199-48d0-ad70-c5b6d6c599ec.jpg\",\"img/0864/8ddd2e30-a1d0-479f-9cbe-591213023893.jpg\"]","trial_type":"similarity","trial_index":213,"time_elapsed":1160537,"internal_node_id":"0.0-6.0-207.0"},{"sim_score":5,"rt":3376,"stimulus":"[\"img/0901/c6df1a21-44ed-47c2-960e-7c52220e329e.jpg\",\"img/0769/6c0bac4c-5f59-43c7-898c-3ca93cf55cfe.jpg\"]","trial_type":"similarity","trial_index":214,"time_elapsed":1164929,"internal_node_id":"0.0-6.0-208.0"},{"sim_score":6,"rt":3500,"stimulus":"[\"img/0902/24d10fe7-314f-4d5a-8c7b-b43121bba0a4.jpg\",\"img/0902/cdec1bc6-7f90-4f72-9e01-f5a4111bac1d.jpg\"]","trial_type":"similarity","trial_index":215,"time_elapsed":1187461,"internal_node_id":"0.0-6.0-209.0"},{"view_history":"[{\"page_index\":0,\"viewing_time\":6447}]","rt":6458,"trial_type":"instructions","trial_index":216,"time_elapsed":1194927,"internal_node_id":"0.0-7.0"},{"rt":49335,"responses":"{\"Q0\":\"Nashville Warbler\"}","answer":["Nashville Warbler"],"trial_type":"image-multi-choice","trial_index":217,"time_elapsed":1245340,"internal_node_id":"0.0-8.0-0.0"},{"rt":5335,"responses":"{\"Q0\":\"Black-and-white Warbler\"}","answer":["Black-and-white Warbler"],"trial_type":"image-multi-choice","trial_index":218,"time_elapsed":1251731,"internal_node_id":"0.0-8.0-1.0"},{"rt":18890,"responses":"{\"Q0\":\"Townsend's Warbler\"}","answer":["Townsend's Warbler"],"trial_type":"image-multi-choice","trial_index":219,"time_elapsed":1271670,"internal_node_id":"0.0-8.0-2.0"},{"rt":7624,"responses":"{\"Q0\":\"Lark Sparrow\"}","answer":["Lark Sparrow"],"trial_type":"image-multi-choice","trial_index":220,"time_elapsed":1280361,"internal_node_id":"0.0-8.0-3.0"},{"rt":3575,"responses":"{\"Q0\":\"Yellow Warbler\"}","answer":["Yellow Warbler"],"trial_type":"image-multi-choice","trial_index":221,"time_elapsed":1284989,"internal_node_id":"0.0-8.0-4.0"},{"rt":53426,"responses":"{\"Q0\":\"Tennessee Warbler\"}","answer":["Orange-crowned Warbler"],"trial_type":"image-multi-choice","trial_index":222,"time_elapsed":1339457,"internal_node_id":"0.0-8.0-5.0"},{"rt":3522,"responses":"{\"Q0\":\"White-throated Sparrow\"}","answer":["White-throated Sparrow"],"trial_type":"image-multi-choice","trial_index":223,"time_elapsed":1344062,"internal_node_id":"0.0-8.0-6.0"},{"rt":3740,"responses":"{\"Q0\":\"Fox Sparrow\"}","answer":["Fox Sparrow"],"trial_type":"image-multi-choice","trial_index":224,"time_elapsed":1348858,"internal_node_id":"0.0-8.0-7.0"},{"rt":36180,"responses":"{\"Q0\":\"Vesper Sparrow\"}","answer":["Song Sparrow"],"trial_type":"image-multi-choice","trial_index":225,"time_elapsed":1386095,"internal_node_id":"0.0-8.0-8.0"},{"rt":5889,"responses":"{\"Q0\":\"Blackburnian Warbler\"}","answer":["Blackburnian Warbler"],"trial_type":"image-multi-choice","trial_index":226,"time_elapsed":1393041,"internal_node_id":"0.0-8.0-9.0"},{"rt":12565,"responses":"{\"Q0\":\"Vesper Sparrow\"}","answer":["Vesper Sparrow"],"trial_type":"image-multi-choice","trial_index":227,"time_elapsed":1406703,"internal_node_id":"0.0-8.0-10.0"},{"rt":3806,"responses":"{\"Q0\":\"White-crowned Sparrow\"}","answer":["White-crowned Sparrow"],"trial_type":"image-multi-choice","trial_index":228,"time_elapsed":1411564,"internal_node_id":"0.0-8.0-11.0"},{"rt":3920,"responses":"{\"Q0\":\"American Tree Sparrow\"}","answer":["American Tree Sparrow"],"trial_type":"image-multi-choice","trial_index":229,"time_elapsed":1416543,"internal_node_id":"0.0-8.0-12.0"},{"rt":32244,"responses":"{\"Q0\":\"Orange-crowned Warbler\"}","answer":["Tennessee Warbler"],"trial_type":"image-multi-choice","trial_index":230,"time_elapsed":1449839,"internal_node_id":"0.0-8.0-13.0"},{"rt":6025,"responses":"{\"Q0\":\"Magnolia Warbler\"}","answer":["Magnolia Warbler"],"trial_type":"image-multi-choice","trial_index":231,"time_elapsed":1456923,"internal_node_id":"0.0-8.0-14.0"},{"rt":8569,"responses":"{\"Q0\":\"Northern Waterthrush\"}","answer":["Northern Waterthrush"],"trial_type":"image-multi-choice","trial_index":232,"time_elapsed":1466555,"internal_node_id":"0.0-8.0-15.0"},{"rt":30826,"responses":"{\"Q0\":\"Chipping Sparrow\"}","answer":["Chipping Sparrow"],"trial_type":"image-multi-choice","trial_index":233,"time_elapsed":1498445,"internal_node_id":"0.0-8.0-16.0"},{"rt":6264,"responses":"{\"Q0\":\"Swamp Sparrow\"}","answer":["Swamp Sparrow"],"trial_type":"image-multi-choice","trial_index":234,"time_elapsed":1505771,"internal_node_id":"0.0-8.0-17.0"},{"rt":3756,"responses":"{\"Q0\":\"Lincoln's Sparrow\"}","answer":["Lincoln's Sparrow"],"trial_type":"image-multi-choice","trial_index":235,"time_elapsed":1510589,"internal_node_id":"0.0-8.0-18.0"},{"rt":3359,"responses":"{\"Q0\":\"Ovenbird\"}","answer":["Ovenbird"],"trial_type":"image-multi-choice","trial_index":236,"time_elapsed":1515006,"internal_node_id":"0.0-8.0-19.0"}]