"view_history","rt","trial_type","trial_index","time_elapsed","internal_node_id","sim_score","stimulus","responses","answer"
"[{""page_index"":0,""viewing_time"":27552}]","27552","instructions","0","27553","0.0-0.0","","","",""
"","9487","similarity_demo","1","38066","0.0-1.0","7","[""img/bluejay1.jpg"",""img/bluejay2.jpg""]","",""
"[{""page_index"":0,""viewing_time"":5399}]","5399","instructions","2","44479","0.0-2.0","","","",""
"","7918","similarity_demo","3","53399","0.0-3.0","2","[""img/bluejay1.jpg"",""img/cardinal1.jpg""]","",""
"[{""page_index"":0,""viewing_time"":3854}]","3854","instructions","4","58268","0.0-4.0","","","",""
"[{""page_index"":0,""viewing_time"":24824}]","24824","instructions","5","84096","0.0-5.0","","","",""
"","46728","similarity","6","131833","0.0-6.0-0.0","3","[""img/0864/8ddd2e30-a1d0-479f-9cbe-591213023893.jpg"",""img/0860/b03b963d-949b-4d8d-b19c-4950c89eeca2.jpg""]","",""
"","7908","similarity","7","140753","0.0-6.0-1.0","3","[""img/0884/2348ce3f-5d2a-4a04-85ef-a65f05caa935.jpg"",""img/0760/83b0723f-4929-4ee7-ad35-fae98da3e152.jpg""]","",""
"","9347","similarity","8","151117","0.0-6.0-2.0","2","[""img/0886/9ac18ff1-d3d9-4bfe-aa2e-ed5b28399f6c.jpg"",""img/0881/b1a136f7-8511-4d3a-a0f6-3879acf1e1a1.jpg""]","",""
"","4729","similarity","9","156861","0.0-6.0-3.0","2","[""img/0866/93a27239-8317-4e08-98ca-d8b1ff298e07.jpg"",""img/0881/84397291-bc14-4fbf-90e8-241e486ab0fe.jpg""]","",""
"","10660","similarity","10","168533","0.0-6.0-4.0","5","[""img/0868/5fa7f9d0-f0e5-454c-8224-74d964818f56.jpg"",""img/0885/0cdcdaca-f91e-4d4a-a6f6-dc90ab676435.jpg""]","",""
"","11965","similarity","11","181502","0.0-6.0-5.0","1","[""img/0757/76206a63-e02d-4beb-a85a-ed1b5527bc36.jpg"",""img/0866/a15b02be-11bb-43e3-b0e0-ecc3bd7dfc49.jpg""]","",""
"","5119","similarity","12","187626","0.0-6.0-6.0","1","[""img/0868/15dd6fd7-791e-4b53-b203-195d617521a4.jpg"",""img/0864/66091c27-e588-4476-8af9-265dc6be4156.jpg""]","",""
"","3647","similarity","13","192297","0.0-6.0-7.0","7","[""img/0864/1d15626a-2f7c-410f-819c-0fa2c967e95e.jpg"",""img/0864/9b2490c5-a282-400a-9736-e1a0ecbf1cb7.jpg""]","",""
"","7231","similarity","14","200530","0.0-6.0-8.0","1","[""img/0757/a3620c04-efdc-4b42-940c-806958d1351e.jpg"",""img/0881/20af39f5-373d-4a55-a437-2dc4c0382c46.jpg""]","",""
"","4782","similarity","15","206339","0.0-6.0-9.0","1","[""img/0886/aef00ed5-e288-47bf-b31e-512d7e762ea2.jpg"",""img/0760/237fa1c2-d59d-4475-8d1e-f9a4eb71f989.jpg""]","",""
"","8047","similarity","16","215391","0.0-6.0-10.0","2","[""img/0884/5085d424-b3f5-461b-a1c7-f7ca55abcf4f.jpg"",""img/0883/903939ef-a67c-40d3-841d-52555815cd88.jpg""]","",""
"","11658","similarity","17","228061","0.0-6.0-11.0","1","[""img/0874/93d1f8dc-acf2-4f03-bd8d-8ec35df276ed.jpg"",""img/0862/1c20f772-3a51-4a80-aac0-f57dc9f86c28.jpg""]","",""
"","4291","similarity","18","233366","0.0-6.0-12.0","1","[""img/0862/064818ee-13d5-4618-bb24-21c7368ea278.jpg"",""img/0875/f87b67d7-c33e-40d1-b281-248c4be1cb6e.jpg""]","",""
"","7818","similarity","19","242194","0.0-6.0-13.0","1","[""img/0875/a4935837-7d3c-4df6-88c1-36a94d4991ca.jpg"",""img/0757/014ee4a8-8069-4b08-ac1c-04230da90244.jpg""]","",""
"","3493","similarity","20","246692","0.0-6.0-14.0","1","[""img/0875/e7e66b13-b573-431e-b85e-288ce04a35a3.jpg"",""img/0860/e8b8c51e-1834-4875-8b61-6c5bc9b178bd.jpg""]","",""
"","7573","similarity","21","255275","0.0-6.0-15.0","2","[""img/0860/61fb959d-d4d9-4de4-9e4e-4fa62b4cfcd5.jpg"",""img/0881/344de456-b358-4887-bd0e-e4c3278af887.jpg""]","",""
"","7832","similarity","22","264116","0.0-6.0-16.0","2","[""img/0885/fbbfaacd-e49b-4d37-a2f9-fcaffa58f26f.jpg"",""img/0884/a416b0d1-f903-4935-b89f-99c29683752b.jpg""]","",""
"","5507","similarity","23","270647","0.0-6.0-17.0","7","[""img/0761/00a8e7ae-d8da-4cba-8969-1dfb943a2aa2.jpg"",""img/0761/176fde97-0334-4d2b-8a7a-38960c2528f3.jpg""]","",""
"","5517","similarity","24","277168","0.0-6.0-18.0","2","[""img/0760/fe62dd62-331c-4317-8af2-f1c816871fee.jpg"",""img/0864/da39ad34-04e0-40d4-a724-c08d53e0ea09.jpg""]","",""
"","3071","similarity","25","281246","0.0-6.0-19.0","1","[""img/0864/5f33e097-23e3-4002-882d-76e8cb15f451.jpg"",""img/0875/5a1e5100-0d94-4fec-bbe9-ca9894d2cf8e.jpg""]","",""
"","7045","similarity","26","289305","0.0-6.0-20.0","1","[""img/0874/eba003b4-cdab-4eee-8bc3-f064c7d94165.jpg"",""img/0884/9b1b7885-1502-448f-9b20-ddc19aa5456f.jpg""]","",""
"","5139","similarity","27","295458","0.0-6.0-21.0","5","[""img/0885/62bd11a8-7059-4cc2-b06d-4700688b313f.jpg"",""img/0866/c446214b-a368-4c65-ae39-ea46894256ab.jpg""]","",""
"","5686","similarity","28","302167","0.0-6.0-22.0","6","[""img/0868/8b0b8473-e2c0-4331-aa56-c3a5c29369da.jpg"",""img/0868/4e626425-63c8-484a-8a1d-e66ee4e0bef8.jpg""]","",""
"","3316","similarity","29","306495","0.0-6.0-23.0","1","[""img/0757/cb7ca802-27ac-4a1d-996f-bd21b96d6244.jpg"",""img/0756/bb3f0571-641e-4d5b-b528-672892c37030.jpg""]","",""
"","4743","similarity","30","312245","0.0-6.0-24.0","7","[""img/0875/03c3c331-738b-4446-af92-3d7386b08c2e.jpg"",""img/0875/dbdd643e-6d0e-4a5c-ab57-b9c29b9c981a.jpg""]","",""
"","7070","similarity","31","320330","0.0-6.0-25.0","1","[""img/0761/1725cacb-5f86-4b47-a5c0-3c36cd981588.jpg"",""img/0866/9b38d691-1802-4959-ab3f-fc902f0e4ea6.jpg""]","",""
"","4348","similarity","32","325695","0.0-6.0-26.0","1","[""img/0866/11a1d141-be5e-443c-98c1-a9d4d9e3dec0.jpg"",""img/0758/2fa3e613-e676-4e6e-bd12-705327eeb3e1.jpg""]","",""
"","7001","similarity","33","333707","0.0-6.0-27.0","1","[""img/0758/6e95579b-5166-487c-b8cb-e417c6a218e3.jpg"",""img/0875/8521fd58-3b1e-4dc5-97ae-804edfa6734a.jpg""]","",""
"","5004","similarity","34","339715","0.0-6.0-28.0","2","[""img/0958/bb684a39-afef-4125-9f70-b5ad830ba316.jpg"",""img/0757/94c7f207-1115-4451-b22b-1f74b3661208.jpg""]","",""
"","4815","similarity","35","345542","0.0-6.0-29.0","2","[""img/0873/c4b47588-9c66-4401-aefc-cf9481d5fa85.jpg"",""img/0883/3835edeb-1d59-4781-b10f-c26b9eaf6fd1.jpg""]","",""
"","6457","similarity","36","353018","0.0-6.0-30.0","5","[""img/0868/4bd5105a-d2c3-4f82-8c80-57196106ba53.jpg"",""img/0875/d59ff733-eaff-4ee2-9443-06954dd0bcb6.jpg""]","",""
"","3002","similarity","37","357031","0.0-6.0-31.0","1","[""img/0884/ee845634-cd54-4c06-95a9-962122ef8712.jpg"",""img/0862/5d887e9f-89e2-4ebc-80a0-6d46fe6480db.jpg""]","",""
"","3607","similarity","38","361653","0.0-6.0-32.0","1","[""img/0884/a8f7b854-0010-4c7a-a8fb-b1b1dc1f1ba1.jpg"",""img/0864/c3b63e8f-ea39-4d70-a1f2-b3fe4be8eb75.jpg""]","",""
"","4947","similarity","39","367611","0.0-6.0-33.0","2","[""img/0883/122548fc-b3cc-445b-b7c0-04794df6d11d.jpg"",""img/0958/86d1a76d-f067-4e36-9ab5-13da78c97c0e.jpg""]","",""
"","2890","similarity","40","371508","0.0-6.0-34.0","1","[""img/0864/6e846d43-94a6-4b37-a268-65eda979f052.jpg"",""img/0756/b6e235f7-211b-4a2b-a7b8-393e5ec7351b.jpg""]","",""
"","7254","similarity","41","379778","0.0-6.0-35.0","2","[""img/0874/ca23d307-fc00-4d7d-9106-584c6eb21b4d.jpg"",""img/0758/65d426d6-3ff6-415d-8654-a43b83ecc4fe.jpg""]","",""
"","3077","similarity","42","383867","0.0-6.0-36.0","1","[""img/0886/d1e40478-2fe0-404f-8409-920da98a96a2.jpg"",""img/0862/de9ad88c-b522-430a-8ee9-eb06a9f85df5.jpg""]","",""
"","2627","similarity","43","387496","0.0-6.0-37.0","1","[""img/0862/f188d4f0-76a4-4102-818c-a209969d73a5.jpg"",""img/0885/5225e532-2812-41d9-8ef0-0fbfc612784e.jpg""]","",""
"","3965","similarity","44","392475","0.0-6.0-38.0","2","[""img/0758/6cd8c362-ae2a-41eb-80a3-3a4f7ace1530.jpg"",""img/0864/49150900-7f25-4ce8-8d10-9b47a71d1997.jpg""]","",""
"","4262","similarity","45","397748","0.0-6.0-39.0","2","[""img/0873/b1e2e09f-ad9a-433e-818f-56dd2f1cb09c.jpg"",""img/0867/85a96c62-548f-4994-9553-819e03c3135a.jpg""]","",""
"","9347","similarity","46","408114","0.0-6.0-40.0","2","[""img/0958/acbadc39-e665-446d-b98f-ccd0ef3223d6.jpg"",""img/0884/baabff07-71d8-424e-ac29-644768380941.jpg""]","",""
"","9370","similarity","47","428840","0.0-6.0-41.0","5","[""img/0873/0c7f3d86-efda-4809-aac4-256ba01e0536.jpg"",""img/0873/7dddc95f-ca6e-4d15-99a0-0e329ec6888e.jpg""]","",""
"","5574","similarity","48","435427","0.0-6.0-42.0","1","[""img/0886/97243e18-4dba-4af8-b49f-b3b635c90ac4.jpg"",""img/0758/ddc336e9-a8b6-4bb9-937a-c7e25e0e9250.jpg""]","",""
"","5959","similarity","49","442393","0.0-6.0-43.0","2","[""img/0883/b5e903b5-bc7f-421c-bf3e-245779ac90c9.jpg"",""img/0874/99f6563c-8a8d-4c1c-a41d-667b618c3fd5.jpg""]","",""
"","5052","similarity","50","448469","0.0-6.0-44.0","2","[""img/0881/609a5e93-38b5-4940-8627-2bf8fad7f802.jpg"",""img/0873/d39b1731-1669-4c96-b5c6-682b30e287ee.jpg""]","",""
"","3034","similarity","51","452512","0.0-6.0-45.0","1","[""img/0867/5e07b34d-b40f-4b1c-ac10-49975bace45f.jpg"",""img/0757/86df581e-81a2-4205-95e3-1ea87cea1f36.jpg""]","",""
"","7019","similarity","52","460549","0.0-6.0-46.0","2","[""img/0866/8efcaa46-83ab-4dee-a35f-850402aa21ae.jpg"",""img/0874/c0378dac-9370-439a-8b79-db27c96fb390.jpg""]","",""
"","4781","similarity","53","466335","0.0-6.0-47.0","7","[""img/0886/c6c81122-f4bf-46f4-968b-167f8ed0cab3.jpg"",""img/0886/9f186bd5-d48b-4cc2-9206-be67c392faa9.jpg""]","",""
"","5328","similarity","54","472688","0.0-6.0-48.0","1","[""img/0883/1f394dd2-551c-4c8b-af82-f6a6fbe567bb.jpg"",""img/0860/87039971-2210-4aab-93c0-8e9b5f1655b2.jpg""]","",""
"","2741","similarity","55","476448","0.0-6.0-49.0","1","[""img/0860/9593362c-9fe5-4d12-9735-6000a11f6aa5.jpg"",""img/0756/792f9475-979d-4787-b7dc-8a0d02f6e25f.jpg""]","",""
"","4016","similarity","56","481481","0.0-6.0-50.0","1","[""img/0860/99c589b9-9140-4d17-90c0-b344323edcda.jpg"",""img/0757/c190d19b-2091-436c-a92b-a48c253ac955.jpg""]","",""
"","3550","similarity","57","486035","0.0-6.0-51.0","7","[""img/0756/00b775eb-fe41-49b2-92e9-a9955cf1042b.jpg"",""img/0756/8d47d83d-7e73-4d35-94ec-d814380febc6.jpg""]","",""
"","5544","similarity","58","492586","0.0-6.0-52.0","5","[""img/0875/42910c99-5463-450a-a0f8-d4d060a11455.jpg"",""img/0866/386235d2-6857-41e7-88a8-25cfc3430025.jpg""]","",""
"","77088","similarity","59","570685","0.0-6.0-53.0","1","[""img/0756/aa551726-e765-4729-82aa-99d700d388ae.jpg"",""img/0758/d41c06bf-ebaf-454b-91c6-1a17f917b659.jpg""]","",""
"","7252","similarity","60","578952","0.0-6.0-54.0","2","[""img/0761/d5370a68-6c8a-486f-b2bf-330e2ad6b397.jpg"",""img/0884/a6389ab4-3291-4434-9b91-eeae3b04fce4.jpg""]","",""
"","4103","similarity","61","584075","0.0-6.0-55.0","1","[""img/0760/111aecf1-147c-4227-90e0-9ed3a75e4e16.jpg"",""img/0867/c66898ba-b71b-4d50-84f9-f7f84853a98d.jpg""]","",""
"","6464","similarity","62","591544","0.0-6.0-56.0","3","[""img/0866/945c6710-d15b-4a5b-a8f6-69af0850357f.jpg"",""img/0884/fb8b0101-bfd2-462b-a942-d3202a69dd18.jpg""]","",""
"","2755","similarity","63","595310","0.0-6.0-57.0","1","[""img/0756/8f917ff3-2930-4f81-812b-19555fe71261.jpg"",""img/0761/8e379ec1-757d-4427-a0ff-d4efdd6a50c4.jpg""]","",""
"","3366","similarity","64","599693","0.0-6.0-58.0","1","[""img/0867/26611f4e-d694-4460-b7e2-43c62753ddc3.jpg"",""img/0860/c5ccd1a4-4bb7-48e1-9b25-72cfaf06909b.jpg""]","",""
"","4364","similarity","65","605061","0.0-6.0-59.0","2","[""img/0881/4da99fdd-1f40-4bbb-8e21-8833eef313f5.jpg"",""img/0758/a709631e-3705-4725-ac40-f0d916924f08.jpg""]","",""
"","6579","similarity","66","612651","0.0-6.0-60.0","2","[""img/0761/b1819a20-de99-463b-9840-60a4b8faa30d.jpg"",""img/0758/7ffbc76b-1fc1-432c-8f7e-9ec8d1b3f643.jpg""]","",""
"","3102","similarity","67","616774","0.0-6.0-61.0","1","[""img/0958/d4138705-0a9d-4141-9af9-205e69367c44.jpg"",""img/0875/2e13d160-eea1-416b-aff1-d37ab99ecc1d.jpg""]","",""
"","2535","similarity","68","620315","0.0-6.0-62.0","1","[""img/0886/1e8c0f89-c766-41c9-b522-83c342048f34.jpg"",""img/0864/0f537697-a314-47c3-a8cc-8df23b7e536c.jpg""]","",""
"","4770","similarity","69","626098","0.0-6.0-63.0","1","[""img/0756/10fa3aa2-6100-492a-826e-febb6513cf13.jpg"",""img/0874/3f471690-9788-4d03-90c7-f615aecef149.jpg""]","",""
"","5710","similarity","70","632817","0.0-6.0-64.0","1","[""img/0758/a085b443-b5d7-4cb2-9ad4-b9dab0fc23f1.jpg"",""img/0885/c840cf2c-c95d-4a08-b3c2-044d1ea946a7.jpg""]","",""
"","8160","similarity","71","641997","0.0-6.0-65.0","1","[""img/0760/cbd28974-989a-49dd-b631-42de146d7e6f.jpg"",""img/0958/54f27d86-00c0-46b2-b2c9-050c9cc60fe0.jpg""]","",""
"","3459","similarity","72","646471","0.0-6.0-66.0","1","[""img/0884/0b4cf8d4-4c8f-4312-a794-f99e01679176.jpg"",""img/0881/0c7068da-d0d9-4103-bda1-74ef7a2b32c3.jpg""]","",""
"","3155","similarity","73","650630","0.0-6.0-67.0","1","[""img/0864/ef9cbca0-4be8-435d-ad49-977259e80409.jpg"",""img/0873/d74e4aa9-420d-48a3-a42f-30a3481536ae.jpg""]","",""
"","3487","similarity","74","655127","0.0-6.0-68.0","1","[""img/0862/92f0146c-20c4-482e-aef5-adb693790338.jpg"",""img/0758/b76ceca7-95ac-46e4-ac13-da02c8e93be9.jpg""]","",""
"","2619","similarity","75","658766","0.0-6.0-69.0","7","[""img/0757/443a1d16-5d59-4e77-a670-d6190157c319.jpg"",""img/0757/8fdf4047-c2dc-42bc-9724-c35bd113f1dc.jpg""]","",""
"","5064","similarity","76","664841","0.0-6.0-70.0","5","[""img/0860/8fdba999-b946-4c7d-9891-336018b563ef.jpg"",""img/0862/fb26cb07-d5a9-4653-813c-f41609f26cd5.jpg""]","",""
"","4526","similarity","77","670387","0.0-6.0-71.0","1","[""img/0860/17b44a7d-c5ca-479f-9e87-f65a64f5c80e.jpg"",""img/0884/ffcce05a-b38d-4570-b3dc-751e89b7790a.jpg""]","",""
"","4978","similarity","78","676368","0.0-6.0-72.0","2","[""img/0883/29cba870-24df-4a0b-85cd-b680316ffe3d.jpg"",""img/0866/6f2a90d7-14f1-4f1b-bd64-fc0af6b9fe44.jpg""]","",""
"","3925","similarity","79","681310","0.0-6.0-73.0","1","[""img/0866/02f5e6b9-52b7-448c-9708-5b460d0c9a23.jpg"",""img/0886/451550d7-6ff9-42b5-938c-9e20ee960bf6.jpg""]","",""
"","5102","similarity","80","687426","0.0-6.0-74.0","2","[""img/0958/d3775867-a8f6-42ba-86ff-f86e85edba90.jpg"",""img/0761/bd083642-a9bc-4877-bfc6-63bd03d33e81.jpg""]","",""
"","6580","similarity","81","695027","0.0-6.0-75.0","2","[""img/0875/ebf7653f-ff45-4e9f-af58-2c042ab3cd2b.jpg"",""img/0756/314a157e-e6d3-4447-a98f-8fde8f810f0c.jpg""]","",""
"","3270","similarity","82","699309","0.0-6.0-76.0","1","[""img/0958/58b7811e-d3f6-4e4d-befb-86e063d13a43.jpg"",""img/0885/a8cbb477-19ef-45ef-8f48-9667aec40bd1.jpg""]","",""
"","4070","similarity","83","704389","0.0-6.0-77.0","1","[""img/0868/d6d1f30d-4323-435a-b194-7892521bc57e.jpg"",""img/0883/d719aab0-0280-4c06-87e5-b9db7454965c.jpg""]","",""
"","3098","similarity","84","708494","0.0-6.0-78.0","1","[""img/0862/57b6f83f-c763-4858-830d-102f97bfefbf.jpg"",""img/0760/c76e8a36-1537-42e0-9779-13c2b6a89725.jpg""]","",""
"","2390","similarity","85","711891","0.0-6.0-79.0","1","[""img/0885/89d8c48b-8bde-42ed-ae71-de669b15ea34.jpg"",""img/0761/6b42b402-9e0f-4179-9e10-660b2c07626b.jpg""]","",""
"","4495","similarity","86","717397","0.0-6.0-80.0","3","[""img/0862/847e5208-38ec-4f36-949c-296cdd7424ee.jpg"",""img/0864/afcba0a3-7e27-4757-b254-e9f05fad27e2.jpg""]","",""
"","2675","similarity","87","721079","0.0-6.0-81.0","7","[""img/0758/caa93da2-9edf-49fa-96b9-32dedd8f5078.jpg"",""img/0758/d57c2592-a317-4f63-91be-91a3a9afd222.jpg""]","",""
"","5649","similarity","88","727734","0.0-6.0-82.0","1","[""img/0862/ee3b7bff-4a70-4e84-9bea-4a565e456acb.jpg"",""img/0873/33552b07-bdb8-423e-88b4-25a37f159c6d.jpg""]","",""
"","3034","similarity","89","744120","0.0-6.0-83.0","1","[""img/0760/ed469d78-34af-4ea9-a969-05ea527438a2.jpg"",""img/0757/0668efad-1c92-425c-9aa9-2bbe833fd777.jpg""]","",""
"","5132","similarity","90","750262","0.0-6.0-84.0","1","[""img/0867/f26f6b60-f772-4f4c-95a4-addc62cfd692.jpg"",""img/0881/e6746727-7f89-47ec-b939-d98abe78372d.jpg""]","",""
"","3030","similarity","91","754319","0.0-6.0-85.0","1","[""img/0885/5a47e19f-19b4-4545-bf47-b508cb65da6a.jpg"",""img/0886/b8648eb5-de71-41ab-825d-848e51be8c1b.jpg""]","",""
"","5188","similarity","92","760509","0.0-6.0-86.0","1","[""img/0866/07c9c966-3c8d-40e7-8128-92b2acbaed5d.jpg"",""img/0864/5f74a653-3bdc-4308-8cca-ac667dc22e1f.jpg""]","",""
"","8030","similarity","93","769553","0.0-6.0-87.0","6","[""img/0874/a82926a3-0b43-4add-803c-d5f9ea7798ee.jpg"",""img/0881/dea58fad-b4f1-41d9-bd3f-916eff19a3fd.jpg""]","",""
"","3721","similarity","94","774298","0.0-6.0-88.0","1","[""img/0866/f756f7d1-9ad8-4a34-9ef6-7a443d705bfe.jpg"",""img/0760/c7d43bfd-465f-4f4e-8dc1-ae4cd3d2c1de.jpg""]","",""
"","3311","similarity","95","778627","0.0-6.0-89.0","1","[""img/0867/a749dddb-69f0-44a6-acdc-2bf295cf6dcc.jpg"",""img/0884/989ec8e3-5e41-4055-b0b5-3d65b9c44917.jpg""]","",""
"","4757","similarity","96","784391","0.0-6.0-90.0","1","[""img/0757/ec40956b-ed8b-4970-b87f-9b7c25cd5be6.jpg"",""img/0862/99a99e39-8355-44ec-b993-e7bcec111e1c.jpg""]","",""
"","5181","similarity","97","790580","0.0-6.0-91.0","1","[""img/0867/c71dc569-f49c-4397-8381-68b8d726736d.jpg"",""img/0761/53a65b48-8b0c-4a1d-9ebb-a27a259c5bc6.jpg""]","",""
"","4797","similarity","98","796404","0.0-6.0-92.0","1","[""img/0868/6a28c3b0-3d76-498a-9fb7-ddafc665eca8.jpg"",""img/0958/6e602e13-8029-4642-bce0-8deffd0dc686.jpg""]","",""
"","8204","similarity","99","805612","0.0-6.0-93.0","2","[""img/0874/995f0332-0439-4eb4-add3-957335dbf6d9.jpg"",""img/0864/4bd81bc6-c13d-46df-95a9-485886dc7c1b.jpg""]","",""
"","12515","similarity","100","819151","0.0-6.0-94.0","2","[""img/0760/36c930c0-2660-41c1-a356-77dafb18ae83.jpg"",""img/0873/e5374873-a1a7-4689-a04c-a3b959992244.jpg""]","",""
"","10477","similarity","101","830643","0.0-6.0-95.0","2","[""img/0868/293079b8-7e0c-4afd-a390-1e5d35fe3ded.jpg"",""img/0873/c2a7452d-a271-4207-81ce-bda281dc0297.jpg""]","",""
"","4870","similarity","102","836533","0.0-6.0-96.0","1","[""img/0860/5383b320-1518-4095-a58e-5cc1ae30b64c.jpg"",""img/0761/5747fedf-15f2-47fe-87c8-ff646dd66a5f.jpg""]","",""
"","4530","similarity","103","842069","0.0-6.0-97.0","1","[""img/0862/ad593cc7-cabe-4bb7-8e14-8a447a0717b4.jpg"",""img/0883/512a797a-315b-439e-9a9d-855929351fd0.jpg""]","",""
"","5124","similarity","104","848222","0.0-6.0-98.0","1","[""img/0757/fd3c82c8-3311-4fae-bcec-10559587910a.jpg"",""img/0884/7ae02e9d-46a4-4124-bcc2-cad90d7ef9f9.jpg""]","",""
"","7222","similarity","105","856445","0.0-6.0-99.0","3","[""img/0867/ac1797e4-8afc-48fe-b252-86d1defb1cca.jpg"",""img/0756/9a7a2119-24a3-431f-95e6-62f596bf88e2.jpg""]","",""
"","4319","similarity","106","861788","0.0-6.0-100.0","2","[""img/0958/edfd5bc1-8c8f-489a-84c3-908436ef76cc.jpg"",""img/0756/09fde3d3-27c5-435e-b68f-5410beb04e99.jpg""]","",""
"","4089","similarity","107","866883","0.0-6.0-101.0","7","[""img/0760/317fc071-99e6-43cb-9099-2e50aa79ccc2.jpg"",""img/0760/135d76ab-2bf3-4dc9-8509-92983dc9893d.jpg""]","",""
"","4945","similarity","108","872842","0.0-6.0-102.0","2","[""img/0873/c3ff3b70-fb22-42f2-883c-3ecffd77cb4b.jpg"",""img/0875/3ecb367d-e9eb-4826-8aaa-7aa72fb98019.jpg""]","",""
"","2644","similarity","109","876502","0.0-6.0-103.0","7","[""img/0884/3c61ea12-a408-47ce-98aa-b14e0f6d4591.jpg"",""img/0884/d9185264-7f01-43b2-be7f-eed1a0f0f2e8.jpg""]","",""
"","9102","similarity","110","886617","0.0-6.0-104.0","2","[""img/0873/b509aa81-b1d7-4d50-8aef-9c7b725c3157.jpg"",""img/0885/1cd940ef-9720-4a04-8fa1-1dd3a39ecdd6.jpg""]","",""
"","3379","similarity","111","891013","0.0-6.0-105.0","1","[""img/0883/daaa1a6f-c322-46f6-b6a6-db2c9496d710.jpg"",""img/0875/99698b4d-b4a1-44bc-8c83-8ea755bbbf61.jpg""]","",""
"","2795","similarity","112","894818","0.0-6.0-106.0","1","[""img/0864/0116ca98-293d-4fa6-a93b-5a6144ef64cc.jpg"",""img/0867/a498eef3-9fa4-4ab2-9778-4ae82ac40dc5.jpg""]","",""
"","2580","similarity","113","898400","0.0-6.0-107.0","1","[""img/0958/ba5ed153-96de-4f61-b7d9-87a478c8972c.jpg"",""img/0860/e14d67c1-6d92-4f1e-9257-c8607159c19c.jpg""]","",""
"","10111","similarity","114","909526","0.0-6.0-108.0","3","[""img/0885/1e66fe61-15d5-42b1-86aa-dbfd13613f5c.jpg"",""img/0756/c211414a-203e-4a7f-9412-5abddea2af11.jpg""]","",""
"","3167","similarity","115","913698","0.0-6.0-109.0","1","[""img/0883/cc3df660-426e-452e-ac50-3a3b09dc4b65.jpg"",""img/0885/8960bf05-34df-4a86-a9b2-6087c70e61d3.jpg""]","",""
"","4324","similarity","116","919033","0.0-6.0-110.0","7","[""img/0867/6e19c858-b606-45b2-a4c6-910a73f1d82c.jpg"",""img/0867/f8159067-056c-41f1-a136-c529fe5e970a.jpg""]","",""
"","4033","similarity","117","924076","0.0-6.0-111.0","2","[""img/0881/405484ae-0d00-4b05-bc57-6420a36adfac.jpg"",""img/0760/9ddd6958-7349-45d6-b5bc-4a5911960c35.jpg""]","",""
"","2603","similarity","118","927704","0.0-6.0-112.0","1","[""img/0881/db77fe00-aeb0-4d1d-aa66-f3a96fd077e4.jpg"",""img/0868/fd307a36-9a3a-47d7-ab7c-f810d0b35040.jpg""]","",""
"","2236","similarity","119","930955","0.0-6.0-113.0","1","[""img/0875/fb732ab5-013a-4366-9f65-27811ed157e9.jpg"",""img/0761/af21c992-a721-45fb-bee7-f50c0f676c30.jpg""]","",""
"","8235","similarity","120","940207","0.0-6.0-114.0","1","[""img/0756/4fcf5ea1-c2e0-44b9-b07f-26cbf07e1801.jpg"",""img/0866/d266fece-59b3-46fa-b69f-96f6efb81b59.jpg""]","",""
"","3211","similarity","121","944426","0.0-6.0-115.0","1","[""img/0884/7f9cc898-36bc-49ec-8b1a-01065d9c0062.jpg"",""img/0886/0f9715c1-b2e4-418e-bf9b-126cc9e70dc6.jpg""]","",""
"","5541","similarity","122","950977","0.0-6.0-116.0","1","[""img/0756/b7869208-7169-455d-835f-31926317dd95.jpg"",""img/0881/c843e210-bdfe-4a7c-8bbe-fcea1f90fe1c.jpg""]","",""
"","3955","similarity","123","955949","0.0-6.0-117.0","1","[""img/0760/868961d8-3272-4d3c-9c8b-9d183315cabc.jpg"",""img/0875/5a7c4e35-6514-4e12-8879-d16071da4cd6.jpg""]","",""
"","2587","similarity","124","959542","0.0-6.0-118.0","1","[""img/0958/96f89270-febc-4f09-b8c3-53a249ff00ea.jpg"",""img/0866/a04d37f0-99dd-478a-b6c6-58b215138f84.jpg""]","",""
"","4338","similarity","125","964893","0.0-6.0-119.0","1","[""img/0867/1719a35d-f085-48c0-9099-16c94fe418b4.jpg"",""img/0874/adf9a8f1-c40b-402b-b95b-1e85a54a7b62.jpg""]","",""
"","2893","similarity","126","968810","0.0-6.0-120.0","1","[""img/0883/dc95de8d-9297-41ec-b3ac-3f8b060260e3.jpg"",""img/0757/efa4466e-2951-4af9-b321-85458a89c2a7.jpg""]","",""
"","3028","similarity","127","972846","0.0-6.0-121.0","1","[""img/0874/29830da7-be5f-44e5-b141-652a0ccf7269.jpg"",""img/0886/abd8dd83-d8ee-4003-b4d2-b4045220a578.jpg""]","",""
"","2813","similarity","128","976664","0.0-6.0-122.0","1","[""img/0873/ac86dbfd-0442-4dec-9d10-37d7093f5a52.jpg"",""img/0761/aebad236-1f4a-4bc2-a74d-d92b7e226316.jpg""]","",""
"","7878","similarity","129","985556","0.0-6.0-123.0","1","[""img/0875/2c361b79-c3d1-4eda-812e-bf03192407bf.jpg"",""img/0884/37ee4afa-34a0-4da2-bdb0-fcaff43dcdb6.jpg""]","",""
"","4136","similarity","130","990705","0.0-6.0-124.0","1","[""img/0757/31d8ee3d-1b79-4d6a-9347-f91c87c00f92.jpg"",""img/0868/83b4350a-3b70-4cea-b7f5-b5b56f3050a8.jpg""]","",""
"","2528","similarity","131","998945","0.0-6.0-125.0","1","[""img/0886/48077111-b86b-4612-910f-90a5d168d77f.jpg"",""img/0883/724f020e-39d9-495c-abe1-b2e4504be9bc.jpg""]","",""
"","11755","similarity","132","1011721","0.0-6.0-126.0","2","[""img/0868/c8ac40c7-6904-4e13-8d61-c75d3052dc4e.jpg"",""img/0760/5f9bd780-65e3-43ab-a3a3-73a1cc87d5a2.jpg""]","",""
"","3988","similarity","133","1016720","0.0-6.0-127.0","7","[""img/0881/f6bd3b96-dc40-4e99-8681-bc3a35cf896d.jpg"",""img/0881/54ea8e77-c7e5-4197-b7fa-00b7020849a7.jpg""]","",""
"","2578","similarity","134","1020323","0.0-6.0-128.0","1","[""img/0760/39d75e1e-0645-4f23-a2ca-3bbefac19d69.jpg"",""img/0860/71e1aad0-2cdf-43bb-94a4-a8c016997c30.jpg""]","",""
"","3631","similarity","135","1024964","0.0-6.0-129.0","1","[""img/0864/a248adb3-c70b-4652-b7a3-776d2a1e904b.jpg"",""img/0885/d2276b26-e91a-4f19-a818-cbeb297ed884.jpg""]","",""
"","10731","similarity","136","1036715","0.0-6.0-130.0","1","[""img/0864/f92649a2-0590-4d31-9a7a-1bfb81666a2d.jpg"",""img/0757/10030bb1-70b8-4889-a8a5-ab50e145704d.jpg""]","",""
"","4846","similarity","137","1042565","0.0-6.0-131.0","1","[""img/0760/812c848f-be21-4059-abe5-8c4f4ac9ad0f.jpg"",""img/0883/cc2bb2c6-18f1-414f-98cc-6cd683173ce4.jpg""]","",""
"","2703","similarity","138","1046290","0.0-6.0-132.0","7","[""img/0885/05af267f-b982-498d-9807-ccd54689f9b4.jpg"",""img/0885/f4ed5442-1f5c-4a69-abe6-8336ed11ec77.jpg""]","",""
"","6385","similarity","139","1053695","0.0-6.0-133.0","1","[""img/0860/31ff6436-98bf-4652-bed2-40f627229568.jpg"",""img/0868/7b212364-ff5f-4e28-9241-7eb6ea00161b.jpg""]","",""
"","2733","similarity","140","1057448","0.0-6.0-134.0","1","[""img/0867/aa05d113-fc19-4756-a8eb-7878f580bc92.jpg"",""img/0886/789f5d23-84b8-499a-ae1e-20c6309a06ae.jpg""]","",""
"","4150","similarity","141","1062612","0.0-6.0-135.0","1","[""img/0756/b8d6aa83-8673-4e0d-be72-b3da2bae7a6d.jpg"",""img/0886/625c7dfa-3fa1-4166-80f0-229eb416b04f.jpg""]","",""
"","4656","similarity","142","1068268","0.0-6.0-136.0","1","[""img/0884/d8ffab77-40df-44ba-bf27-70815b052250.jpg"",""img/0868/e0aff734-077f-40dd-9781-74821abd3621.jpg""]","",""
"","3683","similarity","143","1072959","0.0-6.0-137.0","7","[""img/0958/644719ec-1690-4af2-a63f-0b6467c3791e.jpg"",""img/0958/5a91b0e8-8f60-4625-b88c-d6e55b4d7d93.jpg""]","",""
"","7080","similarity","144","1081064","0.0-6.0-138.0","1","[""img/0886/9b0bffbe-9237-404d-a0ba-a1982e0814c7.jpg"",""img/0873/6110910a-7895-4b6a-af51-12486a4595a3.jpg""]","",""
"","3318","similarity","145","1085388","0.0-6.0-139.0","1","[""img/0758/e1ba5e53-addc-436a-b428-d34fc1b130dc.jpg"",""img/0873/1d1be182-3bb2-4efd-8543-d70b8db7beef.jpg""]","",""
"","3755","similarity","146","1090156","0.0-6.0-140.0","1","[""img/0873/226317e0-f0e7-42ea-907b-058cb1ad519a.jpg"",""img/0756/ba3f2106-0416-46e6-a788-1b50d9f92bda.jpg""]","",""
"","3944","similarity","147","1095112","0.0-6.0-141.0","1","[""img/0868/09a9ef4d-d000-4cfa-a6aa-ebec7c2edeb4.jpg"",""img/0862/47ed5efd-4ec9-4b74-bb4e-a5f5cf0c3e7d.jpg""]","",""
"","8284","similarity","148","1104410","0.0-6.0-142.0","1","[""img/0881/445edb15-bd7f-4af3-8bd5-c6ad9677bb31.jpg"",""img/0862/a0a3a7ba-7798-46a3-b4ca-05e1f6e581d0.jpg""]","",""
"","6887","similarity","149","1112322","0.0-6.0-143.0","5","[""img/0885/8cdf3204-e0f1-482b-9546-5edca3d81376.jpg"",""img/0867/bf560d4f-dee3-4f11-a385-705cc1aa5f3c.jpg""]","",""
"","3020","similarity","150","1116366","0.0-6.0-144.0","7","[""img/0883/599aacc5-bb0f-4dea-852c-9a27727eb0b9.jpg"",""img/0883/0e1ed5c7-0881-4bfd-b12f-6a53500e74f0.jpg""]","",""
"","2899","similarity","151","1120280","0.0-6.0-145.0","1","[""img/0874/8cdb1c07-1c32-46d2-981c-3636560fa6e5.jpg"",""img/0873/b02f9cce-7f58-4f1b-baed-50fee9f0a21f.jpg""]","",""
"","3382","similarity","152","1124663","0.0-6.0-146.0","1","[""img/0757/c05f53f3-811c-4a3b-b848-a27b80b8fd53.jpg"",""img/0758/7fba58df-2a7a-4b76-8a8f-62739f97f271.jpg""]","",""
"","3261","similarity","153","1128939","0.0-6.0-147.0","1","[""img/0883/68a56098-91b8-4c40-8827-7808704aa1bc.jpg"",""img/0756/2bc961e4-b35f-4cfe-ba02-6f14fe3bdc10.jpg""]","",""
"","9419","similarity","154","1139365","0.0-6.0-148.0","7","[""img/0867/179ab87a-8eac-4c52-a41f-2e48e3120f09.jpg"",""img/0866/be24ab58-230e-4db8-9f45-ff04c9aec6bb.jpg""]","",""
"","5728","similarity","155","1146108","0.0-6.0-149.0","1","[""img/0758/61d64021-9214-4951-bdf8-f871f9827cf9.jpg"",""img/0760/d87ebbb0-e718-4ab1-8882-e48253d6fd00.jpg""]","",""
"","2280","similarity","156","1149413","0.0-6.0-150.0","1","[""img/0757/acda7aee-6b29-463f-bf01-0d64d6a6ae2b.jpg"",""img/0761/ff3e024b-951d-4aca-a168-c09c6507525d.jpg""]","",""
"","5144","similarity","157","1155564","0.0-6.0-151.0","1","[""img/0761/e18d2113-1ed1-4a80-8171-4be5ee28d343.jpg"",""img/0874/ca76a855-4e77-4f2f-872a-0a718153e7ed.jpg""]","",""
"","3562","similarity","158","1160135","0.0-6.0-152.0","2","[""img/0761/b8f211c0-f640-43a2-b101-101774517d95.jpg"",""img/0760/4f024637-f98a-409a-baa0-fc4989d80667.jpg""]","",""
"","4907","similarity","159","1166046","0.0-6.0-153.0","7","[""img/0866/4a87911a-d5be-4d4e-ab8e-3d1f581bf507.jpg"",""img/0866/23a224f3-2012-4fc8-8e0f-3c36f8de27fd.jpg""]","",""
"","2717","similarity","160","1169774","0.0-6.0-154.0","1","[""img/0866/bf14b5bd-fb55-47db-86b9-4f8aeb9a6dad.jpg"",""img/0862/eefa5588-9efd-4591-aa5f-a2e17c7d7bcc.jpg""]","",""
"","2774","similarity","161","1173560","0.0-6.0-155.0","1","[""img/0756/5dba4151-3cf5-42f5-8dd9-7c6128318b01.jpg"",""img/0862/cdaed51d-9e2f-4807-801a-4663c40077e2.jpg""]","",""
"","3178","similarity","162","1177747","0.0-6.0-156.0","1","[""img/0860/4f695df5-afac-4da7-9875-fee39b0b24ad.jpg"",""img/0866/d493a2c8-66eb-44b4-be02-2f327b700b7c.jpg""]","",""
"","2684","similarity","163","1181446","0.0-6.0-157.0","1","[""img/0862/ba89835a-408c-480b-8594-ed4ffa97eb5c.jpg"",""img/0958/7168f8d3-e3ae-405a-93d0-64836d899932.jpg""]","",""
"","5134","similarity","164","1187599","0.0-6.0-158.0","1","[""img/0761/5ed865c0-8bfb-4310-9b47-690b3e450ca2.jpg"",""img/0868/1a62b2b2-18f5-466e-b564-5176a57c565e.jpg""]","",""
"","2361","similarity","165","1190967","0.0-6.0-159.0","1","[""img/0761/9199a691-d36e-4ece-a815-078384ea6f06.jpg"",""img/0886/e5903946-897c-4420-87c0-afee4100305c.jpg""]","",""
"","4569","similarity","166","1196542","0.0-6.0-160.0","1","[""img/0874/a3bc679d-619f-4db6-bb68-116dcb757d9c.jpg"",""img/0868/3a62db2d-97e9-44a3-b8e3-a48c6f0e423b.jpg""]","",""
"","3056","similarity","167","1200617","0.0-6.0-161.0","1","[""img/0860/4a022222-056d-461c-ab02-39fac9647552.jpg"",""img/0874/767f289c-9814-4496-803f-745cc8913d1f.jpg""]","",""
"","3123","similarity","168","1204755","0.0-6.0-162.0","1","[""img/0883/ab9b6977-0cdc-47a2-b180-494a5be181b2.jpg"",""img/0867/de92135f-5b65-4ed9-b245-188292c7c2f8.jpg""]","",""
"","7751","similarity","169","1213510","0.0-6.0-163.0","5","[""img/0758/7ee8bc8f-c40b-4b3a-84ec-3e83580622d4.jpg"",""img/0958/ef1b718f-ef8c-497f-80d7-42562aebf1a7.jpg""]","",""
"","2700","similarity","170","1217215","0.0-6.0-164.0","1","[""img/0873/ec150e40-b3ec-4dfe-ab38-bb3f248a1175.jpg"",""img/0757/a91bb71b-8c84-4999-8da7-f30e53ddc2a7.jpg""]","",""
"","11375","similarity","171","1229606","0.0-6.0-165.0","1","[""img/0873/b76d7003-814d-42b0-9a16-1399c4b0e706.jpg"",""img/0866/620cd1aa-0800-4414-8f6e-90342e7a99ad.jpg""]","",""
"","6354","similarity","172","1236973","0.0-6.0-166.0","3","[""img/0875/34132396-d896-4c2d-8087-646dd867e769.jpg"",""img/0867/12264664-1860-46df-8c21-162b9817cdda.jpg""]","",""
"","9250","similarity","173","1257392","0.0-6.0-167.0","7","[""img/0862/53a9cf7c-93c4-41b9-952f-07d17f7a17b2.jpg"",""img/0862/f23038d4-c366-4f70-979f-66b62362efa4.jpg""]","",""
"","2383","similarity","174","1260786","0.0-6.0-168.0","1","[""img/0875/5a716432-c6ca-4b1c-955a-2b8ac25198ee.jpg"",""img/0886/4d28f75a-a9c3-49dd-8aa8-00304af6e40b.jpg""]","",""
"","10371","similarity","175","1272174","0.0-6.0-169.0","3","[""img/0885/21b241a1-95da-4306-9cf2-cc52a784214a.jpg"",""img/0875/cff79b3a-a797-4393-9757-6275f999ec04.jpg""]","",""
"","2666","similarity","176","1275852","0.0-6.0-170.0","1","[""img/0862/fad1d7c1-8187-43c3-942a-0fc12183e48e.jpg"",""img/0867/f8488a47-94ee-4166-952c-44e16cf172f6.jpg""]","",""
"","4877","similarity","177","1281749","0.0-6.0-171.0","1","[""img/0884/e275ab3e-0948-43c3-8be7-a75271922185.jpg"",""img/0873/c91c05f8-fafd-4054-bcf1-f5ed1f0a18e8.jpg""]","",""
"","7230","similarity","178","1289993","0.0-6.0-172.0","2","[""img/0873/90b702a6-3dba-446a-9bba-a2ee096baf49.jpg"",""img/0958/822de3b9-e5fd-4b74-aeb1-7c40805b0717.jpg""]","",""
"","4183","similarity","179","1295186","0.0-6.0-173.0","1","[""img/0868/d98ca254-b195-477f-b57e-5760a2717db8.jpg"",""img/0758/20497cbe-ddae-489e-86e2-ab06985ed07c.jpg""]","",""
"","3534","similarity","180","1299731","0.0-6.0-174.0","1","[""img/0757/a7964b0f-aee3-4b4c-9cd1-c1c998c49fef.jpg"",""img/0874/bf14b896-e930-4fd9-9c05-2e83317a2773.jpg""]","",""
"","2490","similarity","181","1303232","0.0-6.0-175.0","1","[""img/0958/fd950403-e452-4018-8207-a9714addcd75.jpg"",""img/0867/98d8cd96-1476-4fe0-a3a3-04f875500a1b.jpg""]","",""
"","4947","similarity","182","1309196","0.0-6.0-176.0","1","[""img/0874/3ce41e7c-40c8-4d58-a546-171114521796.jpg"",""img/0760/dddcdfaf-2d02-4de9-a176-5705d0004b5a.jpg""]","",""
"","2760","similarity","183","1312976","0.0-6.0-177.0","1","[""img/0873/0d9b4403-7f26-46dc-b0b7-2b97b0a91b46.jpg"",""img/0860/29a21a9f-54bb-4093-ad3f-04823ceaa89f.jpg""]","",""
"","8439","similarity","184","1322429","0.0-6.0-178.0","5","[""img/0881/44e09805-5a25-4f17-a716-4ad4a331b174.jpg"",""img/0883/5716bfb3-e86c-42fe-8afa-58d226cb1aaa.jpg""]","",""
"","2572","similarity","185","1326015","0.0-6.0-179.0","1","[""img/0886/7164ac42-460f-4beb-9d5e-a1cfded3099c.jpg"",""img/0958/0a8f72c4-0c73-4d58-be6f-5e4613b87409.jpg""]","",""
"","4746","similarity","186","1331771","0.0-6.0-180.0","1","[""img/0864/87c467d3-abca-482f-ad80-3766c21b1bb3.jpg"",""img/0883/df1c6d22-bb1b-4eed-b4fe-eb5e46deacd4.jpg""]","",""
"","10220","similarity","187","1343001","0.0-6.0-181.0","4","[""img/0756/dbe25ae4-de3f-44b2-907f-6f2fc03ed1f0.jpg"",""img/0868/77091fc7-a590-4ebb-b915-fdb2483a2399.jpg""]","",""
"","4018","similarity","188","1348043","0.0-6.0-182.0","2","[""img/0884/3613aeb4-0028-4205-aea0-1ea28cb1f80e.jpg"",""img/0758/f61ecdf8-a7d4-4db0-b84d-be46f7cfaffc.jpg""]","",""
"","2446","similarity","189","1351491","0.0-6.0-183.0","1","[""img/0875/527ced51-8e53-4aab-ab05-86df219104c0.jpg"",""img/0874/85eb9b8a-c4c6-4e5a-b8e7-363a87a82054.jpg""]","",""
"","11954","similarity","190","1364465","0.0-6.0-184.0","4","[""img/0867/db7e032f-162b-46f5-ae67-2b29679adee4.jpg"",""img/0868/4a8a45ed-2c4f-421b-9564-409a33ecd26c.jpg""]","",""
"","3224","similarity","191","1368697","0.0-6.0-185.0","1","[""img/0881/f037e3b0-09cb-4a83-b2d9-6a71fe474e63.jpg"",""img/0885/517a9189-9623-4ed7-a37e-48788791e028.jpg""]","",""
"","3565","similarity","192","1373283","0.0-6.0-186.0","5","[""img/0864/b3c4e378-28f0-4699-9338-2a257b4bca04.jpg"",""img/0761/3599fa54-18f9-488e-b402-e851c43586ff.jpg""]","",""
"","4160","similarity","193","1378448","0.0-6.0-187.0","1","[""img/0885/fce9f22a-f769-477c-acee-a5ad8214f0a5.jpg"",""img/0874/2c9464dd-8a23-4baa-ac94-1ba3af5c15cc.jpg""]","",""
"","2726","similarity","194","1382188","0.0-6.0-188.0","1","[""img/0758/e38fd80d-18d0-42f3-b848-f930788e8bd7.jpg"",""img/0867/8ba0c5a7-c7e4-42cf-a80a-543763b90779.jpg""]","",""
"","9115","similarity","195","1392323","0.0-6.0-189.0","2","[""img/0756/a553ae3f-5140-4271-9000-b496fe2d4622.jpg"",""img/0884/592da15b-09e4-46b5-81e7-bab08a1c33e9.jpg""]","",""
"","3392","similarity","196","1396734","0.0-6.0-190.0","1","[""img/0761/6f9c1c71-e38d-4e3f-9062-39557812432a.jpg"",""img/0862/24cdc752-c2e5-4a17-86a6-6f2045d8553b.jpg""]","",""
"","2434","similarity","197","1400172","0.0-6.0-191.0","1","[""img/0860/8277806e-b684-4474-8f7b-3fca946d7d4f.jpg"",""img/0886/1870a791-dfee-471e-8417-197d4a53c75a.jpg""]","",""
"","2518","similarity","198","1403701","0.0-6.0-192.0","1","[""img/0760/a97cc3a7-3e6e-423e-ac87-e1d1ab280ae9.jpg"",""img/0885/4fd0aafb-6cc0-43d6-993a-c55a6e18a7ba.jpg""]","",""
"","4071","similarity","199","1408794","0.0-6.0-193.0","1","[""img/0886/bd45b474-5559-4ea5-83ff-140bce19f5fa.jpg"",""img/0868/0d3abd3a-b6c3-4584-a9f7-e2da63748b3d.jpg""]","",""
"","3657","similarity","200","1413458","0.0-6.0-194.0","1","[""img/0881/33d65d80-8a8e-4ecf-852d-0ad7725c17a2.jpg"",""img/0864/1ebbc554-99fa-49f9-8799-317375a79820.jpg""]","",""
"","5355","similarity","201","1419825","0.0-6.0-195.0","5","[""img/0866/0207e9a2-7dbb-40b5-9459-b472aaeceb2a.jpg"",""img/0868/179a5502-ab5c-478e-8263-5a1fbcc101d2.jpg""]","",""
"","2632","similarity","202","1423471","0.0-6.0-196.0","1","[""img/0864/e8bd659f-aa43-4748-877e-3118e8b4e189.jpg"",""img/0958/4e2ca4bc-52c7-4c27-9610-776441231e42.jpg""]","",""
"","2191","similarity","203","1426671","0.0-6.0-197.0","1","[""img/0757/8993d166-c8ae-43f6-b269-9e8bd3379d57.jpg"",""img/0886/42cccc64-05f9-4afd-bc93-496ba50a4342.jpg""]","",""
"","4093","similarity","204","1431781","0.0-6.0-198.0","2","[""img/0758/3ddd05d3-557e-4ee7-8b78-9d2d681d8ae2.jpg"",""img/0883/e7e4af6a-bc7a-4a9b-921c-32652db13239.jpg""]","",""
"","3352","similarity","205","1436150","0.0-6.0-199.0","1","[""img/0881/5fe04dd0-5c74-47b7-99c8-b068db9ca26a.jpg"",""img/0958/9be61b1d-099b-432a-ae0e-2aa69e157c0e.jpg""]","",""
"","2617","similarity","206","1439783","0.0-6.0-200.0","1","[""img/0958/eea2b7ca-1c37-4e76-ada7-a8b1f3afdc01.jpg"",""img/0874/7e4f2150-3b59-4a36-b5da-a4e0ba410531.jpg""]","",""
"","2224","similarity","207","1443031","0.0-6.0-201.0","1","[""img/0885/6873c613-5e40-42ff-a5b6-443b6b626ae2.jpg"",""img/0860/15b24a61-25be-4356-9eac-5ce95d0cb4a4.jpg""]","",""
"","2784","similarity","208","1446817","0.0-6.0-202.0","1","[""img/0875/90da8d75-108a-44ad-b999-e21fee3860d3.jpg"",""img/0881/ed4c971f-0873-4fc8-b6d6-e8bbd82f0bcc.jpg""]","",""
"","3302","similarity","209","1451133","0.0-6.0-203.0","1","[""img/0758/9fb5b2fe-3f00-4fe6-973c-1ce10d5f4cd5.jpg"",""img/0860/fd4662f9-4c03-4d79-8593-06735e55a64b.jpg""]","",""
"","3677","similarity","210","1455824","0.0-6.0-204.0","7","[""img/0860/c3379ff7-0763-48fe-a1ec-7ea3d611bc7a.jpg"",""img/0860/18dfed73-e36b-4487-a8bd-0b8cff8e3668.jpg""]","",""
"","2685","similarity","211","1459523","0.0-6.0-205.0","7","[""img/0874/1016b306-087c-4afc-aa08-fa527b28dc76.jpg"",""img/0874/31e22c7c-99aa-40b1-bf03-dd73fa2df4d6.jpg""]","",""
"","6603","similarity","212","1467137","0.0-6.0-206.0","2","[""img/0883/6dcd54c3-64a3-4ed5-9149-d8b9aa1938c8.jpg"",""img/0761/07f8178b-8ce5-42d6-bca0-a0ae0e0e8eb3.jpg""]","",""
"","7597","similarity","213","1475742","0.0-6.0-207.0","1","[""img/0761/47960f80-42b7-4397-a852-ec55d716c652.jpg"",""img/0881/667e2147-d457-4f32-aa5f-6ab86e5848f1.jpg""]","",""
"","3174","similarity","214","1479930","0.0-6.0-208.0","1","[""img/0760/afe7a178-4458-4bdd-a0ad-0cffc57eadc3.jpg"",""img/0756/7a83dec0-4724-4efc-9fbf-52a30b5acd99.jpg""]","",""
"","2579","similarity","215","1490496","0.0-6.0-209.0","1","[""img/0885/eb5e4557-1792-49c3-8871-16afa58f3a28.jpg"",""img/0757/802a8692-dc9e-4372-8811-ce4351a09d1a.jpg""]","",""
"[{""page_index"":0,""viewing_time"":11437}]","11447","instructions","216","1502951","0.0-7.0","","","",""
"","13200","image-multi-choice","217","1517197","0.0-8.0-0.0","","","{""Q0"":""Orange-crowned Warbler""}","Orange-crowned Warbler"
"","3902","image-multi-choice","218","1522135","0.0-8.0-1.0","","","{""Q0"":""Wilson's Warbler""}","Wilson's Warbler"
"","4084","image-multi-choice","219","1527254","0.0-8.0-2.0","","","{""Q0"":""Blackpoll Warbler""}","Blackpoll Warbler"
"","3632","image-multi-choice","220","1531923","0.0-8.0-3.0","","","{""Q0"":""Black-and-white Warbler""}","Black-and-white Warbler"
"","3719","image-multi-choice","221","1536672","0.0-8.0-4.0","","","{""Q0"":""Yellow-breasted Chat""}","Yellow-breasted Chat"
"","3394","image-multi-choice","222","1541104","0.0-8.0-5.0","","","{""Q0"":""Canada Warbler""}","Canada Warbler"
"","3601","image-multi-choice","223","1545742","0.0-8.0-6.0","","","{""Q0"":""Common Yellowthroat""}","Common Yellowthroat"
"","2917","image-multi-choice","224","1549706","0.0-8.0-7.0","","","{""Q0"":""American Redstart""}","American Redstart"
"","3802","image-multi-choice","225","1554541","0.0-8.0-8.0","","","{""Q0"":""Chestnut-sided Warbler""}","Chestnut-sided Warbler"
"","3722","image-multi-choice","226","1559295","0.0-8.0-9.0","","","{""Q0"":""Black-throated Green Warbler""}","Black-throated Green Warbler"
"","3009","image-multi-choice","227","1563337","0.0-8.0-10.0","","","{""Q0"":""Blackburnian Warbler""}","Blackburnian Warbler"
"","3954","image-multi-choice","228","1568336","0.0-8.0-11.0","","","{""Q0"":""Yellow-rumped Warbler""}","Yellow-rumped Warbler"
"","3020","image-multi-choice","229","1572384","0.0-8.0-12.0","","","{""Q0"":""Ovenbird""}","Ovenbird"
"","3848","image-multi-choice","230","1577268","0.0-8.0-13.0","","","{""Q0"":""Townsend's Warbler""}","Townsend's Warbler"
"","5530","image-multi-choice","231","1583831","0.0-8.0-14.0","","","{""Q0"":""Northern Waterthrush""}","Northern Waterthrush"
"","4043","image-multi-choice","232","1588904","0.0-8.0-15.0","","","{""Q0"":""Yellow Warbler""}","Yellow Warbler"
"","11811","image-multi-choice","233","1601748","0.0-8.0-16.0","","","{""Q0"":""Nashville Warbler""}","Nashville Warbler"
"","6705","image-multi-choice","234","1609490","0.0-8.0-17.0","","","{""Q0"":""Northern Parula""}","Northern Parula"
"","4285","image-multi-choice","235","1614807","0.0-8.0-18.0","","","{""Q0"":""Tennessee Warbler""}","Tennessee Warbler"
"","3758","image-multi-choice","236","1619593","0.0-8.0-19.0","","","{""Q0"":""Magnolia Warbler""}","Magnolia Warbler"
