"view_history","rt","trial_type","trial_index","time_elapsed","internal_node_id","sim_score","stimulus","responses","answer"
"[{""page_index"":0,""viewing_time"":36022}]","36022","instructions","0","36033","0.0-0.0","","","",""
"","6715","similarity_demo","1","43764","0.0-1.0","7","[""img/bluejay1.jpg"",""img/bluejay2.jpg""]","",""
"[{""page_index"":0,""viewing_time"":29456}]","29456","instructions","2","74220","0.0-2.0","","","",""
"","42301","similarity_demo","3","117521","0.0-3.0","4","[""img/bluejay1.jpg"",""img/cardinal1.jpg""]","",""
"[{""page_index"":0,""viewing_time"":27920}]","27930","instructions","4","146460","0.0-4.0","","","",""
"[{""page_index"":0,""viewing_time"":104525}]","104525","instructions","5","251990","0.0-5.0","","","",""
"","22036","similarity","6","275037","0.0-6.0-0.0","2","[""img/0864/da39ad34-04e0-40d4-a724-c08d53e0ea09.jpg"",""img/0860/4c530c3c-6aab-492a-94d1-9c01797bde40.jpg""]","",""
"","19892","similarity","7","295935","0.0-6.0-1.0","3","[""img/0884/fb8b0101-bfd2-462b-a942-d3202a69dd18.jpg"",""img/0760/fe62dd62-331c-4317-8af2-f1c816871fee.jpg""]","",""
"","6796","similarity","8","303750","0.0-6.0-2.0","3","[""img/0886/48077111-b86b-4612-910f-90a5d168d77f.jpg"",""img/0881/ed4c971f-0873-4fc8-b6d6-e8bbd82f0bcc.jpg""]","",""
"","9379","similarity","9","314149","0.0-6.0-3.0","2","[""img/0866/620cd1aa-0800-4414-8f6e-90342e7a99ad.jpg"",""img/0881/44e09805-5a25-4f17-a716-4ad4a331b174.jpg""]","",""
"","11570","similarity","10","326739","0.0-6.0-4.0","4","[""img/0868/c8ac40c7-6904-4e13-8d61-c75d3052dc4e.jpg"",""img/0885/6873c613-5e40-42ff-a5b6-443b6b626ae2.jpg""]","",""
"","7106","similarity","11","334850","0.0-6.0-5.0","1","[""img/0757/c190d19b-2091-436c-a92b-a48c253ac955.jpg"",""img/0866/be24ab58-230e-4db8-9f45-ff04c9aec6bb.jpg""]","",""
"","4063","similarity","12","339928","0.0-6.0-6.0","1","[""img/0868/77091fc7-a590-4ebb-b915-fdb2483a2399.jpg"",""img/0864/4bd81bc6-c13d-46df-95a9-485886dc7c1b.jpg""]","",""
"","6523","similarity","13","347460","0.0-6.0-7.0","7","[""img/0864/1ebbc554-99fa-49f9-8799-317375a79820.jpg"",""img/0864/300bb811-8b3c-4c42-8653-6097c3725197.jpg""]","",""
"","14412","similarity","14","362893","0.0-6.0-8.0","3","[""img/0757/89ce15d5-a3da-4a62-ac9f-c28a9273bf33.jpg"",""img/0881/62a64f90-7a72-4aee-a1a1-0c548ac9bdda.jpg""]","",""
"","5690","similarity","15","369588","0.0-6.0-9.0","2","[""img/0886/d1e40478-2fe0-404f-8409-920da98a96a2.jpg"",""img/0760/cbd28974-989a-49dd-b631-42de146d7e6f.jpg""]","",""
"","13266","similarity","16","383872","0.0-6.0-10.0","6","[""img/0884/13db1f36-8c9f-4b28-8426-04eaa9fba737.jpg"",""img/0883/0e1ed5c7-0881-4bfd-b12f-6a53500e74f0.jpg""]","",""
"","6963","similarity","17","391839","0.0-6.0-11.0","6","[""img/0874/bf14b896-e930-4fd9-9c05-2e83317a2773.jpg"",""img/0862/92f0146c-20c4-482e-aef5-adb693790338.jpg""]","",""
"","6036","similarity","18","398887","0.0-6.0-12.0","5","[""img/0862/064818ee-13d5-4618-bb24-21c7368ea278.jpg"",""img/0875/fb732ab5-013a-4366-9f65-27811ed157e9.jpg""]","",""
"","5245","similarity","19","405141","0.0-6.0-13.0","1","[""img/0875/2e13d160-eea1-416b-aff1-d37ab99ecc1d.jpg"",""img/0757/cd7fd185-981f-477a-ba00-a0f65bcfd0e9.jpg""]","",""
"","25935","similarity","20","432090","0.0-6.0-14.0","3","[""img/0875/a4935837-7d3c-4df6-88c1-36a94d4991ca.jpg"",""img/0860/9593362c-9fe5-4d12-9735-6000a11f6aa5.jpg""]","",""
"","6031","similarity","21","439133","0.0-6.0-15.0","3","[""img/0860/d9a0d117-6d1d-41c0-8fec-9aff0fd9e9f2.jpg"",""img/0881/d1982897-8d8d-4704-a940-1ee5d07a1f15.jpg""]","",""
"","8429","similarity","22","448575","0.0-6.0-16.0","2","[""img/0885/c840cf2c-c95d-4a08-b3c2-044d1ea946a7.jpg"",""img/0884/baabff07-71d8-424e-ac29-644768380941.jpg""]","",""
"","28571","similarity","23","478159","0.0-6.0-17.0","7","[""img/0761/5ed865c0-8bfb-4310-9b47-690b3e450ca2.jpg"",""img/0761/e18d2113-1ed1-4a80-8171-4be5ee28d343.jpg""]","",""
"","5789","similarity","24","484948","0.0-6.0-18.0","5","[""img/0760/fc99ba9e-e7fa-443b-9ba0-2b3c76930893.jpg"",""img/0864/e02eddb5-f468-499c-91bf-f7be3ffe979b.jpg""]","",""
"","6621","similarity","25","492589","0.0-6.0-19.0","3","[""img/0864/c3b63e8f-ea39-4d70-a1f2-b3fe4be8eb75.jpg"",""img/0875/e7e66b13-b573-431e-b85e-288ce04a35a3.jpg""]","",""
"","6297","similarity","26","499894","0.0-6.0-20.0","2","[""img/0874/c0378dac-9370-439a-8b79-db27c96fb390.jpg"",""img/0884/ffcce05a-b38d-4570-b3dc-751e89b7790a.jpg""]","",""
"","6207","similarity","27","507109","0.0-6.0-21.0","6","[""img/0885/0cdcdaca-f91e-4d4a-a6f6-dc90ab676435.jpg"",""img/0866/a04d37f0-99dd-478a-b6c6-58b215138f84.jpg""]","",""
"","10027","similarity","28","518147","0.0-6.0-22.0","6","[""img/0868/0d3abd3a-b6c3-4584-a9f7-e2da63748b3d.jpg"",""img/0868/e0aff734-077f-40dd-9781-74821abd3621.jpg""]","",""
"","5065","similarity","29","524227","0.0-6.0-23.0","1","[""img/0757/1fd9dcb9-e489-4708-b518-f356d3f5481d.jpg"",""img/0756/10fa3aa2-6100-492a-826e-febb6513cf13.jpg""]","",""
"","5240","similarity","30","530472","0.0-6.0-24.0","7","[""img/0875/90da8d75-108a-44ad-b999-e21fee3860d3.jpg"",""img/0875/dbdd643e-6d0e-4a5c-ab57-b9c29b9c981a.jpg""]","",""
"","5259","similarity","31","536750","0.0-6.0-25.0","2","[""img/0761/3599fa54-18f9-488e-b402-e851c43586ff.jpg"",""img/0866/d266fece-59b3-46fa-b69f-96f6efb81b59.jpg""]","",""
"","5029","similarity","32","542787","0.0-6.0-26.0","2","[""img/0866/8efcaa46-83ab-4dee-a35f-850402aa21ae.jpg"",""img/0758/e38fd80d-18d0-42f3-b848-f930788e8bd7.jpg""]","",""
"","5000","similarity","33","548798","0.0-6.0-27.0","2","[""img/0758/d540bee6-b460-4c32-ac57-bc282742d7d4.jpg"",""img/0875/f87b67d7-c33e-40d1-b281-248c4be1cb6e.jpg""]","",""
"","6533","similarity","34","556351","0.0-6.0-28.0","3","[""img/0958/e9e2cc42-eb3b-4c91-8112-a517305c15f0.jpg"",""img/0757/a91bb71b-8c84-4999-8da7-f30e53ddc2a7.jpg""]","",""
"","6897","similarity","35","564257","0.0-6.0-29.0","2","[""img/0873/b02f9cce-7f58-4f1b-baed-50fee9f0a21f.jpg"",""img/0883/387a9e30-7d95-483e-af34-c8262f62385f.jpg""]","",""
"","5206","similarity","36","570487","0.0-6.0-30.0","4","[""img/0868/7b212364-ff5f-4e28-9241-7eb6ea00161b.jpg"",""img/0875/5a1e5100-0d94-4fec-bbe9-ca9894d2cf8e.jpg""]","",""
"","8827","similarity","37","580333","0.0-6.0-31.0","3","[""img/0884/7ae02e9d-46a4-4124-bcc2-cad90d7ef9f9.jpg"",""img/0862/eefa5588-9efd-4591-aa5f-a2e17c7d7bcc.jpg""]","",""
"","5344","similarity","38","586692","0.0-6.0-32.0","3","[""img/0884/989ec8e3-5e41-4055-b0b5-3d65b9c44917.jpg"",""img/0864/efcfbb1b-8197-44c9-b723-40d6c608dd3c.jpg""]","",""
"","6419","similarity","39","594126","0.0-6.0-33.0","4","[""img/0883/599aacc5-bb0f-4dea-852c-9a27727eb0b9.jpg"",""img/0958/b11515b3-5f04-4c3e-be00-56a05c6c3e96.jpg""]","",""
"","6487","similarity","40","601616","0.0-6.0-34.0","1","[""img/0864/5f74a653-3bdc-4308-8cca-ac667dc22e1f.jpg"",""img/0756/350ac166-1deb-4399-89db-da6a7e827c4d.jpg""]","",""
"","6168","similarity","41","608804","0.0-6.0-35.0","3","[""img/0874/29830da7-be5f-44e5-b141-652a0ccf7269.jpg"",""img/0758/67c0be2f-9e91-48b3-8219-70ac0a1802fa.jpg""]","",""
"","8209","similarity","42","618021","0.0-6.0-36.0","1","[""img/0886/c6c81122-f4bf-46f4-968b-167f8ed0cab3.jpg"",""img/0862/d0ca4c78-fc35-46ed-bdcc-8e124283c53e.jpg""]","",""
"","5318","similarity","43","624342","0.0-6.0-37.0","1","[""img/0862/1c20f772-3a51-4a80-aac0-f57dc9f86c28.jpg"",""img/0885/4fd0aafb-6cc0-43d6-993a-c55a6e18a7ba.jpg""]","",""
"","7669","similarity","44","633030","0.0-6.0-38.0","6","[""img/0758/7ffbc76b-1fc1-432c-8f7e-9ec8d1b3f643.jpg"",""img/0864/5f33e097-23e3-4002-882d-76e8cb15f451.jpg""]","",""
"","16052","similarity","45","650094","0.0-6.0-39.0","3","[""img/0873/90b702a6-3dba-446a-9bba-a2ee096baf49.jpg"",""img/0867/075e0f95-856b-4cbb-acf5-092393aaf04e.jpg""]","",""
"","5638","similarity","46","656733","0.0-6.0-40.0","4","[""img/0958/5a91b0e8-8f60-4625-b88c-d6e55b4d7d93.jpg"",""img/0884/3613aeb4-0028-4205-aea0-1ea28cb1f80e.jpg""]","",""
"","4999","similarity","47","751858","0.0-6.0-41.0","7","[""img/0873/b509aa81-b1d7-4d50-8aef-9c7b725c3157.jpg"",""img/0873/226317e0-f0e7-42ea-907b-058cb1ad519a.jpg""]","",""
"","5270","similarity","48","758148","0.0-6.0-42.0","1","[""img/0886/9b0bffbe-9237-404d-a0ba-a1982e0814c7.jpg"",""img/0758/53f35650-e455-4b53-8be4-c3c8271c6466.jpg""]","",""
"","5145","similarity","49","764308","0.0-6.0-43.0","3","[""img/0883/49aada36-b662-416c-93ae-9eab6598bfae.jpg"",""img/0874/8cdb1c07-1c32-46d2-981c-3636560fa6e5.jpg""]","",""
"","5428","similarity","50","770750","0.0-6.0-44.0","2","[""img/0881/4da99fdd-1f40-4bbb-8e21-8833eef313f5.jpg"",""img/0873/1d1be182-3bb2-4efd-8543-d70b8db7beef.jpg""]","",""
"","6293","similarity","51","778045","0.0-6.0-45.0","1","[""img/0867/7d1c497b-c1b3-4ed8-abb5-d7f73306015f.jpg"",""img/0757/fd3c82c8-3311-4fae-bcec-10559587910a.jpg""]","",""
"","5629","similarity","52","784694","0.0-6.0-46.0","3","[""img/0866/4a87911a-d5be-4d4e-ab8e-3d1f581bf507.jpg"",""img/0874/ca23d307-fc00-4d7d-9106-584c6eb21b4d.jpg""]","",""
"","18244","similarity","53","803942","0.0-6.0-47.0","7","[""img/0886/97243e18-4dba-4af8-b49f-b3b635c90ac4.jpg"",""img/0886/625c7dfa-3fa1-4166-80f0-229eb416b04f.jpg""]","",""
"","4841","similarity","54","809793","0.0-6.0-48.0","1","[""img/0883/02f50df0-eb8c-4e17-836a-c89ddb1c04e1.jpg"",""img/0860/4a022222-056d-461c-ab02-39fac9647552.jpg""]","",""
"","3204","similarity","55","814007","0.0-6.0-49.0","1","[""img/0860/c7047cd2-7cc1-41b6-8a34-c0986774975f.jpg"",""img/0756/8ab56efe-fef0-45cc-ab57-82597f83b26a.jpg""]","",""
"","3145","similarity","56","818164","0.0-6.0-50.0","1","[""img/0860/29a21a9f-54bb-4093-ad3f-04823ceaa89f.jpg"",""img/0757/4f8ae92b-a4ab-4020-b4fb-80c5615e76ac.jpg""]","",""
"","5929","similarity","57","825097","0.0-6.0-51.0","7","[""img/0756/dbe25ae4-de3f-44b2-907f-6f2fc03ed1f0.jpg"",""img/0756/6d2df7ce-35aa-4a5d-ab53-974d2c02034e.jpg""]","",""
"","6003","similarity","58","832110","0.0-6.0-52.0","2","[""img/0875/03c3c331-738b-4446-af92-3d7386b08c2e.jpg"",""img/0866/a15b02be-11bb-43e3-b0e0-ecc3bd7dfc49.jpg""]","",""
"","6342","similarity","59","839467","0.0-6.0-53.0","5","[""img/0756/8d47d83d-7e73-4d35-94ec-d814380febc6.jpg"",""img/0758/6cd8c362-ae2a-41eb-80a3-3a4f7ace1530.jpg""]","",""
"","3943","similarity","60","844415","0.0-6.0-54.0","4","[""img/0761/176fde97-0334-4d2b-8a7a-38960c2528f3.jpg"",""img/0884/37ee4afa-34a0-4da2-bdb0-fcaff43dcdb6.jpg""]","",""
"","5145","similarity","61","850575","0.0-6.0-55.0","2","[""img/0760/7f35fc6a-c21f-4f42-81c5-92ced38d82f8.jpg"",""img/0867/f8159067-056c-41f1-a136-c529fe5e970a.jpg""]","",""
"","7514","similarity","62","859110","0.0-6.0-56.0","2","[""img/0866/93a27239-8317-4e08-98ca-d8b1ff298e07.jpg"",""img/0884/9b1b7885-1502-448f-9b20-ddc19aa5456f.jpg""]","",""
"","5505","similarity","63","865629","0.0-6.0-57.0","2","[""img/0756/403d0540-b812-446f-bb5a-e8030be0a02f.jpg"",""img/0761/a69897c1-1310-4bae-9a51-8b29cd9543dd.jpg""]","",""
"","4167","similarity","64","870801","0.0-6.0-58.0","4","[""img/0867/f8488a47-94ee-4166-952c-44e16cf172f6.jpg"",""img/0860/18dfed73-e36b-4487-a8bd-0b8cff8e3668.jpg""]","",""
"","4871","similarity","65","876692","0.0-6.0-59.0","7","[""img/0881/f62bdcd1-a4b7-4d48-83da-d9c9e01c8727.jpg"",""img/0758/dd559618-7f09-4a07-8018-d311c4a5ea29.jpg""]","",""
"","9546","similarity","66","887247","0.0-6.0-60.0","7","[""img/0761/aebad236-1f4a-4bc2-a74d-d92b7e226316.jpg"",""img/0758/2fa3e613-e676-4e6e-bd12-705327eeb3e1.jpg""]","",""
"","3869","similarity","67","892120","0.0-6.0-61.0","1","[""img/0958/6e602e13-8029-4642-bce0-8deffd0dc686.jpg"",""img/0875/3ecb367d-e9eb-4826-8aaa-7aa72fb98019.jpg""]","",""
"","5782","similarity","68","898913","0.0-6.0-62.0","2","[""img/0886/451550d7-6ff9-42b5-938c-9e20ee960bf6.jpg"",""img/0864/9b2490c5-a282-400a-9736-e1a0ecbf1cb7.jpg""]","",""
"","4343","similarity","69","904265","0.0-6.0-63.0","1","[""img/0756/7a68b61c-212a-4f14-8b6f-4d74b6cd206e.jpg"",""img/0874/31e22c7c-99aa-40b1-bf03-dd73fa2df4d6.jpg""]","",""
"","3704","similarity","70","908979","0.0-6.0-64.0","1","[""img/0758/335851a0-a55b-46d8-ab05-8463eda48349.jpg"",""img/0885/1cd940ef-9720-4a04-8fa1-1dd3a39ecdd6.jpg""]","",""
"","7061","similarity","71","917045","0.0-6.0-65.0","6","[""img/0760/317fc071-99e6-43cb-9099-2e50aa79ccc2.jpg"",""img/0958/d4138705-0a9d-4141-9af9-205e69367c44.jpg""]","",""
"","5004","similarity","72","923060","0.0-6.0-66.0","3","[""img/0884/0b4cf8d4-4c8f-4312-a794-f99e01679176.jpg"",""img/0881/48ed65a5-471f-41af-86ec-3793805c116d.jpg""]","",""
"","5438","similarity","73","929509","0.0-6.0-67.0","1","[""img/0864/0116ca98-293d-4fa6-a93b-5a6144ef64cc.jpg"",""img/0873/d74e4aa9-420d-48a3-a42f-30a3481536ae.jpg""]","",""
"","4726","similarity","74","935245","0.0-6.0-68.0","1","[""img/0862/24cdc752-c2e5-4a17-86a6-6f2045d8553b.jpg"",""img/0758/9fb5b2fe-3f00-4fe6-973c-1ce10d5f4cd5.jpg""]","",""
"","6775","similarity","75","943038","0.0-6.0-69.0","7","[""img/0757/ec40956b-ed8b-4970-b87f-9b7c25cd5be6.jpg"",""img/0757/cb7ca802-27ac-4a1d-996f-bd21b96d6244.jpg""]","",""
"","5340","similarity","76","949386","0.0-6.0-70.0","6","[""img/0860/702bd09d-df3a-40aa-a267-5f04474305b5.jpg"",""img/0862/00c06b00-3b73-44e9-bc1e-c5aafb438321.jpg""]","",""
"","7619","similarity","77","958015","0.0-6.0-71.0","5","[""img/0860/e8b8c51e-1834-4875-8b61-6c5bc9b178bd.jpg"",""img/0884/3c61ea12-a408-47ce-98aa-b14e0f6d4591.jpg""]","",""
"","5779","similarity","78","964809","0.0-6.0-72.0","3","[""img/0883/00d89148-b7d4-49d2-831a-2eee070a85a4.jpg"",""img/0866/bf14b5bd-fb55-47db-86b9-4f8aeb9a6dad.jpg""]","",""
"","4343","similarity","79","970165","0.0-6.0-73.0","2","[""img/0866/945c6710-d15b-4a5b-a8f6-69af0850357f.jpg"",""img/0886/7164ac42-460f-4beb-9d5e-a1cfded3099c.jpg""]","",""
"","4831","similarity","80","975997","0.0-6.0-74.0","1","[""img/0958/ebea41e3-9d65-4f5e-981a-92daaaad0d57.jpg"",""img/0761/6f9c1c71-e38d-4e3f-9062-39557812432a.jpg""]","",""
"","4451","similarity","81","981461","0.0-6.0-75.0","1","[""img/0875/ebf7653f-ff45-4e9f-af58-2c042ab3cd2b.jpg"",""img/0756/6413e12f-951d-47b5-ae55-9fad7fb8d112.jpg""]","",""
"","4502","similarity","82","986966","0.0-6.0-76.0","1","[""img/0958/9be61b1d-099b-432a-ae0e-2aa69e157c0e.jpg"",""img/0885/ef0386f3-e5d4-481b-8894-60b80e08bbe8.jpg""]","",""
"","8304","similarity","83","996275","0.0-6.0-77.0","2","[""img/0868/1a62b2b2-18f5-466e-b564-5176a57c565e.jpg"",""img/0883/df1c6d22-bb1b-4eed-b4fe-eb5e46deacd4.jpg""]","",""
"","5866","similarity","84","1003146","0.0-6.0-78.0","1","[""img/0862/f188d4f0-76a4-4102-818c-a209969d73a5.jpg"",""img/0760/9ddd6958-7349-45d6-b5bc-4a5911960c35.jpg""]","",""
"","4835","similarity","85","1008988","0.0-6.0-79.0","2","[""img/0885/a4e5c564-1e5f-4fed-9f73-b8d1becf62b6.jpg"",""img/0761/07f8178b-8ce5-42d6-bca0-a0ae0e0e8eb3.jpg""]","",""
"","8292","similarity","86","1018300","0.0-6.0-80.0","5","[""img/0862/fad1d7c1-8187-43c3-942a-0fc12183e48e.jpg"",""img/0864/6e846d43-94a6-4b37-a268-65eda979f052.jpg""]","",""
"","5644","similarity","87","1024949","0.0-6.0-81.0","7","[""img/0758/ddc336e9-a8b6-4bb9-937a-c7e25e0e9250.jpg"",""img/0758/65d426d6-3ff6-415d-8654-a43b83ecc4fe.jpg""]","",""
"","6308","similarity","88","1032271","0.0-6.0-82.0","2","[""img/0862/4f0a3b4c-afbf-486e-b248-1d54982f54b4.jpg"",""img/0873/33552b07-bdb8-423e-88b4-25a37f159c6d.jpg""]","",""
"","7694","similarity","89","1050612","0.0-6.0-83.0","4","[""img/0760/0864f159-c076-4573-83e1-ea134f239717.jpg"",""img/0757/86df581e-81a2-4205-95e3-1ea87cea1f36.jpg""]","",""
"","3799","similarity","90","1055436","0.0-6.0-84.0","1","[""img/0867/c66898ba-b71b-4d50-84f9-f7f84853a98d.jpg"",""img/0881/14236cf2-6b95-48b8-9368-78af09d2d27f.jpg""]","",""
"","5580","similarity","91","1062030","0.0-6.0-85.0","2","[""img/0885/21b241a1-95da-4306-9cf2-cc52a784214a.jpg"",""img/0886/4d28f75a-a9c3-49dd-8aa8-00304af6e40b.jpg""]","",""
"","4080","similarity","92","1067124","0.0-6.0-86.0","1","[""img/0866/11a1d141-be5e-443c-98c1-a9d4d9e3dec0.jpg"",""img/0864/1d15626a-2f7c-410f-819c-0fa2c967e95e.jpg""]","",""
"","5374","similarity","93","1073507","0.0-6.0-87.0","6","[""img/0874/2c9464dd-8a23-4baa-ac94-1ba3af5c15cc.jpg"",""img/0881/405484ae-0d00-4b05-bc57-6420a36adfac.jpg""]","",""
"","5260","similarity","94","1079777","0.0-6.0-88.0","2","[""img/0866/0207e9a2-7dbb-40b5-9459-b472aaeceb2a.jpg"",""img/0760/4c78b78c-193e-4a1e-8bb2-394add325fda.jpg""]","",""
"","3853","similarity","95","1084645","0.0-6.0-89.0","4","[""img/0867/179ab87a-8eac-4c52-a41f-2e48e3120f09.jpg"",""img/0884/2348ce3f-5d2a-4a04-85ef-a65f05caa935.jpg""]","",""
"","3568","similarity","96","1089229","0.0-6.0-90.0","1","[""img/0757/a3620c04-efdc-4b42-940c-806958d1351e.jpg"",""img/0862/847e5208-38ec-4f36-949c-296cdd7424ee.jpg""]","",""
"","4955","similarity","97","1095195","0.0-6.0-91.0","1","[""img/0867/1719a35d-f085-48c0-9099-16c94fe418b4.jpg"",""img/0761/ff3e024b-951d-4aca-a168-c09c6507525d.jpg""]","",""
"","5624","similarity","98","1101838","0.0-6.0-92.0","1","[""img/0868/6a28c3b0-3d76-498a-9fb7-ddafc665eca8.jpg"",""img/0958/58b7811e-d3f6-4e4d-befb-86e063d13a43.jpg""]","",""
"","5510","similarity","99","1108348","0.0-6.0-93.0","6","[""img/0874/3ce41e7c-40c8-4d58-a546-171114521796.jpg"",""img/0864/e336a4c5-6648-4fd7-b2f6-93a3fb83f8c6.jpg""]","",""
"","4266","similarity","100","1113625","0.0-6.0-94.0","1","[""img/0760/d96a9342-5d16-403a-9f95-e062f795d968.jpg"",""img/0873/a234d5d1-09ea-4594-9a0f-d569da31dbdb.jpg""]","",""
"","8391","similarity","101","1123030","0.0-6.0-95.0","3","[""img/0868/293079b8-7e0c-4afd-a390-1e5d35fe3ded.jpg"",""img/0873/6110910a-7895-4b6a-af51-12486a4595a3.jpg""]","",""
"","5270","similarity","102","1129317","0.0-6.0-96.0","4","[""img/0860/94ef7afc-e0e6-4a15-98c6-0bfac82bc832.jpg"",""img/0761/014e76d0-fb4e-4b40-901c-7a2d5655c3b0.jpg""]","",""
"","5444","similarity","103","1135767","0.0-6.0-97.0","5","[""img/0862/f23038d4-c366-4f70-979f-66b62362efa4.jpg"",""img/0883/512a797a-315b-439e-9a9d-855929351fd0.jpg""]","",""
"","4112","similarity","104","1140890","0.0-6.0-98.0","1","[""img/0757/31d8ee3d-1b79-4d6a-9347-f91c87c00f92.jpg"",""img/0884/05d9bfb9-44a6-4ab4-92fa-d17e5b2b4f33.jpg""]","",""
"","8531","similarity","105","1150432","0.0-6.0-99.0","2","[""img/0867/aa05d113-fc19-4756-a8eb-7878f580bc92.jpg"",""img/0756/a8246880-fb51-43bb-b25d-905e6e0d7880.jpg""]","",""
"","5092","similarity","106","1156542","0.0-6.0-100.0","2","[""img/0958/86d1a76d-f067-4e36-9ab5-13da78c97c0e.jpg"",""img/0756/792f9475-979d-4787-b7dc-8a0d02f6e25f.jpg""]","",""
"","4846","similarity","107","1162394","0.0-6.0-101.0","7","[""img/0760/237fa1c2-d59d-4475-8d1e-f9a4eb71f989.jpg"",""img/0760/dfa71fdd-ddff-4827-a999-d5e599dd5679.jpg""]","",""
"","6746","similarity","108","1170150","0.0-6.0-102.0","3","[""img/0873/c2a7452d-a271-4207-81ce-bda281dc0297.jpg"",""img/0875/5a716432-c6ca-4b1c-955a-2b8ac25198ee.jpg""]","",""
"","5351","similarity","109","1176519","0.0-6.0-103.0","6","[""img/0884/a8f7b854-0010-4c7a-a8fb-b1b1dc1f1ba1.jpg"",""img/0884/5085d424-b3f5-461b-a1c7-f7ca55abcf4f.jpg""]","",""
"","4396","similarity","110","1181918","0.0-6.0-104.0","1","[""img/0873/841d6549-01d2-4ebd-8d67-25d219876178.jpg"",""img/0885/5a47e19f-19b4-4545-bf47-b508cb65da6a.jpg""]","",""
"","4297","similarity","111","1187229","0.0-6.0-105.0","1","[""img/0883/6dcd54c3-64a3-4ed5-9149-d8b9aa1938c8.jpg"",""img/0875/34132396-d896-4c2d-8087-646dd867e769.jpg""]","",""
"","5349","similarity","112","1193583","0.0-6.0-106.0","3","[""img/0864/65210d57-1153-4657-886a-32e758f49b4a.jpg"",""img/0867/26611f4e-d694-4460-b7e2-43c62753ddc3.jpg""]","",""
"","5144","similarity","113","1199737","0.0-6.0-107.0","2","[""img/0958/ba5ed153-96de-4f61-b7d9-87a478c8972c.jpg"",""img/0860/e14d67c1-6d92-4f1e-9257-c8607159c19c.jpg""]","",""
"","6892","similarity","114","1207640","0.0-6.0-108.0","2","[""img/0885/eb5e4557-1792-49c3-8871-16afa58f3a28.jpg"",""img/0756/64441928-baa3-49c8-a605-ee2370389b9f.jpg""]","",""
"","4539","similarity","115","1213192","0.0-6.0-109.0","4","[""img/0883/dc95de8d-9297-41ec-b3ac-3f8b060260e3.jpg"",""img/0885/517a9189-9623-4ed7-a37e-48788791e028.jpg""]","",""
"","5160","similarity","116","1219365","0.0-6.0-110.0","7","[""img/0867/2e1a0b58-cdb1-4107-a14e-452530d7b9b0.jpg"",""img/0867/50a1b60e-3a29-44bf-b606-d4bd3746fea9.jpg""]","",""
"","5413","similarity","117","1225795","0.0-6.0-111.0","5","[""img/0881/84397291-bc14-4fbf-90e8-241e486ab0fe.jpg"",""img/0760/9daf8012-19c4-498f-8f51-81ec001a83be.jpg""]","",""
"","5694","similarity","118","1232493","0.0-6.0-112.0","2","[""img/0881/d373cb9f-a719-4549-a2a4-82def79fb2a5.jpg"",""img/0868/179a5502-ab5c-478e-8263-5a1fbcc101d2.jpg""]","",""
"","4751","similarity","119","1238259","0.0-6.0-113.0","1","[""img/0875/d59ff733-eaff-4ee2-9443-06954dd0bcb6.jpg"",""img/0761/1725cacb-5f86-4b47-a5c0-3c36cd981588.jpg""]","",""
"","10187","similarity","120","1249457","0.0-6.0-114.0","2","[""img/0756/b8d6aa83-8673-4e0d-be72-b3da2bae7a6d.jpg"",""img/0866/f756f7d1-9ad8-4a34-9ef6-7a443d705bfe.jpg""]","",""
"","7425","similarity","121","1257902","0.0-6.0-115.0","5","[""img/0884/a6389ab4-3291-4434-9b91-eeae3b04fce4.jpg"",""img/0886/e5903946-897c-4420-87c0-afee4100305c.jpg""]","",""
"","8048","similarity","122","1266950","0.0-6.0-116.0","2","[""img/0756/ca2a8f93-ed77-45c8-a3a3-22324aa28501.jpg"",""img/0881/e6746727-7f89-47ec-b939-d98abe78372d.jpg""]","",""
"","4072","similarity","123","1272037","0.0-6.0-117.0","4","[""img/0760/dddcdfaf-2d02-4de9-a176-5705d0004b5a.jpg"",""img/0875/cff79b3a-a797-4393-9757-6275f999ec04.jpg""]","",""
"","6438","similarity","124","1279490","0.0-6.0-118.0","3","[""img/0958/fd950403-e452-4018-8207-a9714addcd75.jpg"",""img/0866/02f5e6b9-52b7-448c-9708-5b460d0c9a23.jpg""]","",""
"","3974","similarity","125","1284478","0.0-6.0-119.0","1","[""img/0867/85a96c62-548f-4994-9553-819e03c3135a.jpg"",""img/0874/ca76a855-4e77-4f2f-872a-0a718153e7ed.jpg""]","",""
"","8479","similarity","126","1293966","0.0-6.0-120.0","3","[""img/0883/b5e903b5-bc7f-421c-bf3e-245779ac90c9.jpg"",""img/0757/2f6a36b2-6543-4003-bcb9-6f2c61db2de8.jpg""]","",""
"","4136","similarity","127","1299118","0.0-6.0-121.0","1","[""img/0874/93d1f8dc-acf2-4f03-bd8d-8ec35df276ed.jpg"",""img/0886/9ac18ff1-d3d9-4bfe-aa2e-ed5b28399f6c.jpg""]","",""
"","5350","similarity","128","1305472","0.0-6.0-122.0","2","[""img/0873/ac86dbfd-0442-4dec-9d10-37d7093f5a52.jpg"",""img/0761/8e379ec1-757d-4427-a0ff-d4efdd6a50c4.jpg""]","",""
"","3928","similarity","129","1310410","0.0-6.0-123.0","1","[""img/0875/8521fd58-3b1e-4dc5-97ae-804edfa6734a.jpg"",""img/0884/a416b0d1-f903-4935-b89f-99c29683752b.jpg""]","",""
"","4398","similarity","130","1315818","0.0-6.0-124.0","1","[""img/0757/92ed1ceb-29ef-4044-9601-78d7806e2396.jpg"",""img/0868/4bd5105a-d2c3-4f82-8c80-57196106ba53.jpg""]","",""
"","4412","similarity","131","1328861","0.0-6.0-125.0","1","[""img/0886/aef00ed5-e288-47bf-b31e-512d7e762ea2.jpg"",""img/0883/142a783e-a468-4b7f-a750-1e107613d5a9.jpg""]","",""
"","3644","similarity","132","1333510","0.0-6.0-126.0","1","[""img/0868/09a9ef4d-d000-4cfa-a6aa-ebec7c2edeb4.jpg"",""img/0760/c7d43bfd-465f-4f4e-8dc1-ae4cd3d2c1de.jpg""]","",""
"","4956","similarity","133","1339476","0.0-6.0-127.0","7","[""img/0881/b1a136f7-8511-4d3a-a0f6-3879acf1e1a1.jpg"",""img/0881/7e31e5dc-2240-4b1b-b5a0-3acd980099ef.jpg""]","",""
"","4461","similarity","134","1344948","0.0-6.0-128.0","3","[""img/0760/868961d8-3272-4d3c-9c8b-9d183315cabc.jpg"",""img/0860/c3379ff7-0763-48fe-a1ec-7ea3d611bc7a.jpg""]","",""
"","4812","similarity","135","1350766","0.0-6.0-129.0","1","[""img/0864/e8bd659f-aa43-4748-877e-3118e8b4e189.jpg"",""img/0885/8cdf3204-e0f1-482b-9546-5edca3d81376.jpg""]","",""
"","6705","similarity","136","1358480","0.0-6.0-130.0","1","[""img/0864/afcba0a3-7e27-4757-b254-e9f05fad27e2.jpg"",""img/0757/c05f53f3-811c-4a3b-b848-a27b80b8fd53.jpg""]","",""
"","4880","similarity","137","1364376","0.0-6.0-131.0","5","[""img/0760/4f024637-f98a-409a-baa0-fc4989d80667.jpg"",""img/0883/e7e4af6a-bc7a-4a9b-921c-32652db13239.jpg""]","",""
"","5067","similarity","138","1370458","0.0-6.0-132.0","7","[""img/0885/fce9f22a-f769-477c-acee-a5ad8214f0a5.jpg"",""img/0885/05af267f-b982-498d-9807-ccd54689f9b4.jpg""]","",""
"","6291","similarity","139","1377766","0.0-6.0-133.0","5","[""img/0860/4f695df5-afac-4da7-9875-fee39b0b24ad.jpg"",""img/0868/8b0b8473-e2c0-4331-aa56-c3a5c29369da.jpg""]","",""
"","3873","similarity","140","1382646","0.0-6.0-134.0","1","[""img/0867/bf560d4f-dee3-4f11-a385-705cc1aa5f3c.jpg"",""img/0886/789f5d23-84b8-499a-ae1e-20c6309a06ae.jpg""]","",""
"","4033","similarity","141","1387694","0.0-6.0-135.0","1","[""img/0756/5dba4151-3cf5-42f5-8dd9-7c6128318b01.jpg"",""img/0886/1e8c0f89-c766-41c9-b522-83c342048f34.jpg""]","",""
"","5045","similarity","142","1393754","0.0-6.0-136.0","5","[""img/0884/967c63af-8f6a-483f-9122-0c79d97fd22e.jpg"",""img/0868/15dd6fd7-791e-4b53-b203-195d617521a4.jpg""]","",""
"","5654","similarity","143","1400418","0.0-6.0-137.0","6","[""img/0958/96f89270-febc-4f09-b8c3-53a249ff00ea.jpg"",""img/0958/acbadc39-e665-446d-b98f-ccd0ef3223d6.jpg""]","",""
"","4901","similarity","144","1406340","0.0-6.0-138.0","2","[""img/0886/9f186bd5-d48b-4cc2-9206-be67c392faa9.jpg"",""img/0873/d39b1731-1669-4c96-b5c6-682b30e287ee.jpg""]","",""
"","5148","similarity","145","1412493","0.0-6.0-139.0","4","[""img/0758/61d64021-9214-4951-bdf8-f871f9827cf9.jpg"",""img/0873/0d9b4403-7f26-46dc-b0b7-2b97b0a91b46.jpg""]","",""
"","5370","similarity","146","1418878","0.0-6.0-140.0","1","[""img/0873/7dddc95f-ca6e-4d15-99a0-0e329ec6888e.jpg"",""img/0756/4cf0ac20-ce60-40ba-8078-4053ef50451c.jpg""]","",""
"","5599","similarity","147","1425477","0.0-6.0-141.0","1","[""img/0868/d6d1f30d-4323-435a-b194-7892521bc57e.jpg"",""img/0862/ba89835a-408c-480b-8594-ed4ffa97eb5c.jpg""]","",""
"","4063","similarity","148","1430555","0.0-6.0-142.0","5","[""img/0881/19e82c47-8e4b-45d2-a6c8-74181eb4155e.jpg"",""img/0862/ee3b7bff-4a70-4e84-9bea-4a565e456acb.jpg""]","",""
"","4165","similarity","149","1435722","0.0-6.0-143.0","4","[""img/0885/8960bf05-34df-4a86-a9b2-6087c70e61d3.jpg"",""img/0867/f26f6b60-f772-4f4c-95a4-addc62cfd692.jpg""]","",""
"","6187","similarity","150","1442925","0.0-6.0-144.0","6","[""img/0883/fc8cf4c9-003e-48c4-b222-8878ea2ae1c0.jpg"",""img/0883/3b1366c6-7baa-4ad2-889c-1ff9c3b379c9.jpg""]","",""
"","6460","similarity","151","1450397","0.0-6.0-145.0","4","[""img/0874/7e4f2150-3b59-4a36-b5da-a4e0ba410531.jpg"",""img/0873/ec150e40-b3ec-4dfe-ab38-bb3f248a1175.jpg""]","",""
"","4613","similarity","152","1456022","0.0-6.0-146.0","2","[""img/0757/b46cab21-50e3-4f19-803d-682627bcd6a6.jpg"",""img/0758/20497cbe-ddae-489e-86e2-ab06985ed07c.jpg""]","",""
"","4071","similarity","153","1461096","0.0-6.0-147.0","1","[""img/0883/d719aab0-0280-4c06-87e5-b9db7454965c.jpg"",""img/0756/76d2b9c0-998f-48ad-95fe-3c317a6c74c0.jpg""]","",""
"","5304","similarity","154","1467411","0.0-6.0-148.0","7","[""img/0867/a498eef3-9fa4-4ab2-9778-4ae82ac40dc5.jpg"",""img/0866/9b38d691-1802-4959-ab3f-fc902f0e4ea6.jpg""]","",""
"","5633","similarity","155","1474050","0.0-6.0-149.0","5","[""img/0758/3ddd05d3-557e-4ee7-8b78-9d2d681d8ae2.jpg"",""img/0760/a97cc3a7-3e6e-423e-ac87-e1d1ab280ae9.jpg""]","",""
"","4623","similarity","156","1479685","0.0-6.0-150.0","4","[""img/0757/0668efad-1c92-425c-9aa9-2bbe833fd777.jpg"",""img/0761/89d3b943-cd14-4786-a7b8-0e9a695cf0e3.jpg""]","",""
"","4123","similarity","157","1484820","0.0-6.0-151.0","5","[""img/0761/b8f211c0-f640-43a2-b101-101774517d95.jpg"",""img/0874/eba003b4-cdab-4eee-8bc3-f064c7d94165.jpg""]","",""
"","6448","similarity","158","1492286","0.0-6.0-152.0","5","[""img/0761/e34f97e4-14ac-4bb6-b226-816085d967c2.jpg"",""img/0760/c76e8a36-1537-42e0-9779-13c2b6a89725.jpg""]","",""
"","5008","similarity","159","1498303","0.0-6.0-153.0","6","[""img/0866/23a224f3-2012-4fc8-8e0f-3c36f8de27fd.jpg"",""img/0866/c446214b-a368-4c65-ae39-ea46894256ab.jpg""]","",""
"","5142","similarity","160","1504464","0.0-6.0-154.0","3","[""img/0866/07c9c966-3c8d-40e7-8128-92b2acbaed5d.jpg"",""img/0862/e0f1a4e9-e1b6-45f7-af67-89f334e6630d.jpg""]","",""
"","3469","similarity","161","1508942","0.0-6.0-155.0","1","[""img/0756/8f917ff3-2930-4f81-812b-19555fe71261.jpg"",""img/0862/cdaed51d-9e2f-4807-801a-4663c40077e2.jpg""]","",""
"","5185","similarity","162","1515142","0.0-6.0-156.0","4","[""img/0860/8fdba999-b946-4c7d-9891-336018b563ef.jpg"",""img/0866/386235d2-6857-41e7-88a8-25cfc3430025.jpg""]","",""
"","4362","similarity","163","1520519","0.0-6.0-157.0","2","[""img/0862/92fcd8a4-8193-4a6a-ae09-dd4a6338b0df.jpg"",""img/0958/0a8f72c4-0c73-4d58-be6f-5e4613b87409.jpg""]","",""
"","4766","similarity","164","1526310","0.0-6.0-158.0","1","[""img/0761/00a8e7ae-d8da-4cba-8969-1dfb943a2aa2.jpg"",""img/0868/4a8a45ed-2c4f-421b-9564-409a33ecd26c.jpg""]","",""
"","3493","similarity","165","1530809","0.0-6.0-159.0","1","[""img/0761/6b42b402-9e0f-4179-9e10-660b2c07626b.jpg"",""img/0886/b8648eb5-de71-41ab-825d-848e51be8c1b.jpg""]","",""
"","4002","similarity","166","1535817","0.0-6.0-160.0","1","[""img/0874/1016b306-087c-4afc-aa08-fa527b28dc76.jpg"",""img/0868/3a62db2d-97e9-44a3-b8e3-a48c6f0e423b.jpg""]","",""
"","4637","similarity","167","1541459","0.0-6.0-161.0","1","[""img/0860/5383b320-1518-4095-a58e-5cc1ae30b64c.jpg"",""img/0874/85eb9b8a-c4c6-4e5a-b8e7-363a87a82054.jpg""]","",""
"","5056","similarity","168","1547534","0.0-6.0-162.0","3","[""img/0883/724f020e-39d9-495c-abe1-b2e4504be9bc.jpg"",""img/0867/8ba0c5a7-c7e4-42cf-a80a-543763b90779.jpg""]","",""
"","5863","similarity","169","1554407","0.0-6.0-163.0","5","[""img/0758/7ee8bc8f-c40b-4b3a-84ec-3e83580622d4.jpg"",""img/0958/1812c506-727b-43a7-882e-4729742e41fc.jpg""]","",""
"","5041","similarity","170","1560458","0.0-6.0-164.0","1","[""img/0873/b76d7003-814d-42b0-9a16-1399c4b0e706.jpg"",""img/0757/76206a63-e02d-4beb-a85a-ed1b5527bc36.jpg""]","",""
"","4672","similarity","171","1566139","0.0-6.0-165.0","2","[""img/0873/c3ff3b70-fb22-42f2-883c-3ecffd77cb4b.jpg"",""img/0866/6f2a90d7-14f1-4f1b-bd64-fc0af6b9fe44.jpg""]","",""
"","8770","similarity","172","1575914","0.0-6.0-166.0","7","[""img/0875/99698b4d-b4a1-44bc-8c83-8ea755bbbf61.jpg"",""img/0867/cc72ed48-7704-422c-86d6-467a1145287a.jpg""]","",""
"","6003","similarity","173","1587481","0.0-6.0-167.0","7","[""img/0862/53a9cf7c-93c4-41b9-952f-07d17f7a17b2.jpg"",""img/0862/fb26cb07-d5a9-4653-813c-f41609f26cd5.jpg""]","",""
"","5299","similarity","174","1593786","0.0-6.0-168.0","1","[""img/0875/5a7c4e35-6514-4e12-8879-d16071da4cd6.jpg"",""img/0886/abd8dd83-d8ee-4003-b4d2-b4045220a578.jpg""]","",""
"","4128","similarity","175","1598934","0.0-6.0-169.0","3","[""img/0885/89d8c48b-8bde-42ed-ae71-de669b15ea34.jpg"",""img/0875/527ced51-8e53-4aab-ab05-86df219104c0.jpg""]","",""
"","7039","similarity","176","1606979","0.0-6.0-170.0","2","[""img/0862/7918ca67-5bd3-4606-a5ea-c39fb11a9297.jpg"",""img/0867/a749dddb-69f0-44a6-acdc-2bf295cf6dcc.jpg""]","",""
"","5340","similarity","177","1613334","0.0-6.0-171.0","5","[""img/0884/d8ffab77-40df-44ba-bf27-70815b052250.jpg"",""img/0873/87f38f18-48a2-4de3-b24b-70630e8b6ca0.jpg""]","",""
"","5235","similarity","178","1619573","0.0-6.0-172.0","5","[""img/0873/b1e2e09f-ad9a-433e-818f-56dd2f1cb09c.jpg"",""img/0958/4e2ca4bc-52c7-4c27-9610-776441231e42.jpg""]","",""
"","3277","similarity","179","1623868","0.0-6.0-173.0","1","[""img/0868/d98ca254-b195-477f-b57e-5760a2717db8.jpg"",""img/0758/d41c06bf-ebaf-454b-91c6-1a17f917b659.jpg""]","",""
"","7373","similarity","180","1632254","0.0-6.0-174.0","3","[""img/0757/69d850ce-9828-4b13-9e68-6a2c196ecbcc.jpg"",""img/0874/995f0332-0439-4eb4-add3-957335dbf6d9.jpg""]","",""
"","4481","similarity","181","1637739","0.0-6.0-175.0","2","[""img/0958/54f27d86-00c0-46b2-b2c9-050c9cc60fe0.jpg"",""img/0867/12264664-1860-46df-8c21-162b9817cdda.jpg""]","",""
"","5653","similarity","182","1644403","0.0-6.0-176.0","5","[""img/0874/a82926a3-0b43-4add-803c-d5f9ea7798ee.jpg"",""img/0760/32bea725-69a2-4c9a-94d9-af05883fbb86.jpg""]","",""
"","4696","similarity","183","1650110","0.0-6.0-177.0","1","[""img/0873/c91c05f8-fafd-4054-bcf1-f5ed1f0a18e8.jpg"",""img/0860/8a92e21b-6a32-4e4a-a445-2d5a487ed0a4.jpg""]","",""
"","5016","similarity","184","1656140","0.0-6.0-178.0","5","[""img/0881/20af39f5-373d-4a55-a437-2dc4c0382c46.jpg"",""img/0883/e3603ed7-8fca-475a-aeb1-d1f7651c4618.jpg""]","",""
"","3759","similarity","185","1660909","0.0-6.0-179.0","1","[""img/0886/42cccc64-05f9-4afd-bc93-496ba50a4342.jpg"",""img/0958/d3775867-a8f6-42ba-86ff-f86e85edba90.jpg""]","",""
"","4820","similarity","186","1666755","0.0-6.0-180.0","4","[""img/0864/8ddd2e30-a1d0-479f-9cbe-591213023893.jpg"",""img/0883/ab9b6977-0cdc-47a2-b180-494a5be181b2.jpg""]","",""
"","4971","similarity","187","1672731","0.0-6.0-181.0","1","[""img/0756/fd9b5e61-3674-448f-867a-29769dc8f07d.jpg"",""img/0868/83b4350a-3b70-4cea-b7f5-b5b56f3050a8.jpg""]","",""
"","6366","similarity","188","1680110","0.0-6.0-182.0","2","[""img/0884/e275ab3e-0948-43c3-8be7-a75271922185.jpg"",""img/0758/6e95579b-5166-487c-b8cb-e417c6a218e3.jpg""]","",""
"","5285","similarity","189","1686398","0.0-6.0-183.0","5","[""img/0875/2c361b79-c3d1-4eda-812e-bf03192407bf.jpg"",""img/0874/3f471690-9788-4d03-90c7-f615aecef149.jpg""]","",""
"","5035","similarity","190","1692448","0.0-6.0-184.0","7","[""img/0867/c71dc569-f49c-4397-8381-68b8d726736d.jpg"",""img/0868/5fa7f9d0-f0e5-454c-8224-74d964818f56.jpg""]","",""
"","5605","similarity","191","1699078","0.0-6.0-185.0","1","[""img/0881/b549bc99-a61c-4450-bab5-9efc3a197bf0.jpg"",""img/0885/62bd11a8-7059-4cc2-b06d-4700688b313f.jpg""]","",""
"","4937","similarity","192","1705021","0.0-6.0-186.0","6","[""img/0864/3d4de670-b290-4285-9c3d-12a0e3af44e9.jpg"",""img/0761/af21c992-a721-45fb-bee7-f50c0f676c30.jpg""]","",""
"","2994","similarity","193","1709023","0.0-6.0-187.0","1","[""img/0885/f4ed5442-1f5c-4a69-abe6-8336ed11ec77.jpg"",""img/0874/99f6563c-8a8d-4c1c-a41d-667b618c3fd5.jpg""]","",""
"","4352","similarity","194","1714385","0.0-6.0-188.0","1","[""img/0758/821c68d3-5cb0-4eae-8659-30e6263fca39.jpg"",""img/0867/ac1797e4-8afc-48fe-b252-86d1defb1cca.jpg""]","",""
"","3634","similarity","195","1719024","0.0-6.0-189.0","1","[""img/0756/bb3f0571-641e-4d5b-b528-672892c37030.jpg"",""img/0884/7f9cc898-36bc-49ec-8b1a-01065d9c0062.jpg""]","",""
"","3063","similarity","196","1723103","0.0-6.0-190.0","1","[""img/0761/d5370a68-6c8a-486f-b2bf-330e2ad6b397.jpg"",""img/0862/57b6f83f-c763-4858-830d-102f97bfefbf.jpg""]","",""
"","12588","similarity","197","1736701","0.0-6.0-191.0","4","[""img/0860/17b44a7d-c5ca-479f-9e87-f65a64f5c80e.jpg"",""img/0886/0f9715c1-b2e4-418e-bf9b-126cc9e70dc6.jpg""]","",""
"","5684","similarity","198","1743390","0.0-6.0-192.0","1","[""img/0760/d87ebbb0-e718-4ab1-8882-e48253d6fd00.jpg"",""img/0885/d2276b26-e91a-4f19-a818-cbeb297ed884.jpg""]","",""
"","5075","similarity","199","1749475","0.0-6.0-193.0","2","[""img/0886/1870a791-dfee-471e-8417-197d4a53c75a.jpg"",""img/0868/fd307a36-9a3a-47d7-ab7c-f810d0b35040.jpg""]","",""
"","6764","similarity","200","1757251","0.0-6.0-194.0","3","[""img/0881/667e2147-d457-4f32-aa5f-6ab86e5848f1.jpg"",""img/0864/49150900-7f25-4ce8-8d10-9b47a71d1997.jpg""]","",""
"","3791","similarity","201","1762053","0.0-6.0-195.0","2","[""img/0866/d493a2c8-66eb-44b4-be02-2f327b700b7c.jpg"",""img/0868/4e626425-63c8-484a-8a1d-e66ee4e0bef8.jpg""]","",""
"","6587","similarity","202","1769645","0.0-6.0-196.0","1","[""img/0864/a248adb3-c70b-4652-b7a3-776d2a1e904b.jpg"",""img/0958/edfd5bc1-8c8f-489a-84c3-908436ef76cc.jpg""]","",""
"","3768","similarity","203","1774430","0.0-6.0-197.0","1","[""img/0757/4faaa503-45d9-43fa-bddb-707274a341ff.jpg"",""img/0886/bd45b474-5559-4ea5-83ff-140bce19f5fa.jpg""]","",""
"","5215","similarity","204","1780645","0.0-6.0-198.0","5","[""img/0758/eabcd7a8-56ad-4fd2-bc24-90f6b7b33265.jpg"",""img/0883/c6db9b70-f16c-47ee-a408-c9278365ae54.jpg""]","",""
"","5599","similarity","205","1787269","0.0-6.0-199.0","3","[""img/0881/f6bd3b96-dc40-4e99-8681-bc3a35cf896d.jpg"",""img/0958/822de3b9-e5fd-4b74-aeb1-7c40805b0717.jpg""]","",""
"","5166","similarity","206","1793454","0.0-6.0-200.0","3","[""img/0958/7168f8d3-e3ae-405a-93d0-64836d899932.jpg"",""img/0874/adf9a8f1-c40b-402b-b95b-1e85a54a7b62.jpg""]","",""
"","5936","similarity","207","1800398","0.0-6.0-201.0","1","[""img/0885/5225e532-2812-41d9-8ef0-0fbfc612784e.jpg"",""img/0860/8277806e-b684-4474-8f7b-3fca946d7d4f.jpg""]","",""
"","4161","similarity","208","1805566","0.0-6.0-202.0","1","[""img/0875/42910c99-5463-450a-a0f8-d4d060a11455.jpg"",""img/0881/609a5e93-38b5-4940-8627-2bf8fad7f802.jpg""]","",""
"","3978","similarity","209","1810553","0.0-6.0-203.0","1","[""img/0758/a085b443-b5d7-4cb2-9ad4-b9dab0fc23f1.jpg"",""img/0860/5bff793e-cbd5-4d7e-b628-0ac2b0e30b64.jpg""]","",""
"","4764","similarity","210","1816329","0.0-6.0-204.0","7","[""img/0860/61fb959d-d4d9-4de4-9e4e-4fa62b4cfcd5.jpg"",""img/0860/fd4662f9-4c03-4d79-8593-06735e55a64b.jpg""]","",""
"","5113","similarity","211","1822455","0.0-6.0-205.0","7","[""img/0874/767f289c-9814-4496-803f-745cc8913d1f.jpg"",""img/0874/a3bc679d-619f-4db6-bb68-116dcb757d9c.jpg""]","",""
"","5485","similarity","212","1828944","0.0-6.0-206.0","5","[""img/0883/eff15ce5-9393-443c-829f-71242d1c56d0.jpg"",""img/0761/b1819a20-de99-463b-9840-60a4b8faa30d.jpg""]","",""
"","6229","similarity","213","1836192","0.0-6.0-207.0","3","[""img/0761/edc0b069-71dc-4b11-b7f0-8429ea8ac5c9.jpg"",""img/0881/c24f3051-eefa-42de-aba6-fccb56d93c70.jpg""]","",""
"","3276","similarity","214","1840471","0.0-6.0-208.0","1","[""img/0760/83b0723f-4929-4ee7-ad35-fae98da3e152.jpg"",""img/0756/ba3f2106-0416-46e6-a788-1b50d9f92bda.jpg""]","",""
"","2948","similarity","215","1861227","0.0-6.0-209.0","1","[""img/0885/a8cbb477-19ef-45ef-8f48-9667aec40bd1.jpg"",""img/0757/014ee4a8-8069-4b08-ac1c-04230da90244.jpg""]","",""
"[{""page_index"":0,""viewing_time"":16896}]","16906","instructions","216","1879143","0.0-7.0","","","",""
"","45262","image-multi-choice","217","1925450","0.0-8.0-0.0","","","{""Q0"":""Orange-crowned Warbler""}","Orange-crowned Warbler"
"","17783","image-multi-choice","218","1944256","0.0-8.0-1.0","","","{""Q0"":""Wilson's Warbler""}","Wilson's Warbler"
"","43627","image-multi-choice","219","1988917","0.0-8.0-2.0","","","{""Q0"":""Blackpoll Warbler""}","Blackpoll Warbler"
"","5634","image-multi-choice","220","1995581","0.0-8.0-3.0","","","{""Q0"":""Black-and-white Warbler""}","Black-and-white Warbler"
"","4700","image-multi-choice","221","2001320","0.0-8.0-4.0","","","{""Q0"":""Yellow-breasted Chat""}","Yellow-breasted Chat"
"","7016","image-multi-choice","222","2009351","0.0-8.0-5.0","","","{""Q0"":""Canada Warbler""}","Canada Warbler"
"","7771","image-multi-choice","223","2018151","0.0-8.0-6.0","","","{""Q0"":""Common Yellowthroat""}","Common Yellowthroat"
"","16416","image-multi-choice","224","2035594","0.0-8.0-7.0","","","{""Q0"":""American Redstart""}","American Redstart"
"","6854","image-multi-choice","225","2043484","0.0-8.0-8.0","","","{""Q0"":""Chestnut-sided Warbler""}","Chestnut-sided Warbler"
"","5586","image-multi-choice","226","2050110","0.0-8.0-9.0","","","{""Q0"":""Black-throated Green Warbler""}","Black-throated Green Warbler"
"","14407","image-multi-choice","227","2065558","0.0-8.0-10.0","","","{""Q0"":""Blackburnian Warbler""}","Blackburnian Warbler"
"","120965","image-multi-choice","228","2187553","0.0-8.0-11.0","","","{""Q0"":""Yellow-rumped Warbler""}","Yellow-rumped Warbler"
"","5159","image-multi-choice","229","2193749","0.0-8.0-12.0","","","{""Q0"":""Ovenbird""}","Ovenbird"
"","18003","image-multi-choice","230","2212783","0.0-8.0-13.0","","","{""Q0"":""Townsend's Warbler""}","Townsend's Warbler"
"","9150","image-multi-choice","231","2222957","0.0-8.0-14.0","","","{""Q0"":""Northern Waterthrush""}","Northern Waterthrush"
"","4668","image-multi-choice","232","2228648","0.0-8.0-15.0","","","{""Q0"":""Yellow Warbler""}","Yellow Warbler"
"","52311","image-multi-choice","233","2281989","0.0-8.0-16.0","","","{""Q0"":""Nashville Warbler""}","Nashville Warbler"
"","29212","image-multi-choice","234","2312214","0.0-8.0-17.0","","","{""Q0"":""Northern Parula""}","Northern Parula"
"","9533","image-multi-choice","235","2322763","0.0-8.0-18.0","","","{""Q0"":""Tennessee Warbler""}","Tennessee Warbler"
"","8994","image-multi-choice","236","2332779","0.0-8.0-19.0","","","{""Q0"":""Magnolia Warbler""}","Magnolia Warbler"
