"view_history","rt","trial_type","trial_index","time_elapsed","internal_node_id","sim_score","stimulus","responses","answer"
"[{""page_index"":0,""viewing_time"":347431}]","347435","instructions","0","347438","0.0-0.0","","","",""
"","7348","similarity_demo","1","355815","0.0-1.0","7","[""img/bluejay1.jpg"",""img/bluejay2.jpg""]","",""
"[{""page_index"":0,""viewing_time"":9320}]","9323","instructions","2","366145","0.0-2.0","","","",""
"","7806","similarity_demo","3","374975","0.0-3.0","5","[""img/bluejay1.jpg"",""img/cardinal1.jpg""]","",""
"[{""page_index"":0,""viewing_time"":14655}]","14655","instructions","4","390633","0.0-4.0","","","",""
"[{""page_index"":0,""viewing_time"":34639}]","34640","instructions","5","426281","0.0-5.0","","","",""
"","8777","similarity","6","436076","0.0-6.0-0.0","3","[""img/0864/3651d070-2fc5-4848-b6a6-088a2d9ac5c9.jpg"",""img/0860/c47fdead-eb02-4989-b078-26f4852f44fe.jpg""]","",""
"","7693","similarity","7","444788","0.0-6.0-1.0","3","[""img/0884/37ee4afa-34a0-4da2-bdb0-fcaff43dcdb6.jpg"",""img/0760/fe62dd62-331c-4317-8af2-f1c816871fee.jpg""]","",""
"","6655","similarity","8","452470","0.0-6.0-2.0","3","[""img/0886/bd45b474-5559-4ea5-83ff-140bce19f5fa.jpg"",""img/0881/7e31e5dc-2240-4b1b-b5a0-3acd980099ef.jpg""]","",""
"","5779","similarity","9","459268","0.0-6.0-3.0","3","[""img/0866/bf14b5bd-fb55-47db-86b9-4f8aeb9a6dad.jpg"",""img/0881/e046471a-35b4-4159-bbf7-3cfd201bef66.jpg""]","",""
"","5474","similarity","10","465766","0.0-6.0-4.0","5","[""img/0868/7b212364-ff5f-4e28-9241-7eb6ea00161b.jpg"",""img/0885/89d8c48b-8bde-42ed-ae71-de669b15ea34.jpg""]","",""
"","6170","similarity","11","472956","0.0-6.0-5.0","1","[""img/0757/a3620c04-efdc-4b42-940c-806958d1351e.jpg"",""img/0866/11a1d141-be5e-443c-98c1-a9d4d9e3dec0.jpg""]","",""
"","5015","similarity","12","478987","0.0-6.0-6.0","1","[""img/0868/09a9ef4d-d000-4cfa-a6aa-ebec7c2edeb4.jpg"",""img/0864/f92649a2-0590-4d31-9a7a-1bfb81666a2d.jpg""]","",""
"","5004","similarity","13","485017","0.0-6.0-7.0","7","[""img/0864/1ebbc554-99fa-49f9-8799-317375a79820.jpg"",""img/0864/5f33e097-23e3-4002-882d-76e8cb15f451.jpg""]","",""
"","5662","similarity","14","491692","0.0-6.0-8.0","1","[""img/0757/76206a63-e02d-4beb-a85a-ed1b5527bc36.jpg"",""img/0881/62a64f90-7a72-4aee-a1a1-0c548ac9bdda.jpg""]","",""
"","6431","similarity","15","499140","0.0-6.0-9.0","1","[""img/0886/451550d7-6ff9-42b5-938c-9e20ee960bf6.jpg"",""img/0760/c76e8a36-1537-42e0-9779-13c2b6a89725.jpg""]","",""
"","6693","similarity","16","506859","0.0-6.0-10.0","1","[""img/0884/2348ce3f-5d2a-4a04-85ef-a65f05caa935.jpg"",""img/0883/d719aab0-0280-4c06-87e5-b9db7454965c.jpg""]","",""
"","6390","similarity","17","514259","0.0-6.0-11.0","5","[""img/0874/eba003b4-cdab-4eee-8bc3-f064c7d94165.jpg"",""img/0862/1c20f772-3a51-4a80-aac0-f57dc9f86c28.jpg""]","",""
"","7020","similarity","18","522306","0.0-6.0-12.0","5","[""img/0862/fb26cb07-d5a9-4653-813c-f41609f26cd5.jpg"",""img/0875/ebf7653f-ff45-4e9f-af58-2c042ab3cd2b.jpg""]","",""
"","5024","similarity","19","528355","0.0-6.0-13.0","1","[""img/0875/a4935837-7d3c-4df6-88c1-36a94d4991ca.jpg"",""img/0757/1aca59fd-6030-4bb0-93c7-32a90f3237cf.jpg""]","",""
"","7221","similarity","20","536586","0.0-6.0-14.0","5","[""img/0875/03c3c331-738b-4446-af92-3d7386b08c2e.jpg"",""img/0860/e8b8c51e-1834-4875-8b61-6c5bc9b178bd.jpg""]","",""
"","8280","similarity","21","545883","0.0-6.0-15.0","1","[""img/0860/4c530c3c-6aab-492a-94d1-9c01797bde40.jpg"",""img/0881/445edb15-bd7f-4af3-8bd5-c6ad9677bb31.jpg""]","",""
"","6197","similarity","22","553104","0.0-6.0-16.0","5","[""img/0885/a8cbb477-19ef-45ef-8f48-9667aec40bd1.jpg"",""img/0884/0b4cf8d4-4c8f-4312-a794-f99e01679176.jpg""]","",""
"","5438","similarity","23","559562","0.0-6.0-17.0","7","[""img/0761/00a8e7ae-d8da-4cba-8969-1dfb943a2aa2.jpg"",""img/0761/5747fedf-15f2-47fe-87c8-ff646dd66a5f.jpg""]","",""
"","6318","similarity","24","566900","0.0-6.0-18.0","1","[""img/0760/32bea725-69a2-4c9a-94d9-af05883fbb86.jpg"",""img/0864/65210d57-1153-4657-886a-32e758f49b4a.jpg""]","",""
"","4584","similarity","25","572505","0.0-6.0-19.0","1","[""img/0864/87c467d3-abca-482f-ad80-3766c21b1bb3.jpg"",""img/0875/2e13d160-eea1-416b-aff1-d37ab99ecc1d.jpg""]","",""
"","7382","similarity","26","580899","0.0-6.0-20.0","3","[""img/0874/ca23d307-fc00-4d7d-9106-584c6eb21b4d.jpg"",""img/0884/05d9bfb9-44a6-4ab4-92fa-d17e5b2b4f33.jpg""]","",""
"","6327","similarity","27","588251","0.0-6.0-21.0","7","[""img/0885/8cdf3204-e0f1-482b-9546-5edca3d81376.jpg"",""img/0866/d266fece-59b3-46fa-b69f-96f6efb81b59.jpg""]","",""
"","7357","similarity","28","596629","0.0-6.0-22.0","7","[""img/0868/4bd5105a-d2c3-4f82-8c80-57196106ba53.jpg"",""img/0868/293079b8-7e0c-4afd-a390-1e5d35fe3ded.jpg""]","",""
"","4574","similarity","29","602241","0.0-6.0-23.0","1","[""img/0757/8993d166-c8ae-43f6-b269-9e8bd3379d57.jpg"",""img/0756/2d59e6c9-df29-4c76-a030-db83f23c8b9b.jpg""]","",""
"","4420","similarity","30","607682","0.0-6.0-24.0","7","[""img/0875/d59ff733-eaff-4ee2-9443-06954dd0bcb6.jpg"",""img/0875/5a1e5100-0d94-4fec-bbe9-ca9894d2cf8e.jpg""]","",""
"","5079","similarity","31","613771","0.0-6.0-25.0","1","[""img/0761/e34f97e4-14ac-4bb6-b226-816085d967c2.jpg"",""img/0866/4a87911a-d5be-4d4e-ab8e-3d1f581bf507.jpg""]","",""
"","4314","similarity","32","619109","0.0-6.0-26.0","1","[""img/0866/d493a2c8-66eb-44b4-be02-2f327b700b7c.jpg"",""img/0758/67c0be2f-9e91-48b3-8219-70ac0a1802fa.jpg""]","",""
"","4188","similarity","33","624321","0.0-6.0-27.0","1","[""img/0758/65d426d6-3ff6-415d-8654-a43b83ecc4fe.jpg"",""img/0875/e7e66b13-b573-431e-b85e-288ce04a35a3.jpg""]","",""
"","6426","similarity","34","631763","0.0-6.0-28.0","3","[""img/0958/96f89270-febc-4f09-b8c3-53a249ff00ea.jpg"",""img/0757/2f6a36b2-6543-4003-bcb9-6f2c61db2de8.jpg""]","",""
"","6008","similarity","35","638787","0.0-6.0-29.0","3","[""img/0873/6110910a-7895-4b6a-af51-12486a4595a3.jpg"",""img/0883/e7e4af6a-bc7a-4a9b-921c-32652db13239.jpg""]","",""
"","6142","similarity","36","645940","0.0-6.0-30.0","3","[""img/0868/8b0b8473-e2c0-4331-aa56-c3a5c29369da.jpg"",""img/0875/34132396-d896-4c2d-8087-646dd867e769.jpg""]","",""
"","5972","similarity","37","652931","0.0-6.0-31.0","3","[""img/0884/7f9cc898-36bc-49ec-8b1a-01065d9c0062.jpg"",""img/0862/f188d4f0-76a4-4102-818c-a209969d73a5.jpg""]","",""
"","13359","similarity","38","667307","0.0-6.0-32.0","1","[""img/0884/baabff07-71d8-424e-ac29-644768380941.jpg"",""img/0864/afcba0a3-7e27-4757-b254-e9f05fad27e2.jpg""]","",""
"","6584","similarity","39","674898","0.0-6.0-33.0","7","[""img/0883/ff85a2f1-14b1-4b7e-9c87-887151d97e01.jpg"",""img/0958/58b7811e-d3f6-4e4d-befb-86e063d13a43.jpg""]","",""
"","4483","similarity","40","680395","0.0-6.0-34.0","1","[""img/0864/c22faebd-9c53-47bc-ada3-b9a30c688e75.jpg"",""img/0756/b5b6c1ba-df7c-4bac-94ac-786f45dbb140.jpg""]","",""
"","6879","similarity","41","688283","0.0-6.0-35.0","5","[""img/0874/3f471690-9788-4d03-90c7-f615aecef149.jpg"",""img/0758/a085b443-b5d7-4cb2-9ad4-b9dab0fc23f1.jpg""]","",""
"","6617","similarity","42","695915","0.0-6.0-36.0","1","[""img/0886/625c7dfa-3fa1-4166-80f0-229eb416b04f.jpg"",""img/0862/5d887e9f-89e2-4ebc-80a0-6d46fe6480db.jpg""]","",""
"","5869","similarity","43","702794","0.0-6.0-37.0","1","[""img/0862/f43ceabf-acc1-4107-b857-5d1849808f93.jpg"",""img/0885/1e66fe61-15d5-42b1-86aa-dbfd13613f5c.jpg""]","",""
"","4845","similarity","44","708651","0.0-6.0-38.0","7","[""img/0758/d540bee6-b460-4c32-ac57-bc282742d7d4.jpg"",""img/0864/66091c27-e588-4476-8af9-265dc6be4156.jpg""]","",""
"","6952","similarity","45","716626","0.0-6.0-39.0","5","[""img/0873/b02f9cce-7f58-4f1b-baed-50fee9f0a21f.jpg"",""img/0867/a749dddb-69f0-44a6-acdc-2bf295cf6dcc.jpg""]","",""
"","6040","similarity","46","723683","0.0-6.0-40.0","3","[""img/0958/6e602e13-8029-4642-bce0-8deffd0dc686.jpg"",""img/0884/a8f7b854-0010-4c7a-a8fb-b1b1dc1f1ba1.jpg""]","",""
"","5661","similarity","47","747329","0.0-6.0-41.0","7","[""img/0873/b76d7003-814d-42b0-9a16-1399c4b0e706.jpg"",""img/0873/ac86dbfd-0442-4dec-9d10-37d7093f5a52.jpg""]","",""
"","6131","similarity","48","754476","0.0-6.0-42.0","1","[""img/0886/aef00ed5-e288-47bf-b31e-512d7e762ea2.jpg"",""img/0758/f61ecdf8-a7d4-4db0-b84d-be46f7cfaffc.jpg""]","",""
"","6682","similarity","49","762170","0.0-6.0-43.0","3","[""img/0883/122548fc-b3cc-445b-b7c0-04794df6d11d.jpg"",""img/0874/7e4f2150-3b59-4a36-b5da-a4e0ba410531.jpg""]","",""
"","5439","similarity","50","768619","0.0-6.0-44.0","1","[""img/0881/0c7068da-d0d9-4103-bda1-74ef7a2b32c3.jpg"",""img/0873/226317e0-f0e7-42ea-907b-058cb1ad519a.jpg""]","",""
"","3829","similarity","51","773466","0.0-6.0-45.0","1","[""img/0867/c71dc569-f49c-4397-8381-68b8d726736d.jpg"",""img/0757/443a1d16-5d59-4e77-a670-d6190157c319.jpg""]","",""
"","5055","similarity","52","779547","0.0-6.0-46.0","1","[""img/0866/945c6710-d15b-4a5b-a8f6-69af0850357f.jpg"",""img/0874/31e22c7c-99aa-40b1-bf03-dd73fa2df4d6.jpg""]","",""
"","7125","similarity","53","787682","0.0-6.0-47.0","7","[""img/0886/1870a791-dfee-471e-8417-197d4a53c75a.jpg"",""img/0886/7164ac42-460f-4beb-9d5e-a1cfded3099c.jpg""]","",""
"","8240","similarity","54","796940","0.0-6.0-48.0","7","[""img/0883/0e1ed5c7-0881-4bfd-b12f-6a53500e74f0.jpg"",""img/0860/8fdba999-b946-4c7d-9891-336018b563ef.jpg""]","",""
"","4650","similarity","55","802602","0.0-6.0-49.0","1","[""img/0860/94ef7afc-e0e6-4a15-98c6-0bfac82bc832.jpg"",""img/0756/4fcf5ea1-c2e0-44b9-b07f-26cbf07e1801.jpg""]","",""
"","4916","similarity","56","808533","0.0-6.0-50.0","1","[""img/0860/fd4662f9-4c03-4d79-8593-06735e55a64b.jpg"",""img/0757/4f8ae92b-a4ab-4020-b4fb-80c5615e76ac.jpg""]","",""
"","4260","similarity","57","813802","0.0-6.0-51.0","7","[""img/0756/a8246880-fb51-43bb-b25d-905e6e0d7880.jpg"",""img/0756/bb3f0571-641e-4d5b-b528-672892c37030.jpg""]","",""
"","5876","similarity","58","820690","0.0-6.0-52.0","5","[""img/0875/8521fd58-3b1e-4dc5-97ae-804edfa6734a.jpg"",""img/0866/620cd1aa-0800-4414-8f6e-90342e7a99ad.jpg""]","",""
"","5979","similarity","59","827690","0.0-6.0-53.0","7","[""img/0756/7a83dec0-4724-4efc-9fbf-52a30b5acd99.jpg"",""img/0758/335851a0-a55b-46d8-ab05-8463eda48349.jpg""]","",""
"","6607","similarity","60","835306","0.0-6.0-54.0","3","[""img/0761/47960f80-42b7-4397-a852-ec55d716c652.jpg"",""img/0884/e275ab3e-0948-43c3-8be7-a75271922185.jpg""]","",""
"","6610","similarity","61","842938","0.0-6.0-55.0","1","[""img/0760/36c930c0-2660-41c1-a356-77dafb18ae83.jpg"",""img/0867/179ab87a-8eac-4c52-a41f-2e48e3120f09.jpg""]","",""
"","5923","similarity","62","849882","0.0-6.0-56.0","1","[""img/0866/386235d2-6857-41e7-88a8-25cfc3430025.jpg"",""img/0884/9b1b7885-1502-448f-9b20-ddc19aa5456f.jpg""]","",""
"","5784","similarity","63","856683","0.0-6.0-57.0","3","[""img/0756/6413e12f-951d-47b5-ae55-9fad7fb8d112.jpg"",""img/0761/ff3e024b-951d-4aca-a168-c09c6507525d.jpg""]","",""
"","4134","similarity","64","861850","0.0-6.0-58.0","1","[""img/0867/85a96c62-548f-4994-9553-819e03c3135a.jpg"",""img/0860/4a022222-056d-461c-ab02-39fac9647552.jpg""]","",""
"","6139","similarity","65","869003","0.0-6.0-59.0","7","[""img/0881/f6bd3b96-dc40-4e99-8681-bc3a35cf896d.jpg"",""img/0758/61d64021-9214-4951-bdf8-f871f9827cf9.jpg""]","",""
"","8497","similarity","66","878507","0.0-6.0-60.0","5","[""img/0761/53a65b48-8b0c-4a1d-9ebb-a27a259c5bc6.jpg"",""img/0758/7ffbc76b-1fc1-432c-8f7e-9ec8d1b3f643.jpg""]","",""
"","6518","similarity","67","886044","0.0-6.0-61.0","1","[""img/0958/7168f8d3-e3ae-405a-93d0-64836d899932.jpg"",""img/0875/3ecb367d-e9eb-4826-8aaa-7aa72fb98019.jpg""]","",""
"","4991","similarity","68","892050","0.0-6.0-62.0","1","[""img/0886/c6c81122-f4bf-46f4-968b-167f8ed0cab3.jpg"",""img/0864/ef9cbca0-4be8-435d-ad49-977259e80409.jpg""]","",""
"","5080","similarity","69","898147","0.0-6.0-63.0","1","[""img/0756/caa9655d-9f7e-420d-a757-6af4985d335a.jpg"",""img/0874/93d1f8dc-acf2-4f03-bd8d-8ec35df276ed.jpg""]","",""
"","4917","similarity","70","904082","0.0-6.0-64.0","1","[""img/0758/821c68d3-5cb0-4eae-8659-30e6263fca39.jpg"",""img/0885/21b241a1-95da-4306-9cf2-cc52a784214a.jpg""]","",""
"","6716","similarity","71","911810","0.0-6.0-65.0","3","[""img/0760/237fa1c2-d59d-4475-8d1e-f9a4eb71f989.jpg"",""img/0958/b11515b3-5f04-4c3e-be00-56a05c6c3e96.jpg""]","",""
"","7203","similarity","72","920036","0.0-6.0-66.0","3","[""img/0884/3613aeb4-0028-4205-aea0-1ea28cb1f80e.jpg"",""img/0881/33d65d80-8a8e-4ecf-852d-0ad7725c17a2.jpg""]","",""
"","5981","similarity","73","927048","0.0-6.0-67.0","1","[""img/0864/9b2490c5-a282-400a-9736-e1a0ecbf1cb7.jpg"",""img/0873/d74e4aa9-420d-48a3-a42f-30a3481536ae.jpg""]","",""
"","6378","similarity","74","934434","0.0-6.0-68.0","3","[""img/0862/ad593cc7-cabe-4bb7-8e14-8a447a0717b4.jpg"",""img/0758/53f35650-e455-4b53-8be4-c3c8271c6466.jpg""]","",""
"","5751","similarity","75","941203","0.0-6.0-69.0","7","[""img/0757/69d850ce-9828-4b13-9e68-6a2c196ecbcc.jpg"",""img/0757/86df581e-81a2-4205-95e3-1ea87cea1f36.jpg""]","",""
"","5693","similarity","76","947914","0.0-6.0-70.0","5","[""img/0860/b03b963d-949b-4d8d-b19c-4950c89eeca2.jpg"",""img/0862/00c06b00-3b73-44e9-bc1e-c5aafb438321.jpg""]","",""
"","5489","similarity","77","954418","0.0-6.0-71.0","7","[""img/0860/4f695df5-afac-4da7-9875-fee39b0b24ad.jpg"",""img/0884/592da15b-09e4-46b5-81e7-bab08a1c33e9.jpg""]","",""
"","7679","similarity","78","963114","0.0-6.0-72.0","3","[""img/0883/68a56098-91b8-4c40-8827-7808704aa1bc.jpg"",""img/0866/be24ab58-230e-4db8-9f45-ff04c9aec6bb.jpg""]","",""
"","6423","similarity","79","970547","0.0-6.0-73.0","7","[""img/0866/07c9c966-3c8d-40e7-8128-92b2acbaed5d.jpg"",""img/0886/b8648eb5-de71-41ab-825d-848e51be8c1b.jpg""]","",""
"","7413","similarity","80","978978","0.0-6.0-74.0","7","[""img/0958/9be61b1d-099b-432a-ae0e-2aa69e157c0e.jpg"",""img/0761/3599fa54-18f9-488e-b402-e851c43586ff.jpg""]","",""
"","4829","similarity","81","984819","0.0-6.0-75.0","1","[""img/0875/2c361b79-c3d1-4eda-812e-bf03192407bf.jpg"",""img/0756/8fdfa93c-88d0-4311-be2d-7f799fcaa8de.jpg""]","",""
"","6499","similarity","82","992338","0.0-6.0-76.0","1","[""img/0958/bb684a39-afef-4125-9f70-b5ad830ba316.jpg"",""img/0885/c840cf2c-c95d-4a08-b3c2-044d1ea946a7.jpg""]","",""
"","5804","similarity","83","999162","0.0-6.0-77.0","1","[""img/0868/fd307a36-9a3a-47d7-ab7c-f810d0b35040.jpg"",""img/0883/dc95de8d-9297-41ec-b3ac-3f8b060260e3.jpg""]","",""
"","5978","similarity","84","1006154","0.0-6.0-78.0","1","[""img/0862/24cdc752-c2e5-4a17-86a6-6f2045d8553b.jpg"",""img/0760/fc99ba9e-e7fa-443b-9ba0-2b3c76930893.jpg""]","",""
"","5470","similarity","85","1012635","0.0-6.0-79.0","3","[""img/0885/6873c613-5e40-42ff-a5b6-443b6b626ae2.jpg"",""img/0761/a69897c1-1310-4bae-9a51-8b29cd9543dd.jpg""]","",""
"","7660","similarity","86","1021315","0.0-6.0-80.0","3","[""img/0862/47ed5efd-4ec9-4b74-bb4e-a5f5cf0c3e7d.jpg"",""img/0864/49150900-7f25-4ce8-8d10-9b47a71d1997.jpg""]","",""
"","5954","similarity","87","1028282","0.0-6.0-81.0","7","[""img/0758/d57c2592-a317-4f63-91be-91a3a9afd222.jpg"",""img/0758/6cd8c362-ae2a-41eb-80a3-3a4f7ace1530.jpg""]","",""
"","5158","similarity","88","1034458","0.0-6.0-82.0","1","[""img/0862/de9ad88c-b522-430a-8ee9-eb06a9f85df5.jpg"",""img/0873/e5374873-a1a7-4689-a04c-a3b959992244.jpg""]","",""
"","6124","similarity","89","1052985","0.0-6.0-83.0","3","[""img/0760/a97cc3a7-3e6e-423e-ac87-e1d1ab280ae9.jpg"",""img/0757/417763f8-6fe7-44f2-acaa-613a44f20835.jpg""]","",""
"","6077","similarity","90","1060077","0.0-6.0-84.0","1","[""img/0867/8ba0c5a7-c7e4-42cf-a80a-543763b90779.jpg"",""img/0881/c843e210-bdfe-4a7c-8bbe-fcea1f90fe1c.jpg""]","",""
"","5243","similarity","91","1066339","0.0-6.0-85.0","1","[""img/0885/5a47e19f-19b4-4545-bf47-b508cb65da6a.jpg"",""img/0886/1e8c0f89-c766-41c9-b522-83c342048f34.jpg""]","",""
"","6493","similarity","92","1073843","0.0-6.0-86.0","5","[""img/0866/93a27239-8317-4e08-98ca-d8b1ff298e07.jpg"",""img/0864/8ddd2e30-a1d0-479f-9cbe-591213023893.jpg""]","",""
"","6157","similarity","93","1081011","0.0-6.0-87.0","7","[""img/0874/c0378dac-9370-439a-8b79-db27c96fb390.jpg"",""img/0881/dea58fad-b4f1-41d9-bd3f-916eff19a3fd.jpg""]","",""
"","6003","similarity","94","1088040","0.0-6.0-88.0","1","[""img/0866/a15b02be-11bb-43e3-b0e0-ecc3bd7dfc49.jpg"",""img/0760/c7d43bfd-465f-4f4e-8dc1-ae4cd3d2c1de.jpg""]","",""
"","5490","similarity","95","1094550","0.0-6.0-89.0","1","[""img/0867/ac1797e4-8afc-48fe-b252-86d1defb1cca.jpg"",""img/0884/3c61ea12-a408-47ce-98aa-b14e0f6d4591.jpg""]","",""
"","4310","similarity","96","1099871","0.0-6.0-90.0","1","[""img/0757/20c59f64-1fc2-448d-8423-42cbd8fe0164.jpg"",""img/0862/cdaed51d-9e2f-4807-801a-4663c40077e2.jpg""]","",""
"","4447","similarity","97","1105343","0.0-6.0-91.0","1","[""img/0867/db7e032f-162b-46f5-ae67-2b29679adee4.jpg"",""img/0761/a74c99e4-d9ed-42cd-9e83-8d525cb6a9a2.jpg""]","",""
"","4466","similarity","98","1110818","0.0-6.0-92.0","1","[""img/0868/e0aff734-077f-40dd-9781-74821abd3621.jpg"",""img/0958/acbadc39-e665-446d-b98f-ccd0ef3223d6.jpg""]","",""
"","6800","similarity","99","1118626","0.0-6.0-93.0","5","[""img/0874/a82926a3-0b43-4add-803c-d5f9ea7798ee.jpg"",""img/0864/e02eddb5-f468-499c-91bf-f7be3ffe979b.jpg""]","",""
"","6967","similarity","100","1126611","0.0-6.0-94.0","5","[""img/0760/0864f159-c076-4573-83e1-ea134f239717.jpg"",""img/0873/ec150e40-b3ec-4dfe-ab38-bb3f248a1175.jpg""]","",""
"","6749","similarity","101","1134378","0.0-6.0-95.0","3","[""img/0868/5fa7f9d0-f0e5-454c-8224-74d964818f56.jpg"",""img/0873/b1e2e09f-ad9a-433e-818f-56dd2f1cb09c.jpg""]","",""
"","6340","similarity","102","1141741","0.0-6.0-96.0","3","[""img/0860/f44ba3fb-03a2-42f0-8509-2c1ded493086.jpg"",""img/0761/bd083642-a9bc-4877-bfc6-63bd03d33e81.jpg""]","",""
"","7277","similarity","103","1150049","0.0-6.0-97.0","1","[""img/0862/f23038d4-c366-4f70-979f-66b62362efa4.jpg"",""img/0883/c6db9b70-f16c-47ee-a408-c9278365ae54.jpg""]","",""
"","6678","similarity","104","1157739","0.0-6.0-98.0","1","[""img/0757/c05f53f3-811c-4a3b-b848-a27b80b8fd53.jpg"",""img/0884/ee845634-cd54-4c06-95a9-962122ef8712.jpg""]","",""
"","4123","similarity","105","1162875","0.0-6.0-99.0","1","[""img/0867/075e0f95-856b-4cbb-acf5-092393aaf04e.jpg"",""img/0756/b8d6aa83-8673-4e0d-be72-b3da2bae7a6d.jpg""]","",""
"","4342","similarity","106","1168228","0.0-6.0-100.0","1","[""img/0958/edfd5bc1-8c8f-489a-84c3-908436ef76cc.jpg"",""img/0756/5dba4151-3cf5-42f5-8dd9-7c6128318b01.jpg""]","",""
"","6591","similarity","107","1175826","0.0-6.0-101.0","7","[""img/0760/4c78b78c-193e-4a1e-8bb2-394add325fda.jpg"",""img/0760/ed469d78-34af-4ea9-a969-05ea527438a2.jpg""]","",""
"","6194","similarity","108","1183043","0.0-6.0-102.0","5","[""img/0873/0c7f3d86-efda-4809-aac4-256ba01e0536.jpg"",""img/0875/fb732ab5-013a-4366-9f65-27811ed157e9.jpg""]","",""
"","5514","similarity","109","1189579","0.0-6.0-103.0","7","[""img/0884/7ae02e9d-46a4-4124-bcc2-cad90d7ef9f9.jpg"",""img/0884/ffcce05a-b38d-4570-b3dc-751e89b7790a.jpg""]","",""
"","6322","similarity","110","1196915","0.0-6.0-104.0","1","[""img/0873/87f38f18-48a2-4de3-b24b-70630e8b6ca0.jpg"",""img/0885/1cd940ef-9720-4a04-8fa1-1dd3a39ecdd6.jpg""]","",""
"","6047","similarity","111","1203971","0.0-6.0-105.0","1","[""img/0883/77f31752-1984-44f7-a77d-e22c2ad54256.jpg"",""img/0875/cff79b3a-a797-4393-9757-6275f999ec04.jpg""]","",""
"","4732","similarity","112","1209723","0.0-6.0-106.0","1","[""img/0864/e336a4c5-6648-4fd7-b2f6-93a3fb83f8c6.jpg"",""img/0867/a498eef3-9fa4-4ab2-9778-4ae82ac40dc5.jpg""]","",""
"","6062","similarity","113","1216808","0.0-6.0-107.0","1","[""img/0958/ba5ed153-96de-4f61-b7d9-87a478c8972c.jpg"",""img/0860/d9a0d117-6d1d-41c0-8fec-9aff0fd9e9f2.jpg""]","",""
"","5429","similarity","114","1223258","0.0-6.0-108.0","1","[""img/0885/fce9f22a-f769-477c-acee-a5ad8214f0a5.jpg"",""img/0756/aa551726-e765-4729-82aa-99d700d388ae.jpg""]","",""
"","4739","similarity","115","1229013","0.0-6.0-109.0","1","[""img/0883/6884954b-873e-4d6f-9b4b-95d158e0de6c.jpg"",""img/0885/24afeefb-f7b3-4e8f-a5b9-17cc00fd22e3.jpg""]","",""
"","6830","similarity","116","1236861","0.0-6.0-110.0","7","[""img/0867/f26f6b60-f772-4f4c-95a4-addc62cfd692.jpg"",""img/0867/7d1c497b-c1b3-4ed8-abb5-d7f73306015f.jpg""]","",""
"","6671","similarity","117","1244548","0.0-6.0-111.0","3","[""img/0881/84397291-bc14-4fbf-90e8-241e486ab0fe.jpg"",""img/0760/57510c7a-e5a9-420e-9b3f-f7423746f67c.jpg""]","",""
"","6036","similarity","118","1251602","0.0-6.0-112.0","1","[""img/0881/405484ae-0d00-4b05-bc57-6420a36adfac.jpg"",""img/0868/c8ac40c7-6904-4e13-8d61-c75d3052dc4e.jpg""]","",""
"","4585","similarity","119","1257202","0.0-6.0-113.0","1","[""img/0875/99698b4d-b4a1-44bc-8c83-8ea755bbbf61.jpg"",""img/0761/8e379ec1-757d-4427-a0ff-d4efdd6a50c4.jpg""]","",""
"","4553","similarity","120","1262770","0.0-6.0-114.0","1","[""img/0756/09fde3d3-27c5-435e-b68f-5410beb04e99.jpg"",""img/0866/f756f7d1-9ad8-4a34-9ef6-7a443d705bfe.jpg""]","",""
"","6239","similarity","121","1270026","0.0-6.0-115.0","3","[""img/0884/fb8b0101-bfd2-462b-a942-d3202a69dd18.jpg"",""img/0886/9ac18ff1-d3d9-4bfe-aa2e-ed5b28399f6c.jpg""]","",""
"","6602","similarity","122","1277642","0.0-6.0-116.0","3","[""img/0756/8f917ff3-2930-4f81-812b-19555fe71261.jpg"",""img/0881/ed4c971f-0873-4fc8-b6d6-e8bbd82f0bcc.jpg""]","",""
"","5517","similarity","123","1284170","0.0-6.0-117.0","1","[""img/0760/83b0723f-4929-4ee7-ad35-fae98da3e152.jpg"",""img/0875/90da8d75-108a-44ad-b999-e21fee3860d3.jpg""]","",""
"","6005","similarity","124","1291195","0.0-6.0-118.0","3","[""img/0958/eea2b7ca-1c37-4e76-ada7-a8b1f3afdc01.jpg"",""img/0866/a04d37f0-99dd-478a-b6c6-58b215138f84.jpg""]","",""
"","4801","similarity","125","1297011","0.0-6.0-119.0","1","[""img/0867/f8159067-056c-41f1-a136-c529fe5e970a.jpg"",""img/0874/1016b306-087c-4afc-aa08-fa527b28dc76.jpg""]","",""
"","6846","similarity","126","1304875","0.0-6.0-120.0","3","[""img/0883/903939ef-a67c-40d3-841d-52555815cd88.jpg"",""img/0757/8fdf4047-c2dc-42bc-9724-c35bd113f1dc.jpg""]","",""
"","6551","similarity","127","1312442","0.0-6.0-121.0","3","[""img/0874/bf14b896-e930-4fd9-9c05-2e83317a2773.jpg"",""img/0886/48077111-b86b-4612-910f-90a5d168d77f.jpg""]","",""
"","4608","similarity","128","1318066","0.0-6.0-122.0","1","[""img/0873/c3ff3b70-fb22-42f2-883c-3ecffd77cb4b.jpg"",""img/0761/5ed865c0-8bfb-4310-9b47-690b3e450ca2.jpg""]","",""
"","5817","similarity","129","1324890","0.0-6.0-123.0","1","[""img/0875/dbdd643e-6d0e-4a5c-ab57-b9c29b9c981a.jpg"",""img/0884/a416b0d1-f903-4935-b89f-99c29683752b.jpg""]","",""
"","4336","similarity","130","1330242","0.0-6.0-124.0","1","[""img/0757/89ce15d5-a3da-4a62-ac9f-c28a9273bf33.jpg"",""img/0868/179a5502-ab5c-478e-8263-5a1fbcc101d2.jpg""]","",""
"","6049","similarity","131","1348562","0.0-6.0-125.0","1","[""img/0886/0f9715c1-b2e4-418e-bf9b-126cc9e70dc6.jpg"",""img/0883/1f394dd2-551c-4c8b-af82-f6a6fbe567bb.jpg""]","",""
"","6382","similarity","132","1355955","0.0-6.0-126.0","1","[""img/0868/4a8a45ed-2c4f-421b-9564-409a33ecd26c.jpg"",""img/0760/1c96ffb7-17db-4253-b66c-59250977c88b.jpg""]","",""
"","6283","similarity","133","1363251","0.0-6.0-127.0","7","[""img/0881/667e2147-d457-4f32-aa5f-6ab86e5848f1.jpg"",""img/0881/c24f3051-eefa-42de-aba6-fccb56d93c70.jpg""]","",""
"","5111","similarity","134","1369379","0.0-6.0-128.0","1","[""img/0760/dddcdfaf-2d02-4de9-a176-5705d0004b5a.jpg"",""img/0860/e14d67c1-6d92-4f1e-9257-c8607159c19c.jpg""]","",""
"","5692","similarity","135","1376091","0.0-6.0-129.0","1","[""img/0864/e8bd659f-aa43-4748-877e-3118e8b4e189.jpg"",""img/0885/8960bf05-34df-4a86-a9b2-6087c70e61d3.jpg""]","",""
"","4415","similarity","136","1381523","0.0-6.0-130.0","1","[""img/0864/6e846d43-94a6-4b37-a268-65eda979f052.jpg"",""img/0757/10030bb1-70b8-4889-a8a5-ab50e145704d.jpg""]","",""
"","7147","similarity","137","1389683","0.0-6.0-131.0","5","[""img/0760/9daf8012-19c4-498f-8f51-81ec001a83be.jpg"",""img/0883/3b1366c6-7baa-4ad2-889c-1ff9c3b379c9.jpg""]","",""
"","4789","similarity","138","1395482","0.0-6.0-132.0","7","[""img/0885/62bd11a8-7059-4cc2-b06d-4700688b313f.jpg"",""img/0885/0cdcdaca-f91e-4d4a-a6f6-dc90ab676435.jpg""]","",""
"","5393","similarity","139","1401895","0.0-6.0-133.0","1","[""img/0860/15b24a61-25be-4356-9eac-5ce95d0cb4a4.jpg"",""img/0868/3a62db2d-97e9-44a3-b8e3-a48c6f0e423b.jpg""]","",""
"","5990","similarity","140","1408898","0.0-6.0-134.0","7","[""img/0867/6e19c858-b606-45b2-a4c6-910a73f1d82c.jpg"",""img/0886/789f5d23-84b8-499a-ae1e-20c6309a06ae.jpg""]","",""
"","5919","similarity","141","1415839","0.0-6.0-135.0","1","[""img/0756/403d0540-b812-446f-bb5a-e8030be0a02f.jpg"",""img/0886/9b0bffbe-9237-404d-a0ba-a1982e0814c7.jpg""]","",""
"","6315","similarity","142","1423186","0.0-6.0-136.0","5","[""img/0884/10c0a35b-e20a-4d75-a7c0-959a578d9ebf.jpg"",""img/0868/77091fc7-a590-4ebb-b915-fdb2483a2399.jpg""]","",""
"","5765","similarity","143","1429982","0.0-6.0-137.0","7","[""img/0958/df7705da-e817-409f-8a93-05abef4b26c3.jpg"",""img/0958/5a91b0e8-8f60-4625-b88c-d6e55b4d7d93.jpg""]","",""
"","6467","similarity","144","1437460","0.0-6.0-138.0","7","[""img/0886/d1e40478-2fe0-404f-8409-920da98a96a2.jpg"",""img/0873/c91c05f8-fafd-4054-bcf1-f5ed1f0a18e8.jpg""]","",""
"","4578","similarity","145","1443061","0.0-6.0-139.0","1","[""img/0758/d41c06bf-ebaf-454b-91c6-1a17f917b659.jpg"",""img/0873/33552b07-bdb8-423e-88b4-25a37f159c6d.jpg""]","",""
"","6498","similarity","146","1450583","0.0-6.0-140.0","1","[""img/0873/b509aa81-b1d7-4d50-8aef-9c7b725c3157.jpg"",""img/0756/8d47d83d-7e73-4d35-94ec-d814380febc6.jpg""]","",""
"","4757","similarity","147","1456356","0.0-6.0-141.0","1","[""img/0868/d98ca254-b195-477f-b57e-5760a2717db8.jpg"",""img/0862/eefa5588-9efd-4591-aa5f-a2e17c7d7bcc.jpg""]","",""
"","6617","similarity","148","1463990","0.0-6.0-142.0","5","[""img/0881/4da99fdd-1f40-4bbb-8e21-8833eef313f5.jpg"",""img/0862/ee3b7bff-4a70-4e84-9bea-4a565e456acb.jpg""]","",""
"","6084","similarity","149","1471084","0.0-6.0-143.0","1","[""img/0885/f4ed5442-1f5c-4a69-abe6-8336ed11ec77.jpg"",""img/0867/12264664-1860-46df-8c21-162b9817cdda.jpg""]","",""
"","6048","similarity","150","1478151","0.0-6.0-144.0","3","[""img/0883/3835edeb-1d59-4781-b10f-c26b9eaf6fd1.jpg"",""img/0883/e3603ed7-8fca-475a-aeb1-d1f7651c4618.jpg""]","",""
"","5363","similarity","151","1484535","0.0-6.0-145.0","1","[""img/0874/767f289c-9814-4496-803f-745cc8913d1f.jpg"",""img/0873/d39b1731-1669-4c96-b5c6-682b30e287ee.jpg""]","",""
"","5795","similarity","152","1491350","0.0-6.0-146.0","1","[""img/0757/4faaa503-45d9-43fa-bddb-707274a341ff.jpg"",""img/0758/caa93da2-9edf-49fa-96b9-32dedd8f5078.jpg""]","",""
"","4327","similarity","153","1496692","0.0-6.0-147.0","1","[""img/0883/fc8cf4c9-003e-48c4-b222-8878ea2ae1c0.jpg"",""img/0756/7a68b61c-212a-4f14-8b6f-4d74b6cd206e.jpg""]","",""
"","6088","similarity","154","1503805","0.0-6.0-148.0","5","[""img/0867/1719a35d-f085-48c0-9099-16c94fe418b4.jpg"",""img/0866/02f5e6b9-52b7-448c-9708-5b460d0c9a23.jpg""]","",""
"","6151","similarity","155","1510980","0.0-6.0-149.0","5","[""img/0758/7ee8bc8f-c40b-4b3a-84ec-3e83580622d4.jpg"",""img/0760/d87ebbb0-e718-4ab1-8882-e48253d6fd00.jpg""]","",""
"","6315","similarity","156","1518324","0.0-6.0-150.0","1","[""img/0757/fd3c82c8-3311-4fae-bcec-10559587910a.jpg"",""img/0761/1725cacb-5f86-4b47-a5c0-3c36cd981588.jpg""]","",""
"","5988","similarity","157","1525323","0.0-6.0-151.0","5","[""img/0761/176fde97-0334-4d2b-8a7a-38960c2528f3.jpg"",""img/0874/2c9464dd-8a23-4baa-ac94-1ba3af5c15cc.jpg""]","",""
"","6424","similarity","158","1532766","0.0-6.0-152.0","5","[""img/0761/d5370a68-6c8a-486f-b2bf-330e2ad6b397.jpg"",""img/0760/135d76ab-2bf3-4dc9-8509-92983dc9893d.jpg""]","",""
"","5822","similarity","159","1539607","0.0-6.0-153.0","7","[""img/0866/0207e9a2-7dbb-40b5-9459-b472aaeceb2a.jpg"",""img/0866/9b38d691-1802-4959-ab3f-fc902f0e4ea6.jpg""]","",""
"","5254","similarity","160","1545883","0.0-6.0-154.0","1","[""img/0866/8efcaa46-83ab-4dee-a35f-850402aa21ae.jpg"",""img/0862/847e5208-38ec-4f36-949c-296cdd7424ee.jpg""]","",""
"","4848","similarity","161","1551750","0.0-6.0-155.0","1","[""img/0756/64441928-baa3-49c8-a605-ee2370389b9f.jpg"",""img/0862/99a99e39-8355-44ec-b993-e7bcec111e1c.jpg""]","",""
"","6506","similarity","162","1559276","0.0-6.0-156.0","1","[""img/0860/99c589b9-9140-4d17-90c0-b344323edcda.jpg"",""img/0866/c446214b-a368-4c65-ae39-ea46894256ab.jpg""]","",""
"","4959","similarity","163","1565251","0.0-6.0-157.0","1","[""img/0862/92fcd8a4-8193-4a6a-ae09-dd4a6338b0df.jpg"",""img/0958/fd950403-e452-4018-8207-a9714addcd75.jpg""]","",""
"","4632","similarity","164","1570892","0.0-6.0-158.0","1","[""img/0761/edc0b069-71dc-4b11-b7f0-8429ea8ac5c9.jpg"",""img/0868/15dd6fd7-791e-4b53-b203-195d617521a4.jpg""]","",""
"","4503","similarity","165","1576415","0.0-6.0-159.0","1","[""img/0761/b8f211c0-f640-43a2-b101-101774517d95.jpg"",""img/0886/42cccc64-05f9-4afd-bc93-496ba50a4342.jpg""]","",""
"","5904","similarity","166","1583346","0.0-6.0-160.0","1","[""img/0874/85eb9b8a-c4c6-4e5a-b8e7-363a87a82054.jpg"",""img/0868/83b4350a-3b70-4cea-b7f5-b5b56f3050a8.jpg""]","",""
"","6973","similarity","167","1591332","0.0-6.0-161.0","3","[""img/0860/29a21a9f-54bb-4093-ad3f-04823ceaa89f.jpg"",""img/0874/99f6563c-8a8d-4c1c-a41d-667b618c3fd5.jpg""]","",""
"","6817","similarity","168","1599164","0.0-6.0-162.0","3","[""img/0883/df1c6d22-bb1b-4eed-b4fe-eb5e46deacd4.jpg"",""img/0867/5e07b34d-b40f-4b1c-ac10-49975bace45f.jpg""]","",""
"","6474","similarity","169","1606652","0.0-6.0-163.0","3","[""img/0758/3ddd05d3-557e-4ee7-8b78-9d2d681d8ae2.jpg"",""img/0958/644719ec-1690-4af2-a63f-0b6467c3791e.jpg""]","",""
"","4202","similarity","170","1611870","0.0-6.0-164.0","1","[""img/0873/90b702a6-3dba-446a-9bba-a2ee096baf49.jpg"",""img/0757/1fd9dcb9-e489-4708-b518-f356d3f5481d.jpg""]","",""
"","6239","similarity","171","1619132","0.0-6.0-165.0","5","[""img/0873/c2a7452d-a271-4207-81ce-bda281dc0297.jpg"",""img/0866/6f2a90d7-14f1-4f1b-bd64-fc0af6b9fe44.jpg""]","",""
"","5799","similarity","172","1625949","0.0-6.0-166.0","7","[""img/0875/5a7c4e35-6514-4e12-8879-d16071da4cd6.jpg"",""img/0867/98d8cd96-1476-4fe0-a3a3-04f875500a1b.jpg""]","",""
"","4304","similarity","173","1637618","0.0-6.0-167.0","7","[""img/0862/e8cc3bdf-cc43-4565-bccf-492626c70953.jpg"",""img/0862/e697469a-ec19-4414-b972-7b9f3564785b.jpg""]","",""
"","5716","similarity","174","1644348","0.0-6.0-168.0","5","[""img/0875/5a716432-c6ca-4b1c-955a-2b8ac25198ee.jpg"",""img/0886/4d28f75a-a9c3-49dd-8aa8-00304af6e40b.jpg""]","",""
"","5168","similarity","175","1650525","0.0-6.0-169.0","1","[""img/0885/5225e532-2812-41d9-8ef0-0fbfc612784e.jpg"",""img/0875/f87b67d7-c33e-40d1-b281-248c4be1cb6e.jpg""]","",""
"","6035","similarity","176","1657575","0.0-6.0-170.0","1","[""img/0862/53a9cf7c-93c4-41b9-952f-07d17f7a17b2.jpg"",""img/0867/aa05d113-fc19-4756-a8eb-7878f580bc92.jpg""]","",""
"","6883","similarity","177","1665485","0.0-6.0-171.0","1","[""img/0884/989ec8e3-5e41-4055-b0b5-3d65b9c44917.jpg"",""img/0873/0d9b4403-7f26-46dc-b0b7-2b97b0a91b46.jpg""]","",""
"","6574","similarity","178","1673068","0.0-6.0-172.0","1","[""img/0873/1d1be182-3bb2-4efd-8543-d70b8db7beef.jpg"",""img/0958/822de3b9-e5fd-4b74-aeb1-7c40805b0717.jpg""]","",""
"","7278","similarity","179","1681356","0.0-6.0-173.0","1","[""img/0868/4e626425-63c8-484a-8a1d-e66ee4e0bef8.jpg"",""img/0758/e38fd80d-18d0-42f3-b848-f930788e8bd7.jpg""]","",""
"","5629","similarity","180","1688003","0.0-6.0-174.0","1","[""img/0757/6ecf2f24-3286-49d6-b5ed-bb2da660c588.jpg"",""img/0874/995f0332-0439-4eb4-add3-957335dbf6d9.jpg""]","",""
"","8366","similarity","181","1697387","0.0-6.0-175.0","3","[""img/0958/86d1a76d-f067-4e36-9ab5-13da78c97c0e.jpg"",""img/0867/50a1b60e-3a29-44bf-b606-d4bd3746fea9.jpg""]","",""
"","5879","similarity","182","1704275","0.0-6.0-176.0","3","[""img/0874/adf9a8f1-c40b-402b-b95b-1e85a54a7b62.jpg"",""img/0760/39d75e1e-0645-4f23-a2ca-3bbefac19d69.jpg""]","",""
"","4623","similarity","183","1709915","0.0-6.0-177.0","1","[""img/0873/7dddc95f-ca6e-4d15-99a0-0e329ec6888e.jpg"",""img/0860/71e1aad0-2cdf-43bb-94a4-a8c016997c30.jpg""]","",""
"","5679","similarity","184","1716603","0.0-6.0-178.0","1","[""img/0881/4bd34581-94d8-4e88-8c89-5cef864ca3be.jpg"",""img/0883/46d6b8ad-7f31-441e-92d2-0cc16d3d99ce.jpg""]","",""
"","7282","similarity","185","1724899","0.0-6.0-179.0","1","[""img/0886/97243e18-4dba-4af8-b49f-b3b635c90ac4.jpg"",""img/0958/4e2ca4bc-52c7-4c27-9610-776441231e42.jpg""]","",""
"","5928","similarity","186","1731844","0.0-6.0-180.0","1","[""img/0864/5f74a653-3bdc-4308-8cca-ac667dc22e1f.jpg"",""img/0883/02f50df0-eb8c-4e17-836a-c89ddb1c04e1.jpg""]","",""
"","4746","similarity","187","1737603","0.0-6.0-181.0","1","[""img/0756/d0f1b906-d8e0-4528-9d08-90cec14838ec.jpg"",""img/0868/d6d1f30d-4323-435a-b194-7892521bc57e.jpg""]","",""
"","6549","similarity","188","1745163","0.0-6.0-182.0","7","[""img/0884/5085d424-b3f5-461b-a1c7-f7ca55abcf4f.jpg"",""img/0758/b76ceca7-95ac-46e4-ac13-da02c8e93be9.jpg""]","",""
"","4263","similarity","189","1750443","0.0-6.0-183.0","1","[""img/0875/42910c99-5463-450a-a0f8-d4d060a11455.jpg"",""img/0874/ca76a855-4e77-4f2f-872a-0a718153e7ed.jpg""]","",""
"","5684","similarity","190","1757139","0.0-6.0-184.0","7","[""img/0867/de92135f-5b65-4ed9-b245-188292c7c2f8.jpg"",""img/0868/6a28c3b0-3d76-498a-9fb7-ddafc665eca8.jpg""]","",""
"","5499","similarity","191","1763659","0.0-6.0-185.0","1","[""img/0881/b1a136f7-8511-4d3a-a0f6-3879acf1e1a1.jpg"",""img/0885/eb5e4557-1792-49c3-8871-16afa58f3a28.jpg""]","",""
"","4847","similarity","192","1769531","0.0-6.0-186.0","1","[""img/0864/b3c4e378-28f0-4699-9338-2a257b4bca04.jpg"",""img/0761/6b42b402-9e0f-4179-9e10-660b2c07626b.jpg""]","",""
"","4737","similarity","193","1775283","0.0-6.0-187.0","1","[""img/0885/05af267f-b982-498d-9807-ccd54689f9b4.jpg"",""img/0874/3ce41e7c-40c8-4d58-a546-171114521796.jpg""]","",""
"","4365","similarity","194","1780667","0.0-6.0-188.0","1","[""img/0758/e1ba5e53-addc-436a-b428-d34fc1b130dc.jpg"",""img/0867/f8488a47-94ee-4166-952c-44e16cf172f6.jpg""]","",""
"","6846","similarity","195","1788531","0.0-6.0-189.0","1","[""img/0756/ca2a8f93-ed77-45c8-a3a3-22324aa28501.jpg"",""img/0884/13db1f36-8c9f-4b28-8426-04eaa9fba737.jpg""]","",""
"","6152","similarity","196","1795699","0.0-6.0-190.0","3","[""img/0761/b1819a20-de99-463b-9840-60a4b8faa30d.jpg"",""img/0862/e0f1a4e9-e1b6-45f7-af67-89f334e6630d.jpg""]","",""
"","4966","similarity","197","1801676","0.0-6.0-191.0","1","[""img/0860/17b44a7d-c5ca-479f-9e87-f65a64f5c80e.jpg"",""img/0886/9f186bd5-d48b-4cc2-9206-be67c392faa9.jpg""]","",""
"","5223","similarity","198","1807907","0.0-6.0-192.0","1","[""img/0760/812c848f-be21-4059-abe5-8c4f4ac9ad0f.jpg"",""img/0885/517a9189-9623-4ed7-a37e-48788791e028.jpg""]","",""
"","6239","similarity","199","1815163","0.0-6.0-193.0","5","[""img/0886/e5903946-897c-4420-87c0-afee4100305c.jpg"",""img/0868/0d3abd3a-b6c3-4584-a9f7-e2da63748b3d.jpg""]","",""
"","8009","similarity","200","1824187","0.0-6.0-194.0","3","[""img/0881/d1982897-8d8d-4704-a940-1ee5d07a1f15.jpg"",""img/0864/300bb811-8b3c-4c42-8653-6097c3725197.jpg""]","",""
"","5953","similarity","201","1831147","0.0-6.0-195.0","7","[""img/0866/23a224f3-2012-4fc8-8e0f-3c36f8de27fd.jpg"",""img/0868/1a62b2b2-18f5-466e-b564-5176a57c565e.jpg""]","",""
"","6175","similarity","202","1838347","0.0-6.0-196.0","3","[""img/0864/ea327690-500b-4137-bf91-451b309fe6a5.jpg"",""img/0958/d4138705-0a9d-4141-9af9-205e69367c44.jpg""]","",""
"","4698","similarity","203","1844059","0.0-6.0-197.0","1","[""img/0757/efa4466e-2951-4af9-b321-85458a89c2a7.jpg"",""img/0886/abd8dd83-d8ee-4003-b4d2-b4045220a578.jpg""]","",""
"","6575","similarity","204","1851645","0.0-6.0-198.0","1","[""img/0758/9fb5b2fe-3f00-4fe6-973c-1ce10d5f4cd5.jpg"",""img/0883/eff15ce5-9393-443c-829f-71242d1c56d0.jpg""]","",""
"","6032","similarity","205","1858700","0.0-6.0-199.0","1","[""img/0881/ee44e27f-d662-4608-b265-e7ffa19b216f.jpg"",""img/0958/e9e2cc42-eb3b-4c91-8112-a517305c15f0.jpg""]","",""
"","6342","similarity","206","1866059","0.0-6.0-200.0","1","[""img/0958/ef1b718f-ef8c-497f-80d7-42562aebf1a7.jpg"",""img/0874/a3bc679d-619f-4db6-bb68-116dcb757d9c.jpg""]","",""
"","4131","similarity","207","1871211","0.0-6.0-201.0","1","[""img/0885/d2276b26-e91a-4f19-a818-cbeb297ed884.jpg"",""img/0860/c5ccd1a4-4bb7-48e1-9b25-72cfaf06909b.jpg""]","",""
"","5351","similarity","208","1877580","0.0-6.0-202.0","1","[""img/0875/527ced51-8e53-4aab-ab05-86df219104c0.jpg"",""img/0881/44e09805-5a25-4f17-a716-4ad4a331b174.jpg""]","",""
"","5169","similarity","209","1883763","0.0-6.0-203.0","1","[""img/0758/dd559618-7f09-4a07-8018-d311c4a5ea29.jpg"",""img/0860/524b2e98-5767-4d53-942c-ebae6925659b.jpg""]","",""
"","4864","similarity","210","1889635","0.0-6.0-204.0","7","[""img/0860/31ff6436-98bf-4652-bed2-40f627229568.jpg"",""img/0860/8a92e21b-6a32-4e4a-a445-2d5a487ed0a4.jpg""]","",""
"","5861","similarity","211","1896515","0.0-6.0-205.0","3","[""img/0874/8cdb1c07-1c32-46d2-981c-3636560fa6e5.jpg"",""img/0874/29830da7-be5f-44e5-b141-652a0ccf7269.jpg""]","",""
"","6583","similarity","212","1904115","0.0-6.0-206.0","5","[""img/0883/6dcd54c3-64a3-4ed5-9149-d8b9aa1938c8.jpg"",""img/0761/014e76d0-fb4e-4b40-901c-7a2d5655c3b0.jpg""]","",""
"","5994","similarity","213","1911123","0.0-6.0-207.0","3","[""img/0761/89d3b943-cd14-4786-a7b8-0e9a695cf0e3.jpg"",""img/0881/f8bd891e-aa09-4782-89db-33e7cb2b0cf1.jpg""]","",""
"","5789","similarity","214","1917923","0.0-6.0-208.0","1","[""img/0760/4f024637-f98a-409a-baa0-fc4989d80667.jpg"",""img/0756/de72dcee-8bbb-43d1-a744-9c074b9122ee.jpg""]","",""
"","4291","similarity","215","1931307","0.0-6.0-209.0","1","[""img/0885/fbbfaacd-e49b-4d37-a2f9-fcaffa58f26f.jpg"",""img/0757/e2cf79e3-9d9f-49eb-a09d-0028ca21d242.jpg""]","",""
"[{""page_index"":0,""viewing_time"":44336}]","44338","instructions","216","1976652","0.0-7.0","","","",""
"","310248","image-multi-choice","217","2287943","0.0-8.0-0.0","","","{""Q0"":""Canada Warbler""}","Orange-crowned Warbler"
"","53512","image-multi-choice","218","2342481","0.0-8.0-1.0","","","{""Q0"":""Wilson's Warbler""}","Wilson's Warbler"
"","21994","image-multi-choice","219","2365504","0.0-8.0-2.0","","","{""Q0"":""Blackpoll Warbler""}","Blackpoll Warbler"
"","28021","image-multi-choice","220","2394552","0.0-8.0-3.0","","","{""Q0"":""Black-and-white Warbler""}","Black-and-white Warbler"
"","222474","image-multi-choice","221","2618082","0.0-8.0-4.0","","","{""Q0"":""Yellow-breasted Chat""}","Yellow-breasted Chat"
"","32702","image-multi-choice","222","2651846","0.0-8.0-5.0","","","{""Q0"":""Canada Warbler""}","Canada Warbler"
"","57972","image-multi-choice","223","2710871","0.0-8.0-6.0","","","{""Q0"":""Common Yellowthroat""}","Common Yellowthroat"
"","54716","image-multi-choice","224","2766645","0.0-8.0-7.0","","","{""Q0"":""American Redstart""}","American Redstart"
"","200009","image-multi-choice","225","2967711","0.0-8.0-8.0","","","{""Q0"":""Chestnut-sided Warbler""}","Chestnut-sided Warbler"
"","55264","image-multi-choice","226","3024027","0.0-8.0-9.0","","","{""Q0"":""Black-throated Green Warbler""}","Black-throated Green Warbler"
"","40530","image-multi-choice","227","3065592","0.0-8.0-10.0","","","{""Q0"":""Yellow-rumped Warbler""}","Blackburnian Warbler"
"","96733","image-multi-choice","228","3163362","0.0-8.0-11.0","","","{""Q0"":""Yellow-rumped Warbler""}","Yellow-rumped Warbler"
"","23726","image-multi-choice","229","3188128","0.0-8.0-12.0","","","{""Q0"":""Ovenbird""}","Ovenbird"
"","279168","image-multi-choice","230","3468338","0.0-8.0-13.0","","","{""Q0"":""Black-throated Green Warbler""}","Townsend's Warbler"
"","70982","image-multi-choice","231","3540352","0.0-8.0-14.0","","","{""Q0"":""Northern Waterthrush""}","Northern Waterthrush"
"","33209","image-multi-choice","232","3574600","0.0-8.0-15.0","","","{""Q0"":""Yellow Warbler""}","Yellow Warbler"
"","36900","image-multi-choice","233","3612544","0.0-8.0-16.0","","","{""Q0"":""Nashville Warbler""}","Nashville Warbler"
"","144873","image-multi-choice","234","3758456","0.0-8.0-17.0","","","{""Q0"":""Chestnut-sided Warbler""}","Northern Parula"
"","190580","image-multi-choice","235","3950094","0.0-8.0-18.0","","","{""Q0"":""Nashville Warbler""}","Tennessee Warbler"
"","76117","image-multi-choice","236","4027257","0.0-8.0-19.0","","","{""Q0"":""Magnolia Warbler""}","Magnolia Warbler"
