"view_history","rt","trial_type","trial_index","time_elapsed","internal_node_id","sim_score","stimulus","responses","answer"
"[{""page_index"":0,""viewing_time"":27116}]","27118","instructions","0","27121","0.0-0.0","","","",""
"","8074","similarity_demo","1","36220","0.0-1.0","7","[""img/bluejay1.jpg"",""img/bluejay2.jpg""]","",""
"[{""page_index"":0,""viewing_time"":10037}]","10040","instructions","2","47262","0.0-2.0","","","",""
"","3674","similarity_demo","3","51961","0.0-3.0","1","[""img/bluejay1.jpg"",""img/cardinal1.jpg""]","",""
"[{""page_index"":0,""viewing_time"":8887}]","8887","instructions","4","61849","0.0-4.0","","","",""
"[{""page_index"":0,""viewing_time"":42806}]","42809","instructions","5","105660","0.0-5.0","","","",""
"","6910","similarity","6","113600","0.0-6.0-0.0","5","[""img/0864/49150900-7f25-4ce8-8d10-9b47a71d1997.jpg"",""img/0860/c7047cd2-7cc1-41b6-8a34-c0986774975f.jpg""]","",""
"","6284","similarity","7","120899","0.0-6.0-1.0","5","[""img/0884/10c0a35b-e20a-4d75-a7c0-959a578d9ebf.jpg"",""img/0760/d87ebbb0-e718-4ab1-8882-e48253d6fd00.jpg""]","",""
"","5184","similarity","8","127099","0.0-6.0-2.0","2","[""img/0886/0f9715c1-b2e4-418e-bf9b-126cc9e70dc6.jpg"",""img/0881/ee44e27f-d662-4608-b265-e7ffa19b216f.jpg""]","",""
"","6122","similarity","9","134237","0.0-6.0-3.0","2","[""img/0866/386235d2-6857-41e7-88a8-25cfc3430025.jpg"",""img/0881/84397291-bc14-4fbf-90e8-241e486ab0fe.jpg""]","",""
"","3839","similarity","10","139091","0.0-6.0-4.0","1","[""img/0868/c8ac40c7-6904-4e13-8d61-c75d3052dc4e.jpg"",""img/0885/ef0386f3-e5d4-481b-8894-60b80e08bbe8.jpg""]","",""
"","4443","similarity","11","144547","0.0-6.0-5.0","1","[""img/0757/89ce15d5-a3da-4a62-ac9f-c28a9273bf33.jpg"",""img/0866/620cd1aa-0800-4414-8f6e-90342e7a99ad.jpg""]","",""
"","9307","similarity","12","154865","0.0-6.0-6.0","1","[""img/0868/e0aff734-077f-40dd-9781-74821abd3621.jpg"",""img/0864/3651d070-2fc5-4848-b6a6-088a2d9ac5c9.jpg""]","",""
"","4596","similarity","13","160474","0.0-6.0-7.0","7","[""img/0864/6e846d43-94a6-4b37-a268-65eda979f052.jpg"",""img/0864/c22faebd-9c53-47bc-ada3-b9a30c688e75.jpg""]","",""
"","5755","similarity","14","167241","0.0-6.0-8.0","1","[""img/0757/cd7fd185-981f-477a-ba00-a0f65bcfd0e9.jpg"",""img/0881/633c6f40-56d9-4b48-bf1c-ecd83116eabb.jpg""]","",""
"","4469","similarity","15","172721","0.0-6.0-9.0","2","[""img/0886/9ac18ff1-d3d9-4bfe-aa2e-ed5b28399f6c.jpg"",""img/0760/1c96ffb7-17db-4253-b66c-59250977c88b.jpg""]","",""
"","5096","similarity","16","178834","0.0-6.0-10.0","1","[""img/0884/7f9cc898-36bc-49ec-8b1a-01065d9c0062.jpg"",""img/0883/e3603ed7-8fca-475a-aeb1-d1f7651c4618.jpg""]","",""
"","6365","similarity","17","186208","0.0-6.0-11.0","6","[""img/0874/bf14b896-e930-4fd9-9c05-2e83317a2773.jpg"",""img/0862/f43ceabf-acc1-4107-b857-5d1849808f93.jpg""]","",""
"","4115","similarity","18","191336","0.0-6.0-12.0","2","[""img/0862/53a9cf7c-93c4-41b9-952f-07d17f7a17b2.jpg"",""img/0875/8521fd58-3b1e-4dc5-97ae-804edfa6734a.jpg""]","",""
"","3757","similarity","19","196113","0.0-6.0-13.0","1","[""img/0875/527ced51-8e53-4aab-ab05-86df219104c0.jpg"",""img/0757/31d8ee3d-1b79-4d6a-9347-f91c87c00f92.jpg""]","",""
"","3830","similarity","20","200953","0.0-6.0-14.0","2","[""img/0875/5a7c4e35-6514-4e12-8879-d16071da4cd6.jpg"",""img/0860/15b24a61-25be-4356-9eac-5ce95d0cb4a4.jpg""]","",""
"","8244","similarity","21","210207","0.0-6.0-15.0","2","[""img/0860/702bd09d-df3a-40aa-a267-5f04474305b5.jpg"",""img/0881/d373cb9f-a719-4549-a2a4-82def79fb2a5.jpg""]","",""
"","3774","similarity","22","214995","0.0-6.0-16.0","1","[""img/0885/fce9f22a-f769-477c-acee-a5ad8214f0a5.jpg"",""img/0884/ee845634-cd54-4c06-95a9-962122ef8712.jpg""]","",""
"","8371","similarity","23","224375","0.0-6.0-17.0","6","[""img/0761/5747fedf-15f2-47fe-87c8-ff646dd66a5f.jpg"",""img/0761/47960f80-42b7-4397-a852-ec55d716c652.jpg""]","",""
"","5365","similarity","24","230752","0.0-6.0-18.0","5","[""img/0760/868ae139-99b5-4ff2-9d19-c4933af135e4.jpg"",""img/0864/9b2490c5-a282-400a-9736-e1a0ecbf1cb7.jpg""]","",""
"","4998","similarity","25","236760","0.0-6.0-19.0","2","[""img/0864/a248adb3-c70b-4652-b7a3-776d2a1e904b.jpg"",""img/0875/34132396-d896-4c2d-8087-646dd867e769.jpg""]","",""
"","4210","similarity","26","241984","0.0-6.0-20.0","2","[""img/0874/a82926a3-0b43-4add-803c-d5f9ea7798ee.jpg"",""img/0884/2348ce3f-5d2a-4a04-85ef-a65f05caa935.jpg""]","",""
"","5855","similarity","27","248854","0.0-6.0-21.0","5","[""img/0885/0cdcdaca-f91e-4d4a-a6f6-dc90ab676435.jpg"",""img/0866/c446214b-a368-4c65-ae39-ea46894256ab.jpg""]","",""
"","7204","similarity","28","257070","0.0-6.0-22.0","7","[""img/0868/15dd6fd7-791e-4b53-b203-195d617521a4.jpg"",""img/0868/d98ca254-b195-477f-b57e-5760a2717db8.jpg""]","",""
"","7477","similarity","29","265558","0.0-6.0-23.0","3","[""img/0757/c190d19b-2091-436c-a92b-a48c253ac955.jpg"",""img/0756/2bc961e4-b35f-4cfe-ba02-6f14fe3bdc10.jpg""]","",""
"","4758","similarity","30","271328","0.0-6.0-24.0","7","[""img/0875/e7e66b13-b573-431e-b85e-288ce04a35a3.jpg"",""img/0875/2e13d160-eea1-416b-aff1-d37ab99ecc1d.jpg""]","",""
"","4765","similarity","31","277102","0.0-6.0-25.0","2","[""img/0761/8e379ec1-757d-4427-a0ff-d4efdd6a50c4.jpg"",""img/0866/be24ab58-230e-4db8-9f45-ff04c9aec6bb.jpg""]","",""
"","3610","similarity","32","281721","0.0-6.0-26.0","1","[""img/0866/9b38d691-1802-4959-ab3f-fc902f0e4ea6.jpg"",""img/0758/7ffbc76b-1fc1-432c-8f7e-9ec8d1b3f643.jpg""]","",""
"","5330","similarity","33","288065","0.0-6.0-27.0","1","[""img/0758/dd559618-7f09-4a07-8018-d311c4a5ea29.jpg"",""img/0875/f87b67d7-c33e-40d1-b281-248c4be1cb6e.jpg""]","",""
"","3675","similarity","34","292751","0.0-6.0-28.0","1","[""img/0958/58b7811e-d3f6-4e4d-befb-86e063d13a43.jpg"",""img/0757/8993d166-c8ae-43f6-b269-9e8bd3379d57.jpg""]","",""
"","3822","similarity","35","297581","0.0-6.0-29.0","2","[""img/0873/b76d7003-814d-42b0-9a16-1399c4b0e706.jpg"",""img/0883/eff15ce5-9393-443c-829f-71242d1c56d0.jpg""]","",""
"","3630","similarity","36","302222","0.0-6.0-30.0","2","[""img/0868/293079b8-7e0c-4afd-a390-1e5d35fe3ded.jpg"",""img/0875/3ecb367d-e9eb-4826-8aaa-7aa72fb98019.jpg""]","",""
"","4824","similarity","37","308054","0.0-6.0-31.0","1","[""img/0884/a6389ab4-3291-4434-9b91-eeae3b04fce4.jpg"",""img/0862/064818ee-13d5-4618-bb24-21c7368ea278.jpg""]","",""
"","4278","similarity","38","313340","0.0-6.0-32.0","1","[""img/0884/989ec8e3-5e41-4055-b0b5-3d65b9c44917.jpg"",""img/0864/4bd81bc6-c13d-46df-95a9-485886dc7c1b.jpg""]","",""
"","4447","similarity","39","318796","0.0-6.0-33.0","2","[""img/0883/122548fc-b3cc-445b-b7c0-04794df6d11d.jpg"",""img/0958/d4138705-0a9d-4141-9af9-205e69367c44.jpg""]","",""
"","2792","similarity","40","322597","0.0-6.0-34.0","1","[""img/0864/65210d57-1153-4657-886a-32e758f49b4a.jpg"",""img/0756/bb3f0571-641e-4d5b-b528-672892c37030.jpg""]","",""
"","4452","similarity","41","328060","0.0-6.0-35.0","5","[""img/0874/7e4f2150-3b59-4a36-b5da-a4e0ba410531.jpg"",""img/0758/9fb5b2fe-3f00-4fe6-973c-1ce10d5f4cd5.jpg""]","",""
"","4180","similarity","42","333252","0.0-6.0-36.0","1","[""img/0886/48077111-b86b-4612-910f-90a5d168d77f.jpg"",""img/0862/57b6f83f-c763-4858-830d-102f97bfefbf.jpg""]","",""
"","3087","similarity","43","337349","0.0-6.0-37.0","1","[""img/0862/fb26cb07-d5a9-4653-813c-f41609f26cd5.jpg"",""img/0885/6873c613-5e40-42ff-a5b6-443b6b626ae2.jpg""]","",""
"","6844","similarity","44","345202","0.0-6.0-38.0","6","[""img/0758/20497cbe-ddae-489e-86e2-ab06985ed07c.jpg"",""img/0864/3d4de670-b290-4285-9c3d-12a0e3af44e9.jpg""]","",""
"","6063","similarity","45","352276","0.0-6.0-39.0","5","[""img/0873/0d9b4403-7f26-46dc-b0b7-2b97b0a91b46.jpg"",""img/0867/aa05d113-fc19-4756-a8eb-7878f580bc92.jpg""]","",""
"","4437","similarity","46","357723","0.0-6.0-40.0","2","[""img/0958/e9e2cc42-eb3b-4c91-8112-a517305c15f0.jpg"",""img/0884/d9185264-7f01-43b2-be7f-eed1a0f0f2e8.jpg""]","",""
"","7871","similarity","47","379489","0.0-6.0-41.0","6","[""img/0873/841d6549-01d2-4ebd-8d67-25d219876178.jpg"",""img/0873/c2a7452d-a271-4207-81ce-bda281dc0297.jpg""]","",""
"","4288","similarity","48","384787","0.0-6.0-42.0","1","[""img/0886/c6c81122-f4bf-46f4-968b-167f8ed0cab3.jpg"",""img/0758/65d426d6-3ff6-415d-8654-a43b83ecc4fe.jpg""]","",""
"","4734","similarity","49","390531","0.0-6.0-43.0","2","[""img/0883/cc2bb2c6-18f1-414f-98cc-6cd683173ce4.jpg"",""img/0874/31e22c7c-99aa-40b1-bf03-dd73fa2df4d6.jpg""]","",""
"","4853","similarity","50","396394","0.0-6.0-44.0","2","[""img/0881/62a64f90-7a72-4aee-a1a1-0c548ac9bdda.jpg"",""img/0873/ac86dbfd-0442-4dec-9d10-37d7093f5a52.jpg""]","",""
"","3079","similarity","51","400483","0.0-6.0-45.0","1","[""img/0867/db7e032f-162b-46f5-ae67-2b29679adee4.jpg"",""img/0757/a7964b0f-aee3-4b4c-9cd1-c1c998c49fef.jpg""]","",""
"","4190","similarity","52","405682","0.0-6.0-46.0","1","[""img/0866/4a87911a-d5be-4d4e-ab8e-3d1f581bf507.jpg"",""img/0874/995f0332-0439-4eb4-add3-957335dbf6d9.jpg""]","",""
"","5850","similarity","53","412547","0.0-6.0-47.0","5","[""img/0886/9b0bffbe-9237-404d-a0ba-a1982e0814c7.jpg"",""img/0886/625c7dfa-3fa1-4166-80f0-229eb416b04f.jpg""]","",""
"","4975","similarity","54","418530","0.0-6.0-48.0","2","[""img/0883/e7e4af6a-bc7a-4a9b-921c-32652db13239.jpg"",""img/0860/8fdba999-b946-4c7d-9891-336018b563ef.jpg""]","",""
"","2591","similarity","55","422131","0.0-6.0-49.0","1","[""img/0860/4c530c3c-6aab-492a-94d1-9c01797bde40.jpg"",""img/0756/a940d622-200d-4df5-8896-60af56798bbe.jpg""]","",""
"","2718","similarity","56","425865","0.0-6.0-50.0","1","[""img/0860/29a21a9f-54bb-4093-ad3f-04823ceaa89f.jpg"",""img/0757/802a8692-dc9e-4372-8811-ce4351a09d1a.jpg""]","",""
"","5743","similarity","57","432625","0.0-6.0-51.0","7","[""img/0756/8fdfa93c-88d0-4311-be2d-7f799fcaa8de.jpg"",""img/0756/6d2df7ce-35aa-4a5d-ab53-974d2c02034e.jpg""]","",""
"","5132","similarity","58","438769","0.0-6.0-52.0","6","[""img/0875/5a716432-c6ca-4b1c-955a-2b8ac25198ee.jpg"",""img/0866/d493a2c8-66eb-44b4-be02-2f327b700b7c.jpg""]","",""
"","3621","similarity","59","443401","0.0-6.0-53.0","5","[""img/0756/653c7580-fa90-45bb-828a-eb9d05a6b1c7.jpg"",""img/0758/7fba58df-2a7a-4b76-8a8f-62739f97f271.jpg""]","",""
"","5524","similarity","60","449937","0.0-6.0-54.0","5","[""img/0761/b8f211c0-f640-43a2-b101-101774517d95.jpg"",""img/0884/9b1b7885-1502-448f-9b20-ddc19aa5456f.jpg""]","",""
"","5753","similarity","61","456698","0.0-6.0-55.0","6","[""img/0760/237fa1c2-d59d-4475-8d1e-f9a4eb71f989.jpg"",""img/0867/98d8cd96-1476-4fe0-a3a3-04f875500a1b.jpg""]","",""
"","6332","similarity","62","464038","0.0-6.0-56.0","2","[""img/0866/07c9c966-3c8d-40e7-8128-92b2acbaed5d.jpg"",""img/0884/a416b0d1-f903-4935-b89f-99c29683752b.jpg""]","",""
"","3289","similarity","63","468337","0.0-6.0-57.0","1","[""img/0756/ca2a8f93-ed77-45c8-a3a3-22324aa28501.jpg"",""img/0761/9199a691-d36e-4ece-a815-078384ea6f06.jpg""]","",""
"","5063","similarity","64","474410","0.0-6.0-58.0","2","[""img/0867/cc72ed48-7704-422c-86d6-467a1145287a.jpg"",""img/0860/c5ccd1a4-4bb7-48e1-9b25-72cfaf06909b.jpg""]","",""
"","4541","similarity","65","479964","0.0-6.0-59.0","7","[""img/0881/5fe04dd0-5c74-47b7-99c8-b068db9ca26a.jpg"",""img/0758/e1ba5e53-addc-436a-b428-d34fc1b130dc.jpg""]","",""
"","5627","similarity","66","486600","0.0-6.0-60.0","5","[""img/0761/176fde97-0334-4d2b-8a7a-38960c2528f3.jpg"",""img/0758/d540bee6-b460-4c32-ac57-bc282742d7d4.jpg""]","",""
"","4848","similarity","67","492457","0.0-6.0-61.0","1","[""img/0958/822de3b9-e5fd-4b74-aeb1-7c40805b0717.jpg"",""img/0875/cff79b3a-a797-4393-9757-6275f999ec04.jpg""]","",""
"","5511","similarity","68","498976","0.0-6.0-62.0","1","[""img/0886/e5903946-897c-4420-87c0-afee4100305c.jpg"",""img/0864/87c467d3-abca-482f-ad80-3766c21b1bb3.jpg""]","",""
"","2864","similarity","69","502848","0.0-6.0-63.0","1","[""img/0756/5dba4151-3cf5-42f5-8dd9-7c6128318b01.jpg"",""img/0874/767f289c-9814-4496-803f-745cc8913d1f.jpg""]","",""
"","3078","similarity","70","506939","0.0-6.0-64.0","1","[""img/0758/caa93da2-9edf-49fa-96b9-32dedd8f5078.jpg"",""img/0885/f4ed5442-1f5c-4a69-abe6-8336ed11ec77.jpg""]","",""
"","5162","similarity","71","513111","0.0-6.0-65.0","5","[""img/0760/4c78b78c-193e-4a1e-8bb2-394add325fda.jpg"",""img/0958/ef1b718f-ef8c-497f-80d7-42562aebf1a7.jpg""]","",""
"","7709","similarity","72","521833","0.0-6.0-66.0","3","[""img/0884/5085d424-b3f5-461b-a1c7-f7ca55abcf4f.jpg"",""img/0881/db77fe00-aeb0-4d1d-aa66-f3a96fd077e4.jpg""]","",""
"","3234","similarity","73","526077","0.0-6.0-67.0","1","[""img/0864/afcba0a3-7e27-4757-b254-e9f05fad27e2.jpg"",""img/0873/ec150e40-b3ec-4dfe-ab38-bb3f248a1175.jpg""]","",""
"","4255","similarity","74","531343","0.0-6.0-68.0","1","[""img/0862/f188d4f0-76a4-4102-818c-a209969d73a5.jpg"",""img/0758/61d64021-9214-4951-bdf8-f871f9827cf9.jpg""]","",""
"","5549","similarity","75","537903","0.0-6.0-69.0","5","[""img/0757/4faaa503-45d9-43fa-bddb-707274a341ff.jpg"",""img/0757/4f8ae92b-a4ab-4020-b4fb-80c5615e76ac.jpg""]","",""
"","7502","similarity","76","546417","0.0-6.0-70.0","3","[""img/0860/71e1aad0-2cdf-43bb-94a4-a8c016997c30.jpg"",""img/0862/99a99e39-8355-44ec-b993-e7bcec111e1c.jpg""]","",""
"","3965","similarity","77","551390","0.0-6.0-71.0","1","[""img/0860/17b44a7d-c5ca-479f-9e87-f65a64f5c80e.jpg"",""img/0884/0b4cf8d4-4c8f-4312-a794-f99e01679176.jpg""]","",""
"","3976","similarity","78","556374","0.0-6.0-72.0","2","[""img/0883/46d6b8ad-7f31-441e-92d2-0cc16d3d99ce.jpg"",""img/0866/d266fece-59b3-46fa-b69f-96f6efb81b59.jpg""]","",""
"","4568","similarity","79","561950","0.0-6.0-73.0","1","[""img/0866/bf14b5bd-fb55-47db-86b9-4f8aeb9a6dad.jpg"",""img/0886/7164ac42-460f-4beb-9d5e-a1cfded3099c.jpg""]","",""
"","4488","similarity","80","567445","0.0-6.0-74.0","2","[""img/0958/0a8f72c4-0c73-4d58-be6f-5e4613b87409.jpg"",""img/0761/edc0b069-71dc-4b11-b7f0-8429ea8ac5c9.jpg""]","",""
"","2520","similarity","81","570974","0.0-6.0-75.0","1","[""img/0875/dbdd643e-6d0e-4a5c-ab57-b9c29b9c981a.jpg"",""img/0756/76516e04-06c4-4108-9130-fa84d688f55a.jpg""]","",""
"","3936","similarity","82","575917","0.0-6.0-76.0","1","[""img/0958/86d1a76d-f067-4e36-9ab5-13da78c97c0e.jpg"",""img/0885/a4e5c564-1e5f-4fed-9f73-b8d1becf62b6.jpg""]","",""
"","6007","similarity","83","582933","0.0-6.0-77.0","2","[""img/0868/0d3abd3a-b6c3-4584-a9f7-e2da63748b3d.jpg"",""img/0883/df1c6d22-bb1b-4eed-b4fe-eb5e46deacd4.jpg""]","",""
"","3310","similarity","84","587254","0.0-6.0-78.0","1","[""img/0862/fad1d7c1-8187-43c3-942a-0fc12183e48e.jpg"",""img/0760/111aecf1-147c-4227-90e0-9ed3a75e4e16.jpg""]","",""
"","6688","similarity","85","594950","0.0-6.0-79.0","5","[""img/0885/d2276b26-e91a-4f19-a818-cbeb297ed884.jpg"",""img/0761/b1819a20-de99-463b-9840-60a4b8faa30d.jpg""]","",""
"","4319","similarity","86","600277","0.0-6.0-80.0","1","[""img/0862/00c06b00-3b73-44e9-bc1e-c5aafb438321.jpg"",""img/0864/e336a4c5-6648-4fd7-b2f6-93a3fb83f8c6.jpg""]","",""
"","4822","similarity","87","606108","0.0-6.0-81.0","7","[""img/0758/f61ecdf8-a7d4-4db0-b84d-be46f7cfaffc.jpg"",""img/0758/b76ceca7-95ac-46e4-ac13-da02c8e93be9.jpg""]","",""
"","5481","similarity","88","612597","0.0-6.0-82.0","2","[""img/0862/7918ca67-5bd3-4606-a5ea-c39fb11a9297.jpg"",""img/0873/d74e4aa9-420d-48a3-a42f-30a3481536ae.jpg""]","",""
"","4400","similarity","89","623586","0.0-6.0-83.0","1","[""img/0760/ed469d78-34af-4ea9-a969-05ea527438a2.jpg"",""img/0757/b46cab21-50e3-4f19-803d-682627bcd6a6.jpg""]","",""
"","5800","similarity","90","630396","0.0-6.0-84.0","1","[""img/0867/f8159067-056c-41f1-a136-c529fe5e970a.jpg"",""img/0881/dea58fad-b4f1-41d9-bd3f-916eff19a3fd.jpg""]","",""
"","5591","similarity","91","636997","0.0-6.0-85.0","5","[""img/0885/89d8c48b-8bde-42ed-ae71-de669b15ea34.jpg"",""img/0886/42cccc64-05f9-4afd-bc93-496ba50a4342.jpg""]","",""
"","4695","similarity","92","642702","0.0-6.0-86.0","1","[""img/0866/0207e9a2-7dbb-40b5-9459-b472aaeceb2a.jpg"",""img/0864/f92649a2-0590-4d31-9a7a-1bfb81666a2d.jpg""]","",""
"","4906","similarity","93","648621","0.0-6.0-87.0","6","[""img/0874/85eb9b8a-c4c6-4e5a-b8e7-363a87a82054.jpg"",""img/0881/667e2147-d457-4f32-aa5f-6ab86e5848f1.jpg""]","",""
"","5129","similarity","94","654757","0.0-6.0-88.0","2","[""img/0866/a15b02be-11bb-43e3-b0e0-ecc3bd7dfc49.jpg"",""img/0760/317fc071-99e6-43cb-9099-2e50aa79ccc2.jpg""]","",""
"","4777","similarity","95","660539","0.0-6.0-89.0","2","[""img/0867/bf560d4f-dee3-4f11-a385-705cc1aa5f3c.jpg"",""img/0884/967c63af-8f6a-483f-9122-0c79d97fd22e.jpg""]","",""
"","3559","similarity","96","665110","0.0-6.0-90.0","1","[""img/0757/1fd9dcb9-e489-4708-b518-f356d3f5481d.jpg"",""img/0862/e8cc3bdf-cc43-4565-bccf-492626c70953.jpg""]","",""
"","3421","similarity","97","669540","0.0-6.0-91.0","1","[""img/0867/85a96c62-548f-4994-9553-819e03c3135a.jpg"",""img/0761/ff3e024b-951d-4aca-a168-c09c6507525d.jpg""]","",""
"","3822","similarity","98","674371","0.0-6.0-92.0","1","[""img/0868/fd307a36-9a3a-47d7-ab7c-f810d0b35040.jpg"",""img/0958/fd950403-e452-4018-8207-a9714addcd75.jpg""]","",""
"","6311","similarity","99","681691","0.0-6.0-93.0","3","[""img/0874/2c9464dd-8a23-4baa-ac94-1ba3af5c15cc.jpg"",""img/0864/e02eddb5-f468-499c-91bf-f7be3ffe979b.jpg""]","",""
"","4085","similarity","100","686787","0.0-6.0-94.0","2","[""img/0760/d96a9342-5d16-403a-9f95-e062f795d968.jpg"",""img/0873/d39b1731-1669-4c96-b5c6-682b30e287ee.jpg""]","",""
"","4375","similarity","101","692174","0.0-6.0-95.0","1","[""img/0868/4a8a45ed-2c4f-421b-9564-409a33ecd26c.jpg"",""img/0873/b02f9cce-7f58-4f1b-baed-50fee9f0a21f.jpg""]","",""
"","3602","similarity","102","696784","0.0-6.0-96.0","1","[""img/0860/94ef7afc-e0e6-4a15-98c6-0bfac82bc832.jpg"",""img/0761/a69897c1-1310-4bae-9a51-8b29cd9543dd.jpg""]","",""
"","3579","similarity","103","701371","0.0-6.0-97.0","1","[""img/0862/4f0a3b4c-afbf-486e-b248-1d54982f54b4.jpg"",""img/0883/02f50df0-eb8c-4e17-836a-c89ddb1c04e1.jpg""]","",""
"","7049","similarity","104","709429","0.0-6.0-98.0","2","[""img/0757/e2cf79e3-9d9f-49eb-a09d-0028ca21d242.jpg"",""img/0884/e275ab3e-0948-43c3-8be7-a75271922185.jpg""]","",""
"","2524","similarity","105","712962","0.0-6.0-99.0","1","[""img/0867/26611f4e-d694-4460-b7e2-43c62753ddc3.jpg"",""img/0756/10fa3aa2-6100-492a-826e-febb6513cf13.jpg""]","",""
"","3880","similarity","106","717851","0.0-6.0-100.0","1","[""img/0958/4e2ca4bc-52c7-4c27-9610-776441231e42.jpg"",""img/0756/64441928-baa3-49c8-a605-ee2370389b9f.jpg""]","",""
"","6903","similarity","107","725763","0.0-6.0-101.0","5","[""img/0760/9ddd6958-7349-45d6-b5bc-4a5911960c35.jpg"",""img/0760/36c930c0-2660-41c1-a356-77dafb18ae83.jpg""]","",""
"","5446","similarity","108","732220","0.0-6.0-102.0","2","[""img/0873/226317e0-f0e7-42ea-907b-058cb1ad519a.jpg"",""img/0875/fb732ab5-013a-4366-9f65-27811ed157e9.jpg""]","",""
"","6221","similarity","109","739449","0.0-6.0-103.0","6","[""img/0884/fb8b0101-bfd2-462b-a942-d3202a69dd18.jpg"",""img/0884/3613aeb4-0028-4205-aea0-1ea28cb1f80e.jpg""]","",""
"","3711","similarity","110","744170","0.0-6.0-104.0","3","[""img/0873/87f38f18-48a2-4de3-b24b-70630e8b6ca0.jpg"",""img/0885/5a47e19f-19b4-4545-bf47-b508cb65da6a.jpg""]","",""
"","6214","similarity","111","751393","0.0-6.0-105.0","3","[""img/0883/387a9e30-7d95-483e-af34-c8262f62385f.jpg"",""img/0875/2c361b79-c3d1-4eda-812e-bf03192407bf.jpg""]","",""
"","4518","similarity","112","756923","0.0-6.0-106.0","1","[""img/0864/5f74a653-3bdc-4308-8cca-ac667dc22e1f.jpg"",""img/0867/f26f6b60-f772-4f4c-95a4-addc62cfd692.jpg""]","",""
"","5838","similarity","113","763768","0.0-6.0-107.0","1","[""img/0958/df7705da-e817-409f-8a93-05abef4b26c3.jpg"",""img/0860/d9a0d117-6d1d-41c0-8fec-9aff0fd9e9f2.jpg""]","",""
"","4204","similarity","114","768982","0.0-6.0-108.0","2","[""img/0885/4fd0aafb-6cc0-43d6-993a-c55a6e18a7ba.jpg"",""img/0756/2d59e6c9-df29-4c76-a030-db83f23c8b9b.jpg""]","",""
"","6091","similarity","115","776082","0.0-6.0-109.0","2","[""img/0883/6dcd54c3-64a3-4ed5-9149-d8b9aa1938c8.jpg"",""img/0885/1cd940ef-9720-4a04-8fa1-1dd3a39ecdd6.jpg""]","",""
"","4310","similarity","116","781400","0.0-6.0-110.0","6","[""img/0867/de92135f-5b65-4ed9-b245-188292c7c2f8.jpg"",""img/0867/ac1797e4-8afc-48fe-b252-86d1defb1cca.jpg""]","",""
"","3960","similarity","117","786368","0.0-6.0-111.0","5","[""img/0881/405484ae-0d00-4b05-bc57-6420a36adfac.jpg"",""img/0760/868961d8-3272-4d3c-9c8b-9d183315cabc.jpg""]","",""
"","5209","similarity","118","792583","0.0-6.0-112.0","1","[""img/0881/f62bdcd1-a4b7-4d48-83da-d9c9e01c8727.jpg"",""img/0868/4e626425-63c8-484a-8a1d-e66ee4e0bef8.jpg""]","",""
"","6697","similarity","119","800287","0.0-6.0-113.0","2","[""img/0875/a4935837-7d3c-4df6-88c1-36a94d4991ca.jpg"",""img/0761/e18d2113-1ed1-4a80-8171-4be5ee28d343.jpg""]","",""
"","5064","similarity","120","806359","0.0-6.0-114.0","5","[""img/0756/b7105b92-3ad0-444a-aaab-6989bc24b091.jpg"",""img/0866/945c6710-d15b-4a5b-a8f6-69af0850357f.jpg""]","",""
"","6168","similarity","121","813535","0.0-6.0-115.0","3","[""img/0884/3c61ea12-a408-47ce-98aa-b14e0f6d4591.jpg"",""img/0886/bd45b474-5559-4ea5-83ff-140bce19f5fa.jpg""]","",""
"","5624","similarity","122","820167","0.0-6.0-116.0","2","[""img/0756/6413e12f-951d-47b5-ae55-9fad7fb8d112.jpg"",""img/0881/f6bd3b96-dc40-4e99-8681-bc3a35cf896d.jpg""]","",""
"","5313","similarity","123","826487","0.0-6.0-117.0","1","[""img/0760/dfa71fdd-ddff-4827-a999-d5e599dd5679.jpg"",""img/0875/99698b4d-b4a1-44bc-8c83-8ea755bbbf61.jpg""]","",""
"","5049","similarity","124","832542","0.0-6.0-118.0","2","[""img/0958/1812c506-727b-43a7-882e-4729742e41fc.jpg"",""img/0866/02f5e6b9-52b7-448c-9708-5b460d0c9a23.jpg""]","",""
"","4144","similarity","125","837695","0.0-6.0-119.0","1","[""img/0867/f8488a47-94ee-4166-952c-44e16cf172f6.jpg"",""img/0874/ca76a855-4e77-4f2f-872a-0a718153e7ed.jpg""]","",""
"","4816","similarity","126","843518","0.0-6.0-120.0","5","[""img/0883/903939ef-a67c-40d3-841d-52555815cd88.jpg"",""img/0757/014ee4a8-8069-4b08-ac1c-04230da90244.jpg""]","",""
"","7336","similarity","127","851862","0.0-6.0-121.0","3","[""img/0874/c0378dac-9370-439a-8b79-db27c96fb390.jpg"",""img/0886/97243e18-4dba-4af8-b49f-b3b635c90ac4.jpg""]","",""
"","5168","similarity","128","858038","0.0-6.0-122.0","1","[""img/0873/1d1be182-3bb2-4efd-8543-d70b8db7beef.jpg"",""img/0761/a74c99e4-d9ed-42cd-9e83-8d525cb6a9a2.jpg""]","",""
"","5049","similarity","129","864093","0.0-6.0-123.0","1","[""img/0875/90da8d75-108a-44ad-b999-e21fee3860d3.jpg"",""img/0884/ffcce05a-b38d-4570-b3dc-751e89b7790a.jpg""]","",""
"","3288","similarity","130","868389","0.0-6.0-124.0","1","[""img/0757/91a048c0-e749-433b-9147-0c671dc5b4ca.jpg"",""img/0868/d6d1f30d-4323-435a-b194-7892521bc57e.jpg""]","",""
"","4432","similarity","131","884915","0.0-6.0-125.0","2","[""img/0886/b8648eb5-de71-41ab-825d-848e51be8c1b.jpg"",""img/0883/724f020e-39d9-495c-abe1-b2e4504be9bc.jpg""]","",""
"","4523","similarity","132","890445","0.0-6.0-126.0","1","[""img/0868/6a28c3b0-3d76-498a-9fb7-ddafc665eca8.jpg"",""img/0760/e697857f-b21d-4c49-8cde-1b803b437311.jpg""]","",""
"","4542","similarity","133","895997","0.0-6.0-127.0","3","[""img/0881/14236cf2-6b95-48b8-9368-78af09d2d27f.jpg"",""img/0881/d1982897-8d8d-4704-a940-1ee5d07a1f15.jpg""]","",""
"","5296","similarity","134","902300","0.0-6.0-128.0","2","[""img/0760/7f35fc6a-c21f-4f42-81c5-92ced38d82f8.jpg"",""img/0860/8277806e-b684-4474-8f7b-3fca946d7d4f.jpg""]","",""
"","5888","similarity","135","909196","0.0-6.0-129.0","5","[""img/0864/b3c4e378-28f0-4699-9338-2a257b4bca04.jpg"",""img/0885/517a9189-9623-4ed7-a37e-48788791e028.jpg""]","",""
"","5568","similarity","136","915772","0.0-6.0-130.0","3","[""img/0864/c3b63e8f-ea39-4d70-a1f2-b3fe4be8eb75.jpg"",""img/0757/1aca59fd-6030-4bb0-93c7-32a90f3237cf.jpg""]","",""
"","5055","similarity","137","921836","0.0-6.0-131.0","2","[""img/0760/5f9bd780-65e3-43ab-a3a3-73a1cc87d5a2.jpg"",""img/0883/00d89148-b7d4-49d2-831a-2eee070a85a4.jpg""]","",""
"","4599","similarity","138","927444","0.0-6.0-132.0","7","[""img/0885/05af267f-b982-498d-9807-ccd54689f9b4.jpg"",""img/0885/21b241a1-95da-4306-9cf2-cc52a784214a.jpg""]","",""
"","5712","similarity","139","934164","0.0-6.0-133.0","1","[""img/0860/31ff6436-98bf-4652-bed2-40f627229568.jpg"",""img/0868/8b0b8473-e2c0-4331-aa56-c3a5c29369da.jpg""]","",""
"","4151","similarity","140","939322","0.0-6.0-134.0","2","[""img/0867/12264664-1860-46df-8c21-162b9817cdda.jpg"",""img/0886/1870a791-dfee-471e-8417-197d4a53c75a.jpg""]","",""
"","5802","similarity","141","946131","0.0-6.0-135.0","6","[""img/0756/7a83dec0-4724-4efc-9fbf-52a30b5acd99.jpg"",""img/0886/9f186bd5-d48b-4cc2-9206-be67c392faa9.jpg""]","",""
"","4505","similarity","142","951644","0.0-6.0-136.0","2","[""img/0884/d8ffab77-40df-44ba-bf27-70815b052250.jpg"",""img/0868/179a5502-ab5c-478e-8263-5a1fbcc101d2.jpg""]","",""
"","4582","similarity","143","957235","0.0-6.0-137.0","7","[""img/0958/54f27d86-00c0-46b2-b2c9-050c9cc60fe0.jpg"",""img/0958/ba5ed153-96de-4f61-b7d9-87a478c8972c.jpg""]","",""
"","6335","similarity","144","964580","0.0-6.0-138.0","2","[""img/0886/451550d7-6ff9-42b5-938c-9e20ee960bf6.jpg"",""img/0873/0c7f3d86-efda-4809-aac4-256ba01e0536.jpg""]","",""
"","5911","similarity","145","971497","0.0-6.0-139.0","3","[""img/0758/eabcd7a8-56ad-4fd2-bc24-90f6b7b33265.jpg"",""img/0873/6110910a-7895-4b6a-af51-12486a4595a3.jpg""]","",""
"","4060","similarity","146","976562","0.0-6.0-140.0","1","[""img/0873/c3ff3b70-fb22-42f2-883c-3ecffd77cb4b.jpg"",""img/0756/a553ae3f-5140-4271-9000-b496fe2d4622.jpg""]","",""
"","5409","similarity","147","982979","0.0-6.0-141.0","2","[""img/0868/1a62b2b2-18f5-466e-b564-5176a57c565e.jpg"",""img/0862/ba89835a-408c-480b-8594-ed4ffa97eb5c.jpg""]","",""
"","5481","similarity","148","989466","0.0-6.0-142.0","3","[""img/0881/292e9b4b-fca0-4ba8-87f1-4048f9e37b7d.jpg"",""img/0862/1c20f772-3a51-4a80-aac0-f57dc9f86c28.jpg""]","",""
"","4383","similarity","149","994858","0.0-6.0-143.0","1","[""img/0885/5225e532-2812-41d9-8ef0-0fbfc612784e.jpg"",""img/0867/179ab87a-8eac-4c52-a41f-2e48e3120f09.jpg""]","",""
"","5064","similarity","150","1000930","0.0-6.0-144.0","7","[""img/0883/29cba870-24df-4a0b-85cd-b680316ffe3d.jpg"",""img/0883/0e1ed5c7-0881-4bfd-b12f-6a53500e74f0.jpg""]","",""
"","6431","similarity","151","1008369","0.0-6.0-145.0","2","[""img/0874/adf9a8f1-c40b-402b-b95b-1e85a54a7b62.jpg"",""img/0873/90b702a6-3dba-446a-9bba-a2ee096baf49.jpg""]","",""
"","2863","similarity","152","1012243","0.0-6.0-146.0","1","[""img/0757/76206a63-e02d-4beb-a85a-ed1b5527bc36.jpg"",""img/0758/6cd8c362-ae2a-41eb-80a3-3a4f7ace1530.jpg""]","",""
"","2725","similarity","153","1015978","0.0-6.0-147.0","1","[""img/0883/ab9b6977-0cdc-47a2-b180-494a5be181b2.jpg"",""img/0756/aa551726-e765-4729-82aa-99d700d388ae.jpg""]","",""
"","4469","similarity","154","1021457","0.0-6.0-148.0","1","[""img/0867/2e1a0b58-cdb1-4107-a14e-452530d7b9b0.jpg"",""img/0866/93a27239-8317-4e08-98ca-d8b1ff298e07.jpg""]","",""
"","6358","similarity","155","1028826","0.0-6.0-149.0","2","[""img/0758/d41c06bf-ebaf-454b-91c6-1a17f917b659.jpg"",""img/0760/dddcdfaf-2d02-4de9-a176-5705d0004b5a.jpg""]","",""
"","4349","similarity","156","1034185","0.0-6.0-150.0","1","[""img/0757/8fdf4047-c2dc-42bc-9724-c35bd113f1dc.jpg"",""img/0761/5ed865c0-8bfb-4310-9b47-690b3e450ca2.jpg""]","",""
"","4270","similarity","157","1039465","0.0-6.0-151.0","2","[""img/0761/aebad236-1f4a-4bc2-a74d-d92b7e226316.jpg"",""img/0874/8cdb1c07-1c32-46d2-981c-3636560fa6e5.jpg""]","",""
"","4270","similarity","158","1044745","0.0-6.0-152.0","7","[""img/0761/af21c992-a721-45fb-bee7-f50c0f676c30.jpg"",""img/0760/319c5462-51de-4d3b-a135-d6c44f59c0e1.jpg""]","",""
"","5732","similarity","159","1051489","0.0-6.0-153.0","7","[""img/0866/f756f7d1-9ad8-4a34-9ef6-7a443d705bfe.jpg"",""img/0866/23a224f3-2012-4fc8-8e0f-3c36f8de27fd.jpg""]","",""
"","3726","similarity","160","1056225","0.0-6.0-154.0","1","[""img/0866/6f2a90d7-14f1-4f1b-bd64-fc0af6b9fe44.jpg"",""img/0862/ee3b7bff-4a70-4e84-9bea-4a565e456acb.jpg""]","",""
"","4118","similarity","161","1061352","0.0-6.0-155.0","2","[""img/0756/b6e235f7-211b-4a2b-a7b8-393e5ec7351b.jpg"",""img/0862/e0f1a4e9-e1b6-45f7-af67-89f334e6630d.jpg""]","",""
"","3791","similarity","162","1066153","0.0-6.0-156.0","2","[""img/0860/61fb959d-d4d9-4de4-9e4e-4fa62b4cfcd5.jpg"",""img/0866/11a1d141-be5e-443c-98c1-a9d4d9e3dec0.jpg""]","",""
"","5591","similarity","163","1072752","0.0-6.0-157.0","2","[""img/0862/de9ad88c-b522-430a-8ee9-eb06a9f85df5.jpg"",""img/0958/acbadc39-e665-446d-b98f-ccd0ef3223d6.jpg""]","",""
"","2728","similarity","164","1076489","0.0-6.0-158.0","1","[""img/0761/6f9c1c71-e38d-4e3f-9062-39557812432a.jpg"",""img/0868/83b4350a-3b70-4cea-b7f5-b5b56f3050a8.jpg""]","",""
"","4439","similarity","165","1081936","0.0-6.0-159.0","2","[""img/0761/014e76d0-fb4e-4b40-901c-7a2d5655c3b0.jpg"",""img/0886/4d28f75a-a9c3-49dd-8aa8-00304af6e40b.jpg""]","",""
"","3269","similarity","166","1086217","0.0-6.0-160.0","1","[""img/0874/3ce41e7c-40c8-4d58-a546-171114521796.jpg"",""img/0868/77091fc7-a590-4ebb-b915-fdb2483a2399.jpg""]","",""
"","6780","similarity","167","1094007","0.0-6.0-161.0","1","[""img/0860/9593362c-9fe5-4d12-9735-6000a11f6aa5.jpg"",""img/0874/a3bc679d-619f-4db6-bb68-116dcb757d9c.jpg""]","",""
"","3663","similarity","168","1098680","0.0-6.0-162.0","2","[""img/0883/49aada36-b662-416c-93ae-9eab6598bfae.jpg"",""img/0867/1719a35d-f085-48c0-9099-16c94fe418b4.jpg""]","",""
"","4904","similarity","169","1104592","0.0-6.0-163.0","2","[""img/0758/a085b443-b5d7-4cb2-9ad4-b9dab0fc23f1.jpg"",""img/0958/6e602e13-8029-4642-bce0-8deffd0dc686.jpg""]","",""
"","3000","similarity","170","1108600","0.0-6.0-164.0","1","[""img/0873/a234d5d1-09ea-4594-9a0f-d569da31dbdb.jpg"",""img/0757/cb7ca802-27ac-4a1d-996f-bd21b96d6244.jpg""]","",""
"","6031","similarity","171","1115639","0.0-6.0-165.0","2","[""img/0873/b1e2e09f-ad9a-433e-818f-56dd2f1cb09c.jpg"",""img/0866/8efcaa46-83ab-4dee-a35f-850402aa21ae.jpg""]","",""
"","4815","similarity","172","1121462","0.0-6.0-166.0","6","[""img/0875/d59ff733-eaff-4ee2-9443-06954dd0bcb6.jpg"",""img/0867/075e0f95-856b-4cbb-acf5-092393aaf04e.jpg""]","",""
"","4976","similarity","173","1133036","0.0-6.0-167.0","6","[""img/0862/f23038d4-c366-4f70-979f-66b62362efa4.jpg"",""img/0862/92fcd8a4-8193-4a6a-ae09-dd4a6338b0df.jpg""]","",""
"","3602","similarity","174","1137648","0.0-6.0-168.0","1","[""img/0875/ebf7653f-ff45-4e9f-af58-2c042ab3cd2b.jpg"",""img/0886/1e8c0f89-c766-41c9-b522-83c342048f34.jpg""]","",""
"","5022","similarity","175","1143678","0.0-6.0-169.0","2","[""img/0885/a8cbb477-19ef-45ef-8f48-9667aec40bd1.jpg"",""img/0875/42910c99-5463-450a-a0f8-d4d060a11455.jpg""]","",""
"","2737","similarity","176","1147423","0.0-6.0-170.0","1","[""img/0862/d0ca4c78-fc35-46ed-bdcc-8e124283c53e.jpg"",""img/0867/c66898ba-b71b-4d50-84f9-f7f84853a98d.jpg""]","",""
"","5168","similarity","177","1153598","0.0-6.0-171.0","6","[""img/0884/a8f7b854-0010-4c7a-a8fb-b1b1dc1f1ba1.jpg"",""img/0873/33552b07-bdb8-423e-88b4-25a37f159c6d.jpg""]","",""
"","6166","similarity","178","1160774","0.0-6.0-172.0","6","[""img/0873/b509aa81-b1d7-4d50-8aef-9c7b725c3157.jpg"",""img/0958/b11515b3-5f04-4c3e-be00-56a05c6c3e96.jpg""]","",""
"","3758","similarity","179","1165542","0.0-6.0-173.0","1","[""img/0868/5fa7f9d0-f0e5-454c-8224-74d964818f56.jpg"",""img/0758/d57c2592-a317-4f63-91be-91a3a9afd222.jpg""]","",""
"","4445","similarity","180","1170997","0.0-6.0-174.0","1","[""img/0757/443a1d16-5d59-4e77-a670-d6190157c319.jpg"",""img/0874/3f471690-9788-4d03-90c7-f615aecef149.jpg""]","",""
"","4377","similarity","181","1176381","0.0-6.0-175.0","1","[""img/0958/7168f8d3-e3ae-405a-93d0-64836d899932.jpg"",""img/0867/a498eef3-9fa4-4ab2-9778-4ae82ac40dc5.jpg""]","",""
"","4849","similarity","182","1182239","0.0-6.0-176.0","6","[""img/0874/eba003b4-cdab-4eee-8bc3-f064c7d94165.jpg"",""img/0760/7cdb34e4-0556-4bf7-9a6f-05990a92e0f3.jpg""]","",""
"","4398","similarity","183","1187645","0.0-6.0-177.0","2","[""img/0873/7dddc95f-ca6e-4d15-99a0-0e329ec6888e.jpg"",""img/0860/b03b963d-949b-4d8d-b19c-4950c89eeca2.jpg""]","",""
"","5520","similarity","184","1194174","0.0-6.0-178.0","6","[""img/0881/2a8413be-fec2-4de6-88ad-614dd4cccc9d.jpg"",""img/0883/512a797a-315b-439e-9a9d-855929351fd0.jpg""]","",""
"","4847","similarity","185","1200028","0.0-6.0-179.0","2","[""img/0886/d1e40478-2fe0-404f-8409-920da98a96a2.jpg"",""img/0958/5a91b0e8-8f60-4625-b88c-d6e55b4d7d93.jpg""]","",""
"","4816","similarity","186","1205851","0.0-6.0-180.0","3","[""img/0864/da39ad34-04e0-40d4-a724-c08d53e0ea09.jpg"",""img/0883/ff85a2f1-14b1-4b7e-9c87-887151d97e01.jpg""]","",""
"","3050","similarity","187","1209909","0.0-6.0-181.0","1","[""img/0756/dbe25ae4-de3f-44b2-907f-6f2fc03ed1f0.jpg"",""img/0868/7b212364-ff5f-4e28-9241-7eb6ea00161b.jpg""]","",""
"","3551","similarity","188","1214468","0.0-6.0-182.0","1","[""img/0884/baabff07-71d8-424e-ac29-644768380941.jpg"",""img/0758/ddc336e9-a8b6-4bb9-937a-c7e25e0e9250.jpg""]","",""
"","5295","similarity","189","1220772","0.0-6.0-183.0","2","[""img/0875/03c3c331-738b-4446-af92-3d7386b08c2e.jpg"",""img/0874/ca23d307-fc00-4d7d-9106-584c6eb21b4d.jpg""]","",""
"","4696","similarity","190","1226475","0.0-6.0-184.0","6","[""img/0867/a749dddb-69f0-44a6-acdc-2bf295cf6dcc.jpg"",""img/0868/3a62db2d-97e9-44a3-b8e3-a48c6f0e423b.jpg""]","",""
"","5655","similarity","191","1233139","0.0-6.0-185.0","1","[""img/0881/e6746727-7f89-47ec-b939-d98abe78372d.jpg"",""img/0885/fbbfaacd-e49b-4d37-a2f9-fcaffa58f26f.jpg""]","",""
"","4417","similarity","192","1238563","0.0-6.0-186.0","2","[""img/0864/0f537697-a314-47c3-a8cc-8df23b7e536c.jpg"",""img/0761/1725cacb-5f86-4b47-a5c0-3c36cd981588.jpg""]","",""
"","5078","similarity","193","1244651","0.0-6.0-187.0","2","[""img/0885/8960bf05-34df-4a86-a9b2-6087c70e61d3.jpg"",""img/0874/1016b306-087c-4afc-aa08-fa527b28dc76.jpg""]","",""
"","2912","similarity","194","1248572","0.0-6.0-188.0","1","[""img/0758/2fa3e613-e676-4e6e-bd12-705327eeb3e1.jpg"",""img/0867/6e19c858-b606-45b2-a4c6-910a73f1d82c.jpg""]","",""
"","3364","similarity","195","1252948","0.0-6.0-189.0","1","[""img/0756/fd9b5e61-3674-448f-867a-29769dc8f07d.jpg"",""img/0884/37ee4afa-34a0-4da2-bdb0-fcaff43dcdb6.jpg""]","",""
"","3676","similarity","196","1257635","0.0-6.0-190.0","2","[""img/0761/00a8e7ae-d8da-4cba-8969-1dfb943a2aa2.jpg"",""img/0862/a0a3a7ba-7798-46a3-b4ca-05e1f6e581d0.jpg""]","",""
"","4965","similarity","197","1263611","0.0-6.0-191.0","2","[""img/0860/e14d67c1-6d92-4f1e-9257-c8607159c19c.jpg"",""img/0886/789f5d23-84b8-499a-ae1e-20c6309a06ae.jpg""]","",""
"","3632","similarity","198","1268251","0.0-6.0-192.0","1","[""img/0760/812c848f-be21-4059-abe5-8c4f4ac9ad0f.jpg"",""img/0885/1e66fe61-15d5-42b1-86aa-dbfd13613f5c.jpg""]","",""
"","6405","similarity","199","1275663","0.0-6.0-193.0","3","[""img/0886/abd8dd83-d8ee-4003-b4d2-b4045220a578.jpg"",""img/0868/09a9ef4d-d000-4cfa-a6aa-ebec7c2edeb4.jpg""]","",""
"","5703","similarity","200","1282374","0.0-6.0-194.0","3","[""img/0881/19e82c47-8e4b-45d2-a6c8-74181eb4155e.jpg"",""img/0864/e8bd659f-aa43-4748-877e-3118e8b4e189.jpg""]","",""
"","3485","similarity","201","1286867","0.0-6.0-195.0","3","[""img/0866/a04d37f0-99dd-478a-b6c6-58b215138f84.jpg"",""img/0868/4bd5105a-d2c3-4f82-8c80-57196106ba53.jpg""]","",""
"","5239","similarity","202","1293114","0.0-6.0-196.0","3","[""img/0864/ea327690-500b-4137-bf91-451b309fe6a5.jpg"",""img/0958/9be61b1d-099b-432a-ae0e-2aa69e157c0e.jpg""]","",""
"","4234","similarity","203","1298356","0.0-6.0-197.0","2","[""img/0757/69d850ce-9828-4b13-9e68-6a2c196ecbcc.jpg"",""img/0886/aef00ed5-e288-47bf-b31e-512d7e762ea2.jpg""]","",""
"","6421","similarity","204","1305801","0.0-6.0-198.0","3","[""img/0758/67c0be2f-9e91-48b3-8219-70ac0a1802fa.jpg"",""img/0883/daaa1a6f-c322-46f6-b6a6-db2c9496d710.jpg""]","",""
"","4752","similarity","205","1311562","0.0-6.0-199.0","1","[""img/0881/33d65d80-8a8e-4ecf-852d-0ad7725c17a2.jpg"",""img/0958/ebea41e3-9d65-4f5e-981a-92daaaad0d57.jpg""]","",""
"","5088","similarity","206","1317657","0.0-6.0-200.0","3","[""img/0958/96f89270-febc-4f09-b8c3-53a249ff00ea.jpg"",""img/0874/99f6563c-8a8d-4c1c-a41d-667b618c3fd5.jpg""]","",""
"","3465","similarity","207","1322130","0.0-6.0-201.0","1","[""img/0885/eb5e4557-1792-49c3-8871-16afa58f3a28.jpg"",""img/0860/4a022222-056d-461c-ab02-39fac9647552.jpg""]","",""
"","2831","similarity","208","1325969","0.0-6.0-202.0","1","[""img/0875/5a1e5100-0d94-4fec-bbe9-ca9894d2cf8e.jpg"",""img/0881/7e822106-76f7-4b10-a805-14dc68b2cfaf.jpg""]","",""
"","3040","similarity","209","1330017","0.0-6.0-203.0","1","[""img/0758/a709631e-3705-4725-ac40-f0d916924f08.jpg"",""img/0860/5bff793e-cbd5-4d7e-b628-0ac2b0e30b64.jpg""]","",""
"","4413","similarity","210","1335440","0.0-6.0-204.0","7","[""img/0860/5383b320-1518-4095-a58e-5cc1ae30b64c.jpg"",""img/0860/8a92e21b-6a32-4e4a-a445-2d5a487ed0a4.jpg""]","",""
"","4751","similarity","211","1341200","0.0-6.0-205.0","7","[""img/0874/93d1f8dc-acf2-4f03-bd8d-8ec35df276ed.jpg"",""img/0874/29830da7-be5f-44e5-b141-652a0ccf7269.jpg""]","",""
"","5721","similarity","212","1347928","0.0-6.0-206.0","3","[""img/0883/142a783e-a468-4b7f-a750-1e107613d5a9.jpg"",""img/0761/07f8178b-8ce5-42d6-bca0-a0ae0e0e8eb3.jpg""]","",""
"","7704","similarity","213","1356640","0.0-6.0-207.0","3","[""img/0761/53a65b48-8b0c-4a1d-9ebb-a27a259c5bc6.jpg"",""img/0881/c843e210-bdfe-4a7c-8bbe-fcea1f90fe1c.jpg""]","",""
"","4016","similarity","214","1361664","0.0-6.0-208.0","2","[""img/0760/32bea725-69a2-4c9a-94d9-af05883fbb86.jpg"",""img/0756/04655068-a9fc-49d9-b2f4-21e4d42b7903.jpg""]","",""
"","2624","similarity","215","1370735","0.0-6.0-209.0","1","[""img/0885/8cdf3204-e0f1-482b-9546-5edca3d81376.jpg"",""img/0757/a3620c04-efdc-4b42-940c-806958d1351e.jpg""]","",""
"[{""page_index"":0,""viewing_time"":7495}]","7495","instructions","216","1379231","0.0-7.0","","","",""
"","11915","image-multi-choice","217","1392187","0.0-8.0-0.0","","","{""Q0"":""Yellow Warbler""}","Orange-crowned Warbler"
"","8407","image-multi-choice","218","1401623","0.0-8.0-1.0","","","{""Q0"":""Common Yellowthroat""}","Wilson's Warbler"
"","5950","image-multi-choice","219","1408606","0.0-8.0-2.0","","","{""Q0"":""Black-and-white Warbler""}","Blackpoll Warbler"
"","6040","image-multi-choice","220","1415678","0.0-8.0-3.0","","","{""Q0"":""Black-and-white Warbler""}","Black-and-white Warbler"
"","28799","image-multi-choice","221","1445517","0.0-8.0-4.0","","","{""Q0"":""Yellow-breasted Chat""}","Yellow-breasted Chat"
"","37378","image-multi-choice","222","1483929","0.0-8.0-5.0","","","{""Q0"":""Blackburnian Warbler""}","Canada Warbler"
"","40874","image-multi-choice","223","1525835","0.0-8.0-6.0","","","{""Q0"":""Common Yellowthroat""}","Common Yellowthroat"
"","3891","image-multi-choice","224","1530754","0.0-8.0-7.0","","","{""Q0"":""American Redstart""}","American Redstart"
"","9819","image-multi-choice","225","1541602","0.0-8.0-8.0","","","{""Q0"":""Blackburnian Warbler""}","Chestnut-sided Warbler"
"","4972","image-multi-choice","226","1547602","0.0-8.0-9.0","","","{""Q0"":""Black-throated Green Warbler""}","Black-throated Green Warbler"
"","28970","image-multi-choice","227","1577601","0.0-8.0-10.0","","","{""Q0"":""Chestnut-sided Warbler""}","Blackburnian Warbler"
"","12460","image-multi-choice","228","1591088","0.0-8.0-11.0","","","{""Q0"":""Northern Parula""}","Yellow-rumped Warbler"
"","6864","image-multi-choice","229","1598985","0.0-8.0-12.0","","","{""Q0"":""Ovenbird""}","Ovenbird"
"","6343","image-multi-choice","230","1606362","0.0-8.0-13.0","","","{""Q0"":""Tennessee Warbler""}","Townsend's Warbler"
"","12384","image-multi-choice","231","1619776","0.0-8.0-14.0","","","{""Q0"":""Ovenbird""}","Northern Waterthrush"
"","8544","image-multi-choice","232","1629347","0.0-8.0-15.0","","","{""Q0"":""Wilson's Warbler""}","Yellow Warbler"
"","3689","image-multi-choice","233","1634063","0.0-8.0-16.0","","","{""Q0"":""Yellow Warbler""}","Nashville Warbler"
"","12383","image-multi-choice","234","1647473","0.0-8.0-17.0","","","{""Q0"":""Nashville Warbler""}","Northern Parula"
"","5259","image-multi-choice","235","1653759","0.0-8.0-18.0","","","{""Q0"":""Townsend's Warbler""}","Tennessee Warbler"
"","7192","image-multi-choice","236","1661983","0.0-8.0-19.0","","","{""Q0"":""Yellow-rumped Warbler""}","Magnolia Warbler"
