"view_history","rt","trial_type","trial_index","time_elapsed","internal_node_id","sim_score","stimulus","responses","answer"
"[{""page_index"":0,""viewing_time"":6725}]","6727","instructions","0","6729","0.0-0.0","","","",""
"","8319","similarity_demo","1","16100","0.0-1.0","7","[""img/bluejay1.jpg"",""img/bluejay2.jpg""]","",""
"[{""page_index"":0,""viewing_time"":12854}]","12855","instructions","2","29973","0.0-2.0","","","",""
"","3920","similarity_demo","3","34943","0.0-3.0","1","[""img/bluejay1.jpg"",""img/cardinal1.jpg""]","",""
"[{""page_index"":0,""viewing_time"":1931}]","1932","instructions","4","37895","0.0-4.0","","","",""
"[{""page_index"":0,""viewing_time"":16239}]","16240","instructions","5","55156","0.0-5.0","","","",""
"","4841","similarity","6","61047","0.0-6.0-0.0","2","[""img/0864/e02eddb5-f468-499c-91bf-f7be3ffe979b.jpg"",""img/0860/c7047cd2-7cc1-41b6-8a34-c0986774975f.jpg""]","",""
"","4163","similarity","7","66257","0.0-6.0-1.0","2","[""img/0884/0b4cf8d4-4c8f-4312-a794-f99e01679176.jpg"",""img/0760/32bea725-69a2-4c9a-94d9-af05883fbb86.jpg""]","",""
"","3737","similarity","8","71051","0.0-6.0-2.0","1","[""img/0886/e5903946-897c-4420-87c0-afee4100305c.jpg"",""img/0881/e6746727-7f89-47ec-b939-d98abe78372d.jpg""]","",""
"","3708","similarity","9","75814","0.0-6.0-3.0","1","[""img/0866/620cd1aa-0800-4414-8f6e-90342e7a99ad.jpg"",""img/0881/2a8413be-fec2-4de6-88ad-614dd4cccc9d.jpg""]","",""
"","9660","similarity","10","86534","0.0-6.0-4.0","2","[""img/0868/4bd5105a-d2c3-4f82-8c80-57196106ba53.jpg"",""img/0885/4fd0aafb-6cc0-43d6-993a-c55a6e18a7ba.jpg""]","",""
"","4789","similarity","11","92368","0.0-6.0-5.0","3","[""img/0757/efa4466e-2951-4af9-b321-85458a89c2a7.jpg"",""img/0866/07c9c966-3c8d-40e7-8128-92b2acbaed5d.jpg""]","",""
"","3259","similarity","12","96654","0.0-6.0-6.0","2","[""img/0868/7b212364-ff5f-4e28-9241-7eb6ea00161b.jpg"",""img/0864/b3c4e378-28f0-4699-9338-2a257b4bca04.jpg""]","",""
"","4203","similarity","13","101903","0.0-6.0-7.0","7","[""img/0864/87c467d3-abca-482f-ad80-3766c21b1bb3.jpg"",""img/0864/6f631579-acf1-415c-a42c-1207f62a8d99.jpg""]","",""
"","4072","similarity","14","107013","0.0-6.0-8.0","4","[""img/0757/20c59f64-1fc2-448d-8423-42cbd8fe0164.jpg"",""img/0881/44e09805-5a25-4f17-a716-4ad4a331b174.jpg""]","",""
"","2832","similarity","15","110894","0.0-6.0-9.0","1","[""img/0886/aef00ed5-e288-47bf-b31e-512d7e762ea2.jpg"",""img/0760/39d75e1e-0645-4f23-a2ca-3bbefac19d69.jpg""]","",""
"","4348","similarity","16","116288","0.0-6.0-10.0","1","[""img/0884/7f9cc898-36bc-49ec-8b1a-01065d9c0062.jpg"",""img/0883/49aada36-b662-416c-93ae-9eab6598bfae.jpg""]","",""
"","3409","similarity","17","120734","0.0-6.0-11.0","1","[""img/0874/eba003b4-cdab-4eee-8bc3-f064c7d94165.jpg"",""img/0862/4f0a3b4c-afbf-486e-b248-1d54982f54b4.jpg""]","",""
"","3370","similarity","18","125165","0.0-6.0-12.0","3","[""img/0862/d0ca4c78-fc35-46ed-bdcc-8e124283c53e.jpg"",""img/0875/90da8d75-108a-44ad-b999-e21fee3860d3.jpg""]","",""
"","3864","similarity","19","130078","0.0-6.0-13.0","2","[""img/0875/5a1e5100-0d94-4fec-bbe9-ca9894d2cf8e.jpg"",""img/0757/2f6a36b2-6543-4003-bcb9-6f2c61db2de8.jpg""]","",""
"","3972","similarity","20","135094","0.0-6.0-14.0","4","[""img/0875/42910c99-5463-450a-a0f8-d4d060a11455.jpg"",""img/0860/9593362c-9fe5-4d12-9735-6000a11f6aa5.jpg""]","",""
"","5194","similarity","21","141327","0.0-6.0-15.0","3","[""img/0860/5bff793e-cbd5-4d7e-b628-0ac2b0e30b64.jpg"",""img/0881/14236cf2-6b95-48b8-9368-78af09d2d27f.jpg""]","",""
"","4410","similarity","22","146782","0.0-6.0-16.0","1","[""img/0885/fce9f22a-f769-477c-acee-a5ad8214f0a5.jpg"",""img/0884/baabff07-71d8-424e-ac29-644768380941.jpg""]","",""
"","3430","similarity","23","151269","0.0-6.0-17.0","7","[""img/0761/edc0b069-71dc-4b11-b7f0-8429ea8ac5c9.jpg"",""img/0761/5747fedf-15f2-47fe-87c8-ff646dd66a5f.jpg""]","",""
"","4474","similarity","24","156790","0.0-6.0-18.0","5","[""img/0760/83b0723f-4929-4ee7-ad35-fae98da3e152.jpg"",""img/0864/49150900-7f25-4ce8-8d10-9b47a71d1997.jpg""]","",""
"","3147","similarity","25","160966","0.0-6.0-19.0","2","[""img/0864/ea327690-500b-4137-bf91-451b309fe6a5.jpg"",""img/0875/2e13d160-eea1-416b-aff1-d37ab99ecc1d.jpg""]","",""
"","4826","similarity","26","166837","0.0-6.0-20.0","1","[""img/0874/3ce41e7c-40c8-4d58-a546-171114521796.jpg"",""img/0884/9b1b7885-1502-448f-9b20-ddc19aa5456f.jpg""]","",""
"","3845","similarity","27","171734","0.0-6.0-21.0","3","[""img/0885/62bd11a8-7059-4cc2-b06d-4700688b313f.jpg"",""img/0866/f756f7d1-9ad8-4a34-9ef6-7a443d705bfe.jpg""]","",""
"","3962","similarity","28","176743","0.0-6.0-22.0","6","[""img/0868/4a8a45ed-2c4f-421b-9564-409a33ecd26c.jpg"",""img/0868/8b0b8473-e2c0-4331-aa56-c3a5c29369da.jpg""]","",""
"","3544","similarity","29","181341","0.0-6.0-23.0","1","[""img/0757/c190d19b-2091-436c-a92b-a48c253ac955.jpg"",""img/0756/350ac166-1deb-4399-89db-da6a7e827c4d.jpg""]","",""
"","3684","similarity","30","186079","0.0-6.0-24.0","6","[""img/0875/fb732ab5-013a-4366-9f65-27811ed157e9.jpg"",""img/0875/99698b4d-b4a1-44bc-8c83-8ea755bbbf61.jpg""]","",""
"","4369","similarity","31","191482","0.0-6.0-25.0","2","[""img/0761/07f8178b-8ce5-42d6-bca0-a0ae0e0e8eb3.jpg"",""img/0866/4a87911a-d5be-4d4e-ab8e-3d1f581bf507.jpg""]","",""
"","2684","similarity","32","195237","0.0-6.0-26.0","2","[""img/0866/c446214b-a368-4c65-ae39-ea46894256ab.jpg"",""img/0758/d57c2592-a317-4f63-91be-91a3a9afd222.jpg""]","",""
"","3651","similarity","33","199926","0.0-6.0-27.0","2","[""img/0758/821c68d3-5cb0-4eae-8659-30e6263fca39.jpg"",""img/0875/a4935837-7d3c-4df6-88c1-36a94d4991ca.jpg""]","",""
"","5034","similarity","34","206045","0.0-6.0-28.0","2","[""img/0958/86d1a76d-f067-4e36-9ab5-13da78c97c0e.jpg"",""img/0757/c05f53f3-811c-4a3b-b848-a27b80b8fd53.jpg""]","",""
"","3181","similarity","35","210358","0.0-6.0-29.0","1","[""img/0873/c2a7452d-a271-4207-81ce-bda281dc0297.jpg"",""img/0883/ab9b6977-0cdc-47a2-b180-494a5be181b2.jpg""]","",""
"","3683","similarity","36","215078","0.0-6.0-30.0","6","[""img/0868/6a28c3b0-3d76-498a-9fb7-ddafc665eca8.jpg"",""img/0875/ebf7653f-ff45-4e9f-af58-2c042ab3cd2b.jpg""]","",""
"","2573","similarity","37","218701","0.0-6.0-31.0","4","[""img/0884/ffcce05a-b38d-4570-b3dc-751e89b7790a.jpg"",""img/0862/7918ca67-5bd3-4606-a5ea-c39fb11a9297.jpg""]","",""
"","4193","similarity","38","223925","0.0-6.0-32.0","7","[""img/0884/37ee4afa-34a0-4da2-bdb0-fcaff43dcdb6.jpg"",""img/0864/efcfbb1b-8197-44c9-b723-40d6c608dd3c.jpg""]","",""
"","4207","similarity","39","229158","0.0-6.0-33.0","3","[""img/0883/5716bfb3-e86c-42fe-8afa-58d226cb1aaa.jpg"",""img/0958/7168f8d3-e3ae-405a-93d0-64836d899932.jpg""]","",""
"","3687","similarity","40","233878","0.0-6.0-34.0","5","[""img/0864/6e846d43-94a6-4b37-a268-65eda979f052.jpg"",""img/0756/2bc961e4-b35f-4cfe-ba02-6f14fe3bdc10.jpg""]","",""
"","4743","similarity","41","239656","0.0-6.0-35.0","3","[""img/0874/29830da7-be5f-44e5-b141-652a0ccf7269.jpg"",""img/0758/eabcd7a8-56ad-4fd2-bc24-90f6b7b33265.jpg""]","",""
"","4202","similarity","42","244909","0.0-6.0-36.0","1","[""img/0886/48077111-b86b-4612-910f-90a5d168d77f.jpg"",""img/0862/92fcd8a4-8193-4a6a-ae09-dd4a6338b0df.jpg""]","",""
"","3094","similarity","43","249037","0.0-6.0-37.0","1","[""img/0862/ad593cc7-cabe-4bb7-8e14-8a447a0717b4.jpg"",""img/0885/5a47e19f-19b4-4545-bf47-b508cb65da6a.jpg""]","",""
"","3187","similarity","44","253269","0.0-6.0-38.0","3","[""img/0758/7ffbc76b-1fc1-432c-8f7e-9ec8d1b3f643.jpg"",""img/0864/afcba0a3-7e27-4757-b254-e9f05fad27e2.jpg""]","",""
"","3127","similarity","45","257447","0.0-6.0-39.0","7","[""img/0873/c91c05f8-fafd-4054-bcf1-f5ed1f0a18e8.jpg"",""img/0867/de92135f-5b65-4ed9-b245-188292c7c2f8.jpg""]","",""
"","3344","similarity","46","261837","0.0-6.0-40.0","1","[""img/0958/df7705da-e817-409f-8a93-05abef4b26c3.jpg"",""img/0884/2348ce3f-5d2a-4a04-85ef-a65f05caa935.jpg""]","",""
"","7805","similarity","47","278115","0.0-6.0-41.0","6","[""img/0873/90b702a6-3dba-446a-9bba-a2ee096baf49.jpg"",""img/0873/6110910a-7895-4b6a-af51-12486a4595a3.jpg""]","",""
"","4417","similarity","48","283553","0.0-6.0-42.0","2","[""img/0886/1870a791-dfee-471e-8417-197d4a53c75a.jpg"",""img/0758/2fa3e613-e676-4e6e-bd12-705327eeb3e1.jpg""]","",""
"","5568","similarity","49","290171","0.0-6.0-43.0","6","[""img/0883/0e1ed5c7-0881-4bfd-b12f-6a53500e74f0.jpg"",""img/0874/767f289c-9814-4496-803f-745cc8913d1f.jpg""]","",""
"","3262","similarity","50","294480","0.0-6.0-44.0","6","[""img/0881/b1a136f7-8511-4d3a-a0f6-3879acf1e1a1.jpg"",""img/0873/e5374873-a1a7-4689-a04c-a3b959992244.jpg""]","",""
"","7291","similarity","51","302815","0.0-6.0-45.0","2","[""img/0867/f8488a47-94ee-4166-952c-44e16cf172f6.jpg"",""img/0757/91a048c0-e749-433b-9147-0c671dc5b4ca.jpg""]","",""
"","2994","similarity","52","306861","0.0-6.0-46.0","4","[""img/0866/8efcaa46-83ab-4dee-a35f-850402aa21ae.jpg"",""img/0874/1016b306-087c-4afc-aa08-fa527b28dc76.jpg""]","",""
"","3355","similarity","53","311263","0.0-6.0-47.0","7","[""img/0886/625c7dfa-3fa1-4166-80f0-229eb416b04f.jpg"",""img/0886/c6c81122-f4bf-46f4-968b-167f8ed0cab3.jpg""]","",""
"","4245","similarity","54","316563","0.0-6.0-48.0","4","[""img/0883/dc95de8d-9297-41ec-b3ac-3f8b060260e3.jpg"",""img/0860/fd4662f9-4c03-4d79-8593-06735e55a64b.jpg""]","",""
"","2899","similarity","55","320517","0.0-6.0-49.0","1","[""img/0860/f44ba3fb-03a2-42f0-8509-2c1ded493086.jpg"",""img/0756/caa9655d-9f7e-420d-a757-6af4985d335a.jpg""]","",""
"","3088","similarity","56","324662","0.0-6.0-50.0","4","[""img/0860/8fdba999-b946-4c7d-9891-336018b563ef.jpg"",""img/0757/10030bb1-70b8-4889-a8a5-ab50e145704d.jpg""]","",""
"","6183","similarity","57","331877","0.0-6.0-51.0","7","[""img/0756/dbe25ae4-de3f-44b2-907f-6f2fc03ed1f0.jpg"",""img/0756/a553ae3f-5140-4271-9000-b496fe2d4622.jpg""]","",""
"","4268","similarity","58","337181","0.0-6.0-52.0","5","[""img/0875/3ecb367d-e9eb-4826-8aaa-7aa72fb98019.jpg"",""img/0866/0207e9a2-7dbb-40b5-9459-b472aaeceb2a.jpg""]","",""
"","4335","similarity","59","342560","0.0-6.0-53.0","3","[""img/0756/2d59e6c9-df29-4c76-a030-db83f23c8b9b.jpg"",""img/0758/335851a0-a55b-46d8-ab05-8463eda48349.jpg""]","",""
"","4392","similarity","60","347999","0.0-6.0-54.0","2","[""img/0761/5ed865c0-8bfb-4310-9b47-690b3e450ca2.jpg"",""img/0884/3613aeb4-0028-4205-aea0-1ea28cb1f80e.jpg""]","",""
"","2737","similarity","61","351774","0.0-6.0-55.0","1","[""img/0760/cbd28974-989a-49dd-b631-42de146d7e6f.jpg"",""img/0867/a749dddb-69f0-44a6-acdc-2bf295cf6dcc.jpg""]","",""
"","7537","similarity","62","360357","0.0-6.0-56.0","2","[""img/0866/02f5e6b9-52b7-448c-9708-5b460d0c9a23.jpg"",""img/0884/05d9bfb9-44a6-4ab4-92fa-d17e5b2b4f33.jpg""]","",""
"","4375","similarity","63","365765","0.0-6.0-57.0","3","[""img/0756/653c7580-fa90-45bb-828a-eb9d05a6b1c7.jpg"",""img/0761/a74c99e4-d9ed-42cd-9e83-8d525cb6a9a2.jpg""]","",""
"","3743","similarity","64","370541","0.0-6.0-58.0","4","[""img/0867/1719a35d-f085-48c0-9099-16c94fe418b4.jpg"",""img/0860/4c530c3c-6aab-492a-94d1-9c01797bde40.jpg""]","",""
"","3238","similarity","65","374822","0.0-6.0-59.0","6","[""img/0881/5fe04dd0-5c74-47b7-99c8-b068db9ca26a.jpg"",""img/0758/d41c06bf-ebaf-454b-91c6-1a17f917b659.jpg""]","",""
"","3273","similarity","66","379134","0.0-6.0-60.0","5","[""img/0761/3599fa54-18f9-488e-b402-e851c43586ff.jpg"",""img/0758/b76ceca7-95ac-46e4-ac13-da02c8e93be9.jpg""]","",""
"","2250","similarity","67","382445","0.0-6.0-61.0","4","[""img/0958/d3775867-a8f6-42ba-86ff-f86e85edba90.jpg"",""img/0875/e7e66b13-b573-431e-b85e-288ce04a35a3.jpg""]","",""
"","3347","similarity","68","386845","0.0-6.0-62.0","2","[""img/0886/d1e40478-2fe0-404f-8409-920da98a96a2.jpg"",""img/0864/8ddd2e30-a1d0-479f-9cbe-591213023893.jpg""]","",""
"","5954","similarity","69","393846","0.0-6.0-63.0","4","[""img/0756/c7199ce2-2203-43c6-90d7-78f77277b522.jpg"",""img/0874/a3bc679d-619f-4db6-bb68-116dcb757d9c.jpg""]","",""
"","2269","similarity","70","397149","0.0-6.0-64.0","4","[""img/0758/f61ecdf8-a7d4-4db0-b84d-be46f7cfaffc.jpg"",""img/0885/21b241a1-95da-4306-9cf2-cc52a784214a.jpg""]","",""
"","4840","similarity","71","403029","0.0-6.0-65.0","4","[""img/0760/135d76ab-2bf3-4dc9-8509-92983dc9893d.jpg"",""img/0958/ba5ed153-96de-4f61-b7d9-87a478c8972c.jpg""]","",""
"","2558","similarity","72","406621","0.0-6.0-66.0","4","[""img/0884/10c0a35b-e20a-4d75-a7c0-959a578d9ebf.jpg"",""img/0881/f62bdcd1-a4b7-4d48-83da-d9c9e01c8727.jpg""]","",""
"","5450","similarity","73","413125","0.0-6.0-67.0","2","[""img/0864/4bd81bc6-c13d-46df-95a9-485886dc7c1b.jpg"",""img/0873/87f38f18-48a2-4de3-b24b-70630e8b6ca0.jpg""]","",""
"","2901","similarity","74","417063","0.0-6.0-68.0","2","[""img/0862/fb26cb07-d5a9-4653-813c-f41609f26cd5.jpg"",""img/0758/d540bee6-b460-4c32-ac57-bc282742d7d4.jpg""]","",""
"","3621","similarity","75","421736","0.0-6.0-69.0","7","[""img/0757/ec40956b-ed8b-4970-b87f-9b7c25cd5be6.jpg"",""img/0757/e2cf79e3-9d9f-49eb-a09d-0028ca21d242.jpg""]","",""
"","4335","similarity","76","427126","0.0-6.0-70.0","1","[""img/0860/d9a0d117-6d1d-41c0-8fec-9aff0fd9e9f2.jpg"",""img/0862/847e5208-38ec-4f36-949c-296cdd7424ee.jpg""]","",""
"","4568","similarity","77","432861","0.0-6.0-71.0","1","[""img/0860/702bd09d-df3a-40aa-a267-5f04474305b5.jpg"",""img/0884/a6389ab4-3291-4434-9b91-eeae3b04fce4.jpg""]","",""
"","4557","similarity","78","438461","0.0-6.0-72.0","4","[""img/0883/cc3df660-426e-452e-ac50-3a3b09dc4b65.jpg"",""img/0866/a15b02be-11bb-43e3-b0e0-ecc3bd7dfc49.jpg""]","",""
"","4805","similarity","79","444315","0.0-6.0-73.0","5","[""img/0866/a04d37f0-99dd-478a-b6c6-58b215138f84.jpg"",""img/0886/bd45b474-5559-4ea5-83ff-140bce19f5fa.jpg""]","",""
"","3659","similarity","80","449020","0.0-6.0-74.0","4","[""img/0958/d4138705-0a9d-4141-9af9-205e69367c44.jpg"",""img/0761/47960f80-42b7-4397-a852-ec55d716c652.jpg""]","",""
"","5979","similarity","81","456053","0.0-6.0-75.0","2","[""img/0875/34132396-d896-4c2d-8087-646dd867e769.jpg"",""img/0756/c211414a-203e-4a7f-9412-5abddea2af11.jpg""]","",""
"","5479","similarity","82","462565","0.0-6.0-76.0","4","[""img/0958/acbadc39-e665-446d-b98f-ccd0ef3223d6.jpg"",""img/0885/89d8c48b-8bde-42ed-ae71-de669b15ea34.jpg""]","",""
"","5850","similarity","83","469461","0.0-6.0-77.0","4","[""img/0868/fd307a36-9a3a-47d7-ab7c-f810d0b35040.jpg"",""img/0883/df1c6d22-bb1b-4eed-b4fe-eb5e46deacd4.jpg""]","",""
"","3786","similarity","84","474297","0.0-6.0-78.0","2","[""img/0862/ba89835a-408c-480b-8594-ed4ffa97eb5c.jpg"",""img/0760/afe7a178-4458-4bdd-a0ad-0cffc57eadc3.jpg""]","",""
"","2260","similarity","85","477589","0.0-6.0-79.0","4","[""img/0885/eb5e4557-1792-49c3-8871-16afa58f3a28.jpg"",""img/0761/af21c992-a721-45fb-bee7-f50c0f676c30.jpg""]","",""
"","5373","similarity","86","484005","0.0-6.0-80.0","2","[""img/0862/e0f1a4e9-e1b6-45f7-af67-89f334e6630d.jpg"",""img/0864/65210d57-1153-4657-886a-32e758f49b4a.jpg""]","",""
"","3196","similarity","87","488246","0.0-6.0-81.0","7","[""img/0758/53f35650-e455-4b53-8be4-c3c8271c6466.jpg"",""img/0758/dd559618-7f09-4a07-8018-d311c4a5ea29.jpg""]","",""
"","3204","similarity","88","492479","0.0-6.0-82.0","5","[""img/0862/f23038d4-c366-4f70-979f-66b62362efa4.jpg"",""img/0873/0d9b4403-7f26-46dc-b0b7-2b97b0a91b46.jpg""]","",""
"","2833","similarity","89","499901","0.0-6.0-83.0","4","[""img/0760/4f024637-f98a-409a-baa0-fc4989d80667.jpg"",""img/0757/69d850ce-9828-4b13-9e68-6a2c196ecbcc.jpg""]","",""
"","2841","similarity","90","503797","0.0-6.0-84.0","5","[""img/0867/c71dc569-f49c-4397-8381-68b8d726736d.jpg"",""img/0881/609a5e93-38b5-4940-8627-2bf8fad7f802.jpg""]","",""
"","2863","similarity","91","507693","0.0-6.0-85.0","1","[""img/0885/1e66fe61-15d5-42b1-86aa-dbfd13613f5c.jpg"",""img/0886/9b0bffbe-9237-404d-a0ba-a1982e0814c7.jpg""]","",""
"","4925","similarity","92","513661","0.0-6.0-86.0","3","[""img/0866/386235d2-6857-41e7-88a8-25cfc3430025.jpg"",""img/0864/66091c27-e588-4476-8af9-265dc6be4156.jpg""]","",""
"","3524","similarity","93","518246","0.0-6.0-87.0","6","[""img/0874/8cdb1c07-1c32-46d2-981c-3636560fa6e5.jpg"",""img/0881/adc02f34-ce97-4aef-850f-00519df06fd7.jpg""]","",""
"","7846","similarity","94","527124","0.0-6.0-88.0","6","[""img/0866/bf14b5bd-fb55-47db-86b9-4f8aeb9a6dad.jpg"",""img/0760/dddcdfaf-2d02-4de9-a176-5705d0004b5a.jpg""]","",""
"","5877","similarity","95","534053","0.0-6.0-89.0","5","[""img/0867/8ba0c5a7-c7e4-42cf-a80a-543763b90779.jpg"",""img/0884/d8ffab77-40df-44ba-bf27-70815b052250.jpg""]","",""
"","3190","similarity","96","538285","0.0-6.0-90.0","1","[""img/0757/443a1d16-5d59-4e77-a670-d6190157c319.jpg"",""img/0862/f188d4f0-76a4-4102-818c-a209969d73a5.jpg""]","",""
"","3375","similarity","97","542693","0.0-6.0-91.0","1","[""img/0867/26611f4e-d694-4460-b7e2-43c62753ddc3.jpg"",""img/0761/1725cacb-5f86-4b47-a5c0-3c36cd981588.jpg""]","",""
"","3456","similarity","98","547196","0.0-6.0-92.0","1","[""img/0868/15dd6fd7-791e-4b53-b203-195d617521a4.jpg"",""img/0958/ef1b718f-ef8c-497f-80d7-42562aebf1a7.jpg""]","",""
"","5087","similarity","99","553327","0.0-6.0-93.0","6","[""img/0874/99f6563c-8a8d-4c1c-a41d-667b618c3fd5.jpg"",""img/0864/300bb811-8b3c-4c42-8653-6097c3725197.jpg""]","",""
"","5682","similarity","100","560046","0.0-6.0-94.0","2","[""img/0760/ed469d78-34af-4ea9-a969-05ea527438a2.jpg"",""img/0873/0c7f3d86-efda-4809-aac4-256ba01e0536.jpg""]","",""
"","4432","similarity","101","565517","0.0-6.0-95.0","4","[""img/0868/293079b8-7e0c-4afd-a390-1e5d35fe3ded.jpg"",""img/0873/ec150e40-b3ec-4dfe-ab38-bb3f248a1175.jpg""]","",""
"","3221","similarity","102","569793","0.0-6.0-96.0","3","[""img/0860/4f695df5-afac-4da7-9875-fee39b0b24ad.jpg"",""img/0761/e18d2113-1ed1-4a80-8171-4be5ee28d343.jpg""]","",""
"","3779","similarity","103","574614","0.0-6.0-97.0","1","[""img/0862/fad1d7c1-8187-43c3-942a-0fc12183e48e.jpg"",""img/0883/eff15ce5-9393-443c-829f-71242d1c56d0.jpg""]","",""
"","2818","similarity","104","578467","0.0-6.0-98.0","4","[""img/0757/cd7fd185-981f-477a-ba00-a0f65bcfd0e9.jpg"",""img/0884/5085d424-b3f5-461b-a1c7-f7ca55abcf4f.jpg""]","",""
"","2757","similarity","105","582265","0.0-6.0-99.0","1","[""img/0867/12264664-1860-46df-8c21-162b9817cdda.jpg"",""img/0756/b8d6aa83-8673-4e0d-be72-b3da2bae7a6d.jpg""]","",""
"","2040","similarity","106","585337","0.0-6.0-100.0","4","[""img/0958/5a91b0e8-8f60-4625-b88c-d6e55b4d7d93.jpg"",""img/0756/a8246880-fb51-43bb-b25d-905e6e0d7880.jpg""]","",""
"","3684","similarity","107","590063","0.0-6.0-101.0","6","[""img/0760/7cdb34e4-0556-4bf7-9a6f-05990a92e0f3.jpg"",""img/0760/317fc071-99e6-43cb-9099-2e50aa79ccc2.jpg""]","",""
"","3562","similarity","108","594646","0.0-6.0-102.0","5","[""img/0873/b76d7003-814d-42b0-9a16-1399c4b0e706.jpg"",""img/0875/5a7c4e35-6514-4e12-8879-d16071da4cd6.jpg""]","",""
"","4292","similarity","109","599984","0.0-6.0-103.0","5","[""img/0884/13db1f36-8c9f-4b28-8426-04eaa9fba737.jpg"",""img/0884/592da15b-09e4-46b5-81e7-bab08a1c33e9.jpg""]","",""
"","2641","similarity","110","603670","0.0-6.0-104.0","4","[""img/0873/33552b07-bdb8-423e-88b4-25a37f159c6d.jpg"",""img/0885/05af267f-b982-498d-9807-ccd54689f9b4.jpg""]","",""
"","2837","similarity","111","607561","0.0-6.0-105.0","1","[""img/0883/e7e4af6a-bc7a-4a9b-921c-32652db13239.jpg"",""img/0875/d59ff733-eaff-4ee2-9443-06954dd0bcb6.jpg""]","",""
"","2468","similarity","112","611068","0.0-6.0-106.0","4","[""img/0864/1ebbc554-99fa-49f9-8799-317375a79820.jpg"",""img/0867/98d8cd96-1476-4fe0-a3a3-04f875500a1b.jpg""]","",""
"","3455","similarity","113","615564","0.0-6.0-107.0","1","[""img/0958/1812c506-727b-43a7-882e-4729742e41fc.jpg"",""img/0860/94ef7afc-e0e6-4a15-98c6-0bfac82bc832.jpg""]","",""
"","3399","similarity","114","619983","0.0-6.0-108.0","3","[""img/0885/1cd940ef-9720-4a04-8fa1-1dd3a39ecdd6.jpg"",""img/0756/8ab56efe-fef0-45cc-ab57-82597f83b26a.jpg""]","",""
"","4084","similarity","115","625109","0.0-6.0-109.0","1","[""img/0883/02f50df0-eb8c-4e17-836a-c89ddb1c04e1.jpg"",""img/0885/d2276b26-e91a-4f19-a818-cbeb297ed884.jpg""]","",""
"","3899","similarity","116","630064","0.0-6.0-110.0","7","[""img/0867/179ab87a-8eac-4c52-a41f-2e48e3120f09.jpg"",""img/0867/f26f6b60-f772-4f4c-95a4-addc62cfd692.jpg""]","",""
"","3660","similarity","117","634745","0.0-6.0-111.0","5","[""img/0881/c843e210-bdfe-4a7c-8bbe-fcea1f90fe1c.jpg"",""img/0760/812c848f-be21-4059-abe5-8c4f4ac9ad0f.jpg""]","",""
"","4470","similarity","118","640264","0.0-6.0-112.0","2","[""img/0881/54ea8e77-c7e5-4197-b7fa-00b7020849a7.jpg"",""img/0868/09a9ef4d-d000-4cfa-a6aa-ebec7c2edeb4.jpg""]","",""
"","2825","similarity","119","644127","0.0-6.0-113.0","1","[""img/0875/527ced51-8e53-4aab-ab05-86df219104c0.jpg"",""img/0761/6b42b402-9e0f-4179-9e10-660b2c07626b.jpg""]","",""
"","3653","similarity","120","648814","0.0-6.0-114.0","1","[""img/0756/8f917ff3-2930-4f81-812b-19555fe71261.jpg"",""img/0866/6f2a90d7-14f1-4f1b-bd64-fc0af6b9fe44.jpg""]","",""
"","3880","similarity","121","653729","0.0-6.0-115.0","1","[""img/0884/3c61ea12-a408-47ce-98aa-b14e0f6d4591.jpg"",""img/0886/451550d7-6ff9-42b5-938c-9e20ee960bf6.jpg""]","",""
"","6782","similarity","122","661557","0.0-6.0-116.0","1","[""img/0756/b7105b92-3ad0-444a-aaab-6989bc24b091.jpg"",""img/0881/f8bd891e-aa09-4782-89db-33e7cb2b0cf1.jpg""]","",""
"","4692","similarity","123","667308","0.0-6.0-117.0","2","[""img/0760/a24659cd-f862-42cc-b43a-7ba8eae0c2c0.jpg"",""img/0875/2c361b79-c3d1-4eda-812e-bf03192407bf.jpg""]","",""
"","3364","similarity","124","671713","0.0-6.0-118.0","2","[""img/0958/9be61b1d-099b-432a-ae0e-2aa69e157c0e.jpg"",""img/0866/93a27239-8317-4e08-98ca-d8b1ff298e07.jpg""]","",""
"","2652","similarity","125","675411","0.0-6.0-119.0","4","[""img/0867/5e07b34d-b40f-4b1c-ac10-49975bace45f.jpg"",""img/0874/ca76a855-4e77-4f2f-872a-0a718153e7ed.jpg""]","",""
"","3276","similarity","126","679736","0.0-6.0-120.0","3","[""img/0883/6884954b-873e-4d6f-9b4b-95d158e0de6c.jpg"",""img/0757/0668efad-1c92-425c-9aa9-2bbe833fd777.jpg""]","",""
"","4665","similarity","127","685453","0.0-6.0-121.0","5","[""img/0874/995f0332-0439-4eb4-add3-957335dbf6d9.jpg"",""img/0886/abd8dd83-d8ee-4003-b4d2-b4045220a578.jpg""]","",""
"","3748","similarity","128","690238","0.0-6.0-122.0","1","[""img/0873/c4b47588-9c66-4401-aefc-cf9481d5fa85.jpg"",""img/0761/bd083642-a9bc-4877-bfc6-63bd03d33e81.jpg""]","",""
"","3888","similarity","129","695180","0.0-6.0-123.0","6","[""img/0875/5a716432-c6ca-4b1c-955a-2b8ac25198ee.jpg"",""img/0884/a8f7b854-0010-4c7a-a8fb-b1b1dc1f1ba1.jpg""]","",""
"","3045","similarity","130","699266","0.0-6.0-124.0","1","[""img/0757/6ecf2f24-3286-49d6-b5ed-bb2da660c588.jpg"",""img/0868/c8ac40c7-6904-4e13-8d61-c75d3052dc4e.jpg""]","",""
"","3303","similarity","131","706059","0.0-6.0-125.0","1","[""img/0886/4d28f75a-a9c3-49dd-8aa8-00304af6e40b.jpg"",""img/0883/00d89148-b7d4-49d2-831a-2eee070a85a4.jpg""]","",""
"","3290","similarity","132","710390","0.0-6.0-126.0","1","[""img/0868/5fa7f9d0-f0e5-454c-8224-74d964818f56.jpg"",""img/0760/fc99ba9e-e7fa-443b-9ba0-2b3c76930893.jpg""]","",""
"","3608","similarity","133","715053","0.0-6.0-127.0","6","[""img/0881/f037e3b0-09cb-4a83-b2d9-6a71fe474e63.jpg"",""img/0881/405484ae-0d00-4b05-bc57-6420a36adfac.jpg""]","",""
"","3723","similarity","134","719830","0.0-6.0-128.0","4","[""img/0760/1c96ffb7-17db-4253-b66c-59250977c88b.jpg"",""img/0860/71e1aad0-2cdf-43bb-94a4-a8c016997c30.jpg""]","",""
"","3058","similarity","135","723925","0.0-6.0-129.0","1","[""img/0864/9b2490c5-a282-400a-9736-e1a0ecbf1cb7.jpg"",""img/0885/8960bf05-34df-4a86-a9b2-6087c70e61d3.jpg""]","",""
"","3485","similarity","136","728467","0.0-6.0-130.0","1","[""img/0864/e336a4c5-6648-4fd7-b2f6-93a3fb83f8c6.jpg"",""img/0757/424b465f-ba69-4277-bc61-d3e95d136f80.jpg""]","",""
"","3086","similarity","137","732589","0.0-6.0-131.0","4","[""img/0760/237fa1c2-d59d-4475-8d1e-f9a4eb71f989.jpg"",""img/0883/512a797a-315b-439e-9a9d-855929351fd0.jpg""]","",""
"","3573","similarity","138","737221","0.0-6.0-132.0","7","[""img/0885/6873c613-5e40-42ff-a5b6-443b6b626ae2.jpg"",""img/0885/0cdcdaca-f91e-4d4a-a6f6-dc90ab676435.jpg""]","",""
"","5494","similarity","139","743735","0.0-6.0-133.0","6","[""img/0860/61fb959d-d4d9-4de4-9e4e-4fa62b4cfcd5.jpg"",""img/0868/e0aff734-077f-40dd-9781-74821abd3621.jpg""]","",""
"","3184","similarity","140","747957","0.0-6.0-134.0","1","[""img/0867/2e1a0b58-cdb1-4107-a14e-452530d7b9b0.jpg"",""img/0886/9f186bd5-d48b-4cc2-9206-be67c392faa9.jpg""]","",""
"","3595","similarity","141","752605","0.0-6.0-135.0","5","[""img/0756/4cf0ac20-ce60-40ba-8078-4053ef50451c.jpg"",""img/0886/42cccc64-05f9-4afd-bc93-496ba50a4342.jpg""]","",""
"","3723","similarity","142","757393","0.0-6.0-136.0","5","[""img/0884/a416b0d1-f903-4935-b89f-99c29683752b.jpg"",""img/0868/4e626425-63c8-484a-8a1d-e66ee4e0bef8.jpg""]","",""
"","5032","similarity","143","763476","0.0-6.0-137.0","7","[""img/0958/58b7811e-d3f6-4e4d-befb-86e063d13a43.jpg"",""img/0958/fd950403-e452-4018-8207-a9714addcd75.jpg""]","",""
"","4079","similarity","144","768604","0.0-6.0-138.0","7","[""img/0886/0f9715c1-b2e4-418e-bf9b-126cc9e70dc6.jpg"",""img/0873/b1e2e09f-ad9a-433e-818f-56dd2f1cb09c.jpg""]","",""
"","3798","similarity","145","773429","0.0-6.0-139.0","7","[""img/0758/6e95579b-5166-487c-b8cb-e417c6a218e3.jpg"",""img/0873/ac86dbfd-0442-4dec-9d10-37d7093f5a52.jpg""]","",""
"","2939","similarity","146","777412","0.0-6.0-140.0","5","[""img/0873/1d1be182-3bb2-4efd-8543-d70b8db7beef.jpg"",""img/0756/aa551726-e765-4729-82aa-99d700d388ae.jpg""]","",""
"","3026","similarity","147","781494","0.0-6.0-141.0","1","[""img/0868/83b4350a-3b70-4cea-b7f5-b5b56f3050a8.jpg"",""img/0862/de9ad88c-b522-430a-8ee9-eb06a9f85df5.jpg""]","",""
"","3394","similarity","148","785941","0.0-6.0-142.0","4","[""img/0881/4bd34581-94d8-4e88-8c89-5cef864ca3be.jpg"",""img/0862/99a99e39-8355-44ec-b993-e7bcec111e1c.jpg""]","",""
"","3128","similarity","149","790109","0.0-6.0-143.0","3","[""img/0885/a4e5c564-1e5f-4fed-9f73-b8d1becf62b6.jpg"",""img/0867/cc72ed48-7704-422c-86d6-467a1145287a.jpg""]","",""
"","3343","similarity","150","794485","0.0-6.0-144.0","7","[""img/0883/fc8cf4c9-003e-48c4-b222-8878ea2ae1c0.jpg"",""img/0883/3835edeb-1d59-4781-b10f-c26b9eaf6fd1.jpg""]","",""
"","4150","similarity","151","799684","0.0-6.0-145.0","5","[""img/0874/85eb9b8a-c4c6-4e5a-b8e7-363a87a82054.jpg"",""img/0873/7dddc95f-ca6e-4d15-99a0-0e329ec6888e.jpg""]","",""
"","2332","similarity","152","803052","0.0-6.0-146.0","4","[""img/0757/a7964b0f-aee3-4b4c-9cd1-c1c998c49fef.jpg"",""img/0758/61d64021-9214-4951-bdf8-f871f9827cf9.jpg""]","",""
"","2969","similarity","153","807063","0.0-6.0-147.0","3","[""img/0883/c6db9b70-f16c-47ee-a408-c9278365ae54.jpg"",""img/0756/1cc17c90-3114-4ede-89cd-f34db9fa638a.jpg""]","",""
"","2791","similarity","154","810902","0.0-6.0-148.0","4","[""img/0867/6e19c858-b606-45b2-a4c6-910a73f1d82c.jpg"",""img/0866/11a1d141-be5e-443c-98c1-a9d4d9e3dec0.jpg""]","",""
"","3201","similarity","155","815140","0.0-6.0-149.0","7","[""img/0758/ddc336e9-a8b6-4bb9-937a-c7e25e0e9250.jpg"",""img/0760/5f9bd780-65e3-43ab-a3a3-73a1cc87d5a2.jpg""]","",""
"","2744","similarity","156","818934","0.0-6.0-150.0","1","[""img/0757/1aca59fd-6030-4bb0-93c7-32a90f3237cf.jpg"",""img/0761/89d3b943-cd14-4786-a7b8-0e9a695cf0e3.jpg""]","",""
"","5472","similarity","157","825443","0.0-6.0-151.0","5","[""img/0761/176fde97-0334-4d2b-8a7a-38960c2528f3.jpg"",""img/0874/ca23d307-fc00-4d7d-9106-584c6eb21b4d.jpg""]","",""
"","3812","similarity","158","830303","0.0-6.0-152.0","5","[""img/0761/6f9c1c71-e38d-4e3f-9062-39557812432a.jpg"",""img/0760/a97cc3a7-3e6e-423e-ac87-e1d1ab280ae9.jpg""]","",""
"","3497","similarity","159","834845","0.0-6.0-153.0","2","[""img/0866/d493a2c8-66eb-44b4-be02-2f327b700b7c.jpg"",""img/0866/d266fece-59b3-46fa-b69f-96f6efb81b59.jpg""]","",""
"","5756","similarity","160","841659","0.0-6.0-154.0","1","[""img/0866/9b38d691-1802-4959-ab3f-fc902f0e4ea6.jpg"",""img/0862/e697469a-ec19-4414-b972-7b9f3564785b.jpg""]","",""
"","4576","similarity","161","847317","0.0-6.0-155.0","1","[""img/0756/7a68b61c-212a-4f14-8b6f-4d74b6cd206e.jpg"",""img/0862/a0a3a7ba-7798-46a3-b4ca-05e1f6e581d0.jpg""]","",""
"","2734","similarity","162","851099","0.0-6.0-156.0","1","[""img/0860/c47fdead-eb02-4989-b078-26f4852f44fe.jpg"",""img/0866/945c6710-d15b-4a5b-a8f6-69af0850357f.jpg""]","",""
"","3137","similarity","163","855285","0.0-6.0-157.0","1","[""img/0862/064818ee-13d5-4618-bb24-21c7368ea278.jpg"",""img/0958/96f89270-febc-4f09-b8c3-53a249ff00ea.jpg""]","",""
"","3759","similarity","164","860080","0.0-6.0-158.0","1","[""img/0761/00a8e7ae-d8da-4cba-8969-1dfb943a2aa2.jpg"",""img/0868/179a5502-ab5c-478e-8263-5a1fbcc101d2.jpg""]","",""
"","3463","similarity","165","864578","0.0-6.0-159.0","1","[""img/0761/8e379ec1-757d-4427-a0ff-d4efdd6a50c4.jpg"",""img/0886/789f5d23-84b8-499a-ae1e-20c6309a06ae.jpg""]","",""
"","2470","similarity","166","868109","0.0-6.0-160.0","1","[""img/0874/93d1f8dc-acf2-4f03-bd8d-8ec35df276ed.jpg"",""img/0868/d98ca254-b195-477f-b57e-5760a2717db8.jpg""]","",""
"","4227","similarity","167","873364","0.0-6.0-161.0","4","[""img/0860/99c589b9-9140-4d17-90c0-b344323edcda.jpg"",""img/0874/7e4f2150-3b59-4a36-b5da-a4e0ba410531.jpg""]","",""
"","3189","similarity","168","877604","0.0-6.0-162.0","1","[""img/0883/599aacc5-bb0f-4dea-852c-9a27727eb0b9.jpg"",""img/0867/c66898ba-b71b-4d50-84f9-f7f84853a98d.jpg""]","",""
"","4416","similarity","169","883063","0.0-6.0-163.0","7","[""img/0758/9fb5b2fe-3f00-4fe6-973c-1ce10d5f4cd5.jpg"",""img/0958/edfd5bc1-8c8f-489a-84c3-908436ef76cc.jpg""]","",""
"","1985","similarity","170","886088","0.0-6.0-164.0","4","[""img/0873/a234d5d1-09ea-4594-9a0f-d569da31dbdb.jpg"",""img/0757/89ce15d5-a3da-4a62-ac9f-c28a9273bf33.jpg""]","",""
"","3820","similarity","171","890952","0.0-6.0-165.0","7","[""img/0873/d39b1731-1669-4c96-b5c6-682b30e287ee.jpg"",""img/0866/be24ab58-230e-4db8-9f45-ff04c9aec6bb.jpg""]","",""
"","6319","similarity","172","898309","0.0-6.0-166.0","6","[""img/0875/8521fd58-3b1e-4dc5-97ae-804edfa6734a.jpg"",""img/0867/f8159067-056c-41f1-a136-c529fe5e970a.jpg""]","",""
"","5805","similarity","173","912044","0.0-6.0-167.0","6","[""img/0862/47ed5efd-4ec9-4b74-bb4e-a5f5cf0c3e7d.jpg"",""img/0862/f43ceabf-acc1-4107-b857-5d1849808f93.jpg""]","",""
"","4019","similarity","174","917107","0.0-6.0-168.0","4","[""img/0875/03c3c331-738b-4446-af92-3d7386b08c2e.jpg"",""img/0886/9ac18ff1-d3d9-4bfe-aa2e-ed5b28399f6c.jpg""]","",""
"","4381","similarity","175","922531","0.0-6.0-169.0","6","[""img/0885/517a9189-9623-4ed7-a37e-48788791e028.jpg"",""img/0875/cff79b3a-a797-4393-9757-6275f999ec04.jpg""]","",""
"","5903","similarity","176","929476","0.0-6.0-170.0","1","[""img/0862/00c06b00-3b73-44e9-bc1e-c5aafb438321.jpg"",""img/0867/aa05d113-fc19-4756-a8eb-7878f580bc92.jpg""]","",""
"","2819","similarity","177","933340","0.0-6.0-171.0","4","[""img/0884/e275ab3e-0948-43c3-8be7-a75271922185.jpg"",""img/0873/b509aa81-b1d7-4d50-8aef-9c7b725c3157.jpg""]","",""
"","2852","similarity","178","937236","0.0-6.0-172.0","1","[""img/0873/c3ff3b70-fb22-42f2-883c-3ecffd77cb4b.jpg"",""img/0958/644719ec-1690-4af2-a63f-0b6467c3791e.jpg""]","",""
"","4172","similarity","179","942460","0.0-6.0-173.0","3","[""img/0868/d6d1f30d-4323-435a-b194-7892521bc57e.jpg"",""img/0758/7fba58df-2a7a-4b76-8a8f-62739f97f271.jpg""]","",""
"","5072","similarity","180","948571","0.0-6.0-174.0","1","[""img/0757/94c7f207-1115-4451-b22b-1f74b3661208.jpg"",""img/0874/a82926a3-0b43-4add-803c-d5f9ea7798ee.jpg""]","",""
"","3635","similarity","181","953253","0.0-6.0-175.0","5","[""img/0958/4e2ca4bc-52c7-4c27-9610-776441231e42.jpg"",""img/0867/075e0f95-856b-4cbb-acf5-092393aaf04e.jpg""]","",""
"","4681","similarity","182","958981","0.0-6.0-176.0","1","[""img/0874/c0378dac-9370-439a-8b79-db27c96fb390.jpg"",""img/0760/d87ebbb0-e718-4ab1-8882-e48253d6fd00.jpg""]","",""
"","4385","similarity","183","964399","0.0-6.0-177.0","1","[""img/0873/b02f9cce-7f58-4f1b-baed-50fee9f0a21f.jpg"",""img/0860/4a022222-056d-461c-ab02-39fac9647552.jpg""]","",""
"","3777","similarity","184","969229","0.0-6.0-178.0","5","[""img/0881/566f45f8-5fed-4479-a60f-26377e60a62d.jpg"",""img/0883/142a783e-a468-4b7f-a750-1e107613d5a9.jpg""]","",""
"","5041","similarity","185","975319","0.0-6.0-179.0","1","[""img/0886/1e8c0f89-c766-41c9-b522-83c342048f34.jpg"",""img/0958/bb684a39-afef-4125-9f70-b5ad830ba316.jpg""]","",""
"","3498","similarity","186","979865","0.0-6.0-180.0","4","[""img/0864/3651d070-2fc5-4848-b6a6-088a2d9ac5c9.jpg"",""img/0883/77f31752-1984-44f7-a77d-e22c2ad54256.jpg""]","",""
"","3691","similarity","187","984614","0.0-6.0-181.0","5","[""img/0756/96c1bf35-26b6-4428-b19d-bdb5efe1367a.jpg"",""img/0868/0d3abd3a-b6c3-4584-a9f7-e2da63748b3d.jpg""]","",""
"","4167","similarity","188","989836","0.0-6.0-182.0","4","[""img/0884/fb8b0101-bfd2-462b-a942-d3202a69dd18.jpg"",""img/0758/e38fd80d-18d0-42f3-b848-f930788e8bd7.jpg""]","",""
"","2445","similarity","189","993320","0.0-6.0-183.0","4","[""img/0875/dbdd643e-6d0e-4a5c-ab57-b9c29b9c981a.jpg"",""img/0874/3f471690-9788-4d03-90c7-f615aecef149.jpg""]","",""
"","4263","similarity","190","998620","0.0-6.0-184.0","7","[""img/0867/bf560d4f-dee3-4f11-a385-705cc1aa5f3c.jpg"",""img/0868/1a62b2b2-18f5-466e-b564-5176a57c565e.jpg""]","",""
"","6145","similarity","191","1005815","0.0-6.0-185.0","5","[""img/0881/48ed65a5-471f-41af-86ec-3793805c116d.jpg"",""img/0885/24afeefb-f7b3-4e8f-a5b9-17cc00fd22e3.jpg""]","",""
"","5034","similarity","192","1011908","0.0-6.0-186.0","6","[""img/0864/c3b63e8f-ea39-4d70-a1f2-b3fe4be8eb75.jpg"",""img/0761/aebad236-1f4a-4bc2-a74d-d92b7e226316.jpg""]","",""
"","2558","similarity","193","1015508","0.0-6.0-187.0","5","[""img/0885/5225e532-2812-41d9-8ef0-0fbfc612784e.jpg"",""img/0874/31e22c7c-99aa-40b1-bf03-dd73fa2df4d6.jpg""]","",""
"","3448","similarity","194","1020005","0.0-6.0-188.0","5","[""img/0758/e1ba5e53-addc-436a-b428-d34fc1b130dc.jpg"",""img/0867/db7e032f-162b-46f5-ae67-2b29679adee4.jpg""]","",""
"","3421","similarity","195","1024483","0.0-6.0-189.0","3","[""img/0756/314a157e-e6d3-4447-a98f-8fde8f810f0c.jpg"",""img/0884/ee845634-cd54-4c06-95a9-962122ef8712.jpg""]","",""
"","4358","similarity","196","1029878","0.0-6.0-190.0","2","[""img/0761/014e76d0-fb4e-4b40-901c-7a2d5655c3b0.jpg"",""img/0862/1c20f772-3a51-4a80-aac0-f57dc9f86c28.jpg""]","",""
"","2680","similarity","197","1033587","0.0-6.0-191.0","4","[""img/0860/31ff6436-98bf-4652-bed2-40f627229568.jpg"",""img/0886/b8648eb5-de71-41ab-825d-848e51be8c1b.jpg""]","",""
"","1615","similarity","198","1036241","0.0-6.0-192.0","4","[""img/0760/fe62dd62-331c-4317-8af2-f1c816871fee.jpg"",""img/0885/ef0386f3-e5d4-481b-8894-60b80e08bbe8.jpg""]","",""
"","3140","similarity","199","1040405","0.0-6.0-193.0","1","[""img/0886/97243e18-4dba-4af8-b49f-b3b635c90ac4.jpg"",""img/0868/77091fc7-a590-4ebb-b915-fdb2483a2399.jpg""]","",""
"","2629","similarity","200","1044086","0.0-6.0-194.0","4","[""img/0881/1407b85b-a1c6-45b1-9884-3b24203efadb.jpg"",""img/0864/0f537697-a314-47c3-a8cc-8df23b7e536c.jpg""]","",""
"","3433","similarity","201","1048558","0.0-6.0-195.0","2","[""img/0866/23a224f3-2012-4fc8-8e0f-3c36f8de27fd.jpg"",""img/0868/3a62db2d-97e9-44a3-b8e3-a48c6f0e423b.jpg""]","",""
"","2971","similarity","202","1052565","0.0-6.0-196.0","1","[""img/0864/5f33e097-23e3-4002-882d-76e8cb15f451.jpg"",""img/0958/ebea41e3-9d65-4f5e-981a-92daaaad0d57.jpg""]","",""
"","3106","similarity","203","1056733","0.0-6.0-197.0","1","[""img/0757/acda7aee-6b29-463f-bf01-0d64d6a6ae2b.jpg"",""img/0886/7164ac42-460f-4beb-9d5e-a1cfded3099c.jpg""]","",""
"","2659","similarity","204","1060443","0.0-6.0-198.0","4","[""img/0758/a709631e-3705-4725-ac40-f0d916924f08.jpg"",""img/0883/e3603ed7-8fca-475a-aeb1-d1f7651c4618.jpg""]","",""
"","3249","similarity","205","1064744","0.0-6.0-199.0","5","[""img/0881/e046471a-35b4-4159-bbf7-3cfd201bef66.jpg"",""img/0958/54f27d86-00c0-46b2-b2c9-050c9cc60fe0.jpg""]","",""
"","2985","similarity","206","1068775","0.0-6.0-200.0","1","[""img/0958/eea2b7ca-1c37-4e76-ada7-a8b1f3afdc01.jpg"",""img/0874/adf9a8f1-c40b-402b-b95b-1e85a54a7b62.jpg""]","",""
"","3356","similarity","207","1073155","0.0-6.0-201.0","2","[""img/0885/fbbfaacd-e49b-4d37-a2f9-fcaffa58f26f.jpg"",""img/0860/c5ccd1a4-4bb7-48e1-9b25-72cfaf06909b.jpg""]","",""
"","3410","similarity","208","1077614","0.0-6.0-202.0","3","[""img/0875/f87b67d7-c33e-40d1-b281-248c4be1cb6e.jpg"",""img/0881/62a64f90-7a72-4aee-a1a1-0c548ac9bdda.jpg""]","",""
"","1798","similarity","209","1080458","0.0-6.0-203.0","4","[""img/0758/20497cbe-ddae-489e-86e2-ab06985ed07c.jpg"",""img/0860/18dfed73-e36b-4487-a8bd-0b8cff8e3668.jpg""]","",""
"","4301","similarity","210","1085796","0.0-6.0-204.0","7","[""img/0860/29a21a9f-54bb-4093-ad3f-04823ceaa89f.jpg"",""img/0860/b03b963d-949b-4d8d-b19c-4950c89eeca2.jpg""]","",""
"","3123","similarity","211","1089981","0.0-6.0-205.0","5","[""img/0874/2c9464dd-8a23-4baa-ac94-1ba3af5c15cc.jpg"",""img/0874/bf14b896-e930-4fd9-9c05-2e83317a2773.jpg""]","",""
"","3322","similarity","212","1094364","0.0-6.0-206.0","5","[""img/0883/daaa1a6f-c322-46f6-b6a6-db2c9496d710.jpg"",""img/0761/9199a691-d36e-4ece-a815-078384ea6f06.jpg""]","",""
"","5947","similarity","213","1101363","0.0-6.0-207.0","1","[""img/0761/b8f211c0-f640-43a2-b101-101774517d95.jpg"",""img/0881/633c6f40-56d9-4b48-bf1c-ecd83116eabb.jpg""]","",""
"","2823","similarity","214","1105237","0.0-6.0-208.0","4","[""img/0760/0864f159-c076-4573-83e1-ea134f239717.jpg"",""img/0756/b7869208-7169-455d-835f-31926317dd95.jpg""]","",""
"","6481","similarity","215","1116435","0.0-6.0-209.0","2","[""img/0885/a8cbb477-19ef-45ef-8f48-9667aec40bd1.jpg"",""img/0757/fd3c82c8-3311-4fae-bcec-10559587910a.jpg""]","",""
"[{""page_index"":0,""viewing_time"":5883}]","5884","instructions","216","1123330","0.0-7.0","","","",""
"","10360","image-multi-choice","217","1134793","0.0-8.0-0.0","","","{""Q0"":""Wilson's Warbler""}","Orange-crowned Warbler"
"","11887","image-multi-choice","218","1147786","0.0-8.0-1.0","","","{""Q0"":""Yellow Warbler""}","Wilson's Warbler"
"","4487","image-multi-choice","219","1153391","0.0-8.0-2.0","","","{""Q0"":""Townsend's Warbler""}","Blackpoll Warbler"
"","25555","image-multi-choice","220","1180042","0.0-8.0-3.0","","","{""Q0"":""Black-throated Green Warbler""}","Black-and-white Warbler"
"","8606","image-multi-choice","221","1189759","0.0-8.0-4.0","","","{""Q0"":""Yellow-breasted Chat""}","Yellow-breasted Chat"
"","17738","image-multi-choice","222","1208600","0.0-8.0-5.0","","","{""Q0"":""Chestnut-sided Warbler""}","Canada Warbler"
"","5714","image-multi-choice","223","1215425","0.0-8.0-6.0","","","{""Q0"":""Common Yellowthroat""}","Common Yellowthroat"
"","6869","image-multi-choice","224","1223416","0.0-8.0-7.0","","","{""Q0"":""Blackpoll Warbler""}","American Redstart"
"","6757","image-multi-choice","225","1231272","0.0-8.0-8.0","","","{""Q0"":""Tennessee Warbler""}","Chestnut-sided Warbler"
"","6820","image-multi-choice","226","1239196","0.0-8.0-9.0","","","{""Q0"":""Black-throated Green Warbler""}","Black-throated Green Warbler"
"","9942","image-multi-choice","227","1250245","0.0-8.0-10.0","","","{""Q0"":""Yellow-rumped Warbler""}","Blackburnian Warbler"
"","19157","image-multi-choice","228","1270483","0.0-8.0-11.0","","","{""Q0"":""Black-and-white Warbler""}","Yellow-rumped Warbler"
"","8986","image-multi-choice","229","1280580","0.0-8.0-12.0","","","{""Q0"":""Northern Waterthrush""}","Ovenbird"
"","6066","image-multi-choice","230","1287735","0.0-8.0-13.0","","","{""Q0"":""Black-and-white Warbler""}","Townsend's Warbler"
"","14753","image-multi-choice","231","1303593","0.0-8.0-14.0","","","{""Q0"":""Northern Waterthrush""}","Northern Waterthrush"
"","5574","image-multi-choice","232","1310288","0.0-8.0-15.0","","","{""Q0"":""Yellow Warbler""}","Yellow Warbler"
"","18069","image-multi-choice","233","1329453","0.0-8.0-16.0","","","{""Q0"":""Ovenbird""}","Nashville Warbler"
"","16268","image-multi-choice","234","1346828","0.0-8.0-17.0","","","{""Q0"":""Tennessee Warbler""}","Northern Parula"
"","18401","image-multi-choice","235","1366336","0.0-8.0-18.0","","","{""Q0"":""Chestnut-sided Warbler""}","Tennessee Warbler"
"","8002","image-multi-choice","236","1375433","0.0-8.0-19.0","","","{""Q0"":""Yellow-rumped Warbler""}","Magnolia Warbler"
