"view_history","rt","trial_type","trial_index","time_elapsed","internal_node_id","sim_score","stimulus","responses","answer"
"[{""page_index"":0,""viewing_time"":8491}]","8491","instructions","0","8503","0.0-0.0","","","",""
"","5172","similarity_demo","1","14705","0.0-1.0","7","[""img/bluejay1.jpg"",""img/bluejay2.jpg""]","",""
"[{""page_index"":0,""viewing_time"":2890}]","2890","instructions","2","18603","0.0-2.0","","","",""
"","6405","similarity_demo","3","26029","0.0-3.0","3","[""img/bluejay1.jpg"",""img/cardinal1.jpg""]","",""
"[{""page_index"":0,""viewing_time"":3290}]","3290","instructions","4","30330","0.0-4.0","","","",""
"[{""page_index"":0,""viewing_time"":4161}]","4161","instructions","5","35501","0.0-5.0","","","",""
"","7059","similarity","6","43570","0.0-6.0-0.0","3","[""img/0864/c3b63e8f-ea39-4d70-a1f2-b3fe4be8eb75.jpg"",""img/0860/e14d67c1-6d92-4f1e-9257-c8607159c19c.jpg""]","",""
"","7480","similarity","7","52060","0.0-6.0-1.0","2","[""img/0884/989ec8e3-5e41-4055-b0b5-3d65b9c44917.jpg"",""img/0760/dfa71fdd-ddff-4827-a999-d5e599dd5679.jpg""]","",""
"","6714","similarity","8","59785","0.0-6.0-2.0","2","[""img/0886/9f186bd5-d48b-4cc2-9206-be67c392faa9.jpg"",""img/0881/33d65d80-8a8e-4ecf-852d-0ad7725c17a2.jpg""]","",""
"","6615","similarity","9","67420","0.0-6.0-3.0","3","[""img/0866/be24ab58-230e-4db8-9f45-ff04c9aec6bb.jpg"",""img/0881/633c6f40-56d9-4b48-bf1c-ecd83116eabb.jpg""]","",""
"","6550","similarity","10","74970","0.0-6.0-4.0","6","[""img/0868/0d3abd3a-b6c3-4584-a9f7-e2da63748b3d.jpg"",""img/0885/05af267f-b982-498d-9807-ccd54689f9b4.jpg""]","",""
"","6608","similarity","11","82606","0.0-6.0-5.0","5","[""img/0757/92ed1ceb-29ef-4044-9601-78d7806e2396.jpg"",""img/0866/11a1d141-be5e-443c-98c1-a9d4d9e3dec0.jpg""]","",""
"","9654","similarity","12","93281","0.0-6.0-6.0","4","[""img/0868/5fa7f9d0-f0e5-454c-8224-74d964818f56.jpg"",""img/0864/e336a4c5-6648-4fd7-b2f6-93a3fb83f8c6.jpg""]","",""
"","6957","similarity","13","101248","0.0-6.0-7.0","7","[""img/0864/c22faebd-9c53-47bc-ada3-b9a30c688e75.jpg"",""img/0864/ef9cbca0-4be8-435d-ad49-977259e80409.jpg""]","",""
"","6968","similarity","14","109229","0.0-6.0-8.0","6","[""img/0757/cb7ca802-27ac-4a1d-996f-bd21b96d6244.jpg"",""img/0881/b1a136f7-8511-4d3a-a0f6-3879acf1e1a1.jpg""]","",""
"","6340","similarity","15","116571","0.0-6.0-9.0","3","[""img/0886/1870a791-dfee-471e-8417-197d4a53c75a.jpg"",""img/0760/cbd28974-989a-49dd-b631-42de146d7e6f.jpg""]","",""
"","5816","similarity","16","123397","0.0-6.0-10.0","5","[""img/0884/5085d424-b3f5-461b-a1c7-f7ca55abcf4f.jpg"",""img/0883/387a9e30-7d95-483e-af34-c8262f62385f.jpg""]","",""
"","5789","similarity","17","130197","0.0-6.0-11.0","6","[""img/0874/99f6563c-8a8d-4c1c-a41d-667b618c3fd5.jpg"",""img/0862/4f0a3b4c-afbf-486e-b248-1d54982f54b4.jpg""]","",""
"","7515","similarity","18","138722","0.0-6.0-12.0","2","[""img/0862/24cdc752-c2e5-4a17-86a6-6f2045d8553b.jpg"",""img/0875/5a7c4e35-6514-4e12-8879-d16071da4cd6.jpg""]","",""
"","6705","similarity","19","146447","0.0-6.0-13.0","3","[""img/0875/42910c99-5463-450a-a0f8-d4d060a11455.jpg"",""img/0757/6ecf2f24-3286-49d6-b5ed-bb2da660c588.jpg""]","",""
"","8466","similarity","20","155923","0.0-6.0-14.0","3","[""img/0875/d59ff733-eaff-4ee2-9443-06954dd0bcb6.jpg"",""img/0860/87039971-2210-4aab-93c0-8e9b5f1655b2.jpg""]","",""
"","6756","similarity","21","163689","0.0-6.0-15.0","2","[""img/0860/15b24a61-25be-4356-9eac-5ce95d0cb4a4.jpg"",""img/0881/f8bd891e-aa09-4782-89db-33e7cb2b0cf1.jpg""]","",""
"","6300","similarity","22","170999","0.0-6.0-16.0","3","[""img/0885/ef0386f3-e5d4-481b-8894-60b80e08bbe8.jpg"",""img/0884/3613aeb4-0028-4205-aea0-1ea28cb1f80e.jpg""]","",""
"","7033","similarity","23","179039","0.0-6.0-17.0","3","[""img/0761/edc0b069-71dc-4b11-b7f0-8429ea8ac5c9.jpg"",""img/0761/a74c99e4-d9ed-42cd-9e83-8d525cb6a9a2.jpg""]","",""
"","6399","similarity","24","186448","0.0-6.0-18.0","3","[""img/0760/4c78b78c-193e-4a1e-8bb2-394add325fda.jpg"",""img/0864/9b2490c5-a282-400a-9736-e1a0ecbf1cb7.jpg""]","",""
"","6125","similarity","25","193583","0.0-6.0-19.0","3","[""img/0864/300bb811-8b3c-4c42-8653-6097c3725197.jpg"",""img/0875/5a716432-c6ca-4b1c-955a-2b8ac25198ee.jpg""]","",""
"","5256","similarity","26","199849","0.0-6.0-20.0","2","[""img/0874/995f0332-0439-4eb4-add3-957335dbf6d9.jpg"",""img/0884/baabff07-71d8-424e-ac29-644768380941.jpg""]","",""
"","5860","similarity","27","206714","0.0-6.0-21.0","3","[""img/0885/eb5e4557-1792-49c3-8871-16afa58f3a28.jpg"",""img/0866/a15b02be-11bb-43e3-b0e0-ecc3bd7dfc49.jpg""]","",""
"","6611","similarity","28","214339","0.0-6.0-22.0","2","[""img/0868/77091fc7-a590-4ebb-b915-fdb2483a2399.jpg"",""img/0868/09a9ef4d-d000-4cfa-a6aa-ebec7c2edeb4.jpg""]","",""
"","5497","similarity","29","220849","0.0-6.0-23.0","3","[""img/0757/a91bb71b-8c84-4999-8da7-f30e53ddc2a7.jpg"",""img/0756/85a63773-50ff-441d-b259-1e335100a9d0.jpg""]","",""
"","6130","similarity","30","227999","0.0-6.0-24.0","6","[""img/0875/2e13d160-eea1-416b-aff1-d37ab99ecc1d.jpg"",""img/0875/f87b67d7-c33e-40d1-b281-248c4be1cb6e.jpg""]","",""
"","6650","similarity","31","235649","0.0-6.0-25.0","5","[""img/0761/a69897c1-1310-4bae-9a51-8b29cd9543dd.jpg"",""img/0866/d493a2c8-66eb-44b4-be02-2f327b700b7c.jpg""]","",""
"","6253","similarity","32","242925","0.0-6.0-26.0","5","[""img/0866/f756f7d1-9ad8-4a34-9ef6-7a443d705bfe.jpg"",""img/0758/53f35650-e455-4b53-8be4-c3c8271c6466.jpg""]","",""
"","6691","similarity","33","250626","0.0-6.0-27.0","5","[""img/0758/9fb5b2fe-3f00-4fe6-973c-1ce10d5f4cd5.jpg"",""img/0875/5a1e5100-0d94-4fec-bbe9-ca9894d2cf8e.jpg""]","",""
"","6740","similarity","34","258386","0.0-6.0-28.0","5","[""img/0958/86d1a76d-f067-4e36-9ab5-13da78c97c0e.jpg"",""img/0757/91a048c0-e749-433b-9147-0c671dc5b4ca.jpg""]","",""
"","8575","similarity","35","267961","0.0-6.0-29.0","6","[""img/0873/226317e0-f0e7-42ea-907b-058cb1ad519a.jpg"",""img/0883/b5e903b5-bc7f-421c-bf3e-245779ac90c9.jpg""]","",""
"","5730","similarity","36","274711","0.0-6.0-30.0","3","[""img/0868/83b4350a-3b70-4cea-b7f5-b5b56f3050a8.jpg"",""img/0875/fb732ab5-013a-4366-9f65-27811ed157e9.jpg""]","",""
"","6081","similarity","37","281802","0.0-6.0-31.0","3","[""img/0884/a8f7b854-0010-4c7a-a8fb-b1b1dc1f1ba1.jpg"",""img/0862/e0f1a4e9-e1b6-45f7-af67-89f334e6630d.jpg""]","",""
"","4515","similarity","38","287337","0.0-6.0-32.0","2","[""img/0884/967c63af-8f6a-483f-9122-0c79d97fd22e.jpg"",""img/0864/49150900-7f25-4ce8-8d10-9b47a71d1997.jpg""]","",""
"","6042","similarity","39","294389","0.0-6.0-33.0","5","[""img/0883/d719aab0-0280-4c06-87e5-b9db7454965c.jpg"",""img/0958/822de3b9-e5fd-4b74-aeb1-7c40805b0717.jpg""]","",""
"","6505","similarity","40","301912","0.0-6.0-34.0","3","[""img/0864/f92649a2-0590-4d31-9a7a-1bfb81666a2d.jpg"",""img/0756/2d59e6c9-df29-4c76-a030-db83f23c8b9b.jpg""]","",""
"","8383","similarity","41","311312","0.0-6.0-35.0","5","[""img/0874/8cdb1c07-1c32-46d2-981c-3636560fa6e5.jpg"",""img/0758/65d426d6-3ff6-415d-8654-a43b83ecc4fe.jpg""]","",""
"","4995","similarity","42","317327","0.0-6.0-36.0","3","[""img/0886/625c7dfa-3fa1-4166-80f0-229eb416b04f.jpg"",""img/0862/00c06b00-3b73-44e9-bc1e-c5aafb438321.jpg""]","",""
"","6912","similarity","43","325243","0.0-6.0-37.0","3","[""img/0862/92fcd8a4-8193-4a6a-ae09-dd4a6338b0df.jpg"",""img/0885/21b241a1-95da-4306-9cf2-cc52a784214a.jpg""]","",""
"","4923","similarity","44","331188","0.0-6.0-38.0","3","[""img/0758/e1ba5e53-addc-436a-b428-d34fc1b130dc.jpg"",""img/0864/3d4de670-b290-4285-9c3d-12a0e3af44e9.jpg""]","",""
"","4715","similarity","45","336923","0.0-6.0-39.0","5","[""img/0873/ac86dbfd-0442-4dec-9d10-37d7093f5a52.jpg"",""img/0867/c71dc569-f49c-4397-8381-68b8d726736d.jpg""]","",""
"","6064","similarity","46","343988","0.0-6.0-40.0","3","[""img/0958/e9e2cc42-eb3b-4c91-8112-a517305c15f0.jpg"",""img/0884/fb8b0101-bfd2-462b-a942-d3202a69dd18.jpg""]","",""
"","6166","similarity","47","362545","0.0-6.0-41.0","6","[""img/0873/b1e2e09f-ad9a-433e-818f-56dd2f1cb09c.jpg"",""img/0873/c4b47588-9c66-4401-aefc-cf9481d5fa85.jpg""]","",""
"","6338","similarity","48","369894","0.0-6.0-42.0","2","[""img/0886/97243e18-4dba-4af8-b49f-b3b635c90ac4.jpg"",""img/0758/d41c06bf-ebaf-454b-91c6-1a17f917b659.jpg""]","",""
"","6515","similarity","49","377419","0.0-6.0-43.0","3","[""img/0883/00d89148-b7d4-49d2-831a-2eee070a85a4.jpg"",""img/0874/2c9464dd-8a23-4baa-ac94-1ba3af5c15cc.jpg""]","",""
"","6225","similarity","50","384654","0.0-6.0-44.0","5","[""img/0881/f62bdcd1-a4b7-4d48-83da-d9c9e01c8727.jpg"",""img/0873/90b702a6-3dba-446a-9bba-a2ee096baf49.jpg""]","",""
"","6229","similarity","51","391894","0.0-6.0-45.0","3","[""img/0867/98d8cd96-1476-4fe0-a3a3-04f875500a1b.jpg"",""img/0757/443a1d16-5d59-4e77-a670-d6190157c319.jpg""]","",""
"","6491","similarity","52","399405","0.0-6.0-46.0","3","[""img/0866/9b38d691-1802-4959-ab3f-fc902f0e4ea6.jpg"",""img/0874/85eb9b8a-c4c6-4e5a-b8e7-363a87a82054.jpg""]","",""
"","16690","similarity","53","417115","0.0-6.0-47.0","3","[""img/0886/1e8c0f89-c766-41c9-b522-83c342048f34.jpg"",""img/0886/bd45b474-5559-4ea5-83ff-140bce19f5fa.jpg""]","",""
"","6775","similarity","54","424890","0.0-6.0-48.0","5","[""img/0883/142a783e-a468-4b7f-a750-1e107613d5a9.jpg"",""img/0860/c3379ff7-0763-48fe-a1ec-7ea3d611bc7a.jpg""]","",""
"","5139","similarity","55","431040","0.0-6.0-49.0","2","[""img/0860/17b44a7d-c5ca-479f-9e87-f65a64f5c80e.jpg"",""img/0756/a553ae3f-5140-4271-9000-b496fe2d4622.jpg""]","",""
"","5199","similarity","56","437259","0.0-6.0-50.0","3","[""img/0860/8a92e21b-6a32-4e4a-a445-2d5a487ed0a4.jpg"",""img/0757/4f8ae92b-a4ab-4020-b4fb-80c5615e76ac.jpg""]","",""
"","11040","similarity","57","449306","0.0-6.0-51.0","7","[""img/0756/403d0540-b812-446f-bb5a-e8030be0a02f.jpg"",""img/0756/1cc17c90-3114-4ede-89cd-f34db9fa638a.jpg""]","",""
"","7650","similarity","58","457966","0.0-6.0-52.0","6","[""img/0875/e7e66b13-b573-431e-b85e-288ce04a35a3.jpg"",""img/0866/bf14b5bd-fb55-47db-86b9-4f8aeb9a6dad.jpg""]","",""
"","6565","similarity","59","465546","0.0-6.0-53.0","6","[""img/0756/314a157e-e6d3-4447-a98f-8fde8f810f0c.jpg"",""img/0758/7ffbc76b-1fc1-432c-8f7e-9ec8d1b3f643.jpg""]","",""
"","5476","similarity","60","472042","0.0-6.0-54.0","3","[""img/0761/47960f80-42b7-4397-a852-ec55d716c652.jpg"",""img/0884/ee845634-cd54-4c06-95a9-962122ef8712.jpg""]","",""
"","6230","similarity","61","479292","0.0-6.0-55.0","5","[""img/0760/7cdb34e4-0556-4bf7-9a6f-05990a92e0f3.jpg"",""img/0867/db7e032f-162b-46f5-ae67-2b29679adee4.jpg""]","",""
"","5630","similarity","62","485942","0.0-6.0-56.0","3","[""img/0866/07c9c966-3c8d-40e7-8128-92b2acbaed5d.jpg"",""img/0884/592da15b-09e4-46b5-81e7-bab08a1c33e9.jpg""]","",""
"","5857","similarity","63","492818","0.0-6.0-57.0","2","[""img/0756/4fcf5ea1-c2e0-44b9-b07f-26cbf07e1801.jpg"",""img/0761/71d2e184-21b4-4711-97f3-e381c641da2c.jpg""]","",""
"","5170","similarity","64","498998","0.0-6.0-58.0","3","[""img/0867/a749dddb-69f0-44a6-acdc-2bf295cf6dcc.jpg"",""img/0860/fd4662f9-4c03-4d79-8593-06735e55a64b.jpg""]","",""
"","5490","similarity","65","505498","0.0-6.0-59.0","5","[""img/0881/84397291-bc14-4fbf-90e8-241e486ab0fe.jpg"",""img/0758/20497cbe-ddae-489e-86e2-ab06985ed07c.jpg""]","",""
"","7615","similarity","66","514128","0.0-6.0-60.0","3","[""img/0761/af21c992-a721-45fb-bee7-f50c0f676c30.jpg"",""img/0758/a085b443-b5d7-4cb2-9ad4-b9dab0fc23f1.jpg""]","",""
"","7005","similarity","67","522134","0.0-6.0-61.0","6","[""img/0958/b11515b3-5f04-4c3e-be00-56a05c6c3e96.jpg"",""img/0875/90da8d75-108a-44ad-b999-e21fee3860d3.jpg""]","",""
"","7380","similarity","68","530534","0.0-6.0-62.0","6","[""img/0886/c6c81122-f4bf-46f4-968b-167f8ed0cab3.jpg"",""img/0864/e02eddb5-f468-499c-91bf-f7be3ffe979b.jpg""]","",""
"","6900","similarity","69","538444","0.0-6.0-63.0","6","[""img/0756/76d2b9c0-998f-48ad-95fe-3c317a6c74c0.jpg"",""img/0874/3f471690-9788-4d03-90c7-f615aecef149.jpg""]","",""
"","8985","similarity","70","548435","0.0-6.0-64.0","3","[""img/0758/eabcd7a8-56ad-4fd2-bc24-90f6b7b33265.jpg"",""img/0885/62bd11a8-7059-4cc2-b06d-4700688b313f.jpg""]","",""
"","6090","similarity","71","555535","0.0-6.0-65.0","3","[""img/0760/812c848f-be21-4059-abe5-8c4f4ac9ad0f.jpg"",""img/0958/58b7811e-d3f6-4e4d-befb-86e063d13a43.jpg""]","",""
"","5715","similarity","72","562270","0.0-6.0-66.0","2","[""img/0884/e275ab3e-0948-43c3-8be7-a75271922185.jpg"",""img/0881/54ea8e77-c7e5-4197-b7fa-00b7020849a7.jpg""]","",""
"","6375","similarity","73","569660","0.0-6.0-67.0","6","[""img/0864/6e846d43-94a6-4b37-a268-65eda979f052.jpg"",""img/0873/7dddc95f-ca6e-4d15-99a0-0e329ec6888e.jpg""]","",""
"","5686","similarity","74","576376","0.0-6.0-68.0","2","[""img/0862/53a9cf7c-93c4-41b9-952f-07d17f7a17b2.jpg"",""img/0758/a709631e-3705-4725-ac40-f0d916924f08.jpg""]","",""
"","6503","similarity","75","583886","0.0-6.0-69.0","6","[""img/0757/cd7fd185-981f-477a-ba00-a0f65bcfd0e9.jpg"",""img/0757/fd3c82c8-3311-4fae-bcec-10559587910a.jpg""]","",""
"","6488","similarity","76","591386","0.0-6.0-70.0","6","[""img/0860/71e1aad0-2cdf-43bb-94a4-a8c016997c30.jpg"",""img/0862/5d887e9f-89e2-4ebc-80a0-6d46fe6480db.jpg""]","",""
"","7280","similarity","77","599686","0.0-6.0-71.0","7","[""img/0860/e8b8c51e-1834-4875-8b61-6c5bc9b178bd.jpg"",""img/0884/9b1b7885-1502-448f-9b20-ddc19aa5456f.jpg""]","",""
"","5665","similarity","78","606361","0.0-6.0-72.0","5","[""img/0883/daaa1a6f-c322-46f6-b6a6-db2c9496d710.jpg"",""img/0866/c446214b-a368-4c65-ae39-ea46894256ab.jpg""]","",""
"","5290","similarity","79","612666","0.0-6.0-73.0","2","[""img/0866/0207e9a2-7dbb-40b5-9459-b472aaeceb2a.jpg"",""img/0886/aef00ed5-e288-47bf-b31e-512d7e762ea2.jpg""]","",""
"","5646","similarity","80","619327","0.0-6.0-74.0","1","[""img/0958/6e602e13-8029-4642-bce0-8deffd0dc686.jpg"",""img/0761/07f8178b-8ce5-42d6-bca0-a0ae0e0e8eb3.jpg""]","",""
"","5791","similarity","81","626137","0.0-6.0-75.0","5","[""img/0875/ebf7653f-ff45-4e9f-af58-2c042ab3cd2b.jpg"",""img/0756/a8246880-fb51-43bb-b25d-905e6e0d7880.jpg""]","",""
"","5530","similarity","82","632687","0.0-6.0-76.0","3","[""img/0958/ebea41e3-9d65-4f5e-981a-92daaaad0d57.jpg"",""img/0885/8960bf05-34df-4a86-a9b2-6087c70e61d3.jpg""]","",""
"","7080","similarity","83","640773","0.0-6.0-77.0","5","[""img/0868/4e626425-63c8-484a-8a1d-e66ee4e0bef8.jpg"",""img/0883/c6db9b70-f16c-47ee-a408-c9278365ae54.jpg""]","",""
"","5055","similarity","84","646838","0.0-6.0-78.0","3","[""img/0862/fb26cb07-d5a9-4653-813c-f41609f26cd5.jpg"",""img/0760/a97cc3a7-3e6e-423e-ac87-e1d1ab280ae9.jpg""]","",""
"","5080","similarity","85","652938","0.0-6.0-79.0","3","[""img/0885/1cd940ef-9720-4a04-8fa1-1dd3a39ecdd6.jpg"",""img/0761/89d3b943-cd14-4786-a7b8-0e9a695cf0e3.jpg""]","",""
"","5279","similarity","86","659228","0.0-6.0-80.0","3","[""img/0862/ba89835a-408c-480b-8594-ed4ffa97eb5c.jpg"",""img/0864/a248adb3-c70b-4652-b7a3-776d2a1e904b.jpg""]","",""
"","7436","similarity","87","667674","0.0-6.0-81.0","7","[""img/0758/61d64021-9214-4951-bdf8-f871f9827cf9.jpg"",""img/0758/7fba58df-2a7a-4b76-8a8f-62739f97f271.jpg""]","",""
"","4995","similarity","88","673688","0.0-6.0-82.0","3","[""img/0862/1c20f772-3a51-4a80-aac0-f57dc9f86c28.jpg"",""img/0873/b76d7003-814d-42b0-9a16-1399c4b0e706.jpg""]","",""
"","5257","similarity","89","692089","0.0-6.0-83.0","1","[""img/0760/237fa1c2-d59d-4475-8d1e-f9a4eb71f989.jpg"",""img/0757/86df581e-81a2-4205-95e3-1ea87cea1f36.jpg""]","",""
"","6956","similarity","90","700065","0.0-6.0-84.0","3","[""img/0867/2e1a0b58-cdb1-4107-a14e-452530d7b9b0.jpg"",""img/0881/2a8413be-fec2-4de6-88ad-614dd4cccc9d.jpg""]","",""
"","6430","similarity","91","707515","0.0-6.0-85.0","5","[""img/0885/5225e532-2812-41d9-8ef0-0fbfc612784e.jpg"",""img/0886/abd8dd83-d8ee-4003-b4d2-b4045220a578.jpg""]","",""
"","6079","similarity","92","714605","0.0-6.0-86.0","5","[""img/0866/620cd1aa-0800-4414-8f6e-90342e7a99ad.jpg"",""img/0864/da39ad34-04e0-40d4-a724-c08d53e0ea09.jpg""]","",""
"","5725","similarity","93","721340","0.0-6.0-87.0","7","[""img/0874/7e4f2150-3b59-4a36-b5da-a4e0ba410531.jpg"",""img/0881/0c7068da-d0d9-4103-bda1-74ef7a2b32c3.jpg""]","",""
"","5105","similarity","94","727455","0.0-6.0-88.0","3","[""img/0866/8efcaa46-83ab-4dee-a35f-850402aa21ae.jpg"",""img/0760/7f35fc6a-c21f-4f42-81c5-92ced38d82f8.jpg""]","",""
"","6961","similarity","95","735426","0.0-6.0-89.0","3","[""img/0867/85a96c62-548f-4994-9553-819e03c3135a.jpg"",""img/0884/10c0a35b-e20a-4d75-a7c0-959a578d9ebf.jpg""]","",""
"","5345","similarity","96","741781","0.0-6.0-90.0","3","[""img/0757/1aca59fd-6030-4bb0-93c7-32a90f3237cf.jpg"",""img/0862/f43ceabf-acc1-4107-b857-5d1849808f93.jpg""]","",""
"","4400","similarity","97","747201","0.0-6.0-91.0","2","[""img/0867/bf560d4f-dee3-4f11-a385-705cc1aa5f3c.jpg"",""img/0761/3599fa54-18f9-488e-b402-e851c43586ff.jpg""]","",""
"","5925","similarity","98","754141","0.0-6.0-92.0","5","[""img/0868/4a8a45ed-2c4f-421b-9564-409a33ecd26c.jpg"",""img/0958/7168f8d3-e3ae-405a-93d0-64836d899932.jpg""]","",""
"","6141","similarity","99","761292","0.0-6.0-93.0","5","[""img/0874/a3bc679d-619f-4db6-bb68-116dcb757d9c.jpg"",""img/0864/3651d070-2fc5-4848-b6a6-088a2d9ac5c9.jpg""]","",""
"","6115","similarity","100","768417","0.0-6.0-94.0","3","[""img/0760/c76e8a36-1537-42e0-9779-13c2b6a89725.jpg"",""img/0873/1d1be182-3bb2-4efd-8543-d70b8db7beef.jpg""]","",""
"","5129","similarity","101","774567","0.0-6.0-95.0","6","[""img/0868/fd307a36-9a3a-47d7-ab7c-f810d0b35040.jpg"",""img/0873/d39b1731-1669-4c96-b5c6-682b30e287ee.jpg""]","",""
"","5955","similarity","102","781542","0.0-6.0-96.0","6","[""img/0860/c7047cd2-7cc1-41b6-8a34-c0986774975f.jpg"",""img/0761/014e76d0-fb4e-4b40-901c-7a2d5655c3b0.jpg""]","",""
"","6900","similarity","103","789452","0.0-6.0-97.0","3","[""img/0862/99a99e39-8355-44ec-b993-e7bcec111e1c.jpg"",""img/0883/903939ef-a67c-40d3-841d-52555815cd88.jpg""]","",""
"","5951","similarity","104","796407","0.0-6.0-98.0","2","[""img/0757/1fd9dcb9-e489-4708-b518-f356d3f5481d.jpg"",""img/0884/a6389ab4-3291-4434-9b91-eeae3b04fce4.jpg""]","",""
"","5457","similarity","105","802868","0.0-6.0-99.0","5","[""img/0867/7d1c497b-c1b3-4ed8-abb5-d7f73306015f.jpg"",""img/0756/6d2df7ce-35aa-4a5d-ab53-974d2c02034e.jpg""]","",""
"","5890","similarity","106","809778","0.0-6.0-100.0","5","[""img/0958/d3775867-a8f6-42ba-86ff-f86e85edba90.jpg"",""img/0756/ca2a8f93-ed77-45c8-a3a3-22324aa28501.jpg""]","",""
"","5955","similarity","107","816753","0.0-6.0-101.0","5","[""img/0760/868961d8-3272-4d3c-9c8b-9d183315cabc.jpg"",""img/0760/32bea725-69a2-4c9a-94d9-af05883fbb86.jpg""]","",""
"","5755","similarity","108","823528","0.0-6.0-102.0","3","[""img/0873/b02f9cce-7f58-4f1b-baed-50fee9f0a21f.jpg"",""img/0875/cff79b3a-a797-4393-9757-6275f999ec04.jpg""]","",""
"","5720","similarity","109","830268","0.0-6.0-103.0","6","[""img/0884/a416b0d1-f903-4935-b89f-99c29683752b.jpg"",""img/0884/0b4cf8d4-4c8f-4312-a794-f99e01679176.jpg""]","",""
"","5255","similarity","110","836543","0.0-6.0-104.0","3","[""img/0873/6110910a-7895-4b6a-af51-12486a4595a3.jpg"",""img/0885/c840cf2c-c95d-4a08-b3c2-044d1ea946a7.jpg""]","",""
"","5576","similarity","111","843119","0.0-6.0-105.0","3","[""img/0883/46d6b8ad-7f31-441e-92d2-0cc16d3d99ce.jpg"",""img/0875/dbdd643e-6d0e-4a5c-ab57-b9c29b9c981a.jpg""]","",""
"","6116","similarity","112","850254","0.0-6.0-106.0","2","[""img/0864/b3c4e378-28f0-4699-9338-2a257b4bca04.jpg"",""img/0867/c66898ba-b71b-4d50-84f9-f7f84853a98d.jpg""]","",""
"","5845","similarity","113","857109","0.0-6.0-107.0","3","[""img/0958/eea2b7ca-1c37-4e76-ada7-a8b1f3afdc01.jpg"",""img/0860/5bff793e-cbd5-4d7e-b628-0ac2b0e30b64.jpg""]","",""
"","8300","similarity","114","866420","0.0-6.0-108.0","5","[""img/0885/1e66fe61-15d5-42b1-86aa-dbfd13613f5c.jpg"",""img/0756/04655068-a9fc-49d9-b2f4-21e4d42b7903.jpg""]","",""
"","4715","similarity","115","872155","0.0-6.0-109.0","3","[""img/0883/5716bfb3-e86c-42fe-8afa-58d226cb1aaa.jpg"",""img/0885/6873c613-5e40-42ff-a5b6-443b6b626ae2.jpg""]","",""
"","6280","similarity","116","879446","0.0-6.0-110.0","5","[""img/0867/1719a35d-f085-48c0-9099-16c94fe418b4.jpg"",""img/0867/6e19c858-b606-45b2-a4c6-910a73f1d82c.jpg""]","",""
"","6646","similarity","117","887101","0.0-6.0-111.0","5","[""img/0881/e046471a-35b4-4159-bbf7-3cfd201bef66.jpg"",""img/0760/135d76ab-2bf3-4dc9-8509-92983dc9893d.jpg""]","",""
"","5606","similarity","118","893711","0.0-6.0-112.0","5","[""img/0881/c24f3051-eefa-42de-aba6-fccb56d93c70.jpg"",""img/0868/7b212364-ff5f-4e28-9241-7eb6ea00161b.jpg""]","",""
"","5659","similarity","119","900376","0.0-6.0-113.0","5","[""img/0875/a4935837-7d3c-4df6-88c1-36a94d4991ca.jpg"",""img/0761/8e379ec1-757d-4427-a0ff-d4efdd6a50c4.jpg""]","",""
"","5065","similarity","120","906456","0.0-6.0-114.0","3","[""img/0756/d0f1b906-d8e0-4528-9d08-90cec14838ec.jpg"",""img/0866/23a224f3-2012-4fc8-8e0f-3c36f8de27fd.jpg""]","",""
"","5679","similarity","121","913155","0.0-6.0-115.0","2","[""img/0884/7ae02e9d-46a4-4124-bcc2-cad90d7ef9f9.jpg"",""img/0886/b8648eb5-de71-41ab-825d-848e51be8c1b.jpg""]","",""
"","6932","similarity","122","921107","0.0-6.0-116.0","5","[""img/0756/8fdfa93c-88d0-4311-be2d-7f799fcaa8de.jpg"",""img/0881/609a5e93-38b5-4940-8627-2bf8fad7f802.jpg""]","",""
"","5995","similarity","123","928121","0.0-6.0-117.0","5","[""img/0760/ed469d78-34af-4ea9-a969-05ea527438a2.jpg"",""img/0875/527ced51-8e53-4aab-ab05-86df219104c0.jpg""]","",""
"","6005","similarity","124","935146","0.0-6.0-118.0","5","[""img/0958/54f27d86-00c0-46b2-b2c9-050c9cc60fe0.jpg"",""img/0866/d266fece-59b3-46fa-b69f-96f6efb81b59.jpg""]","",""
"","5955","similarity","125","942121","0.0-6.0-119.0","5","[""img/0867/aa05d113-fc19-4756-a8eb-7878f580bc92.jpg"",""img/0874/29830da7-be5f-44e5-b141-652a0ccf7269.jpg""]","",""
"","5705","similarity","126","948826","0.0-6.0-120.0","5","[""img/0883/3b1366c6-7baa-4ad2-889c-1ff9c3b379c9.jpg"",""img/0757/a7964b0f-aee3-4b4c-9cd1-c1c998c49fef.jpg""]","",""
"","18866","similarity","127","968707","0.0-6.0-121.0","3","[""img/0874/c0378dac-9370-439a-8b79-db27c96fb390.jpg"",""img/0886/0f9715c1-b2e4-418e-bf9b-126cc9e70dc6.jpg""]","",""
"","78499","similarity","128","1048226","0.0-6.0-122.0","2","[""img/0873/a234d5d1-09ea-4594-9a0f-d569da31dbdb.jpg"",""img/0761/5747fedf-15f2-47fe-87c8-ff646dd66a5f.jpg""]","",""
"","10500","similarity","129","1059741","0.0-6.0-123.0","2","[""img/0875/03c3c331-738b-4446-af92-3d7386b08c2e.jpg"",""img/0884/d8ffab77-40df-44ba-bf27-70815b052250.jpg""]","",""
"","6429","similarity","130","1067191","0.0-6.0-124.0","1","[""img/0757/ec40956b-ed8b-4970-b87f-9b7c25cd5be6.jpg"",""img/0868/8b0b8473-e2c0-4331-aa56-c3a5c29369da.jpg""]","",""
"","5430","similarity","131","1082826","0.0-6.0-125.0","1","[""img/0886/48077111-b86b-4612-910f-90a5d168d77f.jpg"",""img/0883/512a797a-315b-439e-9a9d-855929351fd0.jpg""]","",""
"","6680","similarity","132","1090517","0.0-6.0-126.0","2","[""img/0868/d6d1f30d-4323-435a-b194-7892521bc57e.jpg"",""img/0760/5f9bd780-65e3-43ab-a3a3-73a1cc87d5a2.jpg""]","",""
"","6400","similarity","133","1097930","0.0-6.0-127.0","7","[""img/0881/292e9b4b-fca0-4ba8-87f1-4048f9e37b7d.jpg"",""img/0881/1407b85b-a1c6-45b1-9884-3b24203efadb.jpg""]","",""
"","5350","similarity","134","1104286","0.0-6.0-128.0","5","[""img/0760/fe62dd62-331c-4317-8af2-f1c816871fee.jpg"",""img/0860/8fdba999-b946-4c7d-9891-336018b563ef.jpg""]","",""
"","5395","similarity","135","1110691","0.0-6.0-129.0","1","[""img/0864/1ebbc554-99fa-49f9-8799-317375a79820.jpg"",""img/0885/a4e5c564-1e5f-4fed-9f73-b8d1becf62b6.jpg""]","",""
"","5975","similarity","136","1117686","0.0-6.0-130.0","1","[""img/0864/4bd81bc6-c13d-46df-95a9-485886dc7c1b.jpg"",""img/0757/417763f8-6fe7-44f2-acaa-613a44f20835.jpg""]","",""
"","6704","similarity","137","1125411","0.0-6.0-131.0","4","[""img/0760/9ddd6958-7349-45d6-b5bc-4a5911960c35.jpg"",""img/0883/77f31752-1984-44f7-a77d-e22c2ad54256.jpg""]","",""
"","5681","similarity","138","1132112","0.0-6.0-132.0","6","[""img/0885/d2276b26-e91a-4f19-a818-cbeb297ed884.jpg"",""img/0885/8cdf3204-e0f1-482b-9546-5edca3d81376.jpg""]","",""
"","5250","similarity","139","1138362","0.0-6.0-133.0","3","[""img/0860/c47fdead-eb02-4989-b078-26f4852f44fe.jpg"",""img/0868/179a5502-ab5c-478e-8263-5a1fbcc101d2.jpg""]","",""
"","4983","similarity","140","1144362","0.0-6.0-134.0","5","[""img/0867/075e0f95-856b-4cbb-acf5-092393aaf04e.jpg"",""img/0886/9ac18ff1-d3d9-4bfe-aa2e-ed5b28399f6c.jpg""]","",""
"","8126","similarity","141","1153508","0.0-6.0-135.0","2","[""img/0756/09fde3d3-27c5-435e-b68f-5410beb04e99.jpg"",""img/0886/789f5d23-84b8-499a-ae1e-20c6309a06ae.jpg""]","",""
"","6440","similarity","142","1160953","0.0-6.0-136.0","5","[""img/0884/2348ce3f-5d2a-4a04-85ef-a65f05caa935.jpg"",""img/0868/d98ca254-b195-477f-b57e-5760a2717db8.jpg""]","",""
"","7890","similarity","143","1169864","0.0-6.0-137.0","2","[""img/0958/bb684a39-afef-4125-9f70-b5ad830ba316.jpg"",""img/0958/644719ec-1690-4af2-a63f-0b6467c3791e.jpg""]","",""
"","4955","similarity","144","1175829","0.0-6.0-138.0","1","[""img/0886/9b0bffbe-9237-404d-a0ba-a1982e0814c7.jpg"",""img/0873/c3ff3b70-fb22-42f2-883c-3ecffd77cb4b.jpg""]","",""
"","5780","similarity","145","1182629","0.0-6.0-139.0","2","[""img/0758/67c0be2f-9e91-48b3-8219-70ac0a1802fa.jpg"",""img/0873/b509aa81-b1d7-4d50-8aef-9c7b725c3157.jpg""]","",""
"","5665","similarity","146","1189294","0.0-6.0-140.0","5","[""img/0873/0c7f3d86-efda-4809-aac4-256ba01e0536.jpg"",""img/0756/caa9655d-9f7e-420d-a757-6af4985d335a.jpg""]","",""
"","5650","similarity","147","1195954","0.0-6.0-141.0","5","[""img/0868/4bd5105a-d2c3-4f82-8c80-57196106ba53.jpg"",""img/0862/e8cc3bdf-cc43-4565-bccf-492626c70953.jpg""]","",""
"","6130","similarity","148","1203094","0.0-6.0-142.0","4","[""img/0881/344de456-b358-4887-bd0e-e4c3278af887.jpg"",""img/0862/fad1d7c1-8187-43c3-942a-0fc12183e48e.jpg""]","",""
"","6440","similarity","149","1210555","0.0-6.0-143.0","5","[""img/0885/0cdcdaca-f91e-4d4a-a6f6-dc90ab676435.jpg"",""img/0867/50a1b60e-3a29-44bf-b606-d4bd3746fea9.jpg""]","",""
"","6952","similarity","150","1218520","0.0-6.0-144.0","3","[""img/0883/e3603ed7-8fca-475a-aeb1-d1f7651c4618.jpg"",""img/0883/fc8cf4c9-003e-48c4-b222-8878ea2ae1c0.jpg""]","",""
"","5416","similarity","151","1224946","0.0-6.0-145.0","1","[""img/0874/eba003b4-cdab-4eee-8bc3-f064c7d94165.jpg"",""img/0873/0d9b4403-7f26-46dc-b0b7-2b97b0a91b46.jpg""]","",""
"","5110","similarity","152","1231071","0.0-6.0-146.0","5","[""img/0757/424b465f-ba69-4277-bc61-d3e95d136f80.jpg"",""img/0758/dd559618-7f09-4a07-8018-d311c4a5ea29.jpg""]","",""
"","5490","similarity","153","1237571","0.0-6.0-147.0","5","[""img/0883/eff15ce5-9393-443c-829f-71242d1c56d0.jpg"",""img/0756/7a83dec0-4724-4efc-9fbf-52a30b5acd99.jpg""]","",""
"","6525","similarity","154","1245116","0.0-6.0-148.0","3","[""img/0867/26611f4e-d694-4460-b7e2-43c62753ddc3.jpg"",""img/0866/6f2a90d7-14f1-4f1b-bd64-fc0af6b9fe44.jpg""]","",""
"","5790","similarity","155","1251907","0.0-6.0-149.0","3","[""img/0758/821c68d3-5cb0-4eae-8659-30e6263fca39.jpg"",""img/0760/191d8576-9ed7-4798-a486-66a7fd600e58.jpg""]","",""
"","16090","similarity","156","1269017","0.0-6.0-150.0","5","[""img/0757/acda7aee-6b29-463f-bf01-0d64d6a6ae2b.jpg"",""img/0761/d5370a68-6c8a-486f-b2bf-330e2ad6b397.jpg""]","",""
"","27048","similarity","157","1297082","0.0-6.0-151.0","3","[""img/0761/aebad236-1f4a-4bc2-a74d-d92b7e226316.jpg"",""img/0874/3ce41e7c-40c8-4d58-a546-171114521796.jpg""]","",""
"","40441","similarity","158","1338533","0.0-6.0-152.0","3","[""img/0761/6f9c1c71-e38d-4e3f-9062-39557812432a.jpg"",""img/0760/83b0723f-4929-4ee7-ad35-fae98da3e152.jpg""]","",""
"","7387","similarity","159","1346943","0.0-6.0-153.0","6","[""img/0866/386235d2-6857-41e7-88a8-25cfc3430025.jpg"",""img/0866/a04d37f0-99dd-478a-b6c6-58b215138f84.jpg""]","",""
"","4699","similarity","160","1352650","0.0-6.0-154.0","1","[""img/0866/945c6710-d15b-4a5b-a8f6-69af0850357f.jpg"",""img/0862/de9ad88c-b522-430a-8ee9-eb06a9f85df5.jpg""]","",""
"","5536","similarity","161","1359194","0.0-6.0-155.0","2","[""img/0756/b5b6c1ba-df7c-4bac-94ac-786f45dbb140.jpg"",""img/0862/f23038d4-c366-4f70-979f-66b62362efa4.jpg""]","",""
"","5731","similarity","162","1365944","0.0-6.0-156.0","5","[""img/0860/31ff6436-98bf-4652-bed2-40f627229568.jpg"",""img/0866/4a87911a-d5be-4d4e-ab8e-3d1f581bf507.jpg""]","",""
"","5655","similarity","163","1372609","0.0-6.0-157.0","5","[""img/0862/47ed5efd-4ec9-4b74-bb4e-a5f5cf0c3e7d.jpg"",""img/0958/ef1b718f-ef8c-497f-80d7-42562aebf1a7.jpg""]","",""
"","5590","similarity","164","1379209","0.0-6.0-158.0","3","[""img/0761/9199a691-d36e-4ece-a815-078384ea6f06.jpg"",""img/0868/3a62db2d-97e9-44a3-b8e3-a48c6f0e423b.jpg""]","",""
"","5360","similarity","165","1385579","0.0-6.0-159.0","1","[""img/0761/bd083642-a9bc-4877-bfc6-63bd03d33e81.jpg"",""img/0886/4d28f75a-a9c3-49dd-8aa8-00304af6e40b.jpg""]","",""
"","8895","similarity","166","1395485","0.0-6.0-160.0","3","[""img/0874/767f289c-9814-4496-803f-745cc8913d1f.jpg"",""img/0868/c8ac40c7-6904-4e13-8d61-c75d3052dc4e.jpg""]","",""
"","28156","similarity","167","1424651","0.0-6.0-161.0","5","[""img/0860/702bd09d-df3a-40aa-a267-5f04474305b5.jpg"",""img/0874/ca23d307-fc00-4d7d-9106-584c6eb21b4d.jpg""]","",""
"","33666","similarity","168","1459337","0.0-6.0-162.0","6","[""img/0883/599aacc5-bb0f-4dea-852c-9a27727eb0b9.jpg"",""img/0867/8ba0c5a7-c7e4-42cf-a80a-543763b90779.jpg""]","",""
"","15679","similarity","169","1476029","0.0-6.0-163.0","5","[""img/0758/d540bee6-b460-4c32-ac57-bc282742d7d4.jpg"",""img/0958/ba5ed153-96de-4f61-b7d9-87a478c8972c.jpg""]","",""
"","10578","similarity","170","1487614","0.0-6.0-164.0","5","[""img/0873/c2a7452d-a271-4207-81ce-bda281dc0297.jpg"",""img/0757/31d8ee3d-1b79-4d6a-9347-f91c87c00f92.jpg""]","",""
"","8125","similarity","171","1496749","0.0-6.0-165.0","3","[""img/0873/33552b07-bdb8-423e-88b4-25a37f159c6d.jpg"",""img/0866/02f5e6b9-52b7-448c-9708-5b460d0c9a23.jpg""]","",""
"","6239","similarity","172","1504008","0.0-6.0-166.0","5","[""img/0875/2c361b79-c3d1-4eda-812e-bf03192407bf.jpg"",""img/0867/5e07b34d-b40f-4b1c-ac10-49975bace45f.jpg""]","",""
"","6386","similarity","173","1516154","0.0-6.0-167.0","5","[""img/0862/a0a3a7ba-7798-46a3-b4ca-05e1f6e581d0.jpg"",""img/0862/064818ee-13d5-4618-bb24-21c7368ea278.jpg""]","",""
"","23500","similarity","174","1540674","0.0-6.0-168.0","1","[""img/0875/99698b4d-b4a1-44bc-8c83-8ea755bbbf61.jpg"",""img/0886/7164ac42-460f-4beb-9d5e-a1cfded3099c.jpg""]","",""
"","5373","similarity","175","1547064","0.0-6.0-169.0","6","[""img/0885/fce9f22a-f769-477c-acee-a5ad8214f0a5.jpg"",""img/0875/8521fd58-3b1e-4dc5-97ae-804edfa6734a.jpg""]","",""
"","6356","similarity","176","1554430","0.0-6.0-170.0","1","[""img/0862/f188d4f0-76a4-4102-818c-a209969d73a5.jpg"",""img/0867/ac1797e4-8afc-48fe-b252-86d1defb1cca.jpg""]","",""
"","5460","similarity","177","1560900","0.0-6.0-171.0","1","[""img/0884/7f9cc898-36bc-49ec-8b1a-01065d9c0062.jpg"",""img/0873/e5374873-a1a7-4689-a04c-a3b959992244.jpg""]","",""
"","5520","similarity","178","1567430","0.0-6.0-172.0","2","[""img/0873/c91c05f8-fafd-4054-bcf1-f5ed1f0a18e8.jpg"",""img/0958/d4138705-0a9d-4141-9af9-205e69367c44.jpg""]","",""
"","5641","similarity","179","1574081","0.0-6.0-173.0","3","[""img/0868/15dd6fd7-791e-4b53-b203-195d617521a4.jpg"",""img/0758/ddc336e9-a8b6-4bb9-937a-c7e25e0e9250.jpg""]","",""
"","7150","similarity","180","1582241","0.0-6.0-174.0","5","[""img/0757/a3620c04-efdc-4b42-940c-806958d1351e.jpg"",""img/0874/bf14b896-e930-4fd9-9c05-2e83317a2773.jpg""]","",""
"","5480","similarity","181","1588731","0.0-6.0-175.0","3","[""img/0958/4e2ca4bc-52c7-4c27-9610-776441231e42.jpg"",""img/0867/a498eef3-9fa4-4ab2-9778-4ae82ac40dc5.jpg""]","",""
"","5441","similarity","182","1595182","0.0-6.0-176.0","6","[""img/0874/a82926a3-0b43-4add-803c-d5f9ea7798ee.jpg"",""img/0760/1912c0dc-64a7-4c32-8d67-baf5e8752270.jpg""]","",""
"","4976","similarity","183","1601177","0.0-6.0-177.0","3","[""img/0873/d74e4aa9-420d-48a3-a42f-30a3481536ae.jpg"",""img/0860/18dfed73-e36b-4487-a8bd-0b8cff8e3668.jpg""]","",""
"","5065","similarity","184","1607252","0.0-6.0-178.0","3","[""img/0881/19e82c47-8e4b-45d2-a6c8-74181eb4155e.jpg"",""img/0883/df1c6d22-bb1b-4eed-b4fe-eb5e46deacd4.jpg""]","",""
"","5345","similarity","185","1613617","0.0-6.0-179.0","3","[""img/0886/451550d7-6ff9-42b5-938c-9e20ee960bf6.jpg"",""img/0958/df7705da-e817-409f-8a93-05abef4b26c3.jpg""]","",""
"","5905","similarity","186","1620532","0.0-6.0-180.0","3","[""img/0864/8ddd2e30-a1d0-479f-9cbe-591213023893.jpg"",""img/0883/e7e4af6a-bc7a-4a9b-921c-32652db13239.jpg""]","",""
"","6895","similarity","187","1628442","0.0-6.0-181.0","5","[""img/0756/10fa3aa2-6100-492a-826e-febb6513cf13.jpg"",""img/0868/6a28c3b0-3d76-498a-9fb7-ddafc665eca8.jpg""]","",""
"","5250","similarity","188","1634702","0.0-6.0-182.0","2","[""img/0884/13db1f36-8c9f-4b28-8426-04eaa9fba737.jpg"",""img/0758/335851a0-a55b-46d8-ab05-8463eda48349.jpg""]","",""
"","5142","similarity","189","1640859","0.0-6.0-183.0","3","[""img/0875/34132396-d896-4c2d-8087-646dd867e769.jpg"",""img/0874/93d1f8dc-acf2-4f03-bd8d-8ec35df276ed.jpg""]","",""
"","6115","similarity","190","1647994","0.0-6.0-184.0","6","[""img/0867/12264664-1860-46df-8c21-162b9817cdda.jpg"",""img/0868/293079b8-7e0c-4afd-a390-1e5d35fe3ded.jpg""]","",""
"","6240","similarity","191","1655234","0.0-6.0-185.0","3","[""img/0881/f037e3b0-09cb-4a83-b2d9-6a71fe474e63.jpg"",""img/0885/89d8c48b-8bde-42ed-ae71-de669b15ea34.jpg""]","",""
"","15993","similarity","192","1672244","0.0-6.0-186.0","3","[""img/0864/5f74a653-3bdc-4308-8cca-ac667dc22e1f.jpg"",""img/0761/b1819a20-de99-463b-9840-60a4b8faa30d.jpg""]","",""
"","13814","similarity","193","1687059","0.0-6.0-187.0","5","[""img/0885/5a47e19f-19b4-4545-bf47-b508cb65da6a.jpg"",""img/0874/1016b306-087c-4afc-aa08-fa527b28dc76.jpg""]","",""
"","5587","similarity","194","1693659","0.0-6.0-188.0","5","[""img/0758/b76ceca7-95ac-46e4-ac13-da02c8e93be9.jpg"",""img/0867/179ab87a-8eac-4c52-a41f-2e48e3120f09.jpg""]","",""
"","5405","similarity","195","1700070","0.0-6.0-189.0","2","[""img/0756/fd9b5e61-3674-448f-867a-29769dc8f07d.jpg"",""img/0884/37ee4afa-34a0-4da2-bdb0-fcaff43dcdb6.jpg""]","",""
"","93393","similarity","196","1794473","0.0-6.0-190.0","3","[""img/0761/ff3e024b-951d-4aca-a168-c09c6507525d.jpg"",""img/0862/eefa5588-9efd-4591-aa5f-a2e17c7d7bcc.jpg""]","",""
"","28870","similarity","197","1824363","0.0-6.0-191.0","3","[""img/0860/94ef7afc-e0e6-4a15-98c6-0bfac82bc832.jpg"",""img/0886/42cccc64-05f9-4afd-bc93-496ba50a4342.jpg""]","",""
"","6335","similarity","198","1831702","0.0-6.0-192.0","2","[""img/0760/319c5462-51de-4d3b-a135-d6c44f59c0e1.jpg"",""img/0885/fbbfaacd-e49b-4d37-a2f9-fcaffa58f26f.jpg""]","",""
"","10716","similarity","199","1843434","0.0-6.0-193.0","5","[""img/0886/d1e40478-2fe0-404f-8409-920da98a96a2.jpg"",""img/0868/e0aff734-077f-40dd-9781-74821abd3621.jpg""]","",""
"","5290","similarity","200","1849734","0.0-6.0-194.0","5","[""img/0881/6b1189e6-232d-4042-8885-16dc7b10e0d4.jpg"",""img/0864/0116ca98-293d-4fa6-a93b-5a6144ef64cc.jpg""]","",""
"","6053","similarity","201","1856809","0.0-6.0-195.0","3","[""img/0866/93a27239-8317-4e08-98ca-d8b1ff298e07.jpg"",""img/0868/1a62b2b2-18f5-466e-b564-5176a57c565e.jpg""]","",""
"","4964","similarity","202","1862784","0.0-6.0-196.0","5","[""img/0864/afcba0a3-7e27-4757-b254-e9f05fad27e2.jpg"",""img/0958/0a8f72c4-0c73-4d58-be6f-5e4613b87409.jpg""]","",""
"","5580","similarity","203","1869374","0.0-6.0-197.0","2","[""img/0757/b46cab21-50e3-4f19-803d-682627bcd6a6.jpg"",""img/0886/e5903946-897c-4420-87c0-afee4100305c.jpg""]","",""
"","5956","similarity","204","1876339","0.0-6.0-198.0","6","[""img/0758/6e95579b-5166-487c-b8cb-e417c6a218e3.jpg"",""img/0883/cc2bb2c6-18f1-414f-98cc-6cd683173ce4.jpg""]","",""
"","5416","similarity","205","1882775","0.0-6.0-199.0","3","[""img/0881/7e822106-76f7-4b10-a805-14dc68b2cfaf.jpg"",""img/0958/5a91b0e8-8f60-4625-b88c-d6e55b4d7d93.jpg""]","",""
"","5515","similarity","206","1889300","0.0-6.0-200.0","5","[""img/0958/edfd5bc1-8c8f-489a-84c3-908436ef76cc.jpg"",""img/0874/31e22c7c-99aa-40b1-bf03-dd73fa2df4d6.jpg""]","",""
"","5565","similarity","207","1895885","0.0-6.0-201.0","3","[""img/0885/a8cbb477-19ef-45ef-8f48-9667aec40bd1.jpg"",""img/0860/f44ba3fb-03a2-42f0-8509-2c1ded493086.jpg""]","",""
"","5180","similarity","208","1902075","0.0-6.0-202.0","3","[""img/0875/3ecb367d-e9eb-4826-8aaa-7aa72fb98019.jpg"",""img/0881/4da99fdd-1f40-4bbb-8e21-8833eef313f5.jpg""]","",""
"","7531","similarity","209","1910615","0.0-6.0-203.0","6","[""img/0758/caa93da2-9edf-49fa-96b9-32dedd8f5078.jpg"",""img/0860/4a022222-056d-461c-ab02-39fac9647552.jpg""]","",""
"","4775","similarity","210","1916400","0.0-6.0-204.0","6","[""img/0860/5383b320-1518-4095-a58e-5cc1ae30b64c.jpg"",""img/0860/d9a0d117-6d1d-41c0-8fec-9aff0fd9e9f2.jpg""]","",""
"","5066","similarity","211","1922476","0.0-6.0-205.0","6","[""img/0874/ca76a855-4e77-4f2f-872a-0a718153e7ed.jpg"",""img/0874/adf9a8f1-c40b-402b-b95b-1e85a54a7b62.jpg""]","",""
"","4801","similarity","212","1928301","0.0-6.0-206.0","2","[""img/0883/724f020e-39d9-495c-abe1-b2e4504be9bc.jpg"",""img/0761/e34f97e4-14ac-4bb6-b226-816085d967c2.jpg""]","",""
"","5955","similarity","213","1935276","0.0-6.0-207.0","5","[""img/0761/b8f211c0-f640-43a2-b101-101774517d95.jpg"",""img/0881/4bd34581-94d8-4e88-8c89-5cef864ca3be.jpg""]","",""
"","5143","similarity","214","1941427","0.0-6.0-208.0","5","[""img/0760/a24659cd-f862-42cc-b43a-7ba8eae0c2c0.jpg"",""img/0756/b6e235f7-211b-4a2b-a7b8-393e5ec7351b.jpg""]","",""
"","5792","similarity","215","1956892","0.0-6.0-209.0","2","[""img/0885/24afeefb-f7b3-4e8f-a5b9-17cc00fd22e3.jpg"",""img/0757/802a8692-dc9e-4372-8811-ce4351a09d1a.jpg""]","",""
"[{""page_index"":0,""viewing_time"":6190}]","6190","instructions","216","1964092","0.0-7.0","","","",""
"","56494","image-multi-choice","217","2021649","0.0-8.0-0.0","","","{""Q0"":""Yellow-rumped Warbler""}","Orange-crowned Warbler"
"","6107","image-multi-choice","218","2028794","0.0-8.0-1.0","","","{""Q0"":""Wilson's Warbler""}","Wilson's Warbler"
"","24083","image-multi-choice","219","2053920","0.0-8.0-2.0","","","{""Q0"":""Black-and-white Warbler""}","Blackpoll Warbler"
"","24912","image-multi-choice","220","2079870","0.0-8.0-3.0","","","{""Q0"":""Nashville Warbler""}","Black-and-white Warbler"
"","21868","image-multi-choice","221","2102789","0.0-8.0-4.0","","","{""Q0"":""Northern Waterthrush""}","Yellow-breasted Chat"
"","16752","image-multi-choice","222","2120573","0.0-8.0-5.0","","","{""Q0"":""Northern Waterthrush""}","Canada Warbler"
"","5552","image-multi-choice","223","2127168","0.0-8.0-6.0","","","{""Q0"":""Townsend's Warbler""}","Common Yellowthroat"
"","52568","image-multi-choice","224","2180774","0.0-8.0-7.0","","","{""Q0"":""American Redstart""}","American Redstart"
"","21436","image-multi-choice","225","2203235","0.0-8.0-8.0","","","{""Q0"":""Black-and-white Warbler""}","Chestnut-sided Warbler"
"","7382","image-multi-choice","226","2211655","0.0-8.0-9.0","","","{""Q0"":""Black-throated Green Warbler""}","Black-throated Green Warbler"
"","25486","image-multi-choice","227","2238186","0.0-8.0-10.0","","","{""Q0"":""Blackburnian Warbler""}","Blackburnian Warbler"
"","11390","image-multi-choice","228","2250626","0.0-8.0-11.0","","","{""Q0"":""Blackpoll Warbler""}","Yellow-rumped Warbler"
"","6548","image-multi-choice","229","2258211","0.0-8.0-12.0","","","{""Q0"":""Northern Waterthrush""}","Ovenbird"
"","10965","image-multi-choice","230","2270226","0.0-8.0-13.0","","","{""Q0"":""Blackburnian Warbler""}","Townsend's Warbler"
"","10399","image-multi-choice","231","2281662","0.0-8.0-14.0","","","{""Q0"":""Ovenbird""}","Northern Waterthrush"
"","7013","image-multi-choice","232","2289712","0.0-8.0-15.0","","","{""Q0"":""Yellow Warbler""}","Yellow Warbler"
"","6513","image-multi-choice","233","2297262","0.0-8.0-16.0","","","{""Q0"":""Orange-crowned Warbler""}","Nashville Warbler"
"","14177","image-multi-choice","234","2312479","0.0-8.0-17.0","","","{""Q0"":""Yellow-breasted Chat""}","Northern Parula"
"","15604","image-multi-choice","235","2329129","0.0-8.0-18.0","","","{""Q0"":""Chestnut-sided Warbler""}","Tennessee Warbler"
"","12866","image-multi-choice","236","2343029","0.0-8.0-19.0","","","{""Q0"":""Blackburnian Warbler""}","Magnolia Warbler"
