"view_history","rt","trial_type","trial_index","time_elapsed","internal_node_id","sim_score","stimulus","responses","answer"
"[{""page_index"":0,""viewing_time"":30772}]","30772","instructions","0","30773","0.0-0.0","","","",""
"","6320","similarity_demo","1","38105","0.0-1.0","7","[""img/bluejay1.jpg"",""img/bluejay2.jpg""]","",""
"[{""page_index"":0,""viewing_time"":18411}]","18411","instructions","2","57522","0.0-2.0","","","",""
"","19381","similarity_demo","3","77908","0.0-3.0","2","[""img/bluejay1.jpg"",""img/cardinal1.jpg""]","",""
"[{""page_index"":0,""viewing_time"":8068}]","8069","instructions","4","86980","0.0-4.0","","","",""
"[{""page_index"":0,""viewing_time"":8938}]","8938","instructions","5","96921","0.0-5.0","","","",""
"","7104","similarity","6","105031","0.0-6.0-0.0","1","[""img/0864/4bd81bc6-c13d-46df-95a9-485886dc7c1b.jpg"",""img/0860/e14d67c1-6d92-4f1e-9257-c8607159c19c.jpg""]","",""
"","10633","similarity","7","116670","0.0-6.0-1.0","2","[""img/0884/a6389ab4-3291-4434-9b91-eeae3b04fce4.jpg"",""img/0760/57510c7a-e5a9-420e-9b3f-f7423746f67c.jpg""]","",""
"","5493","similarity","8","123169","0.0-6.0-2.0","1","[""img/0886/48077111-b86b-4612-910f-90a5d168d77f.jpg"",""img/0881/f8bd891e-aa09-4782-89db-33e7cb2b0cf1.jpg""]","",""
"","6554","similarity","9","130731","0.0-6.0-3.0","2","[""img/0866/8efcaa46-83ab-4dee-a35f-850402aa21ae.jpg"",""img/0881/14236cf2-6b95-48b8-9368-78af09d2d27f.jpg""]","",""
"","11534","similarity","10","143271","0.0-6.0-4.0","3","[""img/0868/179a5502-ab5c-478e-8263-5a1fbcc101d2.jpg"",""img/0885/8960bf05-34df-4a86-a9b2-6087c70e61d3.jpg""]","",""
"","6811","similarity","11","151087","0.0-6.0-5.0","1","[""img/0757/76206a63-e02d-4beb-a85a-ed1b5527bc36.jpg"",""img/0866/c446214b-a368-4c65-ae39-ea46894256ab.jpg""]","",""
"","6753","similarity","12","158848","0.0-6.0-6.0","1","[""img/0868/3a62db2d-97e9-44a3-b8e3-a48c6f0e423b.jpg"",""img/0864/efcfbb1b-8197-44c9-b723-40d6c608dd3c.jpg""]","",""
"","4668","similarity","13","164524","0.0-6.0-7.0","7","[""img/0864/3d4de670-b290-4285-9c3d-12a0e3af44e9.jpg"",""img/0864/300bb811-8b3c-4c42-8653-6097c3725197.jpg""]","",""
"","6571","similarity","14","172100","0.0-6.0-8.0","2","[""img/0757/89ce15d5-a3da-4a62-ac9f-c28a9273bf33.jpg"",""img/0881/e6746727-7f89-47ec-b939-d98abe78372d.jpg""]","",""
"","4581","similarity","15","177684","0.0-6.0-9.0","1","[""img/0886/9ac18ff1-d3d9-4bfe-aa2e-ed5b28399f6c.jpg"",""img/0760/812c848f-be21-4059-abe5-8c4f4ac9ad0f.jpg""]","",""
"","4848","similarity","16","183536","0.0-6.0-10.0","2","[""img/0884/a416b0d1-f903-4935-b89f-99c29683752b.jpg"",""img/0883/d719aab0-0280-4c06-87e5-b9db7454965c.jpg""]","",""
"","4187","similarity","17","188726","0.0-6.0-11.0","1","[""img/0874/93d1f8dc-acf2-4f03-bd8d-8ec35df276ed.jpg"",""img/0862/24cdc752-c2e5-4a17-86a6-6f2045d8553b.jpg""]","",""
"","3595","similarity","18","193324","0.0-6.0-12.0","1","[""img/0862/ad593cc7-cabe-4bb7-8e14-8a447a0717b4.jpg"",""img/0875/99698b4d-b4a1-44bc-8c83-8ea755bbbf61.jpg""]","",""
"","6218","similarity","19","200546","0.0-6.0-13.0","1","[""img/0875/fb732ab5-013a-4366-9f65-27811ed157e9.jpg"",""img/0757/94c7f207-1115-4451-b22b-1f74b3661208.jpg""]","",""
"","4043","similarity","20","205592","0.0-6.0-14.0","1","[""img/0875/42910c99-5463-450a-a0f8-d4d060a11455.jpg"",""img/0860/29a21a9f-54bb-4093-ad3f-04823ceaa89f.jpg""]","",""
"","3220","similarity","21","209815","0.0-6.0-15.0","1","[""img/0860/d9a0d117-6d1d-41c0-8fec-9aff0fd9e9f2.jpg"",""img/0881/7e31e5dc-2240-4b1b-b5a0-3acd980099ef.jpg""]","",""
"","2915","similarity","22","213735","0.0-6.0-16.0","2","[""img/0885/0cdcdaca-f91e-4d4a-a6f6-dc90ab676435.jpg"",""img/0884/05d9bfb9-44a6-4ab4-92fa-d17e5b2b4f33.jpg""]","",""
"","3876","similarity","23","218618","0.0-6.0-17.0","7","[""img/0761/5ed865c0-8bfb-4310-9b47-690b3e450ca2.jpg"",""img/0761/3599fa54-18f9-488e-b402-e851c43586ff.jpg""]","",""
"","8405","similarity","24","228032","0.0-6.0-18.0","2","[""img/0760/237fa1c2-d59d-4475-8d1e-f9a4eb71f989.jpg"",""img/0864/e02eddb5-f468-499c-91bf-f7be3ffe979b.jpg""]","",""
"","6685","similarity","25","235722","0.0-6.0-19.0","2","[""img/0864/da39ad34-04e0-40d4-a724-c08d53e0ea09.jpg"",""img/0875/5a7c4e35-6514-4e12-8879-d16071da4cd6.jpg""]","",""
"","5474","similarity","26","242203","0.0-6.0-20.0","1","[""img/0874/3f471690-9788-4d03-90c7-f615aecef149.jpg"",""img/0884/967c63af-8f6a-483f-9122-0c79d97fd22e.jpg""]","",""
"","3830","similarity","27","247037","0.0-6.0-21.0","2","[""img/0885/89d8c48b-8bde-42ed-ae71-de669b15ea34.jpg"",""img/0866/23a224f3-2012-4fc8-8e0f-3c36f8de27fd.jpg""]","",""
"","15108","similarity","28","263151","0.0-6.0-22.0","5","[""img/0868/0d3abd3a-b6c3-4584-a9f7-e2da63748b3d.jpg"",""img/0868/4bd5105a-d2c3-4f82-8c80-57196106ba53.jpg""]","",""
"","12086","similarity","29","276245","0.0-6.0-23.0","2","[""img/0757/cb7ca802-27ac-4a1d-996f-bd21b96d6244.jpg"",""img/0756/350ac166-1deb-4399-89db-da6a7e827c4d.jpg""]","",""
"","3116","similarity","30","280366","0.0-6.0-24.0","7","[""img/0875/cff79b3a-a797-4393-9757-6275f999ec04.jpg"",""img/0875/2c361b79-c3d1-4eda-812e-bf03192407bf.jpg""]","",""
"","8110","similarity","31","289481","0.0-6.0-25.0","2","[""img/0761/a69897c1-1310-4bae-9a51-8b29cd9543dd.jpg"",""img/0866/d266fece-59b3-46fa-b69f-96f6efb81b59.jpg""]","",""
"","15142","similarity","32","305627","0.0-6.0-26.0","1","[""img/0866/9b38d691-1802-4959-ab3f-fc902f0e4ea6.jpg"",""img/0758/d41c06bf-ebaf-454b-91c6-1a17f917b659.jpg""]","",""
"","6855","similarity","33","313485","0.0-6.0-27.0","1","[""img/0758/d57c2592-a317-4f63-91be-91a3a9afd222.jpg"",""img/0875/5a1e5100-0d94-4fec-bbe9-ca9894d2cf8e.jpg""]","",""
"","4929","similarity","34","319418","0.0-6.0-28.0","1","[""img/0958/eea2b7ca-1c37-4e76-ada7-a8b1f3afdc01.jpg"",""img/0757/424b465f-ba69-4277-bc61-d3e95d136f80.jpg""]","",""
"","6177","similarity","35","326599","0.0-6.0-29.0","2","[""img/0873/1d1be182-3bb2-4efd-8543-d70b8db7beef.jpg"",""img/0883/5716bfb3-e86c-42fe-8afa-58d226cb1aaa.jpg""]","",""
"","5340","similarity","36","332944","0.0-6.0-30.0","5","[""img/0868/6a28c3b0-3d76-498a-9fb7-ddafc665eca8.jpg"",""img/0875/e7e66b13-b573-431e-b85e-288ce04a35a3.jpg""]","",""
"","4198","similarity","37","338147","0.0-6.0-31.0","1","[""img/0884/fb8b0101-bfd2-462b-a942-d3202a69dd18.jpg"",""img/0862/e8cc3bdf-cc43-4565-bccf-492626c70953.jpg""]","",""
"","4397","similarity","38","343547","0.0-6.0-32.0","1","[""img/0884/10c0a35b-e20a-4d75-a7c0-959a578d9ebf.jpg"",""img/0864/f92649a2-0590-4d31-9a7a-1bfb81666a2d.jpg""]","",""
"","10761","similarity","39","355316","0.0-6.0-33.0","2","[""img/0883/68a56098-91b8-4c40-8827-7808704aa1bc.jpg"",""img/0958/ef1b718f-ef8c-497f-80d7-42562aebf1a7.jpg""]","",""
"","3596","similarity","40","359918","0.0-6.0-34.0","1","[""img/0864/8ddd2e30-a1d0-479f-9cbe-591213023893.jpg"",""img/0756/b6e235f7-211b-4a2b-a7b8-393e5ec7351b.jpg""]","",""
"","4797","similarity","41","365724","0.0-6.0-35.0","2","[""img/0874/995f0332-0439-4eb4-add3-957335dbf6d9.jpg"",""img/0758/b76ceca7-95ac-46e4-ac13-da02c8e93be9.jpg""]","",""
"","6010","similarity","42","372741","0.0-6.0-36.0","1","[""img/0886/4d28f75a-a9c3-49dd-8aa8-00304af6e40b.jpg"",""img/0862/d0ca4c78-fc35-46ed-bdcc-8e124283c53e.jpg""]","",""
"","4207","similarity","43","377956","0.0-6.0-37.0","1","[""img/0862/99a99e39-8355-44ec-b993-e7bcec111e1c.jpg"",""img/0885/a4e5c564-1e5f-4fed-9f73-b8d1becf62b6.jpg""]","",""
"","6864","similarity","44","385827","0.0-6.0-38.0","1","[""img/0758/d540bee6-b460-4c32-ac57-bc282742d7d4.jpg"",""img/0864/b3c4e378-28f0-4699-9338-2a257b4bca04.jpg""]","",""
"","5781","similarity","45","392616","0.0-6.0-39.0","2","[""img/0873/c2a7452d-a271-4207-81ce-bda281dc0297.jpg"",""img/0867/6e19c858-b606-45b2-a4c6-910a73f1d82c.jpg""]","",""
"","4446","similarity","46","398067","0.0-6.0-40.0","1","[""img/0958/df7705da-e817-409f-8a93-05abef4b26c3.jpg"",""img/0884/3c61ea12-a408-47ce-98aa-b14e0f6d4591.jpg""]","",""
"","9567","similarity","47","2303842","0.0-6.0-41.0","6","[""img/0873/b76d7003-814d-42b0-9a16-1399c4b0e706.jpg"",""img/0873/c4b47588-9c66-4401-aefc-cf9481d5fa85.jpg""]","",""
"","5243","similarity","48","2310092","0.0-6.0-42.0","1","[""img/0886/625c7dfa-3fa1-4166-80f0-229eb416b04f.jpg"",""img/0758/821c68d3-5cb0-4eae-8659-30e6263fca39.jpg""]","",""
"","5276","similarity","49","2316375","0.0-6.0-43.0","4","[""img/0883/fc8cf4c9-003e-48c4-b222-8878ea2ae1c0.jpg"",""img/0874/ca23d307-fc00-4d7d-9106-584c6eb21b4d.jpg""]","",""
"","4127","similarity","50","2321507","0.0-6.0-44.0","2","[""img/0881/0c7068da-d0d9-4103-bda1-74ef7a2b32c3.jpg"",""img/0873/c3ff3b70-fb22-42f2-883c-3ecffd77cb4b.jpg""]","",""
"","3515","similarity","51","2326028","0.0-6.0-45.0","1","[""img/0867/cc72ed48-7704-422c-86d6-467a1145287a.jpg"",""img/0757/4f8ae92b-a4ab-4020-b4fb-80c5615e76ac.jpg""]","",""
"","5853","similarity","52","2332884","0.0-6.0-46.0","2","[""img/0866/be24ab58-230e-4db8-9f45-ff04c9aec6bb.jpg"",""img/0874/c0378dac-9370-439a-8b79-db27c96fb390.jpg""]","",""
"","3616","similarity","53","2337507","0.0-6.0-47.0","7","[""img/0886/d1e40478-2fe0-404f-8409-920da98a96a2.jpg"",""img/0886/abd8dd83-d8ee-4003-b4d2-b4045220a578.jpg""]","",""
"","3211","similarity","54","2341721","0.0-6.0-48.0","1","[""img/0883/6dcd54c3-64a3-4ed5-9149-d8b9aa1938c8.jpg"",""img/0860/b03b963d-949b-4d8d-b19c-4950c89eeca2.jpg""]","",""
"","2874","similarity","55","2345600","0.0-6.0-49.0","1","[""img/0860/9593362c-9fe5-4d12-9735-6000a11f6aa5.jpg"",""img/0756/792f9475-979d-4787-b7dc-8a0d02f6e25f.jpg""]","",""
"","3042","similarity","56","2349647","0.0-6.0-50.0","1","[""img/0860/c7047cd2-7cc1-41b6-8a34-c0986774975f.jpg"",""img/0757/8993d166-c8ae-43f6-b269-9e8bd3379d57.jpg""]","",""
"","3637","similarity","57","2354286","0.0-6.0-51.0","7","[""img/0756/314a157e-e6d3-4447-a98f-8fde8f810f0c.jpg"",""img/0756/96c1bf35-26b6-4428-b19d-bdb5efe1367a.jpg""]","",""
"","6989","similarity","58","2362279","0.0-6.0-52.0","1","[""img/0875/f87b67d7-c33e-40d1-b281-248c4be1cb6e.jpg"",""img/0866/11a1d141-be5e-443c-98c1-a9d4d9e3dec0.jpg""]","",""
"","2819","similarity","59","2366103","0.0-6.0-53.0","1","[""img/0756/403d0540-b812-446f-bb5a-e8030be0a02f.jpg"",""img/0758/335851a0-a55b-46d8-ab05-8463eda48349.jpg""]","",""
"","2543","similarity","60","2369650","0.0-6.0-54.0","1","[""img/0761/8e379ec1-757d-4427-a0ff-d4efdd6a50c4.jpg"",""img/0884/d9185264-7f01-43b2-be7f-eed1a0f0f2e8.jpg""]","",""
"","4092","similarity","61","2374745","0.0-6.0-55.0","1","[""img/0760/1912c0dc-64a7-4c32-8d67-baf5e8752270.jpg"",""img/0867/de92135f-5b65-4ed9-b245-188292c7c2f8.jpg""]","",""
"","3975","similarity","62","2379726","0.0-6.0-56.0","1","[""img/0866/f756f7d1-9ad8-4a34-9ef6-7a443d705bfe.jpg"",""img/0884/3613aeb4-0028-4205-aea0-1ea28cb1f80e.jpg""]","",""
"","3198","similarity","63","2383928","0.0-6.0-57.0","1","[""img/0756/85a63773-50ff-441d-b259-1e335100a9d0.jpg"",""img/0761/aebad236-1f4a-4bc2-a74d-d92b7e226316.jpg""]","",""
"","2361","similarity","64","2387294","0.0-6.0-58.0","1","[""img/0867/5e07b34d-b40f-4b1c-ac10-49975bace45f.jpg"",""img/0860/94ef7afc-e0e6-4a15-98c6-0bfac82bc832.jpg""]","",""
"","8696","similarity","65","2396993","0.0-6.0-59.0","4","[""img/0881/d1982897-8d8d-4704-a940-1ee5d07a1f15.jpg"",""img/0758/3ddd05d3-557e-4ee7-8b78-9d2d681d8ae2.jpg""]","",""
"","4130","similarity","66","2402125","0.0-6.0-60.0","3","[""img/0761/71d2e184-21b4-4711-97f3-e381c641da2c.jpg"",""img/0758/e1ba5e53-addc-436a-b428-d34fc1b130dc.jpg""]","",""
"","4713","similarity","67","2407846","0.0-6.0-61.0","1","[""img/0958/5a91b0e8-8f60-4625-b88c-d6e55b4d7d93.jpg"",""img/0875/34132396-d896-4c2d-8087-646dd867e769.jpg""]","",""
"","2661","similarity","68","2411513","0.0-6.0-62.0","1","[""img/0886/bd45b474-5559-4ea5-83ff-140bce19f5fa.jpg"",""img/0864/6e846d43-94a6-4b37-a268-65eda979f052.jpg""]","",""
"","3840","similarity","69","2416361","0.0-6.0-63.0","1","[""img/0756/00b775eb-fe41-49b2-92e9-a9955cf1042b.jpg"",""img/0874/a82926a3-0b43-4add-803c-d5f9ea7798ee.jpg""]","",""
"","2206","similarity","70","2419572","0.0-6.0-64.0","1","[""img/0758/6e95579b-5166-487c-b8cb-e417c6a218e3.jpg"",""img/0885/d2276b26-e91a-4f19-a818-cbeb297ed884.jpg""]","",""
"","2714","similarity","71","2423290","0.0-6.0-65.0","1","[""img/0760/317fc071-99e6-43cb-9099-2e50aa79ccc2.jpg"",""img/0958/1812c506-727b-43a7-882e-4729742e41fc.jpg""]","",""
"","3628","similarity","72","2427921","0.0-6.0-66.0","3","[""img/0884/ee845634-cd54-4c06-95a9-962122ef8712.jpg"",""img/0881/19e82c47-8e4b-45d2-a6c8-74181eb4155e.jpg""]","",""
"","4237","similarity","73","2433162","0.0-6.0-67.0","1","[""img/0864/87c467d3-abca-482f-ad80-3766c21b1bb3.jpg"",""img/0873/90b702a6-3dba-446a-9bba-a2ee096baf49.jpg""]","",""
"","3676","similarity","74","2437842","0.0-6.0-68.0","1","[""img/0862/f43ceabf-acc1-4107-b857-5d1849808f93.jpg"",""img/0758/dd559618-7f09-4a07-8018-d311c4a5ea29.jpg""]","",""
"","2569","similarity","75","2441417","0.0-6.0-69.0","7","[""img/0757/014ee4a8-8069-4b08-ac1c-04230da90244.jpg"",""img/0757/b46cab21-50e3-4f19-803d-682627bcd6a6.jpg""]","",""
"","6497","similarity","76","2448919","0.0-6.0-70.0","5","[""img/0860/8277806e-b684-4474-8f7b-3fca946d7d4f.jpg"",""img/0862/53a9cf7c-93c4-41b9-952f-07d17f7a17b2.jpg""]","",""
"","4894","similarity","77","2454816","0.0-6.0-71.0","1","[""img/0860/8fdba999-b946-4c7d-9891-336018b563ef.jpg"",""img/0884/7f9cc898-36bc-49ec-8b1a-01065d9c0062.jpg""]","",""
"","6951","similarity","78","2462772","0.0-6.0-72.0","1","[""img/0883/903939ef-a67c-40d3-841d-52555815cd88.jpg"",""img/0866/a15b02be-11bb-43e3-b0e0-ecc3bd7dfc49.jpg""]","",""
"","3364","similarity","79","2467144","0.0-6.0-73.0","1","[""img/0866/a04d37f0-99dd-478a-b6c6-58b215138f84.jpg"",""img/0886/451550d7-6ff9-42b5-938c-9e20ee960bf6.jpg""]","",""
"","6136","similarity","80","2474286","0.0-6.0-74.0","2","[""img/0958/bb684a39-afef-4125-9f70-b5ad830ba316.jpg"",""img/0761/014e76d0-fb4e-4b40-901c-7a2d5655c3b0.jpg""]","",""
"","3156","similarity","81","2478447","0.0-6.0-75.0","1","[""img/0875/a4935837-7d3c-4df6-88c1-36a94d4991ca.jpg"",""img/0756/321ae2a8-5dd4-4b23-b1e4-202e0b7c0b02.jpg""]","",""
"","3747","similarity","82","2483199","0.0-6.0-76.0","1","[""img/0958/ebea41e3-9d65-4f5e-981a-92daaaad0d57.jpg"",""img/0885/a8cbb477-19ef-45ef-8f48-9667aec40bd1.jpg""]","",""
"","6744","similarity","83","2490950","0.0-6.0-77.0","1","[""img/0868/e0aff734-077f-40dd-9781-74821abd3621.jpg"",""img/0883/cc3df660-426e-452e-ac50-3a3b09dc4b65.jpg""]","",""
"","5183","similarity","84","2497140","0.0-6.0-78.0","1","[""img/0862/92f0146c-20c4-482e-aef5-adb693790338.jpg"",""img/0760/dfa71fdd-ddff-4827-a999-d5e599dd5679.jpg""]","",""
"","3544","similarity","85","2501688","0.0-6.0-79.0","4","[""img/0885/1cd940ef-9720-4a04-8fa1-1dd3a39ecdd6.jpg"",""img/0761/9199a691-d36e-4ece-a815-078384ea6f06.jpg""]","",""
"","6270","similarity","86","2508960","0.0-6.0-80.0","1","[""img/0862/eefa5588-9efd-4591-aa5f-a2e17c7d7bcc.jpg"",""img/0864/6f631579-acf1-415c-a42c-1207f62a8d99.jpg""]","",""
"","4045","similarity","87","2514009","0.0-6.0-81.0","7","[""img/0758/61d64021-9214-4951-bdf8-f871f9827cf9.jpg"",""img/0758/e38fd80d-18d0-42f3-b848-f930788e8bd7.jpg""]","",""
"","3477","similarity","88","2518491","0.0-6.0-82.0","1","[""img/0862/cdaed51d-9e2f-4807-801a-4663c40077e2.jpg"",""img/0873/87f38f18-48a2-4de3-b24b-70630e8b6ca0.jpg""]","",""
"","3050","similarity","89","2530282","0.0-6.0-83.0","1","[""img/0760/a24659cd-f862-42cc-b43a-7ba8eae0c2c0.jpg"",""img/0757/a3620c04-efdc-4b42-940c-806958d1351e.jpg""]","",""
"","4279","similarity","90","2535565","0.0-6.0-84.0","1","[""img/0867/db7e032f-162b-46f5-ae67-2b29679adee4.jpg"",""img/0881/84397291-bc14-4fbf-90e8-241e486ab0fe.jpg""]","",""
"","3615","similarity","91","2540186","0.0-6.0-85.0","1","[""img/0885/5a47e19f-19b4-4545-bf47-b508cb65da6a.jpg"",""img/0886/42cccc64-05f9-4afd-bc93-496ba50a4342.jpg""]","",""
"","2409","similarity","92","2543601","0.0-6.0-86.0","1","[""img/0866/0207e9a2-7dbb-40b5-9459-b472aaeceb2a.jpg"",""img/0864/3651d070-2fc5-4848-b6a6-088a2d9ac5c9.jpg""]","",""
"","3834","similarity","93","2548442","0.0-6.0-87.0","4","[""img/0874/767f289c-9814-4496-803f-745cc8913d1f.jpg"",""img/0881/20af39f5-373d-4a55-a437-2dc4c0382c46.jpg""]","",""
"","4680","similarity","94","2554124","0.0-6.0-88.0","1","[""img/0866/02f5e6b9-52b7-448c-9708-5b460d0c9a23.jpg"",""img/0760/4c78b78c-193e-4a1e-8bb2-394add325fda.jpg""]","",""
"","4021","similarity","95","2559149","0.0-6.0-89.0","1","[""img/0867/a749dddb-69f0-44a6-acdc-2bf295cf6dcc.jpg"",""img/0884/7ae02e9d-46a4-4124-bcc2-cad90d7ef9f9.jpg""]","",""
"","2883","similarity","96","2563037","0.0-6.0-90.0","1","[""img/0757/31d8ee3d-1b79-4d6a-9347-f91c87c00f92.jpg"",""img/0862/847e5208-38ec-4f36-949c-296cdd7424ee.jpg""]","",""
"","2433","similarity","97","2566477","0.0-6.0-91.0","1","[""img/0867/c66898ba-b71b-4d50-84f9-f7f84853a98d.jpg"",""img/0761/a74c99e4-d9ed-42cd-9e83-8d525cb6a9a2.jpg""]","",""
"","2347","similarity","98","2569828","0.0-6.0-92.0","1","[""img/0868/15dd6fd7-791e-4b53-b203-195d617521a4.jpg"",""img/0958/644719ec-1690-4af2-a63f-0b6467c3791e.jpg""]","",""
"","5352","similarity","99","2576188","0.0-6.0-93.0","2","[""img/0874/99f6563c-8a8d-4c1c-a41d-667b618c3fd5.jpg"",""img/0864/5f33e097-23e3-4002-882d-76e8cb15f451.jpg""]","",""
"","4016","similarity","100","2581209","0.0-6.0-94.0","1","[""img/0760/1c96ffb7-17db-4253-b66c-59250977c88b.jpg"",""img/0873/7dddc95f-ca6e-4d15-99a0-0e329ec6888e.jpg""]","",""
"","14992","similarity","101","2597207","0.0-6.0-95.0","6","[""img/0868/1a62b2b2-18f5-466e-b564-5176a57c565e.jpg"",""img/0873/d39b1731-1669-4c96-b5c6-682b30e287ee.jpg""]","",""
"","2362","similarity","102","2600575","0.0-6.0-96.0","1","[""img/0860/17b44a7d-c5ca-479f-9e87-f65a64f5c80e.jpg"",""img/0761/6b42b402-9e0f-4179-9e10-660b2c07626b.jpg""]","",""
"","5021","similarity","103","2606601","0.0-6.0-97.0","1","[""img/0862/f188d4f0-76a4-4102-818c-a209969d73a5.jpg"",""img/0883/6884954b-873e-4d6f-9b4b-95d158e0de6c.jpg""]","",""
"","2716","similarity","104","2610323","0.0-6.0-98.0","1","[""img/0757/91a048c0-e749-433b-9147-0c671dc5b4ca.jpg"",""img/0884/0b4cf8d4-4c8f-4312-a794-f99e01679176.jpg""]","",""
"","2042","similarity","105","2613369","0.0-6.0-99.0","1","[""img/0867/8ba0c5a7-c7e4-42cf-a80a-543763b90779.jpg"",""img/0756/caa9655d-9f7e-420d-a757-6af4985d335a.jpg""]","",""
"","2707","similarity","106","2617080","0.0-6.0-100.0","1","[""img/0958/6e602e13-8029-4642-bce0-8deffd0dc686.jpg"",""img/0756/7a83dec0-4724-4efc-9fbf-52a30b5acd99.jpg""]","",""
"","3119","similarity","107","2621206","0.0-6.0-101.0","7","[""img/0760/9ddd6958-7349-45d6-b5bc-4a5911960c35.jpg"",""img/0760/111aecf1-147c-4227-90e0-9ed3a75e4e16.jpg""]","",""
"","3019","similarity","108","2625230","0.0-6.0-102.0","1","[""img/0873/6110910a-7895-4b6a-af51-12486a4595a3.jpg"",""img/0875/3ecb367d-e9eb-4826-8aaa-7aa72fb98019.jpg""]","",""
"","2636","similarity","109","2628870","0.0-6.0-103.0","7","[""img/0884/5085d424-b3f5-461b-a1c7-f7ca55abcf4f.jpg"",""img/0884/13db1f36-8c9f-4b28-8426-04eaa9fba737.jpg""]","",""
"","2903","similarity","110","2632778","0.0-6.0-104.0","1","[""img/0873/b1e2e09f-ad9a-433e-818f-56dd2f1cb09c.jpg"",""img/0885/1e66fe61-15d5-42b1-86aa-dbfd13613f5c.jpg""]","",""
"","2549","similarity","111","2636330","0.0-6.0-105.0","1","[""img/0883/387a9e30-7d95-483e-af34-c8262f62385f.jpg"",""img/0875/ebf7653f-ff45-4e9f-af58-2c042ab3cd2b.jpg""]","",""
"","2312","similarity","112","2639645","0.0-6.0-106.0","1","[""img/0864/9b2490c5-a282-400a-9736-e1a0ecbf1cb7.jpg"",""img/0867/12264664-1860-46df-8c21-162b9817cdda.jpg""]","",""
"","4397","similarity","113","2645048","0.0-6.0-107.0","1","[""img/0958/58b7811e-d3f6-4e4d-befb-86e063d13a43.jpg"",""img/0860/61fb959d-d4d9-4de4-9e4e-4fa62b4cfcd5.jpg""]","",""
"","8303","similarity","114","2654357","0.0-6.0-108.0","2","[""img/0885/5225e532-2812-41d9-8ef0-0fbfc612784e.jpg"",""img/0756/76516e04-06c4-4108-9130-fa84d688f55a.jpg""]","",""
"","4240","similarity","115","2659603","0.0-6.0-109.0","1","[""img/0883/122548fc-b3cc-445b-b7c0-04794df6d11d.jpg"",""img/0885/517a9189-9623-4ed7-a37e-48788791e028.jpg""]","",""
"","6873","similarity","116","2667480","0.0-6.0-110.0","7","[""img/0867/85a96c62-548f-4994-9553-819e03c3135a.jpg"",""img/0867/f8159067-056c-41f1-a136-c529fe5e970a.jpg""]","",""
"","13252","similarity","117","2681736","0.0-6.0-111.0","3","[""img/0881/667e2147-d457-4f32-aa5f-6ab86e5848f1.jpg"",""img/0760/4f024637-f98a-409a-baa0-fc4989d80667.jpg""]","",""
"","3091","similarity","118","2685832","0.0-6.0-112.0","1","[""img/0881/f4e3e181-b3c9-4af2-a5a4-fc135ab70d2e.jpg"",""img/0868/09a9ef4d-d000-4cfa-a6aa-ebec7c2edeb4.jpg""]","",""
"","4359","similarity","119","2691194","0.0-6.0-113.0","1","[""img/0875/8521fd58-3b1e-4dc5-97ae-804edfa6734a.jpg"",""img/0761/af21c992-a721-45fb-bee7-f50c0f676c30.jpg""]","",""
"","4704","similarity","120","2696901","0.0-6.0-114.0","2","[""img/0756/d0f1b906-d8e0-4528-9d08-90cec14838ec.jpg"",""img/0866/620cd1aa-0800-4414-8f6e-90342e7a99ad.jpg""]","",""
"","2921","similarity","121","2700825","0.0-6.0-115.0","1","[""img/0884/989ec8e3-5e41-4055-b0b5-3d65b9c44917.jpg"",""img/0886/9f186bd5-d48b-4cc2-9206-be67c392faa9.jpg""]","",""
"","4483","similarity","122","2706311","0.0-6.0-116.0","1","[""img/0756/ca2a8f93-ed77-45c8-a3a3-22324aa28501.jpg"",""img/0881/44e09805-5a25-4f17-a716-4ad4a331b174.jpg""]","",""
"","2526","similarity","123","2709840","0.0-6.0-117.0","1","[""img/0760/a97cc3a7-3e6e-423e-ac87-e1d1ab280ae9.jpg"",""img/0875/2e13d160-eea1-416b-aff1-d37ab99ecc1d.jpg""]","",""
"","4194","similarity","124","2715039","0.0-6.0-118.0","1","[""img/0958/b11515b3-5f04-4c3e-be00-56a05c6c3e96.jpg"",""img/0866/945c6710-d15b-4a5b-a8f6-69af0850357f.jpg""]","",""
"","2665","similarity","125","2718711","0.0-6.0-119.0","1","[""img/0867/f26f6b60-f772-4f4c-95a4-addc62cfd692.jpg"",""img/0874/ca76a855-4e77-4f2f-872a-0a718153e7ed.jpg""]","",""
"","2549","similarity","126","2722263","0.0-6.0-120.0","1","[""img/0883/1f394dd2-551c-4c8b-af82-f6a6fbe567bb.jpg"",""img/0757/acda7aee-6b29-463f-bf01-0d64d6a6ae2b.jpg""]","",""
"","2799","similarity","127","2726064","0.0-6.0-121.0","1","[""img/0874/29830da7-be5f-44e5-b141-652a0ccf7269.jpg"",""img/0886/9b0bffbe-9237-404d-a0ba-a1982e0814c7.jpg""]","",""
"","3318","similarity","128","2730389","0.0-6.0-122.0","1","[""img/0873/226317e0-f0e7-42ea-907b-058cb1ad519a.jpg"",""img/0761/e18d2113-1ed1-4a80-8171-4be5ee28d343.jpg""]","",""
"","2426","similarity","129","2733821","0.0-6.0-123.0","1","[""img/0875/d59ff733-eaff-4ee2-9443-06954dd0bcb6.jpg"",""img/0884/37ee4afa-34a0-4da2-bdb0-fcaff43dcdb6.jpg""]","",""
"","3257","similarity","130","2738082","0.0-6.0-124.0","1","[""img/0757/c05f53f3-811c-4a3b-b848-a27b80b8fd53.jpg"",""img/0868/7b212364-ff5f-4e28-9241-7eb6ea00161b.jpg""]","",""
"","3357","similarity","131","2755856","0.0-6.0-125.0","1","[""img/0886/aef00ed5-e288-47bf-b31e-512d7e762ea2.jpg"",""img/0883/daaa1a6f-c322-46f6-b6a6-db2c9496d710.jpg""]","",""
"","4253","similarity","132","2761115","0.0-6.0-126.0","1","[""img/0868/8b0b8473-e2c0-4331-aa56-c3a5c29369da.jpg"",""img/0760/cbd28974-989a-49dd-b631-42de146d7e6f.jpg""]","",""
"","4552","similarity","133","2766672","0.0-6.0-127.0","7","[""img/0881/7e822106-76f7-4b10-a805-14dc68b2cfaf.jpg"",""img/0881/609a5e93-38b5-4940-8627-2bf8fad7f802.jpg""]","",""
"","3021","similarity","134","2770698","0.0-6.0-128.0","1","[""img/0760/c7d43bfd-465f-4f4e-8dc1-ae4cd3d2c1de.jpg"",""img/0860/702bd09d-df3a-40aa-a267-5f04474305b5.jpg""]","",""
"","3061","similarity","135","2774767","0.0-6.0-129.0","1","[""img/0864/66091c27-e588-4476-8af9-265dc6be4156.jpg"",""img/0885/62bd11a8-7059-4cc2-b06d-4700688b313f.jpg""]","",""
"","2532","similarity","136","2778306","0.0-6.0-130.0","1","[""img/0864/0f537697-a314-47c3-a8cc-8df23b7e536c.jpg"",""img/0757/417763f8-6fe7-44f2-acaa-613a44f20835.jpg""]","",""
"","2433","similarity","137","2781742","0.0-6.0-131.0","1","[""img/0760/7f35fc6a-c21f-4f42-81c5-92ced38d82f8.jpg"",""img/0883/02f50df0-eb8c-4e17-836a-c89ddb1c04e1.jpg""]","",""
"","2681","similarity","138","2785428","0.0-6.0-132.0","7","[""img/0885/c840cf2c-c95d-4a08-b3c2-044d1ea946a7.jpg"",""img/0885/24afeefb-f7b3-4e8f-a5b9-17cc00fd22e3.jpg""]","",""
"","3220","similarity","139","2789652","0.0-6.0-133.0","1","[""img/0860/4c530c3c-6aab-492a-94d1-9c01797bde40.jpg"",""img/0868/4e626425-63c8-484a-8a1d-e66ee4e0bef8.jpg""]","",""
"","6471","similarity","140","2797129","0.0-6.0-134.0","2","[""img/0867/50a1b60e-3a29-44bf-b606-d4bd3746fea9.jpg"",""img/0886/789f5d23-84b8-499a-ae1e-20c6309a06ae.jpg""]","",""
"","5302","similarity","141","2803436","0.0-6.0-135.0","2","[""img/0756/b7869208-7169-455d-835f-31926317dd95.jpg"",""img/0886/e5903946-897c-4420-87c0-afee4100305c.jpg""]","",""
"","3746","similarity","142","2808185","0.0-6.0-136.0","1","[""img/0884/9b1b7885-1502-448f-9b20-ddc19aa5456f.jpg"",""img/0868/293079b8-7e0c-4afd-a390-1e5d35fe3ded.jpg""]","",""
"","5457","similarity","143","2814645","0.0-6.0-137.0","7","[""img/0958/86d1a76d-f067-4e36-9ab5-13da78c97c0e.jpg"",""img/0958/7168f8d3-e3ae-405a-93d0-64836d899932.jpg""]","",""
"","4662","similarity","144","2820311","0.0-6.0-138.0","1","[""img/0886/7164ac42-460f-4beb-9d5e-a1cfded3099c.jpg"",""img/0873/0d9b4403-7f26-46dc-b0b7-2b97b0a91b46.jpg""]","",""
"","2969","similarity","145","2824284","0.0-6.0-139.0","1","[""img/0758/7ffbc76b-1fc1-432c-8f7e-9ec8d1b3f643.jpg"",""img/0873/b509aa81-b1d7-4d50-8aef-9c7b725c3157.jpg""]","",""
"","3474","similarity","146","2828761","0.0-6.0-140.0","1","[""img/0873/33552b07-bdb8-423e-88b4-25a37f159c6d.jpg"",""img/0756/b8d6aa83-8673-4e0d-be72-b3da2bae7a6d.jpg""]","",""
"","2886","similarity","147","2832653","0.0-6.0-141.0","1","[""img/0868/83b4350a-3b70-4cea-b7f5-b5b56f3050a8.jpg"",""img/0862/e0f1a4e9-e1b6-45f7-af67-89f334e6630d.jpg""]","",""
"","4388","similarity","148","2838045","0.0-6.0-142.0","1","[""img/0881/db77fe00-aeb0-4d1d-aa66-f3a96fd077e4.jpg"",""img/0862/ba89835a-408c-480b-8594-ed4ffa97eb5c.jpg""]","",""
"","3589","similarity","149","2842641","0.0-6.0-143.0","1","[""img/0885/21b241a1-95da-4306-9cf2-cc52a784214a.jpg"",""img/0867/ac1797e4-8afc-48fe-b252-86d1defb1cca.jpg""]","",""
"","4413","similarity","150","2848060","0.0-6.0-144.0","7","[""img/0883/ff85a2f1-14b1-4b7e-9c87-887151d97e01.jpg"",""img/0883/cc2bb2c6-18f1-414f-98cc-6cd683173ce4.jpg""]","",""
"","6605","similarity","151","2855669","0.0-6.0-145.0","1","[""img/0874/3ce41e7c-40c8-4d58-a546-171114521796.jpg"",""img/0873/a234d5d1-09ea-4594-9a0f-d569da31dbdb.jpg""]","",""
"","3720","similarity","152","2860394","0.0-6.0-146.0","1","[""img/0757/1fd9dcb9-e489-4708-b518-f356d3f5481d.jpg"",""img/0758/eabcd7a8-56ad-4fd2-bc24-90f6b7b33265.jpg""]","",""
"","3066","similarity","153","2864463","0.0-6.0-147.0","1","[""img/0883/00d89148-b7d4-49d2-831a-2eee070a85a4.jpg"",""img/0756/04655068-a9fc-49d9-b2f4-21e4d42b7903.jpg""]","",""
"","6125","similarity","154","2871595","0.0-6.0-148.0","6","[""img/0867/a498eef3-9fa4-4ab2-9778-4ae82ac40dc5.jpg"",""img/0866/07c9c966-3c8d-40e7-8128-92b2acbaed5d.jpg""]","",""
"","4646","similarity","155","2877245","0.0-6.0-149.0","4","[""img/0758/f61ecdf8-a7d4-4db0-b84d-be46f7cfaffc.jpg"",""img/0760/39d75e1e-0645-4f23-a2ca-3bbefac19d69.jpg""]","",""
"","5304","similarity","156","2883555","0.0-6.0-150.0","1","[""img/0757/8fdf4047-c2dc-42bc-9724-c35bd113f1dc.jpg"",""img/0761/ff3e024b-951d-4aca-a168-c09c6507525d.jpg""]","",""
"","5063","similarity","157","2889622","0.0-6.0-151.0","3","[""img/0761/5747fedf-15f2-47fe-87c8-ff646dd66a5f.jpg"",""img/0874/adf9a8f1-c40b-402b-b95b-1e85a54a7b62.jpg""]","",""
"","7739","similarity","158","2898367","0.0-6.0-152.0","2","[""img/0761/1725cacb-5f86-4b47-a5c0-3c36cd981588.jpg"",""img/0760/191d8576-9ed7-4798-a486-66a7fd600e58.jpg""]","",""
"","5480","similarity","159","2904851","0.0-6.0-153.0","7","[""img/0866/386235d2-6857-41e7-88a8-25cfc3430025.jpg"",""img/0866/93a27239-8317-4e08-98ca-d8b1ff298e07.jpg""]","",""
"","3869","similarity","160","2909724","0.0-6.0-154.0","1","[""img/0866/6f2a90d7-14f1-4f1b-bd64-fc0af6b9fe44.jpg"",""img/0862/de9ad88c-b522-430a-8ee9-eb06a9f85df5.jpg""]","",""
"","3377","similarity","161","2914105","0.0-6.0-155.0","1","[""img/0756/fd9b5e61-3674-448f-867a-29769dc8f07d.jpg"",""img/0862/064818ee-13d5-4618-bb24-21c7368ea278.jpg""]","",""
"","3244","similarity","162","2918354","0.0-6.0-156.0","1","[""img/0860/99c589b9-9140-4d17-90c0-b344323edcda.jpg"",""img/0866/4a87911a-d5be-4d4e-ab8e-3d1f581bf507.jpg""]","",""
"","2916","similarity","163","2922273","0.0-6.0-157.0","1","[""img/0862/f23038d4-c366-4f70-979f-66b62362efa4.jpg"",""img/0958/e9e2cc42-eb3b-4c91-8112-a517305c15f0.jpg""]","",""
"","2781","similarity","164","2926057","0.0-6.0-158.0","1","[""img/0761/00a8e7ae-d8da-4cba-8969-1dfb943a2aa2.jpg"",""img/0868/d6d1f30d-4323-435a-b194-7892521bc57e.jpg""]","",""
"","3146","similarity","165","2930207","0.0-6.0-159.0","1","[""img/0761/89d3b943-cd14-4786-a7b8-0e9a695cf0e3.jpg"",""img/0886/97243e18-4dba-4af8-b49f-b3b635c90ac4.jpg""]","",""
"","3250","similarity","166","2934463","0.0-6.0-160.0","1","[""img/0874/2c9464dd-8a23-4baa-ac94-1ba3af5c15cc.jpg"",""img/0868/77091fc7-a590-4ebb-b915-fdb2483a2399.jpg""]","",""
"","2772","similarity","167","2938240","0.0-6.0-161.0","1","[""img/0860/87039971-2210-4aab-93c0-8e9b5f1655b2.jpg"",""img/0874/a3bc679d-619f-4db6-bb68-116dcb757d9c.jpg""]","",""
"","2835","similarity","168","2942080","0.0-6.0-162.0","1","[""img/0883/ab9b6977-0cdc-47a2-b180-494a5be181b2.jpg"",""img/0867/aa05d113-fc19-4756-a8eb-7878f580bc92.jpg""]","",""
"","7519","similarity","169","2950602","0.0-6.0-163.0","4","[""img/0758/65d426d6-3ff6-415d-8654-a43b83ecc4fe.jpg"",""img/0958/54f27d86-00c0-46b2-b2c9-050c9cc60fe0.jpg""]","",""
"","5665","similarity","170","2957270","0.0-6.0-164.0","2","[""img/0873/841d6549-01d2-4ebd-8d67-25d219876178.jpg"",""img/0757/cd7fd185-981f-477a-ba00-a0f65bcfd0e9.jpg""]","",""
"","3744","similarity","171","2962023","0.0-6.0-165.0","2","[""img/0873/ec150e40-b3ec-4dfe-ab38-bb3f248a1175.jpg"",""img/0866/bf14b5bd-fb55-47db-86b9-4f8aeb9a6dad.jpg""]","",""
"","5497","similarity","172","2968527","0.0-6.0-166.0","2","[""img/0875/90da8d75-108a-44ad-b999-e21fee3860d3.jpg"",""img/0867/f8488a47-94ee-4166-952c-44e16cf172f6.jpg""]","",""
"","4926","similarity","173","2977476","0.0-6.0-167.0","7","[""img/0862/7918ca67-5bd3-4606-a5ea-c39fb11a9297.jpg"",""img/0862/a0a3a7ba-7798-46a3-b4ca-05e1f6e581d0.jpg""]","",""
"","4147","similarity","174","2982630","0.0-6.0-168.0","1","[""img/0875/5a716432-c6ca-4b1c-955a-2b8ac25198ee.jpg"",""img/0886/0f9715c1-b2e4-418e-bf9b-126cc9e70dc6.jpg""]","",""
"","3363","similarity","175","2987003","0.0-6.0-169.0","2","[""img/0885/6873c613-5e40-42ff-a5b6-443b6b626ae2.jpg"",""img/0875/03c3c331-738b-4446-af92-3d7386b08c2e.jpg""]","",""
"","2974","similarity","176","2990983","0.0-6.0-170.0","1","[""img/0862/fad1d7c1-8187-43c3-942a-0fc12183e48e.jpg"",""img/0867/26611f4e-d694-4460-b7e2-43c62753ddc3.jpg""]","",""
"","4996","similarity","177","2996981","0.0-6.0-171.0","1","[""img/0884/baabff07-71d8-424e-ac29-644768380941.jpg"",""img/0873/b02f9cce-7f58-4f1b-baed-50fee9f0a21f.jpg""]","",""
"","4625","similarity","178","3002612","0.0-6.0-172.0","1","[""img/0873/ac86dbfd-0442-4dec-9d10-37d7093f5a52.jpg"",""img/0958/9be61b1d-099b-432a-ae0e-2aa69e157c0e.jpg""]","",""
"","2725","similarity","179","3006344","0.0-6.0-173.0","1","[""img/0868/d98ca254-b195-477f-b57e-5760a2717db8.jpg"",""img/0758/67c0be2f-9e91-48b3-8219-70ac0a1802fa.jpg""]","",""
"","4728","similarity","180","3012075","0.0-6.0-174.0","1","[""img/0757/ec40956b-ed8b-4970-b87f-9b7c25cd5be6.jpg"",""img/0874/31e22c7c-99aa-40b1-bf03-dd73fa2df4d6.jpg""]","",""
"","2669","similarity","181","3015751","0.0-6.0-175.0","1","[""img/0958/ba5ed153-96de-4f61-b7d9-87a478c8972c.jpg"",""img/0867/7d1c497b-c1b3-4ed8-abb5-d7f73306015f.jpg""]","",""
"","6192","similarity","182","3022946","0.0-6.0-176.0","2","[""img/0874/85eb9b8a-c4c6-4e5a-b8e7-363a87a82054.jpg"",""img/0760/e697857f-b21d-4c49-8cde-1b803b437311.jpg""]","",""
"","2634","similarity","183","3026583","0.0-6.0-177.0","1","[""img/0873/d74e4aa9-420d-48a3-a42f-30a3481536ae.jpg"",""img/0860/4a022222-056d-461c-ab02-39fac9647552.jpg""]","",""
"","8262","similarity","184","3035849","0.0-6.0-178.0","6","[""img/0881/c24f3051-eefa-42de-aba6-fccb56d93c70.jpg"",""img/0883/46d6b8ad-7f31-441e-92d2-0cc16d3d99ce.jpg""]","",""
"","4016","similarity","185","3040869","0.0-6.0-179.0","1","[""img/0886/c6c81122-f4bf-46f4-968b-167f8ed0cab3.jpg"",""img/0958/fd950403-e452-4018-8207-a9714addcd75.jpg""]","",""
"","6285","similarity","186","3048161","0.0-6.0-180.0","1","[""img/0864/e8bd659f-aa43-4748-877e-3118e8b4e189.jpg"",""img/0883/3b1366c6-7baa-4ad2-889c-1ff9c3b379c9.jpg""]","",""
"","2819","similarity","187","3051985","0.0-6.0-181.0","1","[""img/0756/1f40b002-ee9a-43c3-9506-ef79c513207d.jpg"",""img/0868/4a8a45ed-2c4f-421b-9564-409a33ecd26c.jpg""]","",""
"","3410","similarity","188","3056402","0.0-6.0-182.0","1","[""img/0884/e275ab3e-0948-43c3-8be7-a75271922185.jpg"",""img/0758/ddc336e9-a8b6-4bb9-937a-c7e25e0e9250.jpg""]","",""
"","5435","similarity","189","3062841","0.0-6.0-183.0","1","[""img/0875/527ced51-8e53-4aab-ab05-86df219104c0.jpg"",""img/0874/eba003b4-cdab-4eee-8bc3-f064c7d94165.jpg""]","",""
"","6622","similarity","190","3070470","0.0-6.0-184.0","6","[""img/0867/075e0f95-856b-4cbb-acf5-092393aaf04e.jpg"",""img/0868/5fa7f9d0-f0e5-454c-8224-74d964818f56.jpg""]","",""
"","3605","similarity","191","3075080","0.0-6.0-185.0","1","[""img/0881/445edb15-bd7f-4af3-8bd5-c6ad9677bb31.jpg"",""img/0885/eb5e4557-1792-49c3-8871-16afa58f3a28.jpg""]","",""
"","6879","similarity","192","3082963","0.0-6.0-186.0","5","[""img/0864/c3b63e8f-ea39-4d70-a1f2-b3fe4be8eb75.jpg"",""img/0761/47960f80-42b7-4397-a852-ec55d716c652.jpg""]","",""
"","3511","similarity","193","3087484","0.0-6.0-187.0","1","[""img/0885/4fd0aafb-6cc0-43d6-993a-c55a6e18a7ba.jpg"",""img/0874/bf14b896-e930-4fd9-9c05-2e83317a2773.jpg""]","",""
"","2506","similarity","194","3090996","0.0-6.0-188.0","1","[""img/0758/a085b443-b5d7-4cb2-9ad4-b9dab0fc23f1.jpg"",""img/0867/179ab87a-8eac-4c52-a41f-2e48e3120f09.jpg""]","",""
"","2154","similarity","195","3094155","0.0-6.0-189.0","1","[""img/0756/8fdfa93c-88d0-4311-be2d-7f799fcaa8de.jpg"",""img/0884/a8f7b854-0010-4c7a-a8fb-b1b1dc1f1ba1.jpg""]","",""
"","2631","similarity","196","3097791","0.0-6.0-190.0","1","[""img/0761/07f8178b-8ce5-42d6-bca0-a0ae0e0e8eb3.jpg"",""img/0862/1c20f772-3a51-4a80-aac0-f57dc9f86c28.jpg""]","",""
"","3210","similarity","197","3102005","0.0-6.0-191.0","1","[""img/0860/71e1aad0-2cdf-43bb-94a4-a8c016997c30.jpg"",""img/0886/b8648eb5-de71-41ab-825d-848e51be8c1b.jpg""]","",""
"","3296","similarity","198","3106305","0.0-6.0-192.0","1","[""img/0760/7cdb34e4-0556-4bf7-9a6f-05990a92e0f3.jpg"",""img/0885/fce9f22a-f769-477c-acee-a5ad8214f0a5.jpg""]","",""
"","3675","similarity","199","3110986","0.0-6.0-193.0","1","[""img/0886/1870a791-dfee-471e-8417-197d4a53c75a.jpg"",""img/0868/fd307a36-9a3a-47d7-ab7c-f810d0b35040.jpg""]","",""
"","3404","similarity","200","3115395","0.0-6.0-194.0","1","[""img/0881/c843e210-bdfe-4a7c-8bbe-fcea1f90fe1c.jpg"",""img/0864/a248adb3-c70b-4652-b7a3-776d2a1e904b.jpg""]","",""
"","4895","similarity","201","3121293","0.0-6.0-195.0","2","[""img/0866/d493a2c8-66eb-44b4-be02-2f327b700b7c.jpg"",""img/0868/c8ac40c7-6904-4e13-8d61-c75d3052dc4e.jpg""]","",""
"","4720","similarity","202","3127019","0.0-6.0-196.0","1","[""img/0864/1ebbc554-99fa-49f9-8799-317375a79820.jpg"",""img/0958/d4138705-0a9d-4141-9af9-205e69367c44.jpg""]","",""
"","5471","similarity","203","3133494","0.0-6.0-197.0","1","[""img/0757/efa4466e-2951-4af9-b321-85458a89c2a7.jpg"",""img/0886/1e8c0f89-c766-41c9-b522-83c342048f34.jpg""]","",""
"","5238","similarity","204","3139738","0.0-6.0-198.0","2","[""img/0758/caa93da2-9edf-49fa-96b9-32dedd8f5078.jpg"",""img/0883/49aada36-b662-416c-93ae-9eab6598bfae.jpg""]","",""
"","5190","similarity","205","3145932","0.0-6.0-199.0","2","[""img/0881/ed4c971f-0873-4fc8-b6d6-e8bbd82f0bcc.jpg"",""img/0958/d3775867-a8f6-42ba-86ff-f86e85edba90.jpg""]","",""
"","3236","similarity","206","3150172","0.0-6.0-200.0","2","[""img/0958/96f89270-febc-4f09-b8c3-53a249ff00ea.jpg"",""img/0874/7e4f2150-3b59-4a36-b5da-a4e0ba410531.jpg""]","",""
"","2949","similarity","207","3154124","0.0-6.0-201.0","1","[""img/0885/8cdf3204-e0f1-482b-9546-5edca3d81376.jpg"",""img/0860/5bff793e-cbd5-4d7e-b628-0ac2b0e30b64.jpg""]","",""
"","2585","similarity","208","3157712","0.0-6.0-202.0","1","[""img/0875/dbdd643e-6d0e-4a5c-ab57-b9c29b9c981a.jpg"",""img/0881/f6bd3b96-dc40-4e99-8681-bc3a35cf896d.jpg""]","",""
"","2982","similarity","209","3161697","0.0-6.0-203.0","1","[""img/0758/20497cbe-ddae-489e-86e2-ab06985ed07c.jpg"",""img/0860/e8b8c51e-1834-4875-8b61-6c5bc9b178bd.jpg""]","",""
"","3001","similarity","210","3165706","0.0-6.0-204.0","7","[""img/0860/31ff6436-98bf-4652-bed2-40f627229568.jpg"",""img/0860/f44ba3fb-03a2-42f0-8509-2c1ded493086.jpg""]","",""
"","2840","similarity","211","3169549","0.0-6.0-205.0","7","[""img/0874/1016b306-087c-4afc-aa08-fa527b28dc76.jpg"",""img/0874/8cdb1c07-1c32-46d2-981c-3636560fa6e5.jpg""]","",""
"","6481","similarity","212","3177033","0.0-6.0-206.0","2","[""img/0883/eff15ce5-9393-443c-829f-71242d1c56d0.jpg"",""img/0761/e34f97e4-14ac-4bb6-b226-816085d967c2.jpg""]","",""
"","4627","similarity","213","3182667","0.0-6.0-207.0","3","[""img/0761/176fde97-0334-4d2b-8a7a-38960c2528f3.jpg"",""img/0881/54ea8e77-c7e5-4197-b7fa-00b7020849a7.jpg""]","",""
"","3028","similarity","214","3186700","0.0-6.0-208.0","1","[""img/0760/868ae139-99b5-4ff2-9d19-c4933af135e4.jpg"",""img/0756/b7105b92-3ad0-444a-aaab-6989bc24b091.jpg""]","",""
"","2595","similarity","215","3195491","0.0-6.0-209.0","1","[""img/0885/f4ed5442-1f5c-4a69-abe6-8336ed11ec77.jpg"",""img/0757/e2cf79e3-9d9f-49eb-a09d-0028ca21d242.jpg""]","",""
"[{""page_index"":0,""viewing_time"":11855}]","11856","instructions","216","3208349","0.0-7.0","","","",""
"","16454","image-multi-choice","217","3225816","0.0-8.0-0.0","","","{""Q0"":""Orange-crowned Warbler""}","Orange-crowned Warbler"
"","5570","image-multi-choice","218","3232398","0.0-8.0-1.0","","","{""Q0"":""Wilson's Warbler""}","Wilson's Warbler"
"","5238","image-multi-choice","219","3238648","0.0-8.0-2.0","","","{""Q0"":""Blackpoll Warbler""}","Blackpoll Warbler"
"","5519","image-multi-choice","220","3245179","0.0-8.0-3.0","","","{""Q0"":""Black-and-white Warbler""}","Black-and-white Warbler"
"","4826","image-multi-choice","221","3251017","0.0-8.0-4.0","","","{""Q0"":""Yellow-breasted Chat""}","Yellow-breasted Chat"
"","4741","image-multi-choice","222","3256771","0.0-8.0-5.0","","","{""Q0"":""Canada Warbler""}","Canada Warbler"
"","6108","image-multi-choice","223","3263892","0.0-8.0-6.0","","","{""Q0"":""Common Yellowthroat""}","Common Yellowthroat"
"","5449","image-multi-choice","224","3270350","0.0-8.0-7.0","","","{""Q0"":""American Redstart""}","American Redstart"
"","3494","image-multi-choice","225","3274854","0.0-8.0-8.0","","","{""Q0"":""Chestnut-sided Warbler""}","Chestnut-sided Warbler"
"","17653","image-multi-choice","226","3293515","0.0-8.0-9.0","","","{""Q0"":""Black-throated Green Warbler""}","Black-throated Green Warbler"
"","6714","image-multi-choice","227","3301238","0.0-8.0-10.0","","","{""Q0"":""Blackburnian Warbler""}","Blackburnian Warbler"
"","22607","image-multi-choice","228","3324857","0.0-8.0-11.0","","","{""Q0"":""Yellow-rumped Warbler""}","Yellow-rumped Warbler"
"","4726","image-multi-choice","229","3330591","0.0-8.0-12.0","","","{""Q0"":""Ovenbird""}","Ovenbird"
"","6786","image-multi-choice","230","3338387","0.0-8.0-13.0","","","{""Q0"":""Townsend's Warbler""}","Townsend's Warbler"
"","8077","image-multi-choice","231","3347474","0.0-8.0-14.0","","","{""Q0"":""Northern Waterthrush""}","Northern Waterthrush"
"","5628","image-multi-choice","232","3354109","0.0-8.0-15.0","","","{""Q0"":""Yellow Warbler""}","Yellow Warbler"
"","22933","image-multi-choice","233","3378049","0.0-8.0-16.0","","","{""Q0"":""Nashville Warbler""}","Nashville Warbler"
"","4707","image-multi-choice","234","3383763","0.0-8.0-17.0","","","{""Q0"":""Northern Parula""}","Northern Parula"
"","6236","image-multi-choice","235","3391012","0.0-8.0-18.0","","","{""Q0"":""Tennessee Warbler""}","Tennessee Warbler"
"","7079","image-multi-choice","236","3399101","0.0-8.0-19.0","","","{""Q0"":""Magnolia Warbler""}","Magnolia Warbler"
