"view_history","rt","trial_type","trial_index","time_elapsed","internal_node_id","sim_score","stimulus","responses","answer"
"[{""page_index"":0,""viewing_time"":22879}]","22881","instructions","0","22881","0.0-0.0","","","",""
"","5164","similarity_demo","1","29070","0.0-1.0","7","[""img/bluejay1.jpg"",""img/bluejay2.jpg""]","",""
"[{""page_index"":0,""viewing_time"":13313}]","13313","instructions","2","43384","0.0-2.0","","","",""
"","6821","similarity_demo","3","51220","0.0-3.0","2","[""img/bluejay1.jpg"",""img/cardinal1.jpg""]","",""
"[{""page_index"":0,""viewing_time"":6908}]","6910","instructions","4","59134","0.0-4.0","","","",""
"[{""page_index"":0,""viewing_time"":27075}]","27076","instructions","5","87213","0.0-5.0","","","",""
"","7979","similarity","6","96214","0.0-6.0-0.0","3","[""img/0864/f92649a2-0590-4d31-9a7a-1bfb81666a2d.jpg"",""img/0860/4a022222-056d-461c-ab02-39fac9647552.jpg""]","",""
"","8218","similarity","7","105446","0.0-6.0-1.0","2","[""img/0884/7ae02e9d-46a4-4124-bcc2-cad90d7ef9f9.jpg"",""img/0760/812c848f-be21-4059-abe5-8c4f4ac9ad0f.jpg""]","",""
"","5443","similarity","8","111907","0.0-6.0-2.0","2","[""img/0886/bd45b474-5559-4ea5-83ff-140bce19f5fa.jpg"",""img/0881/84397291-bc14-4fbf-90e8-241e486ab0fe.jpg""]","",""
"","5459","similarity","9","118382","0.0-6.0-3.0","2","[""img/0866/0207e9a2-7dbb-40b5-9459-b472aaeceb2a.jpg"",""img/0881/7e31e5dc-2240-4b1b-b5a0-3acd980099ef.jpg""]","",""
"","6829","similarity","10","126229","0.0-6.0-4.0","2","[""img/0868/8b0b8473-e2c0-4331-aa56-c3a5c29369da.jpg"",""img/0885/ef0386f3-e5d4-481b-8894-60b80e08bbe8.jpg""]","",""
"","4907","similarity","11","132150","0.0-6.0-5.0","3","[""img/0757/b46cab21-50e3-4f19-803d-682627bcd6a6.jpg"",""img/0866/d493a2c8-66eb-44b4-be02-2f327b700b7c.jpg""]","",""
"","4983","similarity","12","138149","0.0-6.0-6.0","2","[""img/0868/3a62db2d-97e9-44a3-b8e3-a48c6f0e423b.jpg"",""img/0864/1ebbc554-99fa-49f9-8799-317375a79820.jpg""]","",""
"","5811","similarity","13","144973","0.0-6.0-7.0","7","[""img/0864/49150900-7f25-4ce8-8d10-9b47a71d1997.jpg"",""img/0864/9b2490c5-a282-400a-9736-e1a0ecbf1cb7.jpg""]","",""
"","4647","similarity","14","150635","0.0-6.0-8.0","2","[""img/0757/2f6a36b2-6543-4003-bcb9-6f2c61db2de8.jpg"",""img/0881/adc02f34-ce97-4aef-850f-00519df06fd7.jpg""]","",""
"","7175","similarity","15","158824","0.0-6.0-9.0","2","[""img/0886/abd8dd83-d8ee-4003-b4d2-b4045220a578.jpg"",""img/0760/32bea725-69a2-4c9a-94d9-af05883fbb86.jpg""]","",""
"","10008","similarity","16","169846","0.0-6.0-10.0","3","[""img/0884/a416b0d1-f903-4935-b89f-99c29683752b.jpg"",""img/0883/49aada36-b662-416c-93ae-9eab6598bfae.jpg""]","",""
"","5289","similarity","17","176151","0.0-6.0-11.0","3","[""img/0874/c0378dac-9370-439a-8b79-db27c96fb390.jpg"",""img/0862/de9ad88c-b522-430a-8ee9-eb06a9f85df5.jpg""]","",""
"","4700","similarity","18","181862","0.0-6.0-12.0","2","[""img/0862/24cdc752-c2e5-4a17-86a6-6f2045d8553b.jpg"",""img/0875/2c361b79-c3d1-4eda-812e-bf03192407bf.jpg""]","",""
"","4659","similarity","19","187536","0.0-6.0-13.0","2","[""img/0875/2e13d160-eea1-416b-aff1-d37ab99ecc1d.jpg"",""img/0757/69d850ce-9828-4b13-9e68-6a2c196ecbcc.jpg""]","",""
"","4883","similarity","20","193436","0.0-6.0-14.0","2","[""img/0875/527ced51-8e53-4aab-ab05-86df219104c0.jpg"",""img/0860/c5ccd1a4-4bb7-48e1-9b25-72cfaf06909b.jpg""]","",""
"","5141","similarity","21","199594","0.0-6.0-15.0","2","[""img/0860/702bd09d-df3a-40aa-a267-5f04474305b5.jpg"",""img/0881/19e82c47-8e4b-45d2-a6c8-74181eb4155e.jpg""]","",""
"","3952","similarity","22","204563","0.0-6.0-16.0","2","[""img/0885/5225e532-2812-41d9-8ef0-0fbfc612784e.jpg"",""img/0884/3613aeb4-0028-4205-aea0-1ea28cb1f80e.jpg""]","",""
"","4433","similarity","23","210009","0.0-6.0-17.0","7","[""img/0761/176fde97-0334-4d2b-8a7a-38960c2528f3.jpg"",""img/0761/a69897c1-1310-4bae-9a51-8b29cd9543dd.jpg""]","",""
"","4063","similarity","24","215085","0.0-6.0-18.0","3","[""img/0760/36c930c0-2660-41c1-a356-77dafb18ae83.jpg"",""img/0864/c22faebd-9c53-47bc-ada3-b9a30c688e75.jpg""]","",""
"","3993","similarity","25","220094","0.0-6.0-19.0","2","[""img/0864/da39ad34-04e0-40d4-a724-c08d53e0ea09.jpg"",""img/0875/f87b67d7-c33e-40d1-b281-248c4be1cb6e.jpg""]","",""
"","4240","similarity","26","225348","0.0-6.0-20.0","2","[""img/0874/31e22c7c-99aa-40b1-bf03-dd73fa2df4d6.jpg"",""img/0884/13db1f36-8c9f-4b28-8426-04eaa9fba737.jpg""]","",""
"","3780","similarity","27","230141","0.0-6.0-21.0","2","[""img/0885/24afeefb-f7b3-4e8f-a5b9-17cc00fd22e3.jpg"",""img/0866/6f2a90d7-14f1-4f1b-bd64-fc0af6b9fe44.jpg""]","",""
"","6781","similarity","28","237936","0.0-6.0-22.0","7","[""img/0868/83b4350a-3b70-4cea-b7f5-b5b56f3050a8.jpg"",""img/0868/c8ac40c7-6904-4e13-8d61-c75d3052dc4e.jpg""]","",""
"","3690","similarity","29","242638","0.0-6.0-23.0","2","[""img/0757/86df581e-81a2-4205-95e3-1ea87cea1f36.jpg"",""img/0756/09fde3d3-27c5-435e-b68f-5410beb04e99.jpg""]","",""
"","5765","similarity","30","249416","0.0-6.0-24.0","7","[""img/0875/dbdd643e-6d0e-4a5c-ab57-b9c29b9c981a.jpg"",""img/0875/5a716432-c6ca-4b1c-955a-2b8ac25198ee.jpg""]","",""
"","4434","similarity","31","254862","0.0-6.0-25.0","2","[""img/0761/3599fa54-18f9-488e-b402-e851c43586ff.jpg"",""img/0866/386235d2-6857-41e7-88a8-25cfc3430025.jpg""]","",""
"","4680","similarity","32","260554","0.0-6.0-26.0","2","[""img/0866/07c9c966-3c8d-40e7-8128-92b2acbaed5d.jpg"",""img/0758/ddc336e9-a8b6-4bb9-937a-c7e25e0e9250.jpg""]","",""
"","5759","similarity","33","267328","0.0-6.0-27.0","2","[""img/0758/61d64021-9214-4951-bdf8-f871f9827cf9.jpg"",""img/0875/8521fd58-3b1e-4dc5-97ae-804edfa6734a.jpg""]","",""
"","4830","similarity","34","273174","0.0-6.0-28.0","2","[""img/0958/0a8f72c4-0c73-4d58-be6f-5e4613b87409.jpg"",""img/0757/94c7f207-1115-4451-b22b-1f74b3661208.jpg""]","",""
"","5227","similarity","35","279412","0.0-6.0-29.0","2","[""img/0873/33552b07-bdb8-423e-88b4-25a37f159c6d.jpg"",""img/0883/6dcd54c3-64a3-4ed5-9149-d8b9aa1938c8.jpg""]","",""
"","6423","similarity","36","286848","0.0-6.0-30.0","3","[""img/0868/5fa7f9d0-f0e5-454c-8224-74d964818f56.jpg"",""img/0875/e7e66b13-b573-431e-b85e-288ce04a35a3.jpg""]","",""
"","5221","similarity","37","293082","0.0-6.0-31.0","3","[""img/0884/10c0a35b-e20a-4d75-a7c0-959a578d9ebf.jpg"",""img/0862/5d887e9f-89e2-4ebc-80a0-6d46fe6480db.jpg""]","",""
"","5278","similarity","38","299371","0.0-6.0-32.0","2","[""img/0884/37ee4afa-34a0-4da2-bdb0-fcaff43dcdb6.jpg"",""img/0864/87c467d3-abca-482f-ad80-3766c21b1bb3.jpg""]","",""
"","6184","similarity","39","306567","0.0-6.0-33.0","2","[""img/0883/142a783e-a468-4b7f-a750-1e107613d5a9.jpg"",""img/0958/9be61b1d-099b-432a-ae0e-2aa69e157c0e.jpg""]","",""
"","3645","similarity","40","311224","0.0-6.0-34.0","2","[""img/0864/4bd81bc6-c13d-46df-95a9-485886dc7c1b.jpg"",""img/0756/1f40b002-ee9a-43c3-9506-ef79c513207d.jpg""]","",""
"","5695","similarity","41","317933","0.0-6.0-35.0","3","[""img/0874/ca23d307-fc00-4d7d-9106-584c6eb21b4d.jpg"",""img/0758/d41c06bf-ebaf-454b-91c6-1a17f917b659.jpg""]","",""
"","4407","similarity","42","323362","0.0-6.0-36.0","2","[""img/0886/48077111-b86b-4612-910f-90a5d168d77f.jpg"",""img/0862/fb26cb07-d5a9-4653-813c-f41609f26cd5.jpg""]","",""
"","3883","similarity","43","328268","0.0-6.0-37.0","2","[""img/0862/ad593cc7-cabe-4bb7-8e14-8a447a0717b4.jpg"",""img/0885/fce9f22a-f769-477c-acee-a5ad8214f0a5.jpg""]","",""
"","7228","similarity","44","336509","0.0-6.0-38.0","3","[""img/0758/a709631e-3705-4725-ac40-f0d916924f08.jpg"",""img/0864/5f74a653-3bdc-4308-8cca-ac667dc22e1f.jpg""]","",""
"","6937","similarity","45","344458","0.0-6.0-39.0","5","[""img/0873/a234d5d1-09ea-4594-9a0f-d569da31dbdb.jpg"",""img/0867/de92135f-5b65-4ed9-b245-188292c7c2f8.jpg""]","",""
"","5933","similarity","46","351405","0.0-6.0-40.0","3","[""img/0958/acbadc39-e665-446d-b98f-ccd0ef3223d6.jpg"",""img/0884/7f9cc898-36bc-49ec-8b1a-01065d9c0062.jpg""]","",""
"","5301","similarity","47","370647","0.0-6.0-41.0","5","[""img/0873/7dddc95f-ca6e-4d15-99a0-0e329ec6888e.jpg"",""img/0873/d74e4aa9-420d-48a3-a42f-30a3481536ae.jpg""]","",""
"","4227","similarity","48","375887","0.0-6.0-42.0","2","[""img/0886/7164ac42-460f-4beb-9d5e-a1cfded3099c.jpg"",""img/0758/821c68d3-5cb0-4eae-8659-30e6263fca39.jpg""]","",""
"","4224","similarity","49","381125","0.0-6.0-43.0","2","[""img/0883/122548fc-b3cc-445b-b7c0-04794df6d11d.jpg"",""img/0874/99f6563c-8a8d-4c1c-a41d-667b618c3fd5.jpg""]","",""
"","7459","similarity","50","389599","0.0-6.0-44.0","5","[""img/0881/445edb15-bd7f-4af3-8bd5-c6ad9677bb31.jpg"",""img/0873/b76d7003-814d-42b0-9a16-1399c4b0e706.jpg""]","",""
"","4559","similarity","51","395178","0.0-6.0-45.0","2","[""img/0867/a749dddb-69f0-44a6-acdc-2bf295cf6dcc.jpg"",""img/0757/c190d19b-2091-436c-a92b-a48c253ac955.jpg""]","",""
"","3590","similarity","52","399783","0.0-6.0-46.0","2","[""img/0866/bf14b5bd-fb55-47db-86b9-4f8aeb9a6dad.jpg"",""img/0874/3ce41e7c-40c8-4d58-a546-171114521796.jpg""]","",""
"","4398","similarity","53","405196","0.0-6.0-47.0","7","[""img/0886/1870a791-dfee-471e-8417-197d4a53c75a.jpg"",""img/0886/9f186bd5-d48b-4cc2-9206-be67c392faa9.jpg""]","",""
"","5721","similarity","54","411934","0.0-6.0-48.0","2","[""img/0883/fc8cf4c9-003e-48c4-b222-8878ea2ae1c0.jpg"",""img/0860/29a21a9f-54bb-4093-ad3f-04823ceaa89f.jpg""]","",""
"","4082","similarity","55","417033","0.0-6.0-49.0","2","[""img/0860/e8b8c51e-1834-4875-8b61-6c5bc9b178bd.jpg"",""img/0756/4cf0ac20-ce60-40ba-8078-4053ef50451c.jpg""]","",""
"","5037","similarity","56","423084","0.0-6.0-50.0","2","[""img/0860/94ef7afc-e0e6-4a15-98c6-0bfac82bc832.jpg"",""img/0757/8993d166-c8ae-43f6-b269-9e8bd3379d57.jpg""]","",""
"","5075","similarity","57","429171","0.0-6.0-51.0","7","[""img/0756/350ac166-1deb-4399-89db-da6a7e827c4d.jpg"",""img/0756/de72dcee-8bbb-43d1-a744-9c074b9122ee.jpg""]","",""
"","4042","similarity","58","434225","0.0-6.0-52.0","2","[""img/0875/ebf7653f-ff45-4e9f-af58-2c042ab3cd2b.jpg"",""img/0866/f756f7d1-9ad8-4a34-9ef6-7a443d705bfe.jpg""]","",""
"","3165","similarity","59","438406","0.0-6.0-53.0","2","[""img/0756/76516e04-06c4-4108-9130-fa84d688f55a.jpg"",""img/0758/caa93da2-9edf-49fa-96b9-32dedd8f5078.jpg""]","",""
"","3959","similarity","60","443379","0.0-6.0-54.0","2","[""img/0761/aebad236-1f4a-4bc2-a74d-d92b7e226316.jpg"",""img/0884/2348ce3f-5d2a-4a04-85ef-a65f05caa935.jpg""]","",""
"","4318","similarity","61","448711","0.0-6.0-55.0","2","[""img/0760/a24659cd-f862-42cc-b43a-7ba8eae0c2c0.jpg"",""img/0867/aa05d113-fc19-4756-a8eb-7878f580bc92.jpg""]","",""
"","3758","similarity","62","453481","0.0-6.0-56.0","2","[""img/0866/02f5e6b9-52b7-448c-9708-5b460d0c9a23.jpg"",""img/0884/ffcce05a-b38d-4570-b3dc-751e89b7790a.jpg""]","",""
"","2943","similarity","63","457437","0.0-6.0-57.0","2","[""img/0756/b5b6c1ba-df7c-4bac-94ac-786f45dbb140.jpg"",""img/0761/b8f211c0-f640-43a2-b101-101774517d95.jpg""]","",""
"","3762","similarity","64","462212","0.0-6.0-58.0","2","[""img/0867/f26f6b60-f772-4f4c-95a4-addc62cfd692.jpg"",""img/0860/5bff793e-cbd5-4d7e-b628-0ac2b0e30b64.jpg""]","",""
"","6151","similarity","65","469378","0.0-6.0-59.0","7","[""img/0881/ed4c971f-0873-4fc8-b6d6-e8bbd82f0bcc.jpg"",""img/0758/7ee8bc8f-c40b-4b3a-84ec-3e83580622d4.jpg""]","",""
"","4057","similarity","66","474451","0.0-6.0-60.0","2","[""img/0761/9199a691-d36e-4ece-a815-078384ea6f06.jpg"",""img/0758/a085b443-b5d7-4cb2-9ad4-b9dab0fc23f1.jpg""]","",""
"","5263","similarity","67","480725","0.0-6.0-61.0","2","[""img/0958/86d1a76d-f067-4e36-9ab5-13da78c97c0e.jpg"",""img/0875/a4935837-7d3c-4df6-88c1-36a94d4991ca.jpg""]","",""
"","5406","similarity","68","487145","0.0-6.0-62.0","2","[""img/0886/9ac18ff1-d3d9-4bfe-aa2e-ed5b28399f6c.jpg"",""img/0864/3651d070-2fc5-4848-b6a6-088a2d9ac5c9.jpg""]","",""
"","3927","similarity","69","492084","0.0-6.0-63.0","2","[""img/0756/ba3f2106-0416-46e6-a788-1b50d9f92bda.jpg"",""img/0874/93d1f8dc-acf2-4f03-bd8d-8ec35df276ed.jpg""]","",""
"","5403","similarity","70","498498","0.0-6.0-64.0","2","[""img/0758/d57c2592-a317-4f63-91be-91a3a9afd222.jpg"",""img/0885/fbbfaacd-e49b-4d37-a2f9-fcaffa58f26f.jpg""]","",""
"","5316","similarity","71","504829","0.0-6.0-65.0","4","[""img/0760/191d8576-9ed7-4798-a486-66a7fd600e58.jpg"",""img/0958/eea2b7ca-1c37-4e76-ada7-a8b1f3afdc01.jpg""]","",""
"","10164","similarity","72","516007","0.0-6.0-66.0","2","[""img/0884/d8ffab77-40df-44ba-bf27-70815b052250.jpg"",""img/0881/4da99fdd-1f40-4bbb-8e21-8833eef313f5.jpg""]","",""
"","3892","similarity","73","520910","0.0-6.0-67.0","2","[""img/0864/1d15626a-2f7c-410f-819c-0fa2c967e95e.jpg"",""img/0873/1d1be182-3bb2-4efd-8543-d70b8db7beef.jpg""]","",""
"","4343","similarity","74","526264","0.0-6.0-68.0","2","[""img/0862/064818ee-13d5-4618-bb24-21c7368ea278.jpg"",""img/0758/20497cbe-ddae-489e-86e2-ab06985ed07c.jpg""]","",""
"","4261","similarity","75","531540","0.0-6.0-69.0","7","[""img/0757/802a8692-dc9e-4372-8811-ce4351a09d1a.jpg"",""img/0757/cb7ca802-27ac-4a1d-996f-bd21b96d6244.jpg""]","",""
"","12617","similarity","76","545174","0.0-6.0-70.0","5","[""img/0860/17b44a7d-c5ca-479f-9e87-f65a64f5c80e.jpg"",""img/0862/92f0146c-20c4-482e-aef5-adb693790338.jpg""]","",""
"","5734","similarity","77","551919","0.0-6.0-71.0","2","[""img/0860/d9a0d117-6d1d-41c0-8fec-9aff0fd9e9f2.jpg"",""img/0884/baabff07-71d8-424e-ac29-644768380941.jpg""]","",""
"","5885","similarity","78","558815","0.0-6.0-72.0","2","[""img/0883/68a56098-91b8-4c40-8827-7808704aa1bc.jpg"",""img/0866/a15b02be-11bb-43e3-b0e0-ecc3bd7dfc49.jpg""]","",""
"","5149","similarity","79","564976","0.0-6.0-73.0","2","[""img/0866/d266fece-59b3-46fa-b69f-96f6efb81b59.jpg"",""img/0886/e5903946-897c-4420-87c0-afee4100305c.jpg""]","",""
"","7279","similarity","80","573269","0.0-6.0-74.0","2","[""img/0958/bb684a39-afef-4125-9f70-b5ad830ba316.jpg"",""img/0761/a74c99e4-d9ed-42cd-9e83-8d525cb6a9a2.jpg""]","",""
"","5526","similarity","81","579806","0.0-6.0-75.0","2","[""img/0875/3ecb367d-e9eb-4826-8aaa-7aa72fb98019.jpg"",""img/0756/1cc17c90-3114-4ede-89cd-f34db9fa638a.jpg""]","",""
"","3941","similarity","82","584758","0.0-6.0-76.0","2","[""img/0958/ef1b718f-ef8c-497f-80d7-42562aebf1a7.jpg"",""img/0885/d2276b26-e91a-4f19-a818-cbeb297ed884.jpg""]","",""
"","4769","similarity","83","590538","0.0-6.0-77.0","2","[""img/0868/d98ca254-b195-477f-b57e-5760a2717db8.jpg"",""img/0883/cc3df660-426e-452e-ac50-3a3b09dc4b65.jpg""]","",""
"","3705","similarity","84","595252","0.0-6.0-78.0","2","[""img/0862/47ed5efd-4ec9-4b74-bb4e-a5f5cf0c3e7d.jpg"",""img/0760/1912c0dc-64a7-4c32-8d67-baf5e8752270.jpg""]","",""
"","3144","similarity","85","599409","0.0-6.0-79.0","2","[""img/0885/6873c613-5e40-42ff-a5b6-443b6b626ae2.jpg"",""img/0761/e18d2113-1ed1-4a80-8171-4be5ee28d343.jpg""]","",""
"","5139","similarity","86","605560","0.0-6.0-80.0","3","[""img/0862/99a99e39-8355-44ec-b993-e7bcec111e1c.jpg"",""img/0864/66091c27-e588-4476-8af9-265dc6be4156.jpg""]","",""
"","6280","similarity","87","612851","0.0-6.0-81.0","5","[""img/0758/3ddd05d3-557e-4ee7-8b78-9d2d681d8ae2.jpg"",""img/0758/9fb5b2fe-3f00-4fe6-973c-1ce10d5f4cd5.jpg""]","",""
"","5921","similarity","88","619783","0.0-6.0-82.0","2","[""img/0862/4f0a3b4c-afbf-486e-b248-1d54982f54b4.jpg"",""img/0873/87f38f18-48a2-4de3-b24b-70630e8b6ca0.jpg""]","",""
"","4592","similarity","89","697793","0.0-6.0-83.0","2","[""img/0760/9daf8012-19c4-498f-8f51-81ec001a83be.jpg"",""img/0757/fd3c82c8-3311-4fae-bcec-10559587910a.jpg""]","",""
"","4046","similarity","90","702850","0.0-6.0-84.0","2","[""img/0867/179ab87a-8eac-4c52-a41f-2e48e3120f09.jpg"",""img/0881/5fe04dd0-5c74-47b7-99c8-b068db9ca26a.jpg""]","",""
"","4311","similarity","91","708172","0.0-6.0-85.0","2","[""img/0885/f4ed5442-1f5c-4a69-abe6-8336ed11ec77.jpg"",""img/0886/c6c81122-f4bf-46f4-968b-167f8ed0cab3.jpg""]","",""
"","3063","similarity","92","712247","0.0-6.0-86.0","2","[""img/0866/4a87911a-d5be-4d4e-ab8e-3d1f581bf507.jpg"",""img/0864/e336a4c5-6648-4fd7-b2f6-93a3fb83f8c6.jpg""]","",""
"","6287","similarity","93","719542","0.0-6.0-87.0","4","[""img/0874/adf9a8f1-c40b-402b-b95b-1e85a54a7b62.jpg"",""img/0881/db77fe00-aeb0-4d1d-aa66-f3a96fd077e4.jpg""]","",""
"","3918","similarity","94","724472","0.0-6.0-88.0","2","[""img/0866/be24ab58-230e-4db8-9f45-ff04c9aec6bb.jpg"",""img/0760/111aecf1-147c-4227-90e0-9ed3a75e4e16.jpg""]","",""
"","4361","similarity","95","729853","0.0-6.0-89.0","2","[""img/0867/7d1c497b-c1b3-4ed8-abb5-d7f73306015f.jpg"",""img/0884/967c63af-8f6a-483f-9122-0c79d97fd22e.jpg""]","",""
"","3875","similarity","96","734748","0.0-6.0-90.0","2","[""img/0757/31d8ee3d-1b79-4d6a-9347-f91c87c00f92.jpg"",""img/0862/1c20f772-3a51-4a80-aac0-f57dc9f86c28.jpg""]","",""
"","4546","similarity","97","740310","0.0-6.0-91.0","2","[""img/0867/6e19c858-b606-45b2-a4c6-910a73f1d82c.jpg"",""img/0761/edc0b069-71dc-4b11-b7f0-8429ea8ac5c9.jpg""]","",""
"","4575","similarity","98","745897","0.0-6.0-92.0","2","[""img/0868/7b212364-ff5f-4e28-9241-7eb6ea00161b.jpg"",""img/0958/df7705da-e817-409f-8a93-05abef4b26c3.jpg""]","",""
"","6311","similarity","99","753223","0.0-6.0-93.0","5","[""img/0874/ca76a855-4e77-4f2f-872a-0a718153e7ed.jpg"",""img/0864/6f631579-acf1-415c-a42c-1207f62a8d99.jpg""]","",""
"","4062","similarity","100","758299","0.0-6.0-94.0","2","[""img/0760/afe7a178-4458-4bdd-a0ad-0cffc57eadc3.jpg"",""img/0873/c4b47588-9c66-4401-aefc-cf9481d5fa85.jpg""]","",""
"","6034","similarity","101","765348","0.0-6.0-95.0","5","[""img/0868/4bd5105a-d2c3-4f82-8c80-57196106ba53.jpg"",""img/0873/90b702a6-3dba-446a-9bba-a2ee096baf49.jpg""]","",""
"","3588","similarity","102","769948","0.0-6.0-96.0","2","[""img/0860/c47fdead-eb02-4989-b078-26f4852f44fe.jpg"",""img/0761/89d3b943-cd14-4786-a7b8-0e9a695cf0e3.jpg""]","",""
"","4565","similarity","103","775527","0.0-6.0-97.0","2","[""img/0862/cdaed51d-9e2f-4807-801a-4663c40077e2.jpg"",""img/0883/cc2bb2c6-18f1-414f-98cc-6cd683173ce4.jpg""]","",""
"","4389","similarity","104","780929","0.0-6.0-98.0","2","[""img/0757/443a1d16-5d59-4e77-a670-d6190157c319.jpg"",""img/0884/989ec8e3-5e41-4055-b0b5-3d65b9c44917.jpg""]","",""
"","4495","similarity","105","786439","0.0-6.0-99.0","2","[""img/0867/8ba0c5a7-c7e4-42cf-a80a-543763b90779.jpg"",""img/0756/7a83dec0-4724-4efc-9fbf-52a30b5acd99.jpg""]","",""
"","4011","similarity","106","791465","0.0-6.0-100.0","2","[""img/0958/edfd5bc1-8c8f-489a-84c3-908436ef76cc.jpg"",""img/0756/653c7580-fa90-45bb-828a-eb9d05a6b1c7.jpg""]","",""
"","4712","similarity","107","797198","0.0-6.0-101.0","7","[""img/0760/4f024637-f98a-409a-baa0-fc4989d80667.jpg"",""img/0760/dddcdfaf-2d02-4de9-a176-5705d0004b5a.jpg""]","",""
"","5624","similarity","108","803838","0.0-6.0-102.0","2","[""img/0873/b02f9cce-7f58-4f1b-baed-50fee9f0a21f.jpg"",""img/0875/5a7c4e35-6514-4e12-8879-d16071da4cd6.jpg""]","",""
"","4596","similarity","109","809447","0.0-6.0-103.0","7","[""img/0884/0b4cf8d4-4c8f-4312-a794-f99e01679176.jpg"",""img/0884/ee845634-cd54-4c06-95a9-962122ef8712.jpg""]","",""
"","5993","similarity","110","816455","0.0-6.0-104.0","2","[""img/0873/0c7f3d86-efda-4809-aac4-256ba01e0536.jpg"",""img/0885/a4e5c564-1e5f-4fed-9f73-b8d1becf62b6.jpg""]","",""
"","5535","similarity","111","823003","0.0-6.0-105.0","2","[""img/0883/6884954b-873e-4d6f-9b4b-95d158e0de6c.jpg"",""img/0875/03c3c331-738b-4446-af92-3d7386b08c2e.jpg""]","",""
"","4760","similarity","112","828777","0.0-6.0-106.0","2","[""img/0864/300bb811-8b3c-4c42-8653-6097c3725197.jpg"",""img/0867/5e07b34d-b40f-4b1c-ac10-49975bace45f.jpg""]","",""
"","6234","similarity","113","836024","0.0-6.0-107.0","2","[""img/0958/7168f8d3-e3ae-405a-93d0-64836d899932.jpg"",""img/0860/5383b320-1518-4095-a58e-5cc1ae30b64c.jpg""]","",""
"","4222","similarity","114","841260","0.0-6.0-108.0","2","[""img/0885/21b241a1-95da-4306-9cf2-cc52a784214a.jpg"",""img/0756/10fa3aa2-6100-492a-826e-febb6513cf13.jpg""]","",""
"","7989","similarity","115","850264","0.0-6.0-109.0","4","[""img/0883/df1c6d22-bb1b-4eed-b4fe-eb5e46deacd4.jpg"",""img/0885/05af267f-b982-498d-9807-ccd54689f9b4.jpg""]","",""
"","7903","similarity","116","859181","0.0-6.0-110.0","2","[""img/0867/bf560d4f-dee3-4f11-a385-705cc1aa5f3c.jpg"",""img/0867/f8488a47-94ee-4166-952c-44e16cf172f6.jpg""]","",""
"","4152","similarity","117","864348","0.0-6.0-111.0","2","[""img/0881/f037e3b0-09cb-4a83-b2d9-6a71fe474e63.jpg"",""img/0760/39d75e1e-0645-4f23-a2ca-3bbefac19d69.jpg""]","",""
"","3898","similarity","118","869260","0.0-6.0-112.0","2","[""img/0881/f6bd3b96-dc40-4e99-8681-bc3a35cf896d.jpg"",""img/0868/1a62b2b2-18f5-466e-b564-5176a57c565e.jpg""]","",""
"","6922","similarity","119","877194","0.0-6.0-113.0","2","[""img/0875/42910c99-5463-450a-a0f8-d4d060a11455.jpg"",""img/0761/8e379ec1-757d-4427-a0ff-d4efdd6a50c4.jpg""]","",""
"","4103","similarity","120","882312","0.0-6.0-114.0","2","[""img/0756/dbe25ae4-de3f-44b2-907f-6f2fc03ed1f0.jpg"",""img/0866/a04d37f0-99dd-478a-b6c6-58b215138f84.jpg""]","",""
"","5906","similarity","121","889232","0.0-6.0-115.0","2","[""img/0884/fb8b0101-bfd2-462b-a942-d3202a69dd18.jpg"",""img/0886/97243e18-4dba-4af8-b49f-b3b635c90ac4.jpg""]","",""
"","3799","similarity","122","894045","0.0-6.0-116.0","2","[""img/0756/bb3f0571-641e-4d5b-b528-672892c37030.jpg"",""img/0881/48ed65a5-471f-41af-86ec-3793805c116d.jpg""]","",""
"","3609","similarity","123","898667","0.0-6.0-117.0","2","[""img/0760/fc99ba9e-e7fa-443b-9ba0-2b3c76930893.jpg"",""img/0875/90da8d75-108a-44ad-b999-e21fee3860d3.jpg""]","",""
"","5502","similarity","124","905180","0.0-6.0-118.0","2","[""img/0958/d3775867-a8f6-42ba-86ff-f86e85edba90.jpg"",""img/0866/11a1d141-be5e-443c-98c1-a9d4d9e3dec0.jpg""]","",""
"","4615","similarity","125","910809","0.0-6.0-119.0","2","[""img/0867/98d8cd96-1476-4fe0-a3a3-04f875500a1b.jpg"",""img/0874/eba003b4-cdab-4eee-8bc3-f064c7d94165.jpg""]","",""
"","6473","similarity","126","918295","0.0-6.0-120.0","2","[""img/0883/29cba870-24df-4a0b-85cd-b680316ffe3d.jpg"",""img/0757/c05f53f3-811c-4a3b-b848-a27b80b8fd53.jpg""]","",""
"","5278","similarity","127","924585","0.0-6.0-121.0","2","[""img/0874/995f0332-0439-4eb4-add3-957335dbf6d9.jpg"",""img/0886/42cccc64-05f9-4afd-bc93-496ba50a4342.jpg""]","",""
"","8187","similarity","128","933786","0.0-6.0-122.0","2","[""img/0873/e5374873-a1a7-4689-a04c-a3b959992244.jpg"",""img/0761/07f8178b-8ce5-42d6-bca0-a0ae0e0e8eb3.jpg""]","",""
"","4346","similarity","129","939144","0.0-6.0-123.0","2","[""img/0875/fb732ab5-013a-4366-9f65-27811ed157e9.jpg"",""img/0884/a8f7b854-0010-4c7a-a8fb-b1b1dc1f1ba1.jpg""]","",""
"","7400","similarity","130","947556","0.0-6.0-124.0","4","[""img/0757/4faaa503-45d9-43fa-bddb-707274a341ff.jpg"",""img/0868/0d3abd3a-b6c3-4584-a9f7-e2da63748b3d.jpg""]","",""
"","4359","similarity","131","961728","0.0-6.0-125.0","2","[""img/0886/789f5d23-84b8-499a-ae1e-20c6309a06ae.jpg"",""img/0883/599aacc5-bb0f-4dea-852c-9a27727eb0b9.jpg""]","",""
"","3522","similarity","132","966264","0.0-6.0-126.0","2","[""img/0868/6a28c3b0-3d76-498a-9fb7-ddafc665eca8.jpg"",""img/0760/7cdb34e4-0556-4bf7-9a6f-05990a92e0f3.jpg""]","",""
"","6527","similarity","133","973804","0.0-6.0-127.0","7","[""img/0881/62a64f90-7a72-4aee-a1a1-0c548ac9bdda.jpg"",""img/0881/633c6f40-56d9-4b48-bf1c-ecd83116eabb.jpg""]","",""
"","3757","similarity","134","978574","0.0-6.0-128.0","2","[""img/0760/cbd28974-989a-49dd-b631-42de146d7e6f.jpg"",""img/0860/4c530c3c-6aab-492a-94d1-9c01797bde40.jpg""]","",""
"","3537","similarity","135","983121","0.0-6.0-129.0","2","[""img/0864/3d4de670-b290-4285-9c3d-12a0e3af44e9.jpg"",""img/0885/4fd0aafb-6cc0-43d6-993a-c55a6e18a7ba.jpg""]","",""
"","3686","similarity","136","987818","0.0-6.0-130.0","2","[""img/0864/0116ca98-293d-4fa6-a93b-5a6144ef64cc.jpg"",""img/0757/10030bb1-70b8-4889-a8a5-ab50e145704d.jpg""]","",""
"","4584","similarity","137","993414","0.0-6.0-131.0","2","[""img/0760/0864f159-c076-4573-83e1-ea134f239717.jpg"",""img/0883/02f50df0-eb8c-4e17-836a-c89ddb1c04e1.jpg""]","",""
"","7435","similarity","138","1001861","0.0-6.0-132.0","7","[""img/0885/62bd11a8-7059-4cc2-b06d-4700688b313f.jpg"",""img/0885/8cdf3204-e0f1-482b-9546-5edca3d81376.jpg""]","",""
"","4450","similarity","139","1007324","0.0-6.0-133.0","2","[""img/0860/e14d67c1-6d92-4f1e-9257-c8607159c19c.jpg"",""img/0868/fd307a36-9a3a-47d7-ab7c-f810d0b35040.jpg""]","",""
"","5188","similarity","140","1013523","0.0-6.0-134.0","3","[""img/0867/a498eef3-9fa4-4ab2-9778-4ae82ac40dc5.jpg"",""img/0886/451550d7-6ff9-42b5-938c-9e20ee960bf6.jpg""]","",""
"","4002","similarity","141","1018537","0.0-6.0-135.0","2","[""img/0756/2bc961e4-b35f-4cfe-ba02-6f14fe3bdc10.jpg"",""img/0886/aef00ed5-e288-47bf-b31e-512d7e762ea2.jpg""]","",""
"","4948","similarity","142","1024497","0.0-6.0-136.0","4","[""img/0884/e275ab3e-0948-43c3-8be7-a75271922185.jpg"",""img/0868/d6d1f30d-4323-435a-b194-7892521bc57e.jpg""]","",""
"","6613","similarity","143","1032122","0.0-6.0-137.0","7","[""img/0958/ebea41e3-9d65-4f5e-981a-92daaaad0d57.jpg"",""img/0958/d4138705-0a9d-4141-9af9-205e69367c44.jpg""]","",""
"","7285","similarity","144","1040419","0.0-6.0-138.0","5","[""img/0886/0f9715c1-b2e4-418e-bf9b-126cc9e70dc6.jpg"",""img/0873/0d9b4403-7f26-46dc-b0b7-2b97b0a91b46.jpg""]","",""
"","4017","similarity","145","1045449","0.0-6.0-139.0","2","[""img/0758/53f35650-e455-4b53-8be4-c3c8271c6466.jpg"",""img/0873/ec150e40-b3ec-4dfe-ab38-bb3f248a1175.jpg""]","",""
"","7136","similarity","146","1053599","0.0-6.0-140.0","2","[""img/0873/6110910a-7895-4b6a-af51-12486a4595a3.jpg"",""img/0756/6413e12f-951d-47b5-ae55-9fad7fb8d112.jpg""]","",""
"","3641","similarity","147","1058253","0.0-6.0-141.0","2","[""img/0868/4e626425-63c8-484a-8a1d-e66ee4e0bef8.jpg"",""img/0862/fad1d7c1-8187-43c3-942a-0fc12183e48e.jpg""]","",""
"","4554","similarity","148","1063820","0.0-6.0-142.0","2","[""img/0881/54ea8e77-c7e5-4197-b7fa-00b7020849a7.jpg"",""img/0862/f23038d4-c366-4f70-979f-66b62362efa4.jpg""]","",""
"","4044","similarity","149","1068874","0.0-6.0-143.0","3","[""img/0885/eb5e4557-1792-49c3-8871-16afa58f3a28.jpg"",""img/0867/f8159067-056c-41f1-a136-c529fe5e970a.jpg""]","",""
"","6383","similarity","150","1076270","0.0-6.0-144.0","7","[""img/0883/ab9b6977-0cdc-47a2-b180-494a5be181b2.jpg"",""img/0883/5716bfb3-e86c-42fe-8afa-58d226cb1aaa.jpg""]","",""
"","5166","similarity","151","1082446","0.0-6.0-145.0","4","[""img/0874/a3bc679d-619f-4db6-bb68-116dcb757d9c.jpg"",""img/0873/d39b1731-1669-4c96-b5c6-682b30e287ee.jpg""]","",""
"","4457","similarity","152","1087915","0.0-6.0-146.0","2","[""img/0757/8fdf4047-c2dc-42bc-9724-c35bd113f1dc.jpg"",""img/0758/335851a0-a55b-46d8-ab05-8463eda48349.jpg""]","",""
"","3742","similarity","153","1092671","0.0-6.0-147.0","2","[""img/0883/c6db9b70-f16c-47ee-a408-c9278365ae54.jpg"",""img/0756/a8246880-fb51-43bb-b25d-905e6e0d7880.jpg""]","",""
"","5787","similarity","154","1099471","0.0-6.0-148.0","3","[""img/0867/85a96c62-548f-4994-9553-819e03c3135a.jpg"",""img/0866/620cd1aa-0800-4414-8f6e-90342e7a99ad.jpg""]","",""
"","4636","similarity","155","1105118","0.0-6.0-149.0","2","[""img/0758/e38fd80d-18d0-42f3-b848-f930788e8bd7.jpg"",""img/0760/57510c7a-e5a9-420e-9b3f-f7423746f67c.jpg""]","",""
"","5038","similarity","156","1111171","0.0-6.0-150.0","2","[""img/0757/424b465f-ba69-4277-bc61-d3e95d136f80.jpg"",""img/0761/5ed865c0-8bfb-4310-9b47-690b3e450ca2.jpg""]","",""
"","5287","similarity","157","1117472","0.0-6.0-151.0","4","[""img/0761/bd083642-a9bc-4877-bfc6-63bd03d33e81.jpg"",""img/0874/bf14b896-e930-4fd9-9c05-2e83317a2773.jpg""]","",""
"","4252","similarity","158","1122736","0.0-6.0-152.0","2","[""img/0761/b1819a20-de99-463b-9840-60a4b8faa30d.jpg"",""img/0760/135d76ab-2bf3-4dc9-8509-92983dc9893d.jpg""]","",""
"","6846","similarity","159","1130594","0.0-6.0-153.0","6","[""img/0866/8efcaa46-83ab-4dee-a35f-850402aa21ae.jpg"",""img/0866/9b38d691-1802-4959-ab3f-fc902f0e4ea6.jpg""]","",""
"","4243","similarity","160","1135847","0.0-6.0-154.0","2","[""img/0866/23a224f3-2012-4fc8-8e0f-3c36f8de27fd.jpg"",""img/0862/7918ca67-5bd3-4606-a5ea-c39fb11a9297.jpg""]","",""
"","3502","similarity","161","1140358","0.0-6.0-155.0","2","[""img/0756/8d47d83d-7e73-4d35-94ec-d814380febc6.jpg"",""img/0862/a0a3a7ba-7798-46a3-b4ca-05e1f6e581d0.jpg""]","",""
"","5148","similarity","162","1146517","0.0-6.0-156.0","2","[""img/0860/8a92e21b-6a32-4e4a-a445-2d5a487ed0a4.jpg"",""img/0866/93a27239-8317-4e08-98ca-d8b1ff298e07.jpg""]","",""
"","6314","similarity","163","1153843","0.0-6.0-157.0","2","[""img/0862/ba89835a-408c-480b-8594-ed4ffa97eb5c.jpg"",""img/0958/fd950403-e452-4018-8207-a9714addcd75.jpg""]","",""
"","3587","similarity","164","1158441","0.0-6.0-158.0","2","[""img/0761/47960f80-42b7-4397-a852-ec55d716c652.jpg"",""img/0868/09a9ef4d-d000-4cfa-a6aa-ebec7c2edeb4.jpg""]","",""
"","3502","similarity","165","1162954","0.0-6.0-159.0","2","[""img/0761/e34f97e4-14ac-4bb6-b226-816085d967c2.jpg"",""img/0886/b8648eb5-de71-41ab-825d-848e51be8c1b.jpg""]","",""
"","3458","similarity","166","1167425","0.0-6.0-160.0","2","[""img/0874/85eb9b8a-c4c6-4e5a-b8e7-363a87a82054.jpg"",""img/0868/15dd6fd7-791e-4b53-b203-195d617521a4.jpg""]","",""
"","3535","similarity","167","1171971","0.0-6.0-161.0","2","[""img/0860/99c589b9-9140-4d17-90c0-b344323edcda.jpg"",""img/0874/a82926a3-0b43-4add-803c-d5f9ea7798ee.jpg""]","",""
"","4793","similarity","168","1177778","0.0-6.0-162.0","2","[""img/0883/724f020e-39d9-495c-abe1-b2e4504be9bc.jpg"",""img/0867/075e0f95-856b-4cbb-acf5-092393aaf04e.jpg""]","",""
"","5991","similarity","169","1184792","0.0-6.0-163.0","2","[""img/0758/65d426d6-3ff6-415d-8654-a43b83ecc4fe.jpg"",""img/0958/822de3b9-e5fd-4b74-aeb1-7c40805b0717.jpg""]","",""
"","7596","similarity","170","1193400","0.0-6.0-164.0","2","[""img/0873/ac86dbfd-0442-4dec-9d10-37d7093f5a52.jpg"",""img/0757/91a048c0-e749-433b-9147-0c671dc5b4ca.jpg""]","",""
"","6725","similarity","171","1201138","0.0-6.0-165.0","2","[""img/0873/c3ff3b70-fb22-42f2-883c-3ecffd77cb4b.jpg"",""img/0866/945c6710-d15b-4a5b-a8f6-69af0850357f.jpg""]","",""
"","5262","similarity","172","1207416","0.0-6.0-166.0","2","[""img/0875/99698b4d-b4a1-44bc-8c83-8ea755bbbf61.jpg"",""img/0867/ac1797e4-8afc-48fe-b252-86d1defb1cca.jpg""]","",""
"","6019","similarity","173","1223188","0.0-6.0-167.0","7","[""img/0862/d0ca4c78-fc35-46ed-bdcc-8e124283c53e.jpg"",""img/0862/92fcd8a4-8193-4a6a-ae09-dd4a6338b0df.jpg""]","",""
"","3793","similarity","174","1227998","0.0-6.0-168.0","2","[""img/0875/d59ff733-eaff-4ee2-9443-06954dd0bcb6.jpg"",""img/0886/d1e40478-2fe0-404f-8409-920da98a96a2.jpg""]","",""
"","3631","similarity","175","1232642","0.0-6.0-169.0","2","[""img/0885/89d8c48b-8bde-42ed-ae71-de669b15ea34.jpg"",""img/0875/5a1e5100-0d94-4fec-bbe9-ca9894d2cf8e.jpg""]","",""
"","3655","similarity","176","1237313","0.0-6.0-170.0","2","[""img/0862/f43ceabf-acc1-4107-b857-5d1849808f93.jpg"",""img/0867/db7e032f-162b-46f5-ae67-2b29679adee4.jpg""]","",""
"","4324","similarity","177","1242653","0.0-6.0-171.0","2","[""img/0884/592da15b-09e4-46b5-81e7-bab08a1c33e9.jpg"",""img/0873/b509aa81-b1d7-4d50-8aef-9c7b725c3157.jpg""]","",""
"","3921","similarity","178","1247592","0.0-6.0-172.0","2","[""img/0873/b1e2e09f-ad9a-433e-818f-56dd2f1cb09c.jpg"",""img/0958/1812c506-727b-43a7-882e-4729742e41fc.jpg""]","",""
"","4334","similarity","179","1252943","0.0-6.0-173.0","2","[""img/0868/293079b8-7e0c-4afd-a390-1e5d35fe3ded.jpg"",""img/0758/6cd8c362-ae2a-41eb-80a3-3a4f7ace1530.jpg""]","",""
"","3592","similarity","180","1257553","0.0-6.0-174.0","2","[""img/0757/76206a63-e02d-4beb-a85a-ed1b5527bc36.jpg"",""img/0874/8cdb1c07-1c32-46d2-981c-3636560fa6e5.jpg""]","",""
"","6792","similarity","181","1265358","0.0-6.0-175.0","3","[""img/0958/6e602e13-8029-4642-bce0-8deffd0dc686.jpg"",""img/0867/c71dc569-f49c-4397-8381-68b8d726736d.jpg""]","",""
"","4833","similarity","182","1271206","0.0-6.0-176.0","2","[""img/0874/767f289c-9814-4496-803f-745cc8913d1f.jpg"",""img/0760/237fa1c2-d59d-4475-8d1e-f9a4eb71f989.jpg""]","",""
"","4943","similarity","183","1277164","0.0-6.0-177.0","2","[""img/0873/c2a7452d-a271-4207-81ce-bda281dc0297.jpg"",""img/0860/b03b963d-949b-4d8d-b19c-4950c89eeca2.jpg""]","",""
"","5286","similarity","184","1283465","0.0-6.0-178.0","3","[""img/0881/e6746727-7f89-47ec-b939-d98abe78372d.jpg"",""img/0883/eff15ce5-9393-443c-829f-71242d1c56d0.jpg""]","",""
"","3410","similarity","185","1287888","0.0-6.0-179.0","2","[""img/0886/4d28f75a-a9c3-49dd-8aa8-00304af6e40b.jpg"",""img/0958/54f27d86-00c0-46b2-b2c9-050c9cc60fe0.jpg""]","",""
"","3708","similarity","186","1292608","0.0-6.0-180.0","2","[""img/0864/0f537697-a314-47c3-a8cc-8df23b7e536c.jpg"",""img/0883/77f31752-1984-44f7-a77d-e22c2ad54256.jpg""]","",""
"","5330","similarity","187","1298952","0.0-6.0-181.0","3","[""img/0756/314a157e-e6d3-4447-a98f-8fde8f810f0c.jpg"",""img/0868/4a8a45ed-2c4f-421b-9564-409a33ecd26c.jpg""]","",""
"","4080","similarity","188","1304046","0.0-6.0-182.0","2","[""img/0884/9b1b7885-1502-448f-9b20-ddc19aa5456f.jpg"",""img/0758/2fa3e613-e676-4e6e-bd12-705327eeb3e1.jpg""]","",""
"","3344","similarity","189","1308403","0.0-6.0-183.0","2","[""img/0875/34132396-d896-4c2d-8087-646dd867e769.jpg"",""img/0874/7e4f2150-3b59-4a36-b5da-a4e0ba410531.jpg""]","",""
"","8205","similarity","190","1317625","0.0-6.0-184.0","7","[""img/0867/c66898ba-b71b-4d50-84f9-f7f84853a98d.jpg"",""img/0868/e0aff734-077f-40dd-9781-74821abd3621.jpg""]","",""
"","3751","similarity","191","1322395","0.0-6.0-185.0","2","[""img/0881/f62bdcd1-a4b7-4d48-83da-d9c9e01c8727.jpg"",""img/0885/0cdcdaca-f91e-4d4a-a6f6-dc90ab676435.jpg""]","",""
"","4149","similarity","192","1327559","0.0-6.0-186.0","2","[""img/0864/b3c4e378-28f0-4699-9338-2a257b4bca04.jpg"",""img/0761/6f9c1c71-e38d-4e3f-9062-39557812432a.jpg""]","",""
"","3815","similarity","193","1332389","0.0-6.0-187.0","2","[""img/0885/8960bf05-34df-4a86-a9b2-6087c70e61d3.jpg"",""img/0874/2c9464dd-8a23-4baa-ac94-1ba3af5c15cc.jpg""]","",""
"","3570","similarity","194","1336975","0.0-6.0-188.0","2","[""img/0758/b76ceca7-95ac-46e4-ac13-da02c8e93be9.jpg"",""img/0867/cc72ed48-7704-422c-86d6-467a1145287a.jpg""]","",""
"","3265","similarity","195","1341254","0.0-6.0-189.0","2","[""img/0756/04655068-a9fc-49d9-b2f4-21e4d42b7903.jpg"",""img/0884/5085d424-b3f5-461b-a1c7-f7ca55abcf4f.jpg""]","",""
"","4107","similarity","196","1346374","0.0-6.0-190.0","2","[""img/0761/6b42b402-9e0f-4179-9e10-660b2c07626b.jpg"",""img/0862/e697469a-ec19-4414-b972-7b9f3564785b.jpg""]","",""
"","4932","similarity","197","1352320","0.0-6.0-191.0","2","[""img/0860/8277806e-b684-4474-8f7b-3fca946d7d4f.jpg"",""img/0886/625c7dfa-3fa1-4166-80f0-229eb416b04f.jpg""]","",""
"","4121","similarity","198","1357453","0.0-6.0-192.0","2","[""img/0760/83b0723f-4929-4ee7-ad35-fae98da3e152.jpg"",""img/0885/a8cbb477-19ef-45ef-8f48-9667aec40bd1.jpg""]","",""
"","3508","similarity","199","1361976","0.0-6.0-193.0","2","[""img/0886/1e8c0f89-c766-41c9-b522-83c342048f34.jpg"",""img/0868/179a5502-ab5c-478e-8263-5a1fbcc101d2.jpg""]","",""
"","7881","similarity","200","1370870","0.0-6.0-194.0","3","[""img/0881/d373cb9f-a719-4549-a2a4-82def79fb2a5.jpg"",""img/0864/e02eddb5-f468-499c-91bf-f7be3ffe979b.jpg""]","",""
"","6135","similarity","201","1378015","0.0-6.0-195.0","6","[""img/0866/c446214b-a368-4c65-ae39-ea46894256ab.jpg"",""img/0868/77091fc7-a590-4ebb-b915-fdb2483a2399.jpg""]","",""
"","5020","similarity","202","1384048","0.0-6.0-196.0","2","[""img/0864/c3b63e8f-ea39-4d70-a1f2-b3fe4be8eb75.jpg"",""img/0958/644719ec-1690-4af2-a63f-0b6467c3791e.jpg""]","",""
"","4169","similarity","203","1389229","0.0-6.0-197.0","2","[""img/0757/6ecf2f24-3286-49d6-b5ed-bb2da660c588.jpg"",""img/0886/9b0bffbe-9237-404d-a0ba-a1982e0814c7.jpg""]","",""
"","4175","similarity","204","1394420","0.0-6.0-198.0","2","[""img/0758/d540bee6-b460-4c32-ac57-bc282742d7d4.jpg"",""img/0883/e7e4af6a-bc7a-4a9b-921c-32652db13239.jpg""]","",""
"","4195","similarity","205","1399627","0.0-6.0-199.0","4","[""img/0881/667e2147-d457-4f32-aa5f-6ab86e5848f1.jpg"",""img/0958/5a91b0e8-8f60-4625-b88c-d6e55b4d7d93.jpg""]","",""
"","5672","similarity","206","1406313","0.0-6.0-200.0","3","[""img/0958/ba5ed153-96de-4f61-b7d9-87a478c8972c.jpg"",""img/0874/1016b306-087c-4afc-aa08-fa527b28dc76.jpg""]","",""
"","3645","similarity","207","1410966","0.0-6.0-201.0","2","[""img/0885/1cd940ef-9720-4a04-8fa1-1dd3a39ecdd6.jpg"",""img/0860/61fb959d-d4d9-4de4-9e4e-4fa62b4cfcd5.jpg""]","",""
"","4016","similarity","208","1415994","0.0-6.0-202.0","2","[""img/0875/cff79b3a-a797-4393-9757-6275f999ec04.jpg"",""img/0881/14236cf2-6b95-48b8-9368-78af09d2d27f.jpg""]","",""
"","5414","similarity","209","1422418","0.0-6.0-203.0","2","[""img/0758/e1ba5e53-addc-436a-b428-d34fc1b130dc.jpg"",""img/0860/524b2e98-5767-4d53-942c-ebae6925659b.jpg""]","",""
"","4206","similarity","210","1427636","0.0-6.0-204.0","7","[""img/0860/c3379ff7-0763-48fe-a1ec-7ea3d611bc7a.jpg"",""img/0860/31ff6436-98bf-4652-bed2-40f627229568.jpg""]","",""
"","6558","similarity","211","1435207","0.0-6.0-205.0","6","[""img/0874/29830da7-be5f-44e5-b141-652a0ccf7269.jpg"",""img/0874/3f471690-9788-4d03-90c7-f615aecef149.jpg""]","",""
"","6542","similarity","212","1442763","0.0-6.0-206.0","5","[""img/0883/512a797a-315b-439e-9a9d-855929351fd0.jpg"",""img/0761/1725cacb-5f86-4b47-a5c0-3c36cd981588.jpg""]","",""
"","3933","similarity","213","1447710","0.0-6.0-207.0","4","[""img/0761/014e76d0-fb4e-4b40-901c-7a2d5655c3b0.jpg"",""img/0881/6b1189e6-232d-4042-8885-16dc7b10e0d4.jpg""]","",""
"","3641","similarity","214","1452360","0.0-6.0-208.0","2","[""img/0760/dfa71fdd-ddff-4827-a999-d5e599dd5679.jpg"",""img/0756/8ab56efe-fef0-45cc-ab57-82597f83b26a.jpg""]","",""
"","4472","similarity","215","1465532","0.0-6.0-209.0","2","[""img/0885/5a47e19f-19b4-4545-bf47-b508cb65da6a.jpg"",""img/0757/ec40956b-ed8b-4970-b87f-9b7c25cd5be6.jpg""]","",""
"[{""page_index"":0,""viewing_time"":89441}]","89442","instructions","216","1555975","0.0-7.0","","","",""
"","121612","image-multi-choice","217","1678617","0.0-8.0-0.0","","","{""Q0"":""Orange-crowned Warbler""}","Orange-crowned Warbler"
"","5756","image-multi-choice","218","1685399","0.0-8.0-1.0","","","{""Q0"":""Wilson's Warbler""}","Wilson's Warbler"
"","5894","image-multi-choice","219","1692318","0.0-8.0-2.0","","","{""Q0"":""Blackpoll Warbler""}","Blackpoll Warbler"
"","5560","image-multi-choice","220","1698901","0.0-8.0-3.0","","","{""Q0"":""Black-and-white Warbler""}","Black-and-white Warbler"
"","6228","image-multi-choice","221","1706153","0.0-8.0-4.0","","","{""Q0"":""Yellow-breasted Chat""}","Yellow-breasted Chat"
"","35397","image-multi-choice","222","1742577","0.0-8.0-5.0","","","{""Q0"":""Canada Warbler""}","Canada Warbler"
"","4944","image-multi-choice","223","1748546","0.0-8.0-6.0","","","{""Q0"":""Common Yellowthroat""}","Common Yellowthroat"
"","5705","image-multi-choice","224","1755270","0.0-8.0-7.0","","","{""Q0"":""American Redstart""}","American Redstart"
"","20650","image-multi-choice","225","1776940","0.0-8.0-8.0","","","{""Q0"":""Chestnut-sided Warbler""}","Chestnut-sided Warbler"
"","47908","image-multi-choice","226","1825875","0.0-8.0-9.0","","","{""Q0"":""Black-throated Green Warbler""}","Black-throated Green Warbler"
"","48779","image-multi-choice","227","1875678","0.0-8.0-10.0","","","{""Q0"":""Blackburnian Warbler""}","Blackburnian Warbler"
"","55143","image-multi-choice","228","1931843","0.0-8.0-11.0","","","{""Q0"":""Yellow-rumped Warbler""}","Yellow-rumped Warbler"
"","4740","image-multi-choice","229","1937613","0.0-8.0-12.0","","","{""Q0"":""Ovenbird""}","Ovenbird"
"","105749","image-multi-choice","230","2044387","0.0-8.0-13.0","","","{""Q0"":""Townsend's Warbler""}","Townsend's Warbler"
"","13513","image-multi-choice","231","2058927","0.0-8.0-14.0","","","{""Q0"":""Northern Waterthrush""}","Northern Waterthrush"
"","4835","image-multi-choice","232","2064792","0.0-8.0-15.0","","","{""Q0"":""Yellow Warbler""}","Yellow Warbler"
"","53784","image-multi-choice","233","2119602","0.0-8.0-16.0","","","{""Q0"":""Orange-crowned Warbler""}","Nashville Warbler"
"","205496","image-multi-choice","234","2326133","0.0-8.0-17.0","","","{""Q0"":""Blackpoll Warbler""}","Northern Parula"
"","7875","image-multi-choice","235","2335037","0.0-8.0-18.0","","","{""Q0"":""Tennessee Warbler""}","Tennessee Warbler"
"","33745","image-multi-choice","236","2369807","0.0-8.0-19.0","","","{""Q0"":""Yellow-rumped Warbler""}","Magnolia Warbler"
