"view_history","rt","trial_type","trial_index","time_elapsed","internal_node_id","sim_score","stimulus","responses","answer"
"[{""page_index"":0,""viewing_time"":14974}]","14975","instructions","0","14977","0.0-0.0","","","",""
"","5579","similarity_demo","1","21582","0.0-1.0","7","[""img/bluejay1.jpg"",""img/bluejay2.jpg""]","",""
"[{""page_index"":0,""viewing_time"":6324}]","6325","instructions","2","28909","0.0-2.0","","","",""
"","6904","similarity_demo","3","36821","0.0-3.0","4","[""img/bluejay1.jpg"",""img/cardinal1.jpg""]","",""
"[{""page_index"":0,""viewing_time"":5420}]","5420","instructions","4","43244","0.0-4.0","","","",""
"[{""page_index"":0,""viewing_time"":10311}]","10311","instructions","5","54557","0.0-5.0","","","",""
"","6404","similarity","6","61973","0.0-6.0-0.0","6","[""img/0864/afcba0a3-7e27-4757-b254-e9f05fad27e2.jpg"",""img/0860/4f695df5-afac-4da7-9875-fee39b0b24ad.jpg""]","",""
"","5012","similarity","7","67997","0.0-6.0-1.0","4","[""img/0884/3c61ea12-a408-47ce-98aa-b14e0f6d4591.jpg"",""img/0760/83b0723f-4929-4ee7-ad35-fae98da3e152.jpg""]","",""
"","5628","similarity","8","74638","0.0-6.0-2.0","3","[""img/0886/bd45b474-5559-4ea5-83ff-140bce19f5fa.jpg"",""img/0881/62a64f90-7a72-4aee-a1a1-0c548ac9bdda.jpg""]","",""
"","7069","similarity","9","82717","0.0-6.0-3.0","3","[""img/0866/93a27239-8317-4e08-98ca-d8b1ff298e07.jpg"",""img/0881/d1982897-8d8d-4704-a940-1ee5d07a1f15.jpg""]","",""
"","4894","similarity","10","88622","0.0-6.0-4.0","2","[""img/0868/e0aff734-077f-40dd-9781-74821abd3621.jpg"",""img/0885/1cd940ef-9720-4a04-8fa1-1dd3a39ecdd6.jpg""]","",""
"","4010","similarity","11","93645","0.0-6.0-5.0","2","[""img/0757/89ce15d5-a3da-4a62-ac9f-c28a9273bf33.jpg"",""img/0866/23a224f3-2012-4fc8-8e0f-3c36f8de27fd.jpg""]","",""
"","3429","similarity","12","98085","0.0-6.0-6.0","2","[""img/0868/3a62db2d-97e9-44a3-b8e3-a48c6f0e423b.jpg"",""img/0864/e8bd659f-aa43-4748-877e-3118e8b4e189.jpg""]","",""
"","4502","similarity","13","103597","0.0-6.0-7.0","6","[""img/0864/5f33e097-23e3-4002-882d-76e8cb15f451.jpg"",""img/0864/e336a4c5-6648-4fd7-b2f6-93a3fb83f8c6.jpg""]","",""
"","5158","similarity","14","109765","0.0-6.0-8.0","4","[""img/0757/4f8ae92b-a4ab-4020-b4fb-80c5615e76ac.jpg"",""img/0881/445edb15-bd7f-4af3-8bd5-c6ad9677bb31.jpg""]","",""
"","3412","similarity","15","114189","0.0-6.0-9.0","2","[""img/0886/451550d7-6ff9-42b5-938c-9e20ee960bf6.jpg"",""img/0760/a24659cd-f862-42cc-b43a-7ba8eae0c2c0.jpg""]","",""
"","4517","similarity","16","119717","0.0-6.0-10.0","3","[""img/0884/a6389ab4-3291-4434-9b91-eeae3b04fce4.jpg"",""img/0883/6884954b-873e-4d6f-9b4b-95d158e0de6c.jpg""]","",""
"","6369","similarity","17","127095","0.0-6.0-11.0","5","[""img/0874/767f289c-9814-4496-803f-745cc8913d1f.jpg"",""img/0862/00c06b00-3b73-44e9-bc1e-c5aafb438321.jpg""]","",""
"","4342","similarity","18","132445","0.0-6.0-12.0","2","[""img/0862/1c20f772-3a51-4a80-aac0-f57dc9f86c28.jpg"",""img/0875/8521fd58-3b1e-4dc5-97ae-804edfa6734a.jpg""]","",""
"","3343","similarity","19","136797","0.0-6.0-13.0","2","[""img/0875/5a7c4e35-6514-4e12-8879-d16071da4cd6.jpg"",""img/0757/8fdf4047-c2dc-42bc-9724-c35bd113f1dc.jpg""]","",""
"","5000","similarity","20","142805","0.0-6.0-14.0","3","[""img/0875/fb732ab5-013a-4366-9f65-27811ed157e9.jpg"",""img/0860/fd4662f9-4c03-4d79-8593-06735e55a64b.jpg""]","",""
"","5932","similarity","21","149741","0.0-6.0-15.0","2","[""img/0860/9593362c-9fe5-4d12-9735-6000a11f6aa5.jpg"",""img/0881/b549bc99-a61c-4450-bab5-9efc3a197bf0.jpg""]","",""
"","3415","similarity","22","154165","0.0-6.0-16.0","2","[""img/0885/fbbfaacd-e49b-4d37-a2f9-fcaffa58f26f.jpg"",""img/0884/ffcce05a-b38d-4570-b3dc-751e89b7790a.jpg""]","",""
"","4568","similarity","23","159741","0.0-6.0-17.0","7","[""img/0761/d5370a68-6c8a-486f-b2bf-330e2ad6b397.jpg"",""img/0761/014e76d0-fb4e-4b40-901c-7a2d5655c3b0.jpg""]","",""
"","4088","similarity","24","164837","0.0-6.0-18.0","5","[""img/0760/afe7a178-4458-4bdd-a0ad-0cffc57eadc3.jpg"",""img/0864/3d4de670-b290-4285-9c3d-12a0e3af44e9.jpg""]","",""
"","4283","similarity","25","170133","0.0-6.0-19.0","4","[""img/0864/6e846d43-94a6-4b37-a268-65eda979f052.jpg"",""img/0875/dbdd643e-6d0e-4a5c-ab57-b9c29b9c981a.jpg""]","",""
"","4358","similarity","26","175500","0.0-6.0-20.0","3","[""img/0874/ca23d307-fc00-4d7d-9106-584c6eb21b4d.jpg"",""img/0884/592da15b-09e4-46b5-81e7-bab08a1c33e9.jpg""]","",""
"","3909","similarity","27","180421","0.0-6.0-21.0","3","[""img/0885/6873c613-5e40-42ff-a5b6-443b6b626ae2.jpg"",""img/0866/11a1d141-be5e-443c-98c1-a9d4d9e3dec0.jpg""]","",""
"","5189","similarity","28","186613","0.0-6.0-22.0","7","[""img/0868/c8ac40c7-6904-4e13-8d61-c75d3052dc4e.jpg"",""img/0868/0d3abd3a-b6c3-4584-a9f7-e2da63748b3d.jpg""]","",""
"","4567","similarity","29","192188","0.0-6.0-23.0","2","[""img/0757/a3620c04-efdc-4b42-940c-806958d1351e.jpg"",""img/0756/96c1bf35-26b6-4428-b19d-bdb5efe1367a.jpg""]","",""
"","3696","similarity","30","196893","0.0-6.0-24.0","7","[""img/0875/f87b67d7-c33e-40d1-b281-248c4be1cb6e.jpg"",""img/0875/3ecb367d-e9eb-4826-8aaa-7aa72fb98019.jpg""]","",""
"","3984","similarity","31","201884","0.0-6.0-25.0","2","[""img/0761/176fde97-0334-4d2b-8a7a-38960c2528f3.jpg"",""img/0866/620cd1aa-0800-4414-8f6e-90342e7a99ad.jpg""]","",""
"","3377","similarity","32","206270","0.0-6.0-26.0","2","[""img/0866/6f2a90d7-14f1-4f1b-bd64-fc0af6b9fe44.jpg"",""img/0758/a085b443-b5d7-4cb2-9ad4-b9dab0fc23f1.jpg""]","",""
"","4655","similarity","33","211934","0.0-6.0-27.0","3","[""img/0758/d540bee6-b460-4c32-ac57-bc282742d7d4.jpg"",""img/0875/2c361b79-c3d1-4eda-812e-bf03192407bf.jpg""]","",""
"","7656","similarity","34","220596","0.0-6.0-28.0","6","[""img/0958/86d1a76d-f067-4e36-9ab5-13da78c97c0e.jpg"",""img/0757/69d850ce-9828-4b13-9e68-6a2c196ecbcc.jpg""]","",""
"","4560","similarity","35","226164","0.0-6.0-29.0","2","[""img/0873/226317e0-f0e7-42ea-907b-058cb1ad519a.jpg"",""img/0883/122548fc-b3cc-445b-b7c0-04794df6d11d.jpg""]","",""
"","4273","similarity","36","231445","0.0-6.0-30.0","2","[""img/0868/4a8a45ed-2c4f-421b-9564-409a33ecd26c.jpg"",""img/0875/ebf7653f-ff45-4e9f-af58-2c042ab3cd2b.jpg""]","",""
"","4680","similarity","37","237133","0.0-6.0-31.0","3","[""img/0884/05d9bfb9-44a6-4ab4-92fa-d17e5b2b4f33.jpg"",""img/0862/e0f1a4e9-e1b6-45f7-af67-89f334e6630d.jpg""]","",""
"","4559","similarity","38","242700","0.0-6.0-32.0","2","[""img/0884/37ee4afa-34a0-4da2-bdb0-fcaff43dcdb6.jpg"",""img/0864/8ddd2e30-a1d0-479f-9cbe-591213023893.jpg""]","",""
"","6065","similarity","39","249773","0.0-6.0-33.0","2","[""img/0883/1f394dd2-551c-4c8b-af82-f6a6fbe567bb.jpg"",""img/0958/1812c506-727b-43a7-882e-4729742e41fc.jpg""]","",""
"","2583","similarity","40","253364","0.0-6.0-34.0","2","[""img/0864/300bb811-8b3c-4c42-8653-6097c3725197.jpg"",""img/0756/6413e12f-951d-47b5-ae55-9fad7fb8d112.jpg""]","",""
"","8288","similarity","41","262660","0.0-6.0-35.0","6","[""img/0874/2c9464dd-8a23-4baa-ac94-1ba3af5c15cc.jpg"",""img/0758/e1ba5e53-addc-436a-b428-d34fc1b130dc.jpg""]","",""
"","3568","similarity","42","267237","0.0-6.0-36.0","2","[""img/0886/48077111-b86b-4612-910f-90a5d168d77f.jpg"",""img/0862/064818ee-13d5-4618-bb24-21c7368ea278.jpg""]","",""
"","3517","similarity","43","271764","0.0-6.0-37.0","2","[""img/0862/5d887e9f-89e2-4ebc-80a0-6d46fe6480db.jpg"",""img/0885/0cdcdaca-f91e-4d4a-a6f6-dc90ab676435.jpg""]","",""
"","4720","similarity","44","277492","0.0-6.0-38.0","4","[""img/0758/a709631e-3705-4725-ac40-f0d916924f08.jpg"",""img/0864/e02eddb5-f468-499c-91bf-f7be3ffe979b.jpg""]","",""
"","5535","similarity","45","284036","0.0-6.0-39.0","6","[""img/0873/a234d5d1-09ea-4594-9a0f-d569da31dbdb.jpg"",""img/0867/179ab87a-8eac-4c52-a41f-2e48e3120f09.jpg""]","",""
"","4272","similarity","46","289316","0.0-6.0-40.0","4","[""img/0958/96f89270-febc-4f09-b8c3-53a249ff00ea.jpg"",""img/0884/967c63af-8f6a-483f-9122-0c79d97fd22e.jpg""]","",""
"","5400","similarity","47","299268","0.0-6.0-41.0","7","[""img/0873/e5374873-a1a7-4689-a04c-a3b959992244.jpg"",""img/0873/b02f9cce-7f58-4f1b-baed-50fee9f0a21f.jpg""]","",""
"","3625","similarity","48","303901","0.0-6.0-42.0","2","[""img/0886/b8648eb5-de71-41ab-825d-848e51be8c1b.jpg"",""img/0758/dd559618-7f09-4a07-8018-d311c4a5ea29.jpg""]","",""
"","5783","similarity","49","310692","0.0-6.0-43.0","7","[""img/0883/00d89148-b7d4-49d2-831a-2eee070a85a4.jpg"",""img/0874/3f471690-9788-4d03-90c7-f615aecef149.jpg""]","",""
"","4992","similarity","50","316692","0.0-6.0-44.0","2","[""img/0881/19e82c47-8e4b-45d2-a6c8-74181eb4155e.jpg"",""img/0873/ac86dbfd-0442-4dec-9d10-37d7093f5a52.jpg""]","",""
"","3285","similarity","51","320988","0.0-6.0-45.0","2","[""img/0867/5e07b34d-b40f-4b1c-ac10-49975bace45f.jpg"",""img/0757/443a1d16-5d59-4e77-a670-d6190157c319.jpg""]","",""
"","4175","similarity","52","326172","0.0-6.0-46.0","1","[""img/0866/8efcaa46-83ab-4dee-a35f-850402aa21ae.jpg"",""img/0874/31e22c7c-99aa-40b1-bf03-dd73fa2df4d6.jpg""]","",""
"","7343","similarity","53","334524","0.0-6.0-47.0","7","[""img/0886/c6c81122-f4bf-46f4-968b-167f8ed0cab3.jpg"",""img/0886/7164ac42-460f-4beb-9d5e-a1cfded3099c.jpg""]","",""
"","7159","similarity","54","342693","0.0-6.0-48.0","1","[""img/0883/49aada36-b662-416c-93ae-9eab6598bfae.jpg"",""img/0860/17b44a7d-c5ca-479f-9e87-f65a64f5c80e.jpg""]","",""
"","2952","similarity","55","346653","0.0-6.0-49.0","1","[""img/0860/c3379ff7-0763-48fe-a1ec-7ea3d611bc7a.jpg"",""img/0756/09fde3d3-27c5-435e-b68f-5410beb04e99.jpg""]","",""
"","3824","similarity","56","351484","0.0-6.0-50.0","1","[""img/0860/d9a0d117-6d1d-41c0-8fec-9aff0fd9e9f2.jpg"",""img/0757/802a8692-dc9e-4372-8811-ce4351a09d1a.jpg""]","",""
"","4424","similarity","57","356916","0.0-6.0-51.0","7","[""img/0756/7a68b61c-212a-4f14-8b6f-4d74b6cd206e.jpg"",""img/0756/c7199ce2-2203-43c6-90d7-78f77277b522.jpg""]","",""
"","4329","similarity","58","362253","0.0-6.0-52.0","3","[""img/0875/2e13d160-eea1-416b-aff1-d37ab99ecc1d.jpg"",""img/0866/d493a2c8-66eb-44b4-be02-2f327b700b7c.jpg""]","",""
"","4805","similarity","59","368068","0.0-6.0-53.0","1","[""img/0756/4fcf5ea1-c2e0-44b9-b07f-26cbf07e1801.jpg"",""img/0758/d57c2592-a317-4f63-91be-91a3a9afd222.jpg""]","",""
"","4792","similarity","60","373868","0.0-6.0-54.0","1","[""img/0761/e34f97e4-14ac-4bb6-b226-816085d967c2.jpg"",""img/0884/a416b0d1-f903-4935-b89f-99c29683752b.jpg""]","",""
"","5912","similarity","61","380788","0.0-6.0-55.0","1","[""img/0760/dddcdfaf-2d02-4de9-a176-5705d0004b5a.jpg"",""img/0867/aa05d113-fc19-4756-a8eb-7878f580bc92.jpg""]","",""
"","5401","similarity","62","387197","0.0-6.0-56.0","2","[""img/0866/0207e9a2-7dbb-40b5-9459-b472aaeceb2a.jpg"",""img/0884/d9185264-7f01-43b2-be7f-eed1a0f0f2e8.jpg""]","",""
"","4087","similarity","63","392292","0.0-6.0-57.0","1","[""img/0756/d0f1b906-d8e0-4528-9d08-90cec14838ec.jpg"",""img/0761/89d3b943-cd14-4786-a7b8-0e9a695cf0e3.jpg""]","",""
"","4178","similarity","64","397476","0.0-6.0-58.0","1","[""img/0867/8ba0c5a7-c7e4-42cf-a80a-543763b90779.jpg"",""img/0860/8a92e21b-6a32-4e4a-a445-2d5a487ed0a4.jpg""]","",""
"","5751","similarity","65","404236","0.0-6.0-59.0","6","[""img/0881/84397291-bc14-4fbf-90e8-241e486ab0fe.jpg"",""img/0758/6e95579b-5166-487c-b8cb-e417c6a218e3.jpg""]","",""
"","4248","similarity","66","409492","0.0-6.0-60.0","4","[""img/0761/3599fa54-18f9-488e-b402-e851c43586ff.jpg"",""img/0758/7ee8bc8f-c40b-4b3a-84ec-3e83580622d4.jpg""]","",""
"","5048","similarity","67","415548","0.0-6.0-61.0","1","[""img/0958/acbadc39-e665-446d-b98f-ccd0ef3223d6.jpg"",""img/0875/a4935837-7d3c-4df6-88c1-36a94d4991ca.jpg""]","",""
"","3671","similarity","68","420228","0.0-6.0-62.0","1","[""img/0886/0f9715c1-b2e4-418e-bf9b-126cc9e70dc6.jpg"",""img/0864/f92649a2-0590-4d31-9a7a-1bfb81666a2d.jpg""]","",""
"","3505","similarity","69","424740","0.0-6.0-63.0","1","[""img/0756/403d0540-b812-446f-bb5a-e8030be0a02f.jpg"",""img/0874/3ce41e7c-40c8-4d58-a546-171114521796.jpg""]","",""
"","2768","similarity","70","428516","0.0-6.0-64.0","1","[""img/0758/f61ecdf8-a7d4-4db0-b84d-be46f7cfaffc.jpg"",""img/0885/517a9189-9623-4ed7-a37e-48788791e028.jpg""]","",""
"","6745","similarity","71","436268","0.0-6.0-65.0","6","[""img/0760/135d76ab-2bf3-4dc9-8509-92983dc9893d.jpg"",""img/0958/5a91b0e8-8f60-4625-b88c-d6e55b4d7d93.jpg""]","",""
"","11625","similarity","72","448900","0.0-6.0-66.0","4","[""img/0884/13db1f36-8c9f-4b28-8426-04eaa9fba737.jpg"",""img/0881/e6746727-7f89-47ec-b939-d98abe78372d.jpg""]","",""
"","4488","similarity","73","454396","0.0-6.0-67.0","1","[""img/0864/ea327690-500b-4137-bf91-451b309fe6a5.jpg"",""img/0873/6110910a-7895-4b6a-af51-12486a4595a3.jpg""]","",""
"","4248","similarity","74","459652","0.0-6.0-68.0","5","[""img/0862/d0ca4c78-fc35-46ed-bdcc-8e124283c53e.jpg"",""img/0758/7ffbc76b-1fc1-432c-8f7e-9ec8d1b3f643.jpg""]","",""
"","5001","similarity","75","465661","0.0-6.0-69.0","7","[""img/0757/6ecf2f24-3286-49d6-b5ed-bb2da660c588.jpg"",""img/0757/91a048c0-e749-433b-9147-0c671dc5b4ca.jpg""]","",""
"","5352","similarity","76","472020","0.0-6.0-70.0","6","[""img/0860/e14d67c1-6d92-4f1e-9257-c8607159c19c.jpg"",""img/0862/53a9cf7c-93c4-41b9-952f-07d17f7a17b2.jpg""]","",""
"","4969","similarity","77","477996","0.0-6.0-71.0","6","[""img/0860/99c589b9-9140-4d17-90c0-b344323edcda.jpg"",""img/0884/e275ab3e-0948-43c3-8be7-a75271922185.jpg""]","",""
"","3619","similarity","78","482620","0.0-6.0-72.0","1","[""img/0883/903939ef-a67c-40d3-841d-52555815cd88.jpg"",""img/0866/945c6710-d15b-4a5b-a8f6-69af0850357f.jpg""]","",""
"","5225","similarity","79","488852","0.0-6.0-73.0","2","[""img/0866/f756f7d1-9ad8-4a34-9ef6-7a443d705bfe.jpg"",""img/0886/9b0bffbe-9237-404d-a0ba-a1982e0814c7.jpg""]","",""
"","11697","similarity","80","501556","0.0-6.0-74.0","4","[""img/0958/fd950403-e452-4018-8207-a9714addcd75.jpg"",""img/0761/47960f80-42b7-4397-a852-ec55d716c652.jpg""]","",""
"","5586","similarity","81","508148","0.0-6.0-75.0","1","[""img/0875/d59ff733-eaff-4ee2-9443-06954dd0bcb6.jpg"",""img/0756/ca2a8f93-ed77-45c8-a3a3-22324aa28501.jpg""]","",""
"","3352","similarity","82","512508","0.0-6.0-76.0","1","[""img/0958/d3775867-a8f6-42ba-86ff-f86e85edba90.jpg"",""img/0885/8960bf05-34df-4a86-a9b2-6087c70e61d3.jpg""]","",""
"","3304","similarity","83","516820","0.0-6.0-77.0","4","[""img/0868/d6d1f30d-4323-435a-b194-7892521bc57e.jpg"",""img/0883/512a797a-315b-439e-9a9d-855929351fd0.jpg""]","",""
"","3521","similarity","84","521348","0.0-6.0-78.0","2","[""img/0862/f188d4f0-76a4-4102-818c-a209969d73a5.jpg"",""img/0760/1c96ffb7-17db-4253-b66c-59250977c88b.jpg""]","",""
"","11377","similarity","85","533732","0.0-6.0-79.0","1","[""img/0885/4fd0aafb-6cc0-43d6-993a-c55a6e18a7ba.jpg"",""img/0761/5747fedf-15f2-47fe-87c8-ff646dd66a5f.jpg""]","",""
"","8753","similarity","86","543492","0.0-6.0-80.0","4","[""img/0862/92f0146c-20c4-482e-aef5-adb693790338.jpg"",""img/0864/1ebbc554-99fa-49f9-8799-317375a79820.jpg""]","",""
"","6345","similarity","87","550844","0.0-6.0-81.0","7","[""img/0758/821c68d3-5cb0-4eae-8659-30e6263fca39.jpg"",""img/0758/b76ceca7-95ac-46e4-ac13-da02c8e93be9.jpg""]","",""
"","5537","similarity","88","557388","0.0-6.0-82.0","1","[""img/0862/57b6f83f-c763-4858-830d-102f97bfefbf.jpg"",""img/0873/ec150e40-b3ec-4dfe-ab38-bb3f248a1175.jpg""]","",""
"","6809","similarity","89","568835","0.0-6.0-83.0","1","[""img/0760/319c5462-51de-4d3b-a135-d6c44f59c0e1.jpg"",""img/0757/31d8ee3d-1b79-4d6a-9347-f91c87c00f92.jpg""]","",""
"","4759","similarity","90","574604","0.0-6.0-84.0","1","[""img/0867/c71dc569-f49c-4397-8381-68b8d726736d.jpg"",""img/0881/609a5e93-38b5-4940-8627-2bf8fad7f802.jpg""]","",""
"","4049","similarity","91","579660","0.0-6.0-85.0","1","[""img/0885/24afeefb-f7b3-4e8f-a5b9-17cc00fd22e3.jpg"",""img/0886/e5903946-897c-4420-87c0-afee4100305c.jpg""]","",""
"","3352","similarity","92","584020","0.0-6.0-86.0","1","[""img/0866/386235d2-6857-41e7-88a8-25cfc3430025.jpg"",""img/0864/65210d57-1153-4657-886a-32e758f49b4a.jpg""]","",""
"","5619","similarity","93","590644","0.0-6.0-87.0","6","[""img/0874/7e4f2150-3b59-4a36-b5da-a4e0ba410531.jpg"",""img/0881/f6bd3b96-dc40-4e99-8681-bc3a35cf896d.jpg""]","",""
"","5032","similarity","94","596684","0.0-6.0-88.0","4","[""img/0866/d266fece-59b3-46fa-b69f-96f6efb81b59.jpg"",""img/0760/812c848f-be21-4059-abe5-8c4f4ac9ad0f.jpg""]","",""
"","3168","similarity","95","600860","0.0-6.0-89.0","1","[""img/0867/f8488a47-94ee-4166-952c-44e16cf172f6.jpg"",""img/0884/989ec8e3-5e41-4055-b0b5-3d65b9c44917.jpg""]","",""
"","5001","similarity","96","606868","0.0-6.0-90.0","1","[""img/0757/c05f53f3-811c-4a3b-b848-a27b80b8fd53.jpg"",""img/0862/847e5208-38ec-4f36-949c-296cdd7424ee.jpg""]","",""
"","3057","similarity","97","610932","0.0-6.0-91.0","1","[""img/0867/cc72ed48-7704-422c-86d6-467a1145287a.jpg"",""img/0761/5ed865c0-8bfb-4310-9b47-690b3e450ca2.jpg""]","",""
"","4253","similarity","98","616188","0.0-6.0-92.0","1","[""img/0868/83b4350a-3b70-4cea-b7f5-b5b56f3050a8.jpg"",""img/0958/822de3b9-e5fd-4b74-aeb1-7c40805b0717.jpg""]","",""
"","5216","similarity","99","622412","0.0-6.0-93.0","6","[""img/0874/93d1f8dc-acf2-4f03-bd8d-8ec35df276ed.jpg"",""img/0864/4bd81bc6-c13d-46df-95a9-485886dc7c1b.jpg""]","",""
"","4337","similarity","100","627756","0.0-6.0-94.0","2","[""img/0760/237fa1c2-d59d-4475-8d1e-f9a4eb71f989.jpg"",""img/0873/87f38f18-48a2-4de3-b24b-70630e8b6ca0.jpg""]","",""
"","5334","similarity","101","634100","0.0-6.0-95.0","5","[""img/0868/4bd5105a-d2c3-4f82-8c80-57196106ba53.jpg"",""img/0873/b76d7003-814d-42b0-9a16-1399c4b0e706.jpg""]","",""
"","4538","similarity","102","639644","0.0-6.0-96.0","3","[""img/0860/8277806e-b684-4474-8f7b-3fca946d7d4f.jpg"",""img/0761/6f9c1c71-e38d-4e3f-9062-39557812432a.jpg""]","",""
"","3862","similarity","103","644507","0.0-6.0-97.0","4","[""img/0862/cdaed51d-9e2f-4807-801a-4663c40077e2.jpg"",""img/0883/c6db9b70-f16c-47ee-a408-c9278365ae54.jpg""]","",""
"","4025","similarity","104","649540","0.0-6.0-98.0","1","[""img/0757/4faaa503-45d9-43fa-bddb-707274a341ff.jpg"",""img/0884/0b4cf8d4-4c8f-4312-a794-f99e01679176.jpg""]","",""
"","3425","similarity","105","653972","0.0-6.0-99.0","1","[""img/0867/12264664-1860-46df-8c21-162b9817cdda.jpg"",""img/0756/5dba4151-3cf5-42f5-8dd9-7c6128318b01.jpg""]","",""
"","3025","similarity","106","658004","0.0-6.0-100.0","1","[""img/0958/eea2b7ca-1c37-4e76-ada7-a8b1f3afdc01.jpg"",""img/0756/b5b6c1ba-df7c-4bac-94ac-786f45dbb140.jpg""]","",""
"","3955","similarity","107","662965","0.0-6.0-101.0","4","[""img/0760/868ae139-99b5-4ff2-9d19-c4933af135e4.jpg"",""img/0760/191d8576-9ed7-4798-a486-66a7fd600e58.jpg""]","",""
"","4119","similarity","108","668091","0.0-6.0-102.0","2","[""img/0873/0c7f3d86-efda-4809-aac4-256ba01e0536.jpg"",""img/0875/90da8d75-108a-44ad-b999-e21fee3860d3.jpg""]","",""
"","10256","similarity","109","679357","0.0-6.0-103.0","3","[""img/0884/2348ce3f-5d2a-4a04-85ef-a65f05caa935.jpg"",""img/0884/fb8b0101-bfd2-462b-a942-d3202a69dd18.jpg""]","",""
"","4728","similarity","110","685092","0.0-6.0-104.0","2","[""img/0873/d74e4aa9-420d-48a3-a42f-30a3481536ae.jpg"",""img/0885/21b241a1-95da-4306-9cf2-cc52a784214a.jpg""]","",""
"","3833","similarity","111","689932","0.0-6.0-105.0","1","[""img/0883/6dcd54c3-64a3-4ed5-9149-d8b9aa1938c8.jpg"",""img/0875/5a1e5100-0d94-4fec-bbe9-ca9894d2cf8e.jpg""]","",""
"","3727","similarity","112","694667","0.0-6.0-106.0","1","[""img/0864/9b2490c5-a282-400a-9736-e1a0ecbf1cb7.jpg"",""img/0867/7d1c497b-c1b3-4ed8-abb5-d7f73306015f.jpg""]","",""
"","5393","similarity","113","701067","0.0-6.0-107.0","1","[""img/0958/7168f8d3-e3ae-405a-93d0-64836d899932.jpg"",""img/0860/8fdba999-b946-4c7d-9891-336018b563ef.jpg""]","",""
"","4448","similarity","114","706523","0.0-6.0-108.0","1","[""img/0885/d2276b26-e91a-4f19-a818-cbeb297ed884.jpg"",""img/0756/8d47d83d-7e73-4d35-94ec-d814380febc6.jpg""]","",""
"","4001","similarity","115","711532","0.0-6.0-109.0","1","[""img/0883/142a783e-a468-4b7f-a750-1e107613d5a9.jpg"",""img/0885/ef0386f3-e5d4-481b-8894-60b80e08bbe8.jpg""]","",""
"","5657","similarity","116","718196","0.0-6.0-110.0","7","[""img/0867/c66898ba-b71b-4d50-84f9-f7f84853a98d.jpg"",""img/0867/db7e032f-162b-46f5-ae67-2b29679adee4.jpg""]","",""
"","5175","similarity","117","724380","0.0-6.0-111.0","2","[""img/0881/6b1189e6-232d-4042-8885-16dc7b10e0d4.jpg"",""img/0760/dfa71fdd-ddff-4827-a999-d5e599dd5679.jpg""]","",""
"","4752","similarity","118","730140","0.0-6.0-112.0","1","[""img/0881/2a8413be-fec2-4de6-88ad-614dd4cccc9d.jpg"",""img/0868/293079b8-7e0c-4afd-a390-1e5d35fe3ded.jpg""]","",""
"","3159","similarity","119","734308","0.0-6.0-113.0","1","[""img/0875/42910c99-5463-450a-a0f8-d4d060a11455.jpg"",""img/0761/71d2e184-21b4-4711-97f3-e381c641da2c.jpg""]","",""
"","3671","similarity","120","738987","0.0-6.0-114.0","1","[""img/0756/321ae2a8-5dd4-4b23-b1e4-202e0b7c0b02.jpg"",""img/0866/02f5e6b9-52b7-448c-9708-5b460d0c9a23.jpg""]","",""
"","5744","similarity","121","745739","0.0-6.0-115.0","2","[""img/0884/10c0a35b-e20a-4d75-a7c0-959a578d9ebf.jpg"",""img/0886/1870a791-dfee-471e-8417-197d4a53c75a.jpg""]","",""
"","3473","similarity","122","750220","0.0-6.0-116.0","1","[""img/0756/2d59e6c9-df29-4c76-a030-db83f23c8b9b.jpg"",""img/0881/4da99fdd-1f40-4bbb-8e21-8833eef313f5.jpg""]","",""
"","5424","similarity","123","756651","0.0-6.0-117.0","1","[""img/0760/868961d8-3272-4d3c-9c8b-9d183315cabc.jpg"",""img/0875/e7e66b13-b573-431e-b85e-288ce04a35a3.jpg""]","",""
"","5072","similarity","124","762731","0.0-6.0-118.0","5","[""img/0958/6e602e13-8029-4642-bce0-8deffd0dc686.jpg"",""img/0866/be24ab58-230e-4db8-9f45-ff04c9aec6bb.jpg""]","",""
"","4408","similarity","125","768147","0.0-6.0-119.0","1","[""img/0867/f26f6b60-f772-4f4c-95a4-addc62cfd692.jpg"",""img/0874/adf9a8f1-c40b-402b-b95b-1e85a54a7b62.jpg""]","",""
"","5120","similarity","126","774275","0.0-6.0-120.0","4","[""img/0883/daaa1a6f-c322-46f6-b6a6-db2c9496d710.jpg"",""img/0757/20c59f64-1fc2-448d-8423-42cbd8fe0164.jpg""]","",""
"","3689","similarity","127","778971","0.0-6.0-121.0","1","[""img/0874/eba003b4-cdab-4eee-8bc3-f064c7d94165.jpg"",""img/0886/9f186bd5-d48b-4cc2-9206-be67c392faa9.jpg""]","",""
"","4185","similarity","128","784163","0.0-6.0-122.0","1","[""img/0873/c2a7452d-a271-4207-81ce-bda281dc0297.jpg"",""img/0761/07f8178b-8ce5-42d6-bca0-a0ae0e0e8eb3.jpg""]","",""
"","3816","similarity","129","788988","0.0-6.0-123.0","2","[""img/0875/cff79b3a-a797-4393-9757-6275f999ec04.jpg"",""img/0884/7ae02e9d-46a4-4124-bcc2-cad90d7ef9f9.jpg""]","",""
"","5153","similarity","130","795147","0.0-6.0-124.0","1","[""img/0757/efa4466e-2951-4af9-b321-85458a89c2a7.jpg"",""img/0868/179a5502-ab5c-478e-8263-5a1fbcc101d2.jpg""]","",""
"","3744","similarity","131","802651","0.0-6.0-125.0","1","[""img/0886/97243e18-4dba-4af8-b49f-b3b635c90ac4.jpg"",""img/0883/fc8cf4c9-003e-48c4-b222-8878ea2ae1c0.jpg""]","",""
"","3121","similarity","132","806779","0.0-6.0-126.0","1","[""img/0868/fd307a36-9a3a-47d7-ab7c-f810d0b35040.jpg"",""img/0760/1912c0dc-64a7-4c32-8d67-baf5e8752270.jpg""]","",""
"","6258","similarity","133","814043","0.0-6.0-127.0","7","[""img/0881/f8bd891e-aa09-4782-89db-33e7cb2b0cf1.jpg"",""img/0881/c24f3051-eefa-42de-aba6-fccb56d93c70.jpg""]","",""
"","4777","similarity","134","819827","0.0-6.0-128.0","1","[""img/0760/e697857f-b21d-4c49-8cde-1b803b437311.jpg"",""img/0860/4c530c3c-6aab-492a-94d1-9c01797bde40.jpg""]","",""
"","2840","similarity","135","823675","0.0-6.0-129.0","1","[""img/0864/c3b63e8f-ea39-4d70-a1f2-b3fe4be8eb75.jpg"",""img/0885/8cdf3204-e0f1-482b-9546-5edca3d81376.jpg""]","",""
"","3273","similarity","136","827955","0.0-6.0-130.0","2","[""img/0864/da39ad34-04e0-40d4-a724-c08d53e0ea09.jpg"",""img/0757/cb7ca802-27ac-4a1d-996f-bd21b96d6244.jpg""]","",""
"","4816","similarity","137","833779","0.0-6.0-131.0","2","[""img/0760/36c930c0-2660-41c1-a356-77dafb18ae83.jpg"",""img/0883/29cba870-24df-4a0b-85cd-b680316ffe3d.jpg""]","",""
"","4528","similarity","138","839315","0.0-6.0-132.0","7","[""img/0885/fce9f22a-f769-477c-acee-a5ad8214f0a5.jpg"",""img/0885/62bd11a8-7059-4cc2-b06d-4700688b313f.jpg""]","",""
"","3041","similarity","139","843363","0.0-6.0-133.0","1","[""img/0860/29a21a9f-54bb-4093-ad3f-04823ceaa89f.jpg"",""img/0868/6a28c3b0-3d76-498a-9fb7-ddafc665eca8.jpg""]","",""
"","5321","similarity","140","849691","0.0-6.0-134.0","5","[""img/0867/a749dddb-69f0-44a6-acdc-2bf295cf6dcc.jpg"",""img/0886/42cccc64-05f9-4afd-bc93-496ba50a4342.jpg""]","",""
"","4219","similarity","141","854915","0.0-6.0-135.0","1","[""img/0756/85a63773-50ff-441d-b259-1e335100a9d0.jpg"",""img/0886/9ac18ff1-d3d9-4bfe-aa2e-ed5b28399f6c.jpg""]","",""
"","4641","similarity","142","860563","0.0-6.0-136.0","2","[""img/0884/ee845634-cd54-4c06-95a9-962122ef8712.jpg"",""img/0868/4e626425-63c8-484a-8a1d-e66ee4e0bef8.jpg""]","",""
"","5977","similarity","143","867547","0.0-6.0-137.0","7","[""img/0958/ba5ed153-96de-4f61-b7d9-87a478c8972c.jpg"",""img/0958/58b7811e-d3f6-4e4d-befb-86e063d13a43.jpg""]","",""
"","4633","similarity","144","873187","0.0-6.0-138.0","2","[""img/0886/1e8c0f89-c766-41c9-b522-83c342048f34.jpg"",""img/0873/d39b1731-1669-4c96-b5c6-682b30e287ee.jpg""]","",""
"","6649","similarity","145","880843","0.0-6.0-139.0","2","[""img/0758/61d64021-9214-4951-bdf8-f871f9827cf9.jpg"",""img/0873/90b702a6-3dba-446a-9bba-a2ee096baf49.jpg""]","",""
"","4130","similarity","146","885979","0.0-6.0-140.0","1","[""img/0873/c3ff3b70-fb22-42f2-883c-3ecffd77cb4b.jpg"",""img/0756/a940d622-200d-4df5-8896-60af56798bbe.jpg""]","",""
"","3321","similarity","147","890307","0.0-6.0-141.0","1","[""img/0868/5fa7f9d0-f0e5-454c-8224-74d964818f56.jpg"",""img/0862/92fcd8a4-8193-4a6a-ae09-dd4a6338b0df.jpg""]","",""
"","5585","similarity","148","896899","0.0-6.0-142.0","6","[""img/0881/ed4c971f-0873-4fc8-b6d6-e8bbd82f0bcc.jpg"",""img/0862/eefa5588-9efd-4591-aa5f-a2e17c7d7bcc.jpg""]","",""
"","5777","similarity","149","903683","0.0-6.0-143.0","6","[""img/0885/a4e5c564-1e5f-4fed-9f73-b8d1becf62b6.jpg"",""img/0867/6e19c858-b606-45b2-a4c6-910a73f1d82c.jpg""]","",""
"","5897","similarity","150","910587","0.0-6.0-144.0","4","[""img/0883/cc2bb2c6-18f1-414f-98cc-6cd683173ce4.jpg"",""img/0883/77f31752-1984-44f7-a77d-e22c2ad54256.jpg""]","",""
"","3481","similarity","151","915075","0.0-6.0-145.0","1","[""img/0874/995f0332-0439-4eb4-add3-957335dbf6d9.jpg"",""img/0873/c91c05f8-fafd-4054-bcf1-f5ed1f0a18e8.jpg""]","",""
"","3194","similarity","152","919275","0.0-6.0-146.0","1","[""img/0757/92ed1ceb-29ef-4044-9601-78d7806e2396.jpg"",""img/0758/3ddd05d3-557e-4ee7-8b78-9d2d681d8ae2.jpg""]","",""
"","3202","similarity","153","923483","0.0-6.0-147.0","1","[""img/0883/68a56098-91b8-4c40-8827-7808704aa1bc.jpg"",""img/0756/10fa3aa2-6100-492a-826e-febb6513cf13.jpg""]","",""
"","5233","similarity","154","929723","0.0-6.0-148.0","7","[""img/0867/bf560d4f-dee3-4f11-a385-705cc1aa5f3c.jpg"",""img/0866/c446214b-a368-4c65-ae39-ea46894256ab.jpg""]","",""
"","6545","similarity","155","937275","0.0-6.0-149.0","6","[""img/0758/335851a0-a55b-46d8-ab05-8463eda48349.jpg"",""img/0760/39d75e1e-0645-4f23-a2ca-3bbefac19d69.jpg""]","",""
"","4321","similarity","156","942603","0.0-6.0-150.0","1","[""img/0757/a91bb71b-8c84-4999-8da7-f30e53ddc2a7.jpg"",""img/0761/b1819a20-de99-463b-9840-60a4b8faa30d.jpg""]","",""
"","7009","similarity","157","950619","0.0-6.0-151.0","6","[""img/0761/53a65b48-8b0c-4a1d-9ebb-a27a259c5bc6.jpg"",""img/0874/a3bc679d-619f-4db6-bb68-116dcb757d9c.jpg""]","",""
"","4873","similarity","158","956499","0.0-6.0-152.0","6","[""img/0761/6b42b402-9e0f-4179-9e10-660b2c07626b.jpg"",""img/0760/fe62dd62-331c-4317-8af2-f1c816871fee.jpg""]","",""
"","5608","similarity","159","963115","0.0-6.0-153.0","7","[""img/0866/4a87911a-d5be-4d4e-ab8e-3d1f581bf507.jpg"",""img/0866/9b38d691-1802-4959-ab3f-fc902f0e4ea6.jpg""]","",""
"","4525","similarity","160","968643","0.0-6.0-154.0","1","[""img/0866/a04d37f0-99dd-478a-b6c6-58b215138f84.jpg"",""img/0862/ad593cc7-cabe-4bb7-8e14-8a447a0717b4.jpg""]","",""
"","3401","similarity","161","973051","0.0-6.0-155.0","1","[""img/0756/792f9475-979d-4787-b7dc-8a0d02f6e25f.jpg"",""img/0862/f43ceabf-acc1-4107-b857-5d1849808f93.jpg""]","",""
"","5057","similarity","162","979115","0.0-6.0-156.0","6","[""img/0860/71e1aad0-2cdf-43bb-94a4-a8c016997c30.jpg"",""img/0866/07c9c966-3c8d-40e7-8128-92b2acbaed5d.jpg""]","",""
"","3217","similarity","163","983339","0.0-6.0-157.0","1","[""img/0862/99a99e39-8355-44ec-b993-e7bcec111e1c.jpg"",""img/0958/b11515b3-5f04-4c3e-be00-56a05c6c3e96.jpg""]","",""
"","5906","similarity","164","990251","0.0-6.0-158.0","1","[""img/0761/aebad236-1f4a-4bc2-a74d-d92b7e226316.jpg"",""img/0868/d98ca254-b195-477f-b57e-5760a2717db8.jpg""]","",""
"","6633","similarity","165","997891","0.0-6.0-159.0","1","[""img/0761/e18d2113-1ed1-4a80-8171-4be5ee28d343.jpg"",""img/0886/4d28f75a-a9c3-49dd-8aa8-00304af6e40b.jpg""]","",""
"","6858","similarity","166","1005755","0.0-6.0-160.0","1","[""img/0874/1016b306-087c-4afc-aa08-fa527b28dc76.jpg"",""img/0868/77091fc7-a590-4ebb-b915-fdb2483a2399.jpg""]","",""
"","5377","similarity","167","1012139","0.0-6.0-161.0","2","[""img/0860/4a022222-056d-461c-ab02-39fac9647552.jpg"",""img/0874/99f6563c-8a8d-4c1c-a41d-667b618c3fd5.jpg""]","",""
"","3786","similarity","168","1016931","0.0-6.0-162.0","1","[""img/0883/d719aab0-0280-4c06-87e5-b9db7454965c.jpg"",""img/0867/2e1a0b58-cdb1-4107-a14e-452530d7b9b0.jpg""]","",""
"","5623","similarity","169","1023563","0.0-6.0-163.0","5","[""img/0758/eabcd7a8-56ad-4fd2-bc24-90f6b7b33265.jpg"",""img/0958/e9e2cc42-eb3b-4c91-8112-a517305c15f0.jpg""]","",""
"","5727","similarity","170","1030299","0.0-6.0-164.0","3","[""img/0873/1d1be182-3bb2-4efd-8543-d70b8db7beef.jpg"",""img/0757/fd3c82c8-3311-4fae-bcec-10559587910a.jpg""]","",""
"","5833","similarity","171","1037139","0.0-6.0-165.0","6","[""img/0873/b509aa81-b1d7-4d50-8aef-9c7b725c3157.jpg"",""img/0866/a15b02be-11bb-43e3-b0e0-ecc3bd7dfc49.jpg""]","",""
"","5753","similarity","172","1043899","0.0-6.0-166.0","5","[""img/0875/03c3c331-738b-4446-af92-3d7386b08c2e.jpg"",""img/0867/de92135f-5b65-4ed9-b245-188292c7c2f8.jpg""]","",""
"","4081","similarity","173","1051378","0.0-6.0-167.0","7","[""img/0862/4f0a3b4c-afbf-486e-b248-1d54982f54b4.jpg"",""img/0862/e8cc3bdf-cc43-4565-bccf-492626c70953.jpg""]","",""
"","3769","similarity","174","1056155","0.0-6.0-168.0","1","[""img/0875/5a716432-c6ca-4b1c-955a-2b8ac25198ee.jpg"",""img/0886/d1e40478-2fe0-404f-8409-920da98a96a2.jpg""]","",""
"","4081","similarity","175","1061243","0.0-6.0-169.0","1","[""img/0885/5a47e19f-19b4-4545-bf47-b508cb65da6a.jpg"",""img/0875/34132396-d896-4c2d-8087-646dd867e769.jpg""]","",""
"","4928","similarity","176","1067179","0.0-6.0-170.0","1","[""img/0862/24cdc752-c2e5-4a17-86a6-6f2045d8553b.jpg"",""img/0867/ac1797e4-8afc-48fe-b252-86d1defb1cca.jpg""]","",""
"","5313","similarity","177","1073499","0.0-6.0-171.0","6","[""img/0884/9b1b7885-1502-448f-9b20-ddc19aa5456f.jpg"",""img/0873/33552b07-bdb8-423e-88b4-25a37f159c6d.jpg""]","",""
"","6402","similarity","178","1080907","0.0-6.0-172.0","5","[""img/0873/0d9b4403-7f26-46dc-b0b7-2b97b0a91b46.jpg"",""img/0958/ef1b718f-ef8c-497f-80d7-42562aebf1a7.jpg""]","",""
"","4532","similarity","179","1086443","0.0-6.0-173.0","1","[""img/0868/1a62b2b2-18f5-466e-b564-5176a57c565e.jpg"",""img/0758/2fa3e613-e676-4e6e-bd12-705327eeb3e1.jpg""]","",""
"","6385","similarity","180","1093834","0.0-6.0-174.0","6","[""img/0757/ec40956b-ed8b-4970-b87f-9b7c25cd5be6.jpg"",""img/0874/8cdb1c07-1c32-46d2-981c-3636560fa6e5.jpg""]","",""
"","4961","similarity","181","1099803","0.0-6.0-175.0","1","[""img/0958/644719ec-1690-4af2-a63f-0b6467c3791e.jpg"",""img/0867/26611f4e-d694-4460-b7e2-43c62753ddc3.jpg""]","",""
"","5216","similarity","182","1106026","0.0-6.0-176.0","5","[""img/0874/85eb9b8a-c4c6-4e5a-b8e7-363a87a82054.jpg"",""img/0760/0864f159-c076-4573-83e1-ea134f239717.jpg""]","",""
"","5425","similarity","183","1112458","0.0-6.0-177.0","1","[""img/0873/841d6549-01d2-4ebd-8d67-25d219876178.jpg"",""img/0860/5bff793e-cbd5-4d7e-b628-0ac2b0e30b64.jpg""]","",""
"","4961","similarity","184","1118426","0.0-6.0-178.0","6","[""img/0881/33d65d80-8a8e-4ecf-852d-0ad7725c17a2.jpg"",""img/0883/599aacc5-bb0f-4dea-852c-9a27727eb0b9.jpg""]","",""
"","4824","similarity","185","1124259","0.0-6.0-179.0","1","[""img/0886/aef00ed5-e288-47bf-b31e-512d7e762ea2.jpg"",""img/0958/0a8f72c4-0c73-4d58-be6f-5e4613b87409.jpg""]","",""
"","4457","similarity","186","1129722","0.0-6.0-180.0","4","[""img/0864/ef9cbca0-4be8-435d-ad49-977259e80409.jpg"",""img/0883/ff85a2f1-14b1-4b7e-9c87-887151d97e01.jpg""]","",""
"","5632","similarity","187","1136362","0.0-6.0-181.0","1","[""img/0756/9a7a2119-24a3-431f-95e6-62f596bf88e2.jpg"",""img/0868/09a9ef4d-d000-4cfa-a6aa-ebec7c2edeb4.jpg""]","",""
"","3807","similarity","188","1141178","0.0-6.0-182.0","4","[""img/0884/3613aeb4-0028-4205-aea0-1ea28cb1f80e.jpg"",""img/0758/ddc336e9-a8b6-4bb9-937a-c7e25e0e9250.jpg""]","",""
"","5386","similarity","189","1147570","0.0-6.0-183.0","1","[""img/0875/527ced51-8e53-4aab-ab05-86df219104c0.jpg"",""img/0874/c0378dac-9370-439a-8b79-db27c96fb390.jpg""]","",""
"","5913","similarity","190","1154490","0.0-6.0-184.0","6","[""img/0867/a498eef3-9fa4-4ab2-9778-4ae82ac40dc5.jpg"",""img/0868/8b0b8473-e2c0-4331-aa56-c3a5c29369da.jpg""]","",""
"","5817","similarity","191","1161314","0.0-6.0-185.0","1","[""img/0881/405484ae-0d00-4b05-bc57-6420a36adfac.jpg"",""img/0885/5225e532-2812-41d9-8ef0-0fbfc612784e.jpg""]","",""
"","8025","similarity","192","1170346","0.0-6.0-186.0","7","[""img/0864/0116ca98-293d-4fa6-a93b-5a6144ef64cc.jpg"",""img/0761/8e379ec1-757d-4427-a0ff-d4efdd6a50c4.jpg""]","",""
"","4686","similarity","193","1176034","0.0-6.0-187.0","1","[""img/0885/1e66fe61-15d5-42b1-86aa-dbfd13613f5c.jpg"",""img/0874/a82926a3-0b43-4add-803c-d5f9ea7798ee.jpg""]","",""
"","3905","similarity","194","1180946","0.0-6.0-188.0","1","[""img/0758/e38fd80d-18d0-42f3-b848-f930788e8bd7.jpg"",""img/0867/85a96c62-548f-4994-9553-819e03c3135a.jpg""]","",""
"","3864","similarity","195","1185819","0.0-6.0-189.0","1","[""img/0756/ba3f2106-0416-46e6-a788-1b50d9f92bda.jpg"",""img/0884/a8f7b854-0010-4c7a-a8fb-b1b1dc1f1ba1.jpg""]","",""
"","4425","similarity","196","1191250","0.0-6.0-190.0","1","[""img/0761/9199a691-d36e-4ece-a815-078384ea6f06.jpg"",""img/0862/ee3b7bff-4a70-4e84-9bea-4a565e456acb.jpg""]","",""
"","3800","similarity","197","1196058","0.0-6.0-191.0","1","[""img/0860/61fb959d-d4d9-4de4-9e4e-4fa62b4cfcd5.jpg"",""img/0886/625c7dfa-3fa1-4166-80f0-229eb416b04f.jpg""]","",""
"","3296","similarity","198","1200362","0.0-6.0-192.0","1","[""img/0760/4f024637-f98a-409a-baa0-fc4989d80667.jpg"",""img/0885/a8cbb477-19ef-45ef-8f48-9667aec40bd1.jpg""]","",""
"","4731","similarity","199","1206100","0.0-6.0-193.0","6","[""img/0886/abd8dd83-d8ee-4003-b4d2-b4045220a578.jpg"",""img/0868/15dd6fd7-791e-4b53-b203-195d617521a4.jpg""]","",""
"","4864","similarity","200","1211972","0.0-6.0-194.0","4","[""img/0881/dea58fad-b4f1-41d9-bd3f-916eff19a3fd.jpg"",""img/0864/b3c4e378-28f0-4699-9338-2a257b4bca04.jpg""]","",""
"","3907","similarity","201","1216882","0.0-6.0-195.0","6","[""img/0866/bf14b5bd-fb55-47db-86b9-4f8aeb9a6dad.jpg"",""img/0868/7b212364-ff5f-4e28-9241-7eb6ea00161b.jpg""]","",""
"","4483","similarity","202","1222371","0.0-6.0-196.0","2","[""img/0864/5f74a653-3bdc-4308-8cca-ac667dc22e1f.jpg"",""img/0958/ebea41e3-9d65-4f5e-981a-92daaaad0d57.jpg""]","",""
"","3985","similarity","203","1227363","0.0-6.0-197.0","1","[""img/0757/cd7fd185-981f-477a-ba00-a0f65bcfd0e9.jpg"",""img/0886/789f5d23-84b8-499a-ae1e-20c6309a06ae.jpg""]","",""
"","3856","similarity","204","1232226","0.0-6.0-198.0","4","[""img/0758/caa93da2-9edf-49fa-96b9-32dedd8f5078.jpg"",""img/0883/e3603ed7-8fca-475a-aeb1-d1f7651c4618.jpg""]","",""
"","6376","similarity","205","1239610","0.0-6.0-199.0","6","[""img/0881/db77fe00-aeb0-4d1d-aa66-f3a96fd077e4.jpg"",""img/0958/9be61b1d-099b-432a-ae0e-2aa69e157c0e.jpg""]","",""
"","4041","similarity","206","1244658","0.0-6.0-200.0","4","[""img/0958/4e2ca4bc-52c7-4c27-9610-776441231e42.jpg"",""img/0874/bf14b896-e930-4fd9-9c05-2e83317a2773.jpg""]","",""
"","3953","similarity","207","1249618","0.0-6.0-201.0","1","[""img/0885/89d8c48b-8bde-42ed-ae71-de669b15ea34.jpg"",""img/0860/87039971-2210-4aab-93c0-8e9b5f1655b2.jpg""]","",""
"","5097","similarity","208","1255722","0.0-6.0-202.0","1","[""img/0875/99698b4d-b4a1-44bc-8c83-8ea755bbbf61.jpg"",""img/0881/5fe04dd0-5c74-47b7-99c8-b068db9ca26a.jpg""]","",""
"","6082","similarity","209","1262810","0.0-6.0-203.0","5","[""img/0758/d41c06bf-ebaf-454b-91c6-1a17f917b659.jpg"",""img/0860/524b2e98-5767-4d53-942c-ebae6925659b.jpg""]","",""
"","4649","similarity","210","1268466","0.0-6.0-204.0","7","[""img/0860/b03b963d-949b-4d8d-b19c-4950c89eeca2.jpg"",""img/0860/c7047cd2-7cc1-41b6-8a34-c0986774975f.jpg""]","",""
"","3913","similarity","211","1273386","0.0-6.0-205.0","4","[""img/0874/ca76a855-4e77-4f2f-872a-0a718153e7ed.jpg"",""img/0874/29830da7-be5f-44e5-b141-652a0ccf7269.jpg""]","",""
"","3720","similarity","212","1278114","0.0-6.0-206.0","4","[""img/0883/ab9b6977-0cdc-47a2-b180-494a5be181b2.jpg"",""img/0761/ff3e024b-951d-4aca-a168-c09c6507525d.jpg""]","",""
"","5649","similarity","213","1284770","0.0-6.0-207.0","3","[""img/0761/af21c992-a721-45fb-bee7-f50c0f676c30.jpg"",""img/0881/48ed65a5-471f-41af-86ec-3793805c116d.jpg""]","",""
"","4778","similarity","214","1290555","0.0-6.0-208.0","1","[""img/0760/7cdb34e4-0556-4bf7-9a6f-05990a92e0f3.jpg"",""img/0756/a8246880-fb51-43bb-b25d-905e6e0d7880.jpg""]","",""
"","3657","similarity","215","1297337","0.0-6.0-209.0","1","[""img/0885/05af267f-b982-498d-9807-ccd54689f9b4.jpg"",""img/0757/10030bb1-70b8-4889-a8a5-ab50e145704d.jpg""]","",""
"[{""page_index"":0,""viewing_time"":5104}]","5104","instructions","216","1303442","0.0-7.0","","","",""
"","35833","image-multi-choice","217","1340318","0.0-8.0-0.0","","","{""Q0"":""Yellow Warbler""}","Orange-crowned Warbler"
"","7672","image-multi-choice","218","1349020","0.0-8.0-1.0","","","{""Q0"":""Wilson's Warbler""}","Wilson's Warbler"
"","5125","image-multi-choice","219","1355180","0.0-8.0-2.0","","","{""Q0"":""Blackpoll Warbler""}","Blackpoll Warbler"
"","6068","image-multi-choice","220","1362276","0.0-8.0-3.0","","","{""Q0"":""Black-and-white Warbler""}","Black-and-white Warbler"
"","5310","image-multi-choice","221","1368628","0.0-8.0-4.0","","","{""Q0"":""Yellow-breasted Chat""}","Yellow-breasted Chat"
"","4168","image-multi-choice","222","1373820","0.0-8.0-5.0","","","{""Q0"":""Canada Warbler""}","Canada Warbler"
"","4407","image-multi-choice","223","1379252","0.0-8.0-6.0","","","{""Q0"":""Common Yellowthroat""}","Common Yellowthroat"
"","18143","image-multi-choice","224","1398428","0.0-8.0-7.0","","","{""Q0"":""American Redstart""}","American Redstart"
"","11226","image-multi-choice","225","1410692","0.0-8.0-8.0","","","{""Q0"":""Chestnut-sided Warbler""}","Chestnut-sided Warbler"
"","5260","image-multi-choice","226","1416980","0.0-8.0-9.0","","","{""Q0"":""Black-throated Green Warbler""}","Black-throated Green Warbler"
"","7502","image-multi-choice","227","1425510","0.0-8.0-10.0","","","{""Q0"":""Magnolia Warbler""}","Blackburnian Warbler"
"","9123","image-multi-choice","228","1435660","0.0-8.0-11.0","","","{""Q0"":""Yellow-rumped Warbler""}","Yellow-rumped Warbler"
"","3751","image-multi-choice","229","1440444","0.0-8.0-12.0","","","{""Q0"":""Ovenbird""}","Ovenbird"
"","12991","image-multi-choice","230","1454460","0.0-8.0-13.0","","","{""Q0"":""Tennessee Warbler""}","Townsend's Warbler"
"","6122","image-multi-choice","231","1461604","0.0-8.0-14.0","","","{""Q0"":""Northern Waterthrush""}","Northern Waterthrush"
"","4045","image-multi-choice","232","1466676","0.0-8.0-15.0","","","{""Q0"":""Yellow Warbler""}","Yellow Warbler"
"","9428","image-multi-choice","233","1477132","0.0-8.0-16.0","","","{""Q0"":""Nashville Warbler""}","Nashville Warbler"
"","9495","image-multi-choice","234","1487651","0.0-8.0-17.0","","","{""Q0"":""Tennessee Warbler""}","Northern Parula"
"","5932","image-multi-choice","235","1494611","0.0-8.0-18.0","","","{""Q0"":""Orange-crowned Warbler""}","Tennessee Warbler"
"","5803","image-multi-choice","236","1501444","0.0-8.0-19.0","","","{""Q0"":""Magnolia Warbler""}","Magnolia Warbler"
