"view_history","rt","trial_type","trial_index","time_elapsed","internal_node_id","sim_score","stimulus","responses","answer"
"[{""page_index"":0,""viewing_time"":20675}]","20676","instructions","0","20678","0.0-0.0","","","",""
"","9893","similarity_demo","1","31583","0.0-1.0","7","[""img/bluejay1.jpg"",""img/bluejay2.jpg""]","",""
"[{""page_index"":0,""viewing_time"":7313}]","7313","instructions","2","39899","0.0-2.0","","","",""
"","4900","similarity_demo","3","45806","0.0-3.0","1","[""img/bluejay1.jpg"",""img/cardinal1.jpg""]","",""
"[{""page_index"":0,""viewing_time"":5899}]","5899","instructions","4","52709","0.0-4.0","","","",""
"[{""page_index"":0,""viewing_time"":87998}]","87999","instructions","5","141711","0.0-5.0","","","",""
"","10282","similarity","6","153000","0.0-6.0-0.0","1","[""img/0864/e02eddb5-f468-499c-91bf-f7be3ffe979b.jpg"",""img/0860/94ef7afc-e0e6-4a15-98c6-0bfac82bc832.jpg""]","",""
"","5982","similarity","7","159988","0.0-6.0-1.0","1","[""img/0884/ffcce05a-b38d-4570-b3dc-751e89b7790a.jpg"",""img/0760/fc99ba9e-e7fa-443b-9ba0-2b3c76930893.jpg""]","",""
"","5546","similarity","8","166544","0.0-6.0-2.0","1","[""img/0886/9f186bd5-d48b-4cc2-9206-be67c392faa9.jpg"",""img/0881/48ed65a5-471f-41af-86ec-3793805c116d.jpg""]","",""
"","5264","similarity","9","172817","0.0-6.0-3.0","1","[""img/0866/02f5e6b9-52b7-448c-9708-5b460d0c9a23.jpg"",""img/0881/4bd34581-94d8-4e88-8c89-5cef864ca3be.jpg""]","",""
"","8917","similarity","10","182743","0.0-6.0-4.0","3","[""img/0868/8b0b8473-e2c0-4331-aa56-c3a5c29369da.jpg"",""img/0885/8cdf3204-e0f1-482b-9546-5edca3d81376.jpg""]","",""
"","7952","similarity","11","191704","0.0-6.0-5.0","1","[""img/0757/6ecf2f24-3286-49d6-b5ed-bb2da660c588.jpg"",""img/0866/93a27239-8317-4e08-98ca-d8b1ff298e07.jpg""]","",""
"","3773","similarity","12","196487","0.0-6.0-6.0","1","[""img/0868/5fa7f9d0-f0e5-454c-8224-74d964818f56.jpg"",""img/0864/8ddd2e30-a1d0-479f-9cbe-591213023893.jpg""]","",""
"","7056","similarity","13","204548","0.0-6.0-7.0","7","[""img/0864/da39ad34-04e0-40d4-a724-c08d53e0ea09.jpg"",""img/0864/1d15626a-2f7c-410f-819c-0fa2c967e95e.jpg""]","",""
"","3779","similarity","14","209332","0.0-6.0-8.0","1","[""img/0757/1fd9dcb9-e489-4708-b518-f356d3f5481d.jpg"",""img/0881/633c6f40-56d9-4b48-bf1c-ecd83116eabb.jpg""]","",""
"","5014","similarity","15","215352","0.0-6.0-9.0","1","[""img/0886/97243e18-4dba-4af8-b49f-b3b635c90ac4.jpg"",""img/0760/57510c7a-e5a9-420e-9b3f-f7423746f67c.jpg""]","",""
"","6239","similarity","16","222601","0.0-6.0-10.0","1","[""img/0884/fb8b0101-bfd2-462b-a942-d3202a69dd18.jpg"",""img/0883/903939ef-a67c-40d3-841d-52555815cd88.jpg""]","",""
"","6296","similarity","17","229906","0.0-6.0-11.0","1","[""img/0874/1016b306-087c-4afc-aa08-fa527b28dc76.jpg"",""img/0862/4f0a3b4c-afbf-486e-b248-1d54982f54b4.jpg""]","",""
"","6908","similarity","18","237824","0.0-6.0-12.0","2","[""img/0862/92f0146c-20c4-482e-aef5-adb693790338.jpg"",""img/0875/03c3c331-738b-4446-af92-3d7386b08c2e.jpg""]","",""
"","4055","similarity","19","242887","0.0-6.0-13.0","1","[""img/0875/34132396-d896-4c2d-8087-646dd867e769.jpg"",""img/0757/fd3c82c8-3311-4fae-bcec-10559587910a.jpg""]","",""
"","4928","similarity","20","248825","0.0-6.0-14.0","1","[""img/0875/2e13d160-eea1-416b-aff1-d37ab99ecc1d.jpg"",""img/0860/fd4662f9-4c03-4d79-8593-06735e55a64b.jpg""]","",""
"","3783","similarity","21","253616","0.0-6.0-15.0","1","[""img/0860/8277806e-b684-4474-8f7b-3fca946d7d4f.jpg"",""img/0881/f6bd3b96-dc40-4e99-8681-bc3a35cf896d.jpg""]","",""
"","5207","similarity","22","259833","0.0-6.0-16.0","2","[""img/0885/5a47e19f-19b4-4545-bf47-b508cb65da6a.jpg"",""img/0884/7ae02e9d-46a4-4124-bcc2-cad90d7ef9f9.jpg""]","",""
"","7462","similarity","23","268304","0.0-6.0-17.0","6","[""img/0761/b1819a20-de99-463b-9840-60a4b8faa30d.jpg"",""img/0761/014e76d0-fb4e-4b40-901c-7a2d5655c3b0.jpg""]","",""
"","6194","similarity","24","275507","0.0-6.0-18.0","2","[""img/0760/d87ebbb0-e718-4ab1-8882-e48253d6fd00.jpg"",""img/0864/87c467d3-abca-482f-ad80-3766c21b1bb3.jpg""]","",""
"","3543","similarity","25","280058","0.0-6.0-19.0","1","[""img/0864/65210d57-1153-4657-886a-32e758f49b4a.jpg"",""img/0875/99698b4d-b4a1-44bc-8c83-8ea755bbbf61.jpg""]","",""
"","4808","similarity","26","285874","0.0-6.0-20.0","2","[""img/0874/99f6563c-8a8d-4c1c-a41d-667b618c3fd5.jpg"",""img/0884/a6389ab4-3291-4434-9b91-eeae3b04fce4.jpg""]","",""
"","6133","similarity","27","293017","0.0-6.0-21.0","2","[""img/0885/f4ed5442-1f5c-4a69-abe6-8336ed11ec77.jpg"",""img/0866/c446214b-a368-4c65-ae39-ea46894256ab.jpg""]","",""
"","6905","similarity","28","300930","0.0-6.0-22.0","5","[""img/0868/0d3abd3a-b6c3-4584-a9f7-e2da63748b3d.jpg"",""img/0868/293079b8-7e0c-4afd-a390-1e5d35fe3ded.jpg""]","",""
"","5353","similarity","29","307287","0.0-6.0-23.0","1","[""img/0757/76206a63-e02d-4beb-a85a-ed1b5527bc36.jpg"",""img/0756/6d2df7ce-35aa-4a5d-ab53-974d2c02034e.jpg""]","",""
"","5617","similarity","30","313913","0.0-6.0-24.0","7","[""img/0875/d59ff733-eaff-4ee2-9443-06954dd0bcb6.jpg"",""img/0875/8521fd58-3b1e-4dc5-97ae-804edfa6734a.jpg""]","",""
"","4137","similarity","31","319057","0.0-6.0-25.0","1","[""img/0761/6b42b402-9e0f-4179-9e10-660b2c07626b.jpg"",""img/0866/9b38d691-1802-4959-ab3f-fc902f0e4ea6.jpg""]","",""
"","6669","similarity","32","326731","0.0-6.0-26.0","1","[""img/0866/23a224f3-2012-4fc8-8e0f-3c36f8de27fd.jpg"",""img/0758/3ddd05d3-557e-4ee7-8b78-9d2d681d8ae2.jpg""]","",""
"","6031","similarity","33","333769","0.0-6.0-27.0","1","[""img/0758/65d426d6-3ff6-415d-8654-a43b83ecc4fe.jpg"",""img/0875/f87b67d7-c33e-40d1-b281-248c4be1cb6e.jpg""]","",""
"","6915","similarity","34","341692","0.0-6.0-28.0","5","[""img/0958/822de3b9-e5fd-4b74-aeb1-7c40805b0717.jpg"",""img/0757/8fdf4047-c2dc-42bc-9724-c35bd113f1dc.jpg""]","",""
"","3964","similarity","35","346663","0.0-6.0-29.0","1","[""img/0873/226317e0-f0e7-42ea-907b-058cb1ad519a.jpg"",""img/0883/68a56098-91b8-4c40-8827-7808704aa1bc.jpg""]","",""
"","6117","similarity","36","353787","0.0-6.0-30.0","2","[""img/0868/1a62b2b2-18f5-466e-b564-5176a57c565e.jpg"",""img/0875/a4935837-7d3c-4df6-88c1-36a94d4991ca.jpg""]","",""
"","3972","similarity","37","358765","0.0-6.0-31.0","2","[""img/0884/5085d424-b3f5-461b-a1c7-f7ca55abcf4f.jpg"",""img/0862/d0ca4c78-fc35-46ed-bdcc-8e124283c53e.jpg""]","",""
"","7751","similarity","38","367523","0.0-6.0-32.0","5","[""img/0884/a416b0d1-f903-4935-b89f-99c29683752b.jpg"",""img/0864/f92649a2-0590-4d31-9a7a-1bfb81666a2d.jpg""]","",""
"","6113","similarity","39","374644","0.0-6.0-33.0","2","[""img/0883/daaa1a6f-c322-46f6-b6a6-db2c9496d710.jpg"",""img/0958/ba5ed153-96de-4f61-b7d9-87a478c8972c.jpg""]","",""
"","3547","similarity","40","379196","0.0-6.0-34.0","1","[""img/0864/6e846d43-94a6-4b37-a268-65eda979f052.jpg"",""img/0756/85a63773-50ff-441d-b259-1e335100a9d0.jpg""]","",""
"","6321","similarity","41","386522","0.0-6.0-35.0","7","[""img/0874/767f289c-9814-4496-803f-745cc8913d1f.jpg"",""img/0758/e38fd80d-18d0-42f3-b848-f930788e8bd7.jpg""]","",""
"","4452","similarity","42","391978","0.0-6.0-36.0","2","[""img/0886/aef00ed5-e288-47bf-b31e-512d7e762ea2.jpg"",""img/0862/e0f1a4e9-e1b6-45f7-af67-89f334e6630d.jpg""]","",""
"","4298","similarity","43","397282","0.0-6.0-37.0","1","[""img/0862/5d887e9f-89e2-4ebc-80a0-6d46fe6480db.jpg"",""img/0885/1cd940ef-9720-4a04-8fa1-1dd3a39ecdd6.jpg""]","",""
"","6447","similarity","44","404737","0.0-6.0-38.0","2","[""img/0758/eabcd7a8-56ad-4fd2-bc24-90f6b7b33265.jpg"",""img/0864/ea327690-500b-4137-bf91-451b309fe6a5.jpg""]","",""
"","6579","similarity","45","412322","0.0-6.0-39.0","3","[""img/0873/7dddc95f-ca6e-4d15-99a0-0e329ec6888e.jpg"",""img/0867/7d1c497b-c1b3-4ed8-abb5-d7f73306015f.jpg""]","",""
"","8042","similarity","46","421370","0.0-6.0-40.0","3","[""img/0958/e9e2cc42-eb3b-4c91-8112-a517305c15f0.jpg"",""img/0884/592da15b-09e4-46b5-81e7-bab08a1c33e9.jpg""]","",""
"","6113","similarity","47","436209","0.0-6.0-41.0","7","[""img/0873/b02f9cce-7f58-4f1b-baed-50fee9f0a21f.jpg"",""img/0873/0d9b4403-7f26-46dc-b0b7-2b97b0a91b46.jpg""]","",""
"","6324","similarity","48","443540","0.0-6.0-42.0","2","[""img/0886/4d28f75a-a9c3-49dd-8aa8-00304af6e40b.jpg"",""img/0758/ddc336e9-a8b6-4bb9-937a-c7e25e0e9250.jpg""]","",""
"","6229","similarity","49","450773","0.0-6.0-43.0","3","[""img/0883/1f394dd2-551c-4c8b-af82-f6a6fbe567bb.jpg"",""img/0874/ca23d307-fc00-4d7d-9106-584c6eb21b4d.jpg""]","",""
"","4699","similarity","50","456481","0.0-6.0-44.0","1","[""img/0881/0c7068da-d0d9-4103-bda1-74ef7a2b32c3.jpg"",""img/0873/6110910a-7895-4b6a-af51-12486a4595a3.jpg""]","",""
"","4209","similarity","51","461698","0.0-6.0-45.0","1","[""img/0867/8ba0c5a7-c7e4-42cf-a80a-543763b90779.jpg"",""img/0757/69d850ce-9828-4b13-9e68-6a2c196ecbcc.jpg""]","",""
"","3552","similarity","52","466254","0.0-6.0-46.0","1","[""img/0866/4a87911a-d5be-4d4e-ab8e-3d1f581bf507.jpg"",""img/0874/995f0332-0439-4eb4-add3-957335dbf6d9.jpg""]","",""
"","6110","similarity","53","473372","0.0-6.0-47.0","4","[""img/0886/0f9715c1-b2e4-418e-bf9b-126cc9e70dc6.jpg"",""img/0886/789f5d23-84b8-499a-ae1e-20c6309a06ae.jpg""]","",""
"","4347","similarity","54","478725","0.0-6.0-48.0","1","[""img/0883/c6db9b70-f16c-47ee-a408-c9278365ae54.jpg"",""img/0860/17b44a7d-c5ca-479f-9e87-f65a64f5c80e.jpg""]","",""
"","3647","similarity","55","483381","0.0-6.0-49.0","1","[""img/0860/99c589b9-9140-4d17-90c0-b344323edcda.jpg"",""img/0756/403d0540-b812-446f-bb5a-e8030be0a02f.jpg""]","",""
"","4414","similarity","56","488801","0.0-6.0-50.0","1","[""img/0860/9593362c-9fe5-4d12-9735-6000a11f6aa5.jpg"",""img/0757/014ee4a8-8069-4b08-ac1c-04230da90244.jpg""]","",""
"","4274","similarity","57","494079","0.0-6.0-51.0","7","[""img/0756/caa9655d-9f7e-420d-a757-6af4985d335a.jpg"",""img/0756/7a68b61c-212a-4f14-8b6f-4d74b6cd206e.jpg""]","",""
"","4948","similarity","58","500037","0.0-6.0-52.0","3","[""img/0875/e7e66b13-b573-431e-b85e-288ce04a35a3.jpg"",""img/0866/620cd1aa-0800-4414-8f6e-90342e7a99ad.jpg""]","",""
"","3471","similarity","59","504517","0.0-6.0-53.0","1","[""img/0756/4fcf5ea1-c2e0-44b9-b07f-26cbf07e1801.jpg"",""img/0758/53f35650-e455-4b53-8be4-c3c8271c6466.jpg""]","",""
"","7856","similarity","60","513378","0.0-6.0-54.0","3","[""img/0761/3599fa54-18f9-488e-b402-e851c43586ff.jpg"",""img/0884/baabff07-71d8-424e-ac29-644768380941.jpg""]","",""
"","6020","similarity","61","520405","0.0-6.0-55.0","1","[""img/0760/e697857f-b21d-4c49-8cde-1b803b437311.jpg"",""img/0867/a498eef3-9fa4-4ab2-9778-4ae82ac40dc5.jpg""]","",""
"","6454","similarity","62","527867","0.0-6.0-56.0","2","[""img/0866/945c6710-d15b-4a5b-a8f6-69af0850357f.jpg"",""img/0884/967c63af-8f6a-483f-9122-0c79d97fd22e.jpg""]","",""
"","4452","similarity","63","533326","0.0-6.0-57.0","1","[""img/0756/8ab56efe-fef0-45cc-ab57-82597f83b26a.jpg"",""img/0761/8e379ec1-757d-4427-a0ff-d4efdd6a50c4.jpg""]","",""
"","5369","similarity","64","539703","0.0-6.0-58.0","2","[""img/0867/98d8cd96-1476-4fe0-a3a3-04f875500a1b.jpg"",""img/0860/61fb959d-d4d9-4de4-9e4e-4fa62b4cfcd5.jpg""]","",""
"","6719","similarity","65","547430","0.0-6.0-59.0","6","[""img/0881/c24f3051-eefa-42de-aba6-fccb56d93c70.jpg"",""img/0758/7ffbc76b-1fc1-432c-8f7e-9ec8d1b3f643.jpg""]","",""
"","6017","similarity","66","554455","0.0-6.0-60.0","3","[""img/0761/edc0b069-71dc-4b11-b7f0-8429ea8ac5c9.jpg"",""img/0758/7fba58df-2a7a-4b76-8a8f-62739f97f271.jpg""]","",""
"","4338","similarity","67","559799","0.0-6.0-61.0","2","[""img/0958/ef1b718f-ef8c-497f-80d7-42562aebf1a7.jpg"",""img/0875/5a1e5100-0d94-4fec-bbe9-ca9894d2cf8e.jpg""]","",""
"","3343","similarity","68","564151","0.0-6.0-62.0","1","[""img/0886/1870a791-dfee-471e-8417-197d4a53c75a.jpg"",""img/0864/6f631579-acf1-415c-a42c-1207f62a8d99.jpg""]","",""
"","4015","similarity","69","569176","0.0-6.0-63.0","1","[""img/0756/d0f1b906-d8e0-4528-9d08-90cec14838ec.jpg"",""img/0874/adf9a8f1-c40b-402b-b95b-1e85a54a7b62.jpg""]","",""
"","4202","similarity","70","574384","0.0-6.0-64.0","1","[""img/0758/61d64021-9214-4951-bdf8-f871f9827cf9.jpg"",""img/0885/a8cbb477-19ef-45ef-8f48-9667aec40bd1.jpg""]","",""
"","4777","similarity","71","580165","0.0-6.0-65.0","2","[""img/0760/83b0723f-4929-4ee7-ad35-fae98da3e152.jpg"",""img/0958/ebea41e3-9d65-4f5e-981a-92daaaad0d57.jpg""]","",""
"","5280","similarity","72","586454","0.0-6.0-66.0","3","[""img/0884/3613aeb4-0028-4205-aea0-1ea28cb1f80e.jpg"",""img/0881/f7a8cc63-8842-40a4-9ff8-fe530310d62c.jpg""]","",""
"","3127","similarity","73","590590","0.0-6.0-67.0","1","[""img/0864/0116ca98-293d-4fa6-a93b-5a6144ef64cc.jpg"",""img/0873/b76d7003-814d-42b0-9a16-1399c4b0e706.jpg""]","",""
"","4696","similarity","74","596294","0.0-6.0-68.0","2","[""img/0862/99a99e39-8355-44ec-b993-e7bcec111e1c.jpg"",""img/0758/7ee8bc8f-c40b-4b3a-84ec-3e83580622d4.jpg""]","",""
"","5896","similarity","75","603199","0.0-6.0-69.0","7","[""img/0757/802a8692-dc9e-4372-8811-ce4351a09d1a.jpg"",""img/0757/a7964b0f-aee3-4b4c-9cd1-c1c998c49fef.jpg""]","",""
"","4368","similarity","76","608575","0.0-6.0-70.0","3","[""img/0860/87039971-2210-4aab-93c0-8e9b5f1655b2.jpg"",""img/0862/57b6f83f-c763-4858-830d-102f97bfefbf.jpg""]","",""
"","7706","similarity","77","617285","0.0-6.0-71.0","3","[""img/0860/5383b320-1518-4095-a58e-5cc1ae30b64c.jpg"",""img/0884/13db1f36-8c9f-4b28-8426-04eaa9fba737.jpg""]","",""
"","4920","similarity","78","623213","0.0-6.0-72.0","2","[""img/0883/dc95de8d-9297-41ec-b3ac-3f8b060260e3.jpg"",""img/0866/8efcaa46-83ab-4dee-a35f-850402aa21ae.jpg""]","",""
"","4928","similarity","79","629148","0.0-6.0-73.0","4","[""img/0866/07c9c966-3c8d-40e7-8128-92b2acbaed5d.jpg"",""img/0886/7164ac42-460f-4beb-9d5e-a1cfded3099c.jpg""]","",""
"","4352","similarity","80","634509","0.0-6.0-74.0","4","[""img/0958/1812c506-727b-43a7-882e-4729742e41fc.jpg"",""img/0761/5ed865c0-8bfb-4310-9b47-690b3e450ca2.jpg""]","",""
"","2999","similarity","81","638515","0.0-6.0-75.0","1","[""img/0875/5a716432-c6ca-4b1c-955a-2b8ac25198ee.jpg"",""img/0756/b5b6c1ba-df7c-4bac-94ac-786f45dbb140.jpg""]","",""
"","3336","similarity","82","642858","0.0-6.0-76.0","1","[""img/0958/96f89270-febc-4f09-b8c3-53a249ff00ea.jpg"",""img/0885/517a9189-9623-4ed7-a37e-48788791e028.jpg""]","",""
"","3051","similarity","83","646913","0.0-6.0-77.0","1","[""img/0868/7b212364-ff5f-4e28-9241-7eb6ea00161b.jpg"",""img/0883/142a783e-a468-4b7f-a750-1e107613d5a9.jpg""]","",""
"","7324","similarity","84","655246","0.0-6.0-78.0","3","[""img/0862/a0a3a7ba-7798-46a3-b4ca-05e1f6e581d0.jpg"",""img/0760/dfa71fdd-ddff-4827-a999-d5e599dd5679.jpg""]","",""
"","5347","similarity","85","661602","0.0-6.0-79.0","2","[""img/0885/c840cf2c-c95d-4a08-b3c2-044d1ea946a7.jpg"",""img/0761/5747fedf-15f2-47fe-87c8-ff646dd66a5f.jpg""]","",""
"","5996","similarity","86","668605","0.0-6.0-80.0","3","[""img/0862/ad593cc7-cabe-4bb7-8e14-8a447a0717b4.jpg"",""img/0864/1ebbc554-99fa-49f9-8799-317375a79820.jpg""]","",""
"","7487","similarity","87","677097","0.0-6.0-81.0","6","[""img/0758/6e95579b-5166-487c-b8cb-e417c6a218e3.jpg"",""img/0758/a085b443-b5d7-4cb2-9ad4-b9dab0fc23f1.jpg""]","",""
"","3166","similarity","88","681271","0.0-6.0-82.0","1","[""img/0862/f23038d4-c366-4f70-979f-66b62362efa4.jpg"",""img/0873/ec150e40-b3ec-4dfe-ab38-bb3f248a1175.jpg""]","",""
"","3995","similarity","89","692876","0.0-6.0-83.0","2","[""img/0760/a97cc3a7-3e6e-423e-ac87-e1d1ab280ae9.jpg"",""img/0757/1aca59fd-6030-4bb0-93c7-32a90f3237cf.jpg""]","",""
"","3950","similarity","90","697831","0.0-6.0-84.0","1","[""img/0867/a749dddb-69f0-44a6-acdc-2bf295cf6dcc.jpg"",""img/0881/14236cf2-6b95-48b8-9368-78af09d2d27f.jpg""]","",""
"","4695","similarity","91","703531","0.0-6.0-85.0","2","[""img/0885/d2276b26-e91a-4f19-a818-cbeb297ed884.jpg"",""img/0886/bd45b474-5559-4ea5-83ff-140bce19f5fa.jpg""]","",""
"","3960","similarity","92","708498","0.0-6.0-86.0","1","[""img/0866/be24ab58-230e-4db8-9f45-ff04c9aec6bb.jpg"",""img/0864/5f33e097-23e3-4002-882d-76e8cb15f451.jpg""]","",""
"","6721","similarity","93","716227","0.0-6.0-87.0","5","[""img/0874/eba003b4-cdab-4eee-8bc3-f064c7d94165.jpg"",""img/0881/e046471a-35b4-4159-bbf7-3cfd201bef66.jpg""]","",""
"","6053","similarity","94","723288","0.0-6.0-88.0","1","[""img/0866/6f2a90d7-14f1-4f1b-bd64-fc0af6b9fe44.jpg"",""img/0760/9daf8012-19c4-498f-8f51-81ec001a83be.jpg""]","",""
"","4435","similarity","95","728728","0.0-6.0-89.0","2","[""img/0867/bf560d4f-dee3-4f11-a385-705cc1aa5f3c.jpg"",""img/0884/989ec8e3-5e41-4055-b0b5-3d65b9c44917.jpg""]","",""
"","3775","similarity","96","733511","0.0-6.0-90.0","1","[""img/0757/0668efad-1c92-425c-9aa9-2bbe833fd777.jpg"",""img/0862/ee3b7bff-4a70-4e84-9bea-4a565e456acb.jpg""]","",""
"","3287","similarity","97","737805","0.0-6.0-91.0","1","[""img/0867/6e19c858-b606-45b2-a4c6-910a73f1d82c.jpg"",""img/0761/176fde97-0334-4d2b-8a7a-38960c2528f3.jpg""]","",""
"","5119","similarity","98","743933","0.0-6.0-92.0","2","[""img/0868/d6d1f30d-4323-435a-b194-7892521bc57e.jpg"",""img/0958/acbadc39-e665-446d-b98f-ccd0ef3223d6.jpg""]","",""
"","3612","similarity","99","748548","0.0-6.0-93.0","1","[""img/0874/3f471690-9788-4d03-90c7-f615aecef149.jpg"",""img/0864/300bb811-8b3c-4c42-8653-6097c3725197.jpg""]","",""
"","6543","similarity","100","756097","0.0-6.0-94.0","2","[""img/0760/cbd28974-989a-49dd-b631-42de146d7e6f.jpg"",""img/0873/c3ff3b70-fb22-42f2-883c-3ecffd77cb4b.jpg""]","",""
"","6197","similarity","101","763300","0.0-6.0-95.0","6","[""img/0868/fd307a36-9a3a-47d7-ab7c-f810d0b35040.jpg"",""img/0873/b509aa81-b1d7-4d50-8aef-9c7b725c3157.jpg""]","",""
"","5360","similarity","102","769664","0.0-6.0-96.0","1","[""img/0860/5bff793e-cbd5-4d7e-b628-0ac2b0e30b64.jpg"",""img/0761/9199a691-d36e-4ece-a815-078384ea6f06.jpg""]","",""
"","4206","similarity","103","774879","0.0-6.0-97.0","1","[""img/0862/7918ca67-5bd3-4606-a5ea-c39fb11a9297.jpg"",""img/0883/512a797a-315b-439e-9a9d-855929351fd0.jpg""]","",""
"","5020","similarity","104","780907","0.0-6.0-98.0","1","[""img/0757/91a048c0-e749-433b-9147-0c671dc5b4ca.jpg"",""img/0884/9b1b7885-1502-448f-9b20-ddc19aa5456f.jpg""]","",""
"","6092","similarity","105","788008","0.0-6.0-99.0","1","[""img/0867/075e0f95-856b-4cbb-acf5-092393aaf04e.jpg"",""img/0756/4cf0ac20-ce60-40ba-8078-4053ef50451c.jpg""]","",""
"","3787","similarity","106","792803","0.0-6.0-100.0","1","[""img/0958/d3775867-a8f6-42ba-86ff-f86e85edba90.jpg"",""img/0756/b8d6aa83-8673-4e0d-be72-b3da2bae7a6d.jpg""]","",""
"","5717","similarity","107","799529","0.0-6.0-101.0","7","[""img/0760/0864f159-c076-4573-83e1-ea134f239717.jpg"",""img/0760/9ddd6958-7349-45d6-b5bc-4a5911960c35.jpg""]","",""
"","5716","similarity","108","806253","0.0-6.0-102.0","2","[""img/0873/1d1be182-3bb2-4efd-8543-d70b8db7beef.jpg"",""img/0875/3ecb367d-e9eb-4826-8aaa-7aa72fb98019.jpg""]","",""
"","6093","similarity","109","813353","0.0-6.0-103.0","7","[""img/0884/3c61ea12-a408-47ce-98aa-b14e0f6d4591.jpg"",""img/0884/d9185264-7f01-43b2-be7f-eed1a0f0f2e8.jpg""]","",""
"","4559","similarity","110","818921","0.0-6.0-104.0","3","[""img/0873/d39b1731-1669-4c96-b5c6-682b30e287ee.jpg"",""img/0885/fce9f22a-f769-477c-acee-a5ad8214f0a5.jpg""]","",""
"","6121","similarity","111","826049","0.0-6.0-105.0","1","[""img/0883/e3603ed7-8fca-475a-aeb1-d1f7651c4618.jpg"",""img/0875/dbdd643e-6d0e-4a5c-ab57-b9c29b9c981a.jpg""]","",""
"","3627","similarity","112","830681","0.0-6.0-106.0","1","[""img/0864/e8bd659f-aa43-4748-877e-3118e8b4e189.jpg"",""img/0867/de92135f-5b65-4ed9-b245-188292c7c2f8.jpg""]","",""
"","5088","similarity","113","836773","0.0-6.0-107.0","2","[""img/0958/7168f8d3-e3ae-405a-93d0-64836d899932.jpg"",""img/0860/e14d67c1-6d92-4f1e-9257-c8607159c19c.jpg""]","",""
"","4343","similarity","114","842125","0.0-6.0-108.0","2","[""img/0885/21b241a1-95da-4306-9cf2-cc52a784214a.jpg"",""img/0756/76d2b9c0-998f-48ad-95fe-3c317a6c74c0.jpg""]","",""
"","5264","similarity","115","848396","0.0-6.0-109.0","1","[""img/0883/6884954b-873e-4d6f-9b4b-95d158e0de6c.jpg"",""img/0885/4fd0aafb-6cc0-43d6-993a-c55a6e18a7ba.jpg""]","",""
"","5484","similarity","116","854889","0.0-6.0-110.0","7","[""img/0867/5e07b34d-b40f-4b1c-ac10-49975bace45f.jpg"",""img/0867/1719a35d-f085-48c0-9099-16c94fe418b4.jpg""]","",""
"","9328","similarity","117","865225","0.0-6.0-111.0","4","[""img/0881/7e31e5dc-2240-4b1b-b5a0-3acd980099ef.jpg"",""img/0760/1912c0dc-64a7-4c32-8d67-baf5e8752270.jpg""]","",""
"","3415","similarity","118","869648","0.0-6.0-112.0","1","[""img/0881/f62bdcd1-a4b7-4d48-83da-d9c9e01c8727.jpg"",""img/0868/83b4350a-3b70-4cea-b7f5-b5b56f3050a8.jpg""]","",""
"","3759","similarity","119","874417","0.0-6.0-113.0","1","[""img/0875/42910c99-5463-450a-a0f8-d4d060a11455.jpg"",""img/0761/53a65b48-8b0c-4a1d-9ebb-a27a259c5bc6.jpg""]","",""
"","5993","similarity","120","881417","0.0-6.0-114.0","1","[""img/0756/bb3f0571-641e-4d5b-b528-672892c37030.jpg"",""img/0866/d493a2c8-66eb-44b4-be02-2f327b700b7c.jpg""]","",""
"","5742","similarity","121","888164","0.0-6.0-115.0","3","[""img/0884/a8f7b854-0010-4c7a-a8fb-b1b1dc1f1ba1.jpg"",""img/0886/625c7dfa-3fa1-4166-80f0-229eb416b04f.jpg""]","",""
"","4081","similarity","122","893251","0.0-6.0-116.0","1","[""img/0756/fd9b5e61-3674-448f-867a-29769dc8f07d.jpg"",""img/0881/f8bd891e-aa09-4782-89db-33e7cb2b0cf1.jpg""]","",""
"","4223","similarity","123","898483","0.0-6.0-117.0","1","[""img/0760/c7d43bfd-465f-4f4e-8dc1-ae4cd3d2c1de.jpg"",""img/0875/527ced51-8e53-4aab-ab05-86df219104c0.jpg""]","",""
"","5569","similarity","124","905061","0.0-6.0-118.0","2","[""img/0958/54f27d86-00c0-46b2-b2c9-050c9cc60fe0.jpg"",""img/0866/0207e9a2-7dbb-40b5-9459-b472aaeceb2a.jpg""]","",""
"","8696","similarity","125","914763","0.0-6.0-119.0","3","[""img/0867/f26f6b60-f772-4f4c-95a4-addc62cfd692.jpg"",""img/0874/29830da7-be5f-44e5-b141-652a0ccf7269.jpg""]","",""
"","6616","similarity","126","922385","0.0-6.0-120.0","5","[""img/0883/02f50df0-eb8c-4e17-836a-c89ddb1c04e1.jpg"",""img/0757/4f8ae92b-a4ab-4020-b4fb-80c5615e76ac.jpg""]","",""
"","4505","similarity","127","927896","0.0-6.0-121.0","1","[""img/0874/7e4f2150-3b59-4a36-b5da-a4e0ba410531.jpg"",""img/0886/9b0bffbe-9237-404d-a0ba-a1982e0814c7.jpg""]","",""
"","3135","similarity","128","932040","0.0-6.0-122.0","1","[""img/0873/a234d5d1-09ea-4594-9a0f-d569da31dbdb.jpg"",""img/0761/a69897c1-1310-4bae-9a51-8b29cd9543dd.jpg""]","",""
"","4960","similarity","129","938008","0.0-6.0-123.0","2","[""img/0875/ebf7653f-ff45-4e9f-af58-2c042ab3cd2b.jpg"",""img/0884/ee845634-cd54-4c06-95a9-962122ef8712.jpg""]","",""
"","3542","similarity","130","942559","0.0-6.0-124.0","1","[""img/0757/86df581e-81a2-4205-95e3-1ea87cea1f36.jpg"",""img/0868/d98ca254-b195-477f-b57e-5760a2717db8.jpg""]","",""
"","3407","similarity","131","953790","0.0-6.0-125.0","1","[""img/0886/d1e40478-2fe0-404f-8409-920da98a96a2.jpg"",""img/0883/3b1366c6-7baa-4ad2-889c-1ff9c3b379c9.jpg""]","",""
"","4194","similarity","132","958991","0.0-6.0-126.0","1","[""img/0868/c8ac40c7-6904-4e13-8d61-c75d3052dc4e.jpg"",""img/0760/a24659cd-f862-42cc-b43a-7ba8eae0c2c0.jpg""]","",""
"","6084","similarity","133","966080","0.0-6.0-127.0","6","[""img/0881/d373cb9f-a719-4549-a2a4-82def79fb2a5.jpg"",""img/0881/b549bc99-a61c-4450-bab5-9efc3a197bf0.jpg""]","",""
"","6629","similarity","134","973717","0.0-6.0-128.0","2","[""img/0760/868ae139-99b5-4ff2-9d19-c4933af135e4.jpg"",""img/0860/8a92e21b-6a32-4e4a-a445-2d5a487ed0a4.jpg""]","",""
"","3559","similarity","135","978284","0.0-6.0-129.0","1","[""img/0864/5f74a653-3bdc-4308-8cca-ac667dc22e1f.jpg"",""img/0885/8960bf05-34df-4a86-a9b2-6087c70e61d3.jpg""]","",""
"","4809","similarity","136","984101","0.0-6.0-130.0","1","[""img/0864/efcfbb1b-8197-44c9-b723-40d6c608dd3c.jpg"",""img/0757/a91bb71b-8c84-4999-8da7-f30e53ddc2a7.jpg""]","",""
"","4419","similarity","137","989525","0.0-6.0-131.0","3","[""img/0760/7f35fc6a-c21f-4f42-81c5-92ced38d82f8.jpg"",""img/0883/ab9b6977-0cdc-47a2-b180-494a5be181b2.jpg""]","",""
"","4939","similarity","138","995473","0.0-6.0-132.0","7","[""img/0885/eb5e4557-1792-49c3-8871-16afa58f3a28.jpg"",""img/0885/0cdcdaca-f91e-4d4a-a6f6-dc90ab676435.jpg""]","",""
"","3717","similarity","139","1000196","0.0-6.0-133.0","1","[""img/0860/f44ba3fb-03a2-42f0-8509-2c1ded493086.jpg"",""img/0868/3a62db2d-97e9-44a3-b8e3-a48c6f0e423b.jpg""]","",""
"","6787","similarity","140","1007991","0.0-6.0-134.0","6","[""img/0867/ac1797e4-8afc-48fe-b252-86d1defb1cca.jpg"",""img/0886/9ac18ff1-d3d9-4bfe-aa2e-ed5b28399f6c.jpg""]","",""
"","3459","similarity","141","1012455","0.0-6.0-135.0","4","[""img/0756/96c1bf35-26b6-4428-b19d-bdb5efe1367a.jpg"",""img/0886/1e8c0f89-c766-41c9-b522-83c342048f34.jpg""]","",""
"","3279","similarity","142","1016742","0.0-6.0-136.0","1","[""img/0884/37ee4afa-34a0-4da2-bdb0-fcaff43dcdb6.jpg"",""img/0868/4bd5105a-d2c3-4f82-8c80-57196106ba53.jpg""]","",""
"","11136","similarity","143","1028888","0.0-6.0-137.0","6","[""img/0958/fd950403-e452-4018-8207-a9714addcd75.jpg"",""img/0958/edfd5bc1-8c8f-489a-84c3-908436ef76cc.jpg""]","",""
"","2946","similarity","144","1032843","0.0-6.0-138.0","4","[""img/0886/451550d7-6ff9-42b5-938c-9e20ee960bf6.jpg"",""img/0873/e5374873-a1a7-4689-a04c-a3b959992244.jpg""]","",""
"","4344","similarity","145","1038191","0.0-6.0-139.0","1","[""img/0758/dd559618-7f09-4a07-8018-d311c4a5ea29.jpg"",""img/0873/b1e2e09f-ad9a-433e-818f-56dd2f1cb09c.jpg""]","",""
"","5324","similarity","146","1044519","0.0-6.0-140.0","3","[""img/0873/33552b07-bdb8-423e-88b4-25a37f159c6d.jpg"",""img/0756/653c7580-fa90-45bb-828a-eb9d05a6b1c7.jpg""]","",""
"","3726","similarity","147","1049255","0.0-6.0-141.0","2","[""img/0868/6a28c3b0-3d76-498a-9fb7-ddafc665eca8.jpg"",""img/0862/f43ceabf-acc1-4107-b857-5d1849808f93.jpg""]","",""
"","5232","similarity","148","1055496","0.0-6.0-142.0","3","[""img/0881/e6746727-7f89-47ec-b939-d98abe78372d.jpg"",""img/0862/f188d4f0-76a4-4102-818c-a209969d73a5.jpg""]","",""
"","6491","similarity","149","1062992","0.0-6.0-143.0","3","[""img/0885/6873c613-5e40-42ff-a5b6-443b6b626ae2.jpg"",""img/0867/2e1a0b58-cdb1-4107-a14e-452530d7b9b0.jpg""]","",""
"","5968","similarity","150","1069963","0.0-6.0-144.0","6","[""img/0883/cc3df660-426e-452e-ac50-3a3b09dc4b65.jpg"",""img/0883/fc8cf4c9-003e-48c4-b222-8878ea2ae1c0.jpg""]","",""
"","3010","similarity","151","1073982","0.0-6.0-145.0","1","[""img/0874/93d1f8dc-acf2-4f03-bd8d-8ec35df276ed.jpg"",""img/0873/c2a7452d-a271-4207-81ce-bda281dc0297.jpg""]","",""
"","4063","similarity","152","1079050","0.0-6.0-146.0","1","[""img/0757/a3620c04-efdc-4b42-940c-806958d1351e.jpg"",""img/0758/9fb5b2fe-3f00-4fe6-973c-1ce10d5f4cd5.jpg""]","",""
"","3206","similarity","153","1083265","0.0-6.0-147.0","1","[""img/0883/e7e4af6a-bc7a-4a9b-921c-32652db13239.jpg"",""img/0756/10fa3aa2-6100-492a-826e-febb6513cf13.jpg""]","",""
"","5719","similarity","154","1089992","0.0-6.0-148.0","6","[""img/0867/26611f4e-d694-4460-b7e2-43c62753ddc3.jpg"",""img/0866/386235d2-6857-41e7-88a8-25cfc3430025.jpg""]","",""
"","4047","similarity","155","1095048","0.0-6.0-149.0","4","[""img/0758/d57c2592-a317-4f63-91be-91a3a9afd222.jpg"",""img/0760/812c848f-be21-4059-abe5-8c4f4ac9ad0f.jpg""]","",""
"","5708","similarity","156","1101762","0.0-6.0-150.0","2","[""img/0757/cb7ca802-27ac-4a1d-996f-bd21b96d6244.jpg"",""img/0761/d5370a68-6c8a-486f-b2bf-330e2ad6b397.jpg""]","",""
"","5517","similarity","157","1108283","0.0-6.0-151.0","3","[""img/0761/89d3b943-cd14-4786-a7b8-0e9a695cf0e3.jpg"",""img/0874/c0378dac-9370-439a-8b79-db27c96fb390.jpg""]","",""
"","6297","similarity","158","1115589","0.0-6.0-152.0","5","[""img/0761/1725cacb-5f86-4b47-a5c0-3c36cd981588.jpg"",""img/0760/d96a9342-5d16-403a-9f95-e062f795d968.jpg""]","",""
"","6761","similarity","159","1123359","0.0-6.0-153.0","5","[""img/0866/a15b02be-11bb-43e3-b0e0-ecc3bd7dfc49.jpg"",""img/0866/bf14b5bd-fb55-47db-86b9-4f8aeb9a6dad.jpg""]","",""
"","3700","similarity","160","1128062","0.0-6.0-154.0","4","[""img/0866/a04d37f0-99dd-478a-b6c6-58b215138f84.jpg"",""img/0862/ba89835a-408c-480b-8594-ed4ffa97eb5c.jpg""]","",""
"","2848","similarity","161","1131917","0.0-6.0-155.0","1","[""img/0756/792f9475-979d-4787-b7dc-8a0d02f6e25f.jpg"",""img/0862/47ed5efd-4ec9-4b74-bb4e-a5f5cf0c3e7d.jpg""]","",""
"","6534","similarity","162","1139454","0.0-6.0-156.0","1","[""img/0860/c5ccd1a4-4bb7-48e1-9b25-72cfaf06909b.jpg"",""img/0866/11a1d141-be5e-443c-98c1-a9d4d9e3dec0.jpg""]","",""
"","6127","similarity","163","1146588","0.0-6.0-157.0","2","[""img/0862/00c06b00-3b73-44e9-bc1e-c5aafb438321.jpg"",""img/0958/86d1a76d-f067-4e36-9ab5-13da78c97c0e.jpg""]","",""
"","4592","similarity","164","1152188","0.0-6.0-158.0","1","[""img/0761/71d2e184-21b4-4711-97f3-e381c641da2c.jpg"",""img/0868/179a5502-ab5c-478e-8263-5a1fbcc101d2.jpg""]","",""
"","5641","similarity","165","1158833","0.0-6.0-159.0","1","[""img/0761/a74c99e4-d9ed-42cd-9e83-8d525cb6a9a2.jpg"",""img/0886/abd8dd83-d8ee-4003-b4d2-b4045220a578.jpg""]","",""
"","3203","similarity","166","1163040","0.0-6.0-160.0","1","[""img/0874/3ce41e7c-40c8-4d58-a546-171114521796.jpg"",""img/0868/15dd6fd7-791e-4b53-b203-195d617521a4.jpg""]","",""
"","4104","similarity","167","1168152","0.0-6.0-161.0","3","[""img/0860/702bd09d-df3a-40aa-a267-5f04474305b5.jpg"",""img/0874/a3bc679d-619f-4db6-bb68-116dcb757d9c.jpg""]","",""
"","5609","similarity","168","1174769","0.0-6.0-162.0","1","[""img/0883/46d6b8ad-7f31-441e-92d2-0cc16d3d99ce.jpg"",""img/0867/f8488a47-94ee-4166-952c-44e16cf172f6.jpg""]","",""
"","5696","similarity","169","1181470","0.0-6.0-163.0","7","[""img/0758/67c0be2f-9e91-48b3-8219-70ac0a1802fa.jpg"",""img/0958/0a8f72c4-0c73-4d58-be6f-5e4613b87409.jpg""]","",""
"","6185","similarity","170","1188663","0.0-6.0-164.0","6","[""img/0873/90b702a6-3dba-446a-9bba-a2ee096baf49.jpg"",""img/0757/8993d166-c8ae-43f6-b269-9e8bd3379d57.jpg""]","",""
"","5883","similarity","171","1195555","0.0-6.0-165.0","2","[""img/0873/841d6549-01d2-4ebd-8d67-25d219876178.jpg"",""img/0866/d266fece-59b3-46fa-b69f-96f6efb81b59.jpg""]","",""
"","4927","similarity","172","1201491","0.0-6.0-166.0","2","[""img/0875/cff79b3a-a797-4393-9757-6275f999ec04.jpg"",""img/0867/c71dc569-f49c-4397-8381-68b8d726736d.jpg""]","",""
"","4255","similarity","173","1612652","0.0-6.0-167.0","7","[""img/0862/fad1d7c1-8187-43c3-942a-0fc12183e48e.jpg"",""img/0862/e697469a-ec19-4414-b972-7b9f3564785b.jpg""]","",""
"","4116","similarity","174","1617773","0.0-6.0-168.0","1","[""img/0875/fb732ab5-013a-4366-9f65-27811ed157e9.jpg"",""img/0886/48077111-b86b-4612-910f-90a5d168d77f.jpg""]","",""
"","3727","similarity","175","1622506","0.0-6.0-169.0","1","[""img/0885/ef0386f3-e5d4-481b-8894-60b80e08bbe8.jpg"",""img/0875/90da8d75-108a-44ad-b999-e21fee3860d3.jpg""]","",""
"","4719","similarity","176","1628228","0.0-6.0-170.0","1","[""img/0862/064818ee-13d5-4618-bb24-21c7368ea278.jpg"",""img/0867/cc72ed48-7704-422c-86d6-467a1145287a.jpg""]","",""
"","4875","similarity","177","1634109","0.0-6.0-171.0","2","[""img/0884/0b4cf8d4-4c8f-4312-a794-f99e01679176.jpg"",""img/0873/c91c05f8-fafd-4054-bcf1-f5ed1f0a18e8.jpg""]","",""
"","7007","similarity","178","1642119","0.0-6.0-172.0","6","[""img/0873/d74e4aa9-420d-48a3-a42f-30a3481536ae.jpg"",""img/0958/9be61b1d-099b-432a-ae0e-2aa69e157c0e.jpg""]","",""
"","4947","similarity","179","1648075","0.0-6.0-173.0","1","[""img/0868/4e626425-63c8-484a-8a1d-e66ee4e0bef8.jpg"",""img/0758/335851a0-a55b-46d8-ab05-8463eda48349.jpg""]","",""
"","4077","similarity","180","1653161","0.0-6.0-174.0","1","[""img/0757/ec40956b-ed8b-4970-b87f-9b7c25cd5be6.jpg"",""img/0874/ca76a855-4e77-4f2f-872a-0a718153e7ed.jpg""]","",""
"","5535","similarity","181","1659701","0.0-6.0-175.0","2","[""img/0958/4e2ca4bc-52c7-4c27-9610-776441231e42.jpg"",""img/0867/12264664-1860-46df-8c21-162b9817cdda.jpg""]","",""
"","4709","similarity","182","1665416","0.0-6.0-176.0","4","[""img/0874/8cdb1c07-1c32-46d2-981c-3636560fa6e5.jpg"",""img/0760/7cdb34e4-0556-4bf7-9a6f-05990a92e0f3.jpg""]","",""
"","5298","similarity","183","1671724","0.0-6.0-177.0","2","[""img/0873/0c7f3d86-efda-4809-aac4-256ba01e0536.jpg"",""img/0860/4a022222-056d-461c-ab02-39fac9647552.jpg""]","",""
"","5867","similarity","184","1678599","0.0-6.0-178.0","6","[""img/0881/445edb15-bd7f-4af3-8bd5-c6ad9677bb31.jpg"",""img/0883/b5e903b5-bc7f-421c-bf3e-245779ac90c9.jpg""]","",""
"","4420","similarity","185","1684025","0.0-6.0-179.0","2","[""img/0886/42cccc64-05f9-4afd-bc93-496ba50a4342.jpg"",""img/0958/eea2b7ca-1c37-4e76-ada7-a8b1f3afdc01.jpg""]","",""
"","4946","similarity","186","1689980","0.0-6.0-180.0","1","[""img/0864/afcba0a3-7e27-4757-b254-e9f05fad27e2.jpg"",""img/0883/77f31752-1984-44f7-a77d-e22c2ad54256.jpg""]","",""
"","5613","similarity","187","1696601","0.0-6.0-181.0","1","[""img/0756/9a7a2119-24a3-431f-95e6-62f596bf88e2.jpg"",""img/0868/4a8a45ed-2c4f-421b-9564-409a33ecd26c.jpg""]","",""
"","5967","similarity","188","1703577","0.0-6.0-182.0","2","[""img/0884/7f9cc898-36bc-49ec-8b1a-01065d9c0062.jpg"",""img/0758/e1ba5e53-addc-436a-b428-d34fc1b130dc.jpg""]","",""
"","5146","similarity","189","1709732","0.0-6.0-183.0","2","[""img/0875/5a7c4e35-6514-4e12-8879-d16071da4cd6.jpg"",""img/0874/31e22c7c-99aa-40b1-bf03-dd73fa2df4d6.jpg""]","",""
"","6740","similarity","190","1717481","0.0-6.0-184.0","5","[""img/0867/db7e032f-162b-46f5-ae67-2b29679adee4.jpg"",""img/0868/77091fc7-a590-4ebb-b915-fdb2483a2399.jpg""]","",""
"","3084","similarity","191","1721570","0.0-6.0-185.0","1","[""img/0881/dea58fad-b4f1-41d9-bd3f-916eff19a3fd.jpg"",""img/0885/5225e532-2812-41d9-8ef0-0fbfc612784e.jpg""]","",""
"","5803","similarity","192","1728378","0.0-6.0-186.0","5","[""img/0864/c22faebd-9c53-47bc-ada3-b9a30c688e75.jpg"",""img/0761/b8f211c0-f640-43a2-b101-101774517d95.jpg""]","",""
"","4145","similarity","193","1733532","0.0-6.0-187.0","2","[""img/0885/fbbfaacd-e49b-4d37-a2f9-fcaffa58f26f.jpg"",""img/0874/a82926a3-0b43-4add-803c-d5f9ea7798ee.jpg""]","",""
"","12904","similarity","194","1747444","0.0-6.0-188.0","3","[""img/0758/6cd8c362-ae2a-41eb-80a3-3a4f7ace1530.jpg"",""img/0867/f8159067-056c-41f1-a136-c529fe5e970a.jpg""]","",""
"","3712","similarity","195","1752166","0.0-6.0-189.0","1","[""img/0756/dbe25ae4-de3f-44b2-907f-6f2fc03ed1f0.jpg"",""img/0884/e275ab3e-0948-43c3-8be7-a75271922185.jpg""]","",""
"","3721","similarity","196","1756895","0.0-6.0-190.0","4","[""img/0761/e18d2113-1ed1-4a80-8171-4be5ee28d343.jpg"",""img/0862/1c20f772-3a51-4a80-aac0-f57dc9f86c28.jpg""]","",""
"","4533","similarity","197","1762434","0.0-6.0-191.0","2","[""img/0860/4f695df5-afac-4da7-9875-fee39b0b24ad.jpg"",""img/0886/b8648eb5-de71-41ab-825d-848e51be8c1b.jpg""]","",""
"","3933","similarity","198","1767372","0.0-6.0-192.0","2","[""img/0760/1c96ffb7-17db-4253-b66c-59250977c88b.jpg"",""img/0885/89d8c48b-8bde-42ed-ae71-de669b15ea34.jpg""]","",""
"","6468","similarity","199","1774849","0.0-6.0-193.0","3","[""img/0886/c6c81122-f4bf-46f4-968b-167f8ed0cab3.jpg"",""img/0868/e0aff734-077f-40dd-9781-74821abd3621.jpg""]","",""
"","5704","similarity","200","1781561","0.0-6.0-194.0","3","[""img/0881/19e82c47-8e4b-45d2-a6c8-74181eb4155e.jpg"",""img/0864/a248adb3-c70b-4652-b7a3-776d2a1e904b.jpg""]","",""
"","5917","similarity","201","1788486","0.0-6.0-195.0","6","[""img/0866/f756f7d1-9ad8-4a34-9ef6-7a443d705bfe.jpg"",""img/0868/09a9ef4d-d000-4cfa-a6aa-ebec7c2edeb4.jpg""]","",""
"","3889","similarity","202","1793384","0.0-6.0-196.0","2","[""img/0864/9b2490c5-a282-400a-9736-e1a0ecbf1cb7.jpg"",""img/0958/6e602e13-8029-4642-bce0-8deffd0dc686.jpg""]","",""
"","6168","similarity","203","1800559","0.0-6.0-197.0","1","[""img/0757/31d8ee3d-1b79-4d6a-9347-f91c87c00f92.jpg"",""img/0886/e5903946-897c-4420-87c0-afee4100305c.jpg""]","",""
"","3505","similarity","204","1805073","0.0-6.0-198.0","2","[""img/0758/2fa3e613-e676-4e6e-bd12-705327eeb3e1.jpg"",""img/0883/29cba870-24df-4a0b-85cd-b680316ffe3d.jpg""]","",""
"","4623","similarity","205","1810699","0.0-6.0-199.0","2","[""img/0881/62a64f90-7a72-4aee-a1a1-0c548ac9bdda.jpg"",""img/0958/58b7811e-d3f6-4e4d-befb-86e063d13a43.jpg""]","",""
"","6892","similarity","206","1818601","0.0-6.0-200.0","3","[""img/0958/d4138705-0a9d-4141-9af9-205e69367c44.jpg"",""img/0874/2c9464dd-8a23-4baa-ac94-1ba3af5c15cc.jpg""]","",""
"","4077","similarity","207","1823686","0.0-6.0-201.0","1","[""img/0885/62bd11a8-7059-4cc2-b06d-4700688b313f.jpg"",""img/0860/b03b963d-949b-4d8d-b19c-4950c89eeca2.jpg""]","",""
"","4466","similarity","208","1829160","0.0-6.0-202.0","1","[""img/0875/2c361b79-c3d1-4eda-812e-bf03192407bf.jpg"",""img/0881/6b1189e6-232d-4042-8885-16dc7b10e0d4.jpg""]","",""
"","6729","similarity","209","1836893","0.0-6.0-203.0","4","[""img/0758/821c68d3-5cb0-4eae-8659-30e6263fca39.jpg"",""img/0860/18dfed73-e36b-4487-a8bd-0b8cff8e3668.jpg""]","",""
"","5502","similarity","210","1843405","0.0-6.0-204.0","7","[""img/0860/31ff6436-98bf-4652-bed2-40f627229568.jpg"",""img/0860/c3379ff7-0763-48fe-a1ec-7ea3d611bc7a.jpg""]","",""
"","6436","similarity","211","1850845","0.0-6.0-205.0","6","[""img/0874/bf14b896-e930-4fd9-9c05-2e83317a2773.jpg"",""img/0874/85eb9b8a-c4c6-4e5a-b8e7-363a87a82054.jpg""]","",""
"","4634","similarity","212","1856487","0.0-6.0-206.0","3","[""img/0883/00d89148-b7d4-49d2-831a-2eee070a85a4.jpg"",""img/0761/6f9c1c71-e38d-4e3f-9062-39557812432a.jpg""]","",""
"","5034","similarity","213","1862530","0.0-6.0-207.0","2","[""img/0761/e34f97e4-14ac-4bb6-b226-816085d967c2.jpg"",""img/0881/4da99fdd-1f40-4bbb-8e21-8833eef313f5.jpg""]","",""
"","3994","similarity","214","1867532","0.0-6.0-208.0","1","[""img/0760/c76e8a36-1537-42e0-9779-13c2b6a89725.jpg"",""img/0756/a940d622-200d-4df5-8896-60af56798bbe.jpg""]","",""
"","3194","similarity","215","1879576","0.0-6.0-209.0","1","[""img/0885/24afeefb-f7b3-4e8f-a5b9-17cc00fd22e3.jpg"",""img/0757/89ce15d5-a3da-4a62-ac9f-c28a9273bf33.jpg""]","",""
"[{""page_index"":0,""viewing_time"":7592}]","7592","instructions","216","1888171","0.0-7.0","","","",""
"","48412","image-multi-choice","217","1937600","0.0-8.0-0.0","","","{""Q0"":""Tennessee Warbler""}","Orange-crowned Warbler"
"","5054","image-multi-choice","218","1943668","0.0-8.0-1.0","","","{""Q0"":""Wilson's Warbler""}","Wilson's Warbler"
"","6689","image-multi-choice","219","1951369","0.0-8.0-2.0","","","{""Q0"":""Blackpoll Warbler""}","Blackpoll Warbler"
"","28010","image-multi-choice","220","1980391","0.0-8.0-3.0","","","{""Q0"":""Black-and-white Warbler""}","Black-and-white Warbler"
"","19986","image-multi-choice","221","2001386","0.0-8.0-4.0","","","{""Q0"":""Yellow-breasted Chat""}","Yellow-breasted Chat"
"","10680","image-multi-choice","222","2013080","0.0-8.0-5.0","","","{""Q0"":""Canada Warbler""}","Canada Warbler"
"","6552","image-multi-choice","223","2020644","0.0-8.0-6.0","","","{""Q0"":""Common Yellowthroat""}","Common Yellowthroat"
"","29328","image-multi-choice","224","2050983","0.0-8.0-7.0","","","{""Q0"":""American Redstart""}","American Redstart"
"","17522","image-multi-choice","225","2069515","0.0-8.0-8.0","","","{""Q0"":""Chestnut-sided Warbler""}","Chestnut-sided Warbler"
"","18603","image-multi-choice","226","2089130","0.0-8.0-9.0","","","{""Q0"":""Black-throated Green Warbler""}","Black-throated Green Warbler"
"","7635","image-multi-choice","227","2097776","0.0-8.0-10.0","","","{""Q0"":""Townsend's Warbler""}","Blackburnian Warbler"
"","64410","image-multi-choice","228","2163197","0.0-8.0-11.0","","","{""Q0"":""Townsend's Warbler""}","Yellow-rumped Warbler"
"","9684","image-multi-choice","229","2173892","0.0-8.0-12.0","","","{""Q0"":""Ovenbird""}","Ovenbird"
"","53903","image-multi-choice","230","2228807","0.0-8.0-13.0","","","{""Q0"":""Magnolia Warbler""}","Townsend's Warbler"
"","5023","image-multi-choice","231","2234841","0.0-8.0-14.0","","","{""Q0"":""Northern Waterthrush""}","Northern Waterthrush"
"","5115","image-multi-choice","232","2240967","0.0-8.0-15.0","","","{""Q0"":""Yellow Warbler""}","Yellow Warbler"
"","184687","image-multi-choice","233","2426665","0.0-8.0-16.0","","","{""Q0"":""Nashville Warbler""}","Nashville Warbler"
"","27531","image-multi-choice","234","2455209","0.0-8.0-17.0","","","{""Q0"":""Orange-crowned Warbler""}","Northern Parula"
"","7389","image-multi-choice","235","2463608","0.0-8.0-18.0","","","{""Q0"":""Tennessee Warbler""}","Tennessee Warbler"
"","8382","image-multi-choice","236","2473001","0.0-8.0-19.0","","","{""Q0"":""Magnolia Warbler""}","Magnolia Warbler"
