"view_history","rt","trial_type","trial_index","time_elapsed","internal_node_id","sim_score","stimulus","responses","answer"
"[{""page_index"":0,""viewing_time"":18031}]","18033","instructions","0","18035","0.0-0.0","","","",""
"","6296","similarity_demo","1","25367","0.0-1.0","7","[""img/bluejay1.jpg"",""img/bluejay2.jpg""]","",""
"[{""page_index"":0,""viewing_time"":9366}]","9368","instructions","2","35842","0.0-2.0","","","",""
"","4352","similarity_demo","3","41226","0.0-3.0","5","[""img/bluejay1.jpg"",""img/cardinal1.jpg""]","",""
"[{""page_index"":0,""viewing_time"":4612}]","4612","instructions","4","46851","0.0-4.0","","","",""
"[{""page_index"":0,""viewing_time"":17316}]","17317","instructions","5","65172","0.0-5.0","","","",""
"","3951","similarity","6","70151","0.0-6.0-0.0","5","[""img/0864/c22faebd-9c53-47bc-ada3-b9a30c688e75.jpg"",""img/0860/c7047cd2-7cc1-41b6-8a34-c0986774975f.jpg""]","",""
"","5414","similarity","7","76590","0.0-6.0-1.0","5","[""img/0884/a6389ab4-3291-4434-9b91-eeae3b04fce4.jpg"",""img/0760/135d76ab-2bf3-4dc9-8509-92983dc9893d.jpg""]","",""
"","4197","similarity","8","81799","0.0-6.0-2.0","4","[""img/0886/451550d7-6ff9-42b5-938c-9e20ee960bf6.jpg"",""img/0881/f7a8cc63-8842-40a4-9ff8-fe530310d62c.jpg""]","",""
"","3908","similarity","9","86723","0.0-6.0-3.0","5","[""img/0866/6f2a90d7-14f1-4f1b-bd64-fc0af6b9fe44.jpg"",""img/0881/d373cb9f-a719-4549-a2a4-82def79fb2a5.jpg""]","",""
"","4002","similarity","10","91768","0.0-6.0-4.0","5","[""img/0868/83b4350a-3b70-4cea-b7f5-b5b56f3050a8.jpg"",""img/0885/f4ed5442-1f5c-4a69-abe6-8336ed11ec77.jpg""]","",""
"","3720","similarity","11","96502","0.0-6.0-5.0","3","[""img/0757/89ce15d5-a3da-4a62-ac9f-c28a9273bf33.jpg"",""img/0866/be24ab58-230e-4db8-9f45-ff04c9aec6bb.jpg""]","",""
"","6331","similarity","12","103854","0.0-6.0-6.0","6","[""img/0868/1a62b2b2-18f5-466e-b564-5176a57c565e.jpg"",""img/0864/6e846d43-94a6-4b37-a268-65eda979f052.jpg""]","",""
"","4454","similarity","13","109329","0.0-6.0-7.0","7","[""img/0864/3d4de670-b290-4285-9c3d-12a0e3af44e9.jpg"",""img/0864/65210d57-1153-4657-886a-32e758f49b4a.jpg""]","",""
"","4363","similarity","14","114710","0.0-6.0-8.0","5","[""img/0757/417763f8-6fe7-44f2-acaa-613a44f20835.jpg"",""img/0881/405484ae-0d00-4b05-bc57-6420a36adfac.jpg""]","",""
"","5115","similarity","15","120847","0.0-6.0-9.0","4","[""img/0886/97243e18-4dba-4af8-b49f-b3b635c90ac4.jpg"",""img/0760/191d8576-9ed7-4798-a486-66a7fd600e58.jpg""]","",""
"","4002","similarity","16","125862","0.0-6.0-10.0","5","[""img/0884/d9185264-7f01-43b2-be7f-eed1a0f0f2e8.jpg"",""img/0883/e3603ed7-8fca-475a-aeb1-d1f7651c4618.jpg""]","",""
"","4504","similarity","17","131389","0.0-6.0-11.0","4","[""img/0874/31e22c7c-99aa-40b1-bf03-dd73fa2df4d6.jpg"",""img/0862/4f0a3b4c-afbf-486e-b248-1d54982f54b4.jpg""]","",""
"","4080","similarity","18","136486","0.0-6.0-12.0","3","[""img/0862/eefa5588-9efd-4591-aa5f-a2e17c7d7bcc.jpg"",""img/0875/34132396-d896-4c2d-8087-646dd867e769.jpg""]","",""
"","6252","similarity","19","143759","0.0-6.0-13.0","5","[""img/0875/42910c99-5463-450a-a0f8-d4d060a11455.jpg"",""img/0757/20c59f64-1fc2-448d-8423-42cbd8fe0164.jpg""]","",""
"","6235","similarity","20","151016","0.0-6.0-14.0","3","[""img/0875/a4935837-7d3c-4df6-88c1-36a94d4991ca.jpg"",""img/0860/31ff6436-98bf-4652-bed2-40f627229568.jpg""]","",""
"","4765","similarity","21","156798","0.0-6.0-15.0","3","[""img/0860/8277806e-b684-4474-8f7b-3fca946d7d4f.jpg"",""img/0881/84397291-bc14-4fbf-90e8-241e486ab0fe.jpg""]","",""
"","3450","similarity","22","161269","0.0-6.0-16.0","5","[""img/0885/d2276b26-e91a-4f19-a818-cbeb297ed884.jpg"",""img/0884/3c61ea12-a408-47ce-98aa-b14e0f6d4591.jpg""]","",""
"","4460","similarity","23","166751","0.0-6.0-17.0","7","[""img/0761/edc0b069-71dc-4b11-b7f0-8429ea8ac5c9.jpg"",""img/0761/6f9c1c71-e38d-4e3f-9062-39557812432a.jpg""]","",""
"","3558","similarity","24","171333","0.0-6.0-18.0","5","[""img/0760/83b0723f-4929-4ee7-ad35-fae98da3e152.jpg"",""img/0864/4bd81bc6-c13d-46df-95a9-485886dc7c1b.jpg""]","",""
"","4822","similarity","25","177169","0.0-6.0-19.0","5","[""img/0864/f92649a2-0590-4d31-9a7a-1bfb81666a2d.jpg"",""img/0875/cff79b3a-a797-4393-9757-6275f999ec04.jpg""]","",""
"","3601","similarity","26","181781","0.0-6.0-20.0","5","[""img/0874/8cdb1c07-1c32-46d2-981c-3636560fa6e5.jpg"",""img/0884/13db1f36-8c9f-4b28-8426-04eaa9fba737.jpg""]","",""
"","3472","similarity","27","186269","0.0-6.0-21.0","4","[""img/0885/a8cbb477-19ef-45ef-8f48-9667aec40bd1.jpg"",""img/0866/a04d37f0-99dd-478a-b6c6-58b215138f84.jpg""]","",""
"","6172","similarity","28","193461","0.0-6.0-22.0","6","[""img/0868/d6d1f30d-4323-435a-b194-7892521bc57e.jpg"",""img/0868/7b212364-ff5f-4e28-9241-7eb6ea00161b.jpg""]","",""
"","4692","similarity","29","199144","0.0-6.0-23.0","3","[""img/0757/91a048c0-e749-433b-9147-0c671dc5b4ca.jpg"",""img/0756/10fa3aa2-6100-492a-826e-febb6513cf13.jpg""]","",""
"","2849","similarity","30","203016","0.0-6.0-24.0","7","[""img/0875/f87b67d7-c33e-40d1-b281-248c4be1cb6e.jpg"",""img/0875/dbdd643e-6d0e-4a5c-ab57-b9c29b9c981a.jpg""]","",""
"","4398","similarity","31","208429","0.0-6.0-25.0","5","[""img/0761/47960f80-42b7-4397-a852-ec55d716c652.jpg"",""img/0866/c446214b-a368-4c65-ae39-ea46894256ab.jpg""]","",""
"","4568","similarity","32","214014","0.0-6.0-26.0","4","[""img/0866/8efcaa46-83ab-4dee-a35f-850402aa21ae.jpg"",""img/0758/b76ceca7-95ac-46e4-ac13-da02c8e93be9.jpg""]","",""
"","3455","similarity","33","218487","0.0-6.0-27.0","5","[""img/0758/7fba58df-2a7a-4b76-8a8f-62739f97f271.jpg"",""img/0875/ebf7653f-ff45-4e9f-af58-2c042ab3cd2b.jpg""]","",""
"","3855","similarity","34","223369","0.0-6.0-28.0","5","[""img/0958/7168f8d3-e3ae-405a-93d0-64836d899932.jpg"",""img/0757/76206a63-e02d-4beb-a85a-ed1b5527bc36.jpg""]","",""
"","4392","similarity","35","228785","0.0-6.0-29.0","6","[""img/0873/b76d7003-814d-42b0-9a16-1399c4b0e706.jpg"",""img/0883/122548fc-b3cc-445b-b7c0-04794df6d11d.jpg""]","",""
"","3803","similarity","36","233606","0.0-6.0-30.0","5","[""img/0868/5fa7f9d0-f0e5-454c-8224-74d964818f56.jpg"",""img/0875/fb732ab5-013a-4366-9f65-27811ed157e9.jpg""]","",""
"","3934","similarity","37","238557","0.0-6.0-31.0","3","[""img/0884/ffcce05a-b38d-4570-b3dc-751e89b7790a.jpg"",""img/0862/fad1d7c1-8187-43c3-942a-0fc12183e48e.jpg""]","",""
"","3724","similarity","38","243299","0.0-6.0-32.0","5","[""img/0884/e275ab3e-0948-43c3-8be7-a75271922185.jpg"",""img/0864/3651d070-2fc5-4848-b6a6-088a2d9ac5c9.jpg""]","",""
"","4516","similarity","39","248831","0.0-6.0-33.0","5","[""img/0883/903939ef-a67c-40d3-841d-52555815cd88.jpg"",""img/0958/6e602e13-8029-4642-bce0-8deffd0dc686.jpg""]","",""
"","5933","similarity","40","255781","0.0-6.0-34.0","3","[""img/0864/da39ad34-04e0-40d4-a724-c08d53e0ea09.jpg"",""img/0756/b7105b92-3ad0-444a-aaab-6989bc24b091.jpg""]","",""
"","4253","similarity","41","261046","0.0-6.0-35.0","7","[""img/0874/1016b306-087c-4afc-aa08-fa527b28dc76.jpg"",""img/0758/2fa3e613-e676-4e6e-bd12-705327eeb3e1.jpg""]","",""
"","4697","similarity","42","266766","0.0-6.0-36.0","3","[""img/0886/625c7dfa-3fa1-4166-80f0-229eb416b04f.jpg"",""img/0862/57b6f83f-c763-4858-830d-102f97bfefbf.jpg""]","",""
"","3813","similarity","43","271590","0.0-6.0-37.0","3","[""img/0862/47ed5efd-4ec9-4b74-bb4e-a5f5cf0c3e7d.jpg"",""img/0885/8cdf3204-e0f1-482b-9546-5edca3d81376.jpg""]","",""
"","4760","similarity","44","277358","0.0-6.0-38.0","7","[""img/0758/20497cbe-ddae-489e-86e2-ab06985ed07c.jpg"",""img/0864/5f33e097-23e3-4002-882d-76e8cb15f451.jpg""]","",""
"","4133","similarity","45","282501","0.0-6.0-39.0","5","[""img/0873/841d6549-01d2-4ebd-8d67-25d219876178.jpg"",""img/0867/8ba0c5a7-c7e4-42cf-a80a-543763b90779.jpg""]","",""
"","4656","similarity","46","288173","0.0-6.0-40.0","3","[""img/0958/86d1a76d-f067-4e36-9ab5-13da78c97c0e.jpg"",""img/0884/a8f7b854-0010-4c7a-a8fb-b1b1dc1f1ba1.jpg""]","",""
"","5898","similarity","47","307004","0.0-6.0-41.0","6","[""img/0873/7dddc95f-ca6e-4d15-99a0-0e329ec6888e.jpg"",""img/0873/1d1be182-3bb2-4efd-8543-d70b8db7beef.jpg""]","",""
"","4108","similarity","48","312134","0.0-6.0-42.0","3","[""img/0886/42cccc64-05f9-4afd-bc93-496ba50a4342.jpg"",""img/0758/a085b443-b5d7-4cb2-9ad4-b9dab0fc23f1.jpg""]","",""
"","3487","similarity","49","316629","0.0-6.0-43.0","5","[""img/0883/dc95de8d-9297-41ec-b3ac-3f8b060260e3.jpg"",""img/0874/85eb9b8a-c4c6-4e5a-b8e7-363a87a82054.jpg""]","",""
"","4479","similarity","50","322130","0.0-6.0-44.0","5","[""img/0881/7e31e5dc-2240-4b1b-b5a0-3acd980099ef.jpg"",""img/0873/b1e2e09f-ad9a-433e-818f-56dd2f1cb09c.jpg""]","",""
"","4559","similarity","51","327702","0.0-6.0-45.0","2","[""img/0867/ac1797e4-8afc-48fe-b252-86d1defb1cca.jpg"",""img/0757/cb7ca802-27ac-4a1d-996f-bd21b96d6244.jpg""]","",""
"","3785","similarity","52","332495","0.0-6.0-46.0","5","[""img/0866/07c9c966-3c8d-40e7-8128-92b2acbaed5d.jpg"",""img/0874/29830da7-be5f-44e5-b141-652a0ccf7269.jpg""]","",""
"","4888","similarity","53","338406","0.0-6.0-47.0","7","[""img/0886/9b0bffbe-9237-404d-a0ba-a1982e0814c7.jpg"",""img/0886/7164ac42-460f-4beb-9d5e-a1cfded3099c.jpg""]","",""
"","5208","similarity","54","344622","0.0-6.0-48.0","3","[""img/0883/fc8cf4c9-003e-48c4-b222-8878ea2ae1c0.jpg"",""img/0860/702bd09d-df3a-40aa-a267-5f04474305b5.jpg""]","",""
"","4589","similarity","55","350229","0.0-6.0-49.0","1","[""img/0860/8a92e21b-6a32-4e4a-a445-2d5a487ed0a4.jpg"",""img/0756/8f917ff3-2930-4f81-812b-19555fe71261.jpg""]","",""
"","3343","similarity","56","354582","0.0-6.0-50.0","1","[""img/0860/c47fdead-eb02-4989-b078-26f4852f44fe.jpg"",""img/0757/8fdf4047-c2dc-42bc-9724-c35bd113f1dc.jpg""]","",""
"","2885","similarity","57","358478","0.0-6.0-51.0","7","[""img/0756/caa9655d-9f7e-420d-a757-6af4985d335a.jpg"",""img/0756/5dba4151-3cf5-42f5-8dd9-7c6128318b01.jpg""]","",""
"","3614","similarity","58","363109","0.0-6.0-52.0","5","[""img/0875/03c3c331-738b-4446-af92-3d7386b08c2e.jpg"",""img/0866/620cd1aa-0800-4414-8f6e-90342e7a99ad.jpg""]","",""
"","4612","similarity","59","368741","0.0-6.0-53.0","5","[""img/0756/403d0540-b812-446f-bb5a-e8030be0a02f.jpg"",""img/0758/e1ba5e53-addc-436a-b428-d34fc1b130dc.jpg""]","",""
"","4497","similarity","60","374253","0.0-6.0-54.0","5","[""img/0761/6b42b402-9e0f-4179-9e10-660b2c07626b.jpg"",""img/0884/d8ffab77-40df-44ba-bf27-70815b052250.jpg""]","",""
"","4095","similarity","61","379358","0.0-6.0-55.0","5","[""img/0760/812c848f-be21-4059-abe5-8c4f4ac9ad0f.jpg"",""img/0867/f8159067-056c-41f1-a136-c529fe5e970a.jpg""]","",""
"","3817","similarity","62","384181","0.0-6.0-56.0","5","[""img/0866/bf14b5bd-fb55-47db-86b9-4f8aeb9a6dad.jpg"",""img/0884/a416b0d1-f903-4935-b89f-99c29683752b.jpg""]","",""
"","3933","similarity","63","389133","0.0-6.0-57.0","5","[""img/0756/b7869208-7169-455d-835f-31926317dd95.jpg"",""img/0761/af21c992-a721-45fb-bee7-f50c0f676c30.jpg""]","",""
"","4012","similarity","64","394158","0.0-6.0-58.0","3","[""img/0867/bf560d4f-dee3-4f11-a385-705cc1aa5f3c.jpg"",""img/0860/71e1aad0-2cdf-43bb-94a4-a8c016997c30.jpg""]","",""
"","4956","similarity","65","400125","0.0-6.0-59.0","5","[""img/0881/48ed65a5-471f-41af-86ec-3793805c116d.jpg"",""img/0758/d540bee6-b460-4c32-ac57-bc282742d7d4.jpg""]","",""
"","5068","similarity","66","406214","0.0-6.0-60.0","5","[""img/0761/9199a691-d36e-4ece-a815-078384ea6f06.jpg"",""img/0758/335851a0-a55b-46d8-ab05-8463eda48349.jpg""]","",""
"","3713","similarity","67","410943","0.0-6.0-61.0","5","[""img/0958/ba5ed153-96de-4f61-b7d9-87a478c8972c.jpg"",""img/0875/99698b4d-b4a1-44bc-8c83-8ea755bbbf61.jpg""]","",""
"","3625","similarity","68","415582","0.0-6.0-62.0","3","[""img/0886/9f186bd5-d48b-4cc2-9206-be67c392faa9.jpg"",""img/0864/e02eddb5-f468-499c-91bf-f7be3ffe979b.jpg""]","",""
"","3393","similarity","69","419982","0.0-6.0-63.0","4","[""img/0756/b5b6c1ba-df7c-4bac-94ac-786f45dbb140.jpg"",""img/0874/995f0332-0439-4eb4-add3-957335dbf6d9.jpg""]","",""
"","3927","similarity","70","424918","0.0-6.0-64.0","5","[""img/0758/7ffbc76b-1fc1-432c-8f7e-9ec8d1b3f643.jpg"",""img/0885/0cdcdaca-f91e-4d4a-a6f6-dc90ab676435.jpg""]","",""
"","4014","similarity","71","429951","0.0-6.0-65.0","5","[""img/0760/9daf8012-19c4-498f-8f51-81ec001a83be.jpg"",""img/0958/edfd5bc1-8c8f-489a-84c3-908436ef76cc.jpg""]","",""
"","4976","similarity","72","435935","0.0-6.0-66.0","4","[""img/0884/989ec8e3-5e41-4055-b0b5-3d65b9c44917.jpg"",""img/0881/14236cf2-6b95-48b8-9368-78af09d2d27f.jpg""]","",""
"","4488","similarity","73","441441","0.0-6.0-67.0","5","[""img/0864/e8bd659f-aa43-4748-877e-3118e8b4e189.jpg"",""img/0873/226317e0-f0e7-42ea-907b-058cb1ad519a.jpg""]","",""
"","5069","similarity","74","447526","0.0-6.0-68.0","3","[""img/0862/064818ee-13d5-4618-bb24-21c7368ea278.jpg"",""img/0758/65d426d6-3ff6-415d-8654-a43b83ecc4fe.jpg""]","",""
"","4538","similarity","75","453077","0.0-6.0-69.0","7","[""img/0757/1aca59fd-6030-4bb0-93c7-32a90f3237cf.jpg"",""img/0757/b46cab21-50e3-4f19-803d-682627bcd6a6.jpg""]","",""
"","4393","similarity","76","458485","0.0-6.0-70.0","5","[""img/0860/4c530c3c-6aab-492a-94d1-9c01797bde40.jpg"",""img/0862/5d887e9f-89e2-4ebc-80a0-6d46fe6480db.jpg""]","",""
"","4362","similarity","77","463853","0.0-6.0-71.0","6","[""img/0860/fd4662f9-4c03-4d79-8593-06735e55a64b.jpg"",""img/0884/7f9cc898-36bc-49ec-8b1a-01065d9c0062.jpg""]","",""
"","4293","similarity","78","469165","0.0-6.0-72.0","5","[""img/0883/599aacc5-bb0f-4dea-852c-9a27727eb0b9.jpg"",""img/0866/d493a2c8-66eb-44b4-be02-2f327b700b7c.jpg""]","",""
"","4332","similarity","79","474510","0.0-6.0-73.0","3","[""img/0866/93a27239-8317-4e08-98ca-d8b1ff298e07.jpg"",""img/0886/789f5d23-84b8-499a-ae1e-20c6309a06ae.jpg""]","",""
"","4710","similarity","80","480238","0.0-6.0-74.0","5","[""img/0958/bb684a39-afef-4125-9f70-b5ad830ba316.jpg"",""img/0761/07f8178b-8ce5-42d6-bca0-a0ae0e0e8eb3.jpg""]","",""
"","4281","similarity","81","485535","0.0-6.0-75.0","5","[""img/0875/d59ff733-eaff-4ee2-9443-06954dd0bcb6.jpg"",""img/0756/8ab56efe-fef0-45cc-ab57-82597f83b26a.jpg""]","",""
"","4175","similarity","82","490718","0.0-6.0-76.0","5","[""img/0958/58b7811e-d3f6-4e4d-befb-86e063d13a43.jpg"",""img/0885/62bd11a8-7059-4cc2-b06d-4700688b313f.jpg""]","",""
"","3309","similarity","83","495046","0.0-6.0-77.0","4","[""img/0868/c8ac40c7-6904-4e13-8d61-c75d3052dc4e.jpg"",""img/0883/68a56098-91b8-4c40-8827-7808704aa1bc.jpg""]","",""
"","7243","similarity","84","503303","0.0-6.0-78.0","2","[""img/0862/e697469a-ec19-4414-b972-7b9f3564785b.jpg"",""img/0760/7f35fc6a-c21f-4f42-81c5-92ced38d82f8.jpg""]","",""
"","5061","similarity","85","509375","0.0-6.0-79.0","5","[""img/0885/21b241a1-95da-4306-9cf2-cc52a784214a.jpg"",""img/0761/b1819a20-de99-463b-9840-60a4b8faa30d.jpg""]","",""
"","3937","similarity","86","514320","0.0-6.0-80.0","3","[""img/0862/99a99e39-8355-44ec-b993-e7bcec111e1c.jpg"",""img/0864/5f74a653-3bdc-4308-8cca-ac667dc22e1f.jpg""]","",""
"","4913","similarity","87","520240","0.0-6.0-81.0","5","[""img/0758/d41c06bf-ebaf-454b-91c6-1a17f917b659.jpg"",""img/0758/9fb5b2fe-3f00-4fe6-973c-1ce10d5f4cd5.jpg""]","",""
"","4568","similarity","88","525825","0.0-6.0-82.0","1","[""img/0862/f23038d4-c366-4f70-979f-66b62362efa4.jpg"",""img/0873/c2a7452d-a271-4207-81ce-bda281dc0297.jpg""]","",""
"","4655","similarity","89","537621","0.0-6.0-83.0","5","[""img/0760/0864f159-c076-4573-83e1-ea134f239717.jpg"",""img/0757/0668efad-1c92-425c-9aa9-2bbe833fd777.jpg""]","",""
"","4087","similarity","90","542721","0.0-6.0-84.0","5","[""img/0867/a749dddb-69f0-44a6-acdc-2bf295cf6dcc.jpg"",""img/0881/20af39f5-373d-4a55-a437-2dc4c0382c46.jpg""]","",""
"","4519","similarity","91","548255","0.0-6.0-85.0","3","[""img/0885/517a9189-9623-4ed7-a37e-48788791e028.jpg"",""img/0886/abd8dd83-d8ee-4003-b4d2-b4045220a578.jpg""]","",""
"","4300","similarity","92","553575","0.0-6.0-86.0","5","[""img/0866/0207e9a2-7dbb-40b5-9459-b472aaeceb2a.jpg"",""img/0864/b3c4e378-28f0-4699-9338-2a257b4bca04.jpg""]","",""
"","6117","similarity","93","560715","0.0-6.0-87.0","6","[""img/0874/eba003b4-cdab-4eee-8bc3-f064c7d94165.jpg"",""img/0881/19e82c47-8e4b-45d2-a6c8-74181eb4155e.jpg""]","",""
"","3605","similarity","94","565344","0.0-6.0-88.0","4","[""img/0866/a15b02be-11bb-43e3-b0e0-ecc3bd7dfc49.jpg"",""img/0760/1912c0dc-64a7-4c32-8d67-baf5e8752270.jpg""]","",""
"","4344","similarity","95","570704","0.0-6.0-89.0","3","[""img/0867/7d1c497b-c1b3-4ed8-abb5-d7f73306015f.jpg"",""img/0884/baabff07-71d8-424e-ac29-644768380941.jpg""]","",""
"","5057","similarity","96","576783","0.0-6.0-90.0","1","[""img/0757/92ed1ceb-29ef-4044-9601-78d7806e2396.jpg"",""img/0862/92fcd8a4-8193-4a6a-ae09-dd4a6338b0df.jpg""]","",""
"","3294","similarity","97","581087","0.0-6.0-91.0","5","[""img/0867/c66898ba-b71b-4d50-84f9-f7f84853a98d.jpg"",""img/0761/00a8e7ae-d8da-4cba-8969-1dfb943a2aa2.jpg""]","",""
"","4893","similarity","98","586992","0.0-6.0-92.0","6","[""img/0868/09a9ef4d-d000-4cfa-a6aa-ebec7c2edeb4.jpg"",""img/0958/d4138705-0a9d-4141-9af9-205e69367c44.jpg""]","",""
"","5628","similarity","99","593640","0.0-6.0-93.0","6","[""img/0874/99f6563c-8a8d-4c1c-a41d-667b618c3fd5.jpg"",""img/0864/ef9cbca0-4be8-435d-ad49-977259e80409.jpg""]","",""
"","5183","similarity","100","599841","0.0-6.0-94.0","5","[""img/0760/111aecf1-147c-4227-90e0-9ed3a75e4e16.jpg"",""img/0873/ac86dbfd-0442-4dec-9d10-37d7093f5a52.jpg""]","",""
"","4181","similarity","101","605031","0.0-6.0-95.0","6","[""img/0868/4e626425-63c8-484a-8a1d-e66ee4e0bef8.jpg"",""img/0873/c4b47588-9c66-4401-aefc-cf9481d5fa85.jpg""]","",""
"","3914","similarity","102","609959","0.0-6.0-96.0","2","[""img/0860/18dfed73-e36b-4487-a8bd-0b8cff8e3668.jpg"",""img/0761/71d2e184-21b4-4711-97f3-e381c641da2c.jpg""]","",""
"","3879","similarity","103","614855","0.0-6.0-97.0","2","[""img/0862/e0f1a4e9-e1b6-45f7-af67-89f334e6630d.jpg"",""img/0883/77f31752-1984-44f7-a77d-e22c2ad54256.jpg""]","",""
"","3845","similarity","104","619722","0.0-6.0-98.0","1","[""img/0757/014ee4a8-8069-4b08-ac1c-04230da90244.jpg"",""img/0884/5085d424-b3f5-461b-a1c7-f7ca55abcf4f.jpg""]","",""
"","4954","similarity","105","625696","0.0-6.0-99.0","3","[""img/0867/c71dc569-f49c-4397-8381-68b8d726736d.jpg"",""img/0756/dbe25ae4-de3f-44b2-907f-6f2fc03ed1f0.jpg""]","",""
"","3930","similarity","106","630631","0.0-6.0-100.0","3","[""img/0958/96f89270-febc-4f09-b8c3-53a249ff00ea.jpg"",""img/0756/c7199ce2-2203-43c6-90d7-78f77277b522.jpg""]","",""
"","4529","similarity","107","636175","0.0-6.0-101.0","7","[""img/0760/a24659cd-f862-42cc-b43a-7ba8eae0c2c0.jpg"",""img/0760/32bea725-69a2-4c9a-94d9-af05883fbb86.jpg""]","",""
"","6543","similarity","108","643729","0.0-6.0-102.0","5","[""img/0873/c3ff3b70-fb22-42f2-883c-3ecffd77cb4b.jpg"",""img/0875/5a7c4e35-6514-4e12-8879-d16071da4cd6.jpg""]","",""
"","5159","similarity","109","649895","0.0-6.0-103.0","7","[""img/0884/0b4cf8d4-4c8f-4312-a794-f99e01679176.jpg"",""img/0884/592da15b-09e4-46b5-81e7-bab08a1c33e9.jpg""]","",""
"","3693","similarity","110","654607","0.0-6.0-104.0","5","[""img/0873/a234d5d1-09ea-4594-9a0f-d569da31dbdb.jpg"",""img/0885/5225e532-2812-41d9-8ef0-0fbfc612784e.jpg""]","",""
"","5486","similarity","111","661111","0.0-6.0-105.0","5","[""img/0883/ff85a2f1-14b1-4b7e-9c87-887151d97e01.jpg"",""img/0875/e7e66b13-b573-431e-b85e-288ce04a35a3.jpg""]","",""
"","5445","similarity","112","667575","0.0-6.0-106.0","5","[""img/0864/e336a4c5-6648-4fd7-b2f6-93a3fb83f8c6.jpg"",""img/0867/26611f4e-d694-4460-b7e2-43c62753ddc3.jpg""]","",""
"","4707","similarity","113","673295","0.0-6.0-107.0","1","[""img/0958/54f27d86-00c0-46b2-b2c9-050c9cc60fe0.jpg"",""img/0860/4a022222-056d-461c-ab02-39fac9647552.jpg""]","",""
"","3420","similarity","114","677735","0.0-6.0-108.0","6","[""img/0885/c840cf2c-c95d-4a08-b3c2-044d1ea946a7.jpg"",""img/0756/a8246880-fb51-43bb-b25d-905e6e0d7880.jpg""]","",""
"","3460","similarity","115","682207","0.0-6.0-109.0","5","[""img/0883/1f394dd2-551c-4c8b-af82-f6a6fbe567bb.jpg"",""img/0885/24afeefb-f7b3-4e8f-a5b9-17cc00fd22e3.jpg""]","",""
"","4673","similarity","116","687895","0.0-6.0-110.0","7","[""img/0867/db7e032f-162b-46f5-ae67-2b29679adee4.jpg"",""img/0867/5e07b34d-b40f-4b1c-ac10-49975bace45f.jpg""]","",""
"","5849","similarity","117","694751","0.0-6.0-111.0","6","[""img/0881/633c6f40-56d9-4b48-bf1c-ecd83116eabb.jpg"",""img/0760/afe7a178-4458-4bdd-a0ad-0cffc57eadc3.jpg""]","",""
"","3505","similarity","118","699271","0.0-6.0-112.0","4","[""img/0881/62a64f90-7a72-4aee-a1a1-0c548ac9bdda.jpg"",""img/0868/e0aff734-077f-40dd-9781-74821abd3621.jpg""]","",""
"","4326","similarity","119","704617","0.0-6.0-113.0","6","[""img/0875/3ecb367d-e9eb-4826-8aaa-7aa72fb98019.jpg"",""img/0761/53a65b48-8b0c-4a1d-9ebb-a27a259c5bc6.jpg""]","",""
"","3479","similarity","120","709103","0.0-6.0-114.0","5","[""img/0756/96c1bf35-26b6-4428-b19d-bdb5efe1367a.jpg"",""img/0866/386235d2-6857-41e7-88a8-25cfc3430025.jpg""]","",""
"","5019","similarity","121","715135","0.0-6.0-115.0","4","[""img/0884/2348ce3f-5d2a-4a04-85ef-a65f05caa935.jpg"",""img/0886/0f9715c1-b2e4-418e-bf9b-126cc9e70dc6.jpg""]","",""
"","4266","similarity","122","720423","0.0-6.0-116.0","5","[""img/0756/350ac166-1deb-4399-89db-da6a7e827c4d.jpg"",""img/0881/f4e3e181-b3c9-4af2-a5a4-fc135ab70d2e.jpg""]","",""
"","5643","similarity","123","727071","0.0-6.0-117.0","5","[""img/0760/317fc071-99e6-43cb-9099-2e50aa79ccc2.jpg"",""img/0875/90da8d75-108a-44ad-b999-e21fee3860d3.jpg""]","",""
"","5263","similarity","124","733351","0.0-6.0-118.0","5","[""img/0958/9be61b1d-099b-432a-ae0e-2aa69e157c0e.jpg"",""img/0866/9b38d691-1802-4959-ab3f-fc902f0e4ea6.jpg""]","",""
"","4535","similarity","125","738895","0.0-6.0-119.0","5","[""img/0867/50a1b60e-3a29-44bf-b606-d4bd3746fea9.jpg"",""img/0874/ca76a855-4e77-4f2f-872a-0a718153e7ed.jpg""]","",""
"","3910","similarity","126","743823","0.0-6.0-120.0","5","[""img/0883/cc2bb2c6-18f1-414f-98cc-6cd683173ce4.jpg"",""img/0757/a91bb71b-8c84-4999-8da7-f30e53ddc2a7.jpg""]","",""
"","4539","similarity","127","749367","0.0-6.0-121.0","1","[""img/0874/93d1f8dc-acf2-4f03-bd8d-8ec35df276ed.jpg"",""img/0886/e5903946-897c-4420-87c0-afee4100305c.jpg""]","",""
"","5088","similarity","128","755471","0.0-6.0-122.0","5","[""img/0873/ec150e40-b3ec-4dfe-ab38-bb3f248a1175.jpg"",""img/0761/1725cacb-5f86-4b47-a5c0-3c36cd981588.jpg""]","",""
"","4677","similarity","129","761159","0.0-6.0-123.0","5","[""img/0875/527ced51-8e53-4aab-ab05-86df219104c0.jpg"",""img/0884/3613aeb4-0028-4205-aea0-1ea28cb1f80e.jpg""]","",""
"","5087","similarity","130","767263","0.0-6.0-124.0","3","[""img/0757/802a8692-dc9e-4372-8811-ce4351a09d1a.jpg"",""img/0868/6a28c3b0-3d76-498a-9fb7-ddafc665eca8.jpg""]","",""
"","3401","similarity","131","775470","0.0-6.0-125.0","1","[""img/0886/c6c81122-f4bf-46f4-968b-167f8ed0cab3.jpg"",""img/0883/eff15ce5-9393-443c-829f-71242d1c56d0.jpg""]","",""
"","4892","similarity","132","781375","0.0-6.0-126.0","5","[""img/0868/8b0b8473-e2c0-4331-aa56-c3a5c29369da.jpg"",""img/0760/fe62dd62-331c-4317-8af2-f1c816871fee.jpg""]","",""
"","4500","similarity","133","786895","0.0-6.0-127.0","6","[""img/0881/54ea8e77-c7e5-4197-b7fa-00b7020849a7.jpg"",""img/0881/e046471a-35b4-4159-bbf7-3cfd201bef66.jpg""]","",""
"","3160","similarity","134","791063","0.0-6.0-128.0","2","[""img/0760/4c78b78c-193e-4a1e-8bb2-394add325fda.jpg"",""img/0860/87039971-2210-4aab-93c0-8e9b5f1655b2.jpg""]","",""
"","4109","similarity","135","796191","0.0-6.0-129.0","6","[""img/0864/6f631579-acf1-415c-a42c-1207f62a8d99.jpg"",""img/0885/1e66fe61-15d5-42b1-86aa-dbfd13613f5c.jpg""]","",""
"","3007","similarity","136","800207","0.0-6.0-130.0","5","[""img/0864/0116ca98-293d-4fa6-a93b-5a6144ef64cc.jpg"",""img/0757/94c7f207-1115-4451-b22b-1f74b3661208.jpg""]","",""
"","3312","similarity","137","804535","0.0-6.0-131.0","6","[""img/0760/9ddd6958-7349-45d6-b5bc-4a5911960c35.jpg"",""img/0883/02f50df0-eb8c-4e17-836a-c89ddb1c04e1.jpg""]","",""
"","6434","similarity","138","811953","0.0-6.0-132.0","7","[""img/0885/1cd940ef-9720-4a04-8fa1-1dd3a39ecdd6.jpg"",""img/0885/4fd0aafb-6cc0-43d6-993a-c55a6e18a7ba.jpg""]","",""
"","4453","similarity","139","817417","0.0-6.0-133.0","1","[""img/0860/15b24a61-25be-4356-9eac-5ce95d0cb4a4.jpg"",""img/0868/0d3abd3a-b6c3-4584-a9f7-e2da63748b3d.jpg""]","",""
"","2845","similarity","140","821281","0.0-6.0-134.0","2","[""img/0867/98d8cd96-1476-4fe0-a3a3-04f875500a1b.jpg"",""img/0886/4d28f75a-a9c3-49dd-8aa8-00304af6e40b.jpg""]","",""
"","5358","similarity","141","827649","0.0-6.0-135.0","1","[""img/0756/1cc17c90-3114-4ede-89cd-f34db9fa638a.jpg"",""img/0886/1e8c0f89-c766-41c9-b522-83c342048f34.jpg""]","",""
"","3698","similarity","142","832352","0.0-6.0-136.0","3","[""img/0884/10c0a35b-e20a-4d75-a7c0-959a578d9ebf.jpg"",""img/0868/15dd6fd7-791e-4b53-b203-195d617521a4.jpg""]","",""
"","4670","similarity","143","838035","0.0-6.0-137.0","6","[""img/0958/5a91b0e8-8f60-4625-b88c-d6e55b4d7d93.jpg"",""img/0958/acbadc39-e665-446d-b98f-ccd0ef3223d6.jpg""]","",""
"","4099","similarity","144","843145","0.0-6.0-138.0","2","[""img/0886/bd45b474-5559-4ea5-83ff-140bce19f5fa.jpg"",""img/0873/b509aa81-b1d7-4d50-8aef-9c7b725c3157.jpg""]","",""
"","5550","similarity","145","849712","0.0-6.0-139.0","4","[""img/0758/dd559618-7f09-4a07-8018-d311c4a5ea29.jpg"",""img/0873/90b702a6-3dba-446a-9bba-a2ee096baf49.jpg""]","",""
"","3903","similarity","146","854632","0.0-6.0-140.0","5","[""img/0873/33552b07-bdb8-423e-88b4-25a37f159c6d.jpg"",""img/0756/2bc961e4-b35f-4cfe-ba02-6f14fe3bdc10.jpg""]","",""
"","5316","similarity","147","860961","0.0-6.0-141.0","2","[""img/0868/4a8a45ed-2c4f-421b-9564-409a33ecd26c.jpg"",""img/0862/cdaed51d-9e2f-4807-801a-4663c40077e2.jpg""]","",""
"","4840","similarity","148","866817","0.0-6.0-142.0","2","[""img/0881/ee44e27f-d662-4608-b265-e7ffa19b216f.jpg"",""img/0862/fb26cb07-d5a9-4653-813c-f41609f26cd5.jpg""]","",""
"","4421","similarity","149","872249","0.0-6.0-143.0","6","[""img/0885/eb5e4557-1792-49c3-8871-16afa58f3a28.jpg"",""img/0867/f8488a47-94ee-4166-952c-44e16cf172f6.jpg""]","",""
"","3447","similarity","150","876704","0.0-6.0-144.0","5","[""img/0883/3b1366c6-7baa-4ad2-889c-1ff9c3b379c9.jpg"",""img/0883/e7e4af6a-bc7a-4a9b-921c-32652db13239.jpg""]","",""
"","3947","similarity","151","881665","0.0-6.0-145.0","6","[""img/0874/3ce41e7c-40c8-4d58-a546-171114521796.jpg"",""img/0873/0d9b4403-7f26-46dc-b0b7-2b97b0a91b46.jpg""]","",""
"","3327","similarity","152","886008","0.0-6.0-146.0","5","[""img/0757/10030bb1-70b8-4889-a8a5-ab50e145704d.jpg"",""img/0758/6cd8c362-ae2a-41eb-80a3-3a4f7ace1530.jpg""]","",""
"","4294","similarity","153","891312","0.0-6.0-147.0","5","[""img/0883/142a783e-a468-4b7f-a750-1e107613d5a9.jpg"",""img/0756/7a83dec0-4724-4efc-9fbf-52a30b5acd99.jpg""]","",""
"","5301","similarity","154","897624","0.0-6.0-148.0","5","[""img/0867/1719a35d-f085-48c0-9099-16c94fe418b4.jpg"",""img/0866/11a1d141-be5e-443c-98c1-a9d4d9e3dec0.jpg""]","",""
"","4918","similarity","155","903561","0.0-6.0-149.0","5","[""img/0758/7ee8bc8f-c40b-4b3a-84ec-3e83580622d4.jpg"",""img/0760/4f024637-f98a-409a-baa0-fc4989d80667.jpg""]","",""
"","4686","similarity","156","909256","0.0-6.0-150.0","4","[""img/0757/6ecf2f24-3286-49d6-b5ed-bb2da660c588.jpg"",""img/0761/b8f211c0-f640-43a2-b101-101774517d95.jpg""]","",""
"","5351","similarity","157","915617","0.0-6.0-151.0","6","[""img/0761/d5370a68-6c8a-486f-b2bf-330e2ad6b397.jpg"",""img/0874/767f289c-9814-4496-803f-745cc8913d1f.jpg""]","",""
"","2986","similarity","158","919616","0.0-6.0-152.0","6","[""img/0761/176fde97-0334-4d2b-8a7a-38960c2528f3.jpg"",""img/0760/dddcdfaf-2d02-4de9-a176-5705d0004b5a.jpg""]","",""
"","4383","similarity","159","925008","0.0-6.0-153.0","7","[""img/0866/d266fece-59b3-46fa-b69f-96f6efb81b59.jpg"",""img/0866/4a87911a-d5be-4d4e-ab8e-3d1f581bf507.jpg""]","",""
"","4185","similarity","160","930210","0.0-6.0-154.0","6","[""img/0866/23a224f3-2012-4fc8-8e0f-3c36f8de27fd.jpg"",""img/0862/7918ca67-5bd3-4606-a5ea-c39fb11a9297.jpg""]","",""
"","3933","similarity","161","935152","0.0-6.0-155.0","1","[""img/0756/bb3f0571-641e-4d5b-b528-672892c37030.jpg"",""img/0862/92f0146c-20c4-482e-aef5-adb693790338.jpg""]","",""
"","5700","similarity","162","941864","0.0-6.0-156.0","2","[""img/0860/b03b963d-949b-4d8d-b19c-4950c89eeca2.jpg"",""img/0866/f756f7d1-9ad8-4a34-9ef6-7a443d705bfe.jpg""]","",""
"","4753","similarity","163","947624","0.0-6.0-157.0","2","[""img/0862/53a9cf7c-93c4-41b9-952f-07d17f7a17b2.jpg"",""img/0958/822de3b9-e5fd-4b74-aeb1-7c40805b0717.jpg""]","",""
"","4588","similarity","164","953240","0.0-6.0-158.0","5","[""img/0761/a74c99e4-d9ed-42cd-9e83-8d525cb6a9a2.jpg"",""img/0868/d98ca254-b195-477f-b57e-5760a2717db8.jpg""]","",""
"","4540","similarity","165","958800","0.0-6.0-159.0","4","[""img/0761/5ed865c0-8bfb-4310-9b47-690b3e450ca2.jpg"",""img/0886/9ac18ff1-d3d9-4bfe-aa2e-ed5b28399f6c.jpg""]","",""
"","5810","similarity","166","965624","0.0-6.0-160.0","2","[""img/0874/a3bc679d-619f-4db6-bb68-116dcb757d9c.jpg"",""img/0868/293079b8-7e0c-4afd-a390-1e5d35fe3ded.jpg""]","",""
"","6025","similarity","167","972656","0.0-6.0-161.0","1","[""img/0860/99c589b9-9140-4d17-90c0-b344323edcda.jpg"",""img/0874/c0378dac-9370-439a-8b79-db27c96fb390.jpg""]","",""
"","4814","similarity","168","978481","0.0-6.0-162.0","5","[""img/0883/cc3df660-426e-452e-ac50-3a3b09dc4b65.jpg"",""img/0867/6e19c858-b606-45b2-a4c6-910a73f1d82c.jpg""]","",""
"","5042","similarity","169","984528","0.0-6.0-163.0","5","[""img/0758/eabcd7a8-56ad-4fd2-bc24-90f6b7b33265.jpg"",""img/0958/df7705da-e817-409f-8a93-05abef4b26c3.jpg""]","",""
"","3685","similarity","170","989224","0.0-6.0-164.0","1","[""img/0873/0c7f3d86-efda-4809-aac4-256ba01e0536.jpg"",""img/0757/a7964b0f-aee3-4b4c-9cd1-c1c998c49fef.jpg""]","",""
"","4059","similarity","171","994297","0.0-6.0-165.0","5","[""img/0873/e5374873-a1a7-4689-a04c-a3b959992244.jpg"",""img/0866/945c6710-d15b-4a5b-a8f6-69af0850357f.jpg""]","",""
"","4844","similarity","172","1000153","0.0-6.0-166.0","5","[""img/0875/5a1e5100-0d94-4fec-bbe9-ca9894d2cf8e.jpg"",""img/0867/075e0f95-856b-4cbb-acf5-092393aaf04e.jpg""]","",""
"","4512","similarity","173","1010127","0.0-6.0-167.0","7","[""img/0862/1c20f772-3a51-4a80-aac0-f57dc9f86c28.jpg"",""img/0862/f43ceabf-acc1-4107-b857-5d1849808f93.jpg""]","",""
"","3473","similarity","174","1014616","0.0-6.0-168.0","3","[""img/0875/8521fd58-3b1e-4dc5-97ae-804edfa6734a.jpg"",""img/0886/1870a791-dfee-471e-8417-197d4a53c75a.jpg""]","",""
"","4180","similarity","175","1019816","0.0-6.0-169.0","6","[""img/0885/5a47e19f-19b4-4545-bf47-b508cb65da6a.jpg"",""img/0875/5a716432-c6ca-4b1c-955a-2b8ac25198ee.jpg""]","",""
"","5090","similarity","176","1025920","0.0-6.0-170.0","2","[""img/0862/de9ad88c-b522-430a-8ee9-eb06a9f85df5.jpg"",""img/0867/a498eef3-9fa4-4ab2-9778-4ae82ac40dc5.jpg""]","",""
"","3119","similarity","177","1030048","0.0-6.0-171.0","5","[""img/0884/37ee4afa-34a0-4da2-bdb0-fcaff43dcdb6.jpg"",""img/0873/c91c05f8-fafd-4054-bcf1-f5ed1f0a18e8.jpg""]","",""
"","3440","similarity","178","1034504","0.0-6.0-172.0","5","[""img/0873/d74e4aa9-420d-48a3-a42f-30a3481536ae.jpg"",""img/0958/1812c506-727b-43a7-882e-4729742e41fc.jpg""]","",""
"","3858","similarity","179","1039369","0.0-6.0-173.0","5","[""img/0868/4bd5105a-d2c3-4f82-8c80-57196106ba53.jpg"",""img/0758/6e95579b-5166-487c-b8cb-e417c6a218e3.jpg""]","",""
"","3654","similarity","180","1044033","0.0-6.0-174.0","3","[""img/0757/acda7aee-6b29-463f-bf01-0d64d6a6ae2b.jpg"",""img/0874/bf14b896-e930-4fd9-9c05-2e83317a2773.jpg""]","",""
"","3622","similarity","181","1048664","0.0-6.0-175.0","5","[""img/0958/eea2b7ca-1c37-4e76-ada7-a8b1f3afdc01.jpg"",""img/0867/de92135f-5b65-4ed9-b245-188292c7c2f8.jpg""]","",""
"","4028","similarity","182","1053673","0.0-6.0-176.0","5","[""img/0874/ca23d307-fc00-4d7d-9106-584c6eb21b4d.jpg"",""img/0760/1c96ffb7-17db-4253-b66c-59250977c88b.jpg""]","",""
"","5813","similarity","183","1060497","0.0-6.0-177.0","2","[""img/0873/6110910a-7895-4b6a-af51-12486a4595a3.jpg"",""img/0860/c3379ff7-0763-48fe-a1ec-7ea3d611bc7a.jpg""]","",""
"","5324","similarity","184","1066841","0.0-6.0-178.0","6","[""img/0881/445edb15-bd7f-4af3-8bd5-c6ad9677bb31.jpg"",""img/0883/5716bfb3-e86c-42fe-8afa-58d226cb1aaa.jpg""]","",""
"","5332","similarity","185","1073187","0.0-6.0-179.0","1","[""img/0886/48077111-b86b-4612-910f-90a5d168d77f.jpg"",""img/0958/d3775867-a8f6-42ba-86ff-f86e85edba90.jpg""]","",""
"","5230","similarity","186","1079433","0.0-6.0-180.0","5","[""img/0864/66091c27-e588-4476-8af9-265dc6be4156.jpg"",""img/0883/df1c6d22-bb1b-4eed-b4fe-eb5e46deacd4.jpg""]","",""
"","3510","similarity","187","1083953","0.0-6.0-181.0","6","[""img/0756/ca2a8f93-ed77-45c8-a3a3-22324aa28501.jpg"",""img/0868/fd307a36-9a3a-47d7-ab7c-f810d0b35040.jpg""]","",""
"","4146","similarity","188","1089113","0.0-6.0-182.0","2","[""img/0884/7ae02e9d-46a4-4124-bcc2-cad90d7ef9f9.jpg"",""img/0758/f61ecdf8-a7d4-4db0-b84d-be46f7cfaffc.jpg""]","",""
"","4118","similarity","189","1094250","0.0-6.0-183.0","6","[""img/0875/2e13d160-eea1-416b-aff1-d37ab99ecc1d.jpg"",""img/0874/a82926a3-0b43-4add-803c-d5f9ea7798ee.jpg""]","",""
"","4697","similarity","190","1099962","0.0-6.0-184.0","6","[""img/0867/aa05d113-fc19-4756-a8eb-7878f580bc92.jpg"",""img/0868/77091fc7-a590-4ebb-b915-fdb2483a2399.jpg""]","",""
"","4004","similarity","191","1104977","0.0-6.0-185.0","6","[""img/0881/f62bdcd1-a4b7-4d48-83da-d9c9e01c8727.jpg"",""img/0885/89d8c48b-8bde-42ed-ae71-de669b15ea34.jpg""]","",""
"","6604","similarity","192","1112602","0.0-6.0-186.0","6","[""img/0864/1d15626a-2f7c-410f-819c-0fa2c967e95e.jpg"",""img/0761/3599fa54-18f9-488e-b402-e851c43586ff.jpg""]","",""
"","3295","similarity","193","1116906","0.0-6.0-187.0","6","[""img/0885/8960bf05-34df-4a86-a9b2-6087c70e61d3.jpg"",""img/0874/7e4f2150-3b59-4a36-b5da-a4e0ba410531.jpg""]","",""
"","3862","similarity","194","1121777","0.0-6.0-188.0","5","[""img/0758/821c68d3-5cb0-4eae-8659-30e6263fca39.jpg"",""img/0867/85a96c62-548f-4994-9553-819e03c3135a.jpg""]","",""
"","3100","similarity","195","1125881","0.0-6.0-189.0","4","[""img/0756/321ae2a8-5dd4-4b23-b1e4-202e0b7c0b02.jpg"",""img/0884/ee845634-cd54-4c06-95a9-962122ef8712.jpg""]","",""
"","4404","similarity","196","1131305","0.0-6.0-190.0","2","[""img/0761/89d3b943-cd14-4786-a7b8-0e9a695cf0e3.jpg"",""img/0862/e8cc3bdf-cc43-4565-bccf-492626c70953.jpg""]","",""
"","4455","similarity","197","1136769","0.0-6.0-191.0","1","[""img/0860/5383b320-1518-4095-a58e-5cc1ae30b64c.jpg"",""img/0886/b8648eb5-de71-41ab-825d-848e51be8c1b.jpg""]","",""
"","2915","similarity","198","1140706","0.0-6.0-192.0","6","[""img/0760/7cdb34e4-0556-4bf7-9a6f-05990a92e0f3.jpg"",""img/0885/ef0386f3-e5d4-481b-8894-60b80e08bbe8.jpg""]","",""
"","5056","similarity","199","1146777","0.0-6.0-193.0","2","[""img/0886/d1e40478-2fe0-404f-8409-920da98a96a2.jpg"",""img/0868/179a5502-ab5c-478e-8263-5a1fbcc101d2.jpg""]","",""
"","4827","similarity","200","1152618","0.0-6.0-194.0","5","[""img/0881/609a5e93-38b5-4940-8627-2bf8fad7f802.jpg"",""img/0864/87c467d3-abca-482f-ad80-3766c21b1bb3.jpg""]","",""
"","5023","similarity","201","1158649","0.0-6.0-195.0","6","[""img/0866/02f5e6b9-52b7-448c-9708-5b460d0c9a23.jpg"",""img/0868/3a62db2d-97e9-44a3-b8e3-a48c6f0e423b.jpg""]","",""
"","3924","similarity","202","1163585","0.0-6.0-196.0","6","[""img/0864/300bb811-8b3c-4c42-8653-6097c3725197.jpg"",""img/0958/ef1b718f-ef8c-497f-80d7-42562aebf1a7.jpg""]","",""
"","4596","similarity","203","1169189","0.0-6.0-197.0","1","[""img/0757/cd7fd185-981f-477a-ba00-a0f65bcfd0e9.jpg"",""img/0886/aef00ed5-e288-47bf-b31e-512d7e762ea2.jpg""]","",""
"","8156","similarity","204","1178365","0.0-6.0-198.0","4","[""img/0758/53f35650-e455-4b53-8be4-c3c8271c6466.jpg"",""img/0883/d719aab0-0280-4c06-87e5-b9db7454965c.jpg""]","",""
"","4075","similarity","205","1183457","0.0-6.0-199.0","5","[""img/0881/4da99fdd-1f40-4bbb-8e21-8833eef313f5.jpg"",""img/0958/ebea41e3-9d65-4f5e-981a-92daaaad0d57.jpg""]","",""
"","4943","similarity","206","1189409","0.0-6.0-200.0","3","[""img/0958/4e2ca4bc-52c7-4c27-9610-776441231e42.jpg"",""img/0874/2c9464dd-8a23-4baa-ac94-1ba3af5c15cc.jpg""]","",""
"","3848","similarity","207","1194273","0.0-6.0-201.0","2","[""img/0885/fbbfaacd-e49b-4d37-a2f9-fcaffa58f26f.jpg"",""img/0860/94ef7afc-e0e6-4a15-98c6-0bfac82bc832.jpg""]","",""
"","3779","similarity","208","1199073","0.0-6.0-202.0","6","[""img/0875/2c361b79-c3d1-4eda-812e-bf03192407bf.jpg"",""img/0881/c843e210-bdfe-4a7c-8bbe-fcea1f90fe1c.jpg""]","",""
"","3577","similarity","209","1203660","0.0-6.0-203.0","2","[""img/0758/d57c2592-a317-4f63-91be-91a3a9afd222.jpg"",""img/0860/9593362c-9fe5-4d12-9735-6000a11f6aa5.jpg""]","",""
"","4421","similarity","210","1209089","0.0-6.0-204.0","7","[""img/0860/524b2e98-5767-4d53-942c-ebae6925659b.jpg"",""img/0860/d9a0d117-6d1d-41c0-8fec-9aff0fd9e9f2.jpg""]","",""
"","5119","similarity","211","1215218","0.0-6.0-205.0","5","[""img/0874/adf9a8f1-c40b-402b-b95b-1e85a54a7b62.jpg"",""img/0874/3f471690-9788-4d03-90c7-f615aecef149.jpg""]","",""
"","4429","similarity","212","1220658","0.0-6.0-206.0","4","[""img/0883/512a797a-315b-439e-9a9d-855929351fd0.jpg"",""img/0761/014e76d0-fb4e-4b40-901c-7a2d5655c3b0.jpg""]","",""
"","4185","similarity","213","1225859","0.0-6.0-207.0","5","[""img/0761/bd083642-a9bc-4877-bfc6-63bd03d33e81.jpg"",""img/0881/f037e3b0-09cb-4a83-b2d9-6a71fe474e63.jpg""]","",""
"","3790","similarity","214","1230657","0.0-6.0-208.0","3","[""img/0760/c7d43bfd-465f-4f4e-8dc1-ae4cd3d2c1de.jpg"",""img/0756/2d59e6c9-df29-4c76-a030-db83f23c8b9b.jpg""]","",""
"","4927","similarity","215","1241280","0.0-6.0-209.0","3","[""img/0885/6873c613-5e40-42ff-a5b6-443b6b626ae2.jpg"",""img/0757/4faaa503-45d9-43fa-bddb-707274a341ff.jpg""]","",""
"[{""page_index"":0,""viewing_time"":8638}]","8639","instructions","216","1250929","0.0-7.0","","","",""
"","13219","image-multi-choice","217","1265186","0.0-8.0-0.0","","","{""Q0"":""Orange-crowned Warbler""}","Orange-crowned Warbler"
"","5291","image-multi-choice","218","1271510","0.0-8.0-1.0","","","{""Q0"":""Wilson's Warbler""}","Wilson's Warbler"
"","10388","image-multi-choice","219","1282926","0.0-8.0-2.0","","","{""Q0"":""Black-and-white Warbler""}","Blackpoll Warbler"
"","16196","image-multi-choice","220","1300150","0.0-8.0-3.0","","","{""Q0"":""Black-and-white Warbler""}","Black-and-white Warbler"
"","5139","image-multi-choice","221","1306326","0.0-8.0-4.0","","","{""Q0"":""Yellow-breasted Chat""}","Yellow-breasted Chat"
"","19845","image-multi-choice","222","1327199","0.0-8.0-5.0","","","{""Q0"":""Blackburnian Warbler""}","Canada Warbler"
"","5535","image-multi-choice","223","1333766","0.0-8.0-6.0","","","{""Q0"":""Common Yellowthroat""}","Common Yellowthroat"
"","4284","image-multi-choice","224","1339118","0.0-8.0-7.0","","","{""Q0"":""American Redstart""}","American Redstart"
"","4575","image-multi-choice","225","1344719","0.0-8.0-8.0","","","{""Q0"":""Chestnut-sided Warbler""}","Chestnut-sided Warbler"
"","5849","image-multi-choice","226","1351590","0.0-8.0-9.0","","","{""Q0"":""Black-throated Green Warbler""}","Black-throated Green Warbler"
"","6098","image-multi-choice","227","1358723","0.0-8.0-10.0","","","{""Q0"":""Blackpoll Warbler""}","Blackburnian Warbler"
"","9166","image-multi-choice","228","1368918","0.0-8.0-11.0","","","{""Q0"":""Northern Parula""}","Yellow-rumped Warbler"
"","6160","image-multi-choice","229","1376119","0.0-8.0-12.0","","","{""Q0"":""Ovenbird""}","Ovenbird"
"","8845","image-multi-choice","230","1386118","0.0-8.0-13.0","","","{""Q0"":""Townsend's Warbler""}","Townsend's Warbler"
"","4700","image-multi-choice","231","1391846","0.0-8.0-14.0","","","{""Q0"":""Northern Waterthrush""}","Northern Waterthrush"
"","6576","image-multi-choice","232","1399446","0.0-8.0-15.0","","","{""Q0"":""Yellow Warbler""}","Yellow Warbler"
"","14636","image-multi-choice","233","1415102","0.0-8.0-16.0","","","{""Q0"":""Tennessee Warbler""}","Nashville Warbler"
"","45190","image-multi-choice","234","1461320","0.0-8.0-17.0","","","{""Q0"":""Canada Warbler""}","Northern Parula"
"","9258","image-multi-choice","235","1471600","0.0-8.0-18.0","","","{""Q0"":""Northern Parula""}","Tennessee Warbler"
"","8143","image-multi-choice","236","1480768","0.0-8.0-19.0","","","{""Q0"":""Blackpoll Warbler""}","Magnolia Warbler"
