"view_history","rt","trial_type","trial_index","time_elapsed","internal_node_id","sim_score","stimulus","responses","answer"
"[{""page_index"":0,""viewing_time"":15921}]","15921","instructions","0","15922","0.0-0.0","","","",""
"","4066","similarity_demo","1","21000","0.0-1.0","6","[""img/bluejay1.jpg"",""img/bluejay2.jpg""]","",""
"[{""page_index"":0,""viewing_time"":2539}]","2539","instructions","2","24540","0.0-2.0","","","",""
"","4200","similarity_demo","3","29750","0.0-3.0","3","[""img/bluejay1.jpg"",""img/cardinal1.jpg""]","",""
"[{""page_index"":0,""viewing_time"":3680}]","3680","instructions","4","34430","0.0-4.0","","","",""
"[{""page_index"":0,""viewing_time"":19184}]","19184","instructions","5","54614","0.0-5.0","","","",""
"","6134","similarity","6","61766","0.0-6.0-0.0","5","[""img/0864/65210d57-1153-4657-886a-32e758f49b4a.jpg"",""img/0860/702bd09d-df3a-40aa-a267-5f04474305b5.jpg""]","",""
"","7366","similarity","7","70132","0.0-6.0-1.0","5","[""img/0884/3613aeb4-0028-4205-aea0-1ea28cb1f80e.jpg"",""img/0760/dfa71fdd-ddff-4827-a999-d5e599dd5679.jpg""]","",""
"","6540","similarity","8","77678","0.0-6.0-2.0","3","[""img/0886/97243e18-4dba-4af8-b49f-b3b635c90ac4.jpg"",""img/0881/62a64f90-7a72-4aee-a1a1-0c548ac9bdda.jpg""]","",""
"","6549","similarity","9","85231","0.0-6.0-3.0","2","[""img/0866/4a87911a-d5be-4d4e-ab8e-3d1f581bf507.jpg"",""img/0881/e6746727-7f89-47ec-b939-d98abe78372d.jpg""]","",""
"","4469","similarity","10","90707","0.0-6.0-4.0","3","[""img/0868/6a28c3b0-3d76-498a-9fb7-ddafc665eca8.jpg"",""img/0885/fce9f22a-f769-477c-acee-a5ad8214f0a5.jpg""]","",""
"","5653","similarity","11","97367","0.0-6.0-5.0","1","[""img/0757/6ecf2f24-3286-49d6-b5ed-bb2da660c588.jpg"",""img/0866/620cd1aa-0800-4414-8f6e-90342e7a99ad.jpg""]","",""
"","3811","similarity","12","102181","0.0-6.0-6.0","2","[""img/0868/5fa7f9d0-f0e5-454c-8224-74d964818f56.jpg"",""img/0864/300bb811-8b3c-4c42-8653-6097c3725197.jpg""]","",""
"","6426","similarity","13","109613","0.0-6.0-7.0","6","[""img/0864/ef9cbca0-4be8-435d-ad49-977259e80409.jpg"",""img/0864/8ddd2e30-a1d0-479f-9cbe-591213023893.jpg""]","",""
"","4890","similarity","14","115510","0.0-6.0-8.0","2","[""img/0757/76206a63-e02d-4beb-a85a-ed1b5527bc36.jpg"",""img/0881/f4e3e181-b3c9-4af2-a5a4-fc135ab70d2e.jpg""]","",""
"","5922","similarity","15","122432","0.0-6.0-9.0","5","[""img/0886/abd8dd83-d8ee-4003-b4d2-b4045220a578.jpg"",""img/0760/9ddd6958-7349-45d6-b5bc-4a5911960c35.jpg""]","",""
"","5497","similarity","16","128932","0.0-6.0-10.0","2","[""img/0884/ffcce05a-b38d-4570-b3dc-751e89b7790a.jpg"",""img/0883/df1c6d22-bb1b-4eed-b4fe-eb5e46deacd4.jpg""]","",""
"","4426","similarity","17","134361","0.0-6.0-11.0","1","[""img/0874/a3bc679d-619f-4db6-bb68-116dcb757d9c.jpg"",""img/0862/d0ca4c78-fc35-46ed-bdcc-8e124283c53e.jpg""]","",""
"","5280","similarity","18","140648","0.0-6.0-12.0","2","[""img/0862/de9ad88c-b522-430a-8ee9-eb06a9f85df5.jpg"",""img/0875/527ced51-8e53-4aab-ab05-86df219104c0.jpg""]","",""
"","5540","similarity","19","147191","0.0-6.0-13.0","2","[""img/0875/42910c99-5463-450a-a0f8-d4d060a11455.jpg"",""img/0757/2f6a36b2-6543-4003-bcb9-6f2c61db2de8.jpg""]","",""
"","4950","similarity","20","153141","0.0-6.0-14.0","5","[""img/0875/5a1e5100-0d94-4fec-bbe9-ca9894d2cf8e.jpg"",""img/0860/524b2e98-5767-4d53-942c-ebae6925659b.jpg""]","",""
"","4673","similarity","21","158814","0.0-6.0-15.0","4","[""img/0860/9593362c-9fe5-4d12-9735-6000a11f6aa5.jpg"",""img/0881/633c6f40-56d9-4b48-bf1c-ecd83116eabb.jpg""]","",""
"","8486","similarity","22","168303","0.0-6.0-16.0","3","[""img/0885/05af267f-b982-498d-9807-ccd54689f9b4.jpg"",""img/0884/e275ab3e-0948-43c3-8be7-a75271922185.jpg""]","",""
"","5590","similarity","23","174900","0.0-6.0-17.0","6","[""img/0761/53a65b48-8b0c-4a1d-9ebb-a27a259c5bc6.jpg"",""img/0761/47960f80-42b7-4397-a852-ec55d716c652.jpg""]","",""
"","6166","similarity","24","182077","0.0-6.0-18.0","4","[""img/0760/fe62dd62-331c-4317-8af2-f1c816871fee.jpg"",""img/0864/6e846d43-94a6-4b37-a268-65eda979f052.jpg""]","",""
"","8129","similarity","25","191213","0.0-6.0-19.0","4","[""img/0864/9b2490c5-a282-400a-9736-e1a0ecbf1cb7.jpg"",""img/0875/3ecb367d-e9eb-4826-8aaa-7aa72fb98019.jpg""]","",""
"","6644","similarity","26","198861","0.0-6.0-20.0","3","[""img/0874/ca76a855-4e77-4f2f-872a-0a718153e7ed.jpg"",""img/0884/baabff07-71d8-424e-ac29-644768380941.jpg""]","",""
"","6120","similarity","27","205986","0.0-6.0-21.0","6","[""img/0885/24afeefb-f7b3-4e8f-a5b9-17cc00fd22e3.jpg"",""img/0866/f756f7d1-9ad8-4a34-9ef6-7a443d705bfe.jpg""]","",""
"","6288","similarity","28","213277","0.0-6.0-22.0","6","[""img/0868/d6d1f30d-4323-435a-b194-7892521bc57e.jpg"",""img/0868/d98ca254-b195-477f-b57e-5760a2717db8.jpg""]","",""
"","5595","similarity","29","219877","0.0-6.0-23.0","1","[""img/0757/8993d166-c8ae-43f6-b269-9e8bd3379d57.jpg"",""img/0756/96c1bf35-26b6-4428-b19d-bdb5efe1367a.jpg""]","",""
"","4360","similarity","30","225242","0.0-6.0-24.0","6","[""img/0875/5a7c4e35-6514-4e12-8879-d16071da4cd6.jpg"",""img/0875/ebf7653f-ff45-4e9f-af58-2c042ab3cd2b.jpg""]","",""
"","6166","similarity","31","232415","0.0-6.0-25.0","3","[""img/0761/aebad236-1f4a-4bc2-a74d-d92b7e226316.jpg"",""img/0866/11a1d141-be5e-443c-98c1-a9d4d9e3dec0.jpg""]","",""
"","5241","similarity","32","238658","0.0-6.0-26.0","1","[""img/0866/c446214b-a368-4c65-ae39-ea46894256ab.jpg"",""img/0758/9fb5b2fe-3f00-4fe6-973c-1ce10d5f4cd5.jpg""]","",""
"","7003","similarity","33","246678","0.0-6.0-27.0","2","[""img/0758/eabcd7a8-56ad-4fd2-bc24-90f6b7b33265.jpg"",""img/0875/a4935837-7d3c-4df6-88c1-36a94d4991ca.jpg""]","",""
"","5838","similarity","34","253534","0.0-6.0-28.0","2","[""img/0958/1812c506-727b-43a7-882e-4729742e41fc.jpg"",""img/0757/417763f8-6fe7-44f2-acaa-613a44f20835.jpg""]","",""
"","5483","similarity","35","260024","0.0-6.0-29.0","4","[""img/0873/841d6549-01d2-4ebd-8d67-25d219876178.jpg"",""img/0883/599aacc5-bb0f-4dea-852c-9a27727eb0b9.jpg""]","",""
"","7703","similarity","36","268744","0.0-6.0-30.0","3","[""img/0868/293079b8-7e0c-4afd-a390-1e5d35fe3ded.jpg"",""img/0875/34132396-d896-4c2d-8087-646dd867e769.jpg""]","",""
"","6509","similarity","37","276270","0.0-6.0-31.0","2","[""img/0884/5085d424-b3f5-461b-a1c7-f7ca55abcf4f.jpg"",""img/0862/f23038d4-c366-4f70-979f-66b62362efa4.jpg""]","",""
"","4797","similarity","38","282070","0.0-6.0-32.0","1","[""img/0884/fb8b0101-bfd2-462b-a942-d3202a69dd18.jpg"",""img/0864/3d4de670-b290-4285-9c3d-12a0e3af44e9.jpg""]","",""
"","5486","similarity","39","288566","0.0-6.0-33.0","2","[""img/0883/49aada36-b662-416c-93ae-9eab6598bfae.jpg"",""img/0958/822de3b9-e5fd-4b74-aeb1-7c40805b0717.jpg""]","",""
"","4590","similarity","40","294163","0.0-6.0-34.0","1","[""img/0864/87c467d3-abca-482f-ad80-3766c21b1bb3.jpg"",""img/0756/a940d622-200d-4df5-8896-60af56798bbe.jpg""]","",""
"","5808","similarity","41","300972","0.0-6.0-35.0","2","[""img/0874/a82926a3-0b43-4add-803c-d5f9ea7798ee.jpg"",""img/0758/53f35650-e455-4b53-8be4-c3c8271c6466.jpg""]","",""
"","10203","similarity","42","312182","0.0-6.0-36.0","5","[""img/0886/451550d7-6ff9-42b5-938c-9e20ee960bf6.jpg"",""img/0862/00c06b00-3b73-44e9-bc1e-c5aafb438321.jpg""]","",""
"","5856","similarity","43","319045","0.0-6.0-37.0","3","[""img/0862/5d887e9f-89e2-4ebc-80a0-6d46fe6480db.jpg"",""img/0885/5a47e19f-19b4-4545-bf47-b508cb65da6a.jpg""]","",""
"","5999","similarity","44","326045","0.0-6.0-38.0","2","[""img/0758/caa93da2-9edf-49fa-96b9-32dedd8f5078.jpg"",""img/0864/c3b63e8f-ea39-4d70-a1f2-b3fe4be8eb75.jpg""]","",""
"","5729","similarity","45","332774","0.0-6.0-39.0","2","[""img/0873/c3ff3b70-fb22-42f2-883c-3ecffd77cb4b.jpg"",""img/0867/26611f4e-d694-4460-b7e2-43c62753ddc3.jpg""]","",""
"","5139","similarity","46","338917","0.0-6.0-40.0","2","[""img/0958/6e602e13-8029-4642-bce0-8deffd0dc686.jpg"",""img/0884/7ae02e9d-46a4-4124-bcc2-cad90d7ef9f9.jpg""]","",""
"","6167","similarity","47","362766","0.0-6.0-41.0","6","[""img/0873/87f38f18-48a2-4de3-b24b-70630e8b6ca0.jpg"",""img/0873/1d1be182-3bb2-4efd-8543-d70b8db7beef.jpg""]","",""
"","7497","similarity","48","371263","0.0-6.0-42.0","2","[""img/0886/c6c81122-f4bf-46f4-968b-167f8ed0cab3.jpg"",""img/0758/f61ecdf8-a7d4-4db0-b84d-be46f7cfaffc.jpg""]","",""
"","5672","similarity","49","377942","0.0-6.0-43.0","3","[""img/0883/387a9e30-7d95-483e-af34-c8262f62385f.jpg"",""img/0874/bf14b896-e930-4fd9-9c05-2e83317a2773.jpg""]","",""
"","5612","similarity","50","384565","0.0-6.0-44.0","2","[""img/0881/adc02f34-ce97-4aef-850f-00519df06fd7.jpg"",""img/0873/c2a7452d-a271-4207-81ce-bda281dc0297.jpg""]","",""
"","5373","similarity","51","390941","0.0-6.0-45.0","1","[""img/0867/6e19c858-b606-45b2-a4c6-910a73f1d82c.jpg"",""img/0757/cd7fd185-981f-477a-ba00-a0f65bcfd0e9.jpg""]","",""
"","3848","similarity","52","395791","0.0-6.0-46.0","4","[""img/0866/386235d2-6857-41e7-88a8-25cfc3430025.jpg"",""img/0874/7e4f2150-3b59-4a36-b5da-a4e0ba410531.jpg""]","",""
"","5860","similarity","53","402652","0.0-6.0-47.0","6","[""img/0886/48077111-b86b-4612-910f-90a5d168d77f.jpg"",""img/0886/1870a791-dfee-471e-8417-197d4a53c75a.jpg""]","",""
"","7847","similarity","54","411504","0.0-6.0-48.0","3","[""img/0883/fc8cf4c9-003e-48c4-b222-8878ea2ae1c0.jpg"",""img/0860/e8b8c51e-1834-4875-8b61-6c5bc9b178bd.jpg""]","",""
"","4740","similarity","55","417247","0.0-6.0-49.0","2","[""img/0860/99c589b9-9140-4d17-90c0-b344323edcda.jpg"",""img/0756/b8d6aa83-8673-4e0d-be72-b3da2bae7a6d.jpg""]","",""
"","6184","similarity","56","424436","0.0-6.0-50.0","2","[""img/0860/e14d67c1-6d92-4f1e-9257-c8607159c19c.jpg"",""img/0757/b46cab21-50e3-4f19-803d-682627bcd6a6.jpg""]","",""
"","6657","similarity","57","432097","0.0-6.0-51.0","6","[""img/0756/653c7580-fa90-45bb-828a-eb9d05a6b1c7.jpg"",""img/0756/10fa3aa2-6100-492a-826e-febb6513cf13.jpg""]","",""
"","5650","similarity","58","438747","0.0-6.0-52.0","3","[""img/0875/f87b67d7-c33e-40d1-b281-248c4be1cb6e.jpg"",""img/0866/6f2a90d7-14f1-4f1b-bd64-fc0af6b9fe44.jpg""]","",""
"","8606","similarity","59","448356","0.0-6.0-53.0","5","[""img/0756/d0f1b906-d8e0-4528-9d08-90cec14838ec.jpg"",""img/0758/6e95579b-5166-487c-b8cb-e417c6a218e3.jpg""]","",""
"","5943","similarity","60","455299","0.0-6.0-54.0","3","[""img/0761/6f9c1c71-e38d-4e3f-9062-39557812432a.jpg"",""img/0884/989ec8e3-5e41-4055-b0b5-3d65b9c44917.jpg""]","",""
"","5927","similarity","61","462233","0.0-6.0-55.0","2","[""img/0760/9daf8012-19c4-498f-8f51-81ec001a83be.jpg"",""img/0867/de92135f-5b65-4ed9-b245-188292c7c2f8.jpg""]","",""
"","4297","similarity","62","467536","0.0-6.0-56.0","2","[""img/0866/23a224f3-2012-4fc8-8e0f-3c36f8de27fd.jpg"",""img/0884/37ee4afa-34a0-4da2-bdb0-fcaff43dcdb6.jpg""]","",""
"","5898","similarity","63","474437","0.0-6.0-57.0","2","[""img/0756/04655068-a9fc-49d9-b2f4-21e4d42b7903.jpg"",""img/0761/9199a691-d36e-4ece-a815-078384ea6f06.jpg""]","",""
"","4023","similarity","64","479462","0.0-6.0-58.0","1","[""img/0867/f8488a47-94ee-4166-952c-44e16cf172f6.jpg"",""img/0860/94ef7afc-e0e6-4a15-98c6-0bfac82bc832.jpg""]","",""
"","8413","similarity","65","488875","0.0-6.0-59.0","2","[""img/0881/1407b85b-a1c6-45b1-9884-3b24203efadb.jpg"",""img/0758/65d426d6-3ff6-415d-8654-a43b83ecc4fe.jpg""]","",""
"","10083","similarity","66","499974","0.0-6.0-60.0","3","[""img/0761/b8f211c0-f640-43a2-b101-101774517d95.jpg"",""img/0758/67c0be2f-9e91-48b3-8219-70ac0a1802fa.jpg""]","",""
"","5396","similarity","67","506377","0.0-6.0-61.0","2","[""img/0958/5a91b0e8-8f60-4625-b88c-d6e55b4d7d93.jpg"",""img/0875/03c3c331-738b-4446-af92-3d7386b08c2e.jpg""]","",""
"","5623","similarity","68","513014","0.0-6.0-62.0","1","[""img/0886/625c7dfa-3fa1-4166-80f0-229eb416b04f.jpg"",""img/0864/f92649a2-0590-4d31-9a7a-1bfb81666a2d.jpg""]","",""
"","5833","similarity","69","519847","0.0-6.0-63.0","2","[""img/0756/caa9655d-9f7e-420d-a757-6af4985d335a.jpg"",""img/0874/29830da7-be5f-44e5-b141-652a0ccf7269.jpg""]","",""
"","4733","similarity","70","525587","0.0-6.0-64.0","1","[""img/0758/e1ba5e53-addc-436a-b428-d34fc1b130dc.jpg"",""img/0885/1cd940ef-9720-4a04-8fa1-1dd3a39ecdd6.jpg""]","",""
"","4749","similarity","71","531336","0.0-6.0-65.0","2","[""img/0760/1912c0dc-64a7-4c32-8d67-baf5e8752270.jpg"",""img/0958/0a8f72c4-0c73-4d58-be6f-5e4613b87409.jpg""]","",""
"","5164","similarity","72","537503","0.0-6.0-66.0","2","[""img/0884/d8ffab77-40df-44ba-bf27-70815b052250.jpg"",""img/0881/f8bd891e-aa09-4782-89db-33e7cb2b0cf1.jpg""]","",""
"","8506","similarity","73","547009","0.0-6.0-67.0","2","[""img/0864/0116ca98-293d-4fa6-a93b-5a6144ef64cc.jpg"",""img/0873/6110910a-7895-4b6a-af51-12486a4595a3.jpg""]","",""
"","5660","similarity","74","553672","0.0-6.0-68.0","2","[""img/0862/fad1d7c1-8187-43c3-942a-0fc12183e48e.jpg"",""img/0758/2fa3e613-e676-4e6e-bd12-705327eeb3e1.jpg""]","",""
"","6450","similarity","75","561129","0.0-6.0-69.0","6","[""img/0757/94c7f207-1115-4451-b22b-1f74b3661208.jpg"",""img/0757/efa4466e-2951-4af9-b321-85458a89c2a7.jpg""]","",""
"","7876","similarity","76","570022","0.0-6.0-70.0","5","[""img/0860/71e1aad0-2cdf-43bb-94a4-a8c016997c30.jpg"",""img/0862/f43ceabf-acc1-4107-b857-5d1849808f93.jpg""]","",""
"","5387","similarity","77","576415","0.0-6.0-71.0","5","[""img/0860/f44ba3fb-03a2-42f0-8509-2c1ded493086.jpg"",""img/0884/05d9bfb9-44a6-4ab4-92fa-d17e5b2b4f33.jpg""]","",""
"","5936","similarity","78","583354","0.0-6.0-72.0","2","[""img/0883/eff15ce5-9393-443c-829f-71242d1c56d0.jpg"",""img/0866/be24ab58-230e-4db8-9f45-ff04c9aec6bb.jpg""]","",""
"","5366","similarity","79","589727","0.0-6.0-73.0","7","[""img/0866/d266fece-59b3-46fa-b69f-96f6efb81b59.jpg"",""img/0886/42cccc64-05f9-4afd-bc93-496ba50a4342.jpg""]","",""
"","6973","similarity","80","597707","0.0-6.0-74.0","3","[""img/0958/ebea41e3-9d65-4f5e-981a-92daaaad0d57.jpg"",""img/0761/89d3b943-cd14-4786-a7b8-0e9a695cf0e3.jpg""]","",""
"","6507","similarity","81","605217","0.0-6.0-75.0","2","[""img/0875/cff79b3a-a797-4393-9757-6275f999ec04.jpg"",""img/0756/4fcf5ea1-c2e0-44b9-b07f-26cbf07e1801.jpg""]","",""
"","8284","similarity","82","614503","0.0-6.0-76.0","3","[""img/0958/d4138705-0a9d-4141-9af9-205e69367c44.jpg"",""img/0885/0cdcdaca-f91e-4d4a-a6f6-dc90ab676435.jpg""]","",""
"","6934","similarity","83","622445","0.0-6.0-77.0","3","[""img/0868/4a8a45ed-2c4f-421b-9564-409a33ecd26c.jpg"",""img/0883/77f31752-1984-44f7-a77d-e22c2ad54256.jpg""]","",""
"","5528","similarity","84","628978","0.0-6.0-78.0","5","[""img/0862/eefa5588-9efd-4591-aa5f-a2e17c7d7bcc.jpg"",""img/0760/317fc071-99e6-43cb-9099-2e50aa79ccc2.jpg""]","",""
"","4157","similarity","85","634138","0.0-6.0-79.0","1","[""img/0885/4fd0aafb-6cc0-43d6-993a-c55a6e18a7ba.jpg"",""img/0761/6b42b402-9e0f-4179-9e10-660b2c07626b.jpg""]","",""
"","6580","similarity","86","641721","0.0-6.0-80.0","2","[""img/0862/cdaed51d-9e2f-4807-801a-4663c40077e2.jpg"",""img/0864/b3c4e378-28f0-4699-9338-2a257b4bca04.jpg""]","",""
"","8358","similarity","87","651082","0.0-6.0-81.0","5","[""img/0758/d41c06bf-ebaf-454b-91c6-1a17f917b659.jpg"",""img/0758/a085b443-b5d7-4cb2-9ad4-b9dab0fc23f1.jpg""]","",""
"","5471","similarity","88","657562","0.0-6.0-82.0","2","[""img/0862/ee3b7bff-4a70-4e84-9bea-4a565e456acb.jpg"",""img/0873/b76d7003-814d-42b0-9a16-1399c4b0e706.jpg""]","",""
"","5623","similarity","89","673550","0.0-6.0-83.0","3","[""img/0760/7f35fc6a-c21f-4f42-81c5-92ced38d82f8.jpg"",""img/0757/a7964b0f-aee3-4b4c-9cd1-c1c998c49fef.jpg""]","",""
"","5995","similarity","90","680553","0.0-6.0-84.0","2","[""img/0867/db7e032f-162b-46f5-ae67-2b29679adee4.jpg"",""img/0881/5fe04dd0-5c74-47b7-99c8-b068db9ca26a.jpg""]","",""
"","5555","similarity","91","687112","0.0-6.0-85.0","3","[""img/0885/eb5e4557-1792-49c3-8871-16afa58f3a28.jpg"",""img/0886/e5903946-897c-4420-87c0-afee4100305c.jpg""]","",""
"","7293","similarity","92","695407","0.0-6.0-86.0","2","[""img/0866/8efcaa46-83ab-4dee-a35f-850402aa21ae.jpg"",""img/0864/1d15626a-2f7c-410f-819c-0fa2c967e95e.jpg""]","",""
"","6725","similarity","93","703138","0.0-6.0-87.0","6","[""img/0874/85eb9b8a-c4c6-4e5a-b8e7-363a87a82054.jpg"",""img/0881/405484ae-0d00-4b05-bc57-6420a36adfac.jpg""]","",""
"","5618","similarity","94","709758","0.0-6.0-88.0","3","[""img/0866/93a27239-8317-4e08-98ca-d8b1ff298e07.jpg"",""img/0760/afe7a178-4458-4bdd-a0ad-0cffc57eadc3.jpg""]","",""
"","6269","similarity","95","717032","0.0-6.0-89.0","2","[""img/0867/50a1b60e-3a29-44bf-b606-d4bd3746fea9.jpg"",""img/0884/967c63af-8f6a-483f-9122-0c79d97fd22e.jpg""]","",""
"","5973","similarity","96","724012","0.0-6.0-90.0","2","[""img/0757/c05f53f3-811c-4a3b-b848-a27b80b8fd53.jpg"",""img/0862/24cdc752-c2e5-4a17-86a6-6f2045d8553b.jpg""]","",""
"","4240","similarity","97","729262","0.0-6.0-91.0","1","[""img/0867/cc72ed48-7704-422c-86d6-467a1145287a.jpg"",""img/0761/07f8178b-8ce5-42d6-bca0-a0ae0e0e8eb3.jpg""]","",""
"","5181","similarity","98","735443","0.0-6.0-92.0","2","[""img/0868/179a5502-ab5c-478e-8263-5a1fbcc101d2.jpg"",""img/0958/54f27d86-00c0-46b2-b2c9-050c9cc60fe0.jpg""]","",""
"","4673","similarity","99","741118","0.0-6.0-93.0","6","[""img/0874/93d1f8dc-acf2-4f03-bd8d-8ec35df276ed.jpg"",""img/0864/ea327690-500b-4137-bf91-451b309fe6a5.jpg""]","",""
"","4846","similarity","100","746964","0.0-6.0-94.0","2","[""img/0760/32bea725-69a2-4c9a-94d9-af05883fbb86.jpg"",""img/0873/33552b07-bdb8-423e-88b4-25a37f159c6d.jpg""]","",""
"","6227","similarity","101","754198","0.0-6.0-95.0","5","[""img/0868/0d3abd3a-b6c3-4584-a9f7-e2da63748b3d.jpg"",""img/0873/ac86dbfd-0442-4dec-9d10-37d7093f5a52.jpg""]","",""
"","5826","similarity","102","761031","0.0-6.0-96.0","1","[""img/0860/c5ccd1a4-4bb7-48e1-9b25-72cfaf06909b.jpg"",""img/0761/1725cacb-5f86-4b47-a5c0-3c36cd981588.jpg""]","",""
"","5586","similarity","103","767624","0.0-6.0-97.0","3","[""img/0862/47ed5efd-4ec9-4b74-bb4e-a5f5cf0c3e7d.jpg"",""img/0883/02f50df0-eb8c-4e17-836a-c89ddb1c04e1.jpg""]","",""
"","6255","similarity","104","774883","0.0-6.0-98.0","3","[""img/0757/10030bb1-70b8-4889-a8a5-ab50e145704d.jpg"",""img/0884/a8f7b854-0010-4c7a-a8fb-b1b1dc1f1ba1.jpg""]","",""
"","5393","similarity","105","781280","0.0-6.0-99.0","3","[""img/0867/f8159067-056c-41f1-a136-c529fe5e970a.jpg"",""img/0756/c211414a-203e-4a7f-9412-5abddea2af11.jpg""]","",""
"","5610","similarity","106","787896","0.0-6.0-100.0","1","[""img/0958/9be61b1d-099b-432a-ae0e-2aa69e157c0e.jpg"",""img/0756/76516e04-06c4-4108-9130-fa84d688f55a.jpg""]","",""
"","5870","similarity","107","794773","0.0-6.0-101.0","6","[""img/0760/fc99ba9e-e7fa-443b-9ba0-2b3c76930893.jpg"",""img/0760/d96a9342-5d16-403a-9f95-e062f795d968.jpg""]","",""
"","4926","similarity","108","800702","0.0-6.0-102.0","2","[""img/0873/ec150e40-b3ec-4dfe-ab38-bb3f248a1175.jpg"",""img/0875/2c361b79-c3d1-4eda-812e-bf03192407bf.jpg""]","",""
"","7046","similarity","109","808755","0.0-6.0-103.0","6","[""img/0884/a6389ab4-3291-4434-9b91-eeae3b04fce4.jpg"",""img/0884/ee845634-cd54-4c06-95a9-962122ef8712.jpg""]","",""
"","4693","similarity","110","814452","0.0-6.0-104.0","2","[""img/0873/b1e2e09f-ad9a-433e-818f-56dd2f1cb09c.jpg"",""img/0885/f4ed5442-1f5c-4a69-abe6-8336ed11ec77.jpg""]","",""
"","5773","similarity","111","821231","0.0-6.0-105.0","3","[""img/0883/c6db9b70-f16c-47ee-a408-c9278365ae54.jpg"",""img/0875/fb732ab5-013a-4366-9f65-27811ed157e9.jpg""]","",""
"","6344","similarity","112","828575","0.0-6.0-106.0","2","[""img/0864/66091c27-e588-4476-8af9-265dc6be4156.jpg"",""img/0867/1719a35d-f085-48c0-9099-16c94fe418b4.jpg""]","",""
"","7753","similarity","113","837329","0.0-6.0-107.0","2","[""img/0958/d3775867-a8f6-42ba-86ff-f86e85edba90.jpg"",""img/0860/fd4662f9-4c03-4d79-8593-06735e55a64b.jpg""]","",""
"","7387","similarity","114","845721","0.0-6.0-108.0","2","[""img/0885/5225e532-2812-41d9-8ef0-0fbfc612784e.jpg"",""img/0756/de72dcee-8bbb-43d1-a744-9c074b9122ee.jpg""]","",""
"","5686","similarity","115","852410","0.0-6.0-109.0","1","[""img/0883/cc2bb2c6-18f1-414f-98cc-6cd683173ce4.jpg"",""img/0885/517a9189-9623-4ed7-a37e-48788791e028.jpg""]","",""
"","5422","similarity","116","858833","0.0-6.0-110.0","5","[""img/0867/f26f6b60-f772-4f4c-95a4-addc62cfd692.jpg"",""img/0867/98d8cd96-1476-4fe0-a3a3-04f875500a1b.jpg""]","",""
"","6276","similarity","117","866126","0.0-6.0-111.0","3","[""img/0881/b1a136f7-8511-4d3a-a0f6-3879acf1e1a1.jpg"",""img/0760/319c5462-51de-4d3b-a135-d6c44f59c0e1.jpg""]","",""
"","4792","similarity","118","871925","0.0-6.0-112.0","1","[""img/0881/33d65d80-8a8e-4ecf-852d-0ad7725c17a2.jpg"",""img/0868/c8ac40c7-6904-4e13-8d61-c75d3052dc4e.jpg""]","",""
"","6258","similarity","119","879191","0.0-6.0-113.0","2","[""img/0875/2e13d160-eea1-416b-aff1-d37ab99ecc1d.jpg"",""img/0761/bd083642-a9bc-4877-bfc6-63bd03d33e81.jpg""]","",""
"","5856","similarity","120","886056","0.0-6.0-114.0","2","[""img/0756/6d2df7ce-35aa-4a5d-ab53-974d2c02034e.jpg"",""img/0866/02f5e6b9-52b7-448c-9708-5b460d0c9a23.jpg""]","",""
"","5776","similarity","121","892841","0.0-6.0-115.0","5","[""img/0884/7f9cc898-36bc-49ec-8b1a-01065d9c0062.jpg"",""img/0886/d1e40478-2fe0-404f-8409-920da98a96a2.jpg""]","",""
"","5939","similarity","122","899797","0.0-6.0-116.0","5","[""img/0756/85a63773-50ff-441d-b259-1e335100a9d0.jpg"",""img/0881/7e822106-76f7-4b10-a805-14dc68b2cfaf.jpg""]","",""
"","7101","similarity","123","907900","0.0-6.0-117.0","2","[""img/0760/39d75e1e-0645-4f23-a2ca-3bbefac19d69.jpg"",""img/0875/90da8d75-108a-44ad-b999-e21fee3860d3.jpg""]","",""
"","7209","similarity","124","916113","0.0-6.0-118.0","1","[""img/0958/58b7811e-d3f6-4e4d-befb-86e063d13a43.jpg"",""img/0866/d493a2c8-66eb-44b4-be02-2f327b700b7c.jpg""]","",""
"","5726","similarity","125","922846","0.0-6.0-119.0","2","[""img/0867/2e1a0b58-cdb1-4107-a14e-452530d7b9b0.jpg"",""img/0874/3ce41e7c-40c8-4d58-a546-171114521796.jpg""]","",""
"","6118","similarity","126","929971","0.0-6.0-120.0","6","[""img/0883/122548fc-b3cc-445b-b7c0-04794df6d11d.jpg"",""img/0757/4f8ae92b-a4ab-4020-b4fb-80c5615e76ac.jpg""]","",""
"","5824","similarity","127","936814","0.0-6.0-121.0","2","[""img/0874/8cdb1c07-1c32-46d2-981c-3636560fa6e5.jpg"",""img/0886/789f5d23-84b8-499a-ae1e-20c6309a06ae.jpg""]","",""
"","4775","similarity","128","942590","0.0-6.0-122.0","1","[""img/0873/a234d5d1-09ea-4594-9a0f-d569da31dbdb.jpg"",""img/0761/af21c992-a721-45fb-bee7-f50c0f676c30.jpg""]","",""
"","5495","similarity","129","949093","0.0-6.0-123.0","2","[""img/0875/dbdd643e-6d0e-4a5c-ab57-b9c29b9c981a.jpg"",""img/0884/0b4cf8d4-4c8f-4312-a794-f99e01679176.jpg""]","",""
"","4740","similarity","130","954836","0.0-6.0-124.0","1","[""img/0757/4faaa503-45d9-43fa-bddb-707274a341ff.jpg"",""img/0868/77091fc7-a590-4ebb-b915-fdb2483a2399.jpg""]","",""
"","6280","similarity","131","969749","0.0-6.0-125.0","3","[""img/0886/9b0bffbe-9237-404d-a0ba-a1982e0814c7.jpg"",""img/0883/00d89148-b7d4-49d2-831a-2eee070a85a4.jpg""]","",""
"","5072","similarity","132","975829","0.0-6.0-126.0","1","[""img/0868/8b0b8473-e2c0-4331-aa56-c3a5c29369da.jpg"",""img/0760/4f024637-f98a-409a-baa0-fc4989d80667.jpg""]","",""
"","5107","similarity","133","981942","0.0-6.0-127.0","6","[""img/0881/44e09805-5a25-4f17-a716-4ad4a331b174.jpg"",""img/0881/f6bd3b96-dc40-4e99-8681-bc3a35cf896d.jpg""]","",""
"","4903","similarity","134","987845","0.0-6.0-128.0","5","[""img/0760/868ae139-99b5-4ff2-9d19-c4933af135e4.jpg"",""img/0860/4f695df5-afac-4da7-9875-fee39b0b24ad.jpg""]","",""
"","5760","similarity","135","994615","0.0-6.0-129.0","3","[""img/0864/efcfbb1b-8197-44c9-b723-40d6c608dd3c.jpg"",""img/0885/a4e5c564-1e5f-4fed-9f73-b8d1becf62b6.jpg""]","",""
"","4546","similarity","136","1000168","0.0-6.0-130.0","1","[""img/0864/e02eddb5-f468-499c-91bf-f7be3ffe979b.jpg"",""img/0757/69d850ce-9828-4b13-9e68-6a2c196ecbcc.jpg""]","",""
"","5716","similarity","137","1006884","0.0-6.0-131.0","2","[""img/0760/135d76ab-2bf3-4dc9-8509-92983dc9893d.jpg"",""img/0883/ff85a2f1-14b1-4b7e-9c87-887151d97e01.jpg""]","",""
"","6020","similarity","138","1013910","0.0-6.0-132.0","6","[""img/0885/fbbfaacd-e49b-4d37-a2f9-fcaffa58f26f.jpg"",""img/0885/6873c613-5e40-42ff-a5b6-443b6b626ae2.jpg""]","",""
"","6786","similarity","139","1021703","0.0-6.0-133.0","2","[""img/0860/b03b963d-949b-4d8d-b19c-4950c89eeca2.jpg"",""img/0868/3a62db2d-97e9-44a3-b8e3-a48c6f0e423b.jpg""]","",""
"","5936","similarity","140","1028647","0.0-6.0-134.0","1","[""img/0867/179ab87a-8eac-4c52-a41f-2e48e3120f09.jpg"",""img/0886/7164ac42-460f-4beb-9d5e-a1cfded3099c.jpg""]","",""
"","5570","similarity","141","1035230","0.0-6.0-135.0","3","[""img/0756/792f9475-979d-4787-b7dc-8a0d02f6e25f.jpg"",""img/0886/1e8c0f89-c766-41c9-b522-83c342048f34.jpg""]","",""
"","8032","similarity","142","1044269","0.0-6.0-136.0","1","[""img/0884/a416b0d1-f903-4935-b89f-99c29683752b.jpg"",""img/0868/fd307a36-9a3a-47d7-ab7c-f810d0b35040.jpg""]","",""
"","8258","similarity","143","1053532","0.0-6.0-137.0","7","[""img/0958/acbadc39-e665-446d-b98f-ccd0ef3223d6.jpg"",""img/0958/4e2ca4bc-52c7-4c27-9610-776441231e42.jpg""]","",""
"","6617","similarity","144","1061159","0.0-6.0-138.0","4","[""img/0886/0f9715c1-b2e4-418e-bf9b-126cc9e70dc6.jpg"",""img/0873/90b702a6-3dba-446a-9bba-a2ee096baf49.jpg""]","",""
"","5675","similarity","145","1067835","0.0-6.0-139.0","2","[""img/0758/e38fd80d-18d0-42f3-b848-f930788e8bd7.jpg"",""img/0873/d39b1731-1669-4c96-b5c6-682b30e287ee.jpg""]","",""
"","5439","similarity","146","1074281","0.0-6.0-140.0","2","[""img/0873/226317e0-f0e7-42ea-907b-058cb1ad519a.jpg"",""img/0756/fd9b5e61-3674-448f-867a-29769dc8f07d.jpg""]","",""
"","4785","similarity","147","1080066","0.0-6.0-141.0","2","[""img/0868/4bd5105a-d2c3-4f82-8c80-57196106ba53.jpg"",""img/0862/fb26cb07-d5a9-4653-813c-f41609f26cd5.jpg""]","",""
"","6427","similarity","148","1087501","0.0-6.0-142.0","2","[""img/0881/54ea8e77-c7e5-4197-b7fa-00b7020849a7.jpg"",""img/0862/92fcd8a4-8193-4a6a-ae09-dd4a6338b0df.jpg""]","",""
"","6804","similarity","149","1095311","0.0-6.0-143.0","2","[""img/0885/89d8c48b-8bde-42ed-ae71-de669b15ea34.jpg"",""img/0867/075e0f95-856b-4cbb-acf5-092393aaf04e.jpg""]","",""
"","6130","similarity","150","1102444","0.0-6.0-144.0","6","[""img/0883/3b1366c6-7baa-4ad2-889c-1ff9c3b379c9.jpg"",""img/0883/0e1ed5c7-0881-4bfd-b12f-6a53500e74f0.jpg""]","",""
"","5964","similarity","151","1109408","0.0-6.0-145.0","5","[""img/0874/3f471690-9788-4d03-90c7-f615aecef149.jpg"",""img/0873/c4b47588-9c66-4401-aefc-cf9481d5fa85.jpg""]","",""
"","5427","similarity","152","1115840","0.0-6.0-146.0","1","[""img/0757/1aca59fd-6030-4bb0-93c7-32a90f3237cf.jpg"",""img/0758/d540bee6-b460-4c32-ac57-bc282742d7d4.jpg""]","",""
"","4977","similarity","153","1121823","0.0-6.0-147.0","2","[""img/0883/724f020e-39d9-495c-abe1-b2e4504be9bc.jpg"",""img/0756/aa551726-e765-4729-82aa-99d700d388ae.jpg""]","",""
"","5454","similarity","154","1128283","0.0-6.0-148.0","6","[""img/0867/a498eef3-9fa4-4ab2-9778-4ae82ac40dc5.jpg"",""img/0866/9b38d691-1802-4959-ab3f-fc902f0e4ea6.jpg""]","",""
"","9516","similarity","155","1138805","0.0-6.0-149.0","2","[""img/0758/7ffbc76b-1fc1-432c-8f7e-9ec8d1b3f643.jpg"",""img/0760/5f9bd780-65e3-43ab-a3a3-73a1cc87d5a2.jpg""]","",""
"","6313","similarity","156","1146125","0.0-6.0-150.0","2","[""img/0757/1fd9dcb9-e489-4708-b518-f356d3f5481d.jpg"",""img/0761/8e379ec1-757d-4427-a0ff-d4efdd6a50c4.jpg""]","",""
"","6517","similarity","157","1153645","0.0-6.0-151.0","5","[""img/0761/176fde97-0334-4d2b-8a7a-38960c2528f3.jpg"",""img/0874/767f289c-9814-4496-803f-745cc8913d1f.jpg""]","",""
"","5727","similarity","158","1160382","0.0-6.0-152.0","3","[""img/0761/3599fa54-18f9-488e-b402-e851c43586ff.jpg"",""img/0760/111aecf1-147c-4227-90e0-9ed3a75e4e16.jpg""]","",""
"","10153","similarity","159","1171541","0.0-6.0-153.0","6","[""img/0866/a04d37f0-99dd-478a-b6c6-58b215138f84.jpg"",""img/0866/07c9c966-3c8d-40e7-8128-92b2acbaed5d.jpg""]","",""
"","5620","similarity","160","1178174","0.0-6.0-154.0","2","[""img/0866/945c6710-d15b-4a5b-a8f6-69af0850357f.jpg"",""img/0862/e697469a-ec19-4414-b972-7b9f3564785b.jpg""]","",""
"","5535","similarity","161","1184717","0.0-6.0-155.0","3","[""img/0756/ca2a8f93-ed77-45c8-a3a3-22324aa28501.jpg"",""img/0862/e0f1a4e9-e1b6-45f7-af67-89f334e6630d.jpg""]","",""
"","5268","similarity","162","1190988","0.0-6.0-156.0","2","[""img/0860/5bff793e-cbd5-4d7e-b628-0ac2b0e30b64.jpg"",""img/0866/bf14b5bd-fb55-47db-86b9-4f8aeb9a6dad.jpg""]","",""
"","6253","similarity","163","1198246","0.0-6.0-157.0","5","[""img/0862/99a99e39-8355-44ec-b993-e7bcec111e1c.jpg"",""img/0958/96f89270-febc-4f09-b8c3-53a249ff00ea.jpg""]","",""
"","9284","similarity","164","1208539","0.0-6.0-158.0","1","[""img/0761/a69897c1-1310-4bae-9a51-8b29cd9543dd.jpg"",""img/0868/7b212364-ff5f-4e28-9241-7eb6ea00161b.jpg""]","",""
"","5576","similarity","165","1215119","0.0-6.0-159.0","2","[""img/0761/edc0b069-71dc-4b11-b7f0-8429ea8ac5c9.jpg"",""img/0886/b8648eb5-de71-41ab-825d-848e51be8c1b.jpg""]","",""
"","3793","similarity","166","1219919","0.0-6.0-160.0","1","[""img/0874/eba003b4-cdab-4eee-8bc3-f064c7d94165.jpg"",""img/0868/4e626425-63c8-484a-8a1d-e66ee4e0bef8.jpg""]","",""
"","6497","similarity","167","1227423","0.0-6.0-161.0","4","[""img/0860/8fdba999-b946-4c7d-9891-336018b563ef.jpg"",""img/0874/2c9464dd-8a23-4baa-ac94-1ba3af5c15cc.jpg""]","",""
"","5603","similarity","168","1234038","0.0-6.0-162.0","2","[""img/0883/6dcd54c3-64a3-4ed5-9149-d8b9aa1938c8.jpg"",""img/0867/8ba0c5a7-c7e4-42cf-a80a-543763b90779.jpg""]","",""
"","4902","similarity","169","1239948","0.0-6.0-163.0","1","[""img/0758/7fba58df-2a7a-4b76-8a8f-62739f97f271.jpg"",""img/0958/b11515b3-5f04-4c3e-be00-56a05c6c3e96.jpg""]","",""
"","6420","similarity","170","1247381","0.0-6.0-164.0","3","[""img/0873/7dddc95f-ca6e-4d15-99a0-0e329ec6888e.jpg"",""img/0757/a91bb71b-8c84-4999-8da7-f30e53ddc2a7.jpg""]","",""
"","6077","similarity","171","1254461","0.0-6.0-165.0","2","[""img/0873/b02f9cce-7f58-4f1b-baed-50fee9f0a21f.jpg"",""img/0866/0207e9a2-7dbb-40b5-9459-b472aaeceb2a.jpg""]","",""
"","6126","similarity","172","1261594","0.0-6.0-166.0","6","[""img/0875/e7e66b13-b573-431e-b85e-288ce04a35a3.jpg"",""img/0867/85a96c62-548f-4994-9553-819e03c3135a.jpg""]","",""
"","5393","similarity","173","1280890","0.0-6.0-167.0","6","[""img/0862/ad593cc7-cabe-4bb7-8e14-8a447a0717b4.jpg"",""img/0862/f188d4f0-76a4-4102-818c-a209969d73a5.jpg""]","",""
"","4120","similarity","174","1286010","0.0-6.0-168.0","2","[""img/0875/5a716432-c6ca-4b1c-955a-2b8ac25198ee.jpg"",""img/0886/9f186bd5-d48b-4cc2-9206-be67c392faa9.jpg""]","",""
"","5643","similarity","175","1292669","0.0-6.0-169.0","4","[""img/0885/21b241a1-95da-4306-9cf2-cc52a784214a.jpg"",""img/0875/d59ff733-eaff-4ee2-9443-06954dd0bcb6.jpg""]","",""
"","8611","similarity","176","1302288","0.0-6.0-170.0","3","[""img/0862/ba89835a-408c-480b-8594-ed4ffa97eb5c.jpg"",""img/0867/aa05d113-fc19-4756-a8eb-7878f580bc92.jpg""]","",""
"","8323","similarity","177","1311611","0.0-6.0-171.0","2","[""img/0884/10c0a35b-e20a-4d75-a7c0-959a578d9ebf.jpg"",""img/0873/b509aa81-b1d7-4d50-8aef-9c7b725c3157.jpg""]","",""
"","7173","similarity","178","1319797","0.0-6.0-172.0","3","[""img/0873/c91c05f8-fafd-4054-bcf1-f5ed1f0a18e8.jpg"",""img/0958/eea2b7ca-1c37-4e76-ada7-a8b1f3afdc01.jpg""]","",""
"","7178","similarity","179","1327977","0.0-6.0-173.0","3","[""img/0868/1a62b2b2-18f5-466e-b564-5176a57c565e.jpg"",""img/0758/d57c2592-a317-4f63-91be-91a3a9afd222.jpg""]","",""
"","5017","similarity","180","1333997","0.0-6.0-174.0","3","[""img/0757/0668efad-1c92-425c-9aa9-2bbe833fd777.jpg"",""img/0874/995f0332-0439-4eb4-add3-957335dbf6d9.jpg""]","",""
"","4970","similarity","181","1339973","0.0-6.0-175.0","2","[""img/0958/ef1b718f-ef8c-497f-80d7-42562aebf1a7.jpg"",""img/0867/c71dc569-f49c-4397-8381-68b8d726736d.jpg""]","",""
"","7265","similarity","182","1348246","0.0-6.0-176.0","3","[""img/0874/31e22c7c-99aa-40b1-bf03-dd73fa2df4d6.jpg"",""img/0760/c7d43bfd-465f-4f4e-8dc1-ae4cd3d2c1de.jpg""]","",""
"","8079","similarity","183","1357332","0.0-6.0-177.0","5","[""img/0873/0c7f3d86-efda-4809-aac4-256ba01e0536.jpg"",""img/0860/d9a0d117-6d1d-41c0-8fec-9aff0fd9e9f2.jpg""]","",""
"","16020","similarity","184","1374366","0.0-6.0-178.0","4","[""img/0881/f7a8cc63-8842-40a4-9ff8-fe530310d62c.jpg"",""img/0883/46d6b8ad-7f31-441e-92d2-0cc16d3d99ce.jpg""]","",""
"","6047","similarity","185","1381431","0.0-6.0-179.0","3","[""img/0886/4d28f75a-a9c3-49dd-8aa8-00304af6e40b.jpg"",""img/0958/edfd5bc1-8c8f-489a-84c3-908436ef76cc.jpg""]","",""
"","5031","similarity","186","1387462","0.0-6.0-180.0","7","[""img/0864/e336a4c5-6648-4fd7-b2f6-93a3fb83f8c6.jpg"",""img/0883/e3603ed7-8fca-475a-aeb1-d1f7651c4618.jpg""]","",""
"","4501","similarity","187","1392970","0.0-6.0-181.0","3","[""img/0756/bb3f0571-641e-4d5b-b528-672892c37030.jpg"",""img/0868/15dd6fd7-791e-4b53-b203-195d617521a4.jpg""]","",""
"","7489","similarity","188","1401478","0.0-6.0-182.0","6","[""img/0884/2348ce3f-5d2a-4a04-85ef-a65f05caa935.jpg"",""img/0758/a709631e-3705-4725-ac40-f0d916924f08.jpg""]","",""
"","5045","similarity","189","1407525","0.0-6.0-183.0","2","[""img/0875/8521fd58-3b1e-4dc5-97ae-804edfa6734a.jpg"",""img/0874/c0378dac-9370-439a-8b79-db27c96fb390.jpg""]","",""
"","6826","similarity","190","1415351","0.0-6.0-184.0","5","[""img/0867/5e07b34d-b40f-4b1c-ac10-49975bace45f.jpg"",""img/0868/09a9ef4d-d000-4cfa-a6aa-ebec7c2edeb4.jpg""]","",""
"","5088","similarity","191","1421441","0.0-6.0-185.0","1","[""img/0881/566f45f8-5fed-4479-a60f-26377e60a62d.jpg"",""img/0885/1e66fe61-15d5-42b1-86aa-dbfd13613f5c.jpg""]","",""
"","6170","similarity","192","1428614","0.0-6.0-186.0","3","[""img/0864/5f33e097-23e3-4002-882d-76e8cb15f451.jpg"",""img/0761/71d2e184-21b4-4711-97f3-e381c641da2c.jpg""]","",""
"","5923","similarity","193","1435540","0.0-6.0-187.0","3","[""img/0885/62bd11a8-7059-4cc2-b06d-4700688b313f.jpg"",""img/0874/1016b306-087c-4afc-aa08-fa527b28dc76.jpg""]","",""
"","5341","similarity","194","1441885","0.0-6.0-188.0","2","[""img/0758/b76ceca7-95ac-46e4-ac13-da02c8e93be9.jpg"",""img/0867/c66898ba-b71b-4d50-84f9-f7f84853a98d.jpg""]","",""
"","19346","similarity","195","1462233","0.0-6.0-189.0","3","[""img/0756/a8246880-fb51-43bb-b25d-905e6e0d7880.jpg"",""img/0884/592da15b-09e4-46b5-81e7-bab08a1c33e9.jpg""]","",""
"","6403","similarity","196","1469646","0.0-6.0-190.0","2","[""img/0761/5ed865c0-8bfb-4310-9b47-690b3e450ca2.jpg"",""img/0862/064818ee-13d5-4618-bb24-21c7368ea278.jpg""]","",""
"","5032","similarity","197","1475685","0.0-6.0-191.0","2","[""img/0860/8277806e-b684-4474-8f7b-3fca946d7d4f.jpg"",""img/0886/9ac18ff1-d3d9-4bfe-aa2e-ed5b28399f6c.jpg""]","",""
"","5719","similarity","198","1482412","0.0-6.0-192.0","2","[""img/0760/36c930c0-2660-41c1-a356-77dafb18ae83.jpg"",""img/0885/c840cf2c-c95d-4a08-b3c2-044d1ea946a7.jpg""]","",""
"","6066","similarity","199","1489481","0.0-6.0-193.0","1","[""img/0886/aef00ed5-e288-47bf-b31e-512d7e762ea2.jpg"",""img/0868/83b4350a-3b70-4cea-b7f5-b5b56f3050a8.jpg""]","",""
"","5663","similarity","200","1496144","0.0-6.0-194.0","5","[""img/0881/20af39f5-373d-4a55-a437-2dc4c0382c46.jpg"",""img/0864/1ebbc554-99fa-49f9-8799-317375a79820.jpg""]","",""
"","5480","similarity","201","1502628","0.0-6.0-195.0","2","[""img/0866/a15b02be-11bb-43e3-b0e0-ecc3bd7dfc49.jpg"",""img/0868/e0aff734-077f-40dd-9781-74821abd3621.jpg""]","",""
"","5513","similarity","202","1509144","0.0-6.0-196.0","2","[""img/0864/49150900-7f25-4ce8-8d10-9b47a71d1997.jpg"",""img/0958/e9e2cc42-eb3b-4c91-8112-a517305c15f0.jpg""]","",""
"","7782","similarity","203","1517931","0.0-6.0-197.0","2","[""img/0757/424b465f-ba69-4277-bc61-d3e95d136f80.jpg"",""img/0886/bd45b474-5559-4ea5-83ff-140bce19f5fa.jpg""]","",""
"","6440","similarity","204","1525390","0.0-6.0-198.0","2","[""img/0758/335851a0-a55b-46d8-ab05-8463eda48349.jpg"",""img/0883/cc3df660-426e-452e-ac50-3a3b09dc4b65.jpg""]","",""
"","5449","similarity","205","1531840","0.0-6.0-199.0","2","[""img/0881/7e31e5dc-2240-4b1b-b5a0-3acd980099ef.jpg"",""img/0958/df7705da-e817-409f-8a93-05abef4b26c3.jpg""]","",""
"","5614","similarity","206","1538460","0.0-6.0-200.0","2","[""img/0958/ba5ed153-96de-4f61-b7d9-87a478c8972c.jpg"",""img/0874/99f6563c-8a8d-4c1c-a41d-667b618c3fd5.jpg""]","",""
"","5060","similarity","207","1544523","0.0-6.0-201.0","1","[""img/0885/8960bf05-34df-4a86-a9b2-6087c70e61d3.jpg"",""img/0860/29a21a9f-54bb-4093-ad3f-04823ceaa89f.jpg""]","",""
"","6476","similarity","208","1552006","0.0-6.0-202.0","6","[""img/0875/99698b4d-b4a1-44bc-8c83-8ea755bbbf61.jpg"",""img/0881/667e2147-d457-4f32-aa5f-6ab86e5848f1.jpg""]","",""
"","6171","similarity","209","1559183","0.0-6.0-203.0","2","[""img/0758/20497cbe-ddae-489e-86e2-ab06985ed07c.jpg"",""img/0860/c47fdead-eb02-4989-b078-26f4852f44fe.jpg""]","",""
"","4517","similarity","210","1564701","0.0-6.0-204.0","6","[""img/0860/61fb959d-d4d9-4de4-9e4e-4fa62b4cfcd5.jpg"",""img/0860/31ff6436-98bf-4652-bed2-40f627229568.jpg""]","",""
"","5686","similarity","211","1571387","0.0-6.0-205.0","6","[""img/0874/adf9a8f1-c40b-402b-b95b-1e85a54a7b62.jpg"",""img/0874/ca23d307-fc00-4d7d-9106-584c6eb21b4d.jpg""]","",""
"","6170","similarity","212","1578574","0.0-6.0-206.0","7","[""img/0883/d719aab0-0280-4c06-87e5-b9db7454965c.jpg"",""img/0761/014e76d0-fb4e-4b40-901c-7a2d5655c3b0.jpg""]","",""
"","5665","similarity","213","1585247","0.0-6.0-207.0","5","[""img/0761/00a8e7ae-d8da-4cba-8969-1dfb943a2aa2.jpg"",""img/0881/e046471a-35b4-4159-bbf7-3cfd201bef66.jpg""]","",""
"","6607","similarity","214","1592870","0.0-6.0-208.0","2","[""img/0760/237fa1c2-d59d-4475-8d1e-f9a4eb71f989.jpg"",""img/0756/00b775eb-fe41-49b2-92e9-a9955cf1042b.jpg""]","",""
"","5998","similarity","215","1609922","0.0-6.0-209.0","3","[""img/0885/a8cbb477-19ef-45ef-8f48-9667aec40bd1.jpg"",""img/0757/c190d19b-2091-436c-a92b-a48c253ac955.jpg""]","",""
"[{""page_index"":0,""viewing_time"":15147}]","15147","instructions","216","1626073","0.0-7.0","","","",""
"","27495","image-multi-choice","217","1654591","0.0-8.0-0.0","","","{""Q0"":""Common Yellowthroat""}","Orange-crowned Warbler"
"","53143","image-multi-choice","218","1708734","0.0-8.0-1.0","","","{""Q0"":""Yellow-breasted Chat""}","Wilson's Warbler"
"","58889","image-multi-choice","219","1768628","0.0-8.0-2.0","","","{""Q0"":""Ovenbird""}","Blackpoll Warbler"
"","11596","image-multi-choice","220","1781226","0.0-8.0-3.0","","","{""Q0"":""Black-and-white Warbler""}","Black-and-white Warbler"
"","33718","image-multi-choice","221","1815958","0.0-8.0-4.0","","","{""Q0"":""Tennessee Warbler""}","Yellow-breasted Chat"
"","37467","image-multi-choice","222","1854429","0.0-8.0-5.0","","","{""Q0"":""Magnolia Warbler""}","Canada Warbler"
"","42705","image-multi-choice","223","1898137","0.0-8.0-6.0","","","{""Q0"":""Nashville Warbler""}","Common Yellowthroat"
"","22326","image-multi-choice","224","1921467","0.0-8.0-7.0","","","{""Q0"":""Blackburnian Warbler""}","American Redstart"
"","10780","image-multi-choice","225","1933254","0.0-8.0-8.0","","","{""Q0"":""Ovenbird""}","Chestnut-sided Warbler"
"","13579","image-multi-choice","226","1947836","0.0-8.0-9.0","","","{""Q0"":""Black-throated Green Warbler""}","Black-throated Green Warbler"
"","34365","image-multi-choice","227","1983205","0.0-8.0-10.0","","","{""Q0"":""Chestnut-sided Warbler""}","Blackburnian Warbler"
"","33645","image-multi-choice","228","2017867","0.0-8.0-11.0","","","{""Q0"":""Northern Waterthrush""}","Yellow-rumped Warbler"
"","10470","image-multi-choice","229","2029350","0.0-8.0-12.0","","","{""Q0"":""Yellow-rumped Warbler""}","Ovenbird"
"","19312","image-multi-choice","230","2049665","0.0-8.0-13.0","","","{""Q0"":""Wilson's Warbler""}","Townsend's Warbler"
"","20091","image-multi-choice","231","2070759","0.0-8.0-14.0","","","{""Q0"":""Blackpoll Warbler""}","Northern Waterthrush"
"","17061","image-multi-choice","232","2088830","0.0-8.0-15.0","","","{""Q0"":""Yellow-breasted Chat""}","Yellow Warbler"
"","11170","image-multi-choice","233","2101003","0.0-8.0-16.0","","","{""Q0"":""Blackburnian Warbler""}","Nashville Warbler"
"","21543","image-multi-choice","234","2123559","0.0-8.0-17.0","","","{""Q0"":""Orange-crowned Warbler""}","Northern Parula"
"","8389","image-multi-choice","235","2132949","0.0-8.0-18.0","","","{""Q0"":""Yellow-breasted Chat""}","Tennessee Warbler"
"","12862","image-multi-choice","236","2146818","0.0-8.0-19.0","","","{""Q0"":""Blackpoll Warbler""}","Magnolia Warbler"
