"view_history","rt","trial_type","trial_index","time_elapsed","internal_node_id","sim_score","stimulus","responses","answer"
"[{""page_index"":0,""viewing_time"":6063}]","6065","instructions","0","6066","0.0-0.0","","","",""
"","16085","similarity_demo","1","23172","0.0-1.0","6","[""img/bluejay1.jpg"",""img/bluejay2.jpg""]","",""
"[{""page_index"":0,""viewing_time"":18034}]","18035","instructions","2","42211","0.0-2.0","","","",""
"","15277","similarity_demo","3","58502","0.0-3.0","3","[""img/bluejay1.jpg"",""img/cardinal1.jpg""]","",""
"[{""page_index"":0,""viewing_time"":10167}]","10168","instructions","4","69676","0.0-4.0","","","",""
"[{""page_index"":0,""viewing_time"":54993}]","54995","instructions","5","125675","0.0-5.0","","","",""
"","11055","similarity","6","137752","0.0-6.0-0.0","3","[""img/0864/66091c27-e588-4476-8af9-265dc6be4156.jpg"",""img/0860/31ff6436-98bf-4652-bed2-40f627229568.jpg""]","",""
"","15308","similarity","7","154072","0.0-6.0-1.0","3","[""img/0884/967c63af-8f6a-483f-9122-0c79d97fd22e.jpg"",""img/0760/237fa1c2-d59d-4475-8d1e-f9a4eb71f989.jpg""]","",""
"","9350","similarity","8","164436","0.0-6.0-2.0","4","[""img/0886/4d28f75a-a9c3-49dd-8aa8-00304af6e40b.jpg"",""img/0881/d1982897-8d8d-4704-a940-1ee5d07a1f15.jpg""]","",""
"","6913","similarity","9","172363","0.0-6.0-3.0","5","[""img/0866/620cd1aa-0800-4414-8f6e-90342e7a99ad.jpg"",""img/0881/4da99fdd-1f40-4bbb-8e21-8833eef313f5.jpg""]","",""
"","9820","similarity","10","183204","0.0-6.0-4.0","4","[""img/0868/d98ca254-b195-477f-b57e-5760a2717db8.jpg"",""img/0885/d2276b26-e91a-4f19-a818-cbeb297ed884.jpg""]","",""
"","6677","similarity","11","190907","0.0-6.0-5.0","3","[""img/0757/014ee4a8-8069-4b08-ac1c-04230da90244.jpg"",""img/0866/4a87911a-d5be-4d4e-ab8e-3d1f581bf507.jpg""]","",""
"","14626","similarity","12","206553","0.0-6.0-6.0","5","[""img/0868/1a62b2b2-18f5-466e-b564-5176a57c565e.jpg"",""img/0864/e02eddb5-f468-499c-91bf-f7be3ffe979b.jpg""]","",""
"","5578","similarity","13","213150","0.0-6.0-7.0","7","[""img/0864/e8bd659f-aa43-4748-877e-3118e8b4e189.jpg"",""img/0864/49150900-7f25-4ce8-8d10-9b47a71d1997.jpg""]","",""
"","15164","similarity","14","229333","0.0-6.0-8.0","5","[""img/0757/acda7aee-6b29-463f-bf01-0d64d6a6ae2b.jpg"",""img/0881/84397291-bc14-4fbf-90e8-241e486ab0fe.jpg""]","",""
"","7922","similarity","15","238271","0.0-6.0-9.0","4","[""img/0886/d1e40478-2fe0-404f-8409-920da98a96a2.jpg"",""img/0760/d96a9342-5d16-403a-9f95-e062f795d968.jpg""]","",""
"","17876","similarity","16","257168","0.0-6.0-10.0","4","[""img/0884/ffcce05a-b38d-4570-b3dc-751e89b7790a.jpg"",""img/0883/1f394dd2-551c-4c8b-af82-f6a6fbe567bb.jpg""]","",""
"","8380","similarity","17","266570","0.0-6.0-11.0","4","[""img/0874/99f6563c-8a8d-4c1c-a41d-667b618c3fd5.jpg"",""img/0862/1c20f772-3a51-4a80-aac0-f57dc9f86c28.jpg""]","",""
"","10511","similarity","18","278100","0.0-6.0-12.0","3","[""img/0862/ee3b7bff-4a70-4e84-9bea-4a565e456acb.jpg"",""img/0875/5a716432-c6ca-4b1c-955a-2b8ac25198ee.jpg""]","",""
"","5571","similarity","19","284690","0.0-6.0-13.0","5","[""img/0875/527ced51-8e53-4aab-ab05-86df219104c0.jpg"",""img/0757/802a8692-dc9e-4372-8811-ce4351a09d1a.jpg""]","",""
"","5452","similarity","20","291160","0.0-6.0-14.0","5","[""img/0875/5a7c4e35-6514-4e12-8879-d16071da4cd6.jpg"",""img/0860/c47fdead-eb02-4989-b078-26f4852f44fe.jpg""]","",""
"","6684","similarity","21","298861","0.0-6.0-15.0","3","[""img/0860/4f695df5-afac-4da7-9875-fee39b0b24ad.jpg"",""img/0881/445edb15-bd7f-4af3-8bd5-c6ad9677bb31.jpg""]","",""
"","5763","similarity","22","305641","0.0-6.0-16.0","5","[""img/0885/eb5e4557-1792-49c3-8871-16afa58f3a28.jpg"",""img/0884/3c61ea12-a408-47ce-98aa-b14e0f6d4591.jpg""]","",""
"","7927","similarity","23","314585","0.0-6.0-17.0","5","[""img/0761/014e76d0-fb4e-4b40-901c-7a2d5655c3b0.jpg"",""img/0761/aebad236-1f4a-4bc2-a74d-d92b7e226316.jpg""]","",""
"","6955","similarity","24","322558","0.0-6.0-18.0","5","[""img/0760/7f35fc6a-c21f-4f42-81c5-92ced38d82f8.jpg"",""img/0864/3d4de670-b290-4285-9c3d-12a0e3af44e9.jpg""]","",""
"","4232","similarity","25","327812","0.0-6.0-19.0","5","[""img/0864/65210d57-1153-4657-886a-32e758f49b4a.jpg"",""img/0875/90da8d75-108a-44ad-b999-e21fee3860d3.jpg""]","",""
"","5364","similarity","26","334191","0.0-6.0-20.0","5","[""img/0874/7e4f2150-3b59-4a36-b5da-a4e0ba410531.jpg"",""img/0884/0b4cf8d4-4c8f-4312-a794-f99e01679176.jpg""]","",""
"","8222","similarity","27","343425","0.0-6.0-21.0","3","[""img/0885/6873c613-5e40-42ff-a5b6-443b6b626ae2.jpg"",""img/0866/11a1d141-be5e-443c-98c1-a9d4d9e3dec0.jpg""]","",""
"","4766","similarity","28","349201","0.0-6.0-22.0","5","[""img/0868/3a62db2d-97e9-44a3-b8e3-a48c6f0e423b.jpg"",""img/0868/7b212364-ff5f-4e28-9241-7eb6ea00161b.jpg""]","",""
"","5072","similarity","29","355294","0.0-6.0-23.0","5","[""img/0757/2f6a36b2-6543-4003-bcb9-6f2c61db2de8.jpg"",""img/0756/aa551726-e765-4729-82aa-99d700d388ae.jpg""]","",""
"","5005","similarity","30","361315","0.0-6.0-24.0","7","[""img/0875/99698b4d-b4a1-44bc-8c83-8ea755bbbf61.jpg"",""img/0875/8521fd58-3b1e-4dc5-97ae-804edfa6734a.jpg""]","",""
"","4722","similarity","31","367054","0.0-6.0-25.0","3","[""img/0761/d5370a68-6c8a-486f-b2bf-330e2ad6b397.jpg"",""img/0866/6f2a90d7-14f1-4f1b-bd64-fc0af6b9fe44.jpg""]","",""
"","6106","similarity","32","374175","0.0-6.0-26.0","3","[""img/0866/02f5e6b9-52b7-448c-9708-5b460d0c9a23.jpg"",""img/0758/dd559618-7f09-4a07-8018-d311c4a5ea29.jpg""]","",""
"","5824","similarity","33","381015","0.0-6.0-27.0","3","[""img/0758/a709631e-3705-4725-ac40-f0d916924f08.jpg"",""img/0875/2e13d160-eea1-416b-aff1-d37ab99ecc1d.jpg""]","",""
"","6110","similarity","34","388140","0.0-6.0-28.0","5","[""img/0958/54f27d86-00c0-46b2-b2c9-050c9cc60fe0.jpg"",""img/0757/1aca59fd-6030-4bb0-93c7-32a90f3237cf.jpg""]","",""
"","5573","similarity","35","394729","0.0-6.0-29.0","5","[""img/0873/6110910a-7895-4b6a-af51-12486a4595a3.jpg"",""img/0883/e3603ed7-8fca-475a-aeb1-d1f7651c4618.jpg""]","",""
"","5039","similarity","36","400782","0.0-6.0-30.0","5","[""img/0868/83b4350a-3b70-4cea-b7f5-b5b56f3050a8.jpg"",""img/0875/a4935837-7d3c-4df6-88c1-36a94d4991ca.jpg""]","",""
"","5197","similarity","37","406999","0.0-6.0-31.0","3","[""img/0884/7ae02e9d-46a4-4124-bcc2-cad90d7ef9f9.jpg"",""img/0862/064818ee-13d5-4618-bb24-21c7368ea278.jpg""]","",""
"","5174","similarity","38","413184","0.0-6.0-32.0","5","[""img/0884/10c0a35b-e20a-4d75-a7c0-959a578d9ebf.jpg"",""img/0864/b3c4e378-28f0-4699-9338-2a257b4bca04.jpg""]","",""
"","5272","similarity","39","419475","0.0-6.0-33.0","5","[""img/0883/cc3df660-426e-452e-ac50-3a3b09dc4b65.jpg"",""img/0958/7168f8d3-e3ae-405a-93d0-64836d899932.jpg""]","",""
"","3223","similarity","40","423714","0.0-6.0-34.0","5","[""img/0864/c22faebd-9c53-47bc-ada3-b9a30c688e75.jpg"",""img/0756/2d59e6c9-df29-4c76-a030-db83f23c8b9b.jpg""]","",""
"","5557","similarity","41","430287","0.0-6.0-35.0","5","[""img/0874/85eb9b8a-c4c6-4e5a-b8e7-363a87a82054.jpg"",""img/0758/335851a0-a55b-46d8-ab05-8463eda48349.jpg""]","",""
"","6163","similarity","42","437461","0.0-6.0-36.0","3","[""img/0886/789f5d23-84b8-499a-ae1e-20c6309a06ae.jpg"",""img/0862/47ed5efd-4ec9-4b74-bb4e-a5f5cf0c3e7d.jpg""]","",""
"","5620","similarity","43","444094","0.0-6.0-37.0","3","[""img/0862/92f0146c-20c4-482e-aef5-adb693790338.jpg"",""img/0885/1e66fe61-15d5-42b1-86aa-dbfd13613f5c.jpg""]","",""
"","5372","similarity","44","450483","0.0-6.0-38.0","5","[""img/0758/821c68d3-5cb0-4eae-8659-30e6263fca39.jpg"",""img/0864/0f537697-a314-47c3-a8cc-8df23b7e536c.jpg""]","",""
"","5368","similarity","45","456862","0.0-6.0-39.0","5","[""img/0873/b76d7003-814d-42b0-9a16-1399c4b0e706.jpg"",""img/0867/7d1c497b-c1b3-4ed8-abb5-d7f73306015f.jpg""]","",""
"","6457","similarity","46","464334","0.0-6.0-40.0","6","[""img/0958/d4138705-0a9d-4141-9af9-205e69367c44.jpg"",""img/0884/a6389ab4-3291-4434-9b91-eeae3b04fce4.jpg""]","",""
"","5646","similarity","47","479456","0.0-6.0-41.0","6","[""img/0873/7dddc95f-ca6e-4d15-99a0-0e329ec6888e.jpg"",""img/0873/1d1be182-3bb2-4efd-8543-d70b8db7beef.jpg""]","",""
"","5599","similarity","48","486070","0.0-6.0-42.0","3","[""img/0886/48077111-b86b-4612-910f-90a5d168d77f.jpg"",""img/0758/67c0be2f-9e91-48b3-8219-70ac0a1802fa.jpg""]","",""
"","6035","similarity","49","493116","0.0-6.0-43.0","3","[""img/0883/eff15ce5-9393-443c-829f-71242d1c56d0.jpg"",""img/0874/3ce41e7c-40c8-4d58-a546-171114521796.jpg""]","",""
"","3812","similarity","50","497942","0.0-6.0-44.0","3","[""img/0881/ed4c971f-0873-4fc8-b6d6-e8bbd82f0bcc.jpg"",""img/0873/d74e4aa9-420d-48a3-a42f-30a3481536ae.jpg""]","",""
"","4756","similarity","51","503710","0.0-6.0-45.0","2","[""img/0867/db7e032f-162b-46f5-ae67-2b29679adee4.jpg"",""img/0757/4faaa503-45d9-43fa-bddb-707274a341ff.jpg""]","",""
"","5839","similarity","52","510562","0.0-6.0-46.0","3","[""img/0866/d266fece-59b3-46fa-b69f-96f6efb81b59.jpg"",""img/0874/995f0332-0439-4eb4-add3-957335dbf6d9.jpg""]","",""
"","5510","similarity","53","517084","0.0-6.0-47.0","7","[""img/0886/9b0bffbe-9237-404d-a0ba-a1982e0814c7.jpg"",""img/0886/97243e18-4dba-4af8-b49f-b3b635c90ac4.jpg""]","",""
"","4989","similarity","54","523088","0.0-6.0-48.0","5","[""img/0883/3b1366c6-7baa-4ad2-889c-1ff9c3b379c9.jpg"",""img/0860/8a92e21b-6a32-4e4a-a445-2d5a487ed0a4.jpg""]","",""
"","5799","similarity","55","529902","0.0-6.0-49.0","2","[""img/0860/4a022222-056d-461c-ab02-39fac9647552.jpg"",""img/0756/4cf0ac20-ce60-40ba-8078-4053ef50451c.jpg""]","",""
"","4211","similarity","56","535121","0.0-6.0-50.0","2","[""img/0860/61fb959d-d4d9-4de4-9e4e-4fa62b4cfcd5.jpg"",""img/0757/a91bb71b-8c84-4999-8da7-f30e53ddc2a7.jpg""]","",""
"","3027","similarity","57","539163","0.0-6.0-51.0","7","[""img/0756/321ae2a8-5dd4-4b23-b1e4-202e0b7c0b02.jpg"",""img/0756/8ab56efe-fef0-45cc-ab57-82597f83b26a.jpg""]","",""
"","5777","similarity","58","545951","0.0-6.0-52.0","4","[""img/0875/f87b67d7-c33e-40d1-b281-248c4be1cb6e.jpg"",""img/0866/23a224f3-2012-4fc8-8e0f-3c36f8de27fd.jpg""]","",""
"","4102","similarity","59","551069","0.0-6.0-53.0","4","[""img/0756/d0f1b906-d8e0-4528-9d08-90cec14838ec.jpg"",""img/0758/20497cbe-ddae-489e-86e2-ab06985ed07c.jpg""]","",""
"","8849","similarity","60","560934","0.0-6.0-54.0","4","[""img/0761/ff3e024b-951d-4aca-a168-c09c6507525d.jpg"",""img/0884/37ee4afa-34a0-4da2-bdb0-fcaff43dcdb6.jpg""]","",""
"","4844","similarity","61","566790","0.0-6.0-55.0","3","[""img/0760/36c930c0-2660-41c1-a356-77dafb18ae83.jpg"",""img/0867/f8159067-056c-41f1-a136-c529fe5e970a.jpg""]","",""
"","5848","similarity","62","573654","0.0-6.0-56.0","4","[""img/0866/945c6710-d15b-4a5b-a8f6-69af0850357f.jpg"",""img/0884/5085d424-b3f5-461b-a1c7-f7ca55abcf4f.jpg""]","",""
"","5411","similarity","63","580082","0.0-6.0-57.0","5","[""img/0756/de72dcee-8bbb-43d1-a744-9c074b9122ee.jpg"",""img/0761/00a8e7ae-d8da-4cba-8969-1dfb943a2aa2.jpg""]","",""
"","4058","similarity","64","585155","0.0-6.0-58.0","2","[""img/0867/c66898ba-b71b-4d50-84f9-f7f84853a98d.jpg"",""img/0860/524b2e98-5767-4d53-942c-ebae6925659b.jpg""]","",""
"","4645","similarity","65","590814","0.0-6.0-59.0","7","[""img/0881/adc02f34-ce97-4aef-850f-00519df06fd7.jpg"",""img/0758/b76ceca7-95ac-46e4-ac13-da02c8e93be9.jpg""]","",""
"","5299","similarity","66","597132","0.0-6.0-60.0","5","[""img/0761/e18d2113-1ed1-4a80-8171-4be5ee28d343.jpg"",""img/0758/6e95579b-5166-487c-b8cb-e417c6a218e3.jpg""]","",""
"","5243","similarity","67","603392","0.0-6.0-61.0","3","[""img/0958/9be61b1d-099b-432a-ae0e-2aa69e157c0e.jpg"",""img/0875/2c361b79-c3d1-4eda-812e-bf03192407bf.jpg""]","",""
"","8200","similarity","68","612607","0.0-6.0-62.0","4","[""img/0886/bd45b474-5559-4ea5-83ff-140bce19f5fa.jpg"",""img/0864/5f74a653-3bdc-4308-8cca-ac667dc22e1f.jpg""]","",""
"","4800","similarity","69","618421","0.0-6.0-63.0","5","[""img/0756/10fa3aa2-6100-492a-826e-febb6513cf13.jpg"",""img/0874/767f289c-9814-4496-803f-745cc8913d1f.jpg""]","",""
"","5724","similarity","70","625160","0.0-6.0-64.0","5","[""img/0758/65d426d6-3ff6-415d-8654-a43b83ecc4fe.jpg"",""img/0885/21b241a1-95da-4306-9cf2-cc52a784214a.jpg""]","",""
"","5712","similarity","71","631885","0.0-6.0-65.0","5","[""img/0760/83b0723f-4929-4ee7-ad35-fae98da3e152.jpg"",""img/0958/edfd5bc1-8c8f-489a-84c3-908436ef76cc.jpg""]","",""
"","5350","similarity","72","638252","0.0-6.0-66.0","5","[""img/0884/a416b0d1-f903-4935-b89f-99c29683752b.jpg"",""img/0881/48ed65a5-471f-41af-86ec-3793805c116d.jpg""]","",""
"","4891","similarity","73","644166","0.0-6.0-67.0","3","[""img/0864/5f33e097-23e3-4002-882d-76e8cb15f451.jpg"",""img/0873/a234d5d1-09ea-4594-9a0f-d569da31dbdb.jpg""]","",""
"","4975","similarity","74","650159","0.0-6.0-68.0","4","[""img/0862/ad593cc7-cabe-4bb7-8e14-8a447a0717b4.jpg"",""img/0758/f61ecdf8-a7d4-4db0-b84d-be46f7cfaffc.jpg""]","",""
"","5435","similarity","75","656610","0.0-6.0-69.0","4","[""img/0757/424b465f-ba69-4277-bc61-d3e95d136f80.jpg"",""img/0757/1fd9dcb9-e489-4708-b518-f356d3f5481d.jpg""]","",""
"","5759","similarity","76","663387","0.0-6.0-70.0","5","[""img/0860/99c589b9-9140-4d17-90c0-b344323edcda.jpg"",""img/0862/e697469a-ec19-4414-b972-7b9f3564785b.jpg""]","",""
"","5589","similarity","77","669992","0.0-6.0-71.0","3","[""img/0860/15b24a61-25be-4356-9eac-5ce95d0cb4a4.jpg"",""img/0884/989ec8e3-5e41-4055-b0b5-3d65b9c44917.jpg""]","",""
"","5433","similarity","78","676442","0.0-6.0-72.0","5","[""img/0883/dc95de8d-9297-41ec-b3ac-3f8b060260e3.jpg"",""img/0866/8efcaa46-83ab-4dee-a35f-850402aa21ae.jpg""]","",""
"","5234","similarity","79","682695","0.0-6.0-73.0","5","[""img/0866/a04d37f0-99dd-478a-b6c6-58b215138f84.jpg"",""img/0886/7164ac42-460f-4beb-9d5e-a1cfded3099c.jpg""]","",""
"","9748","similarity","80","693463","0.0-6.0-74.0","5","[""img/0958/5a91b0e8-8f60-4625-b88c-d6e55b4d7d93.jpg"",""img/0761/e34f97e4-14ac-4bb6-b226-816085d967c2.jpg""]","",""
"","4972","similarity","81","699454","0.0-6.0-75.0","5","[""img/0875/ebf7653f-ff45-4e9f-af58-2c042ab3cd2b.jpg"",""img/0756/5dba4151-3cf5-42f5-8dd9-7c6128318b01.jpg""]","",""
"","6589","similarity","82","707059","0.0-6.0-76.0","4","[""img/0958/d3775867-a8f6-42ba-86ff-f86e85edba90.jpg"",""img/0885/5a47e19f-19b4-4545-bf47-b508cb65da6a.jpg""]","",""
"","6324","similarity","83","714397","0.0-6.0-77.0","5","[""img/0868/8b0b8473-e2c0-4331-aa56-c3a5c29369da.jpg"",""img/0883/49aada36-b662-416c-93ae-9eab6598bfae.jpg""]","",""
"","4017","similarity","84","719431","0.0-6.0-78.0","3","[""img/0862/fb26cb07-d5a9-4653-813c-f41609f26cd5.jpg"",""img/0760/868961d8-3272-4d3c-9c8b-9d183315cabc.jpg""]","",""
"","5039","similarity","85","725489","0.0-6.0-79.0","3","[""img/0885/0cdcdaca-f91e-4d4a-a6f6-dc90ab676435.jpg"",""img/0761/b1819a20-de99-463b-9840-60a4b8faa30d.jpg""]","",""
"","5521","similarity","86","732024","0.0-6.0-80.0","6","[""img/0862/7918ca67-5bd3-4606-a5ea-c39fb11a9297.jpg"",""img/0864/8ddd2e30-a1d0-479f-9cbe-591213023893.jpg""]","",""
"","3817","similarity","87","736857","0.0-6.0-81.0","7","[""img/0758/61d64021-9214-4951-bdf8-f871f9827cf9.jpg"",""img/0758/e1ba5e53-addc-436a-b428-d34fc1b130dc.jpg""]","",""
"","10721","similarity","88","748603","0.0-6.0-82.0","4","[""img/0862/ba89835a-408c-480b-8594-ed4ffa97eb5c.jpg"",""img/0873/ac86dbfd-0442-4dec-9d10-37d7093f5a52.jpg""]","",""
"","3325","similarity","89","757667","0.0-6.0-83.0","3","[""img/0760/e697857f-b21d-4c49-8cde-1b803b437311.jpg"",""img/0757/cb7ca802-27ac-4a1d-996f-bd21b96d6244.jpg""]","",""
"","7262","similarity","90","765943","0.0-6.0-84.0","4","[""img/0867/26611f4e-d694-4460-b7e2-43c62753ddc3.jpg"",""img/0881/c24f3051-eefa-42de-aba6-fccb56d93c70.jpg""]","",""
"","7777","similarity","91","774737","0.0-6.0-85.0","3","[""img/0885/fce9f22a-f769-477c-acee-a5ad8214f0a5.jpg"",""img/0886/c6c81122-f4bf-46f4-968b-167f8ed0cab3.jpg""]","",""
"","4408","similarity","92","780158","0.0-6.0-86.0","4","[""img/0866/0207e9a2-7dbb-40b5-9459-b472aaeceb2a.jpg"",""img/0864/afcba0a3-7e27-4757-b254-e9f05fad27e2.jpg""]","",""
"","4183","similarity","93","785359","0.0-6.0-87.0","5","[""img/0874/29830da7-be5f-44e5-b141-652a0ccf7269.jpg"",""img/0881/292e9b4b-fca0-4ba8-87f1-4048f9e37b7d.jpg""]","",""
"","6030","similarity","94","792405","0.0-6.0-88.0","5","[""img/0866/d493a2c8-66eb-44b4-be02-2f327b700b7c.jpg"",""img/0760/135d76ab-2bf3-4dc9-8509-92983dc9893d.jpg""]","",""
"","5813","similarity","95","799235","0.0-6.0-89.0","3","[""img/0867/50a1b60e-3a29-44bf-b606-d4bd3746fea9.jpg"",""img/0884/13db1f36-8c9f-4b28-8426-04eaa9fba737.jpg""]","",""
"","3893","similarity","96","804144","0.0-6.0-90.0","2","[""img/0757/20c59f64-1fc2-448d-8423-42cbd8fe0164.jpg"",""img/0862/847e5208-38ec-4f36-949c-296cdd7424ee.jpg""]","",""
"","6822","similarity","97","811982","0.0-6.0-91.0","5","[""img/0867/cc72ed48-7704-422c-86d6-467a1145287a.jpg"",""img/0761/47960f80-42b7-4397-a852-ec55d716c652.jpg""]","",""
"","9846","similarity","98","822842","0.0-6.0-92.0","3","[""img/0868/4bd5105a-d2c3-4f82-8c80-57196106ba53.jpg"",""img/0958/ba5ed153-96de-4f61-b7d9-87a478c8972c.jpg""]","",""
"","5828","similarity","99","829680","0.0-6.0-93.0","6","[""img/0874/c0378dac-9370-439a-8b79-db27c96fb390.jpg"",""img/0864/6e846d43-94a6-4b37-a268-65eda979f052.jpg""]","",""
"","4602","similarity","100","835297","0.0-6.0-94.0","4","[""img/0760/1c96ffb7-17db-4253-b66c-59250977c88b.jpg"",""img/0873/b1e2e09f-ad9a-433e-818f-56dd2f1cb09c.jpg""]","",""
"","5780","similarity","101","842102","0.0-6.0-95.0","5","[""img/0868/4a8a45ed-2c4f-421b-9564-409a33ecd26c.jpg"",""img/0873/c2a7452d-a271-4207-81ce-bda281dc0297.jpg""]","",""
"","4971","similarity","102","848104","0.0-6.0-96.0","3","[""img/0860/9593362c-9fe5-4d12-9735-6000a11f6aa5.jpg"",""img/0761/89d3b943-cd14-4786-a7b8-0e9a695cf0e3.jpg""]","",""
"","4919","similarity","103","854040","0.0-6.0-97.0","4","[""img/0862/f188d4f0-76a4-4102-818c-a209969d73a5.jpg"",""img/0883/387a9e30-7d95-483e-af34-c8262f62385f.jpg""]","",""
"","6489","similarity","104","861543","0.0-6.0-98.0","2","[""img/0757/443a1d16-5d59-4e77-a670-d6190157c319.jpg"",""img/0884/fb8b0101-bfd2-462b-a942-d3202a69dd18.jpg""]","",""
"","4436","similarity","105","866994","0.0-6.0-99.0","3","[""img/0867/85a96c62-548f-4994-9553-819e03c3135a.jpg"",""img/0756/fd9b5e61-3674-448f-867a-29769dc8f07d.jpg""]","",""
"","5874","similarity","106","873877","0.0-6.0-100.0","5","[""img/0958/df7705da-e817-409f-8a93-05abef4b26c3.jpg"",""img/0756/a553ae3f-5140-4271-9000-b496fe2d4622.jpg""]","",""
"","3952","similarity","107","878838","0.0-6.0-101.0","7","[""img/0760/5f9bd780-65e3-43ab-a3a3-73a1cc87d5a2.jpg"",""img/0760/57510c7a-e5a9-420e-9b3f-f7423746f67c.jpg""]","",""
"","6290","similarity","108","886142","0.0-6.0-102.0","5","[""img/0873/226317e0-f0e7-42ea-907b-058cb1ad519a.jpg"",""img/0875/3ecb367d-e9eb-4826-8aaa-7aa72fb98019.jpg""]","",""
"","6603","similarity","109","893758","0.0-6.0-103.0","6","[""img/0884/9b1b7885-1502-448f-9b20-ddc19aa5456f.jpg"",""img/0884/3613aeb4-0028-4205-aea0-1ea28cb1f80e.jpg""]","",""
"","5709","similarity","110","900480","0.0-6.0-104.0","5","[""img/0873/841d6549-01d2-4ebd-8d67-25d219876178.jpg"",""img/0885/62bd11a8-7059-4cc2-b06d-4700688b313f.jpg""]","",""
"","5360","similarity","111","906855","0.0-6.0-105.0","5","[""img/0883/122548fc-b3cc-445b-b7c0-04794df6d11d.jpg"",""img/0875/5a1e5100-0d94-4fec-bbe9-ca9894d2cf8e.jpg""]","",""
"","4918","similarity","112","912784","0.0-6.0-106.0","5","[""img/0864/0116ca98-293d-4fa6-a93b-5a6144ef64cc.jpg"",""img/0867/bf560d4f-dee3-4f11-a385-705cc1aa5f3c.jpg""]","",""
"","3823","similarity","113","917619","0.0-6.0-107.0","2","[""img/0958/bb684a39-afef-4125-9f70-b5ad830ba316.jpg"",""img/0860/5bff793e-cbd5-4d7e-b628-0ac2b0e30b64.jpg""]","",""
"","4019","similarity","114","922650","0.0-6.0-108.0","5","[""img/0885/89d8c48b-8bde-42ed-ae71-de669b15ea34.jpg"",""img/0756/653c7580-fa90-45bb-828a-eb9d05a6b1c7.jpg""]","",""
"","5623","similarity","115","929291","0.0-6.0-109.0","5","[""img/0883/b5e903b5-bc7f-421c-bf3e-245779ac90c9.jpg"",""img/0885/a4e5c564-1e5f-4fed-9f73-b8d1becf62b6.jpg""]","",""
"","5601","similarity","116","935904","0.0-6.0-110.0","7","[""img/0867/de92135f-5b65-4ed9-b245-188292c7c2f8.jpg"",""img/0867/179ab87a-8eac-4c52-a41f-2e48e3120f09.jpg""]","",""
"","5149","similarity","117","942068","0.0-6.0-111.0","5","[""img/0881/dea58fad-b4f1-41d9-bd3f-916eff19a3fd.jpg"",""img/0760/317fc071-99e6-43cb-9099-2e50aa79ccc2.jpg""]","",""
"","5739","similarity","118","948822","0.0-6.0-112.0","5","[""img/0881/db77fe00-aeb0-4d1d-aa66-f3a96fd077e4.jpg"",""img/0868/179a5502-ab5c-478e-8263-5a1fbcc101d2.jpg""]","",""
"","4350","similarity","119","954186","0.0-6.0-113.0","5","[""img/0875/cff79b3a-a797-4393-9757-6275f999ec04.jpg"",""img/0761/71d2e184-21b4-4711-97f3-e381c641da2c.jpg""]","",""
"","5385","similarity","120","960587","0.0-6.0-114.0","3","[""img/0756/85a63773-50ff-441d-b259-1e335100a9d0.jpg"",""img/0866/be24ab58-230e-4db8-9f45-ff04c9aec6bb.jpg""]","",""
"","5647","similarity","121","967247","0.0-6.0-115.0","7","[""img/0884/592da15b-09e4-46b5-81e7-bab08a1c33e9.jpg"",""img/0886/aef00ed5-e288-47bf-b31e-512d7e762ea2.jpg""]","",""
"","3755","similarity","122","972021","0.0-6.0-116.0","5","[""img/0756/c7199ce2-2203-43c6-90d7-78f77277b522.jpg"",""img/0881/7e822106-76f7-4b10-a805-14dc68b2cfaf.jpg""]","",""
"","5783","similarity","123","978818","0.0-6.0-117.0","5","[""img/0760/9daf8012-19c4-498f-8f51-81ec001a83be.jpg"",""img/0875/34132396-d896-4c2d-8087-646dd867e769.jpg""]","",""
"","4070","similarity","124","983904","0.0-6.0-118.0","3","[""img/0958/fd950403-e452-4018-8207-a9714addcd75.jpg"",""img/0866/f756f7d1-9ad8-4a34-9ef6-7a443d705bfe.jpg""]","",""
"","4063","similarity","125","988978","0.0-6.0-119.0","4","[""img/0867/a749dddb-69f0-44a6-acdc-2bf295cf6dcc.jpg"",""img/0874/8cdb1c07-1c32-46d2-981c-3636560fa6e5.jpg""]","",""
"","4125","similarity","126","994117","0.0-6.0-120.0","5","[""img/0883/cc2bb2c6-18f1-414f-98cc-6cd683173ce4.jpg"",""img/0757/efa4466e-2951-4af9-b321-85458a89c2a7.jpg""]","",""
"","6024","similarity","127","1001153","0.0-6.0-121.0","3","[""img/0874/1016b306-087c-4afc-aa08-fa527b28dc76.jpg"",""img/0886/625c7dfa-3fa1-4166-80f0-229eb416b04f.jpg""]","",""
"","4326","similarity","128","1006493","0.0-6.0-122.0","5","[""img/0873/c91c05f8-fafd-4054-bcf1-f5ed1f0a18e8.jpg"",""img/0761/8e379ec1-757d-4427-a0ff-d4efdd6a50c4.jpg""]","",""
"","7665","similarity","129","1015176","0.0-6.0-123.0","3","[""img/0875/03c3c331-738b-4446-af92-3d7386b08c2e.jpg"",""img/0884/a8f7b854-0010-4c7a-a8fb-b1b1dc1f1ba1.jpg""]","",""
"","6187","similarity","130","1022374","0.0-6.0-124.0","4","[""img/0757/10030bb1-70b8-4889-a8a5-ab50e145704d.jpg"",""img/0868/fd307a36-9a3a-47d7-ab7c-f810d0b35040.jpg""]","",""
"","3899","similarity","131","1033052","0.0-6.0-125.0","3","[""img/0886/0f9715c1-b2e4-418e-bf9b-126cc9e70dc6.jpg"",""img/0883/903939ef-a67c-40d3-841d-52555815cd88.jpg""]","",""
"","5986","similarity","132","1040055","0.0-6.0-126.0","5","[""img/0868/293079b8-7e0c-4afd-a390-1e5d35fe3ded.jpg"",""img/0760/0864f159-c076-4573-83e1-ea134f239717.jpg""]","",""
"","3880","similarity","133","1044954","0.0-6.0-127.0","7","[""img/0881/7e31e5dc-2240-4b1b-b5a0-3acd980099ef.jpg"",""img/0881/19e82c47-8e4b-45d2-a6c8-74181eb4155e.jpg""]","",""
"","6047","similarity","134","1052015","0.0-6.0-128.0","4","[""img/0760/7cdb34e4-0556-4bf7-9a6f-05990a92e0f3.jpg"",""img/0860/94ef7afc-e0e6-4a15-98c6-0bfac82bc832.jpg""]","",""
"","4002","similarity","135","1057031","0.0-6.0-129.0","5","[""img/0864/4bd81bc6-c13d-46df-95a9-485886dc7c1b.jpg"",""img/0885/fbbfaacd-e49b-4d37-a2f9-fcaffa58f26f.jpg""]","",""
"","8494","similarity","136","1066534","0.0-6.0-130.0","4","[""img/0864/87c467d3-abca-482f-ad80-3766c21b1bb3.jpg"",""img/0757/8993d166-c8ae-43f6-b269-9e8bd3379d57.jpg""]","",""
"","5206","similarity","137","1072751","0.0-6.0-131.0","5","[""img/0760/1912c0dc-64a7-4c32-8d67-baf5e8752270.jpg"",""img/0883/0e1ed5c7-0881-4bfd-b12f-6a53500e74f0.jpg""]","",""
"","5996","similarity","138","1079758","0.0-6.0-132.0","7","[""img/0885/ef0386f3-e5d4-481b-8894-60b80e08bbe8.jpg"",""img/0885/4fd0aafb-6cc0-43d6-993a-c55a6e18a7ba.jpg""]","",""
"","4309","similarity","139","1085078","0.0-6.0-133.0","3","[""img/0860/f44ba3fb-03a2-42f0-8509-2c1ded493086.jpg"",""img/0868/c8ac40c7-6904-4e13-8d61-c75d3052dc4e.jpg""]","",""
"","8336","similarity","140","1094429","0.0-6.0-134.0","4","[""img/0867/1719a35d-f085-48c0-9099-16c94fe418b4.jpg"",""img/0886/9ac18ff1-d3d9-4bfe-aa2e-ed5b28399f6c.jpg""]","",""
"","12369","similarity","141","1107807","0.0-6.0-135.0","5","[""img/0756/b6e235f7-211b-4a2b-a7b8-393e5ec7351b.jpg"",""img/0886/1870a791-dfee-471e-8417-197d4a53c75a.jpg""]","",""
"","6149","similarity","142","1114969","0.0-6.0-136.0","5","[""img/0884/e275ab3e-0948-43c3-8be7-a75271922185.jpg"",""img/0868/15dd6fd7-791e-4b53-b203-195d617521a4.jpg""]","",""
"","5336","similarity","143","1121319","0.0-6.0-137.0","7","[""img/0958/0a8f72c4-0c73-4d58-be6f-5e4613b87409.jpg"",""img/0958/822de3b9-e5fd-4b74-aeb1-7c40805b0717.jpg""]","",""
"","12703","similarity","144","1135036","0.0-6.0-138.0","5","[""img/0886/451550d7-6ff9-42b5-938c-9e20ee960bf6.jpg"",""img/0873/c3ff3b70-fb22-42f2-883c-3ecffd77cb4b.jpg""]","",""
"","5122","similarity","145","1141172","0.0-6.0-139.0","4","[""img/0758/d41c06bf-ebaf-454b-91c6-1a17f917b659.jpg"",""img/0873/c4b47588-9c66-4401-aefc-cf9481d5fa85.jpg""]","",""
"","10568","similarity","146","1152753","0.0-6.0-140.0","5","[""img/0873/0d9b4403-7f26-46dc-b0b7-2b97b0a91b46.jpg"",""img/0756/04655068-a9fc-49d9-b2f4-21e4d42b7903.jpg""]","",""
"","4776","similarity","147","1158539","0.0-6.0-141.0","3","[""img/0868/4e626425-63c8-484a-8a1d-e66ee4e0bef8.jpg"",""img/0862/e8cc3bdf-cc43-4565-bccf-492626c70953.jpg""]","",""
"","8665","similarity","148","1168218","0.0-6.0-142.0","5","[""img/0881/f6bd3b96-dc40-4e99-8681-bc3a35cf896d.jpg"",""img/0862/cdaed51d-9e2f-4807-801a-4663c40077e2.jpg""]","",""
"","6574","similarity","149","1175800","0.0-6.0-143.0","5","[""img/0885/8960bf05-34df-4a86-a9b2-6087c70e61d3.jpg"",""img/0867/8ba0c5a7-c7e4-42cf-a80a-543763b90779.jpg""]","",""
"","4368","similarity","150","1181182","0.0-6.0-144.0","7","[""img/0883/daaa1a6f-c322-46f6-b6a6-db2c9496d710.jpg"",""img/0883/02f50df0-eb8c-4e17-836a-c89ddb1c04e1.jpg""]","",""
"","8198","similarity","151","1190394","0.0-6.0-145.0","5","[""img/0874/ca76a855-4e77-4f2f-872a-0a718153e7ed.jpg"",""img/0873/ec150e40-b3ec-4dfe-ab38-bb3f248a1175.jpg""]","",""
"","5285","similarity","152","1196693","0.0-6.0-146.0","5","[""img/0757/76206a63-e02d-4beb-a85a-ed1b5527bc36.jpg"",""img/0758/2fa3e613-e676-4e6e-bd12-705327eeb3e1.jpg""]","",""
"","7340","similarity","153","1205044","0.0-6.0-147.0","5","[""img/0883/68a56098-91b8-4c40-8827-7808704aa1bc.jpg"",""img/0756/b7869208-7169-455d-835f-31926317dd95.jpg""]","",""
"","3780","similarity","154","1209837","0.0-6.0-148.0","7","[""img/0867/ac1797e4-8afc-48fe-b252-86d1defb1cca.jpg"",""img/0866/9b38d691-1802-4959-ab3f-fc902f0e4ea6.jpg""]","",""
"","6587","similarity","155","1217432","0.0-6.0-149.0","5","[""img/0758/eabcd7a8-56ad-4fd2-bc24-90f6b7b33265.jpg"",""img/0760/868ae139-99b5-4ff2-9d19-c4933af135e4.jpg""]","",""
"","4433","similarity","156","1222874","0.0-6.0-150.0","5","[""img/0757/0668efad-1c92-425c-9aa9-2bbe833fd777.jpg"",""img/0761/53a65b48-8b0c-4a1d-9ebb-a27a259c5bc6.jpg""]","",""
"","6013","similarity","157","1229900","0.0-6.0-151.0","5","[""img/0761/6f9c1c71-e38d-4e3f-9062-39557812432a.jpg"",""img/0874/93d1f8dc-acf2-4f03-bd8d-8ec35df276ed.jpg""]","",""
"","5493","similarity","158","1236402","0.0-6.0-152.0","5","[""img/0761/07f8178b-8ce5-42d6-bca0-a0ae0e0e8eb3.jpg"",""img/0760/39d75e1e-0645-4f23-a2ca-3bbefac19d69.jpg""]","",""
"","5187","similarity","159","1242600","0.0-6.0-153.0","3","[""img/0866/93a27239-8317-4e08-98ca-d8b1ff298e07.jpg"",""img/0866/a15b02be-11bb-43e3-b0e0-ecc3bd7dfc49.jpg""]","",""
"","4054","similarity","160","1247667","0.0-6.0-154.0","3","[""img/0866/07c9c966-3c8d-40e7-8128-92b2acbaed5d.jpg"",""img/0862/eefa5588-9efd-4591-aa5f-a2e17c7d7bcc.jpg""]","",""
"","4011","similarity","161","1252687","0.0-6.0-155.0","2","[""img/0756/792f9475-979d-4787-b7dc-8a0d02f6e25f.jpg"",""img/0862/fad1d7c1-8187-43c3-942a-0fc12183e48e.jpg""]","",""
"","5644","similarity","162","1259338","0.0-6.0-156.0","5","[""img/0860/d9a0d117-6d1d-41c0-8fec-9aff0fd9e9f2.jpg"",""img/0866/bf14b5bd-fb55-47db-86b9-4f8aeb9a6dad.jpg""]","",""
"","6365","similarity","163","1266715","0.0-6.0-157.0","6","[""img/0862/de9ad88c-b522-430a-8ee9-eb06a9f85df5.jpg"",""img/0958/eea2b7ca-1c37-4e76-ada7-a8b1f3afdc01.jpg""]","",""
"","6696","similarity","164","1274425","0.0-6.0-158.0","3","[""img/0761/edc0b069-71dc-4b11-b7f0-8429ea8ac5c9.jpg"",""img/0868/5fa7f9d0-f0e5-454c-8224-74d964818f56.jpg""]","",""
"","6756","similarity","165","1282194","0.0-6.0-159.0","3","[""img/0761/176fde97-0334-4d2b-8a7a-38960c2528f3.jpg"",""img/0886/1e8c0f89-c766-41c9-b522-83c342048f34.jpg""]","",""
"","5706","similarity","166","1288914","0.0-6.0-160.0","3","[""img/0874/2c9464dd-8a23-4baa-ac94-1ba3af5c15cc.jpg"",""img/0868/09a9ef4d-d000-4cfa-a6aa-ebec7c2edeb4.jpg""]","",""
"","5816","similarity","167","1295747","0.0-6.0-161.0","3","[""img/0860/c3379ff7-0763-48fe-a1ec-7ea3d611bc7a.jpg"",""img/0874/ca23d307-fc00-4d7d-9106-584c6eb21b4d.jpg""]","",""
"","6470","similarity","168","1303226","0.0-6.0-162.0","5","[""img/0883/142a783e-a468-4b7f-a750-1e107613d5a9.jpg"",""img/0867/6e19c858-b606-45b2-a4c6-910a73f1d82c.jpg""]","",""
"","5578","similarity","169","1309818","0.0-6.0-163.0","7","[""img/0758/d57c2592-a317-4f63-91be-91a3a9afd222.jpg"",""img/0958/ebea41e3-9d65-4f5e-981a-92daaaad0d57.jpg""]","",""
"","6397","similarity","170","1317228","0.0-6.0-164.0","4","[""img/0873/90b702a6-3dba-446a-9bba-a2ee096baf49.jpg"",""img/0757/b46cab21-50e3-4f19-803d-682627bcd6a6.jpg""]","",""
"","7399","similarity","171","1325644","0.0-6.0-165.0","6","[""img/0873/b509aa81-b1d7-4d50-8aef-9c7b725c3157.jpg"",""img/0866/c446214b-a368-4c65-ae39-ea46894256ab.jpg""]","",""
"","7968","similarity","172","1334629","0.0-6.0-166.0","5","[""img/0875/42910c99-5463-450a-a0f8-d4d060a11455.jpg"",""img/0867/12264664-1860-46df-8c21-162b9817cdda.jpg""]","",""
"","4208","similarity","173","1343419","0.0-6.0-167.0","7","[""img/0862/a0a3a7ba-7798-46a3-b4ca-05e1f6e581d0.jpg"",""img/0862/24cdc752-c2e5-4a17-86a6-6f2045d8553b.jpg""]","",""
"","5469","similarity","174","1349905","0.0-6.0-168.0","2","[""img/0875/e7e66b13-b573-431e-b85e-288ce04a35a3.jpg"",""img/0886/9f186bd5-d48b-4cc2-9206-be67c392faa9.jpg""]","",""
"","4604","similarity","175","1355523","0.0-6.0-169.0","4","[""img/0885/8cdf3204-e0f1-482b-9546-5edca3d81376.jpg"",""img/0875/dbdd643e-6d0e-4a5c-ab57-b9c29b9c981a.jpg""]","",""
"","6042","similarity","176","1362581","0.0-6.0-170.0","3","[""img/0862/00c06b00-3b73-44e9-bc1e-c5aafb438321.jpg"",""img/0867/075e0f95-856b-4cbb-acf5-092393aaf04e.jpg""]","",""
"","5508","similarity","177","1369105","0.0-6.0-171.0","7","[""img/0884/d9185264-7f01-43b2-be7f-eed1a0f0f2e8.jpg"",""img/0873/87f38f18-48a2-4de3-b24b-70630e8b6ca0.jpg""]","",""
"","6432","similarity","178","1376549","0.0-6.0-172.0","6","[""img/0873/b02f9cce-7f58-4f1b-baed-50fee9f0a21f.jpg"",""img/0958/86d1a76d-f067-4e36-9ab5-13da78c97c0e.jpg""]","",""
"","6900","similarity","179","1384465","0.0-6.0-173.0","3","[""img/0868/0d3abd3a-b6c3-4584-a9f7-e2da63748b3d.jpg"",""img/0758/3ddd05d3-557e-4ee7-8b78-9d2d681d8ae2.jpg""]","",""
"","7566","similarity","180","1393048","0.0-6.0-174.0","5","[""img/0757/c190d19b-2091-436c-a92b-a48c253ac955.jpg"",""img/0874/eba003b4-cdab-4eee-8bc3-f064c7d94165.jpg""]","",""
"","6417","similarity","181","1400483","0.0-6.0-175.0","5","[""img/0958/e9e2cc42-eb3b-4c91-8112-a517305c15f0.jpg"",""img/0867/a498eef3-9fa4-4ab2-9778-4ae82ac40dc5.jpg""]","",""
"","5291","similarity","182","1406789","0.0-6.0-176.0","4","[""img/0874/a82926a3-0b43-4add-803c-d5f9ea7798ee.jpg"",""img/0760/4c78b78c-193e-4a1e-8bb2-394add325fda.jpg""]","",""
"","5135","similarity","183","1412937","0.0-6.0-177.0","3","[""img/0873/33552b07-bdb8-423e-88b4-25a37f159c6d.jpg"",""img/0860/fd4662f9-4c03-4d79-8593-06735e55a64b.jpg""]","",""
"","5676","similarity","184","1419629","0.0-6.0-178.0","4","[""img/0881/14236cf2-6b95-48b8-9368-78af09d2d27f.jpg"",""img/0883/46d6b8ad-7f31-441e-92d2-0cc16d3d99ce.jpg""]","",""
"","4138","similarity","185","1424782","0.0-6.0-179.0","4","[""img/0886/b8648eb5-de71-41ab-825d-848e51be8c1b.jpg"",""img/0958/58b7811e-d3f6-4e4d-befb-86e063d13a43.jpg""]","",""
"","6237","similarity","186","1432032","0.0-6.0-180.0","6","[""img/0864/a248adb3-c70b-4652-b7a3-776d2a1e904b.jpg"",""img/0883/fc8cf4c9-003e-48c4-b222-8878ea2ae1c0.jpg""]","",""
"","4850","similarity","187","1437895","0.0-6.0-181.0","5","[""img/0756/c211414a-203e-4a7f-9412-5abddea2af11.jpg"",""img/0868/d6d1f30d-4323-435a-b194-7892521bc57e.jpg""]","",""
"","5444","similarity","188","1444349","0.0-6.0-182.0","4","[""img/0884/7f9cc898-36bc-49ec-8b1a-01065d9c0062.jpg"",""img/0758/d540bee6-b460-4c32-ac57-bc282742d7d4.jpg""]","",""
"","5582","similarity","189","1450946","0.0-6.0-183.0","5","[""img/0875/d59ff733-eaff-4ee2-9443-06954dd0bcb6.jpg"",""img/0874/31e22c7c-99aa-40b1-bf03-dd73fa2df4d6.jpg""]","",""
"","11358","similarity","190","1463320","0.0-6.0-184.0","6","[""img/0867/aa05d113-fc19-4756-a8eb-7878f580bc92.jpg"",""img/0868/6a28c3b0-3d76-498a-9fb7-ddafc665eca8.jpg""]","",""
"","4550","similarity","191","1468887","0.0-6.0-185.0","4","[""img/0881/667e2147-d457-4f32-aa5f-6ab86e5848f1.jpg"",""img/0885/c840cf2c-c95d-4a08-b3c2-044d1ea946a7.jpg""]","",""
"","5116","similarity","192","1475015","0.0-6.0-186.0","4","[""img/0864/1ebbc554-99fa-49f9-8799-317375a79820.jpg"",""img/0761/9199a691-d36e-4ece-a815-078384ea6f06.jpg""]","",""
"","6931","similarity","193","1482963","0.0-6.0-187.0","5","[""img/0885/1cd940ef-9720-4a04-8fa1-1dd3a39ecdd6.jpg"",""img/0874/bf14b896-e930-4fd9-9c05-2e83317a2773.jpg""]","",""
"","4203","similarity","194","1488181","0.0-6.0-188.0","4","[""img/0758/53f35650-e455-4b53-8be4-c3c8271c6466.jpg"",""img/0867/98d8cd96-1476-4fe0-a3a3-04f875500a1b.jpg""]","",""
"","6623","similarity","195","1495816","0.0-6.0-189.0","4","[""img/0756/8d47d83d-7e73-4d35-94ec-d814380febc6.jpg"",""img/0884/d8ffab77-40df-44ba-bf27-70815b052250.jpg""]","",""
"","6434","similarity","196","1503267","0.0-6.0-190.0","3","[""img/0761/3599fa54-18f9-488e-b402-e851c43586ff.jpg"",""img/0862/57b6f83f-c763-4858-830d-102f97bfefbf.jpg""]","",""
"","5255","similarity","197","1509538","0.0-6.0-191.0","3","[""img/0860/87039971-2210-4aab-93c0-8e9b5f1655b2.jpg"",""img/0886/e5903946-897c-4420-87c0-afee4100305c.jpg""]","",""
"","3701","similarity","198","1514255","0.0-6.0-192.0","5","[""img/0760/afe7a178-4458-4bdd-a0ad-0cffc57eadc3.jpg"",""img/0885/5225e532-2812-41d9-8ef0-0fbfc612784e.jpg""]","",""
"","6937","similarity","199","1522206","0.0-6.0-193.0","5","[""img/0886/abd8dd83-d8ee-4003-b4d2-b4045220a578.jpg"",""img/0868/77091fc7-a590-4ebb-b915-fdb2483a2399.jpg""]","",""
"","7200","similarity","200","1530429","0.0-6.0-194.0","3","[""img/0881/e6746727-7f89-47ec-b939-d98abe78372d.jpg"",""img/0864/3651d070-2fc5-4848-b6a6-088a2d9ac5c9.jpg""]","",""
"","6209","similarity","201","1537652","0.0-6.0-195.0","6","[""img/0866/386235d2-6857-41e7-88a8-25cfc3430025.jpg"",""img/0868/e0aff734-077f-40dd-9781-74821abd3621.jpg""]","",""
"","8107","similarity","202","1546772","0.0-6.0-196.0","5","[""img/0864/c3b63e8f-ea39-4d70-a1f2-b3fe4be8eb75.jpg"",""img/0958/1812c506-727b-43a7-882e-4729742e41fc.jpg""]","",""
"","5151","similarity","203","1552937","0.0-6.0-197.0","3","[""img/0757/94c7f207-1115-4451-b22b-1f74b3661208.jpg"",""img/0886/42cccc64-05f9-4afd-bc93-496ba50a4342.jpg""]","",""
"","7297","similarity","204","1561248","0.0-6.0-198.0","5","[""img/0758/7ffbc76b-1fc1-432c-8f7e-9ec8d1b3f643.jpg"",""img/0883/3835edeb-1d59-4781-b10f-c26b9eaf6fd1.jpg""]","",""
"","5876","similarity","205","1568138","0.0-6.0-199.0","5","[""img/0881/5fe04dd0-5c74-47b7-99c8-b068db9ca26a.jpg"",""img/0958/ef1b718f-ef8c-497f-80d7-42562aebf1a7.jpg""]","",""
"","5547","similarity","206","1574697","0.0-6.0-200.0","5","[""img/0958/6e602e13-8029-4642-bce0-8deffd0dc686.jpg"",""img/0874/adf9a8f1-c40b-402b-b95b-1e85a54a7b62.jpg""]","",""
"","5116","similarity","207","1580827","0.0-6.0-201.0","5","[""img/0885/517a9189-9623-4ed7-a37e-48788791e028.jpg"",""img/0860/e8b8c51e-1834-4875-8b61-6c5bc9b178bd.jpg""]","",""
"","6766","similarity","208","1588607","0.0-6.0-202.0","5","[""img/0875/fb732ab5-013a-4366-9f65-27811ed157e9.jpg"",""img/0881/344de456-b358-4887-bd0e-e4c3278af887.jpg""]","",""
"","5467","similarity","209","1595087","0.0-6.0-203.0","4","[""img/0758/7ee8bc8f-c40b-4b3a-84ec-3e83580622d4.jpg"",""img/0860/5383b320-1518-4095-a58e-5cc1ae30b64c.jpg""]","",""
"","5231","similarity","210","1601333","0.0-6.0-204.0","7","[""img/0860/c5ccd1a4-4bb7-48e1-9b25-72cfaf06909b.jpg"",""img/0860/e14d67c1-6d92-4f1e-9257-c8607159c19c.jpg""]","",""
"","3504","similarity","211","1605848","0.0-6.0-205.0","5","[""img/0874/a3bc679d-619f-4db6-bb68-116dcb757d9c.jpg"",""img/0874/3f471690-9788-4d03-90c7-f615aecef149.jpg""]","",""
"","7729","similarity","212","1614587","0.0-6.0-206.0","5","[""img/0883/d719aab0-0280-4c06-87e5-b9db7454965c.jpg"",""img/0761/5ed865c0-8bfb-4310-9b47-690b3e450ca2.jpg""]","",""
"","5745","similarity","213","1621339","0.0-6.0-207.0","5","[""img/0761/b8f211c0-f640-43a2-b101-101774517d95.jpg"",""img/0881/6b1189e6-232d-4042-8885-16dc7b10e0d4.jpg""]","",""
"","3990","similarity","214","1626339","0.0-6.0-208.0","5","[""img/0760/32bea725-69a2-4c9a-94d9-af05883fbb86.jpg"",""img/0756/4fcf5ea1-c2e0-44b9-b07f-26cbf07e1801.jpg""]","",""
"","4928","similarity","215","1640686","0.0-6.0-209.0","5","[""img/0885/05af267f-b982-498d-9807-ccd54689f9b4.jpg"",""img/0757/cd7fd185-981f-477a-ba00-a0f65bcfd0e9.jpg""]","",""
"[{""page_index"":0,""viewing_time"":11070}]","11071","instructions","216","1652763","0.0-7.0","","","",""
"","36578","image-multi-choice","217","1690375","0.0-8.0-0.0","","","{""Q0"":""Yellow Warbler""}","Orange-crowned Warbler"
"","4403","image-multi-choice","218","1695799","0.0-8.0-1.0","","","{""Q0"":""Wilson's Warbler""}","Wilson's Warbler"
"","8834","image-multi-choice","219","1705656","0.0-8.0-2.0","","","{""Q0"":""Blackpoll Warbler""}","Blackpoll Warbler"
"","4619","image-multi-choice","220","1711301","0.0-8.0-3.0","","","{""Q0"":""Black-and-white Warbler""}","Black-and-white Warbler"
"","5331","image-multi-choice","221","1717659","0.0-8.0-4.0","","","{""Q0"":""Yellow-breasted Chat""}","Yellow-breasted Chat"
"","38531","image-multi-choice","222","1757213","0.0-8.0-5.0","","","{""Q0"":""Magnolia Warbler""}","Canada Warbler"
"","5456","image-multi-choice","223","1763695","0.0-8.0-6.0","","","{""Q0"":""Common Yellowthroat""}","Common Yellowthroat"
"","4674","image-multi-choice","224","1769399","0.0-8.0-7.0","","","{""Q0"":""American Redstart""}","American Redstart"
"","22199","image-multi-choice","225","1792628","0.0-8.0-8.0","","","{""Q0"":""Canada Warbler""}","Chestnut-sided Warbler"
"","9077","image-multi-choice","226","1802737","0.0-8.0-9.0","","","{""Q0"":""Black-throated Green Warbler""}","Black-throated Green Warbler"
"","7318","image-multi-choice","227","1811077","0.0-8.0-10.0","","","{""Q0"":""Townsend's Warbler""}","Blackburnian Warbler"
"","29986","image-multi-choice","228","1842088","0.0-8.0-11.0","","","{""Q0"":""Magnolia Warbler""}","Yellow-rumped Warbler"
"","3804","image-multi-choice","229","1846926","0.0-8.0-12.0","","","{""Q0"":""Ovenbird""}","Ovenbird"
"","25538","image-multi-choice","230","1873492","0.0-8.0-13.0","","","{""Q0"":""Northern Waterthrush""}","Townsend's Warbler"
"","11123","image-multi-choice","231","1885641","0.0-8.0-14.0","","","{""Q0"":""Northern Waterthrush""}","Northern Waterthrush"
"","7352","image-multi-choice","232","1894013","0.0-8.0-15.0","","","{""Q0"":""Yellow Warbler""}","Yellow Warbler"
"","13003","image-multi-choice","233","1908036","0.0-8.0-16.0","","","{""Q0"":""Tennessee Warbler""}","Nashville Warbler"
"","61144","image-multi-choice","234","1970205","0.0-8.0-17.0","","","{""Q0"":""Tennessee Warbler""}","Northern Parula"
"","41137","image-multi-choice","235","2012368","0.0-8.0-18.0","","","{""Q0"":""Orange-crowned Warbler""}","Tennessee Warbler"
"","18516","image-multi-choice","236","2031911","0.0-8.0-19.0","","","{""Q0"":""Northern Parula""}","Magnolia Warbler"
