[{"view_history":"[{\"page_index\":0,\"viewing_time\":6194}]","rt":6197,"trial_type":"instructions","trial_index":0,"time_elapsed":6199,"internal_node_id":"0.0-0.0"},{"sim_score":7,"rt":11183,"stimulus":"[\"img/bluejay1.jpg\",\"img/bluejay2.jpg\"]","trial_type":"similarity_demo","trial_index":1,"time_elapsed":18405,"internal_node_id":"0.0-1.0"},{"view_history":"[{\"page_index\":0,\"viewing_time\":13994}]","rt":13995,"trial_type":"instructions","trial_index":2,"time_elapsed":33402,"internal_node_id":"0.0-2.0"},{"sim_score":3,"rt":9395,"stimulus":"[\"img/bluejay1.jpg\",\"img/cardinal1.jpg\"]","trial_type":"similarity_demo","trial_index":3,"time_elapsed":43814,"internal_node_id":"0.0-3.0"},{"view_history":"[{\"page_index\":0,\"viewing_time\":9415}]","rt":9416,"trial_type":"instructions","trial_index":4,"time_elapsed":54232,"internal_node_id":"0.0-4.0"},{"view_history":"[{\"page_index\":0,\"viewing_time\":94041}]","rt":94042,"trial_type":"instructions","trial_index":5,"time_elapsed":149274,"internal_node_id":"0.0-5.0"},{"sim_score":4,"rt":8735,"stimulus":"[\"img/0864/66091c27-e588-4476-8af9-265dc6be4156.jpg\",\"img/0860/29a21a9f-54bb-4093-ad3f-04823ceaa89f.jpg\"]","trial_type":"similarity","trial_index":6,"time_elapsed":159024,"internal_node_id":"0.0-6.0-0.0"},{"sim_score":3,"rt":5965,"stimulus":"[\"img/0884/ee845634-cd54-4c06-95a9-962122ef8712.jpg\",\"img/0760/191d8576-9ed7-4798-a486-66a7fd600e58.jpg\"]","trial_type":"similarity","trial_index":7,"time_elapsed":166007,"internal_node_id":"0.0-6.0-1.0"},{"sim_score":1,"rt":6109,"stimulus":"[\"img/0886/9b0bffbe-9237-404d-a0ba-a1982e0814c7.jpg\",\"img/0881/b549bc99-a61c-4450-bab5-9efc3a197bf0.jpg\"]","trial_type":"similarity","trial_index":8,"time_elapsed":173128,"internal_node_id":"0.0-6.0-2.0"},{"sim_score":3,"rt":4461,"stimulus":"[\"img/0866/c446214b-a368-4c65-ae39-ea46894256ab.jpg\",\"img/0881/f62bdcd1-a4b7-4d48-83da-d9c9e01c8727.jpg\"]","trial_type":"similarity","trial_index":9,"time_elapsed":178601,"internal_node_id":"0.0-6.0-3.0"},{"sim_score":5,"rt":8103,"stimulus":"[\"img/0868/5fa7f9d0-f0e5-454c-8224-74d964818f56.jpg\",\"img/0885/f4ed5442-1f5c-4a69-abe6-8336ed11ec77.jpg\"]","trial_type":"similarity","trial_index":10,"time_elapsed":187723,"internal_node_id":"0.0-6.0-4.0"},{"sim_score":3,"rt":8651,"stimulus":"[\"img/0757/92ed1ceb-29ef-4044-9601-78d7806e2396.jpg\",\"img/0866/8efcaa46-83ab-4dee-a35f-850402aa21ae.jpg\"]","trial_type":"similarity","trial_index":11,"time_elapsed":197389,"internal_node_id":"0.0-6.0-5.0"},{"sim_score":3,"rt":6620,"stimulus":"[\"img/0868/d98ca254-b195-477f-b57e-5760a2717db8.jpg\",\"img/0864/e8bd659f-aa43-4748-877e-3118e8b4e189.jpg\"]","trial_type":"similarity","trial_index":12,"time_elapsed":205021,"internal_node_id":"0.0-6.0-6.0"},{"sim_score":7,"rt":6499,"stimulus":"[\"img/0864/6e846d43-94a6-4b37-a268-65eda979f052.jpg\",\"img/0864/49150900-7f25-4ce8-8d10-9b47a71d1997.jpg\"]","trial_type":"similarity","trial_index":13,"time_elapsed":212530,"internal_node_id":"0.0-6.0-7.0"},{"sim_score":3,"rt":6916,"stimulus":"[\"img/0757/1aca59fd-6030-4bb0-93c7-32a90f3237cf.jpg\",\"img/0881/dea58fad-b4f1-41d9-bd3f-916eff19a3fd.jpg\"]","trial_type":"similarity","trial_index":14,"time_elapsed":220455,"internal_node_id":"0.0-6.0-8.0"},{"sim_score":1,"rt":6550,"stimulus":"[\"img/0886/1870a791-dfee-471e-8417-197d4a53c75a.jpg\",\"img/0760/cbd28974-989a-49dd-b631-42de146d7e6f.jpg\"]","trial_type":"similarity","trial_index":15,"time_elapsed":228022,"internal_node_id":"0.0-6.0-9.0"},{"sim_score":3,"rt":6736,"stimulus":"[\"img/0884/3c61ea12-a408-47ce-98aa-b14e0f6d4591.jpg\",\"img/0883/ab9b6977-0cdc-47a2-b180-494a5be181b2.jpg\"]","trial_type":"similarity","trial_index":16,"time_elapsed":235772,"internal_node_id":"0.0-6.0-10.0"},{"sim_score":4,"rt":10170,"stimulus":"[\"img/0874/adf9a8f1-c40b-402b-b95b-1e85a54a7b62.jpg\",\"img/0862/f23038d4-c366-4f70-979f-66b62362efa4.jpg\"]","trial_type":"similarity","trial_index":17,"time_elapsed":246952,"internal_node_id":"0.0-6.0-11.0"},{"sim_score":3,"rt":7156,"stimulus":"[\"img/0862/cdaed51d-9e2f-4807-801a-4663c40077e2.jpg\",\"img/0875/5a716432-c6ca-4b1c-955a-2b8ac25198ee.jpg\"]","trial_type":"similarity","trial_index":18,"time_elapsed":255121,"internal_node_id":"0.0-6.0-12.0"},{"sim_score":2,"rt":8692,"stimulus":"[\"img/0875/fb732ab5-013a-4366-9f65-27811ed157e9.jpg\",\"img/0757/89ce15d5-a3da-4a62-ac9f-c28a9273bf33.jpg\"]","trial_type":"similarity","trial_index":19,"time_elapsed":264822,"internal_node_id":"0.0-6.0-13.0"},{"sim_score":3,"rt":6211,"stimulus":"[\"img/0875/90da8d75-108a-44ad-b999-e21fee3860d3.jpg\",\"img/0860/71e1aad0-2cdf-43bb-94a4-a8c016997c30.jpg\"]","trial_type":"similarity","trial_index":20,"time_elapsed":272042,"internal_node_id":"0.0-6.0-14.0"},{"sim_score":4,"rt":6009,"stimulus":"[\"img/0860/b03b963d-949b-4d8d-b19c-4950c89eeca2.jpg\",\"img/0881/344de456-b358-4887-bd0e-e4c3278af887.jpg\"]","trial_type":"similarity","trial_index":21,"time_elapsed":279059,"internal_node_id":"0.0-6.0-15.0"},{"sim_score":3,"rt":6635,"stimulus":"[\"img/0885/1e66fe61-15d5-42b1-86aa-dbfd13613f5c.jpg\",\"img/0884/592da15b-09e4-46b5-81e7-bab08a1c33e9.jpg\"]","trial_type":"similarity","trial_index":22,"time_elapsed":286703,"internal_node_id":"0.0-6.0-16.0"},{"sim_score":7,"rt":6975,"stimulus":"[\"img/0761/00a8e7ae-d8da-4cba-8969-1dfb943a2aa2.jpg\",\"img/0761/014e76d0-fb4e-4b40-901c-7a2d5655c3b0.jpg\"]","trial_type":"similarity","trial_index":23,"time_elapsed":294688,"internal_node_id":"0.0-6.0-17.0"},{"sim_score":5,"rt":7377,"stimulus":"[\"img/0760/317fc071-99e6-43cb-9099-2e50aa79ccc2.jpg\",\"img/0864/1ebbc554-99fa-49f9-8799-317375a79820.jpg\"]","trial_type":"similarity","trial_index":24,"time_elapsed":303077,"internal_node_id":"0.0-6.0-18.0"},{"sim_score":3,"rt":5229,"stimulus":"[\"img/0864/300bb811-8b3c-4c42-8653-6097c3725197.jpg\",\"img/0875/cff79b3a-a797-4393-9757-6275f999ec04.jpg\"]","trial_type":"similarity","trial_index":25,"time_elapsed":309316,"internal_node_id":"0.0-6.0-19.0"},{"sim_score":3,"rt":4660,"stimulus":"[\"img/0874/767f289c-9814-4496-803f-745cc8913d1f.jpg\",\"img/0884/d9185264-7f01-43b2-be7f-eed1a0f0f2e8.jpg\"]","trial_type":"similarity","trial_index":26,"time_elapsed":314985,"internal_node_id":"0.0-6.0-20.0"},{"sim_score":5,"rt":5816,"stimulus":"[\"img/0885/62bd11a8-7059-4cc2-b06d-4700688b313f.jpg\",\"img/0866/9b38d691-1802-4959-ab3f-fc902f0e4ea6.jpg\"]","trial_type":"similarity","trial_index":27,"time_elapsed":321817,"internal_node_id":"0.0-6.0-21.0"},{"sim_score":7,"rt":6560,"stimulus":"[\"img/0868/83b4350a-3b70-4cea-b7f5-b5b56f3050a8.jpg\",\"img/0868/293079b8-7e0c-4afd-a390-1e5d35fe3ded.jpg\"]","trial_type":"similarity","trial_index":28,"time_elapsed":329387,"internal_node_id":"0.0-6.0-22.0"},{"sim_score":3,"rt":4684,"stimulus":"[\"img/0757/cd7fd185-981f-477a-ba00-a0f65bcfd0e9.jpg\",\"img/0756/caa9655d-9f7e-420d-a757-6af4985d335a.jpg\"]","trial_type":"similarity","trial_index":29,"time_elapsed":335082,"internal_node_id":"0.0-6.0-23.0"},{"sim_score":7,"rt":5068,"stimulus":"[\"img/0875/ebf7653f-ff45-4e9f-af58-2c042ab3cd2b.jpg\",\"img/0875/f87b67d7-c33e-40d1-b281-248c4be1cb6e.jpg\"]","trial_type":"similarity","trial_index":30,"time_elapsed":341160,"internal_node_id":"0.0-6.0-24.0"},{"sim_score":3,"rt":6504,"stimulus":"[\"img/0761/6f9c1c71-e38d-4e3f-9062-39557812432a.jpg\",\"img/0866/11a1d141-be5e-443c-98c1-a9d4d9e3dec0.jpg\"]","trial_type":"similarity","trial_index":31,"time_elapsed":348676,"internal_node_id":"0.0-6.0-25.0"},{"sim_score":3,"rt":9812,"stimulus":"[\"img/0866/d266fece-59b3-46fa-b69f-96f6efb81b59.jpg\",\"img/0758/ddc336e9-a8b6-4bb9-937a-c7e25e0e9250.jpg\"]","trial_type":"similarity","trial_index":32,"time_elapsed":359500,"internal_node_id":"0.0-6.0-26.0"},{"sim_score":3,"rt":6573,"stimulus":"[\"img/0758/b76ceca7-95ac-46e4-ac13-da02c8e93be9.jpg\",\"img/0875/5a7c4e35-6514-4e12-8879-d16071da4cd6.jpg\"]","trial_type":"similarity","trial_index":33,"time_elapsed":367083,"internal_node_id":"0.0-6.0-27.0"},{"sim_score":3,"rt":6762,"stimulus":"[\"img/0958/bb684a39-afef-4125-9f70-b5ad830ba316.jpg\",\"img/0757/31d8ee3d-1b79-4d6a-9347-f91c87c00f92.jpg\"]","trial_type":"similarity","trial_index":34,"time_elapsed":374855,"internal_node_id":"0.0-6.0-28.0"},{"sim_score":7,"rt":5420,"stimulus":"[\"img/0873/6110910a-7895-4b6a-af51-12486a4595a3.jpg\",\"img/0883/fc8cf4c9-003e-48c4-b222-8878ea2ae1c0.jpg\"]","trial_type":"similarity","trial_index":35,"time_elapsed":381285,"internal_node_id":"0.0-6.0-29.0"},{"sim_score":5,"rt":5602,"stimulus":"[\"img/0868/fd307a36-9a3a-47d7-ab7c-f810d0b35040.jpg\",\"img/0875/2e13d160-eea1-416b-aff1-d37ab99ecc1d.jpg\"]","trial_type":"similarity","trial_index":36,"time_elapsed":387898,"internal_node_id":"0.0-6.0-30.0"},{"sim_score":1,"rt":6238,"stimulus":"[\"img/0884/a8f7b854-0010-4c7a-a8fb-b1b1dc1f1ba1.jpg\",\"img/0862/847e5208-38ec-4f36-949c-296cdd7424ee.jpg\"]","trial_type":"similarity","trial_index":37,"time_elapsed":395148,"internal_node_id":"0.0-6.0-31.0"},{"sim_score":3,"rt":5709,"stimulus":"[\"img/0884/0b4cf8d4-4c8f-4312-a794-f99e01679176.jpg\",\"img/0864/5f74a653-3bdc-4308-8cca-ac667dc22e1f.jpg\"]","trial_type":"similarity","trial_index":38,"time_elapsed":401867,"internal_node_id":"0.0-6.0-32.0"},{"sim_score":5,"rt":5952,"stimulus":"[\"img/0883/ff85a2f1-14b1-4b7e-9c87-887151d97e01.jpg\",\"img/0958/5a91b0e8-8f60-4625-b88c-d6e55b4d7d93.jpg\"]","trial_type":"similarity","trial_index":39,"time_elapsed":408828,"internal_node_id":"0.0-6.0-33.0"},{"sim_score":2,"rt":6237,"stimulus":"[\"img/0864/c22faebd-9c53-47bc-ada3-b9a30c688e75.jpg\",\"img/0756/c211414a-203e-4a7f-9412-5abddea2af11.jpg\"]","trial_type":"similarity","trial_index":40,"time_elapsed":416076,"internal_node_id":"0.0-6.0-34.0"},{"sim_score":5,"rt":6650,"stimulus":"[\"img/0874/995f0332-0439-4eb4-add3-957335dbf6d9.jpg\",\"img/0758/3ddd05d3-557e-4ee7-8b78-9d2d681d8ae2.jpg\"]","trial_type":"similarity","trial_index":41,"time_elapsed":423734,"internal_node_id":"0.0-6.0-35.0"},{"sim_score":2,"rt":4534,"stimulus":"[\"img/0886/48077111-b86b-4612-910f-90a5d168d77f.jpg\",\"img/0862/1c20f772-3a51-4a80-aac0-f57dc9f86c28.jpg\"]","trial_type":"similarity","trial_index":42,"time_elapsed":429279,"internal_node_id":"0.0-6.0-36.0"},{"sim_score":5,"rt":9017,"stimulus":"[\"img/0862/5d887e9f-89e2-4ebc-80a0-6d46fe6480db.jpg\",\"img/0885/4fd0aafb-6cc0-43d6-993a-c55a6e18a7ba.jpg\"]","trial_type":"similarity","trial_index":43,"time_elapsed":439304,"internal_node_id":"0.0-6.0-37.0"},{"sim_score":4,"rt":6756,"stimulus":"[\"img/0758/a709631e-3705-4725-ac40-f0d916924f08.jpg\",\"img/0864/87c467d3-abca-482f-ad80-3766c21b1bb3.jpg\"]","trial_type":"similarity","trial_index":44,"time_elapsed":447068,"internal_node_id":"0.0-6.0-38.0"},{"sim_score":6,"rt":6192,"stimulus":"[\"img/0873/87f38f18-48a2-4de3-b24b-70630e8b6ca0.jpg\",\"img/0867/f26f6b60-f772-4f4c-95a4-addc62cfd692.jpg\"]","trial_type":"similarity","trial_index":45,"time_elapsed":454269,"internal_node_id":"0.0-6.0-39.0"},{"sim_score":4,"rt":7260,"stimulus":"[\"img/0958/7168f8d3-e3ae-405a-93d0-64836d899932.jpg\",\"img/0884/989ec8e3-5e41-4055-b0b5-3d65b9c44917.jpg\"]","trial_type":"similarity","trial_index":46,"time_elapsed":462538,"internal_node_id":"0.0-6.0-40.0"},{"sim_score":7,"rt":5834,"stimulus":"[\"img/0873/d74e4aa9-420d-48a3-a42f-30a3481536ae.jpg\",\"img/0873/d39b1731-1669-4c96-b5c6-682b30e287ee.jpg\"]","trial_type":"similarity","trial_index":47,"time_elapsed":481750,"internal_node_id":"0.0-6.0-41.0"},{"sim_score":2,"rt":6652,"stimulus":"[\"img/0886/1e8c0f89-c766-41c9-b522-83c342048f34.jpg\",\"img/0758/d540bee6-b460-4c32-ac57-bc282742d7d4.jpg\"]","trial_type":"similarity","trial_index":48,"time_elapsed":489415,"internal_node_id":"0.0-6.0-42.0"},{"sim_score":5,"rt":8011,"stimulus":"[\"img/0883/6dcd54c3-64a3-4ed5-9149-d8b9aa1938c8.jpg\",\"img/0874/eba003b4-cdab-4eee-8bc3-f064c7d94165.jpg\"]","trial_type":"similarity","trial_index":49,"time_elapsed":498435,"internal_node_id":"0.0-6.0-43.0"},{"sim_score":3,"rt":6396,"stimulus":"[\"img/0881/c24f3051-eefa-42de-aba6-fccb56d93c70.jpg\",\"img/0873/c91c05f8-fafd-4054-bcf1-f5ed1f0a18e8.jpg\"]","trial_type":"similarity","trial_index":50,"time_elapsed":505840,"internal_node_id":"0.0-6.0-44.0"},{"sim_score":2,"rt":4791,"stimulus":"[\"img/0867/5e07b34d-b40f-4b1c-ac10-49975bace45f.jpg\",\"img/0757/acda7aee-6b29-463f-bf01-0d64d6a6ae2b.jpg\"]","trial_type":"similarity","trial_index":51,"time_elapsed":511640,"internal_node_id":"0.0-6.0-45.0"},{"sim_score":2,"rt":5582,"stimulus":"[\"img/0866/a04d37f0-99dd-478a-b6c6-58b215138f84.jpg\",\"img/0874/31e22c7c-99aa-40b1-bf03-dd73fa2df4d6.jpg\"]","trial_type":"similarity","trial_index":52,"time_elapsed":518233,"internal_node_id":"0.0-6.0-46.0"},{"sim_score":7,"rt":4708,"stimulus":"[\"img/0886/625c7dfa-3fa1-4166-80f0-229eb416b04f.jpg\",\"img/0886/c6c81122-f4bf-46f4-968b-167f8ed0cab3.jpg\"]","trial_type":"similarity","trial_index":53,"time_elapsed":523953,"internal_node_id":"0.0-6.0-47.0"},{"sim_score":5,"rt":6389,"stimulus":"[\"img/0883/724f020e-39d9-495c-abe1-b2e4504be9bc.jpg\",\"img/0860/c5ccd1a4-4bb7-48e1-9b25-72cfaf06909b.jpg\"]","trial_type":"similarity","trial_index":54,"time_elapsed":531353,"internal_node_id":"0.0-6.0-48.0"},{"sim_score":3,"rt":4370,"stimulus":"[\"img/0860/4f695df5-afac-4da7-9875-fee39b0b24ad.jpg\",\"img/0756/ba3f2106-0416-46e6-a788-1b50d9f92bda.jpg\"]","trial_type":"similarity","trial_index":55,"time_elapsed":536731,"internal_node_id":"0.0-6.0-49.0"},{"sim_score":3,"rt":5672,"stimulus":"[\"img/0860/702bd09d-df3a-40aa-a267-5f04474305b5.jpg\",\"img/0757/802a8692-dc9e-4372-8811-ce4351a09d1a.jpg\"]","trial_type":"similarity","trial_index":56,"time_elapsed":543414,"internal_node_id":"0.0-6.0-50.0"},{"sim_score":7,"rt":4356,"stimulus":"[\"img/0756/09fde3d3-27c5-435e-b68f-5410beb04e99.jpg\",\"img/0756/4cf0ac20-ce60-40ba-8078-4053ef50451c.jpg\"]","trial_type":"similarity","trial_index":57,"time_elapsed":548777,"internal_node_id":"0.0-6.0-51.0"},{"sim_score":4,"rt":5879,"stimulus":"[\"img/0875/03c3c331-738b-4446-af92-3d7386b08c2e.jpg\",\"img/0866/07c9c966-3c8d-40e7-8128-92b2acbaed5d.jpg\"]","trial_type":"similarity","trial_index":58,"time_elapsed":555666,"internal_node_id":"0.0-6.0-52.0"},{"sim_score":5,"rt":6751,"stimulus":"[\"img/0756/d0f1b906-d8e0-4528-9d08-90cec14838ec.jpg\",\"img/0758/6e95579b-5166-487c-b8cb-e417c6a218e3.jpg\"]","trial_type":"similarity","trial_index":59,"time_elapsed":563426,"internal_node_id":"0.0-6.0-53.0"},{"sim_score":4,"rt":6188,"stimulus":"[\"img/0761/1725cacb-5f86-4b47-a5c0-3c36cd981588.jpg\",\"img/0884/7ae02e9d-46a4-4124-bcc2-cad90d7ef9f9.jpg\"]","trial_type":"similarity","trial_index":60,"time_elapsed":570622,"internal_node_id":"0.0-6.0-54.0"},{"sim_score":3,"rt":4860,"stimulus":"[\"img/0760/a97cc3a7-3e6e-423e-ac87-e1d1ab280ae9.jpg\",\"img/0867/cc72ed48-7704-422c-86d6-467a1145287a.jpg\"]","trial_type":"similarity","trial_index":61,"time_elapsed":576494,"internal_node_id":"0.0-6.0-55.0"},{"sim_score":5,"rt":8101,"stimulus":"[\"img/0866/02f5e6b9-52b7-448c-9708-5b460d0c9a23.jpg\",\"img/0884/05d9bfb9-44a6-4ab4-92fa-d17e5b2b4f33.jpg\"]","trial_type":"similarity","trial_index":62,"time_elapsed":585606,"internal_node_id":"0.0-6.0-56.0"},{"sim_score":5,"rt":5087,"stimulus":"[\"img/0756/aa551726-e765-4729-82aa-99d700d388ae.jpg\",\"img/0761/5747fedf-15f2-47fe-87c8-ff646dd66a5f.jpg\"]","trial_type":"similarity","trial_index":63,"time_elapsed":591703,"internal_node_id":"0.0-6.0-57.0"},{"sim_score":3,"rt":4459,"stimulus":"[\"img/0867/bf560d4f-dee3-4f11-a385-705cc1aa5f3c.jpg\",\"img/0860/5bff793e-cbd5-4d7e-b628-0ac2b0e30b64.jpg\"]","trial_type":"similarity","trial_index":64,"time_elapsed":597173,"internal_node_id":"0.0-6.0-58.0"},{"sim_score":7,"rt":5372,"stimulus":"[\"img/0881/d373cb9f-a719-4549-a2a4-82def79fb2a5.jpg\",\"img/0758/caa93da2-9edf-49fa-96b9-32dedd8f5078.jpg\"]","trial_type":"similarity","trial_index":65,"time_elapsed":603556,"internal_node_id":"0.0-6.0-59.0"},{"sim_score":6,"rt":5419,"stimulus":"[\"img/0761/b8f211c0-f640-43a2-b101-101774517d95.jpg\",\"img/0758/821c68d3-5cb0-4eae-8659-30e6263fca39.jpg\"]","trial_type":"similarity","trial_index":66,"time_elapsed":609983,"internal_node_id":"0.0-6.0-60.0"},{"sim_score":4,"rt":7794,"stimulus":"[\"img/0958/ebea41e3-9d65-4f5e-981a-92daaaad0d57.jpg\",\"img/0875/dbdd643e-6d0e-4a5c-ab57-b9c29b9c981a.jpg\"]","trial_type":"similarity","trial_index":67,"time_elapsed":618786,"internal_node_id":"0.0-6.0-61.0"},{"sim_score":1,"rt":5583,"stimulus":"[\"img/0886/451550d7-6ff9-42b5-938c-9e20ee960bf6.jpg\",\"img/0864/4bd81bc6-c13d-46df-95a9-485886dc7c1b.jpg\"]","trial_type":"similarity","trial_index":68,"time_elapsed":625375,"internal_node_id":"0.0-6.0-62.0"},{"sim_score":3,"rt":4264,"stimulus":"[\"img/0756/b6e235f7-211b-4a2b-a7b8-393e5ec7351b.jpg\",\"img/0874/ca76a855-4e77-4f2f-872a-0a718153e7ed.jpg\"]","trial_type":"similarity","trial_index":69,"time_elapsed":630647,"internal_node_id":"0.0-6.0-63.0"},{"sim_score":3,"rt":5759,"stimulus":"[\"img/0758/20497cbe-ddae-489e-86e2-ab06985ed07c.jpg\",\"img/0885/05af267f-b982-498d-9807-ccd54689f9b4.jpg\"]","trial_type":"similarity","trial_index":70,"time_elapsed":637416,"internal_node_id":"0.0-6.0-64.0"},{"sim_score":5,"rt":8171,"stimulus":"[\"img/0760/4c78b78c-193e-4a1e-8bb2-394add325fda.jpg\",\"img/0958/6e602e13-8029-4642-bce0-8deffd0dc686.jpg\"]","trial_type":"similarity","trial_index":71,"time_elapsed":646599,"internal_node_id":"0.0-6.0-65.0"},{"sim_score":4,"rt":5885,"stimulus":"[\"img/0884/a416b0d1-f903-4935-b89f-99c29683752b.jpg\",\"img/0881/f4e3e181-b3c9-4af2-a5a4-fc135ab70d2e.jpg\"]","trial_type":"similarity","trial_index":72,"time_elapsed":653497,"internal_node_id":"0.0-6.0-66.0"},{"sim_score":3,"rt":7034,"stimulus":"[\"img/0864/5f33e097-23e3-4002-882d-76e8cb15f451.jpg\",\"img/0873/b02f9cce-7f58-4f1b-baed-50fee9f0a21f.jpg\"]","trial_type":"similarity","trial_index":73,"time_elapsed":661542,"internal_node_id":"0.0-6.0-67.0"},{"sim_score":5,"rt":6336,"stimulus":"[\"img/0862/ee3b7bff-4a70-4e84-9bea-4a565e456acb.jpg\",\"img/0758/dd559618-7f09-4a07-8018-d311c4a5ea29.jpg\"]","trial_type":"similarity","trial_index":74,"time_elapsed":668889,"internal_node_id":"0.0-6.0-68.0"},{"sim_score":6,"rt":6390,"stimulus":"[\"img/0757/4f8ae92b-a4ab-4020-b4fb-80c5615e76ac.jpg\",\"img/0757/424b465f-ba69-4277-bc61-d3e95d136f80.jpg\"]","trial_type":"similarity","trial_index":75,"time_elapsed":676289,"internal_node_id":"0.0-6.0-69.0"},{"sim_score":7,"rt":8000,"stimulus":"[\"img/0860/15b24a61-25be-4356-9eac-5ce95d0cb4a4.jpg\",\"img/0862/e8cc3bdf-cc43-4565-bccf-492626c70953.jpg\"]","trial_type":"similarity","trial_index":76,"time_elapsed":685299,"internal_node_id":"0.0-6.0-70.0"},{"sim_score":5,"rt":5881,"stimulus":"[\"img/0860/d9a0d117-6d1d-41c0-8fec-9aff0fd9e9f2.jpg\",\"img/0884/7f9cc898-36bc-49ec-8b1a-01065d9c0062.jpg\"]","trial_type":"similarity","trial_index":77,"time_elapsed":692192,"internal_node_id":"0.0-6.0-71.0"},{"sim_score":3,"rt":7348,"stimulus":"[\"img/0883/b5e903b5-bc7f-421c-bf3e-245779ac90c9.jpg\",\"img/0866/d493a2c8-66eb-44b4-be02-2f327b700b7c.jpg\"]","trial_type":"similarity","trial_index":78,"time_elapsed":700554,"internal_node_id":"0.0-6.0-72.0"},{"sim_score":1,"rt":5960,"stimulus":"[\"img/0866/f756f7d1-9ad8-4a34-9ef6-7a443d705bfe.jpg\",\"img/0886/4d28f75a-a9c3-49dd-8aa8-00304af6e40b.jpg\"]","trial_type":"similarity","trial_index":79,"time_elapsed":707524,"internal_node_id":"0.0-6.0-73.0"},{"sim_score":3,"rt":7404,"stimulus":"[\"img/0958/edfd5bc1-8c8f-489a-84c3-908436ef76cc.jpg\",\"img/0761/e34f97e4-14ac-4bb6-b226-816085d967c2.jpg\"]","trial_type":"similarity","trial_index":80,"time_elapsed":715939,"internal_node_id":"0.0-6.0-74.0"},{"sim_score":6,"rt":7001,"stimulus":"[\"img/0875/e7e66b13-b573-431e-b85e-288ce04a35a3.jpg\",\"img/0756/10fa3aa2-6100-492a-826e-febb6513cf13.jpg\"]","trial_type":"similarity","trial_index":81,"time_elapsed":723948,"internal_node_id":"0.0-6.0-75.0"},{"sim_score":4,"rt":5624,"stimulus":"[\"img/0958/54f27d86-00c0-46b2-b2c9-050c9cc60fe0.jpg\",\"img/0885/d2276b26-e91a-4f19-a818-cbeb297ed884.jpg\"]","trial_type":"similarity","trial_index":82,"time_elapsed":730581,"internal_node_id":"0.0-6.0-76.0"},{"sim_score":3,"rt":6012,"stimulus":"[\"img/0868/8b0b8473-e2c0-4331-aa56-c3a5c29369da.jpg\",\"img/0883/c6db9b70-f16c-47ee-a408-c9278365ae54.jpg\"]","trial_type":"similarity","trial_index":83,"time_elapsed":737604,"internal_node_id":"0.0-6.0-77.0"},{"sim_score":4,"rt":8524,"stimulus":"[\"img/0862/53a9cf7c-93c4-41b9-952f-07d17f7a17b2.jpg\",\"img/0760/9daf8012-19c4-498f-8f51-81ec001a83be.jpg\"]","trial_type":"similarity","trial_index":84,"time_elapsed":747136,"internal_node_id":"0.0-6.0-78.0"},{"sim_score":5,"rt":5599,"stimulus":"[\"img/0885/8cdf3204-e0f1-482b-9546-5edca3d81376.jpg\",\"img/0761/07f8178b-8ce5-42d6-bca0-a0ae0e0e8eb3.jpg\"]","trial_type":"similarity","trial_index":85,"time_elapsed":753744,"internal_node_id":"0.0-6.0-79.0"},{"sim_score":5,"rt":4945,"stimulus":"[\"img/0862/92fcd8a4-8193-4a6a-ae09-dd4a6338b0df.jpg\",\"img/0864/1d15626a-2f7c-410f-819c-0fa2c967e95e.jpg\"]","trial_type":"similarity","trial_index":86,"time_elapsed":759700,"internal_node_id":"0.0-6.0-80.0"},{"sim_score":7,"rt":5980,"stimulus":"[\"img/0758/67c0be2f-9e91-48b3-8219-70ac0a1802fa.jpg\",\"img/0758/7ffbc76b-1fc1-432c-8f7e-9ec8d1b3f643.jpg\"]","trial_type":"similarity","trial_index":87,"time_elapsed":766688,"internal_node_id":"0.0-6.0-81.0"},{"sim_score":2,"rt":6144,"stimulus":"[\"img/0862/92f0146c-20c4-482e-aef5-adb693790338.jpg\",\"img/0873/1d1be182-3bb2-4efd-8543-d70b8db7beef.jpg\"]","trial_type":"similarity","trial_index":88,"time_elapsed":773842,"internal_node_id":"0.0-6.0-82.0"},{"sim_score":6,"rt":7161,"stimulus":"[\"img/0760/319c5462-51de-4d3b-a135-d6c44f59c0e1.jpg\",\"img/0757/ec40956b-ed8b-4970-b87f-9b7c25cd5be6.jpg\"]","trial_type":"similarity","trial_index":89,"time_elapsed":788200,"internal_node_id":"0.0-6.0-83.0"},{"sim_score":2,"rt":5834,"stimulus":"[\"img/0867/a498eef3-9fa4-4ab2-9778-4ae82ac40dc5.jpg\",\"img/0881/633c6f40-56d9-4b48-bf1c-ecd83116eabb.jpg\"]","trial_type":"similarity","trial_index":90,"time_elapsed":795043,"internal_node_id":"0.0-6.0-84.0"},{"sim_score":1,"rt":4830,"stimulus":"[\"img/0885/fbbfaacd-e49b-4d37-a2f9-fcaffa58f26f.jpg\",\"img/0886/d1e40478-2fe0-404f-8409-920da98a96a2.jpg\"]","trial_type":"similarity","trial_index":91,"time_elapsed":800891,"internal_node_id":"0.0-6.0-85.0"},{"sim_score":4,"rt":5017,"stimulus":"[\"img/0866/6f2a90d7-14f1-4f1b-bd64-fc0af6b9fe44.jpg\",\"img/0864/3d4de670-b290-4285-9c3d-12a0e3af44e9.jpg\"]","trial_type":"similarity","trial_index":92,"time_elapsed":806926,"internal_node_id":"0.0-6.0-86.0"},{"sim_score":7,"rt":5466,"stimulus":"[\"img/0874/7e4f2150-3b59-4a36-b5da-a4e0ba410531.jpg\",\"img/0881/20af39f5-373d-4a55-a437-2dc4c0382c46.jpg\"]","trial_type":"similarity","trial_index":93,"time_elapsed":813409,"internal_node_id":"0.0-6.0-87.0"},{"sim_score":3,"rt":5557,"stimulus":"[\"img/0866/4a87911a-d5be-4d4e-ab8e-3d1f581bf507.jpg\",\"img/0760/111aecf1-147c-4227-90e0-9ed3a75e4e16.jpg\"]","trial_type":"similarity","trial_index":94,"time_elapsed":819987,"internal_node_id":"0.0-6.0-88.0"},{"sim_score":5,"rt":4939,"stimulus":"[\"img/0867/c66898ba-b71b-4d50-84f9-f7f84853a98d.jpg\",\"img/0884/10c0a35b-e20a-4d75-a7c0-959a578d9ebf.jpg\"]","trial_type":"similarity","trial_index":95,"time_elapsed":825942,"internal_node_id":"0.0-6.0-89.0"},{"sim_score":2,"rt":5689,"stimulus":"[\"img/0757/a7964b0f-aee3-4b4c-9cd1-c1c998c49fef.jpg\",\"img/0862/ad593cc7-cabe-4bb7-8e14-8a447a0717b4.jpg\"]","trial_type":"similarity","trial_index":96,"time_elapsed":832644,"internal_node_id":"0.0-6.0-90.0"},{"sim_score":2,"rt":5289,"stimulus":"[\"img/0867/ac1797e4-8afc-48fe-b252-86d1defb1cca.jpg\",\"img/0761/3599fa54-18f9-488e-b402-e851c43586ff.jpg\"]","trial_type":"similarity","trial_index":97,"time_elapsed":838944,"internal_node_id":"0.0-6.0-91.0"},{"sim_score":5,"rt":6803,"stimulus":"[\"img/0868/7b212364-ff5f-4e28-9241-7eb6ea00161b.jpg\",\"img/0958/4e2ca4bc-52c7-4c27-9610-776441231e42.jpg\"]","trial_type":"similarity","trial_index":98,"time_elapsed":846762,"internal_node_id":"0.0-6.0-92.0"},{"sim_score":6,"rt":5297,"stimulus":"[\"img/0874/8cdb1c07-1c32-46d2-981c-3636560fa6e5.jpg\",\"img/0864/0f537697-a314-47c3-a8cc-8df23b7e536c.jpg\"]","trial_type":"similarity","trial_index":99,"time_elapsed":853072,"internal_node_id":"0.0-6.0-93.0"},{"sim_score":5,"rt":5944,"stimulus":"[\"img/0760/a24659cd-f862-42cc-b43a-7ba8eae0c2c0.jpg\",\"img/0873/7dddc95f-ca6e-4d15-99a0-0e329ec6888e.jpg\"]","trial_type":"similarity","trial_index":100,"time_elapsed":860025,"internal_node_id":"0.0-6.0-94.0"},{"sim_score":6,"rt":7367,"stimulus":"[\"img/0868/4bd5105a-d2c3-4f82-8c80-57196106ba53.jpg\",\"img/0873/ac86dbfd-0442-4dec-9d10-37d7093f5a52.jpg\"]","trial_type":"similarity","trial_index":101,"time_elapsed":868404,"internal_node_id":"0.0-6.0-95.0"},{"sim_score":5,"rt":7001,"stimulus":"[\"img/0860/c47fdead-eb02-4989-b078-26f4852f44fe.jpg\",\"img/0761/aebad236-1f4a-4bc2-a74d-d92b7e226316.jpg\"]","trial_type":"similarity","trial_index":102,"time_elapsed":876414,"internal_node_id":"0.0-6.0-96.0"},{"sim_score":3,"rt":4743,"stimulus":"[\"img/0862/57b6f83f-c763-4858-830d-102f97bfefbf.jpg\",\"img/0883/29cba870-24df-4a0b-85cd-b680316ffe3d.jpg\"]","trial_type":"similarity","trial_index":103,"time_elapsed":882167,"internal_node_id":"0.0-6.0-97.0"},{"sim_score":2,"rt":4700,"stimulus":"[\"img/0757/fd3c82c8-3311-4fae-bcec-10559587910a.jpg\",\"img/0884/967c63af-8f6a-483f-9122-0c79d97fd22e.jpg\"]","trial_type":"similarity","trial_index":104,"time_elapsed":887879,"internal_node_id":"0.0-6.0-98.0"},{"sim_score":4,"rt":3908,"stimulus":"[\"img/0867/c71dc569-f49c-4397-8381-68b8d726736d.jpg\",\"img/0756/b7869208-7169-455d-835f-31926317dd95.jpg\"]","trial_type":"similarity","trial_index":105,"time_elapsed":892794,"internal_node_id":"0.0-6.0-99.0"},{"sim_score":5,"rt":5194,"stimulus":"[\"img/0958/d4138705-0a9d-4141-9af9-205e69367c44.jpg\",\"img/0756/792f9475-979d-4787-b7dc-8a0d02f6e25f.jpg\"]","trial_type":"similarity","trial_index":106,"time_elapsed":898999,"internal_node_id":"0.0-6.0-100.0"},{"sim_score":7,"rt":5778,"stimulus":"[\"img/0760/ed469d78-34af-4ea9-a969-05ea527438a2.jpg\",\"img/0760/0864f159-c076-4573-83e1-ea134f239717.jpg\"]","trial_type":"similarity","trial_index":107,"time_elapsed":905787,"internal_node_id":"0.0-6.0-101.0"},{"sim_score":5,"rt":5559,"stimulus":"[\"img/0873/841d6549-01d2-4ebd-8d67-25d219876178.jpg\",\"img/0875/8521fd58-3b1e-4dc5-97ae-804edfa6734a.jpg\"]","trial_type":"similarity","trial_index":108,"time_elapsed":912360,"internal_node_id":"0.0-6.0-102.0"},{"sim_score":7,"rt":6124,"stimulus":"[\"img/0884/9b1b7885-1502-448f-9b20-ddc19aa5456f.jpg\",\"img/0884/37ee4afa-34a0-4da2-bdb0-fcaff43dcdb6.jpg\"]","trial_type":"similarity","trial_index":109,"time_elapsed":919497,"internal_node_id":"0.0-6.0-103.0"},{"sim_score":4,"rt":5770,"stimulus":"[\"img/0873/ec150e40-b3ec-4dfe-ab38-bb3f248a1175.jpg\",\"img/0885/ef0386f3-e5d4-481b-8894-60b80e08bbe8.jpg\"]","trial_type":"similarity","trial_index":110,"time_elapsed":926278,"internal_node_id":"0.0-6.0-104.0"},{"sim_score":6,"rt":6686,"stimulus":"[\"img/0883/0e1ed5c7-0881-4bfd-b12f-6a53500e74f0.jpg\",\"img/0875/527ced51-8e53-4aab-ab05-86df219104c0.jpg\"]","trial_type":"similarity","trial_index":111,"time_elapsed":933979,"internal_node_id":"0.0-6.0-105.0"},{"sim_score":3,"rt":4516,"stimulus":"[\"img/0864/0116ca98-293d-4fa6-a93b-5a6144ef64cc.jpg\",\"img/0867/26611f4e-d694-4460-b7e2-43c62753ddc3.jpg\"]","trial_type":"similarity","trial_index":112,"time_elapsed":939513,"internal_node_id":"0.0-6.0-106.0"},{"sim_score":5,"rt":6260,"stimulus":"[\"img/0958/d3775867-a8f6-42ba-86ff-f86e85edba90.jpg\",\"img/0860/17b44a7d-c5ca-479f-9e87-f65a64f5c80e.jpg\"]","trial_type":"similarity","trial_index":113,"time_elapsed":946790,"internal_node_id":"0.0-6.0-107.0"},{"sim_score":6,"rt":6242,"stimulus":"[\"img/0885/6873c613-5e40-42ff-a5b6-443b6b626ae2.jpg\",\"img/0756/314a157e-e6d3-4447-a98f-8fde8f810f0c.jpg\"]","trial_type":"similarity","trial_index":114,"time_elapsed":954045,"internal_node_id":"0.0-6.0-108.0"},{"sim_score":5,"rt":4805,"stimulus":"[\"img/0883/387a9e30-7d95-483e-af34-c8262f62385f.jpg\",\"img/0885/517a9189-9623-4ed7-a37e-48788791e028.jpg\"]","trial_type":"similarity","trial_index":115,"time_elapsed":959866,"internal_node_id":"0.0-6.0-109.0"},{"sim_score":7,"rt":4842,"stimulus":"[\"img/0867/2e1a0b58-cdb1-4107-a14e-452530d7b9b0.jpg\",\"img/0867/075e0f95-856b-4cbb-acf5-092393aaf04e.jpg\"]","trial_type":"similarity","trial_index":116,"time_elapsed":965717,"internal_node_id":"0.0-6.0-110.0"},{"sim_score":5,"rt":5060,"stimulus":"[\"img/0881/f7a8cc63-8842-40a4-9ff8-fe530310d62c.jpg\",\"img/0760/83b0723f-4929-4ee7-ad35-fae98da3e152.jpg\"]","trial_type":"similarity","trial_index":117,"time_elapsed":971790,"internal_node_id":"0.0-6.0-111.0"},{"sim_score":5,"rt":4716,"stimulus":"[\"img/0881/ed4c971f-0873-4fc8-b6d6-e8bbd82f0bcc.jpg\",\"img/0868/3a62db2d-97e9-44a3-b8e3-a48c6f0e423b.jpg\"]","trial_type":"similarity","trial_index":118,"time_elapsed":977519,"internal_node_id":"0.0-6.0-112.0"},{"sim_score":2,"rt":4148,"stimulus":"[\"img/0875/42910c99-5463-450a-a0f8-d4d060a11455.jpg\",\"img/0761/5ed865c0-8bfb-4310-9b47-690b3e450ca2.jpg\"]","trial_type":"similarity","trial_index":119,"time_elapsed":982676,"internal_node_id":"0.0-6.0-113.0"},{"sim_score":4,"rt":5326,"stimulus":"[\"img/0756/7a68b61c-212a-4f14-8b6f-4d74b6cd206e.jpg\",\"img/0866/23a224f3-2012-4fc8-8e0f-3c36f8de27fd.jpg\"]","trial_type":"similarity","trial_index":120,"time_elapsed":989013,"internal_node_id":"0.0-6.0-114.0"},{"sim_score":5,"rt":6877,"stimulus":"[\"img/0884/a6389ab4-3291-4434-9b91-eeae3b04fce4.jpg\",\"img/0886/42cccc64-05f9-4afd-bc93-496ba50a4342.jpg\"]","trial_type":"similarity","trial_index":121,"time_elapsed":996900,"internal_node_id":"0.0-6.0-115.0"},{"sim_score":4,"rt":5412,"stimulus":"[\"img/0756/350ac166-1deb-4399-89db-da6a7e827c4d.jpg\",\"img/0881/4bd34581-94d8-4e88-8c89-5cef864ca3be.jpg\"]","trial_type":"similarity","trial_index":122,"time_elapsed":1003325,"internal_node_id":"0.0-6.0-116.0"},{"sim_score":2,"rt":5995,"stimulus":"[\"img/0760/1912c0dc-64a7-4c32-8d67-baf5e8752270.jpg\",\"img/0875/d59ff733-eaff-4ee2-9443-06954dd0bcb6.jpg\"]","trial_type":"similarity","trial_index":123,"time_elapsed":1010330,"internal_node_id":"0.0-6.0-117.0"},{"sim_score":5,"rt":6495,"stimulus":"[\"img/0958/822de3b9-e5fd-4b74-aeb1-7c40805b0717.jpg\",\"img/0866/0207e9a2-7dbb-40b5-9459-b472aaeceb2a.jpg\"]","trial_type":"similarity","trial_index":124,"time_elapsed":1017837,"internal_node_id":"0.0-6.0-118.0"},{"sim_score":3,"rt":6674,"stimulus":"[\"img/0867/8ba0c5a7-c7e4-42cf-a80a-543763b90779.jpg\",\"img/0874/99f6563c-8a8d-4c1c-a41d-667b618c3fd5.jpg\"]","trial_type":"similarity","trial_index":125,"time_elapsed":1025522,"internal_node_id":"0.0-6.0-119.0"},{"sim_score":3,"rt":8138,"stimulus":"[\"img/0883/142a783e-a468-4b7f-a750-1e107613d5a9.jpg\",\"img/0757/8fdf4047-c2dc-42bc-9724-c35bd113f1dc.jpg\"]","trial_type":"similarity","trial_index":126,"time_elapsed":1034669,"internal_node_id":"0.0-6.0-120.0"},{"sim_score":2,"rt":7931,"stimulus":"[\"img/0874/2c9464dd-8a23-4baa-ac94-1ba3af5c15cc.jpg\",\"img/0886/9ac18ff1-d3d9-4bfe-aa2e-ed5b28399f6c.jpg\"]","trial_type":"similarity","trial_index":127,"time_elapsed":1043608,"internal_node_id":"0.0-6.0-121.0"},{"sim_score":3,"rt":5013,"stimulus":"[\"img/0873/c2a7452d-a271-4207-81ce-bda281dc0297.jpg\",\"img/0761/edc0b069-71dc-4b11-b7f0-8429ea8ac5c9.jpg\"]","trial_type":"similarity","trial_index":128,"time_elapsed":1049630,"internal_node_id":"0.0-6.0-122.0"},{"sim_score":6,"rt":4607,"stimulus":"[\"img/0875/3ecb367d-e9eb-4826-8aaa-7aa72fb98019.jpg\",\"img/0884/5085d424-b3f5-461b-a1c7-f7ca55abcf4f.jpg\"]","trial_type":"similarity","trial_index":129,"time_elapsed":1055246,"internal_node_id":"0.0-6.0-123.0"},{"sim_score":2,"rt":7812,"stimulus":"[\"img/0757/a3620c04-efdc-4b42-940c-806958d1351e.jpg\",\"img/0868/6a28c3b0-3d76-498a-9fb7-ddafc665eca8.jpg\"]","trial_type":"similarity","trial_index":130,"time_elapsed":1064067,"internal_node_id":"0.0-6.0-124.0"},{"sim_score":3,"rt":6434,"stimulus":"[\"img/0886/789f5d23-84b8-499a-ae1e-20c6309a06ae.jpg\",\"img/0883/cc3df660-426e-452e-ac50-3a3b09dc4b65.jpg\"]","trial_type":"similarity","trial_index":131,"time_elapsed":1087027,"internal_node_id":"0.0-6.0-125.0"},{"sim_score":3,"rt":5908,"stimulus":"[\"img/0868/e0aff734-077f-40dd-9781-74821abd3621.jpg\",\"img/0760/868961d8-3272-4d3c-9c8b-9d183315cabc.jpg\"]","trial_type":"similarity","trial_index":132,"time_elapsed":1093947,"internal_node_id":"0.0-6.0-126.0"},{"sim_score":7,"rt":4547,"stimulus":"[\"img/0881/19e82c47-8e4b-45d2-a6c8-74181eb4155e.jpg\",\"img/0881/54ea8e77-c7e5-4197-b7fa-00b7020849a7.jpg\"]","trial_type":"similarity","trial_index":133,"time_elapsed":1099504,"internal_node_id":"0.0-6.0-127.0"},{"sim_score":4,"rt":6154,"stimulus":"[\"img/0760/dddcdfaf-2d02-4de9-a176-5705d0004b5a.jpg\",\"img/0860/c7047cd2-7cc1-41b6-8a34-c0986774975f.jpg\"]","trial_type":"similarity","trial_index":134,"time_elapsed":1106666,"internal_node_id":"0.0-6.0-128.0"},{"sim_score":2,"rt":3978,"stimulus":"[\"img/0864/e02eddb5-f468-499c-91bf-f7be3ffe979b.jpg\",\"img/0885/a4e5c564-1e5f-4fed-9f73-b8d1becf62b6.jpg\"]","trial_type":"similarity","trial_index":135,"time_elapsed":1111656,"internal_node_id":"0.0-6.0-129.0"},{"sim_score":5,"rt":3872,"stimulus":"[\"img/0864/3651d070-2fc5-4848-b6a6-088a2d9ac5c9.jpg\",\"img/0757/417763f8-6fe7-44f2-acaa-613a44f20835.jpg\"]","trial_type":"similarity","trial_index":136,"time_elapsed":1116538,"internal_node_id":"0.0-6.0-130.0"},{"sim_score":6,"rt":6522,"stimulus":"[\"img/0760/c76e8a36-1537-42e0-9779-13c2b6a89725.jpg\",\"img/0883/3835edeb-1d59-4781-b10f-c26b9eaf6fd1.jpg\"]","trial_type":"similarity","trial_index":137,"time_elapsed":1124068,"internal_node_id":"0.0-6.0-131.0"},{"sim_score":7,"rt":3444,"stimulus":"[\"img/0885/89d8c48b-8bde-42ed-ae71-de669b15ea34.jpg\",\"img/0885/8960bf05-34df-4a86-a9b2-6087c70e61d3.jpg\"]","trial_type":"similarity","trial_index":138,"time_elapsed":1128521,"internal_node_id":"0.0-6.0-132.0"},{"sim_score":4,"rt":4244,"stimulus":"[\"img/0860/94ef7afc-e0e6-4a15-98c6-0bfac82bc832.jpg\",\"img/0868/c8ac40c7-6904-4e13-8d61-c75d3052dc4e.jpg\"]","trial_type":"similarity","trial_index":139,"time_elapsed":1133776,"internal_node_id":"0.0-6.0-133.0"},{"sim_score":6,"rt":5266,"stimulus":"[\"img/0867/1719a35d-f085-48c0-9099-16c94fe418b4.jpg\",\"img/0886/b8648eb5-de71-41ab-825d-848e51be8c1b.jpg\"]","trial_type":"similarity","trial_index":140,"time_elapsed":1140052,"internal_node_id":"0.0-6.0-134.0"},{"sim_score":4,"rt":6664,"stimulus":"[\"img/0756/8ab56efe-fef0-45cc-ab57-82597f83b26a.jpg\",\"img/0886/7164ac42-460f-4beb-9d5e-a1cfded3099c.jpg\"]","trial_type":"similarity","trial_index":141,"time_elapsed":1147725,"internal_node_id":"0.0-6.0-135.0"},{"sim_score":5,"rt":6510,"stimulus":"[\"img/0884/13db1f36-8c9f-4b28-8426-04eaa9fba737.jpg\",\"img/0868/15dd6fd7-791e-4b53-b203-195d617521a4.jpg\"]","trial_type":"similarity","trial_index":142,"time_elapsed":1155244,"internal_node_id":"0.0-6.0-136.0"},{"sim_score":7,"rt":4056,"stimulus":"[\"img/0958/9be61b1d-099b-432a-ae0e-2aa69e157c0e.jpg\",\"img/0958/b11515b3-5f04-4c3e-be00-56a05c6c3e96.jpg\"]","trial_type":"similarity","trial_index":143,"time_elapsed":1160309,"internal_node_id":"0.0-6.0-137.0"},{"sim_score":4,"rt":6646,"stimulus":"[\"img/0886/aef00ed5-e288-47bf-b31e-512d7e762ea2.jpg\",\"img/0873/90b702a6-3dba-446a-9bba-a2ee096baf49.jpg\"]","trial_type":"similarity","trial_index":144,"time_elapsed":1167965,"internal_node_id":"0.0-6.0-138.0"},{"sim_score":5,"rt":5623,"stimulus":"[\"img/0758/7fba58df-2a7a-4b76-8a8f-62739f97f271.jpg\",\"img/0873/b1e2e09f-ad9a-433e-818f-56dd2f1cb09c.jpg\"]","trial_type":"similarity","trial_index":145,"time_elapsed":1174596,"internal_node_id":"0.0-6.0-139.0"},{"sim_score":3,"rt":4216,"stimulus":"[\"img/0873/b509aa81-b1d7-4d50-8aef-9c7b725c3157.jpg\",\"img/0756/653c7580-fa90-45bb-828a-eb9d05a6b1c7.jpg\"]","trial_type":"similarity","trial_index":146,"time_elapsed":1179821,"internal_node_id":"0.0-6.0-140.0"},{"sim_score":1,"rt":5715,"stimulus":"[\"img/0868/4e626425-63c8-484a-8a1d-e66ee4e0bef8.jpg\",\"img/0862/f43ceabf-acc1-4107-b857-5d1849808f93.jpg\"]","trial_type":"similarity","trial_index":147,"time_elapsed":1186544,"internal_node_id":"0.0-6.0-141.0"},{"sim_score":3,"rt":5369,"stimulus":"[\"img/0881/e046471a-35b4-4159-bbf7-3cfd201bef66.jpg\",\"img/0862/e697469a-ec19-4414-b972-7b9f3564785b.jpg\"]","trial_type":"similarity","trial_index":148,"time_elapsed":1192926,"internal_node_id":"0.0-6.0-142.0"},{"sim_score":4,"rt":7869,"stimulus":"[\"img/0885/eb5e4557-1792-49c3-8871-16afa58f3a28.jpg\",\"img/0867/db7e032f-162b-46f5-ae67-2b29679adee4.jpg\"]","trial_type":"similarity","trial_index":149,"time_elapsed":1201807,"internal_node_id":"0.0-6.0-143.0"},{"sim_score":7,"rt":5271,"stimulus":"[\"img/0883/5716bfb3-e86c-42fe-8afa-58d226cb1aaa.jpg\",\"img/0883/cc2bb2c6-18f1-414f-98cc-6cd683173ce4.jpg\"]","trial_type":"similarity","trial_index":150,"time_elapsed":1208088,"internal_node_id":"0.0-6.0-144.0"},{"sim_score":5,"rt":5884,"stimulus":"[\"img/0874/93d1f8dc-acf2-4f03-bd8d-8ec35df276ed.jpg\",\"img/0873/0d9b4403-7f26-46dc-b0b7-2b97b0a91b46.jpg\"]","trial_type":"similarity","trial_index":151,"time_elapsed":1214984,"internal_node_id":"0.0-6.0-145.0"},{"sim_score":3,"rt":7232,"stimulus":"[\"img/0757/efa4466e-2951-4af9-b321-85458a89c2a7.jpg\",\"img/0758/a085b443-b5d7-4cb2-9ad4-b9dab0fc23f1.jpg\"]","trial_type":"similarity","trial_index":152,"time_elapsed":1223225,"internal_node_id":"0.0-6.0-146.0"},{"sim_score":4,"rt":6188,"stimulus":"[\"img/0883/68a56098-91b8-4c40-8827-7808704aa1bc.jpg\",\"img/0756/b5b6c1ba-df7c-4bac-94ac-786f45dbb140.jpg\"]","trial_type":"similarity","trial_index":153,"time_elapsed":1230429,"internal_node_id":"0.0-6.0-147.0"},{"sim_score":7,"rt":5922,"stimulus":"[\"img/0867/12264664-1860-46df-8c21-162b9817cdda.jpg\",\"img/0866/bf14b5bd-fb55-47db-86b9-4f8aeb9a6dad.jpg\"]","trial_type":"similarity","trial_index":154,"time_elapsed":1237360,"internal_node_id":"0.0-6.0-148.0"},{"sim_score":6,"rt":5592,"stimulus":"[\"img/0758/6cd8c362-ae2a-41eb-80a3-3a4f7ace1530.jpg\",\"img/0760/7cdb34e4-0556-4bf7-9a6f-05990a92e0f3.jpg\"]","trial_type":"similarity","trial_index":155,"time_elapsed":1243963,"internal_node_id":"0.0-6.0-149.0"},{"sim_score":5,"rt":4364,"stimulus":"[\"img/0757/e2cf79e3-9d9f-49eb-a09d-0028ca21d242.jpg\",\"img/0761/6b42b402-9e0f-4179-9e10-660b2c07626b.jpg\"]","trial_type":"similarity","trial_index":156,"time_elapsed":1249338,"internal_node_id":"0.0-6.0-150.0"},{"sim_score":6,"rt":4837,"stimulus":"[\"img/0761/53a65b48-8b0c-4a1d-9ebb-a27a259c5bc6.jpg\",\"img/0874/3ce41e7c-40c8-4d58-a546-171114521796.jpg\"]","trial_type":"similarity","trial_index":157,"time_elapsed":1255185,"internal_node_id":"0.0-6.0-151.0"},{"sim_score":5,"rt":5980,"stimulus":"[\"img/0761/47960f80-42b7-4397-a852-ec55d716c652.jpg\",\"img/0760/e697857f-b21d-4c49-8cde-1b803b437311.jpg\"]","trial_type":"similarity","trial_index":158,"time_elapsed":1262176,"internal_node_id":"0.0-6.0-152.0"},{"sim_score":6,"rt":10490,"stimulus":"[\"img/0866/be24ab58-230e-4db8-9f45-ff04c9aec6bb.jpg\",\"img/0866/a15b02be-11bb-43e3-b0e0-ecc3bd7dfc49.jpg\"]","trial_type":"similarity","trial_index":159,"time_elapsed":1273677,"internal_node_id":"0.0-6.0-153.0"},{"sim_score":4,"rt":5682,"stimulus":"[\"img/0866/386235d2-6857-41e7-88a8-25cfc3430025.jpg\",\"img/0862/4f0a3b4c-afbf-486e-b248-1d54982f54b4.jpg\"]","trial_type":"similarity","trial_index":160,"time_elapsed":1280366,"internal_node_id":"0.0-6.0-154.0"},{"sim_score":1,"rt":4339,"stimulus":"[\"img/0756/2bc961e4-b35f-4cfe-ba02-6f14fe3bdc10.jpg\",\"img/0862/fad1d7c1-8187-43c3-942a-0fc12183e48e.jpg\"]","trial_type":"similarity","trial_index":161,"time_elapsed":1285713,"internal_node_id":"0.0-6.0-155.0"},{"sim_score":5,"rt":7153,"stimulus":"[\"img/0860/4c530c3c-6aab-492a-94d1-9c01797bde40.jpg\",\"img/0866/93a27239-8317-4e08-98ca-d8b1ff298e07.jpg\"]","trial_type":"similarity","trial_index":162,"time_elapsed":1293876,"internal_node_id":"0.0-6.0-156.0"},{"sim_score":2,"rt":7052,"stimulus":"[\"img/0862/00c06b00-3b73-44e9-bc1e-c5aafb438321.jpg\",\"img/0958/acbadc39-e665-446d-b98f-ccd0ef3223d6.jpg\"]","trial_type":"similarity","trial_index":163,"time_elapsed":1301939,"internal_node_id":"0.0-6.0-157.0"},{"sim_score":2,"rt":18669,"stimulus":"[\"img/0761/8e379ec1-757d-4427-a0ff-d4efdd6a50c4.jpg\",\"img/0868/179a5502-ab5c-478e-8263-5a1fbcc101d2.jpg\"]","trial_type":"similarity","trial_index":164,"time_elapsed":1321619,"internal_node_id":"0.0-6.0-158.0"},{"sim_score":2,"rt":4451,"stimulus":"[\"img/0761/71d2e184-21b4-4711-97f3-e381c641da2c.jpg\",\"img/0886/bd45b474-5559-4ea5-83ff-140bce19f5fa.jpg\"]","trial_type":"similarity","trial_index":165,"time_elapsed":1327078,"internal_node_id":"0.0-6.0-159.0"},{"sim_score":4,"rt":3472,"stimulus":"[\"img/0874/bf14b896-e930-4fd9-9c05-2e83317a2773.jpg\",\"img/0868/09a9ef4d-d000-4cfa-a6aa-ebec7c2edeb4.jpg\"]","trial_type":"similarity","trial_index":166,"time_elapsed":1331560,"internal_node_id":"0.0-6.0-160.0"},{"sim_score":5,"rt":5325,"stimulus":"[\"img/0860/8a92e21b-6a32-4e4a-a445-2d5a487ed0a4.jpg\",\"img/0874/ca23d307-fc00-4d7d-9106-584c6eb21b4d.jpg\"]","trial_type":"similarity","trial_index":167,"time_elapsed":1337895,"internal_node_id":"0.0-6.0-161.0"},{"sim_score":3,"rt":4675,"stimulus":"[\"img/0883/122548fc-b3cc-445b-b7c0-04794df6d11d.jpg\",\"img/0867/aa05d113-fc19-4756-a8eb-7878f580bc92.jpg\"]","trial_type":"similarity","trial_index":168,"time_elapsed":1343579,"internal_node_id":"0.0-6.0-162.0"},{"sim_score":7,"rt":5424,"stimulus":"[\"img/0758/65d426d6-3ff6-415d-8654-a43b83ecc4fe.jpg\",\"img/0958/1812c506-727b-43a7-882e-4729742e41fc.jpg\"]","trial_type":"similarity","trial_index":169,"time_elapsed":1350011,"internal_node_id":"0.0-6.0-163.0"},{"sim_score":5,"rt":5561,"stimulus":"[\"img/0873/0c7f3d86-efda-4809-aac4-256ba01e0536.jpg\",\"img/0757/443a1d16-5d59-4e77-a670-d6190157c319.jpg\"]","trial_type":"similarity","trial_index":170,"time_elapsed":1356581,"internal_node_id":"0.0-6.0-164.0"},{"sim_score":6,"rt":5433,"stimulus":"[\"img/0873/33552b07-bdb8-423e-88b4-25a37f159c6d.jpg\",\"img/0866/945c6710-d15b-4a5b-a8f6-69af0850357f.jpg\"]","trial_type":"similarity","trial_index":171,"time_elapsed":1363023,"internal_node_id":"0.0-6.0-165.0"},{"sim_score":4,"rt":6176,"stimulus":"[\"img/0875/99698b4d-b4a1-44bc-8c83-8ea755bbbf61.jpg\",\"img/0867/f8159067-056c-41f1-a136-c529fe5e970a.jpg\"]","trial_type":"similarity","trial_index":172,"time_elapsed":1370208,"internal_node_id":"0.0-6.0-166.0"},{"sim_score":7,"rt":4364,"stimulus":"[\"img/0862/24cdc752-c2e5-4a17-86a6-6f2045d8553b.jpg\",\"img/0862/de9ad88c-b522-430a-8ee9-eb06a9f85df5.jpg\"]","trial_type":"similarity","trial_index":173,"time_elapsed":1383372,"internal_node_id":"0.0-6.0-167.0"},{"sim_score":3,"rt":8124,"stimulus":"[\"img/0875/2c361b79-c3d1-4eda-812e-bf03192407bf.jpg\",\"img/0886/e5903946-897c-4420-87c0-afee4100305c.jpg\"]","trial_type":"similarity","trial_index":174,"time_elapsed":1392508,"internal_node_id":"0.0-6.0-168.0"},{"sim_score":5,"rt":6044,"stimulus":"[\"img/0885/5225e532-2812-41d9-8ef0-0fbfc612784e.jpg\",\"img/0875/34132396-d896-4c2d-8087-646dd867e769.jpg\"]","trial_type":"similarity","trial_index":175,"time_elapsed":1399564,"internal_node_id":"0.0-6.0-169.0"},{"sim_score":3,"rt":7246,"stimulus":"[\"img/0862/99a99e39-8355-44ec-b993-e7bcec111e1c.jpg\",\"img/0867/6e19c858-b606-45b2-a4c6-910a73f1d82c.jpg\"]","trial_type":"similarity","trial_index":176,"time_elapsed":1407818,"internal_node_id":"0.0-6.0-170.0"},{"sim_score":3,"rt":7046,"stimulus":"[\"img/0884/baabff07-71d8-424e-ac29-644768380941.jpg\",\"img/0873/c3ff3b70-fb22-42f2-883c-3ecffd77cb4b.jpg\"]","trial_type":"similarity","trial_index":177,"time_elapsed":1415873,"internal_node_id":"0.0-6.0-171.0"},{"sim_score":6,"rt":6234,"stimulus":"[\"img/0873/a234d5d1-09ea-4594-9a0f-d569da31dbdb.jpg\",\"img/0958/df7705da-e817-409f-8a93-05abef4b26c3.jpg\"]","trial_type":"similarity","trial_index":178,"time_elapsed":1423120,"internal_node_id":"0.0-6.0-172.0"},{"sim_score":3,"rt":5378,"stimulus":"[\"img/0868/d6d1f30d-4323-435a-b194-7892521bc57e.jpg\",\"img/0758/d41c06bf-ebaf-454b-91c6-1a17f917b659.jpg\"]","trial_type":"similarity","trial_index":179,"time_elapsed":1429505,"internal_node_id":"0.0-6.0-173.0"},{"sim_score":3,"rt":5497,"stimulus":"[\"img/0757/10030bb1-70b8-4889-a8a5-ab50e145704d.jpg\",\"img/0874/1016b306-087c-4afc-aa08-fa527b28dc76.jpg\"]","trial_type":"similarity","trial_index":180,"time_elapsed":1436009,"internal_node_id":"0.0-6.0-174.0"},{"sim_score":6,"rt":5542,"stimulus":"[\"img/0958/eea2b7ca-1c37-4e76-ada7-a8b1f3afdc01.jpg\",\"img/0867/f8488a47-94ee-4166-952c-44e16cf172f6.jpg\"]","trial_type":"similarity","trial_index":181,"time_elapsed":1442561,"internal_node_id":"0.0-6.0-175.0"},{"sim_score":5,"rt":4577,"stimulus":"[\"img/0874/3f471690-9788-4d03-90c7-f615aecef149.jpg\",\"img/0760/4f024637-f98a-409a-baa0-fc4989d80667.jpg\"]","trial_type":"similarity","trial_index":182,"time_elapsed":1448150,"internal_node_id":"0.0-6.0-176.0"},{"sim_score":2,"rt":5396,"stimulus":"[\"img/0873/b76d7003-814d-42b0-9a16-1399c4b0e706.jpg\",\"img/0860/f44ba3fb-03a2-42f0-8509-2c1ded493086.jpg\"]","trial_type":"similarity","trial_index":183,"time_elapsed":1454558,"internal_node_id":"0.0-6.0-177.0"},{"sim_score":6,"rt":5731,"stimulus":"[\"img/0881/292e9b4b-fca0-4ba8-87f1-4048f9e37b7d.jpg\",\"img/0883/49aada36-b662-416c-93ae-9eab6598bfae.jpg\"]","trial_type":"similarity","trial_index":184,"time_elapsed":1461301,"internal_node_id":"0.0-6.0-178.0"},{"sim_score":3,"rt":8996,"stimulus":"[\"img/0886/0f9715c1-b2e4-418e-bf9b-126cc9e70dc6.jpg\",\"img/0958/86d1a76d-f067-4e36-9ab5-13da78c97c0e.jpg\"]","trial_type":"similarity","trial_index":185,"time_elapsed":1471308,"internal_node_id":"0.0-6.0-179.0"},{"sim_score":5,"rt":6694,"stimulus":"[\"img/0864/8ddd2e30-a1d0-479f-9cbe-591213023893.jpg\",\"img/0883/df1c6d22-bb1b-4eed-b4fe-eb5e46deacd4.jpg\"]","trial_type":"similarity","trial_index":186,"time_elapsed":1479014,"internal_node_id":"0.0-6.0-180.0"},{"sim_score":3,"rt":5287,"stimulus":"[\"img/0756/8fdfa93c-88d0-4311-be2d-7f799fcaa8de.jpg\",\"img/0868/1a62b2b2-18f5-466e-b564-5176a57c565e.jpg\"]","trial_type":"similarity","trial_index":187,"time_elapsed":1485311,"internal_node_id":"0.0-6.0-181.0"},{"sim_score":5,"rt":5555,"stimulus":"[\"img/0884/2348ce3f-5d2a-4a04-85ef-a65f05caa935.jpg\",\"img/0758/7ee8bc8f-c40b-4b3a-84ec-3e83580622d4.jpg\"]","trial_type":"similarity","trial_index":188,"time_elapsed":1491875,"internal_node_id":"0.0-6.0-182.0"},{"sim_score":4,"rt":5351,"stimulus":"[\"img/0875/a4935837-7d3c-4df6-88c1-36a94d4991ca.jpg\",\"img/0874/29830da7-be5f-44e5-b141-652a0ccf7269.jpg\"]","trial_type":"similarity","trial_index":189,"time_elapsed":1498236,"internal_node_id":"0.0-6.0-183.0"},{"sim_score":7,"rt":5734,"stimulus":"[\"img/0867/50a1b60e-3a29-44bf-b606-d4bd3746fea9.jpg\",\"img/0868/0d3abd3a-b6c3-4584-a9f7-e2da63748b3d.jpg\"]","trial_type":"similarity","trial_index":190,"time_elapsed":1504979,"internal_node_id":"0.0-6.0-184.0"},{"sim_score":5,"rt":5543,"stimulus":"[\"img/0881/667e2147-d457-4f32-aa5f-6ab86e5848f1.jpg\",\"img/0885/5a47e19f-19b4-4545-bf47-b508cb65da6a.jpg\"]","trial_type":"similarity","trial_index":191,"time_elapsed":1511532,"internal_node_id":"0.0-6.0-185.0"},{"sim_score":5,"rt":4899,"stimulus":"[\"img/0864/e336a4c5-6648-4fd7-b2f6-93a3fb83f8c6.jpg\",\"img/0761/af21c992-a721-45fb-bee7-f50c0f676c30.jpg\"]","trial_type":"similarity","trial_index":192,"time_elapsed":1517440,"internal_node_id":"0.0-6.0-186.0"},{"sim_score":3,"rt":4970,"stimulus":"[\"img/0885/0cdcdaca-f91e-4d4a-a6f6-dc90ab676435.jpg\",\"img/0874/a82926a3-0b43-4add-803c-d5f9ea7798ee.jpg\"]","trial_type":"similarity","trial_index":193,"time_elapsed":1523422,"internal_node_id":"0.0-6.0-187.0"},{"sim_score":2,"rt":4126,"stimulus":"[\"img/0758/2fa3e613-e676-4e6e-bd12-705327eeb3e1.jpg\",\"img/0867/de92135f-5b65-4ed9-b245-188292c7c2f8.jpg\"]","trial_type":"similarity","trial_index":194,"time_elapsed":1528557,"internal_node_id":"0.0-6.0-188.0"},{"sim_score":3,"rt":7069,"stimulus":"[\"img/0756/00b775eb-fe41-49b2-92e9-a9955cf1042b.jpg\",\"img/0884/fb8b0101-bfd2-462b-a942-d3202a69dd18.jpg\"]","trial_type":"similarity","trial_index":195,"time_elapsed":1536638,"internal_node_id":"0.0-6.0-189.0"},{"sim_score":2,"rt":4839,"stimulus":"[\"img/0761/176fde97-0334-4d2b-8a7a-38960c2528f3.jpg\",\"img/0862/ba89835a-408c-480b-8594-ed4ffa97eb5c.jpg\"]","trial_type":"similarity","trial_index":196,"time_elapsed":1542487,"internal_node_id":"0.0-6.0-190.0"},{"sim_score":1,"rt":4416,"stimulus":"[\"img/0860/e14d67c1-6d92-4f1e-9257-c8607159c19c.jpg\",\"img/0886/abd8dd83-d8ee-4003-b4d2-b4045220a578.jpg\"]","trial_type":"similarity","trial_index":197,"time_elapsed":1547915,"internal_node_id":"0.0-6.0-191.0"},{"sim_score":4,"rt":5218,"stimulus":"[\"img/0760/237fa1c2-d59d-4475-8d1e-f9a4eb71f989.jpg\",\"img/0885/fce9f22a-f769-477c-acee-a5ad8214f0a5.jpg\"]","trial_type":"similarity","trial_index":198,"time_elapsed":1554143,"internal_node_id":"0.0-6.0-192.0"},{"sim_score":2,"rt":5067,"stimulus":"[\"img/0886/97243e18-4dba-4af8-b49f-b3b635c90ac4.jpg\",\"img/0868/4a8a45ed-2c4f-421b-9564-409a33ecd26c.jpg\"]","trial_type":"similarity","trial_index":199,"time_elapsed":1560219,"internal_node_id":"0.0-6.0-193.0"},{"sim_score":7,"rt":6076,"stimulus":"[\"img/0881/2a8413be-fec2-4de6-88ad-614dd4cccc9d.jpg\",\"img/0864/6f631579-acf1-415c-a42c-1207f62a8d99.jpg\"]","trial_type":"similarity","trial_index":200,"time_elapsed":1567304,"internal_node_id":"0.0-6.0-194.0"},{"sim_score":6,"rt":4934,"stimulus":"[\"img/0866/620cd1aa-0800-4414-8f6e-90342e7a99ad.jpg\",\"img/0868/77091fc7-a590-4ebb-b915-fdb2483a2399.jpg\"]","trial_type":"similarity","trial_index":201,"time_elapsed":1573254,"internal_node_id":"0.0-6.0-195.0"},{"sim_score":6,"rt":5901,"stimulus":"[\"img/0864/65210d57-1153-4657-886a-32e758f49b4a.jpg\",\"img/0958/ef1b718f-ef8c-497f-80d7-42562aebf1a7.jpg\"]","trial_type":"similarity","trial_index":202,"time_elapsed":1580167,"internal_node_id":"0.0-6.0-196.0"},{"sim_score":1,"rt":4094,"stimulus":"[\"img/0757/a91bb71b-8c84-4999-8da7-f30e53ddc2a7.jpg\",\"img/0886/9f186bd5-d48b-4cc2-9206-be67c392faa9.jpg\"]","trial_type":"similarity","trial_index":203,"time_elapsed":1585269,"internal_node_id":"0.0-6.0-197.0"},{"sim_score":5,"rt":5159,"stimulus":"[\"img/0758/eabcd7a8-56ad-4fd2-bc24-90f6b7b33265.jpg\",\"img/0883/6884954b-873e-4d6f-9b4b-95d158e0de6c.jpg\"]","trial_type":"similarity","trial_index":204,"time_elapsed":1591436,"internal_node_id":"0.0-6.0-198.0"},{"sim_score":6,"rt":5440,"stimulus":"[\"img/0881/e6746727-7f89-47ec-b939-d98abe78372d.jpg\",\"img/0958/fd950403-e452-4018-8207-a9714addcd75.jpg\"]","trial_type":"similarity","trial_index":205,"time_elapsed":1597885,"internal_node_id":"0.0-6.0-199.0"},{"sim_score":5,"rt":4891,"stimulus":"[\"img/0958/ba5ed153-96de-4f61-b7d9-87a478c8972c.jpg\",\"img/0874/a3bc679d-619f-4db6-bb68-116dcb757d9c.jpg\"]","trial_type":"similarity","trial_index":206,"time_elapsed":1603787,"internal_node_id":"0.0-6.0-200.0"},{"sim_score":2,"rt":4304,"stimulus":"[\"img/0885/1cd940ef-9720-4a04-8fa1-1dd3a39ecdd6.jpg\",\"img/0860/87039971-2210-4aab-93c0-8e9b5f1655b2.jpg\"]","trial_type":"similarity","trial_index":207,"time_elapsed":1609101,"internal_node_id":"0.0-6.0-201.0"},{"sim_score":5,"rt":6469,"stimulus":"[\"img/0875/5a1e5100-0d94-4fec-bbe9-ca9894d2cf8e.jpg\",\"img/0881/566f45f8-5fed-4479-a60f-26377e60a62d.jpg\"]","trial_type":"similarity","trial_index":208,"time_elapsed":1616578,"internal_node_id":"0.0-6.0-202.0"},{"sim_score":2,"rt":7952,"stimulus":"[\"img/0758/53f35650-e455-4b53-8be4-c3c8271c6466.jpg\",\"img/0860/9593362c-9fe5-4d12-9735-6000a11f6aa5.jpg\"]","trial_type":"similarity","trial_index":209,"time_elapsed":1625540,"internal_node_id":"0.0-6.0-203.0"},{"sim_score":7,"rt":5338,"stimulus":"[\"img/0860/524b2e98-5767-4d53-942c-ebae6925659b.jpg\",\"img/0860/8fdba999-b946-4c7d-9891-336018b563ef.jpg\"]","trial_type":"similarity","trial_index":210,"time_elapsed":1631889,"internal_node_id":"0.0-6.0-204.0"},{"sim_score":6,"rt":6204,"stimulus":"[\"img/0874/85eb9b8a-c4c6-4e5a-b8e7-363a87a82054.jpg\",\"img/0874/c0378dac-9370-439a-8b79-db27c96fb390.jpg\"]","trial_type":"similarity","trial_index":211,"time_elapsed":1639106,"internal_node_id":"0.0-6.0-205.0"},{"sim_score":5,"rt":4852,"stimulus":"[\"img/0883/3b1366c6-7baa-4ad2-889c-1ff9c3b379c9.jpg\",\"img/0761/ff3e024b-951d-4aca-a168-c09c6507525d.jpg\"]","trial_type":"similarity","trial_index":212,"time_elapsed":1644967,"internal_node_id":"0.0-6.0-206.0"},{"sim_score":6,"rt":5352,"stimulus":"[\"img/0761/9199a691-d36e-4ece-a815-078384ea6f06.jpg\",\"img/0881/adc02f34-ce97-4aef-850f-00519df06fd7.jpg\"]","trial_type":"similarity","trial_index":213,"time_elapsed":1651329,"internal_node_id":"0.0-6.0-207.0"},{"sim_score":3,"rt":5184,"stimulus":"[\"img/0760/dfa71fdd-ddff-4827-a999-d5e599dd5679.jpg\",\"img/0756/6d2df7ce-35aa-4a5d-ab53-974d2c02034e.jpg\"]","trial_type":"similarity","trial_index":214,"time_elapsed":1657522,"internal_node_id":"0.0-6.0-208.0"},{"sim_score":1,"rt":4673,"stimulus":"[\"img/0885/21b241a1-95da-4306-9cf2-cc52a784214a.jpg\",\"img/0757/b46cab21-50e3-4f19-803d-682627bcd6a6.jpg\"]","trial_type":"similarity","trial_index":215,"time_elapsed":1668150,"internal_node_id":"0.0-6.0-209.0"},{"view_history":"[{\"page_index\":0,\"viewing_time\":8796}]","rt":8797,"trial_type":"instructions","trial_index":216,"time_elapsed":1677949,"internal_node_id":"0.0-7.0"},{"rt":78007,"responses":"{\"Q0\":\"Tennessee Warbler\"}","answer":["Orange-crowned Warbler"],"trial_type":"image-multi-choice","trial_index":217,"time_elapsed":1757021,"internal_node_id":"0.0-8.0-0.0"},{"rt":4822,"responses":"{\"Q0\":\"Wilson's Warbler\"}","answer":["Wilson's Warbler"],"trial_type":"image-multi-choice","trial_index":218,"time_elapsed":1762878,"internal_node_id":"0.0-8.0-1.0"},{"rt":4451,"responses":"{\"Q0\":\"Blackpoll Warbler\"}","answer":["Blackpoll Warbler"],"trial_type":"image-multi-choice","trial_index":219,"time_elapsed":1768358,"internal_node_id":"0.0-8.0-2.0"},{"rt":5180,"responses":"{\"Q0\":\"Black-and-white Warbler\"}","answer":["Black-and-white Warbler"],"trial_type":"image-multi-choice","trial_index":220,"time_elapsed":1774571,"internal_node_id":"0.0-8.0-3.0"},{"rt":4524,"responses":"{\"Q0\":\"Yellow-breasted Chat\"}","answer":["Yellow-breasted Chat"],"trial_type":"image-multi-choice","trial_index":221,"time_elapsed":1780132,"internal_node_id":"0.0-8.0-4.0"},{"rt":20401,"responses":"{\"Q0\":\"Canada Warbler\"}","answer":["Canada Warbler"],"trial_type":"image-multi-choice","trial_index":222,"time_elapsed":1801568,"internal_node_id":"0.0-8.0-5.0"},{"rt":5683,"responses":"{\"Q0\":\"Common Yellowthroat\"}","answer":["Common Yellowthroat"],"trial_type":"image-multi-choice","trial_index":223,"time_elapsed":1808282,"internal_node_id":"0.0-8.0-6.0"},{"rt":3948,"responses":"{\"Q0\":\"American Redstart\"}","answer":["American Redstart"],"trial_type":"image-multi-choice","trial_index":224,"time_elapsed":1813263,"internal_node_id":"0.0-8.0-7.0"},{"rt":5746,"responses":"{\"Q0\":\"Chestnut-sided Warbler\"}","answer":["Chestnut-sided Warbler"],"trial_type":"image-multi-choice","trial_index":225,"time_elapsed":1820043,"internal_node_id":"0.0-8.0-8.0"},{"rt":3687,"responses":"{\"Q0\":\"Black-throated Green Warbler\"}","answer":["Black-throated Green Warbler"],"trial_type":"image-multi-choice","trial_index":226,"time_elapsed":1824763,"internal_node_id":"0.0-8.0-9.0"},{"rt":34928,"responses":"{\"Q0\":\"Yellow-rumped Warbler\"}","answer":["Blackburnian Warbler"],"trial_type":"image-multi-choice","trial_index":227,"time_elapsed":1860727,"internal_node_id":"0.0-8.0-10.0"},{"rt":15199,"responses":"{\"Q0\":\"Northern Parula\"}","answer":["Yellow-rumped Warbler"],"trial_type":"image-multi-choice","trial_index":228,"time_elapsed":1876974,"internal_node_id":"0.0-8.0-11.0"},{"rt":4435,"responses":"{\"Q0\":\"Ovenbird\"}","answer":["Ovenbird"],"trial_type":"image-multi-choice","trial_index":229,"time_elapsed":1882448,"internal_node_id":"0.0-8.0-12.0"},{"rt":29062,"responses":"{\"Q0\":\"Blackburnian Warbler\"}","answer":["Townsend's Warbler"],"trial_type":"image-multi-choice","trial_index":230,"time_elapsed":1912538,"internal_node_id":"0.0-8.0-13.0"},{"rt":7316,"responses":"{\"Q0\":\"Northern Waterthrush\"}","answer":["Northern Waterthrush"],"trial_type":"image-multi-choice","trial_index":231,"time_elapsed":1920881,"internal_node_id":"0.0-8.0-14.0"},{"rt":3956,"responses":"{\"Q0\":\"Yellow Warbler\"}","answer":["Yellow Warbler"],"trial_type":"image-multi-choice","trial_index":232,"time_elapsed":1925875,"internal_node_id":"0.0-8.0-15.0"},{"rt":21995,"responses":"{\"Q0\":\"Nashville Warbler\"}","answer":["Nashville Warbler"],"trial_type":"image-multi-choice","trial_index":233,"time_elapsed":1948918,"internal_node_id":"0.0-8.0-16.0"},{"rt":56551,"responses":"{\"Q0\":\"Tennessee Warbler\"}","answer":["Northern Parula"],"trial_type":"image-multi-choice","trial_index":234,"time_elapsed":2006499,"internal_node_id":"0.0-8.0-17.0"},{"rt":8761,"responses":"{\"Q0\":\"Tennessee Warbler\"}","answer":["Tennessee Warbler"],"trial_type":"image-multi-choice","trial_index":235,"time_elapsed":2016297,"internal_node_id":"0.0-8.0-18.0"},{"rt":12841,"responses":"{\"Q0\":\"Magnolia Warbler\"}","answer":["Magnolia Warbler"],"trial_type":"image-multi-choice","trial_index":236,"time_elapsed":2030179,"internal_node_id":"0.0-8.0-19.0"}]