"view_history","rt","trial_type","trial_index","time_elapsed","internal_node_id","sim_score","stimulus","responses","answer"
"[{""page_index"":0,""viewing_time"":12602}]","12602","instructions","0","12603","0.0-0.0","","","",""
"","9727","similarity_demo","1","23335","0.0-1.0","7","[""img/bluejay1.jpg"",""img/bluejay2.jpg""]","",""
"[{""page_index"":0,""viewing_time"":5315}]","5316","instructions","2","29656","0.0-2.0","","","",""
"","7895","similarity_demo","3","38556","0.0-3.0","1","[""img/bluejay1.jpg"",""img/cardinal1.jpg""]","",""
"[{""page_index"":0,""viewing_time"":6408}]","6409","instructions","4","45969","0.0-4.0","","","",""
"[{""page_index"":0,""viewing_time"":23521}]","23521","instructions","5","70494","0.0-5.0","","","",""
"","5746","similarity","6","77245","0.0-6.0-0.0","1","[""img/0864/e8bd659f-aa43-4748-877e-3118e8b4e189.jpg"",""img/0860/e8b8c51e-1834-4875-8b61-6c5bc9b178bd.jpg""]","",""
"","5856","similarity","7","84107","0.0-6.0-1.0","1","[""img/0884/fb8b0101-bfd2-462b-a942-d3202a69dd18.jpg"",""img/0760/191d8576-9ed7-4798-a486-66a7fd600e58.jpg""]","",""
"","4059","similarity","8","89170","0.0-6.0-2.0","1","[""img/0886/451550d7-6ff9-42b5-938c-9e20ee960bf6.jpg"",""img/0881/62a64f90-7a72-4aee-a1a1-0c548ac9bdda.jpg""]","",""
"","3900","similarity","9","94075","0.0-6.0-3.0","1","[""img/0866/8efcaa46-83ab-4dee-a35f-850402aa21ae.jpg"",""img/0881/0c7068da-d0d9-4103-bda1-74ef7a2b32c3.jpg""]","",""
"","7174","similarity","10","102254","0.0-6.0-4.0","3","[""img/0868/3a62db2d-97e9-44a3-b8e3-a48c6f0e423b.jpg"",""img/0885/8960bf05-34df-4a86-a9b2-6087c70e61d3.jpg""]","",""
"","4001","similarity","11","107260","0.0-6.0-5.0","1","[""img/0757/31d8ee3d-1b79-4d6a-9347-f91c87c00f92.jpg"",""img/0866/620cd1aa-0800-4414-8f6e-90342e7a99ad.jpg""]","",""
"","4667","similarity","12","112930","0.0-6.0-6.0","1","[""img/0868/d98ca254-b195-477f-b57e-5760a2717db8.jpg"",""img/0864/66091c27-e588-4476-8af9-265dc6be4156.jpg""]","",""
"","5015","similarity","13","118949","0.0-6.0-7.0","7","[""img/0864/a248adb3-c70b-4652-b7a3-776d2a1e904b.jpg"",""img/0864/afcba0a3-7e27-4757-b254-e9f05fad27e2.jpg""]","",""
"","4248","similarity","14","124203","0.0-6.0-8.0","1","[""img/0757/efa4466e-2951-4af9-b321-85458a89c2a7.jpg"",""img/0881/1407b85b-a1c6-45b1-9884-3b24203efadb.jpg""]","",""
"","3946","similarity","15","129153","0.0-6.0-9.0","1","[""img/0886/1e8c0f89-c766-41c9-b522-83c342048f34.jpg"",""img/0760/fc99ba9e-e7fa-443b-9ba0-2b3c76930893.jpg""]","",""
"","4597","similarity","16","134755","0.0-6.0-10.0","1","[""img/0884/967c63af-8f6a-483f-9122-0c79d97fd22e.jpg"",""img/0883/cc3df660-426e-452e-ac50-3a3b09dc4b65.jpg""]","",""
"","3282","similarity","17","139042","0.0-6.0-11.0","1","[""img/0874/767f289c-9814-4496-803f-745cc8913d1f.jpg"",""img/0862/4f0a3b4c-afbf-486e-b248-1d54982f54b4.jpg""]","",""
"","3324","similarity","18","143373","0.0-6.0-12.0","1","[""img/0862/f43ceabf-acc1-4107-b857-5d1849808f93.jpg"",""img/0875/2e13d160-eea1-416b-aff1-d37ab99ecc1d.jpg""]","",""
"","3639","similarity","19","148019","0.0-6.0-13.0","1","[""img/0875/cff79b3a-a797-4393-9757-6275f999ec04.jpg"",""img/0757/cb7ca802-27ac-4a1d-996f-bd21b96d6244.jpg""]","",""
"","3259","similarity","20","152283","0.0-6.0-14.0","1","[""img/0875/42910c99-5463-450a-a0f8-d4d060a11455.jpg"",""img/0860/5383b320-1518-4095-a58e-5cc1ae30b64c.jpg""]","",""
"","3560","similarity","21","156851","0.0-6.0-15.0","1","[""img/0860/c5ccd1a4-4bb7-48e1-9b25-72cfaf06909b.jpg"",""img/0881/344de456-b358-4887-bd0e-e4c3278af887.jpg""]","",""
"","3160","similarity","22","161013","0.0-6.0-16.0","1","[""img/0885/1cd940ef-9720-4a04-8fa1-1dd3a39ecdd6.jpg"",""img/0884/a8f7b854-0010-4c7a-a8fb-b1b1dc1f1ba1.jpg""]","",""
"","7390","similarity","23","169406","0.0-6.0-17.0","5","[""img/0761/5747fedf-15f2-47fe-87c8-ff646dd66a5f.jpg"",""img/0761/07f8178b-8ce5-42d6-bca0-a0ae0e0e8eb3.jpg""]","",""
"","3531","similarity","24","173940","0.0-6.0-18.0","1","[""img/0760/dfa71fdd-ddff-4827-a999-d5e599dd5679.jpg"",""img/0864/0f537697-a314-47c3-a8cc-8df23b7e536c.jpg""]","",""
"","3123","similarity","25","178069","0.0-6.0-19.0","1","[""img/0864/e02eddb5-f468-499c-91bf-f7be3ffe979b.jpg"",""img/0875/5a716432-c6ca-4b1c-955a-2b8ac25198ee.jpg""]","",""
"","3549","similarity","26","182626","0.0-6.0-20.0","1","[""img/0874/8cdb1c07-1c32-46d2-981c-3636560fa6e5.jpg"",""img/0884/592da15b-09e4-46b5-81e7-bab08a1c33e9.jpg""]","",""
"","3469","similarity","27","187102","0.0-6.0-21.0","1","[""img/0885/517a9189-9623-4ed7-a37e-48788791e028.jpg"",""img/0866/a04d37f0-99dd-478a-b6c6-58b215138f84.jpg""]","",""
"","5654","similarity","28","193762","0.0-6.0-22.0","5","[""img/0868/179a5502-ab5c-478e-8263-5a1fbcc101d2.jpg"",""img/0868/e0aff734-077f-40dd-9781-74821abd3621.jpg""]","",""
"","3384","similarity","29","198150","0.0-6.0-23.0","1","[""img/0757/fd3c82c8-3311-4fae-bcec-10559587910a.jpg"",""img/0756/64441928-baa3-49c8-a605-ee2370389b9f.jpg""]","",""
"","5723","similarity","30","204878","0.0-6.0-24.0","5","[""img/0875/03c3c331-738b-4446-af92-3d7386b08c2e.jpg"",""img/0875/99698b4d-b4a1-44bc-8c83-8ea755bbbf61.jpg""]","",""
"","4215","similarity","31","210098","0.0-6.0-25.0","1","[""img/0761/ff3e024b-951d-4aca-a168-c09c6507525d.jpg"",""img/0866/386235d2-6857-41e7-88a8-25cfc3430025.jpg""]","",""
"","3824","similarity","32","214924","0.0-6.0-26.0","1","[""img/0866/23a224f3-2012-4fc8-8e0f-3c36f8de27fd.jpg"",""img/0758/d540bee6-b460-4c32-ac57-bc282742d7d4.jpg""]","",""
"","4179","similarity","33","220110","0.0-6.0-27.0","1","[""img/0758/2fa3e613-e676-4e6e-bd12-705327eeb3e1.jpg"",""img/0875/a4935837-7d3c-4df6-88c1-36a94d4991ca.jpg""]","",""
"","3167","similarity","34","224284","0.0-6.0-28.0","1","[""img/0958/96f89270-febc-4f09-b8c3-53a249ff00ea.jpg"",""img/0757/20c59f64-1fc2-448d-8423-42cbd8fe0164.jpg""]","",""
"","4205","similarity","35","229493","0.0-6.0-29.0","1","[""img/0873/7dddc95f-ca6e-4d15-99a0-0e329ec6888e.jpg"",""img/0883/3b1366c6-7baa-4ad2-889c-1ff9c3b379c9.jpg""]","",""
"","3734","similarity","36","234229","0.0-6.0-30.0","1","[""img/0868/83b4350a-3b70-4cea-b7f5-b5b56f3050a8.jpg"",""img/0875/34132396-d896-4c2d-8087-646dd867e769.jpg""]","",""
"","3958","similarity","37","239190","0.0-6.0-31.0","1","[""img/0884/2348ce3f-5d2a-4a04-85ef-a65f05caa935.jpg"",""img/0862/1c20f772-3a51-4a80-aac0-f57dc9f86c28.jpg""]","",""
"","3946","similarity","38","244141","0.0-6.0-32.0","1","[""img/0884/10c0a35b-e20a-4d75-a7c0-959a578d9ebf.jpg"",""img/0864/8ddd2e30-a1d0-479f-9cbe-591213023893.jpg""]","",""
"","4124","similarity","39","249271","0.0-6.0-33.0","1","[""img/0883/5716bfb3-e86c-42fe-8afa-58d226cb1aaa.jpg"",""img/0958/0a8f72c4-0c73-4d58-be6f-5e4613b87409.jpg""]","",""
"","3842","similarity","40","254120","0.0-6.0-34.0","1","[""img/0864/e336a4c5-6648-4fd7-b2f6-93a3fb83f8c6.jpg"",""img/0756/dbe25ae4-de3f-44b2-907f-6f2fc03ed1f0.jpg""]","",""
"","3472","similarity","41","258597","0.0-6.0-35.0","1","[""img/0874/adf9a8f1-c40b-402b-b95b-1e85a54a7b62.jpg"",""img/0758/53f35650-e455-4b53-8be4-c3c8271c6466.jpg""]","",""
"","3249","similarity","42","262850","0.0-6.0-36.0","1","[""img/0886/abd8dd83-d8ee-4003-b4d2-b4045220a578.jpg"",""img/0862/f23038d4-c366-4f70-979f-66b62362efa4.jpg""]","",""
"","3202","similarity","43","267057","0.0-6.0-37.0","1","[""img/0862/92f0146c-20c4-482e-aef5-adb693790338.jpg"",""img/0885/a4e5c564-1e5f-4fed-9f73-b8d1becf62b6.jpg""]","",""
"","4665","similarity","44","272727","0.0-6.0-38.0","5","[""img/0758/20497cbe-ddae-489e-86e2-ab06985ed07c.jpg"",""img/0864/300bb811-8b3c-4c42-8653-6097c3725197.jpg""]","",""
"","5388","similarity","45","279118","0.0-6.0-39.0","5","[""img/0873/33552b07-bdb8-423e-88b4-25a37f159c6d.jpg"",""img/0867/a498eef3-9fa4-4ab2-9778-4ae82ac40dc5.jpg""]","",""
"","6264","similarity","46","286385","0.0-6.0-40.0","1","[""img/0958/86d1a76d-f067-4e36-9ab5-13da78c97c0e.jpg"",""img/0884/e275ab3e-0948-43c3-8be7-a75271922185.jpg""]","",""
"","4555","similarity","47","299818","0.0-6.0-41.0","1","[""img/0873/0c7f3d86-efda-4809-aac4-256ba01e0536.jpg"",""img/0873/a234d5d1-09ea-4594-9a0f-d569da31dbdb.jpg""]","",""
"","4475","similarity","48","305297","0.0-6.0-42.0","1","[""img/0886/d1e40478-2fe0-404f-8409-920da98a96a2.jpg"",""img/0758/7ee8bc8f-c40b-4b3a-84ec-3e83580622d4.jpg""]","",""
"","4127","similarity","49","310427","0.0-6.0-43.0","1","[""img/0883/387a9e30-7d95-483e-af34-c8262f62385f.jpg"",""img/0874/ca23d307-fc00-4d7d-9106-584c6eb21b4d.jpg""]","",""
"","2966","similarity","50","314398","0.0-6.0-44.0","1","[""img/0881/6b1189e6-232d-4042-8885-16dc7b10e0d4.jpg"",""img/0873/c4b47588-9c66-4401-aefc-cf9481d5fa85.jpg""]","",""
"","3046","similarity","51","318448","0.0-6.0-45.0","1","[""img/0867/2e1a0b58-cdb1-4107-a14e-452530d7b9b0.jpg"",""img/0757/4f8ae92b-a4ab-4020-b4fb-80c5615e76ac.jpg""]","",""
"","6734","similarity","52","326188","0.0-6.0-46.0","3","[""img/0866/d493a2c8-66eb-44b4-be02-2f327b700b7c.jpg"",""img/0874/bf14b896-e930-4fd9-9c05-2e83317a2773.jpg""]","",""
"","6252","similarity","53","333445","0.0-6.0-47.0","7","[""img/0886/4d28f75a-a9c3-49dd-8aa8-00304af6e40b.jpg"",""img/0886/e5903946-897c-4420-87c0-afee4100305c.jpg""]","",""
"","4082","similarity","54","338530","0.0-6.0-48.0","1","[""img/0883/df1c6d22-bb1b-4eed-b4fe-eb5e46deacd4.jpg"",""img/0860/702bd09d-df3a-40aa-a267-5f04474305b5.jpg""]","",""
"","3103","similarity","55","342636","0.0-6.0-49.0","1","[""img/0860/99c589b9-9140-4d17-90c0-b344323edcda.jpg"",""img/0756/09fde3d3-27c5-435e-b68f-5410beb04e99.jpg""]","",""
"","3077","similarity","56","346719","0.0-6.0-50.0","1","[""img/0860/4a022222-056d-461c-ab02-39fac9647552.jpg"",""img/0757/b46cab21-50e3-4f19-803d-682627bcd6a6.jpg""]","",""
"","5251","similarity","57","352975","0.0-6.0-51.0","5","[""img/0756/6d2df7ce-35aa-4a5d-ab53-974d2c02034e.jpg"",""img/0756/b8d6aa83-8673-4e0d-be72-b3da2bae7a6d.jpg""]","",""
"","5251","similarity","58","359230","0.0-6.0-52.0","5","[""img/0875/5a7c4e35-6514-4e12-8879-d16071da4cd6.jpg"",""img/0866/c446214b-a368-4c65-ae39-ea46894256ab.jpg""]","",""
"","3733","similarity","59","363966","0.0-6.0-53.0","1","[""img/0756/c7199ce2-2203-43c6-90d7-78f77277b522.jpg"",""img/0758/eabcd7a8-56ad-4fd2-bc24-90f6b7b33265.jpg""]","",""
"","4216","similarity","60","369187","0.0-6.0-54.0","1","[""img/0761/9199a691-d36e-4ece-a815-078384ea6f06.jpg"",""img/0884/ee845634-cd54-4c06-95a9-962122ef8712.jpg""]","",""
"","3531","similarity","61","373720","0.0-6.0-55.0","1","[""img/0760/9daf8012-19c4-498f-8f51-81ec001a83be.jpg"",""img/0867/ac1797e4-8afc-48fe-b252-86d1defb1cca.jpg""]","",""
"","3043","similarity","62","377770","0.0-6.0-56.0","1","[""img/0866/4a87911a-d5be-4d4e-ab8e-3d1f581bf507.jpg"",""img/0884/13db1f36-8c9f-4b28-8426-04eaa9fba737.jpg""]","",""
"","2979","similarity","63","381753","0.0-6.0-57.0","1","[""img/0756/96c1bf35-26b6-4428-b19d-bdb5efe1367a.jpg"",""img/0761/af21c992-a721-45fb-bee7-f50c0f676c30.jpg""]","",""
"","2946","similarity","64","385701","0.0-6.0-58.0","1","[""img/0867/075e0f95-856b-4cbb-acf5-092393aaf04e.jpg"",""img/0860/524b2e98-5767-4d53-942c-ebae6925659b.jpg""]","",""
"","6193","similarity","65","392902","0.0-6.0-59.0","3","[""img/0881/4bd34581-94d8-4e88-8c89-5cef864ca3be.jpg"",""img/0758/d41c06bf-ebaf-454b-91c6-1a17f917b659.jpg""]","",""
"","4057","similarity","66","397964","0.0-6.0-60.0","1","[""img/0761/014e76d0-fb4e-4b40-901c-7a2d5655c3b0.jpg"",""img/0758/61d64021-9214-4951-bdf8-f871f9827cf9.jpg""]","",""
"","3788","similarity","67","402757","0.0-6.0-61.0","1","[""img/0958/9be61b1d-099b-432a-ae0e-2aa69e157c0e.jpg"",""img/0875/3ecb367d-e9eb-4826-8aaa-7aa72fb98019.jpg""]","",""
"","3875","similarity","68","407639","0.0-6.0-62.0","1","[""img/0886/9b0bffbe-9237-404d-a0ba-a1982e0814c7.jpg"",""img/0864/b3c4e378-28f0-4699-9338-2a257b4bca04.jpg""]","",""
"","2650","similarity","69","411296","0.0-6.0-63.0","1","[""img/0756/2d59e6c9-df29-4c76-a030-db83f23c8b9b.jpg"",""img/0874/3f471690-9788-4d03-90c7-f615aecef149.jpg""]","",""
"","2953","similarity","70","415256","0.0-6.0-64.0","1","[""img/0758/821c68d3-5cb0-4eae-8659-30e6263fca39.jpg"",""img/0885/ef0386f3-e5d4-481b-8894-60b80e08bbe8.jpg""]","",""
"","5024","similarity","71","421286","0.0-6.0-65.0","3","[""img/0760/afe7a178-4458-4bdd-a0ad-0cffc57eadc3.jpg"",""img/0958/5a91b0e8-8f60-4625-b88c-d6e55b4d7d93.jpg""]","",""
"","3189","similarity","72","425482","0.0-6.0-66.0","1","[""img/0884/3c61ea12-a408-47ce-98aa-b14e0f6d4591.jpg"",""img/0881/adc02f34-ce97-4aef-850f-00519df06fd7.jpg""]","",""
"","4217","similarity","73","430702","0.0-6.0-67.0","1","[""img/0864/efcfbb1b-8197-44c9-b723-40d6c608dd3c.jpg"",""img/0873/90b702a6-3dba-446a-9bba-a2ee096baf49.jpg""]","",""
"","2912","similarity","74","434617","0.0-6.0-68.0","1","[""img/0862/847e5208-38ec-4f36-949c-296cdd7424ee.jpg"",""img/0758/e1ba5e53-addc-436a-b428-d34fc1b130dc.jpg""]","",""
"","5420","similarity","75","441041","0.0-6.0-69.0","1","[""img/0757/91a048c0-e749-433b-9147-0c671dc5b4ca.jpg"",""img/0757/8993d166-c8ae-43f6-b269-9e8bd3379d57.jpg""]","",""
"","3697","similarity","76","445743","0.0-6.0-70.0","1","[""img/0860/71e1aad0-2cdf-43bb-94a4-a8c016997c30.jpg"",""img/0862/00c06b00-3b73-44e9-bc1e-c5aafb438321.jpg""]","",""
"","2899","similarity","77","449648","0.0-6.0-71.0","1","[""img/0860/61fb959d-d4d9-4de4-9e4e-4fa62b4cfcd5.jpg"",""img/0884/d9185264-7f01-43b2-be7f-eed1a0f0f2e8.jpg""]","",""
"","3898","similarity","78","454553","0.0-6.0-72.0","1","[""img/0883/eff15ce5-9393-443c-829f-71242d1c56d0.jpg"",""img/0866/11a1d141-be5e-443c-98c1-a9d4d9e3dec0.jpg""]","",""
"","5298","similarity","79","460853","0.0-6.0-73.0","1","[""img/0866/0207e9a2-7dbb-40b5-9459-b472aaeceb2a.jpg"",""img/0886/789f5d23-84b8-499a-ae1e-20c6309a06ae.jpg""]","",""
"","4787","similarity","80","466646","0.0-6.0-74.0","1","[""img/0958/7168f8d3-e3ae-405a-93d0-64836d899932.jpg"",""img/0761/176fde97-0334-4d2b-8a7a-38960c2528f3.jpg""]","",""
"","3194","similarity","81","470843","0.0-6.0-75.0","1","[""img/0875/e7e66b13-b573-431e-b85e-288ce04a35a3.jpg"",""img/0756/653c7580-fa90-45bb-828a-eb9d05a6b1c7.jpg""]","",""
"","3675","similarity","82","475523","0.0-6.0-76.0","1","[""img/0958/ebea41e3-9d65-4f5e-981a-92daaaad0d57.jpg"",""img/0885/21b241a1-95da-4306-9cf2-cc52a784214a.jpg""]","",""
"","3631","similarity","83","480158","0.0-6.0-77.0","1","[""img/0868/0d3abd3a-b6c3-4584-a9f7-e2da63748b3d.jpg"",""img/0883/02f50df0-eb8c-4e17-836a-c89ddb1c04e1.jpg""]","",""
"","3798","similarity","84","484962","0.0-6.0-78.0","1","[""img/0862/fb26cb07-d5a9-4653-813c-f41609f26cd5.jpg"",""img/0760/5f9bd780-65e3-43ab-a3a3-73a1cc87d5a2.jpg""]","",""
"","3935","similarity","85","489900","0.0-6.0-79.0","1","[""img/0885/f4ed5442-1f5c-4a69-abe6-8336ed11ec77.jpg"",""img/0761/71d2e184-21b4-4711-97f3-e381c641da2c.jpg""]","",""
"","4777","similarity","86","495683","0.0-6.0-80.0","1","[""img/0862/57b6f83f-c763-4858-830d-102f97bfefbf.jpg"",""img/0864/1ebbc554-99fa-49f9-8799-317375a79820.jpg""]","",""
"","4137","similarity","87","500825","0.0-6.0-81.0","7","[""img/0758/335851a0-a55b-46d8-ab05-8463eda48349.jpg"",""img/0758/b76ceca7-95ac-46e4-ac13-da02c8e93be9.jpg""]","",""
"","3134","similarity","88","504964","0.0-6.0-82.0","1","[""img/0862/47ed5efd-4ec9-4b74-bb4e-a5f5cf0c3e7d.jpg"",""img/0873/87f38f18-48a2-4de3-b24b-70630e8b6ca0.jpg""]","",""
"","3473","similarity","89","513008","0.0-6.0-83.0","1","[""img/0760/39d75e1e-0645-4f23-a2ca-3bbefac19d69.jpg"",""img/0757/8fdf4047-c2dc-42bc-9724-c35bd113f1dc.jpg""]","",""
"","2908","similarity","90","516923","0.0-6.0-84.0","1","[""img/0867/8ba0c5a7-c7e4-42cf-a80a-543763b90779.jpg"",""img/0881/f62bdcd1-a4b7-4d48-83da-d9c9e01c8727.jpg""]","",""
"","3709","similarity","91","521637","0.0-6.0-85.0","1","[""img/0885/eb5e4557-1792-49c3-8871-16afa58f3a28.jpg"",""img/0886/b8648eb5-de71-41ab-825d-848e51be8c1b.jpg""]","",""
"","4049","similarity","92","526689","0.0-6.0-86.0","1","[""img/0866/93a27239-8317-4e08-98ca-d8b1ff298e07.jpg"",""img/0864/49150900-7f25-4ce8-8d10-9b47a71d1997.jpg""]","",""
"","4555","similarity","93","532246","0.0-6.0-87.0","1","[""img/0874/a3bc679d-619f-4db6-bb68-116dcb757d9c.jpg"",""img/0881/4da99fdd-1f40-4bbb-8e21-8833eef313f5.jpg""]","",""
"","3742","similarity","94","536994","0.0-6.0-88.0","1","[""img/0866/bf14b5bd-fb55-47db-86b9-4f8aeb9a6dad.jpg"",""img/0760/57510c7a-e5a9-420e-9b3f-f7423746f67c.jpg""]","",""
"","3217","similarity","95","541213","0.0-6.0-89.0","1","[""img/0867/c71dc569-f49c-4397-8381-68b8d726736d.jpg"",""img/0884/05d9bfb9-44a6-4ab4-92fa-d17e5b2b4f33.jpg""]","",""
"","3205","similarity","96","545420","0.0-6.0-90.0","1","[""img/0757/417763f8-6fe7-44f2-acaa-613a44f20835.jpg"",""img/0862/24cdc752-c2e5-4a17-86a6-6f2045d8553b.jpg""]","",""
"","2980","similarity","97","549403","0.0-6.0-91.0","1","[""img/0867/f26f6b60-f772-4f4c-95a4-addc62cfd692.jpg"",""img/0761/3599fa54-18f9-488e-b402-e851c43586ff.jpg""]","",""
"","3667","similarity","98","554072","0.0-6.0-92.0","1","[""img/0868/1a62b2b2-18f5-466e-b564-5176a57c565e.jpg"",""img/0958/ba5ed153-96de-4f61-b7d9-87a478c8972c.jpg""]","",""
"","3492","similarity","99","558572","0.0-6.0-93.0","1","[""img/0874/eba003b4-cdab-4eee-8bc3-f064c7d94165.jpg"",""img/0864/3651d070-2fc5-4848-b6a6-088a2d9ac5c9.jpg""]","",""
"","4170","similarity","100","563747","0.0-6.0-94.0","1","[""img/0760/cbd28974-989a-49dd-b631-42de146d7e6f.jpg"",""img/0873/c2a7452d-a271-4207-81ce-bda281dc0297.jpg""]","",""
"","5388","similarity","101","570136","0.0-6.0-95.0","1","[""img/0868/15dd6fd7-791e-4b53-b203-195d617521a4.jpg"",""img/0873/226317e0-f0e7-42ea-907b-058cb1ad519a.jpg""]","",""
"","3273","similarity","102","574412","0.0-6.0-96.0","1","[""img/0860/17b44a7d-c5ca-479f-9e87-f65a64f5c80e.jpg"",""img/0761/aebad236-1f4a-4bc2-a74d-d92b7e226316.jpg""]","",""
"","2954","similarity","103","578372","0.0-6.0-97.0","1","[""img/0862/fad1d7c1-8187-43c3-942a-0fc12183e48e.jpg"",""img/0883/daaa1a6f-c322-46f6-b6a6-db2c9496d710.jpg""]","",""
"","2955","similarity","104","582332","0.0-6.0-98.0","1","[""img/0757/e2cf79e3-9d9f-49eb-a09d-0028ca21d242.jpg"",""img/0884/baabff07-71d8-424e-ac29-644768380941.jpg""]","",""
"","3878","similarity","105","587214","0.0-6.0-99.0","1","[""img/0867/26611f4e-d694-4460-b7e2-43c62753ddc3.jpg"",""img/0756/a8246880-fb51-43bb-b25d-905e6e0d7880.jpg""]","",""
"","3349","similarity","106","591568","0.0-6.0-100.0","1","[""img/0958/bb684a39-afef-4125-9f70-b5ad830ba316.jpg"",""img/0756/8ab56efe-fef0-45cc-ab57-82597f83b26a.jpg""]","",""
"","5015","similarity","107","597587","0.0-6.0-101.0","5","[""img/0760/237fa1c2-d59d-4475-8d1e-f9a4eb71f989.jpg"",""img/0760/111aecf1-147c-4227-90e0-9ed3a75e4e16.jpg""]","",""
"","3080","similarity","108","601671","0.0-6.0-102.0","1","[""img/0873/ec150e40-b3ec-4dfe-ab38-bb3f248a1175.jpg"",""img/0875/8521fd58-3b1e-4dc5-97ae-804edfa6734a.jpg""]","",""
"","5158","similarity","109","607836","0.0-6.0-103.0","5","[""img/0884/7ae02e9d-46a4-4124-bcc2-cad90d7ef9f9.jpg"",""img/0884/0b4cf8d4-4c8f-4312-a794-f99e01679176.jpg""]","",""
"","3133","similarity","110","611976","0.0-6.0-104.0","1","[""img/0873/b1e2e09f-ad9a-433e-818f-56dd2f1cb09c.jpg"",""img/0885/6873c613-5e40-42ff-a5b6-443b6b626ae2.jpg""]","",""
"","4889","similarity","111","617871","0.0-6.0-105.0","1","[""img/0883/6884954b-873e-4d6f-9b4b-95d158e0de6c.jpg"",""img/0875/f87b67d7-c33e-40d1-b281-248c4be1cb6e.jpg""]","",""
"","3711","similarity","112","622585","0.0-6.0-106.0","1","[""img/0864/1d15626a-2f7c-410f-819c-0fa2c967e95e.jpg"",""img/0867/c66898ba-b71b-4d50-84f9-f7f84853a98d.jpg""]","",""
"","4241","similarity","113","627827","0.0-6.0-107.0","1","[""img/0958/eea2b7ca-1c37-4e76-ada7-a8b1f3afdc01.jpg"",""img/0860/e14d67c1-6d92-4f1e-9257-c8607159c19c.jpg""]","",""
"","3081","similarity","114","631911","0.0-6.0-108.0","1","[""img/0885/fbbfaacd-e49b-4d37-a2f9-fcaffa58f26f.jpg"",""img/0756/00b775eb-fe41-49b2-92e9-a9955cf1042b.jpg""]","",""
"","3878","similarity","115","636794","0.0-6.0-109.0","1","[""img/0883/77f31752-1984-44f7-a77d-e22c2ad54256.jpg"",""img/0885/0cdcdaca-f91e-4d4a-a6f6-dc90ab676435.jpg""]","",""
"","4363","similarity","116","642160","0.0-6.0-110.0","7","[""img/0867/bf560d4f-dee3-4f11-a385-705cc1aa5f3c.jpg"",""img/0867/179ab87a-8eac-4c52-a41f-2e48e3120f09.jpg""]","",""
"","5014","similarity","117","648179","0.0-6.0-111.0","1","[""img/0881/c24f3051-eefa-42de-aba6-fccb56d93c70.jpg"",""img/0760/c7d43bfd-465f-4f4e-8dc1-ae4cd3d2c1de.jpg""]","",""
"","2586","similarity","118","651768","0.0-6.0-112.0","1","[""img/0881/20af39f5-373d-4a55-a437-2dc4c0382c46.jpg"",""img/0868/77091fc7-a590-4ebb-b915-fdb2483a2399.jpg""]","",""
"","3337","similarity","119","656110","0.0-6.0-113.0","1","[""img/0875/5a1e5100-0d94-4fec-bbe9-ca9894d2cf8e.jpg"",""img/0761/89d3b943-cd14-4786-a7b8-0e9a695cf0e3.jpg""]","",""
"","4057","similarity","120","661173","0.0-6.0-114.0","1","[""img/0756/403d0540-b812-446f-bb5a-e8030be0a02f.jpg"",""img/0866/a15b02be-11bb-43e3-b0e0-ecc3bd7dfc49.jpg""]","",""
"","5993","similarity","121","668171","0.0-6.0-115.0","3","[""img/0884/3613aeb4-0028-4205-aea0-1ea28cb1f80e.jpg"",""img/0886/9ac18ff1-d3d9-4bfe-aa2e-ed5b28399f6c.jpg""]","",""
"","3245","similarity","122","672423","0.0-6.0-116.0","1","[""img/0756/b6e235f7-211b-4a2b-a7b8-393e5ec7351b.jpg"",""img/0881/f4e3e181-b3c9-4af2-a5a4-fc135ab70d2e.jpg""]","",""
"","3744","similarity","123","677171","0.0-6.0-117.0","1","[""img/0760/4c78b78c-193e-4a1e-8bb2-394add325fda.jpg"",""img/0875/ebf7653f-ff45-4e9f-af58-2c042ab3cd2b.jpg""]","",""
"","3675","similarity","124","681851","0.0-6.0-118.0","1","[""img/0958/df7705da-e817-409f-8a93-05abef4b26c3.jpg"",""img/0866/02f5e6b9-52b7-448c-9708-5b460d0c9a23.jpg""]","",""
"","3846","similarity","125","686700","0.0-6.0-119.0","1","[""img/0867/f8488a47-94ee-4166-952c-44e16cf172f6.jpg"",""img/0874/a82926a3-0b43-4add-803c-d5f9ea7798ee.jpg""]","",""
"","3358","similarity","126","691065","0.0-6.0-120.0","1","[""img/0883/68a56098-91b8-4c40-8827-7808704aa1bc.jpg"",""img/0757/424b465f-ba69-4277-bc61-d3e95d136f80.jpg""]","",""
"","3554","similarity","127","695621","0.0-6.0-121.0","1","[""img/0874/ca76a855-4e77-4f2f-872a-0a718153e7ed.jpg"",""img/0886/bd45b474-5559-4ea5-83ff-140bce19f5fa.jpg""]","",""
"","3730","similarity","128","700357","0.0-6.0-122.0","1","[""img/0873/b02f9cce-7f58-4f1b-baed-50fee9f0a21f.jpg"",""img/0761/1725cacb-5f86-4b47-a5c0-3c36cd981588.jpg""]","",""
"","3606","similarity","129","704970","0.0-6.0-123.0","1","[""img/0875/90da8d75-108a-44ad-b999-e21fee3860d3.jpg"",""img/0884/5085d424-b3f5-461b-a1c7-f7ca55abcf4f.jpg""]","",""
"","2966","similarity","130","708941","0.0-6.0-124.0","1","[""img/0757/a3620c04-efdc-4b42-940c-806958d1351e.jpg"",""img/0868/6a28c3b0-3d76-498a-9fb7-ddafc665eca8.jpg""]","",""
"","3891","similarity","131","716692","0.0-6.0-125.0","1","[""img/0886/9f186bd5-d48b-4cc2-9206-be67c392faa9.jpg"",""img/0883/142a783e-a468-4b7f-a750-1e107613d5a9.jpg""]","",""
"","3374","similarity","132","721069","0.0-6.0-126.0","1","[""img/0868/4bd5105a-d2c3-4f82-8c80-57196106ba53.jpg"",""img/0760/83b0723f-4929-4ee7-ad35-fae98da3e152.jpg""]","",""
"","4926","similarity","133","726998","0.0-6.0-127.0","5","[""img/0881/b549bc99-a61c-4450-bab5-9efc3a197bf0.jpg"",""img/0881/566f45f8-5fed-4479-a60f-26377e60a62d.jpg""]","",""
"","4539","similarity","134","732544","0.0-6.0-128.0","1","[""img/0760/317fc071-99e6-43cb-9099-2e50aa79ccc2.jpg"",""img/0860/fd4662f9-4c03-4d79-8593-06735e55a64b.jpg""]","",""
"","5015","similarity","135","738564","0.0-6.0-129.0","1","[""img/0864/ea327690-500b-4137-bf91-451b309fe6a5.jpg"",""img/0885/8cdf3204-e0f1-482b-9546-5edca3d81376.jpg""]","",""
"","4091","similarity","136","743659","0.0-6.0-130.0","1","[""img/0864/c3b63e8f-ea39-4d70-a1f2-b3fe4be8eb75.jpg"",""img/0757/86df581e-81a2-4205-95e3-1ea87cea1f36.jpg""]","",""
"","4609","similarity","137","749273","0.0-6.0-131.0","1","[""img/0760/7cdb34e4-0556-4bf7-9a6f-05990a92e0f3.jpg"",""img/0883/cc2bb2c6-18f1-414f-98cc-6cd683173ce4.jpg""]","",""
"","5904","similarity","138","756181","0.0-6.0-132.0","3","[""img/0885/d2276b26-e91a-4f19-a818-cbeb297ed884.jpg"",""img/0885/5225e532-2812-41d9-8ef0-0fbfc612784e.jpg""]","",""
"","2832","similarity","139","760017","0.0-6.0-133.0","1","[""img/0860/4f695df5-afac-4da7-9875-fee39b0b24ad.jpg"",""img/0868/09a9ef4d-d000-4cfa-a6aa-ebec7c2edeb4.jpg""]","",""
"","3352","similarity","140","764371","0.0-6.0-134.0","1","[""img/0867/db7e032f-162b-46f5-ae67-2b29679adee4.jpg"",""img/0886/48077111-b86b-4612-910f-90a5d168d77f.jpg""]","",""
"","2867","similarity","141","768241","0.0-6.0-135.0","1","[""img/0756/8d47d83d-7e73-4d35-94ec-d814380febc6.jpg"",""img/0886/97243e18-4dba-4af8-b49f-b3b635c90ac4.jpg""]","",""
"","4843","similarity","142","774091","0.0-6.0-136.0","5","[""img/0884/37ee4afa-34a0-4da2-bdb0-fcaff43dcdb6.jpg"",""img/0868/8b0b8473-e2c0-4331-aa56-c3a5c29369da.jpg""]","",""
"","4083","similarity","143","779176","0.0-6.0-137.0","5","[""img/0958/d3775867-a8f6-42ba-86ff-f86e85edba90.jpg"",""img/0958/822de3b9-e5fd-4b74-aeb1-7c40805b0717.jpg""]","",""
"","3678","similarity","144","783856","0.0-6.0-138.0","1","[""img/0886/aef00ed5-e288-47bf-b31e-512d7e762ea2.jpg"",""img/0873/1d1be182-3bb2-4efd-8543-d70b8db7beef.jpg""]","",""
"","4247","similarity","145","789110","0.0-6.0-139.0","1","[""img/0758/6e95579b-5166-487c-b8cb-e417c6a218e3.jpg"",""img/0873/b509aa81-b1d7-4d50-8aef-9c7b725c3157.jpg""]","",""
"","3201","similarity","146","793317","0.0-6.0-140.0","1","[""img/0873/ac86dbfd-0442-4dec-9d10-37d7093f5a52.jpg"",""img/0756/b5b6c1ba-df7c-4bac-94ac-786f45dbb140.jpg""]","",""
"","3122","similarity","147","797446","0.0-6.0-141.0","1","[""img/0868/d6d1f30d-4323-435a-b194-7892521bc57e.jpg"",""img/0862/e697469a-ec19-4414-b972-7b9f3564785b.jpg""]","",""
"","3753","similarity","148","802205","0.0-6.0-142.0","1","[""img/0881/633c6f40-56d9-4b48-bf1c-ecd83116eabb.jpg"",""img/0862/eefa5588-9efd-4591-aa5f-a2e17c7d7bcc.jpg""]","",""
"","3763","similarity","149","806975","0.0-6.0-143.0","1","[""img/0885/62bd11a8-7059-4cc2-b06d-4700688b313f.jpg"",""img/0867/de92135f-5b65-4ed9-b245-188292c7c2f8.jpg""]","",""
"","5612","similarity","150","813590","0.0-6.0-144.0","5","[""img/0883/ab9b6977-0cdc-47a2-b180-494a5be181b2.jpg"",""img/0883/1f394dd2-551c-4c8b-af82-f6a6fbe567bb.jpg""]","",""
"","3126","similarity","151","817719","0.0-6.0-145.0","1","[""img/0874/85eb9b8a-c4c6-4e5a-b8e7-363a87a82054.jpg"",""img/0873/c91c05f8-fafd-4054-bcf1-f5ed1f0a18e8.jpg""]","",""
"","4015","similarity","152","822737","0.0-6.0-146.0","1","[""img/0757/443a1d16-5d59-4e77-a670-d6190157c319.jpg"",""img/0758/ddc336e9-a8b6-4bb9-937a-c7e25e0e9250.jpg""]","",""
"","3898","similarity","153","827642","0.0-6.0-147.0","1","[""img/0883/e3603ed7-8fca-475a-aeb1-d1f7651c4618.jpg"",""img/0756/aa551726-e765-4729-82aa-99d700d388ae.jpg""]","",""
"","3811","similarity","154","832457","0.0-6.0-148.0","1","[""img/0867/85a96c62-548f-4994-9553-819e03c3135a.jpg"",""img/0866/d266fece-59b3-46fa-b69f-96f6efb81b59.jpg""]","",""
"","3293","similarity","155","836755","0.0-6.0-149.0","1","[""img/0758/65d426d6-3ff6-415d-8654-a43b83ecc4fe.jpg"",""img/0760/ed469d78-34af-4ea9-a969-05ea527438a2.jpg""]","",""
"","3639","similarity","156","841401","0.0-6.0-150.0","1","[""img/0757/92ed1ceb-29ef-4044-9601-78d7806e2396.jpg"",""img/0761/47960f80-42b7-4397-a852-ec55d716c652.jpg""]","",""
"","3787","similarity","157","846193","0.0-6.0-151.0","1","[""img/0761/5ed865c0-8bfb-4310-9b47-690b3e450ca2.jpg"",""img/0874/7e4f2150-3b59-4a36-b5da-a4e0ba410531.jpg""]","",""
"","3555","similarity","158","850750","0.0-6.0-152.0","1","[""img/0761/b1819a20-de99-463b-9840-60a4b8faa30d.jpg"",""img/0760/0864f159-c076-4573-83e1-ea134f239717.jpg""]","",""
"","5461","similarity","159","857218","0.0-6.0-153.0","5","[""img/0866/f756f7d1-9ad8-4a34-9ef6-7a443d705bfe.jpg"",""img/0866/07c9c966-3c8d-40e7-8128-92b2acbaed5d.jpg""]","",""
"","4520","similarity","160","862742","0.0-6.0-154.0","1","[""img/0866/945c6710-d15b-4a5b-a8f6-69af0850357f.jpg"",""img/0862/e8cc3bdf-cc43-4565-bccf-492626c70953.jpg""]","",""
"","3498","similarity","161","867242","0.0-6.0-155.0","1","[""img/0756/a940d622-200d-4df5-8896-60af56798bbe.jpg"",""img/0862/99a99e39-8355-44ec-b993-e7bcec111e1c.jpg""]","",""
"","3246","similarity","162","871495","0.0-6.0-156.0","1","[""img/0860/94ef7afc-e0e6-4a15-98c6-0bfac82bc832.jpg"",""img/0866/9b38d691-1802-4959-ab3f-fc902f0e4ea6.jpg""]","",""
"","3643","similarity","163","876141","0.0-6.0-157.0","1","[""img/0862/a0a3a7ba-7798-46a3-b4ca-05e1f6e581d0.jpg"",""img/0958/58b7811e-d3f6-4e4d-befb-86e063d13a43.jpg""]","",""
"","3527","similarity","164","880675","0.0-6.0-158.0","1","[""img/0761/e34f97e4-14ac-4bb6-b226-816085d967c2.jpg"",""img/0868/fd307a36-9a3a-47d7-ab7c-f810d0b35040.jpg""]","",""
"","3268","similarity","165","884950","0.0-6.0-159.0","1","[""img/0761/6b42b402-9e0f-4179-9e10-660b2c07626b.jpg"",""img/0886/c6c81122-f4bf-46f4-968b-167f8ed0cab3.jpg""]","",""
"","3102","similarity","166","889056","0.0-6.0-160.0","1","[""img/0874/93d1f8dc-acf2-4f03-bd8d-8ec35df276ed.jpg"",""img/0868/4a8a45ed-2c4f-421b-9564-409a33ecd26c.jpg""]","",""
"","2964","similarity","167","893028","0.0-6.0-161.0","1","[""img/0860/f44ba3fb-03a2-42f0-8509-2c1ded493086.jpg"",""img/0874/995f0332-0439-4eb4-add3-957335dbf6d9.jpg""]","",""
"","6025","similarity","168","900059","0.0-6.0-162.0","5","[""img/0883/29cba870-24df-4a0b-85cd-b680316ffe3d.jpg"",""img/0867/cc72ed48-7704-422c-86d6-467a1145287a.jpg""]","",""
"","5430","similarity","169","906494","0.0-6.0-163.0","1","[""img/0758/a709631e-3705-4725-ac40-f0d916924f08.jpg"",""img/0958/4e2ca4bc-52c7-4c27-9610-776441231e42.jpg""]","",""
"","2762","similarity","170","910263","0.0-6.0-164.0","1","[""img/0873/d74e4aa9-420d-48a3-a42f-30a3481536ae.jpg"",""img/0757/6ecf2f24-3286-49d6-b5ed-bb2da660c588.jpg""]","",""
"","4036","similarity","171","915303","0.0-6.0-165.0","1","[""img/0873/d39b1731-1669-4c96-b5c6-682b30e287ee.jpg"",""img/0866/be24ab58-230e-4db8-9f45-ff04c9aec6bb.jpg""]","",""
"","3147","similarity","172","919454","0.0-6.0-166.0","1","[""img/0875/d59ff733-eaff-4ee2-9443-06954dd0bcb6.jpg"",""img/0867/12264664-1860-46df-8c21-162b9817cdda.jpg""]","",""
"","5645","similarity","173","929309","0.0-6.0-167.0","5","[""img/0862/ad593cc7-cabe-4bb7-8e14-8a447a0717b4.jpg"",""img/0862/ba89835a-408c-480b-8594-ed4ffa97eb5c.jpg""]","",""
"","3258","similarity","174","933573","0.0-6.0-168.0","1","[""img/0875/2c361b79-c3d1-4eda-812e-bf03192407bf.jpg"",""img/0886/0f9715c1-b2e4-418e-bf9b-126cc9e70dc6.jpg""]","",""
"","2952","similarity","175","937534","0.0-6.0-169.0","1","[""img/0885/24afeefb-f7b3-4e8f-a5b9-17cc00fd22e3.jpg"",""img/0875/dbdd643e-6d0e-4a5c-ab57-b9c29b9c981a.jpg""]","",""
"","3149","similarity","176","941685","0.0-6.0-170.0","1","[""img/0862/5d887e9f-89e2-4ebc-80a0-6d46fe6480db.jpg"",""img/0867/5e07b34d-b40f-4b1c-ac10-49975bace45f.jpg""]","",""
"","3247","similarity","177","945937","0.0-6.0-171.0","1","[""img/0884/a416b0d1-f903-4935-b89f-99c29683752b.jpg"",""img/0873/0d9b4403-7f26-46dc-b0b7-2b97b0a91b46.jpg""]","",""
"","3553","similarity","178","950493","0.0-6.0-172.0","1","[""img/0873/6110910a-7895-4b6a-af51-12486a4595a3.jpg"",""img/0958/644719ec-1690-4af2-a63f-0b6467c3791e.jpg""]","",""
"","2901","similarity","179","954397","0.0-6.0-173.0","1","[""img/0868/293079b8-7e0c-4afd-a390-1e5d35fe3ded.jpg"",""img/0758/dd559618-7f09-4a07-8018-d311c4a5ea29.jpg""]","",""
"","2988","similarity","180","958391","0.0-6.0-174.0","1","[""img/0757/a7964b0f-aee3-4b4c-9cd1-c1c998c49fef.jpg"",""img/0874/c0378dac-9370-439a-8b79-db27c96fb390.jpg""]","",""
"","3731","similarity","181","963128","0.0-6.0-175.0","1","[""img/0958/b11515b3-5f04-4c3e-be00-56a05c6c3e96.jpg"",""img/0867/f8159067-056c-41f1-a136-c529fe5e970a.jpg""]","",""
"","4102","similarity","182","968235","0.0-6.0-176.0","1","[""img/0874/31e22c7c-99aa-40b1-bf03-dd73fa2df4d6.jpg"",""img/0760/1912c0dc-64a7-4c32-8d67-baf5e8752270.jpg""]","",""
"","3313","similarity","183","972555","0.0-6.0-177.0","1","[""img/0873/c3ff3b70-fb22-42f2-883c-3ecffd77cb4b.jpg"",""img/0860/8a92e21b-6a32-4e4a-a445-2d5a487ed0a4.jpg""]","",""
"","5047","similarity","184","978608","0.0-6.0-178.0","1","[""img/0881/dea58fad-b4f1-41d9-bd3f-916eff19a3fd.jpg"",""img/0883/00d89148-b7d4-49d2-831a-2eee070a85a4.jpg""]","",""
"","3088","similarity","185","982703","0.0-6.0-179.0","1","[""img/0886/625c7dfa-3fa1-4166-80f0-229eb416b04f.jpg"",""img/0958/fd950403-e452-4018-8207-a9714addcd75.jpg""]","",""
"","5328","similarity","186","989036","0.0-6.0-180.0","1","[""img/0864/5f74a653-3bdc-4308-8cca-ac667dc22e1f.jpg"",""img/0883/3835edeb-1d59-4781-b10f-c26b9eaf6fd1.jpg""]","",""
"","4329","similarity","187","994369","0.0-6.0-181.0","1","[""img/0756/04655068-a9fc-49d9-b2f4-21e4d42b7903.jpg"",""img/0868/4e626425-63c8-484a-8a1d-e66ee4e0bef8.jpg""]","",""
"","4091","similarity","188","999466","0.0-6.0-182.0","1","[""img/0884/d8ffab77-40df-44ba-bf27-70815b052250.jpg"",""img/0758/7ffbc76b-1fc1-432c-8f7e-9ec8d1b3f643.jpg""]","",""
"","3449","similarity","189","1003921","0.0-6.0-183.0","1","[""img/0875/527ced51-8e53-4aab-ab05-86df219104c0.jpg"",""img/0874/2c9464dd-8a23-4baa-ac94-1ba3af5c15cc.jpg""]","",""
"","3980","similarity","190","1008904","0.0-6.0-184.0","1","[""img/0867/1719a35d-f085-48c0-9099-16c94fe418b4.jpg"",""img/0868/7b212364-ff5f-4e28-9241-7eb6ea00161b.jpg""]","",""
"","2955","similarity","191","1012864","0.0-6.0-185.0","1","[""img/0881/84397291-bc14-4fbf-90e8-241e486ab0fe.jpg"",""img/0885/1e66fe61-15d5-42b1-86aa-dbfd13613f5c.jpg""]","",""
"","3643","similarity","192","1017511","0.0-6.0-186.0","1","[""img/0864/4bd81bc6-c13d-46df-95a9-485886dc7c1b.jpg"",""img/0761/53a65b48-8b0c-4a1d-9ebb-a27a259c5bc6.jpg""]","",""
"","4533","similarity","193","1023046","0.0-6.0-187.0","1","[""img/0885/5a47e19f-19b4-4545-bf47-b508cb65da6a.jpg"",""img/0874/3ce41e7c-40c8-4d58-a546-171114521796.jpg""]","",""
"","3934","similarity","194","1027985","0.0-6.0-188.0","1","[""img/0758/67c0be2f-9e91-48b3-8219-70ac0a1802fa.jpg"",""img/0867/7d1c497b-c1b3-4ed8-abb5-d7f73306015f.jpg""]","",""
"","4308","similarity","195","1033295","0.0-6.0-189.0","1","[""img/0756/ca2a8f93-ed77-45c8-a3a3-22324aa28501.jpg"",""img/0884/ffcce05a-b38d-4570-b3dc-751e89b7790a.jpg""]","",""
"","3560","similarity","196","1037862","0.0-6.0-190.0","1","[""img/0761/a74c99e4-d9ed-42cd-9e83-8d525cb6a9a2.jpg"",""img/0862/ee3b7bff-4a70-4e84-9bea-4a565e456acb.jpg""]","",""
"","3261","similarity","197","1042126","0.0-6.0-191.0","1","[""img/0860/c7047cd2-7cc1-41b6-8a34-c0986774975f.jpg"",""img/0886/1870a791-dfee-471e-8417-197d4a53c75a.jpg""]","",""
"","5463","similarity","198","1048595","0.0-6.0-192.0","1","[""img/0760/d87ebbb0-e718-4ab1-8882-e48253d6fd00.jpg"",""img/0885/89d8c48b-8bde-42ed-ae71-de669b15ea34.jpg""]","",""
"","4014","similarity","199","1053613","0.0-6.0-193.0","1","[""img/0886/42cccc64-05f9-4afd-bc93-496ba50a4342.jpg"",""img/0868/5fa7f9d0-f0e5-454c-8224-74d964818f56.jpg""]","",""
"","5474","similarity","200","1060093","0.0-6.0-194.0","1","[""img/0881/7e822106-76f7-4b10-a805-14dc68b2cfaf.jpg"",""img/0864/f92649a2-0590-4d31-9a7a-1bfb81666a2d.jpg""]","",""
"","4148","similarity","201","1065245","0.0-6.0-195.0","1","[""img/0866/6f2a90d7-14f1-4f1b-bd64-fc0af6b9fe44.jpg"",""img/0868/c8ac40c7-6904-4e13-8d61-c75d3052dc4e.jpg""]","",""
"","4247","similarity","202","1070499","0.0-6.0-196.0","1","[""img/0864/65210d57-1153-4657-886a-32e758f49b4a.jpg"",""img/0958/54f27d86-00c0-46b2-b2c9-050c9cc60fe0.jpg""]","",""
"","3684","similarity","203","1075190","0.0-6.0-197.0","1","[""img/0757/014ee4a8-8069-4b08-ac1c-04230da90244.jpg"",""img/0886/7164ac42-460f-4beb-9d5e-a1cfded3099c.jpg""]","",""
"","4653","similarity","204","1080849","0.0-6.0-198.0","1","[""img/0758/6cd8c362-ae2a-41eb-80a3-3a4f7ace1530.jpg"",""img/0883/49aada36-b662-416c-93ae-9eab6598bfae.jpg""]","",""
"","3933","similarity","205","1085788","0.0-6.0-199.0","1","[""img/0881/f7a8cc63-8842-40a4-9ff8-fe530310d62c.jpg"",""img/0958/acbadc39-e665-446d-b98f-ccd0ef3223d6.jpg""]","",""
"","3819","similarity","206","1090614","0.0-6.0-200.0","1","[""img/0958/6e602e13-8029-4642-bce0-8deffd0dc686.jpg"",""img/0874/1016b306-087c-4afc-aa08-fa527b28dc76.jpg""]","",""
"","4216","similarity","207","1095834","0.0-6.0-201.0","1","[""img/0885/c840cf2c-c95d-4a08-b3c2-044d1ea946a7.jpg"",""img/0860/c47fdead-eb02-4989-b078-26f4852f44fe.jpg""]","",""
"","3496","similarity","208","1100334","0.0-6.0-202.0","1","[""img/0875/fb732ab5-013a-4366-9f65-27811ed157e9.jpg"",""img/0881/292e9b4b-fca0-4ba8-87f1-4048f9e37b7d.jpg""]","",""
"","3261","similarity","209","1104598","0.0-6.0-203.0","1","[""img/0758/f61ecdf8-a7d4-4db0-b84d-be46f7cfaffc.jpg"",""img/0860/b03b963d-949b-4d8d-b19c-4950c89eeca2.jpg""]","",""
"","3866","similarity","210","1109470","0.0-6.0-204.0","7","[""img/0860/8277806e-b684-4474-8f7b-3fca946d7d4f.jpg"",""img/0860/5bff793e-cbd5-4d7e-b628-0ac2b0e30b64.jpg""]","",""
"","3913","similarity","211","1114386","0.0-6.0-205.0","1","[""img/0874/29830da7-be5f-44e5-b141-652a0ccf7269.jpg"",""img/0874/99f6563c-8a8d-4c1c-a41d-667b618c3fd5.jpg""]","",""
"","3507","similarity","212","1118897","0.0-6.0-206.0","1","[""img/0883/122548fc-b3cc-445b-b7c0-04794df6d11d.jpg"",""img/0761/b8f211c0-f640-43a2-b101-101774517d95.jpg""]","",""
"","3666","similarity","213","1123566","0.0-6.0-207.0","1","[""img/0761/6f9c1c71-e38d-4e3f-9062-39557812432a.jpg"",""img/0881/19e82c47-8e4b-45d2-a6c8-74181eb4155e.jpg""]","",""
"","3505","similarity","214","1128077","0.0-6.0-208.0","1","[""img/0760/dddcdfaf-2d02-4de9-a176-5705d0004b5a.jpg"",""img/0756/8fdfa93c-88d0-4311-be2d-7f799fcaa8de.jpg""]","",""
"","3628","similarity","215","1136312","0.0-6.0-209.0","1","[""img/0885/4fd0aafb-6cc0-43d6-993a-c55a6e18a7ba.jpg"",""img/0757/69d850ce-9828-4b13-9e68-6a2c196ecbcc.jpg""]","",""
"[{""page_index"":0,""viewing_time"":5951}]","5952","instructions","216","1143265","0.0-7.0","","","",""
"","55512","image-multi-choice","217","1199787","0.0-8.0-0.0","","","{""Q0"":""Orange-crowned Warbler""}","Orange-crowned Warbler"
"","43688","image-multi-choice","218","1244483","0.0-8.0-1.0","","","{""Q0"":""Tennessee Warbler""}","Wilson's Warbler"
"","16152","image-multi-choice","219","1261639","0.0-8.0-2.0","","","{""Q0"":""Black-throated Green Warbler""}","Blackpoll Warbler"
"","7382","image-multi-choice","220","1270032","0.0-8.0-3.0","","","{""Q0"":""Black-and-white Warbler""}","Black-and-white Warbler"
"","35782","image-multi-choice","221","1306820","0.0-8.0-4.0","","","{""Q0"":""Yellow-breasted Chat""}","Yellow-breasted Chat"
"","56356","image-multi-choice","222","1364185","0.0-8.0-5.0","","","{""Q0"":""Blackpoll Warbler""}","Canada Warbler"
"","14416","image-multi-choice","223","1379609","0.0-8.0-6.0","","","{""Q0"":""Common Yellowthroat""}","Common Yellowthroat"
"","28491","image-multi-choice","224","1409107","0.0-8.0-7.0","","","{""Q0"":""American Redstart""}","American Redstart"
"","11467","image-multi-choice","225","1421583","0.0-8.0-8.0","","","{""Q0"":""Chestnut-sided Warbler""}","Chestnut-sided Warbler"
"","27477","image-multi-choice","226","1450068","0.0-8.0-9.0","","","{""Q0"":""Canada Warbler""}","Black-throated Green Warbler"
"","21449","image-multi-choice","227","1472524","0.0-8.0-10.0","","","{""Q0"":""Blackburnian Warbler""}","Blackburnian Warbler"
"","33994","image-multi-choice","228","1507523","0.0-8.0-11.0","","","{""Q0"":""Yellow-rumped Warbler""}","Yellow-rumped Warbler"
"","10762","image-multi-choice","229","1519290","0.0-8.0-12.0","","","{""Q0"":""Ovenbird""}","Ovenbird"
"","15575","image-multi-choice","230","1535873","0.0-8.0-13.0","","","{""Q0"":""Blackpoll Warbler""}","Townsend's Warbler"
"","26510","image-multi-choice","231","1563391","0.0-8.0-14.0","","","{""Q0"":""Northern Waterthrush""}","Northern Waterthrush"
"","31069","image-multi-choice","232","1595466","0.0-8.0-15.0","","","{""Q0"":""Yellow Warbler""}","Yellow Warbler"
"","33281","image-multi-choice","233","1629756","0.0-8.0-16.0","","","{""Q0"":""Northern Parula""}","Nashville Warbler"
"","16745","image-multi-choice","234","1647509","0.0-8.0-17.0","","","{""Q0"":""Magnolia Warbler""}","Northern Parula"
"","11291","image-multi-choice","235","1659805","0.0-8.0-18.0","","","{""Q0"":""Wilson's Warbler""}","Tennessee Warbler"
"","14146","image-multi-choice","236","1674959","0.0-8.0-19.0","","","{""Q0"":""Blackpoll Warbler""}","Magnolia Warbler"
