[{"view_history":"[{\"page_index\":0,\"viewing_time\":30523}]","rt":30525,"trial_type":"instructions","trial_index":0,"time_elapsed":30526,"internal_node_id":"0.0-0.0"},{"sim_score":7,"rt":7589,"stimulus":"[\"img/bluejay1.jpg\",\"img/bluejay2.jpg\"]","trial_type":"similarity_demo","trial_index":1,"time_elapsed":39138,"internal_node_id":"0.0-1.0"},{"view_history":"[{\"page_index\":0,\"viewing_time\":8156}]","rt":8156,"trial_type":"instructions","trial_index":2,"time_elapsed":48296,"internal_node_id":"0.0-2.0"},{"sim_score":5,"rt":8383,"stimulus":"[\"img/bluejay1.jpg\",\"img/cardinal1.jpg\"]","trial_type":"similarity_demo","trial_index":3,"time_elapsed":57688,"internal_node_id":"0.0-3.0"},{"view_history":"[{\"page_index\":0,\"viewing_time\":6397}]","rt":6398,"trial_type":"instructions","trial_index":4,"time_elapsed":65087,"internal_node_id":"0.0-4.0"},{"view_history":"[{\"page_index\":0,\"viewing_time\":55771}]","rt":55772,"trial_type":"instructions","trial_index":5,"time_elapsed":121860,"internal_node_id":"0.0-5.0"},{"sim_score":5,"rt":6421,"stimulus":"[\"img/0864/e336a4c5-6648-4fd7-b2f6-93a3fb83f8c6.jpg\",\"img/0860/5383b320-1518-4095-a58e-5cc1ae30b64c.jpg\"]","trial_type":"similarity","trial_index":6,"time_elapsed":129307,"internal_node_id":"0.0-6.0-0.0"},{"sim_score":5,"rt":7879,"stimulus":"[\"img/0884/fb8b0101-bfd2-462b-a942-d3202a69dd18.jpg\",\"img/0760/1912c0dc-64a7-4c32-8d67-baf5e8752270.jpg\"]","trial_type":"similarity","trial_index":7,"time_elapsed":138203,"internal_node_id":"0.0-6.0-1.0"},{"sim_score":3,"rt":4658,"stimulus":"[\"img/0886/0f9715c1-b2e4-418e-bf9b-126cc9e70dc6.jpg\",\"img/0881/5fe04dd0-5c74-47b7-99c8-b068db9ca26a.jpg\"]","trial_type":"similarity","trial_index":8,"time_elapsed":143889,"internal_node_id":"0.0-6.0-2.0"},{"sim_score":5,"rt":6469,"stimulus":"[\"img/0866/6f2a90d7-14f1-4f1b-bd64-fc0af6b9fe44.jpg\",\"img/0881/62a64f90-7a72-4aee-a1a1-0c548ac9bdda.jpg\"]","trial_type":"similarity","trial_index":9,"time_elapsed":151376,"internal_node_id":"0.0-6.0-3.0"},{"sim_score":6,"rt":5906,"stimulus":"[\"img/0868/15dd6fd7-791e-4b53-b203-195d617521a4.jpg\",\"img/0885/a8cbb477-19ef-45ef-8f48-9667aec40bd1.jpg\"]","trial_type":"similarity","trial_index":10,"time_elapsed":158298,"internal_node_id":"0.0-6.0-4.0"},{"sim_score":5,"rt":4292,"stimulus":"[\"img/0757/802a8692-dc9e-4372-8811-ce4351a09d1a.jpg\",\"img/0866/07c9c966-3c8d-40e7-8128-92b2acbaed5d.jpg\"]","trial_type":"similarity","trial_index":11,"time_elapsed":163609,"internal_node_id":"0.0-6.0-5.0"},{"sim_score":5,"rt":6547,"stimulus":"[\"img/0868/293079b8-7e0c-4afd-a390-1e5d35fe3ded.jpg\",\"img/0864/efcfbb1b-8197-44c9-b723-40d6c608dd3c.jpg\"]","trial_type":"similarity","trial_index":12,"time_elapsed":171171,"internal_node_id":"0.0-6.0-6.0"},{"sim_score":7,"rt":4363,"stimulus":"[\"img/0864/afcba0a3-7e27-4757-b254-e9f05fad27e2.jpg\",\"img/0864/ef9cbca0-4be8-435d-ad49-977259e80409.jpg\"]","trial_type":"similarity","trial_index":13,"time_elapsed":176561,"internal_node_id":"0.0-6.0-7.0"},{"sim_score":5,"rt":4008,"stimulus":"[\"img/0757/86df581e-81a2-4205-95e3-1ea87cea1f36.jpg\",\"img/0881/f037e3b0-09cb-4a83-b2d9-6a71fe474e63.jpg\"]","trial_type":"similarity","trial_index":14,"time_elapsed":181585,"internal_node_id":"0.0-6.0-8.0"},{"sim_score":4,"rt":5664,"stimulus":"[\"img/0886/4d28f75a-a9c3-49dd-8aa8-00304af6e40b.jpg\",\"img/0760/812c848f-be21-4059-abe5-8c4f4ac9ad0f.jpg\"]","trial_type":"similarity","trial_index":15,"time_elapsed":188265,"internal_node_id":"0.0-6.0-9.0"},{"sim_score":5,"rt":4609,"stimulus":"[\"img/0884/05d9bfb9-44a6-4ab4-92fa-d17e5b2b4f33.jpg\",\"img/0883/eff15ce5-9393-443c-829f-71242d1c56d0.jpg\"]","trial_type":"similarity","trial_index":16,"time_elapsed":193896,"internal_node_id":"0.0-6.0-10.0"},{"sim_score":3,"rt":7745,"stimulus":"[\"img/0874/99f6563c-8a8d-4c1c-a41d-667b618c3fd5.jpg\",\"img/0862/92fcd8a4-8193-4a6a-ae09-dd4a6338b0df.jpg\"]","trial_type":"similarity","trial_index":17,"time_elapsed":202657,"internal_node_id":"0.0-6.0-11.0"},{"sim_score":5,"rt":4681,"stimulus":"[\"img/0862/24cdc752-c2e5-4a17-86a6-6f2045d8553b.jpg\",\"img/0875/d59ff733-eaff-4ee2-9443-06954dd0bcb6.jpg\"]","trial_type":"similarity","trial_index":18,"time_elapsed":208353,"internal_node_id":"0.0-6.0-12.0"},{"sim_score":5,"rt":4992,"stimulus":"[\"img/0875/5a716432-c6ca-4b1c-955a-2b8ac25198ee.jpg\",\"img/0757/0668efad-1c92-425c-9aa9-2bbe833fd777.jpg\"]","trial_type":"similarity","trial_index":19,"time_elapsed":214378,"internal_node_id":"0.0-6.0-13.0"},{"sim_score":4,"rt":4621,"stimulus":"[\"img/0875/ebf7653f-ff45-4e9f-af58-2c042ab3cd2b.jpg\",\"img/0860/17b44a7d-c5ca-479f-9e87-f65a64f5c80e.jpg\"]","trial_type":"similarity","trial_index":20,"time_elapsed":220017,"internal_node_id":"0.0-6.0-14.0"},{"sim_score":3,"rt":6870,"stimulus":"[\"img/0860/5bff793e-cbd5-4d7e-b628-0ac2b0e30b64.jpg\",\"img/0881/667e2147-d457-4f32-aa5f-6ab86e5848f1.jpg\"]","trial_type":"similarity","trial_index":21,"time_elapsed":227904,"internal_node_id":"0.0-6.0-15.0"},{"sim_score":4,"rt":3455,"stimulus":"[\"img/0885/eb5e4557-1792-49c3-8871-16afa58f3a28.jpg\",\"img/0884/7ae02e9d-46a4-4124-bcc2-cad90d7ef9f9.jpg\"]","trial_type":"similarity","trial_index":22,"time_elapsed":232386,"internal_node_id":"0.0-6.0-16.0"},{"sim_score":7,"rt":4279,"stimulus":"[\"img/0761/bd083642-a9bc-4877-bfc6-63bd03d33e81.jpg\",\"img/0761/5ed865c0-8bfb-4310-9b47-690b3e450ca2.jpg\"]","trial_type":"similarity","trial_index":23,"time_elapsed":237683,"internal_node_id":"0.0-6.0-17.0"},{"sim_score":6,"rt":4090,"stimulus":"[\"img/0760/7f35fc6a-c21f-4f42-81c5-92ced38d82f8.jpg\",\"img/0864/e8bd659f-aa43-4748-877e-3118e8b4e189.jpg\"]","trial_type":"similarity","trial_index":24,"time_elapsed":242796,"internal_node_id":"0.0-6.0-18.0"},{"sim_score":5,"rt":6085,"stimulus":"[\"img/0864/3651d070-2fc5-4848-b6a6-088a2d9ac5c9.jpg\",\"img/0875/8521fd58-3b1e-4dc5-97ae-804edfa6734a.jpg\"]","trial_type":"similarity","trial_index":25,"time_elapsed":249907,"internal_node_id":"0.0-6.0-19.0"},{"sim_score":5,"rt":6094,"stimulus":"[\"img/0874/ca23d307-fc00-4d7d-9106-584c6eb21b4d.jpg\",\"img/0884/d8ffab77-40df-44ba-bf27-70815b052250.jpg\"]","trial_type":"similarity","trial_index":26,"time_elapsed":257017,"internal_node_id":"0.0-6.0-20.0"},{"sim_score":6,"rt":5235,"stimulus":"[\"img/0885/8960bf05-34df-4a86-a9b2-6087c70e61d3.jpg\",\"img/0866/386235d2-6857-41e7-88a8-25cfc3430025.jpg\"]","trial_type":"similarity","trial_index":27,"time_elapsed":263273,"internal_node_id":"0.0-6.0-21.0"},{"sim_score":7,"rt":4567,"stimulus":"[\"img/0868/d98ca254-b195-477f-b57e-5760a2717db8.jpg\",\"img/0868/179a5502-ab5c-478e-8263-5a1fbcc101d2.jpg\"]","trial_type":"similarity","trial_index":28,"time_elapsed":268857,"internal_node_id":"0.0-6.0-22.0"},{"sim_score":5,"rt":4683,"stimulus":"[\"img/0757/424b465f-ba69-4277-bc61-d3e95d136f80.jpg\",\"img/0756/2d59e6c9-df29-4c76-a030-db83f23c8b9b.jpg\"]","trial_type":"similarity","trial_index":29,"time_elapsed":274553,"internal_node_id":"0.0-6.0-23.0"},{"sim_score":5,"rt":5563,"stimulus":"[\"img/0875/527ced51-8e53-4aab-ab05-86df219104c0.jpg\",\"img/0875/5a7c4e35-6514-4e12-8879-d16071da4cd6.jpg\"]","trial_type":"similarity","trial_index":30,"time_elapsed":281129,"internal_node_id":"0.0-6.0-24.0"},{"sim_score":5,"rt":4643,"stimulus":"[\"img/0761/5747fedf-15f2-47fe-87c8-ff646dd66a5f.jpg\",\"img/0866/93a27239-8317-4e08-98ca-d8b1ff298e07.jpg\"]","trial_type":"similarity","trial_index":31,"time_elapsed":286785,"internal_node_id":"0.0-6.0-25.0"},{"sim_score":5,"rt":4783,"stimulus":"[\"img/0866/0207e9a2-7dbb-40b5-9459-b472aaeceb2a.jpg\",\"img/0758/d41c06bf-ebaf-454b-91c6-1a17f917b659.jpg\"]","trial_type":"similarity","trial_index":32,"time_elapsed":292585,"internal_node_id":"0.0-6.0-26.0"},{"sim_score":4,"rt":4497,"stimulus":"[\"img/0758/61d64021-9214-4951-bdf8-f871f9827cf9.jpg\",\"img/0875/fb732ab5-013a-4366-9f65-27811ed157e9.jpg\"]","trial_type":"similarity","trial_index":33,"time_elapsed":298101,"internal_node_id":"0.0-6.0-27.0"},{"sim_score":4,"rt":5143,"stimulus":"[\"img/0958/b11515b3-5f04-4c3e-be00-56a05c6c3e96.jpg\",\"img/0757/a3620c04-efdc-4b42-940c-806958d1351e.jpg\"]","trial_type":"similarity","trial_index":34,"time_elapsed":304259,"internal_node_id":"0.0-6.0-28.0"},{"sim_score":4,"rt":4029,"stimulus":"[\"img/0873/1d1be182-3bb2-4efd-8543-d70b8db7beef.jpg\",\"img/0883/cc2bb2c6-18f1-414f-98cc-6cd683173ce4.jpg\"]","trial_type":"similarity","trial_index":35,"time_elapsed":309316,"internal_node_id":"0.0-6.0-29.0"},{"sim_score":4,"rt":4502,"stimulus":"[\"img/0868/4bd5105a-d2c3-4f82-8c80-57196106ba53.jpg\",\"img/0875/03c3c331-738b-4446-af92-3d7386b08c2e.jpg\"]","trial_type":"similarity","trial_index":36,"time_elapsed":314842,"internal_node_id":"0.0-6.0-30.0"},{"sim_score":3,"rt":4260,"stimulus":"[\"img/0884/989ec8e3-5e41-4055-b0b5-3d65b9c44917.jpg\",\"img/0862/1c20f772-3a51-4a80-aac0-f57dc9f86c28.jpg\"]","trial_type":"similarity","trial_index":37,"time_elapsed":320120,"internal_node_id":"0.0-6.0-31.0"},{"sim_score":5,"rt":3488,"stimulus":"[\"img/0884/ffcce05a-b38d-4570-b3dc-751e89b7790a.jpg\",\"img/0864/9b2490c5-a282-400a-9736-e1a0ecbf1cb7.jpg\"]","trial_type":"similarity","trial_index":38,"time_elapsed":324625,"internal_node_id":"0.0-6.0-32.0"},{"sim_score":4,"rt":6768,"stimulus":"[\"img/0883/29cba870-24df-4a0b-85cd-b680316ffe3d.jpg\",\"img/0958/df7705da-e817-409f-8a93-05abef4b26c3.jpg\"]","trial_type":"similarity","trial_index":39,"time_elapsed":332408,"internal_node_id":"0.0-6.0-33.0"},{"sim_score":5,"rt":4824,"stimulus":"[\"img/0864/1d15626a-2f7c-410f-819c-0fa2c967e95e.jpg\",\"img/0756/2bc961e4-b35f-4cfe-ba02-6f14fe3bdc10.jpg\"]","trial_type":"similarity","trial_index":40,"time_elapsed":338249,"internal_node_id":"0.0-6.0-34.0"},{"sim_score":4,"rt":4586,"stimulus":"[\"img/0874/adf9a8f1-c40b-402b-b95b-1e85a54a7b62.jpg\",\"img/0758/6e95579b-5166-487c-b8cb-e417c6a218e3.jpg\"]","trial_type":"similarity","trial_index":41,"time_elapsed":343848,"internal_node_id":"0.0-6.0-35.0"},{"sim_score":3,"rt":5283,"stimulus":"[\"img/0886/1e8c0f89-c766-41c9-b522-83c342048f34.jpg\",\"img/0862/ad593cc7-cabe-4bb7-8e14-8a447a0717b4.jpg\"]","trial_type":"similarity","trial_index":42,"time_elapsed":350144,"internal_node_id":"0.0-6.0-36.0"},{"sim_score":3,"rt":5810,"stimulus":"[\"img/0862/eefa5588-9efd-4591-aa5f-a2e17c7d7bcc.jpg\",\"img/0885/05af267f-b982-498d-9807-ccd54689f9b4.jpg\"]","trial_type":"similarity","trial_index":43,"time_elapsed":356969,"internal_node_id":"0.0-6.0-37.0"},{"sim_score":5,"rt":4380,"stimulus":"[\"img/0758/d57c2592-a317-4f63-91be-91a3a9afd222.jpg\",\"img/0864/0f537697-a314-47c3-a8cc-8df23b7e536c.jpg\"]","trial_type":"similarity","trial_index":44,"time_elapsed":362363,"internal_node_id":"0.0-6.0-38.0"},{"sim_score":7,"rt":4511,"stimulus":"[\"img/0873/d39b1731-1669-4c96-b5c6-682b30e287ee.jpg\",\"img/0867/a749dddb-69f0-44a6-acdc-2bf295cf6dcc.jpg\"]","trial_type":"similarity","trial_index":45,"time_elapsed":367902,"internal_node_id":"0.0-6.0-39.0"},{"sim_score":5,"rt":5147,"stimulus":"[\"img/0958/86d1a76d-f067-4e36-9ab5-13da78c97c0e.jpg\",\"img/0884/7f9cc898-36bc-49ec-8b1a-01065d9c0062.jpg\"]","trial_type":"similarity","trial_index":46,"time_elapsed":374073,"internal_node_id":"0.0-6.0-40.0"},{"sim_score":4,"rt":4806,"stimulus":"[\"img/0873/33552b07-bdb8-423e-88b4-25a37f159c6d.jpg\",\"img/0873/c4b47588-9c66-4401-aefc-cf9481d5fa85.jpg\"]","trial_type":"similarity","trial_index":47,"time_elapsed":384127,"internal_node_id":"0.0-6.0-41.0"},{"sim_score":3,"rt":4288,"stimulus":"[\"img/0886/789f5d23-84b8-499a-ae1e-20c6309a06ae.jpg\",\"img/0758/e1ba5e53-addc-436a-b428-d34fc1b130dc.jpg\"]","trial_type":"similarity","trial_index":48,"time_elapsed":389433,"internal_node_id":"0.0-6.0-42.0"},{"sim_score":4,"rt":4872,"stimulus":"[\"img/0883/e7e4af6a-bc7a-4a9b-921c-32652db13239.jpg\",\"img/0874/29830da7-be5f-44e5-b141-652a0ccf7269.jpg\"]","trial_type":"similarity","trial_index":49,"time_elapsed":395415,"internal_node_id":"0.0-6.0-43.0"},{"sim_score":4,"rt":3902,"stimulus":"[\"img/0881/14236cf2-6b95-48b8-9368-78af09d2d27f.jpg\",\"img/0873/6110910a-7895-4b6a-af51-12486a4595a3.jpg\"]","trial_type":"similarity","trial_index":50,"time_elapsed":400337,"internal_node_id":"0.0-6.0-44.0"},{"sim_score":4,"rt":3108,"stimulus":"[\"img/0867/1719a35d-f085-48c0-9099-16c94fe418b4.jpg\",\"img/0757/8993d166-c8ae-43f6-b269-9e8bd3379d57.jpg\"]","trial_type":"similarity","trial_index":51,"time_elapsed":404474,"internal_node_id":"0.0-6.0-45.0"},{"sim_score":4,"rt":2449,"stimulus":"[\"img/0866/f756f7d1-9ad8-4a34-9ef6-7a443d705bfe.jpg\",\"img/0874/85eb9b8a-c4c6-4e5a-b8e7-363a87a82054.jpg\"]","trial_type":"similarity","trial_index":52,"time_elapsed":407945,"internal_node_id":"0.0-6.0-46.0"},{"sim_score":7,"rt":4487,"stimulus":"[\"img/0886/9b0bffbe-9237-404d-a0ba-a1982e0814c7.jpg\",\"img/0886/e5903946-897c-4420-87c0-afee4100305c.jpg\"]","trial_type":"similarity","trial_index":53,"time_elapsed":413458,"internal_node_id":"0.0-6.0-47.0"},{"sim_score":5,"rt":6407,"stimulus":"[\"img/0883/387a9e30-7d95-483e-af34-c8262f62385f.jpg\",\"img/0860/99c589b9-9140-4d17-90c0-b344323edcda.jpg\"]","trial_type":"similarity","trial_index":54,"time_elapsed":420881,"internal_node_id":"0.0-6.0-48.0"},{"sim_score":4,"rt":4310,"stimulus":"[\"img/0860/fd4662f9-4c03-4d79-8593-06735e55a64b.jpg\",\"img/0756/64441928-baa3-49c8-a605-ee2370389b9f.jpg\"]","trial_type":"similarity","trial_index":55,"time_elapsed":426206,"internal_node_id":"0.0-6.0-49.0"},{"sim_score":4,"rt":4210,"stimulus":"[\"img/0860/9593362c-9fe5-4d12-9735-6000a11f6aa5.jpg\",\"img/0757/6ecf2f24-3286-49d6-b5ed-bb2da660c588.jpg\"]","trial_type":"similarity","trial_index":56,"time_elapsed":431434,"internal_node_id":"0.0-6.0-50.0"},{"sim_score":7,"rt":3016,"stimulus":"[\"img/0756/6d2df7ce-35aa-4a5d-ab53-974d2c02034e.jpg\",\"img/0756/09fde3d3-27c5-435e-b68f-5410beb04e99.jpg\"]","trial_type":"similarity","trial_index":57,"time_elapsed":435465,"internal_node_id":"0.0-6.0-51.0"},{"sim_score":7,"rt":4177,"stimulus":"[\"img/0875/5a1e5100-0d94-4fec-bbe9-ca9894d2cf8e.jpg\",\"img/0866/be24ab58-230e-4db8-9f45-ff04c9aec6bb.jpg\"]","trial_type":"similarity","trial_index":58,"time_elapsed":440657,"internal_node_id":"0.0-6.0-52.0"},{"sim_score":5,"rt":2986,"stimulus":"[\"img/0756/a8246880-fb51-43bb-b25d-905e6e0d7880.jpg\",\"img/0758/7fba58df-2a7a-4b76-8a8f-62739f97f271.jpg\"]","trial_type":"similarity","trial_index":59,"time_elapsed":444657,"internal_node_id":"0.0-6.0-53.0"},{"sim_score":5,"rt":4638,"stimulus":"[\"img/0761/a74c99e4-d9ed-42cd-9e83-8d525cb6a9a2.jpg\",\"img/0884/a6389ab4-3291-4434-9b91-eeae3b04fce4.jpg\"]","trial_type":"similarity","trial_index":60,"time_elapsed":450313,"internal_node_id":"0.0-6.0-54.0"},{"sim_score":4,"rt":3152,"stimulus":"[\"img/0760/32bea725-69a2-4c9a-94d9-af05883fbb86.jpg\",\"img/0867/6e19c858-b606-45b2-a4c6-910a73f1d82c.jpg\"]","trial_type":"similarity","trial_index":61,"time_elapsed":454480,"internal_node_id":"0.0-6.0-55.0"},{"sim_score":4,"rt":4690,"stimulus":"[\"img/0866/c446214b-a368-4c65-ae39-ea46894256ab.jpg\",\"img/0884/5085d424-b3f5-461b-a1c7-f7ca55abcf4f.jpg\"]","trial_type":"similarity","trial_index":62,"time_elapsed":460184,"internal_node_id":"0.0-6.0-56.0"},{"sim_score":5,"rt":3371,"stimulus":"[\"img/0756/4fcf5ea1-c2e0-44b9-b07f-26cbf07e1801.jpg\",\"img/0761/07f8178b-8ce5-42d6-bca0-a0ae0e0e8eb3.jpg\"]","trial_type":"similarity","trial_index":63,"time_elapsed":464569,"internal_node_id":"0.0-6.0-57.0"},{"sim_score":4,"rt":4227,"stimulus":"[\"img/0867/075e0f95-856b-4cbb-acf5-092393aaf04e.jpg\",\"img/0860/524b2e98-5767-4d53-942c-ebae6925659b.jpg\"]","trial_type":"similarity","trial_index":64,"time_elapsed":469812,"internal_node_id":"0.0-6.0-58.0"},{"sim_score":5,"rt":5269,"stimulus":"[\"img/0881/4bd34581-94d8-4e88-8c89-5cef864ca3be.jpg\",\"img/0758/dd559618-7f09-4a07-8018-d311c4a5ea29.jpg\"]","trial_type":"similarity","trial_index":65,"time_elapsed":476109,"internal_node_id":"0.0-6.0-59.0"},{"sim_score":5,"rt":5146,"stimulus":"[\"img/0761/176fde97-0334-4d2b-8a7a-38960c2528f3.jpg\",\"img/0758/e38fd80d-18d0-42f3-b848-f930788e8bd7.jpg\"]","trial_type":"similarity","trial_index":66,"time_elapsed":482282,"internal_node_id":"0.0-6.0-60.0"},{"sim_score":3,"rt":5478,"stimulus":"[\"img/0958/7168f8d3-e3ae-405a-93d0-64836d899932.jpg\",\"img/0875/e7e66b13-b573-431e-b85e-288ce04a35a3.jpg\"]","trial_type":"similarity","trial_index":67,"time_elapsed":488776,"internal_node_id":"0.0-6.0-61.0"},{"sim_score":3,"rt":4369,"stimulus":"[\"img/0886/9f186bd5-d48b-4cc2-9206-be67c392faa9.jpg\",\"img/0864/66091c27-e588-4476-8af9-265dc6be4156.jpg\"]","trial_type":"similarity","trial_index":68,"time_elapsed":494162,"internal_node_id":"0.0-6.0-62.0"},{"sim_score":4,"rt":3203,"stimulus":"[\"img/0756/aa551726-e765-4729-82aa-99d700d388ae.jpg\",\"img/0874/1016b306-087c-4afc-aa08-fa527b28dc76.jpg\"]","trial_type":"similarity","trial_index":69,"time_elapsed":498385,"internal_node_id":"0.0-6.0-63.0"},{"sim_score":5,"rt":5033,"stimulus":"[\"img/0758/20497cbe-ddae-489e-86e2-ab06985ed07c.jpg\",\"img/0885/fce9f22a-f769-477c-acee-a5ad8214f0a5.jpg\"]","trial_type":"similarity","trial_index":70,"time_elapsed":504434,"internal_node_id":"0.0-6.0-64.0"},{"sim_score":4,"rt":4407,"stimulus":"[\"img/0760/4c78b78c-193e-4a1e-8bb2-394add325fda.jpg\",\"img/0958/9be61b1d-099b-432a-ae0e-2aa69e157c0e.jpg\"]","trial_type":"similarity","trial_index":71,"time_elapsed":509857,"internal_node_id":"0.0-6.0-65.0"},{"sim_score":5,"rt":3747,"stimulus":"[\"img/0884/2348ce3f-5d2a-4a04-85ef-a65f05caa935.jpg\",\"img/0881/405484ae-0d00-4b05-bc57-6420a36adfac.jpg\"]","trial_type":"similarity","trial_index":72,"time_elapsed":514616,"internal_node_id":"0.0-6.0-66.0"},{"sim_score":3,"rt":5627,"stimulus":"[\"img/0864/49150900-7f25-4ce8-8d10-9b47a71d1997.jpg\",\"img/0873/0d9b4403-7f26-46dc-b0b7-2b97b0a91b46.jpg\"]","trial_type":"similarity","trial_index":73,"time_elapsed":521257,"internal_node_id":"0.0-6.0-67.0"},{"sim_score":4,"rt":3448,"stimulus":"[\"img/0862/53a9cf7c-93c4-41b9-952f-07d17f7a17b2.jpg\",\"img/0758/2fa3e613-e676-4e6e-bd12-705327eeb3e1.jpg\"]","trial_type":"similarity","trial_index":74,"time_elapsed":525721,"internal_node_id":"0.0-6.0-68.0"},{"sim_score":7,"rt":5010,"stimulus":"[\"img/0757/cd7fd185-981f-477a-ba00-a0f65bcfd0e9.jpg\",\"img/0757/acda7aee-6b29-463f-bf01-0d64d6a6ae2b.jpg\"]","trial_type":"similarity","trial_index":75,"time_elapsed":531745,"internal_node_id":"0.0-6.0-69.0"},{"sim_score":4,"rt":4811,"stimulus":"[\"img/0860/15b24a61-25be-4356-9eac-5ce95d0cb4a4.jpg\",\"img/0862/57b6f83f-c763-4858-830d-102f97bfefbf.jpg\"]","trial_type":"similarity","trial_index":76,"time_elapsed":537572,"internal_node_id":"0.0-6.0-70.0"},{"sim_score":4,"rt":4343,"stimulus":"[\"img/0860/87039971-2210-4aab-93c0-8e9b5f1655b2.jpg\",\"img/0884/37ee4afa-34a0-4da2-bdb0-fcaff43dcdb6.jpg\"]","trial_type":"similarity","trial_index":77,"time_elapsed":542937,"internal_node_id":"0.0-6.0-71.0"},{"sim_score":4,"rt":3046,"stimulus":"[\"img/0883/00d89148-b7d4-49d2-831a-2eee070a85a4.jpg\",\"img/0866/9b38d691-1802-4959-ab3f-fc902f0e4ea6.jpg\"]","trial_type":"similarity","trial_index":78,"time_elapsed":547001,"internal_node_id":"0.0-6.0-72.0"},{"sim_score":4,"rt":3880,"stimulus":"[\"img/0866/8efcaa46-83ab-4dee-a35f-850402aa21ae.jpg\",\"img/0886/625c7dfa-3fa1-4166-80f0-229eb416b04f.jpg\"]","trial_type":"similarity","trial_index":79,"time_elapsed":551900,"internal_node_id":"0.0-6.0-73.0"},{"sim_score":4,"rt":3821,"stimulus":"[\"img/0958/54f27d86-00c0-46b2-b2c9-050c9cc60fe0.jpg\",\"img/0761/1725cacb-5f86-4b47-a5c0-3c36cd981588.jpg\"]","trial_type":"similarity","trial_index":80,"time_elapsed":556745,"internal_node_id":"0.0-6.0-74.0"},{"sim_score":4,"rt":2861,"stimulus":"[\"img/0875/cff79b3a-a797-4393-9757-6275f999ec04.jpg\",\"img/0756/350ac166-1deb-4399-89db-da6a7e827c4d.jpg\"]","trial_type":"similarity","trial_index":81,"time_elapsed":560625,"internal_node_id":"0.0-6.0-75.0"},{"sim_score":4,"rt":2962,"stimulus":"[\"img/0958/5a91b0e8-8f60-4625-b88c-d6e55b4d7d93.jpg\",\"img/0885/fbbfaacd-e49b-4d37-a2f9-fcaffa58f26f.jpg\"]","trial_type":"similarity","trial_index":82,"time_elapsed":564601,"internal_node_id":"0.0-6.0-76.0"},{"sim_score":3,"rt":4992,"stimulus":"[\"img/0868/e0aff734-077f-40dd-9781-74821abd3621.jpg\",\"img/0883/fc8cf4c9-003e-48c4-b222-8878ea2ae1c0.jpg\"]","trial_type":"similarity","trial_index":83,"time_elapsed":570609,"internal_node_id":"0.0-6.0-77.0"},{"sim_score":3,"rt":3623,"stimulus":"[\"img/0862/ee3b7bff-4a70-4e84-9bea-4a565e456acb.jpg\",\"img/0760/c7d43bfd-465f-4f4e-8dc1-ae4cd3d2c1de.jpg\"]","trial_type":"similarity","trial_index":84,"time_elapsed":575249,"internal_node_id":"0.0-6.0-78.0"},{"sim_score":4,"rt":4114,"stimulus":"[\"img/0885/21b241a1-95da-4306-9cf2-cc52a784214a.jpg\",\"img/0761/71d2e184-21b4-4711-97f3-e381c641da2c.jpg\"]","trial_type":"similarity","trial_index":85,"time_elapsed":580377,"internal_node_id":"0.0-6.0-79.0"},{"sim_score":4,"rt":3027,"stimulus":"[\"img/0862/99a99e39-8355-44ec-b993-e7bcec111e1c.jpg\",\"img/0864/0116ca98-293d-4fa6-a93b-5a6144ef64cc.jpg\"]","trial_type":"similarity","trial_index":86,"time_elapsed":584417,"internal_node_id":"0.0-6.0-80.0"},{"sim_score":7,"rt":4412,"stimulus":"[\"img/0758/a085b443-b5d7-4cb2-9ad4-b9dab0fc23f1.jpg\",\"img/0758/eabcd7a8-56ad-4fd2-bc24-90f6b7b33265.jpg\"]","trial_type":"similarity","trial_index":87,"time_elapsed":589841,"internal_node_id":"0.0-6.0-81.0"},{"sim_score":4,"rt":4282,"stimulus":"[\"img/0862/f188d4f0-76a4-4102-818c-a209969d73a5.jpg\",\"img/0873/841d6549-01d2-4ebd-8d67-25d219876178.jpg\"]","trial_type":"similarity","trial_index":88,"time_elapsed":595137,"internal_node_id":"0.0-6.0-82.0"},{"sim_score":3,"rt":5386,"stimulus":"[\"img/0760/9daf8012-19c4-498f-8f51-81ec001a83be.jpg\",\"img/0757/94c7f207-1115-4451-b22b-1f74b3661208.jpg\"]","trial_type":"similarity","trial_index":89,"time_elapsed":3317719,"internal_node_id":"0.0-6.0-83.0"},{"sim_score":2,"rt":5918,"stimulus":"[\"img/0867/c66898ba-b71b-4d50-84f9-f7f84853a98d.jpg\",\"img/0881/7e31e5dc-2240-4b1b-b5a0-3acd980099ef.jpg\"]","trial_type":"similarity","trial_index":90,"time_elapsed":3324667,"internal_node_id":"0.0-6.0-84.0"},{"sim_score":3,"rt":4024,"stimulus":"[\"img/0885/5a47e19f-19b4-4545-bf47-b508cb65da6a.jpg\",\"img/0886/48077111-b86b-4612-910f-90a5d168d77f.jpg\"]","trial_type":"similarity","trial_index":91,"time_elapsed":3329714,"internal_node_id":"0.0-6.0-85.0"},{"sim_score":5,"rt":3884,"stimulus":"[\"img/0866/a15b02be-11bb-43e3-b0e0-ecc3bd7dfc49.jpg\",\"img/0864/3d4de670-b290-4285-9c3d-12a0e3af44e9.jpg\"]","trial_type":"similarity","trial_index":92,"time_elapsed":3334618,"internal_node_id":"0.0-6.0-86.0"},{"sim_score":6,"rt":5744,"stimulus":"[\"img/0874/995f0332-0439-4eb4-add3-957335dbf6d9.jpg\",\"img/0881/d1982897-8d8d-4704-a940-1ee5d07a1f15.jpg\"]","trial_type":"similarity","trial_index":93,"time_elapsed":3341378,"internal_node_id":"0.0-6.0-87.0"},{"sim_score":5,"rt":4712,"stimulus":"[\"img/0866/945c6710-d15b-4a5b-a8f6-69af0850357f.jpg\",\"img/0760/e697857f-b21d-4c49-8cde-1b803b437311.jpg\"]","trial_type":"similarity","trial_index":94,"time_elapsed":3347106,"internal_node_id":"0.0-6.0-88.0"},{"sim_score":4,"rt":3345,"stimulus":"[\"img/0867/a498eef3-9fa4-4ab2-9778-4ae82ac40dc5.jpg\",\"img/0884/d9185264-7f01-43b2-be7f-eed1a0f0f2e8.jpg\"]","trial_type":"similarity","trial_index":95,"time_elapsed":3351466,"internal_node_id":"0.0-6.0-89.0"},{"sim_score":3,"rt":2741,"stimulus":"[\"img/0757/fd3c82c8-3311-4fae-bcec-10559587910a.jpg\",\"img/0862/92f0146c-20c4-482e-aef5-adb693790338.jpg\"]","trial_type":"similarity","trial_index":96,"time_elapsed":3355226,"internal_node_id":"0.0-6.0-90.0"},{"sim_score":3,"rt":3336,"stimulus":"[\"img/0867/8ba0c5a7-c7e4-42cf-a80a-543763b90779.jpg\",\"img/0761/a69897c1-1310-4bae-9a51-8b29cd9543dd.jpg\"]","trial_type":"similarity","trial_index":97,"time_elapsed":3359579,"internal_node_id":"0.0-6.0-91.0"},{"sim_score":4,"rt":2661,"stimulus":"[\"img/0868/0d3abd3a-b6c3-4584-a9f7-e2da63748b3d.jpg\",\"img/0958/0a8f72c4-0c73-4d58-be6f-5e4613b87409.jpg\"]","trial_type":"similarity","trial_index":98,"time_elapsed":3363257,"internal_node_id":"0.0-6.0-92.0"},{"sim_score":5,"rt":3883,"stimulus":"[\"img/0874/3ce41e7c-40c8-4d58-a546-171114521796.jpg\",\"img/0864/6e846d43-94a6-4b37-a268-65eda979f052.jpg\"]","trial_type":"similarity","trial_index":99,"time_elapsed":3368154,"internal_node_id":"0.0-6.0-93.0"},{"sim_score":5,"rt":4137,"stimulus":"[\"img/0760/319c5462-51de-4d3b-a135-d6c44f59c0e1.jpg\",\"img/0873/c91c05f8-fafd-4054-bcf1-f5ed1f0a18e8.jpg\"]","trial_type":"similarity","trial_index":100,"time_elapsed":3373307,"internal_node_id":"0.0-6.0-94.0"},{"sim_score":4,"rt":3505,"stimulus":"[\"img/0868/1a62b2b2-18f5-466e-b564-5176a57c565e.jpg\",\"img/0873/90b702a6-3dba-446a-9bba-a2ee096baf49.jpg\"]","trial_type":"similarity","trial_index":101,"time_elapsed":3377825,"internal_node_id":"0.0-6.0-95.0"},{"sim_score":4,"rt":3058,"stimulus":"[\"img/0860/94ef7afc-e0e6-4a15-98c6-0bfac82bc832.jpg\",\"img/0761/e18d2113-1ed1-4a80-8171-4be5ee28d343.jpg\"]","trial_type":"similarity","trial_index":102,"time_elapsed":3381897,"internal_node_id":"0.0-6.0-96.0"},{"sim_score":4,"rt":4499,"stimulus":"[\"img/0862/47ed5efd-4ec9-4b74-bb4e-a5f5cf0c3e7d.jpg\",\"img/0883/0e1ed5c7-0881-4bfd-b12f-6a53500e74f0.jpg\"]","trial_type":"similarity","trial_index":103,"time_elapsed":3387413,"internal_node_id":"0.0-6.0-97.0"},{"sim_score":4,"rt":3540,"stimulus":"[\"img/0757/efa4466e-2951-4af9-b321-85458a89c2a7.jpg\",\"img/0884/10c0a35b-e20a-4d75-a7c0-959a578d9ebf.jpg\"]","trial_type":"similarity","trial_index":104,"time_elapsed":3391982,"internal_node_id":"0.0-6.0-98.0"},{"sim_score":3,"rt":3869,"stimulus":"[\"img/0867/179ab87a-8eac-4c52-a41f-2e48e3120f09.jpg\",\"img/0756/dbe25ae4-de3f-44b2-907f-6f2fc03ed1f0.jpg\"]","trial_type":"similarity","trial_index":105,"time_elapsed":3396875,"internal_node_id":"0.0-6.0-99.0"},{"sim_score":3,"rt":4791,"stimulus":"[\"img/0958/eea2b7ca-1c37-4e76-ada7-a8b1f3afdc01.jpg\",\"img/0756/792f9475-979d-4787-b7dc-8a0d02f6e25f.jpg\"]","trial_type":"similarity","trial_index":106,"time_elapsed":3402682,"internal_node_id":"0.0-6.0-100.0"},{"sim_score":4,"rt":6744,"stimulus":"[\"img/0760/39d75e1e-0645-4f23-a2ca-3bbefac19d69.jpg\",\"img/0760/191d8576-9ed7-4798-a486-66a7fd600e58.jpg\"]","trial_type":"similarity","trial_index":107,"time_elapsed":3410442,"internal_node_id":"0.0-6.0-101.0"},{"sim_score":4,"rt":3736,"stimulus":"[\"img/0873/226317e0-f0e7-42ea-907b-058cb1ad519a.jpg\",\"img/0875/90da8d75-108a-44ad-b999-e21fee3860d3.jpg\"]","trial_type":"similarity","trial_index":108,"time_elapsed":3415194,"internal_node_id":"0.0-6.0-102.0"},{"sim_score":7,"rt":4353,"stimulus":"[\"img/0884/3c61ea12-a408-47ce-98aa-b14e0f6d4591.jpg\",\"img/0884/baabff07-71d8-424e-ac29-644768380941.jpg\"]","trial_type":"similarity","trial_index":109,"time_elapsed":3420562,"internal_node_id":"0.0-6.0-103.0"},{"sim_score":5,"rt":4394,"stimulus":"[\"img/0873/0c7f3d86-efda-4809-aac4-256ba01e0536.jpg\",\"img/0885/4fd0aafb-6cc0-43d6-993a-c55a6e18a7ba.jpg\"]","trial_type":"similarity","trial_index":110,"time_elapsed":3425970,"internal_node_id":"0.0-6.0-104.0"},{"sim_score":4,"rt":3299,"stimulus":"[\"img/0883/599aacc5-bb0f-4dea-852c-9a27727eb0b9.jpg\",\"img/0875/3ecb367d-e9eb-4826-8aaa-7aa72fb98019.jpg\"]","trial_type":"similarity","trial_index":111,"time_elapsed":3430283,"internal_node_id":"0.0-6.0-105.0"},{"sim_score":4,"rt":2001,"stimulus":"[\"img/0864/4bd81bc6-c13d-46df-95a9-485886dc7c1b.jpg\",\"img/0867/db7e032f-162b-46f5-ae67-2b29679adee4.jpg\"]","trial_type":"similarity","trial_index":112,"time_elapsed":3433299,"internal_node_id":"0.0-6.0-106.0"},{"sim_score":4,"rt":3240,"stimulus":"[\"img/0958/fd950403-e452-4018-8207-a9714addcd75.jpg\",\"img/0860/61fb959d-d4d9-4de4-9e4e-4fa62b4cfcd5.jpg\"]","trial_type":"similarity","trial_index":113,"time_elapsed":3437554,"internal_node_id":"0.0-6.0-107.0"},{"sim_score":4,"rt":2839,"stimulus":"[\"img/0885/ef0386f3-e5d4-481b-8894-60b80e08bbe8.jpg\",\"img/0756/7a68b61c-212a-4f14-8b6f-4d74b6cd206e.jpg\"]","trial_type":"similarity","trial_index":114,"time_elapsed":3441410,"internal_node_id":"0.0-6.0-108.0"},{"sim_score":4,"rt":2409,"stimulus":"[\"img/0883/6dcd54c3-64a3-4ed5-9149-d8b9aa1938c8.jpg\",\"img/0885/24afeefb-f7b3-4e8f-a5b9-17cc00fd22e3.jpg\"]","trial_type":"similarity","trial_index":115,"time_elapsed":3444833,"internal_node_id":"0.0-6.0-109.0"},{"sim_score":6,"rt":3818,"stimulus":"[\"img/0867/50a1b60e-3a29-44bf-b606-d4bd3746fea9.jpg\",\"img/0867/2e1a0b58-cdb1-4107-a14e-452530d7b9b0.jpg\"]","trial_type":"similarity","trial_index":116,"time_elapsed":3449666,"internal_node_id":"0.0-6.0-110.0"},{"sim_score":5,"rt":5906,"stimulus":"[\"img/0881/633c6f40-56d9-4b48-bf1c-ecd83116eabb.jpg\",\"img/0760/a97cc3a7-3e6e-423e-ac87-e1d1ab280ae9.jpg\"]","trial_type":"similarity","trial_index":117,"time_elapsed":3456588,"internal_node_id":"0.0-6.0-111.0"},{"sim_score":3,"rt":2845,"stimulus":"[\"img/0881/20af39f5-373d-4a55-a437-2dc4c0382c46.jpg\",\"img/0868/d6d1f30d-4323-435a-b194-7892521bc57e.jpg\"]","trial_type":"similarity","trial_index":118,"time_elapsed":3460462,"internal_node_id":"0.0-6.0-112.0"},{"sim_score":3,"rt":4092,"stimulus":"[\"img/0875/2e13d160-eea1-416b-aff1-d37ab99ecc1d.jpg\",\"img/0761/ff3e024b-951d-4aca-a168-c09c6507525d.jpg\"]","trial_type":"similarity","trial_index":119,"time_elapsed":3465578,"internal_node_id":"0.0-6.0-113.0"},{"sim_score":3,"rt":4454,"stimulus":"[\"img/0756/d0f1b906-d8e0-4528-9d08-90cec14838ec.jpg\",\"img/0866/11a1d141-be5e-443c-98c1-a9d4d9e3dec0.jpg\"]","trial_type":"similarity","trial_index":120,"time_elapsed":3471050,"internal_node_id":"0.0-6.0-114.0"},{"sim_score":2,"rt":3560,"stimulus":"[\"img/0884/3613aeb4-0028-4205-aea0-1ea28cb1f80e.jpg\",\"img/0886/42cccc64-05f9-4afd-bc93-496ba50a4342.jpg\"]","trial_type":"similarity","trial_index":121,"time_elapsed":3475629,"internal_node_id":"0.0-6.0-115.0"},{"sim_score":4,"rt":3017,"stimulus":"[\"img/0756/76516e04-06c4-4108-9130-fa84d688f55a.jpg\",\"img/0881/c24f3051-eefa-42de-aba6-fccb56d93c70.jpg\"]","trial_type":"similarity","trial_index":122,"time_elapsed":3479666,"internal_node_id":"0.0-6.0-116.0"},{"sim_score":3,"rt":6865,"stimulus":"[\"img/0760/0864f159-c076-4573-83e1-ea134f239717.jpg\",\"img/0875/f87b67d7-c33e-40d1-b281-248c4be1cb6e.jpg\"]","trial_type":"similarity","trial_index":123,"time_elapsed":3487549,"internal_node_id":"0.0-6.0-117.0"},{"sim_score":3,"rt":3384,"stimulus":"[\"img/0958/e9e2cc42-eb3b-4c91-8112-a517305c15f0.jpg\",\"img/0866/620cd1aa-0800-4414-8f6e-90342e7a99ad.jpg\"]","trial_type":"similarity","trial_index":124,"time_elapsed":3491946,"internal_node_id":"0.0-6.0-118.0"},{"sim_score":4,"rt":3281,"stimulus":"[\"img/0867/7d1c497b-c1b3-4ed8-abb5-d7f73306015f.jpg\",\"img/0874/a82926a3-0b43-4add-803c-d5f9ea7798ee.jpg\"]","trial_type":"similarity","trial_index":125,"time_elapsed":3496251,"internal_node_id":"0.0-6.0-119.0"},{"sim_score":4,"rt":3216,"stimulus":"[\"img/0883/724f020e-39d9-495c-abe1-b2e4504be9bc.jpg\",\"img/0757/20c59f64-1fc2-448d-8423-42cbd8fe0164.jpg\"]","trial_type":"similarity","trial_index":126,"time_elapsed":3500491,"internal_node_id":"0.0-6.0-120.0"},{"sim_score":3,"rt":4072,"stimulus":"[\"img/0874/c0378dac-9370-439a-8b79-db27c96fb390.jpg\",\"img/0886/abd8dd83-d8ee-4003-b4d2-b4045220a578.jpg\"]","trial_type":"similarity","trial_index":127,"time_elapsed":3505580,"internal_node_id":"0.0-6.0-121.0"},{"sim_score":4,"rt":3633,"stimulus":"[\"img/0873/e5374873-a1a7-4689-a04c-a3b959992244.jpg\",\"img/0761/6b42b402-9e0f-4179-9e10-660b2c07626b.jpg\"]","trial_type":"similarity","trial_index":128,"time_elapsed":3510245,"internal_node_id":"0.0-6.0-122.0"},{"sim_score":3,"rt":3858,"stimulus":"[\"img/0875/99698b4d-b4a1-44bc-8c83-8ea755bbbf61.jpg\",\"img/0884/e275ab3e-0948-43c3-8be7-a75271922185.jpg\"]","trial_type":"similarity","trial_index":129,"time_elapsed":3515132,"internal_node_id":"0.0-6.0-123.0"},{"sim_score":3,"rt":5955,"stimulus":"[\"img/0757/c05f53f3-811c-4a3b-b848-a27b80b8fd53.jpg\",\"img/0868/6a28c3b0-3d76-498a-9fb7-ddafc665eca8.jpg\"]","trial_type":"similarity","trial_index":130,"time_elapsed":3522107,"internal_node_id":"0.0-6.0-124.0"},{"sim_score":2,"rt":4457,"stimulus":"[\"img/0886/451550d7-6ff9-42b5-938c-9e20ee960bf6.jpg\",\"img/0883/122548fc-b3cc-445b-b7c0-04794df6d11d.jpg\"]","trial_type":"similarity","trial_index":131,"time_elapsed":3531081,"internal_node_id":"0.0-6.0-125.0"},{"sim_score":4,"rt":3128,"stimulus":"[\"img/0868/8b0b8473-e2c0-4331-aa56-c3a5c29369da.jpg\",\"img/0760/237fa1c2-d59d-4475-8d1e-f9a4eb71f989.jpg\"]","trial_type":"similarity","trial_index":132,"time_elapsed":3535226,"internal_node_id":"0.0-6.0-126.0"},{"sim_score":6,"rt":5490,"stimulus":"[\"img/0881/e046471a-35b4-4159-bbf7-3cfd201bef66.jpg\",\"img/0881/7e822106-76f7-4b10-a805-14dc68b2cfaf.jpg\"]","trial_type":"similarity","trial_index":133,"time_elapsed":3541731,"internal_node_id":"0.0-6.0-127.0"},{"sim_score":3,"rt":4337,"stimulus":"[\"img/0760/36c930c0-2660-41c1-a356-77dafb18ae83.jpg\",\"img/0860/f44ba3fb-03a2-42f0-8509-2c1ded493086.jpg\"]","trial_type":"similarity","trial_index":134,"time_elapsed":3547082,"internal_node_id":"0.0-6.0-128.0"},{"sim_score":4,"rt":2826,"stimulus":"[\"img/0864/da39ad34-04e0-40d4-a724-c08d53e0ea09.jpg\",\"img/0885/62bd11a8-7059-4cc2-b06d-4700688b313f.jpg\"]","trial_type":"similarity","trial_index":135,"time_elapsed":3550923,"internal_node_id":"0.0-6.0-129.0"},{"sim_score":4,"rt":2489,"stimulus":"[\"img/0864/ea327690-500b-4137-bf91-451b309fe6a5.jpg\",\"img/0757/4faaa503-45d9-43fa-bddb-707274a341ff.jpg\"]","trial_type":"similarity","trial_index":136,"time_elapsed":3554427,"internal_node_id":"0.0-6.0-130.0"},{"sim_score":4,"rt":3223,"stimulus":"[\"img/0760/dddcdfaf-2d02-4de9-a176-5705d0004b5a.jpg\",\"img/0883/77f31752-1984-44f7-a77d-e22c2ad54256.jpg\"]","trial_type":"similarity","trial_index":137,"time_elapsed":3558666,"internal_node_id":"0.0-6.0-131.0"},{"sim_score":7,"rt":2874,"stimulus":"[\"img/0885/517a9189-9623-4ed7-a37e-48788791e028.jpg\",\"img/0885/0cdcdaca-f91e-4d4a-a6f6-dc90ab676435.jpg\"]","trial_type":"similarity","trial_index":138,"time_elapsed":3562556,"internal_node_id":"0.0-6.0-132.0"},{"sim_score":3,"rt":3376,"stimulus":"[\"img/0860/4c530c3c-6aab-492a-94d1-9c01797bde40.jpg\",\"img/0868/83b4350a-3b70-4cea-b7f5-b5b56f3050a8.jpg\"]","trial_type":"similarity","trial_index":139,"time_elapsed":3566947,"internal_node_id":"0.0-6.0-133.0"},{"sim_score":7,"rt":4201,"stimulus":"[\"img/0867/f26f6b60-f772-4f4c-95a4-addc62cfd692.jpg\",\"img/0886/b8648eb5-de71-41ab-825d-848e51be8c1b.jpg\"]","trial_type":"similarity","trial_index":140,"time_elapsed":3572165,"internal_node_id":"0.0-6.0-134.0"},{"sim_score":4,"rt":3508,"stimulus":"[\"img/0756/00b775eb-fe41-49b2-92e9-a9955cf1042b.jpg\",\"img/0886/9ac18ff1-d3d9-4bfe-aa2e-ed5b28399f6c.jpg\"]","trial_type":"similarity","trial_index":141,"time_elapsed":3576699,"internal_node_id":"0.0-6.0-135.0"},{"sim_score":6,"rt":3758,"stimulus":"[\"img/0884/a8f7b854-0010-4c7a-a8fb-b1b1dc1f1ba1.jpg\",\"img/0868/77091fc7-a590-4ebb-b915-fdb2483a2399.jpg\"]","trial_type":"similarity","trial_index":142,"time_elapsed":3581476,"internal_node_id":"0.0-6.0-136.0"},{"sim_score":6,"rt":5304,"stimulus":"[\"img/0958/acbadc39-e665-446d-b98f-ccd0ef3223d6.jpg\",\"img/0958/d4138705-0a9d-4141-9af9-205e69367c44.jpg\"]","trial_type":"similarity","trial_index":143,"time_elapsed":3587802,"internal_node_id":"0.0-6.0-137.0"},{"sim_score":4,"rt":4623,"stimulus":"[\"img/0886/aef00ed5-e288-47bf-b31e-512d7e762ea2.jpg\",\"img/0873/b02f9cce-7f58-4f1b-baed-50fee9f0a21f.jpg\"]","trial_type":"similarity","trial_index":144,"time_elapsed":3593442,"internal_node_id":"0.0-6.0-138.0"},{"sim_score":3,"rt":3978,"stimulus":"[\"img/0758/f61ecdf8-a7d4-4db0-b84d-be46f7cfaffc.jpg\",\"img/0873/c2a7452d-a271-4207-81ce-bda281dc0297.jpg\"]","trial_type":"similarity","trial_index":145,"time_elapsed":3598435,"internal_node_id":"0.0-6.0-139.0"},{"sim_score":3,"rt":4054,"stimulus":"[\"img/0873/c3ff3b70-fb22-42f2-883c-3ecffd77cb4b.jpg\",\"img/0756/c7199ce2-2203-43c6-90d7-78f77277b522.jpg\"]","trial_type":"similarity","trial_index":146,"time_elapsed":3603506,"internal_node_id":"0.0-6.0-140.0"},{"sim_score":2,"rt":3346,"stimulus":"[\"img/0868/5fa7f9d0-f0e5-454c-8224-74d964818f56.jpg\",\"img/0862/4f0a3b4c-afbf-486e-b248-1d54982f54b4.jpg\"]","trial_type":"similarity","trial_index":147,"time_elapsed":3607867,"internal_node_id":"0.0-6.0-141.0"},{"sim_score":5,"rt":4185,"stimulus":"[\"img/0881/dea58fad-b4f1-41d9-bd3f-916eff19a3fd.jpg\",\"img/0862/00c06b00-3b73-44e9-bc1e-c5aafb438321.jpg\"]","trial_type":"similarity","trial_index":148,"time_elapsed":3613066,"internal_node_id":"0.0-6.0-142.0"},{"sim_score":5,"rt":3338,"stimulus":"[\"img/0885/1e66fe61-15d5-42b1-86aa-dbfd13613f5c.jpg\",\"img/0867/ac1797e4-8afc-48fe-b252-86d1defb1cca.jpg\"]","trial_type":"similarity","trial_index":149,"time_elapsed":3617419,"internal_node_id":"0.0-6.0-143.0"},{"sim_score":4,"rt":3273,"stimulus":"[\"img/0883/6884954b-873e-4d6f-9b4b-95d158e0de6c.jpg\",\"img/0883/1f394dd2-551c-4c8b-af82-f6a6fbe567bb.jpg\"]","trial_type":"similarity","trial_index":150,"time_elapsed":3621707,"internal_node_id":"0.0-6.0-144.0"},{"sim_score":4,"rt":2074,"stimulus":"[\"img/0874/767f289c-9814-4496-803f-745cc8913d1f.jpg\",\"img/0873/87f38f18-48a2-4de3-b24b-70630e8b6ca0.jpg\"]","trial_type":"similarity","trial_index":151,"time_elapsed":3624794,"internal_node_id":"0.0-6.0-145.0"},{"sim_score":3,"rt":4911,"stimulus":"[\"img/0757/b46cab21-50e3-4f19-803d-682627bcd6a6.jpg\",\"img/0758/7ee8bc8f-c40b-4b3a-84ec-3e83580622d4.jpg\"]","trial_type":"similarity","trial_index":152,"time_elapsed":3630722,"internal_node_id":"0.0-6.0-146.0"},{"sim_score":3,"rt":4480,"stimulus":"[\"img/0883/ff85a2f1-14b1-4b7e-9c87-887151d97e01.jpg\",\"img/0756/6413e12f-951d-47b5-ae55-9fad7fb8d112.jpg\"]","trial_type":"similarity","trial_index":153,"time_elapsed":3636220,"internal_node_id":"0.0-6.0-147.0"},{"sim_score":3,"rt":3753,"stimulus":"[\"img/0867/f8488a47-94ee-4166-952c-44e16cf172f6.jpg\",\"img/0866/02f5e6b9-52b7-448c-9708-5b460d0c9a23.jpg\"]","trial_type":"similarity","trial_index":154,"time_elapsed":3640988,"internal_node_id":"0.0-6.0-148.0"},{"sim_score":3,"rt":2758,"stimulus":"[\"img/0758/67c0be2f-9e91-48b3-8219-70ac0a1802fa.jpg\",\"img/0760/83b0723f-4929-4ee7-ad35-fae98da3e152.jpg\"]","trial_type":"similarity","trial_index":155,"time_elapsed":3644770,"internal_node_id":"0.0-6.0-149.0"},{"sim_score":4,"rt":3347,"stimulus":"[\"img/0757/8fdf4047-c2dc-42bc-9724-c35bd113f1dc.jpg\",\"img/0761/00a8e7ae-d8da-4cba-8969-1dfb943a2aa2.jpg\"]","trial_type":"similarity","trial_index":156,"time_elapsed":3649142,"internal_node_id":"0.0-6.0-150.0"},{"sim_score":5,"rt":4298,"stimulus":"[\"img/0761/8e379ec1-757d-4427-a0ff-d4efdd6a50c4.jpg\",\"img/0874/93d1f8dc-acf2-4f03-bd8d-8ec35df276ed.jpg\"]","trial_type":"similarity","trial_index":157,"time_elapsed":3654459,"internal_node_id":"0.0-6.0-151.0"},{"sim_score":4,"rt":8694,"stimulus":"[\"img/0761/af21c992-a721-45fb-bee7-f50c0f676c30.jpg\",\"img/0760/111aecf1-147c-4227-90e0-9ed3a75e4e16.jpg\"]","trial_type":"similarity","trial_index":158,"time_elapsed":3664170,"internal_node_id":"0.0-6.0-152.0"},{"sim_score":6,"rt":5984,"stimulus":"[\"img/0866/23a224f3-2012-4fc8-8e0f-3c36f8de27fd.jpg\",\"img/0866/d493a2c8-66eb-44b4-be02-2f327b700b7c.jpg\"]","trial_type":"similarity","trial_index":159,"time_elapsed":3671171,"internal_node_id":"0.0-6.0-153.0"},{"sim_score":3,"rt":5707,"stimulus":"[\"img/0866/d266fece-59b3-46fa-b69f-96f6efb81b59.jpg\",\"img/0862/f23038d4-c366-4f70-979f-66b62362efa4.jpg\"]","trial_type":"similarity","trial_index":160,"time_elapsed":3677895,"internal_node_id":"0.0-6.0-154.0"},{"sim_score":2,"rt":4415,"stimulus":"[\"img/0756/8fdfa93c-88d0-4311-be2d-7f799fcaa8de.jpg\",\"img/0862/7918ca67-5bd3-4606-a5ea-c39fb11a9297.jpg\"]","trial_type":"similarity","trial_index":161,"time_elapsed":3683339,"internal_node_id":"0.0-6.0-155.0"},{"sim_score":2,"rt":4095,"stimulus":"[\"img/0860/b03b963d-949b-4d8d-b19c-4950c89eeca2.jpg\",\"img/0866/a04d37f0-99dd-478a-b6c6-58b215138f84.jpg\"]","trial_type":"similarity","trial_index":162,"time_elapsed":3688451,"internal_node_id":"0.0-6.0-156.0"},{"sim_score":2,"rt":4187,"stimulus":"[\"img/0862/064818ee-13d5-4618-bb24-21c7368ea278.jpg\",\"img/0958/6e602e13-8029-4642-bce0-8deffd0dc686.jpg\"]","trial_type":"similarity","trial_index":163,"time_elapsed":3693668,"internal_node_id":"0.0-6.0-157.0"},{"sim_score":3,"rt":4005,"stimulus":"[\"img/0761/b1819a20-de99-463b-9840-60a4b8faa30d.jpg\",\"img/0868/fd307a36-9a3a-47d7-ab7c-f810d0b35040.jpg\"]","trial_type":"similarity","trial_index":164,"time_elapsed":3698698,"internal_node_id":"0.0-6.0-158.0"},{"sim_score":1,"rt":3470,"stimulus":"[\"img/0761/b8f211c0-f640-43a2-b101-101774517d95.jpg\",\"img/0886/1870a791-dfee-471e-8417-197d4a53c75a.jpg\"]","trial_type":"similarity","trial_index":165,"time_elapsed":3703186,"internal_node_id":"0.0-6.0-159.0"},{"sim_score":2,"rt":3752,"stimulus":"[\"img/0874/eba003b4-cdab-4eee-8bc3-f064c7d94165.jpg\",\"img/0868/09a9ef4d-d000-4cfa-a6aa-ebec7c2edeb4.jpg\"]","trial_type":"similarity","trial_index":166,"time_elapsed":3707955,"internal_node_id":"0.0-6.0-160.0"},{"sim_score":3,"rt":3886,"stimulus":"[\"img/0860/31ff6436-98bf-4652-bed2-40f627229568.jpg\",\"img/0874/31e22c7c-99aa-40b1-bf03-dd73fa2df4d6.jpg\"]","trial_type":"similarity","trial_index":167,"time_elapsed":3712859,"internal_node_id":"0.0-6.0-161.0"},{"sim_score":2,"rt":4129,"stimulus":"[\"img/0883/b5e903b5-bc7f-421c-bf3e-245779ac90c9.jpg\",\"img/0867/98d8cd96-1476-4fe0-a3a3-04f875500a1b.jpg\"]","trial_type":"similarity","trial_index":168,"time_elapsed":3718002,"internal_node_id":"0.0-6.0-162.0"},{"sim_score":3,"rt":3945,"stimulus":"[\"img/0758/9fb5b2fe-3f00-4fe6-973c-1ce10d5f4cd5.jpg\",\"img/0958/ef1b718f-ef8c-497f-80d7-42562aebf1a7.jpg\"]","trial_type":"similarity","trial_index":169,"time_elapsed":3722962,"internal_node_id":"0.0-6.0-163.0"},{"sim_score":2,"rt":3890,"stimulus":"[\"img/0873/b509aa81-b1d7-4d50-8aef-9c7b725c3157.jpg\",\"img/0757/1fd9dcb9-e489-4708-b518-f356d3f5481d.jpg\"]","trial_type":"similarity","trial_index":170,"time_elapsed":3727866,"internal_node_id":"0.0-6.0-164.0"},{"sim_score":4,"rt":4057,"stimulus":"[\"img/0873/7dddc95f-ca6e-4d15-99a0-0e329ec6888e.jpg\",\"img/0866/4a87911a-d5be-4d4e-ab8e-3d1f581bf507.jpg\"]","trial_type":"similarity","trial_index":171,"time_elapsed":3732938,"internal_node_id":"0.0-6.0-165.0"},{"sim_score":4,"rt":5058,"stimulus":"[\"img/0875/dbdd643e-6d0e-4a5c-ab57-b9c29b9c981a.jpg\",\"img/0867/aa05d113-fc19-4756-a8eb-7878f580bc92.jpg\"]","trial_type":"similarity","trial_index":172,"time_elapsed":3739010,"internal_node_id":"0.0-6.0-166.0"},{"sim_score":5,"rt":5325,"stimulus":"[\"img/0862/a0a3a7ba-7798-46a3-b4ca-05e1f6e581d0.jpg\",\"img/0862/847e5208-38ec-4f36-949c-296cdd7424ee.jpg\"]","trial_type":"similarity","trial_index":173,"time_elapsed":3747441,"internal_node_id":"0.0-6.0-167.0"},{"sim_score":2,"rt":3595,"stimulus":"[\"img/0875/2c361b79-c3d1-4eda-812e-bf03192407bf.jpg\",\"img/0886/d1e40478-2fe0-404f-8409-920da98a96a2.jpg\"]","trial_type":"similarity","trial_index":174,"time_elapsed":3752050,"internal_node_id":"0.0-6.0-168.0"},{"sim_score":5,"rt":3115,"stimulus":"[\"img/0885/c840cf2c-c95d-4a08-b3c2-044d1ea946a7.jpg\",\"img/0875/42910c99-5463-450a-a0f8-d4d060a11455.jpg\"]","trial_type":"similarity","trial_index":175,"time_elapsed":3756188,"internal_node_id":"0.0-6.0-169.0"},{"sim_score":2,"rt":3026,"stimulus":"[\"img/0862/ba89835a-408c-480b-8594-ed4ffa97eb5c.jpg\",\"img/0867/5e07b34d-b40f-4b1c-ac10-49975bace45f.jpg\"]","trial_type":"similarity","trial_index":176,"time_elapsed":3760238,"internal_node_id":"0.0-6.0-170.0"},{"sim_score":3,"rt":3188,"stimulus":"[\"img/0884/0b4cf8d4-4c8f-4312-a794-f99e01679176.jpg\",\"img/0873/a234d5d1-09ea-4594-9a0f-d569da31dbdb.jpg\"]","trial_type":"similarity","trial_index":177,"time_elapsed":3764451,"internal_node_id":"0.0-6.0-171.0"},{"sim_score":2,"rt":4870,"stimulus":"[\"img/0873/b76d7003-814d-42b0-9a16-1399c4b0e706.jpg\",\"img/0958/4e2ca4bc-52c7-4c27-9610-776441231e42.jpg\"]","trial_type":"similarity","trial_index":178,"time_elapsed":3770338,"internal_node_id":"0.0-6.0-172.0"},{"sim_score":2,"rt":2768,"stimulus":"[\"img/0868/c8ac40c7-6904-4e13-8d61-c75d3052dc4e.jpg\",\"img/0758/53f35650-e455-4b53-8be4-c3c8271c6466.jpg\"]","trial_type":"similarity","trial_index":179,"time_elapsed":3774122,"internal_node_id":"0.0-6.0-173.0"},{"sim_score":3,"rt":4253,"stimulus":"[\"img/0757/89ce15d5-a3da-4a62-ac9f-c28a9273bf33.jpg\",\"img/0874/a3bc679d-619f-4db6-bb68-116dcb757d9c.jpg\"]","trial_type":"similarity","trial_index":180,"time_elapsed":3779394,"internal_node_id":"0.0-6.0-174.0"},{"sim_score":3,"rt":3954,"stimulus":"[\"img/0958/96f89270-febc-4f09-b8c3-53a249ff00ea.jpg\",\"img/0867/26611f4e-d694-4460-b7e2-43c62753ddc3.jpg\"]","trial_type":"similarity","trial_index":181,"time_elapsed":3784362,"internal_node_id":"0.0-6.0-175.0"},{"sim_score":3,"rt":4000,"stimulus":"[\"img/0874/2c9464dd-8a23-4baa-ac94-1ba3af5c15cc.jpg\",\"img/0760/d87ebbb0-e718-4ab1-8882-e48253d6fd00.jpg\"]","trial_type":"similarity","trial_index":182,"time_elapsed":3789378,"internal_node_id":"0.0-6.0-176.0"},{"sim_score":3,"rt":3546,"stimulus":"[\"img/0873/d74e4aa9-420d-48a3-a42f-30a3481536ae.jpg\",\"img/0860/8fdba999-b946-4c7d-9891-336018b563ef.jpg\"]","trial_type":"similarity","trial_index":183,"time_elapsed":3793943,"internal_node_id":"0.0-6.0-177.0"},{"sim_score":3,"rt":3480,"stimulus":"[\"img/0881/b1a136f7-8511-4d3a-a0f6-3879acf1e1a1.jpg\",\"img/0883/c6db9b70-f16c-47ee-a408-c9278365ae54.jpg\"]","trial_type":"similarity","trial_index":184,"time_elapsed":3798442,"internal_node_id":"0.0-6.0-178.0"},{"sim_score":2,"rt":3999,"stimulus":"[\"img/0886/7164ac42-460f-4beb-9d5e-a1cfded3099c.jpg\",\"img/0958/bb684a39-afef-4125-9f70-b5ad830ba316.jpg\"]","trial_type":"similarity","trial_index":185,"time_elapsed":3803458,"internal_node_id":"0.0-6.0-179.0"},{"sim_score":3,"rt":3306,"stimulus":"[\"img/0864/f92649a2-0590-4d31-9a7a-1bfb81666a2d.jpg\",\"img/0883/68a56098-91b8-4c40-8827-7808704aa1bc.jpg\"]","trial_type":"similarity","trial_index":186,"time_elapsed":3807778,"internal_node_id":"0.0-6.0-180.0"},{"sim_score":3,"rt":3417,"stimulus":"[\"img/0756/04655068-a9fc-49d9-b2f4-21e4d42b7903.jpg\",\"img/0868/3a62db2d-97e9-44a3-b8e3-a48c6f0e423b.jpg\"]","trial_type":"similarity","trial_index":187,"time_elapsed":3812211,"internal_node_id":"0.0-6.0-181.0"},{"sim_score":3,"rt":4249,"stimulus":"[\"img/0884/13db1f36-8c9f-4b28-8426-04eaa9fba737.jpg\",\"img/0758/d540bee6-b460-4c32-ac57-bc282742d7d4.jpg\"]","trial_type":"similarity","trial_index":188,"time_elapsed":3817473,"internal_node_id":"0.0-6.0-182.0"},{"sim_score":3,"rt":5147,"stimulus":"[\"img/0875/34132396-d896-4c2d-8087-646dd867e769.jpg\",\"img/0874/bf14b896-e930-4fd9-9c05-2e83317a2773.jpg\"]","trial_type":"similarity","trial_index":189,"time_elapsed":3823636,"internal_node_id":"0.0-6.0-183.0"},{"sim_score":6,"rt":3783,"stimulus":"[\"img/0867/f8159067-056c-41f1-a136-c529fe5e970a.jpg\",\"img/0868/7b212364-ff5f-4e28-9241-7eb6ea00161b.jpg\"]","trial_type":"similarity","trial_index":190,"time_elapsed":3828445,"internal_node_id":"0.0-6.0-184.0"},{"sim_score":3,"rt":4542,"stimulus":"[\"img/0881/b549bc99-a61c-4450-bab5-9efc3a197bf0.jpg\",\"img/0885/6873c613-5e40-42ff-a5b6-443b6b626ae2.jpg\"]","trial_type":"similarity","trial_index":191,"time_elapsed":3834011,"internal_node_id":"0.0-6.0-185.0"},{"sim_score":3,"rt":3710,"stimulus":"[\"img/0864/a248adb3-c70b-4652-b7a3-776d2a1e904b.jpg\",\"img/0761/6f9c1c71-e38d-4e3f-9062-39557812432a.jpg\"]","trial_type":"similarity","trial_index":192,"time_elapsed":3838738,"internal_node_id":"0.0-6.0-186.0"},{"sim_score":2,"rt":3473,"stimulus":"[\"img/0885/8cdf3204-e0f1-482b-9546-5edca3d81376.jpg\",\"img/0874/7e4f2150-3b59-4a36-b5da-a4e0ba410531.jpg\"]","trial_type":"similarity","trial_index":193,"time_elapsed":3843226,"internal_node_id":"0.0-6.0-187.0"},{"sim_score":2,"rt":3511,"stimulus":"[\"img/0758/caa93da2-9edf-49fa-96b9-32dedd8f5078.jpg\",\"img/0867/c71dc569-f49c-4397-8381-68b8d726736d.jpg\"]","trial_type":"similarity","trial_index":194,"time_elapsed":3847754,"internal_node_id":"0.0-6.0-188.0"},{"sim_score":2,"rt":3626,"stimulus":"[\"img/0756/5dba4151-3cf5-42f5-8dd9-7c6128318b01.jpg\",\"img/0884/967c63af-8f6a-483f-9122-0c79d97fd22e.jpg\"]","trial_type":"similarity","trial_index":195,"time_elapsed":3852395,"internal_node_id":"0.0-6.0-189.0"},{"sim_score":5,"rt":4320,"stimulus":"[\"img/0761/014e76d0-fb4e-4b40-901c-7a2d5655c3b0.jpg\",\"img/0862/de9ad88c-b522-430a-8ee9-eb06a9f85df5.jpg\"]","trial_type":"similarity","trial_index":196,"time_elapsed":3857730,"internal_node_id":"0.0-6.0-190.0"},{"sim_score":2,"rt":3851,"stimulus":"[\"img/0860/e14d67c1-6d92-4f1e-9257-c8607159c19c.jpg\",\"img/0886/97243e18-4dba-4af8-b49f-b3b635c90ac4.jpg\"]","trial_type":"similarity","trial_index":197,"time_elapsed":3862595,"internal_node_id":"0.0-6.0-191.0"},{"sim_score":3,"rt":3942,"stimulus":"[\"img/0760/dfa71fdd-ddff-4827-a999-d5e599dd5679.jpg\",\"img/0885/f4ed5442-1f5c-4a69-abe6-8336ed11ec77.jpg\"]","trial_type":"similarity","trial_index":198,"time_elapsed":3867555,"internal_node_id":"0.0-6.0-192.0"},{"sim_score":2,"rt":3169,"stimulus":"[\"img/0886/bd45b474-5559-4ea5-83ff-140bce19f5fa.jpg\",\"img/0868/4a8a45ed-2c4f-421b-9564-409a33ecd26c.jpg\"]","trial_type":"similarity","trial_index":199,"time_elapsed":3871738,"internal_node_id":"0.0-6.0-193.0"},{"sim_score":7,"rt":4355,"stimulus":"[\"img/0881/f62bdcd1-a4b7-4d48-83da-d9c9e01c8727.jpg\",\"img/0864/300bb811-8b3c-4c42-8653-6097c3725197.jpg\"]","trial_type":"similarity","trial_index":200,"time_elapsed":3877107,"internal_node_id":"0.0-6.0-194.0"},{"sim_score":5,"rt":6729,"stimulus":"[\"img/0866/bf14b5bd-fb55-47db-86b9-4f8aeb9a6dad.jpg\",\"img/0868/4e626425-63c8-484a-8a1d-e66ee4e0bef8.jpg\"]","trial_type":"similarity","trial_index":201,"time_elapsed":3884849,"internal_node_id":"0.0-6.0-195.0"},{"sim_score":4,"rt":3758,"stimulus":"[\"img/0864/5f33e097-23e3-4002-882d-76e8cb15f451.jpg\",\"img/0958/ba5ed153-96de-4f61-b7d9-87a478c8972c.jpg\"]","trial_type":"similarity","trial_index":202,"time_elapsed":3889624,"internal_node_id":"0.0-6.0-196.0"},{"sim_score":2,"rt":3996,"stimulus":"[\"img/0757/69d850ce-9828-4b13-9e68-6a2c196ecbcc.jpg\",\"img/0886/c6c81122-f4bf-46f4-968b-167f8ed0cab3.jpg\"]","trial_type":"similarity","trial_index":203,"time_elapsed":3894643,"internal_node_id":"0.0-6.0-197.0"},{"sim_score":3,"rt":3935,"stimulus":"[\"img/0758/a709631e-3705-4725-ac40-f0d916924f08.jpg\",\"img/0883/903939ef-a67c-40d3-841d-52555815cd88.jpg\"]","trial_type":"similarity","trial_index":204,"time_elapsed":3899596,"internal_node_id":"0.0-6.0-198.0"},{"sim_score":3,"rt":3996,"stimulus":"[\"img/0881/ee44e27f-d662-4608-b265-e7ffa19b216f.jpg\",\"img/0958/58b7811e-d3f6-4e4d-befb-86e063d13a43.jpg\"]","trial_type":"similarity","trial_index":205,"time_elapsed":3904618,"internal_node_id":"0.0-6.0-199.0"},{"sim_score":2,"rt":3384,"stimulus":"[\"img/0958/644719ec-1690-4af2-a63f-0b6467c3791e.jpg\",\"img/0874/3f471690-9788-4d03-90c7-f615aecef149.jpg\"]","trial_type":"similarity","trial_index":206,"time_elapsed":3909018,"internal_node_id":"0.0-6.0-200.0"},{"sim_score":2,"rt":3410,"stimulus":"[\"img/0885/5225e532-2812-41d9-8ef0-0fbfc612784e.jpg\",\"img/0860/18dfed73-e36b-4487-a8bd-0b8cff8e3668.jpg\"]","trial_type":"similarity","trial_index":207,"time_elapsed":3913442,"internal_node_id":"0.0-6.0-201.0"},{"sim_score":5,"rt":3981,"stimulus":"[\"img/0875/a4935837-7d3c-4df6-88c1-36a94d4991ca.jpg\",\"img/0881/f4e3e181-b3c9-4af2-a5a4-fc135ab70d2e.jpg\"]","trial_type":"similarity","trial_index":208,"time_elapsed":3918442,"internal_node_id":"0.0-6.0-202.0"},{"sim_score":2,"rt":3723,"stimulus":"[\"img/0758/6cd8c362-ae2a-41eb-80a3-3a4f7ace1530.jpg\",\"img/0860/c5ccd1a4-4bb7-48e1-9b25-72cfaf06909b.jpg\"]","trial_type":"similarity","trial_index":209,"time_elapsed":3923179,"internal_node_id":"0.0-6.0-203.0"},{"sim_score":7,"rt":4281,"stimulus":"[\"img/0860/29a21a9f-54bb-4093-ad3f-04823ceaa89f.jpg\",\"img/0860/c3379ff7-0763-48fe-a1ec-7ea3d611bc7a.jpg\"]","trial_type":"similarity","trial_index":210,"time_elapsed":3928474,"internal_node_id":"0.0-6.0-204.0"},{"sim_score":7,"rt":5618,"stimulus":"[\"img/0874/ca76a855-4e77-4f2f-872a-0a718153e7ed.jpg\",\"img/0874/8cdb1c07-1c32-46d2-981c-3636560fa6e5.jpg\"]","trial_type":"similarity","trial_index":211,"time_elapsed":3935106,"internal_node_id":"0.0-6.0-205.0"},{"sim_score":4,"rt":3163,"stimulus":"[\"img/0883/d719aab0-0280-4c06-87e5-b9db7454965c.jpg\",\"img/0761/89d3b943-cd14-4786-a7b8-0e9a695cf0e3.jpg\"]","trial_type":"similarity","trial_index":212,"time_elapsed":3939282,"internal_node_id":"0.0-6.0-206.0"},{"sim_score":3,"rt":3650,"stimulus":"[\"img/0761/edc0b069-71dc-4b11-b7f0-8429ea8ac5c9.jpg\",\"img/0881/292e9b4b-fca0-4ba8-87f1-4048f9e37b7d.jpg\"]","trial_type":"similarity","trial_index":213,"time_elapsed":3943946,"internal_node_id":"0.0-6.0-207.0"},{"sim_score":2,"rt":3018,"stimulus":"[\"img/0760/868ae139-99b5-4ff2-9d19-c4933af135e4.jpg\",\"img/0756/8f917ff3-2930-4f81-812b-19555fe71261.jpg\"]","trial_type":"similarity","trial_index":214,"time_elapsed":3947979,"internal_node_id":"0.0-6.0-208.0"},{"sim_score":2,"rt":2776,"stimulus":"[\"img/0885/d2276b26-e91a-4f19-a818-cbeb297ed884.jpg\",\"img/0757/92ed1ceb-29ef-4044-9601-78d7806e2396.jpg\"]","trial_type":"similarity","trial_index":215,"time_elapsed":3953832,"internal_node_id":"0.0-6.0-209.0"},{"view_history":"[{\"page_index\":0,\"viewing_time\":7624}]","rt":7626,"trial_type":"instructions","trial_index":216,"time_elapsed":3962459,"internal_node_id":"0.0-7.0"},{"rt":24280,"responses":"{\"Q0\":\"Orange-crowned Warbler\"}","answer":["Orange-crowned Warbler"],"trial_type":"image-multi-choice","trial_index":217,"time_elapsed":3987800,"internal_node_id":"0.0-8.0-0.0"},{"rt":4554,"responses":"{\"Q0\":\"Wilson's Warbler\"}","answer":["Wilson's Warbler"],"trial_type":"image-multi-choice","trial_index":218,"time_elapsed":3993401,"internal_node_id":"0.0-8.0-1.0"},{"rt":5776,"responses":"{\"Q0\":\"Blackpoll Warbler\"}","answer":["Blackpoll Warbler"],"trial_type":"image-multi-choice","trial_index":219,"time_elapsed":4000216,"internal_node_id":"0.0-8.0-2.0"},{"rt":6578,"responses":"{\"Q0\":\"Black-and-white Warbler\"}","answer":["Black-and-white Warbler"],"trial_type":"image-multi-choice","trial_index":220,"time_elapsed":4007833,"internal_node_id":"0.0-8.0-3.0"},{"rt":5937,"responses":"{\"Q0\":\"Yellow-breasted Chat\"}","answer":["Yellow-breasted Chat"],"trial_type":"image-multi-choice","trial_index":221,"time_elapsed":4014809,"internal_node_id":"0.0-8.0-4.0"},{"rt":6654,"responses":"{\"Q0\":\"Canada Warbler\"}","answer":["Canada Warbler"],"trial_type":"image-multi-choice","trial_index":222,"time_elapsed":4022508,"internal_node_id":"0.0-8.0-5.0"},{"rt":4636,"responses":"{\"Q0\":\"Common Yellowthroat\"}","answer":["Common Yellowthroat"],"trial_type":"image-multi-choice","trial_index":223,"time_elapsed":4028182,"internal_node_id":"0.0-8.0-6.0"},{"rt":15571,"responses":"{\"Q0\":\"American Redstart\"}","answer":["American Redstart"],"trial_type":"image-multi-choice","trial_index":224,"time_elapsed":4044887,"internal_node_id":"0.0-8.0-7.0"},{"rt":5736,"responses":"{\"Q0\":\"Chestnut-sided Warbler\"}","answer":["Chestnut-sided Warbler"],"trial_type":"image-multi-choice","trial_index":225,"time_elapsed":4051675,"internal_node_id":"0.0-8.0-8.0"},{"rt":6993,"responses":"{\"Q0\":\"Black-throated Green Warbler\"}","answer":["Black-throated Green Warbler"],"trial_type":"image-multi-choice","trial_index":226,"time_elapsed":4059712,"internal_node_id":"0.0-8.0-9.0"},{"rt":10951,"responses":"{\"Q0\":\"Magnolia Warbler\"}","answer":["Blackburnian Warbler"],"trial_type":"image-multi-choice","trial_index":227,"time_elapsed":4071697,"internal_node_id":"0.0-8.0-10.0"},{"rt":29896,"responses":"{\"Q0\":\"Magnolia Warbler\"}","answer":["Yellow-rumped Warbler"],"trial_type":"image-multi-choice","trial_index":228,"time_elapsed":4102632,"internal_node_id":"0.0-8.0-11.0"},{"rt":8352,"responses":"{\"Q0\":\"Ovenbird\"}","answer":["Ovenbird"],"trial_type":"image-multi-choice","trial_index":229,"time_elapsed":4112022,"internal_node_id":"0.0-8.0-12.0"},{"rt":13899,"responses":"{\"Q0\":\"Townsend's Warbler\"}","answer":["Townsend's Warbler"],"trial_type":"image-multi-choice","trial_index":230,"time_elapsed":4126974,"internal_node_id":"0.0-8.0-13.0"},{"rt":7013,"responses":"{\"Q0\":\"Northern Waterthrush\"}","answer":["Northern Waterthrush"],"trial_type":"image-multi-choice","trial_index":231,"time_elapsed":4135041,"internal_node_id":"0.0-8.0-14.0"},{"rt":4560,"responses":"{\"Q0\":\"Yellow Warbler\"}","answer":["Yellow Warbler"],"trial_type":"image-multi-choice","trial_index":232,"time_elapsed":4140640,"internal_node_id":"0.0-8.0-15.0"},{"rt":14845,"responses":"{\"Q0\":\"Nashville Warbler\"}","answer":["Nashville Warbler"],"trial_type":"image-multi-choice","trial_index":233,"time_elapsed":4156521,"internal_node_id":"0.0-8.0-16.0"},{"rt":20963,"responses":"{\"Q0\":\"Tennessee Warbler\"}","answer":["Northern Parula"],"trial_type":"image-multi-choice","trial_index":234,"time_elapsed":4178526,"internal_node_id":"0.0-8.0-17.0"},{"rt":15105,"responses":"{\"Q0\":\"Nashville Warbler\"}","answer":["Tennessee Warbler"],"trial_type":"image-multi-choice","trial_index":235,"time_elapsed":4194687,"internal_node_id":"0.0-8.0-18.0"},{"rt":7366,"responses":"{\"Q0\":\"Magnolia Warbler\"}","answer":["Magnolia Warbler"],"trial_type":"image-multi-choice","trial_index":236,"time_elapsed":4203105,"internal_node_id":"0.0-8.0-19.0"}]