"view_history","rt","trial_type","trial_index","time_elapsed","internal_node_id","sim_score","stimulus","responses","answer"
"[{""page_index"":0,""viewing_time"":34239}]","34240","instructions","0","34242","0.0-0.0","","","",""
"","7590","similarity_demo","1","42846","0.0-1.0","7","[""img/bluejay1.jpg"",""img/bluejay2.jpg""]","",""
"[{""page_index"":0,""viewing_time"":20819}]","20819","instructions","2","64666","0.0-2.0","","","",""
"","9557","similarity_demo","3","75231","0.0-3.0","1","[""img/bluejay1.jpg"",""img/cardinal1.jpg""]","",""
"[{""page_index"":0,""viewing_time"":18321}]","18321","instructions","4","94552","0.0-4.0","","","",""
"[{""page_index"":0,""viewing_time"":50215}]","50215","instructions","5","145767","0.0-5.0","","","",""
"","7488","similarity","6","154264","0.0-6.0-0.0","1","[""img/0864/b3c4e378-28f0-4699-9338-2a257b4bca04.jpg"",""img/0860/9593362c-9fe5-4d12-9735-6000a11f6aa5.jpg""]","",""
"","4052","similarity","7","159324","0.0-6.0-1.0","1","[""img/0884/a6389ab4-3291-4434-9b91-eeae3b04fce4.jpg"",""img/0760/dddcdfaf-2d02-4de9-a176-5705d0004b5a.jpg""]","",""
"","3154","similarity","8","163484","0.0-6.0-2.0","1","[""img/0886/e5903946-897c-4420-87c0-afee4100305c.jpg"",""img/0881/667e2147-d457-4f32-aa5f-6ab86e5848f1.jpg""]","",""
"","2907","similarity","9","167398","0.0-6.0-3.0","1","[""img/0866/11a1d141-be5e-443c-98c1-a9d4d9e3dec0.jpg"",""img/0881/c24f3051-eefa-42de-aba6-fccb56d93c70.jpg""]","",""
"","3666","similarity","10","172072","0.0-6.0-4.0","1","[""img/0868/4bd5105a-d2c3-4f82-8c80-57196106ba53.jpg"",""img/0885/1cd940ef-9720-4a04-8fa1-1dd3a39ecdd6.jpg""]","",""
"","3515","similarity","11","176594","0.0-6.0-5.0","1","[""img/0757/8993d166-c8ae-43f6-b269-9e8bd3379d57.jpg"",""img/0866/8efcaa46-83ab-4dee-a35f-850402aa21ae.jpg""]","",""
"","2815","similarity","12","180414","0.0-6.0-6.0","1","[""img/0868/d6d1f30d-4323-435a-b194-7892521bc57e.jpg"",""img/0864/afcba0a3-7e27-4757-b254-e9f05fad27e2.jpg""]","",""
"","4138","similarity","13","185558","0.0-6.0-7.0","7","[""img/0864/5f33e097-23e3-4002-882d-76e8cb15f451.jpg"",""img/0864/e02eddb5-f468-499c-91bf-f7be3ffe979b.jpg""]","",""
"","2981","similarity","14","189548","0.0-6.0-8.0","1","[""img/0757/a3620c04-efdc-4b42-940c-806958d1351e.jpg"",""img/0881/adc02f34-ce97-4aef-850f-00519df06fd7.jpg""]","",""
"","3261","similarity","15","193816","0.0-6.0-9.0","1","[""img/0886/9b0bffbe-9237-404d-a0ba-a1982e0814c7.jpg"",""img/0760/868961d8-3272-4d3c-9c8b-9d183315cabc.jpg""]","",""
"","2993","similarity","16","197814","0.0-6.0-10.0","1","[""img/0884/d9185264-7f01-43b2-be7f-eed1a0f0f2e8.jpg"",""img/0883/387a9e30-7d95-483e-af34-c8262f62385f.jpg""]","",""
"","2771","similarity","17","201591","0.0-6.0-11.0","1","[""img/0874/99f6563c-8a8d-4c1c-a41d-667b618c3fd5.jpg"",""img/0862/fad1d7c1-8187-43c3-942a-0fc12183e48e.jpg""]","",""
"","46525","similarity","18","249122","0.0-6.0-12.0","1","[""img/0862/f23038d4-c366-4f70-979f-66b62362efa4.jpg"",""img/0875/99698b4d-b4a1-44bc-8c83-8ea755bbbf61.jpg""]","",""
"","3139","similarity","19","253265","0.0-6.0-13.0","1","[""img/0875/5a1e5100-0d94-4fec-bbe9-ca9894d2cf8e.jpg"",""img/0757/cb7ca802-27ac-4a1d-996f-bd21b96d6244.jpg""]","",""
"","3671","similarity","20","257942","0.0-6.0-14.0","1","[""img/0875/fb732ab5-013a-4366-9f65-27811ed157e9.jpg"",""img/0860/e8b8c51e-1834-4875-8b61-6c5bc9b178bd.jpg""]","",""
"","4143","similarity","21","263092","0.0-6.0-15.0","1","[""img/0860/71e1aad0-2cdf-43bb-94a4-a8c016997c30.jpg"",""img/0881/7e31e5dc-2240-4b1b-b5a0-3acd980099ef.jpg""]","",""
"","3403","similarity","22","267498","0.0-6.0-16.0","1","[""img/0885/8960bf05-34df-4a86-a9b2-6087c70e61d3.jpg"",""img/0884/0b4cf8d4-4c8f-4312-a794-f99e01679176.jpg""]","",""
"","3400","similarity","23","271904","0.0-6.0-17.0","7","[""img/0761/d5370a68-6c8a-486f-b2bf-330e2ad6b397.jpg"",""img/0761/07f8178b-8ce5-42d6-bca0-a0ae0e0e8eb3.jpg""]","",""
"","3538","similarity","24","276448","0.0-6.0-18.0","1","[""img/0760/317fc071-99e6-43cb-9099-2e50aa79ccc2.jpg"",""img/0864/5f74a653-3bdc-4308-8cca-ac667dc22e1f.jpg""]","",""
"","2968","similarity","25","280422","0.0-6.0-19.0","1","[""img/0864/c3b63e8f-ea39-4d70-a1f2-b3fe4be8eb75.jpg"",""img/0875/cff79b3a-a797-4393-9757-6275f999ec04.jpg""]","",""
"","3378","similarity","26","284807","0.0-6.0-20.0","1","[""img/0874/93d1f8dc-acf2-4f03-bd8d-8ec35df276ed.jpg"",""img/0884/3c61ea12-a408-47ce-98aa-b14e0f6d4591.jpg""]","",""
"","2983","similarity","27","288796","0.0-6.0-21.0","1","[""img/0885/0cdcdaca-f91e-4d4a-a6f6-dc90ab676435.jpg"",""img/0866/6f2a90d7-14f1-4f1b-bd64-fc0af6b9fe44.jpg""]","",""
"","7177","similarity","28","296979","0.0-6.0-22.0","4","[""img/0868/7b212364-ff5f-4e28-9241-7eb6ea00161b.jpg"",""img/0868/3a62db2d-97e9-44a3-b8e3-a48c6f0e423b.jpg""]","",""
"","2839","similarity","29","300824","0.0-6.0-23.0","1","[""img/0757/802a8692-dc9e-4372-8811-ce4351a09d1a.jpg"",""img/0756/ca2a8f93-ed77-45c8-a3a3-22324aa28501.jpg""]","",""
"","8851","similarity","30","310686","0.0-6.0-24.0","1","[""img/0875/527ced51-8e53-4aab-ab05-86df219104c0.jpg"",""img/0875/5a716432-c6ca-4b1c-955a-2b8ac25198ee.jpg""]","",""
"","2801","similarity","31","314495","0.0-6.0-25.0","1","[""img/0761/176fde97-0334-4d2b-8a7a-38960c2528f3.jpg"",""img/0866/0207e9a2-7dbb-40b5-9459-b472aaeceb2a.jpg""]","",""
"","3768","similarity","32","319268","0.0-6.0-26.0","1","[""img/0866/07c9c966-3c8d-40e7-8128-92b2acbaed5d.jpg"",""img/0758/d57c2592-a317-4f63-91be-91a3a9afd222.jpg""]","",""
"","3316","similarity","33","323591","0.0-6.0-27.0","1","[""img/0758/7ffbc76b-1fc1-432c-8f7e-9ec8d1b3f643.jpg"",""img/0875/a4935837-7d3c-4df6-88c1-36a94d4991ca.jpg""]","",""
"","4052","similarity","34","328649","0.0-6.0-28.0","1","[""img/0958/b11515b3-5f04-4c3e-be00-56a05c6c3e96.jpg"",""img/0757/10030bb1-70b8-4889-a8a5-ab50e145704d.jpg""]","",""
"","4338","similarity","35","333992","0.0-6.0-29.0","1","[""img/0873/b509aa81-b1d7-4d50-8aef-9c7b725c3157.jpg"",""img/0883/122548fc-b3cc-445b-b7c0-04794df6d11d.jpg""]","",""
"","3648","similarity","36","338645","0.0-6.0-30.0","1","[""img/0868/fd307a36-9a3a-47d7-ab7c-f810d0b35040.jpg"",""img/0875/f87b67d7-c33e-40d1-b281-248c4be1cb6e.jpg""]","",""
"","3338","similarity","37","342989","0.0-6.0-31.0","1","[""img/0884/989ec8e3-5e41-4055-b0b5-3d65b9c44917.jpg"",""img/0862/cdaed51d-9e2f-4807-801a-4663c40077e2.jpg""]","",""
"","3790","similarity","38","347785","0.0-6.0-32.0","1","[""img/0884/13db1f36-8c9f-4b28-8426-04eaa9fba737.jpg"",""img/0864/87c467d3-abca-482f-ad80-3766c21b1bb3.jpg""]","",""
"","4349","similarity","39","353145","0.0-6.0-33.0","4","[""img/0883/ab9b6977-0cdc-47a2-b180-494a5be181b2.jpg"",""img/0958/df7705da-e817-409f-8a93-05abef4b26c3.jpg""]","",""
"","3094","similarity","40","357243","0.0-6.0-34.0","1","[""img/0864/0f537697-a314-47c3-a8cc-8df23b7e536c.jpg"",""img/0756/fd9b5e61-3674-448f-867a-29769dc8f07d.jpg""]","",""
"","4061","similarity","41","362309","0.0-6.0-35.0","7","[""img/0874/1016b306-087c-4afc-aa08-fa527b28dc76.jpg"",""img/0758/65d426d6-3ff6-415d-8654-a43b83ecc4fe.jpg""]","",""
"","3454","similarity","42","366769","0.0-6.0-36.0","1","[""img/0886/7164ac42-460f-4beb-9d5e-a1cfded3099c.jpg"",""img/0862/064818ee-13d5-4618-bb24-21c7368ea278.jpg""]","",""
"","2868","similarity","43","370642","0.0-6.0-37.0","1","[""img/0862/ad593cc7-cabe-4bb7-8e14-8a447a0717b4.jpg"",""img/0885/c840cf2c-c95d-4a08-b3c2-044d1ea946a7.jpg""]","",""
"","7290","similarity","44","378938","0.0-6.0-38.0","5","[""img/0758/ddc336e9-a8b6-4bb9-937a-c7e25e0e9250.jpg"",""img/0864/efcfbb1b-8197-44c9-b723-40d6c608dd3c.jpg""]","",""
"","6106","similarity","45","386051","0.0-6.0-39.0","1","[""img/0873/ec150e40-b3ec-4dfe-ab38-bb3f248a1175.jpg"",""img/0867/26611f4e-d694-4460-b7e2-43c62753ddc3.jpg""]","",""
"","3154","similarity","46","390210","0.0-6.0-40.0","1","[""img/0958/54f27d86-00c0-46b2-b2c9-050c9cc60fe0.jpg"",""img/0884/3613aeb4-0028-4205-aea0-1ea28cb1f80e.jpg""]","",""
"","3124","similarity","47","408208","0.0-6.0-41.0","7","[""img/0873/a234d5d1-09ea-4594-9a0f-d569da31dbdb.jpg"",""img/0873/1d1be182-3bb2-4efd-8543-d70b8db7beef.jpg""]","",""
"","4308","similarity","48","413521","0.0-6.0-42.0","1","[""img/0886/9ac18ff1-d3d9-4bfe-aa2e-ed5b28399f6c.jpg"",""img/0758/6e95579b-5166-487c-b8cb-e417c6a218e3.jpg""]","",""
"","3206","similarity","49","417733","0.0-6.0-43.0","1","[""img/0883/cc3df660-426e-452e-ac50-3a3b09dc4b65.jpg"",""img/0874/8cdb1c07-1c32-46d2-981c-3636560fa6e5.jpg""]","",""
"","2537","similarity","50","421276","0.0-6.0-44.0","1","[""img/0881/344de456-b358-4887-bd0e-e4c3278af887.jpg"",""img/0873/e5374873-a1a7-4689-a04c-a3b959992244.jpg""]","",""
"","2906","similarity","51","425189","0.0-6.0-45.0","1","[""img/0867/5e07b34d-b40f-4b1c-ac10-49975bace45f.jpg"",""img/0757/1aca59fd-6030-4bb0-93c7-32a90f3237cf.jpg""]","",""
"","3523","similarity","52","429717","0.0-6.0-46.0","1","[""img/0866/c446214b-a368-4c65-ae39-ea46894256ab.jpg"",""img/0874/7e4f2150-3b59-4a36-b5da-a4e0ba410531.jpg""]","",""
"","4130","similarity","53","434853","0.0-6.0-47.0","7","[""img/0886/aef00ed5-e288-47bf-b31e-512d7e762ea2.jpg"",""img/0886/1e8c0f89-c766-41c9-b522-83c342048f34.jpg""]","",""
"","4315","similarity","54","440174","0.0-6.0-48.0","1","[""img/0883/e7e4af6a-bc7a-4a9b-921c-32652db13239.jpg"",""img/0860/4a022222-056d-461c-ab02-39fac9647552.jpg""]","",""
"","3012","similarity","55","444193","0.0-6.0-49.0","1","[""img/0860/c5ccd1a4-4bb7-48e1-9b25-72cfaf06909b.jpg"",""img/0756/6d2df7ce-35aa-4a5d-ab53-974d2c02034e.jpg""]","",""
"","3230","similarity","56","448429","0.0-6.0-50.0","1","[""img/0860/b03b963d-949b-4d8d-b19c-4950c89eeca2.jpg"",""img/0757/b46cab21-50e3-4f19-803d-682627bcd6a6.jpg""]","",""
"","3330","similarity","57","452765","0.0-6.0-51.0","7","[""img/0756/a8246880-fb51-43bb-b25d-905e6e0d7880.jpg"",""img/0756/7a83dec0-4724-4efc-9fbf-52a30b5acd99.jpg""]","",""
"","3937","similarity","58","457710","0.0-6.0-52.0","1","[""img/0875/03c3c331-738b-4446-af92-3d7386b08c2e.jpg"",""img/0866/d266fece-59b3-46fa-b69f-96f6efb81b59.jpg""]","",""
"","2783","similarity","59","461499","0.0-6.0-53.0","1","[""img/0756/b8d6aa83-8673-4e0d-be72-b3da2bae7a6d.jpg"",""img/0758/a085b443-b5d7-4cb2-9ad4-b9dab0fc23f1.jpg""]","",""
"","3514","similarity","60","466019","0.0-6.0-54.0","1","[""img/0761/af21c992-a721-45fb-bee7-f50c0f676c30.jpg"",""img/0884/05d9bfb9-44a6-4ab4-92fa-d17e5b2b4f33.jpg""]","",""
"","3008","similarity","61","470032","0.0-6.0-55.0","1","[""img/0760/a24659cd-f862-42cc-b43a-7ba8eae0c2c0.jpg"",""img/0867/12264664-1860-46df-8c21-162b9817cdda.jpg""]","",""
"","5499","similarity","62","476535","0.0-6.0-56.0","1","[""img/0866/23a224f3-2012-4fc8-8e0f-3c36f8de27fd.jpg"",""img/0884/7f9cc898-36bc-49ec-8b1a-01065d9c0062.jpg""]","",""
"","2692","similarity","63","480233","0.0-6.0-57.0","1","[""img/0756/6413e12f-951d-47b5-ae55-9fad7fb8d112.jpg"",""img/0761/e18d2113-1ed1-4a80-8171-4be5ee28d343.jpg""]","",""
"","2676","similarity","64","483915","0.0-6.0-58.0","1","[""img/0867/85a96c62-548f-4994-9553-819e03c3135a.jpg"",""img/0860/4f695df5-afac-4da7-9875-fee39b0b24ad.jpg""]","",""
"","10396","similarity","65","495316","0.0-6.0-59.0","6","[""img/0881/ed4c971f-0873-4fc8-b6d6-e8bbd82f0bcc.jpg"",""img/0758/dd559618-7f09-4a07-8018-d311c4a5ea29.jpg""]","",""
"","4632","similarity","66","500952","0.0-6.0-60.0","1","[""img/0761/5ed865c0-8bfb-4310-9b47-690b3e450ca2.jpg"",""img/0758/e38fd80d-18d0-42f3-b848-f930788e8bd7.jpg""]","",""
"","3136","similarity","67","505094","0.0-6.0-61.0","1","[""img/0958/86d1a76d-f067-4e36-9ab5-13da78c97c0e.jpg"",""img/0875/dbdd643e-6d0e-4a5c-ab57-b9c29b9c981a.jpg""]","",""
"","2860","similarity","68","508959","0.0-6.0-62.0","1","[""img/0886/4d28f75a-a9c3-49dd-8aa8-00304af6e40b.jpg"",""img/0864/49150900-7f25-4ce8-8d10-9b47a71d1997.jpg""]","",""
"","2693","similarity","69","512658","0.0-6.0-63.0","1","[""img/0756/64441928-baa3-49c8-a605-ee2370389b9f.jpg"",""img/0874/adf9a8f1-c40b-402b-b95b-1e85a54a7b62.jpg""]","",""
"","2998","similarity","70","516662","0.0-6.0-64.0","1","[""img/0758/53f35650-e455-4b53-8be4-c3c8271c6466.jpg"",""img/0885/8cdf3204-e0f1-482b-9546-5edca3d81376.jpg""]","",""
"","2885","similarity","71","520552","0.0-6.0-65.0","1","[""img/0760/32bea725-69a2-4c9a-94d9-af05883fbb86.jpg"",""img/0958/ef1b718f-ef8c-497f-80d7-42562aebf1a7.jpg""]","",""
"","3400","similarity","72","524958","0.0-6.0-66.0","1","[""img/0884/37ee4afa-34a0-4da2-bdb0-fcaff43dcdb6.jpg"",""img/0881/44e09805-5a25-4f17-a716-4ad4a331b174.jpg""]","",""
"","3206","similarity","73","529170","0.0-6.0-67.0","1","[""img/0864/a248adb3-c70b-4652-b7a3-776d2a1e904b.jpg"",""img/0873/87f38f18-48a2-4de3-b24b-70630e8b6ca0.jpg""]","",""
"","2920","similarity","74","533097","0.0-6.0-68.0","1","[""img/0862/57b6f83f-c763-4858-830d-102f97bfefbf.jpg"",""img/0758/f61ecdf8-a7d4-4db0-b84d-be46f7cfaffc.jpg""]","",""
"","5352","similarity","75","539454","0.0-6.0-69.0","7","[""img/0757/4f8ae92b-a4ab-4020-b4fb-80c5615e76ac.jpg"",""img/0757/92ed1ceb-29ef-4044-9601-78d7806e2396.jpg""]","",""
"","5789","similarity","76","546250","0.0-6.0-70.0","1","[""img/0860/5383b320-1518-4095-a58e-5cc1ae30b64c.jpg"",""img/0862/1c20f772-3a51-4a80-aac0-f57dc9f86c28.jpg""]","",""
"","3616","similarity","77","550870","0.0-6.0-71.0","1","[""img/0860/31ff6436-98bf-4652-bed2-40f627229568.jpg"",""img/0884/a8f7b854-0010-4c7a-a8fb-b1b1dc1f1ba1.jpg""]","",""
"","5682","similarity","78","557558","0.0-6.0-72.0","4","[""img/0883/512a797a-315b-439e-9a9d-855929351fd0.jpg"",""img/0866/620cd1aa-0800-4414-8f6e-90342e7a99ad.jpg""]","",""
"","5942","similarity","79","564507","0.0-6.0-73.0","6","[""img/0866/a15b02be-11bb-43e3-b0e0-ecc3bd7dfc49.jpg"",""img/0886/b8648eb5-de71-41ab-825d-848e51be8c1b.jpg""]","",""
"","3786","similarity","80","569305","0.0-6.0-74.0","1","[""img/0958/9be61b1d-099b-432a-ae0e-2aa69e157c0e.jpg"",""img/0761/1725cacb-5f86-4b47-a5c0-3c36cd981588.jpg""]","",""
"","2514","similarity","81","572832","0.0-6.0-75.0","1","[""img/0875/2c361b79-c3d1-4eda-812e-bf03192407bf.jpg"",""img/0756/85a63773-50ff-441d-b259-1e335100a9d0.jpg""]","",""
"","2723","similarity","82","576560","0.0-6.0-76.0","1","[""img/0958/acbadc39-e665-446d-b98f-ccd0ef3223d6.jpg"",""img/0885/a4e5c564-1e5f-4fed-9f73-b8d1becf62b6.jpg""]","",""
"","18246","similarity","83","595813","0.0-6.0-77.0","1","[""img/0868/d98ca254-b195-477f-b57e-5760a2717db8.jpg"",""img/0883/1f394dd2-551c-4c8b-af82-f6a6fbe567bb.jpg""]","",""
"","2860","similarity","84","599678","0.0-6.0-78.0","1","[""img/0862/47ed5efd-4ec9-4b74-bb4e-a5f5cf0c3e7d.jpg"",""img/0760/83b0723f-4929-4ee7-ad35-fae98da3e152.jpg""]","",""
"","2868","similarity","85","603553","0.0-6.0-79.0","1","[""img/0885/4fd0aafb-6cc0-43d6-993a-c55a6e18a7ba.jpg"",""img/0761/edc0b069-71dc-4b11-b7f0-8429ea8ac5c9.jpg""]","",""
"","2615","similarity","86","607173","0.0-6.0-80.0","1","[""img/0862/99a99e39-8355-44ec-b993-e7bcec111e1c.jpg"",""img/0864/1d15626a-2f7c-410f-819c-0fa2c967e95e.jpg""]","",""
"","5413","similarity","87","613591","0.0-6.0-81.0","6","[""img/0758/3ddd05d3-557e-4ee7-8b78-9d2d681d8ae2.jpg"",""img/0758/67c0be2f-9e91-48b3-8219-70ac0a1802fa.jpg""]","",""
"","2869","similarity","88","617465","0.0-6.0-82.0","1","[""img/0862/7918ca67-5bd3-4606-a5ea-c39fb11a9297.jpg"",""img/0873/7dddc95f-ca6e-4d15-99a0-0e329ec6888e.jpg""]","",""
"","3153","similarity","89","628364","0.0-6.0-83.0","1","[""img/0760/4c78b78c-193e-4a1e-8bb2-394add325fda.jpg"",""img/0757/acda7aee-6b29-463f-bf01-0d64d6a6ae2b.jpg""]","",""
"","3023","similarity","90","632394","0.0-6.0-84.0","1","[""img/0867/a498eef3-9fa4-4ab2-9778-4ae82ac40dc5.jpg"",""img/0881/e6746727-7f89-47ec-b939-d98abe78372d.jpg""]","",""
"","3054","similarity","91","636451","0.0-6.0-85.0","1","[""img/0885/5225e532-2812-41d9-8ef0-0fbfc612784e.jpg"",""img/0886/48077111-b86b-4612-910f-90a5d168d77f.jpg""]","",""
"","3122","similarity","92","640579","0.0-6.0-86.0","1","[""img/0866/945c6710-d15b-4a5b-a8f6-69af0850357f.jpg"",""img/0864/8ddd2e30-a1d0-479f-9cbe-591213023893.jpg""]","",""
"","10138","similarity","93","651723","0.0-6.0-87.0","4","[""img/0874/31e22c7c-99aa-40b1-bf03-dd73fa2df4d6.jpg"",""img/0881/f62bdcd1-a4b7-4d48-83da-d9c9e01c8727.jpg""]","",""
"","2844","similarity","94","655573","0.0-6.0-88.0","1","[""img/0866/4a87911a-d5be-4d4e-ab8e-3d1f581bf507.jpg"",""img/0760/dfa71fdd-ddff-4827-a999-d5e599dd5679.jpg""]","",""
"","2905","similarity","95","659485","0.0-6.0-89.0","1","[""img/0867/1719a35d-f085-48c0-9099-16c94fe418b4.jpg"",""img/0884/9b1b7885-1502-448f-9b20-ddc19aa5456f.jpg""]","",""
"","2898","similarity","96","663389","0.0-6.0-90.0","1","[""img/0757/31d8ee3d-1b79-4d6a-9347-f91c87c00f92.jpg"",""img/0862/ba89835a-408c-480b-8594-ed4ffa97eb5c.jpg""]","",""
"","2780","similarity","97","667178","0.0-6.0-91.0","1","[""img/0867/f8488a47-94ee-4166-952c-44e16cf172f6.jpg"",""img/0761/b8f211c0-f640-43a2-b101-101774517d95.jpg""]","",""
"","2700","similarity","98","670884","0.0-6.0-92.0","1","[""img/0868/4a8a45ed-2c4f-421b-9564-409a33ecd26c.jpg"",""img/0958/e9e2cc42-eb3b-4c91-8112-a517305c15f0.jpg""]","",""
"","4911","similarity","99","676802","0.0-6.0-93.0","6","[""img/0874/bf14b896-e930-4fd9-9c05-2e83317a2773.jpg"",""img/0864/65210d57-1153-4657-886a-32e758f49b4a.jpg""]","",""
"","2705","similarity","100","680514","0.0-6.0-94.0","1","[""img/0760/fc99ba9e-e7fa-443b-9ba0-2b3c76930893.jpg"",""img/0873/c91c05f8-fafd-4054-bcf1-f5ed1f0a18e8.jpg""]","",""
"","4912","similarity","101","686432","0.0-6.0-95.0","1","[""img/0868/15dd6fd7-791e-4b53-b203-195d617521a4.jpg"",""img/0873/0d9b4403-7f26-46dc-b0b7-2b97b0a91b46.jpg""]","",""
"","3075","similarity","102","690512","0.0-6.0-96.0","1","[""img/0860/94ef7afc-e0e6-4a15-98c6-0bfac82bc832.jpg"",""img/0761/9199a691-d36e-4ece-a815-078384ea6f06.jpg""]","",""
"","4396","similarity","103","695916","0.0-6.0-97.0","1","[""img/0862/24cdc752-c2e5-4a17-86a6-6f2045d8553b.jpg"",""img/0883/0e1ed5c7-0881-4bfd-b12f-6a53500e74f0.jpg""]","",""
"","3568","similarity","104","700490","0.0-6.0-98.0","1","[""img/0757/cd7fd185-981f-477a-ba00-a0f65bcfd0e9.jpg"",""img/0884/ee845634-cd54-4c06-95a9-962122ef8712.jpg""]","",""
"","3029","similarity","105","704524","0.0-6.0-99.0","1","[""img/0867/6e19c858-b606-45b2-a4c6-910a73f1d82c.jpg"",""img/0756/96c1bf35-26b6-4428-b19d-bdb5efe1367a.jpg""]","",""
"","3599","similarity","106","709128","0.0-6.0-100.0","1","[""img/0958/96f89270-febc-4f09-b8c3-53a249ff00ea.jpg"",""img/0756/c211414a-203e-4a7f-9412-5abddea2af11.jpg""]","",""
"","4075","similarity","107","714208","0.0-6.0-101.0","7","[""img/0760/d87ebbb0-e718-4ab1-8882-e48253d6fd00.jpg"",""img/0760/135d76ab-2bf3-4dc9-8509-92983dc9893d.jpg""]","",""
"","5826","similarity","108","721040","0.0-6.0-102.0","1","[""img/0873/d39b1731-1669-4c96-b5c6-682b30e287ee.jpg"",""img/0875/ebf7653f-ff45-4e9f-af58-2c042ab3cd2b.jpg""]","",""
"","2740","similarity","109","724784","0.0-6.0-103.0","7","[""img/0884/ffcce05a-b38d-4570-b3dc-751e89b7790a.jpg"",""img/0884/5085d424-b3f5-461b-a1c7-f7ca55abcf4f.jpg""]","",""
"","3398","similarity","110","729188","0.0-6.0-104.0","1","[""img/0873/b02f9cce-7f58-4f1b-baed-50fee9f0a21f.jpg"",""img/0885/05af267f-b982-498d-9807-ccd54689f9b4.jpg""]","",""
"","3816","similarity","111","734008","0.0-6.0-105.0","1","[""img/0883/b5e903b5-bc7f-421c-bf3e-245779ac90c9.jpg"",""img/0875/42910c99-5463-450a-a0f8-d4d060a11455.jpg""]","",""
"","2790","similarity","112","737804","0.0-6.0-106.0","1","[""img/0864/6f631579-acf1-415c-a42c-1207f62a8d99.jpg"",""img/0867/8ba0c5a7-c7e4-42cf-a80a-543763b90779.jpg""]","",""
"","4837","similarity","113","743648","0.0-6.0-107.0","1","[""img/0958/0a8f72c4-0c73-4d58-be6f-5e4613b87409.jpg"",""img/0860/8a92e21b-6a32-4e4a-a445-2d5a487ed0a4.jpg""]","",""
"","3536","similarity","114","748189","0.0-6.0-108.0","1","[""img/0885/a8cbb477-19ef-45ef-8f48-9667aec40bd1.jpg"",""img/0756/09fde3d3-27c5-435e-b68f-5410beb04e99.jpg""]","",""
"","3128","similarity","115","752323","0.0-6.0-109.0","1","[""img/0883/cc2bb2c6-18f1-414f-98cc-6cd683173ce4.jpg"",""img/0885/fce9f22a-f769-477c-acee-a5ad8214f0a5.jpg""]","",""
"","5714","similarity","116","759041","0.0-6.0-110.0","4","[""img/0867/075e0f95-856b-4cbb-acf5-092393aaf04e.jpg"",""img/0867/db7e032f-162b-46f5-ae67-2b29679adee4.jpg""]","",""
"","3070","similarity","117","763115","0.0-6.0-111.0","1","[""img/0881/db77fe00-aeb0-4d1d-aa66-f3a96fd077e4.jpg"",""img/0760/868ae139-99b5-4ff2-9d19-c4933af135e4.jpg""]","",""
"","3083","similarity","118","767204","0.0-6.0-112.0","1","[""img/0881/445edb15-bd7f-4af3-8bd5-c6ad9677bb31.jpg"",""img/0868/4e626425-63c8-484a-8a1d-e66ee4e0bef8.jpg""]","",""
"","2959","similarity","119","771169","0.0-6.0-113.0","1","[""img/0875/34132396-d896-4c2d-8087-646dd867e769.jpg"",""img/0761/b1819a20-de99-463b-9840-60a4b8faa30d.jpg""]","",""
"","2717","similarity","120","774890","0.0-6.0-114.0","1","[""img/0756/314a157e-e6d3-4447-a98f-8fde8f810f0c.jpg"",""img/0866/a04d37f0-99dd-478a-b6c6-58b215138f84.jpg""]","",""
"","3553","similarity","121","779448","0.0-6.0-115.0","1","[""img/0884/10c0a35b-e20a-4d75-a7c0-959a578d9ebf.jpg"",""img/0886/789f5d23-84b8-499a-ae1e-20c6309a06ae.jpg""]","",""
"","3160","similarity","122","783614","0.0-6.0-116.0","1","[""img/0756/d0f1b906-d8e0-4528-9d08-90cec14838ec.jpg"",""img/0881/4bd34581-94d8-4e88-8c89-5cef864ca3be.jpg""]","",""
"","2699","similarity","123","787317","0.0-6.0-117.0","1","[""img/0760/39d75e1e-0645-4f23-a2ca-3bbefac19d69.jpg"",""img/0875/e7e66b13-b573-431e-b85e-288ce04a35a3.jpg""]","",""
"","3907","similarity","124","792230","0.0-6.0-118.0","1","[""img/0958/4e2ca4bc-52c7-4c27-9610-776441231e42.jpg"",""img/0866/02f5e6b9-52b7-448c-9708-5b460d0c9a23.jpg""]","",""
"","3113","similarity","125","796348","0.0-6.0-119.0","1","[""img/0867/ac1797e4-8afc-48fe-b252-86d1defb1cca.jpg"",""img/0874/29830da7-be5f-44e5-b141-652a0ccf7269.jpg""]","",""
"","4398","similarity","126","801752","0.0-6.0-120.0","1","[""img/0883/e3603ed7-8fca-475a-aeb1-d1f7651c4618.jpg"",""img/0757/69d850ce-9828-4b13-9e68-6a2c196ecbcc.jpg""]","",""
"","7755","similarity","127","810514","0.0-6.0-121.0","1","[""img/0874/2c9464dd-8a23-4baa-ac94-1ba3af5c15cc.jpg"",""img/0886/97243e18-4dba-4af8-b49f-b3b635c90ac4.jpg""]","",""
"","2991","similarity","128","814512","0.0-6.0-122.0","1","[""img/0873/ac86dbfd-0442-4dec-9d10-37d7093f5a52.jpg"",""img/0761/bd083642-a9bc-4877-bfc6-63bd03d33e81.jpg""]","",""
"","4379","similarity","129","819899","0.0-6.0-123.0","1","[""img/0875/90da8d75-108a-44ad-b999-e21fee3860d3.jpg"",""img/0884/2348ce3f-5d2a-4a04-85ef-a65f05caa935.jpg""]","",""
"","3493","similarity","130","824394","0.0-6.0-124.0","1","[""img/0757/c190d19b-2091-436c-a92b-a48c253ac955.jpg"",""img/0868/5fa7f9d0-f0e5-454c-8224-74d964818f56.jpg""]","",""
"","2928","similarity","131","833178","0.0-6.0-125.0","1","[""img/0886/1870a791-dfee-471e-8417-197d4a53c75a.jpg"",""img/0883/46d6b8ad-7f31-441e-92d2-0cc16d3d99ce.jpg""]","",""
"","2947","similarity","132","837129","0.0-6.0-126.0","1","[""img/0868/8b0b8473-e2c0-4331-aa56-c3a5c29369da.jpg"",""img/0760/5f9bd780-65e3-43ab-a3a3-73a1cc87d5a2.jpg""]","",""
"","10764","similarity","133","848901","0.0-6.0-127.0","5","[""img/0881/e046471a-35b4-4159-bbf7-3cfd201bef66.jpg"",""img/0881/48ed65a5-471f-41af-86ec-3793805c116d.jpg""]","",""
"","4909","similarity","134","854832","0.0-6.0-128.0","1","[""img/0760/afe7a178-4458-4bdd-a0ad-0cffc57eadc3.jpg"",""img/0860/99c589b9-9140-4d17-90c0-b344323edcda.jpg""]","",""
"","3016","similarity","135","858857","0.0-6.0-129.0","1","[""img/0864/e8bd659f-aa43-4748-877e-3118e8b4e189.jpg"",""img/0885/d2276b26-e91a-4f19-a818-cbeb297ed884.jpg""]","",""
"","3233","similarity","136","863092","0.0-6.0-130.0","1","[""img/0864/c22faebd-9c53-47bc-ada3-b9a30c688e75.jpg"",""img/0757/014ee4a8-8069-4b08-ac1c-04230da90244.jpg""]","",""
"","3952","similarity","137","868050","0.0-6.0-131.0","1","[""img/0760/4f024637-f98a-409a-baa0-fc4989d80667.jpg"",""img/0883/dc95de8d-9297-41ec-b3ac-3f8b060260e3.jpg""]","",""
"","3651","similarity","138","872707","0.0-6.0-132.0","7","[""img/0885/1e66fe61-15d5-42b1-86aa-dbfd13613f5c.jpg"",""img/0885/62bd11a8-7059-4cc2-b06d-4700688b313f.jpg""]","",""
"","2976","similarity","139","876689","0.0-6.0-133.0","1","[""img/0860/87039971-2210-4aab-93c0-8e9b5f1655b2.jpg"",""img/0868/6a28c3b0-3d76-498a-9fb7-ddafc665eca8.jpg""]","",""
"","4419","similarity","140","882113","0.0-6.0-134.0","1","[""img/0867/aa05d113-fc19-4756-a8eb-7878f580bc92.jpg"",""img/0886/451550d7-6ff9-42b5-938c-9e20ee960bf6.jpg""]","",""
"","2978","similarity","141","886095","0.0-6.0-135.0","1","[""img/0756/7a68b61c-212a-4f14-8b6f-4d74b6cd206e.jpg"",""img/0886/42cccc64-05f9-4afd-bc93-496ba50a4342.jpg""]","",""
"","3384","similarity","142","890484","0.0-6.0-136.0","1","[""img/0884/d8ffab77-40df-44ba-bf27-70815b052250.jpg"",""img/0868/293079b8-7e0c-4afd-a390-1e5d35fe3ded.jpg""]","",""
"","4495","similarity","143","895985","0.0-6.0-137.0","7","[""img/0958/1812c506-727b-43a7-882e-4729742e41fc.jpg"",""img/0958/bb684a39-afef-4125-9f70-b5ad830ba316.jpg""]","",""
"","4465","similarity","144","901455","0.0-6.0-138.0","1","[""img/0886/c6c81122-f4bf-46f4-968b-167f8ed0cab3.jpg"",""img/0873/90b702a6-3dba-446a-9bba-a2ee096baf49.jpg""]","",""
"","4343","similarity","145","906803","0.0-6.0-139.0","1","[""img/0758/e1ba5e53-addc-436a-b428-d34fc1b130dc.jpg"",""img/0873/226317e0-f0e7-42ea-907b-058cb1ad519a.jpg""]","",""
"","3575","similarity","146","911383","0.0-6.0-140.0","1","[""img/0873/c4b47588-9c66-4401-aefc-cf9481d5fa85.jpg"",""img/0756/de72dcee-8bbb-43d1-a744-9c074b9122ee.jpg""]","",""
"","3338","similarity","147","915741","0.0-6.0-141.0","1","[""img/0868/83b4350a-3b70-4cea-b7f5-b5b56f3050a8.jpg"",""img/0862/53a9cf7c-93c4-41b9-952f-07d17f7a17b2.jpg""]","",""
"","3292","similarity","148","920039","0.0-6.0-142.0","1","[""img/0881/84397291-bc14-4fbf-90e8-241e486ab0fe.jpg"",""img/0862/847e5208-38ec-4f36-949c-296cdd7424ee.jpg""]","",""
"","3539","similarity","149","924584","0.0-6.0-143.0","1","[""img/0885/5a47e19f-19b4-4545-bf47-b508cb65da6a.jpg"",""img/0867/c71dc569-f49c-4397-8381-68b8d726736d.jpg""]","",""
"","4520","similarity","150","930110","0.0-6.0-144.0","7","[""img/0883/d719aab0-0280-4c06-87e5-b9db7454965c.jpg"",""img/0883/6dcd54c3-64a3-4ed5-9149-d8b9aa1938c8.jpg""]","",""
"","5459","similarity","151","936580","0.0-6.0-145.0","5","[""img/0874/3f471690-9788-4d03-90c7-f615aecef149.jpg"",""img/0873/6110910a-7895-4b6a-af51-12486a4595a3.jpg""]","",""
"","3105","similarity","152","940691","0.0-6.0-146.0","1","[""img/0757/76206a63-e02d-4beb-a85a-ed1b5527bc36.jpg"",""img/0758/7ee8bc8f-c40b-4b3a-84ec-3e83580622d4.jpg""]","",""
"","2905","similarity","153","944601","0.0-6.0-147.0","1","[""img/0883/eff15ce5-9393-443c-829f-71242d1c56d0.jpg"",""img/0756/b7869208-7169-455d-835f-31926317dd95.jpg""]","",""
"","4237","similarity","154","949843","0.0-6.0-148.0","1","[""img/0867/bf560d4f-dee3-4f11-a385-705cc1aa5f3c.jpg"",""img/0866/386235d2-6857-41e7-88a8-25cfc3430025.jpg""]","",""
"","5494","similarity","155","956342","0.0-6.0-149.0","1","[""img/0758/7fba58df-2a7a-4b76-8a8f-62739f97f271.jpg"",""img/0760/c76e8a36-1537-42e0-9779-13c2b6a89725.jpg""]","",""
"","3813","similarity","156","961175","0.0-6.0-150.0","1","[""img/0757/443a1d16-5d59-4e77-a670-d6190157c319.jpg"",""img/0761/5747fedf-15f2-47fe-87c8-ff646dd66a5f.jpg""]","",""
"","4665","similarity","157","966845","0.0-6.0-151.0","1","[""img/0761/a69897c1-1310-4bae-9a51-8b29cd9543dd.jpg"",""img/0874/a82926a3-0b43-4add-803c-d5f9ea7798ee.jpg""]","",""
"","4059","similarity","158","971909","0.0-6.0-152.0","1","[""img/0761/e34f97e4-14ac-4bb6-b226-816085d967c2.jpg"",""img/0760/fe62dd62-331c-4317-8af2-f1c816871fee.jpg""]","",""
"","6838","similarity","159","979753","0.0-6.0-153.0","6","[""img/0866/be24ab58-230e-4db8-9f45-ff04c9aec6bb.jpg"",""img/0866/9b38d691-1802-4959-ab3f-fc902f0e4ea6.jpg""]","",""
"","4468","similarity","160","985226","0.0-6.0-154.0","1","[""img/0866/d493a2c8-66eb-44b4-be02-2f327b700b7c.jpg"",""img/0862/f188d4f0-76a4-4102-818c-a209969d73a5.jpg""]","",""
"","2963","similarity","161","989206","0.0-6.0-155.0","1","[""img/0756/b6e235f7-211b-4a2b-a7b8-393e5ec7351b.jpg"",""img/0862/5d887e9f-89e2-4ebc-80a0-6d46fe6480db.jpg""]","",""
"","2988","similarity","162","993200","0.0-6.0-156.0","1","[""img/0860/702bd09d-df3a-40aa-a267-5f04474305b5.jpg"",""img/0866/93a27239-8317-4e08-98ca-d8b1ff298e07.jpg""]","",""
"","3320","similarity","163","997526","0.0-6.0-157.0","1","[""img/0862/a0a3a7ba-7798-46a3-b4ca-05e1f6e581d0.jpg"",""img/0958/fd950403-e452-4018-8207-a9714addcd75.jpg""]","",""
"","2912","similarity","164","1001444","0.0-6.0-158.0","1","[""img/0761/8e379ec1-757d-4427-a0ff-d4efdd6a50c4.jpg"",""img/0868/1a62b2b2-18f5-466e-b564-5176a57c565e.jpg""]","",""
"","2929","similarity","165","1005378","0.0-6.0-159.0","1","[""img/0761/aebad236-1f4a-4bc2-a74d-d92b7e226316.jpg"",""img/0886/625c7dfa-3fa1-4166-80f0-229eb416b04f.jpg""]","",""
"","3066","similarity","166","1009450","0.0-6.0-160.0","1","[""img/0874/c0378dac-9370-439a-8b79-db27c96fb390.jpg"",""img/0868/179a5502-ab5c-478e-8263-5a1fbcc101d2.jpg""]","",""
"","2800","similarity","167","1013254","0.0-6.0-161.0","1","[""img/0860/f44ba3fb-03a2-42f0-8509-2c1ded493086.jpg"",""img/0874/767f289c-9814-4496-803f-745cc8913d1f.jpg""]","",""
"","2750","similarity","168","1017011","0.0-6.0-162.0","1","[""img/0883/5716bfb3-e86c-42fe-8afa-58d226cb1aaa.jpg"",""img/0867/2e1a0b58-cdb1-4107-a14e-452530d7b9b0.jpg""]","",""
"","5272","similarity","169","1023288","0.0-6.0-163.0","1","[""img/0758/b76ceca7-95ac-46e4-ac13-da02c8e93be9.jpg"",""img/0958/ba5ed153-96de-4f61-b7d9-87a478c8972c.jpg""]","",""
"","3143","similarity","170","1027437","0.0-6.0-164.0","1","[""img/0873/33552b07-bdb8-423e-88b4-25a37f159c6d.jpg"",""img/0757/4faaa503-45d9-43fa-bddb-707274a341ff.jpg""]","",""
"","4988","similarity","171","1033430","0.0-6.0-165.0","1","[""img/0873/841d6549-01d2-4ebd-8d67-25d219876178.jpg"",""img/0866/f756f7d1-9ad8-4a34-9ef6-7a443d705bfe.jpg""]","",""
"","4671","similarity","172","1039109","0.0-6.0-166.0","1","[""img/0875/3ecb367d-e9eb-4826-8aaa-7aa72fb98019.jpg"",""img/0867/7d1c497b-c1b3-4ed8-abb5-d7f73306015f.jpg""]","",""
"","5156","similarity","173","1050110","0.0-6.0-167.0","7","[""img/0862/f43ceabf-acc1-4107-b857-5d1849808f93.jpg"",""img/0862/00c06b00-3b73-44e9-bc1e-c5aafb438321.jpg""]","",""
"","3481","similarity","174","1054597","0.0-6.0-168.0","1","[""img/0875/8521fd58-3b1e-4dc5-97ae-804edfa6734a.jpg"",""img/0886/9f186bd5-d48b-4cc2-9206-be67c392faa9.jpg""]","",""
"","2925","similarity","175","1058527","0.0-6.0-169.0","1","[""img/0885/89d8c48b-8bde-42ed-ae71-de669b15ea34.jpg"",""img/0875/d59ff733-eaff-4ee2-9443-06954dd0bcb6.jpg""]","",""
"","3068","similarity","176","1062601","0.0-6.0-170.0","1","[""img/0862/eefa5588-9efd-4591-aa5f-a2e17c7d7bcc.jpg"",""img/0867/179ab87a-8eac-4c52-a41f-2e48e3120f09.jpg""]","",""
"","3920","similarity","177","1067525","0.0-6.0-171.0","1","[""img/0884/fb8b0101-bfd2-462b-a942-d3202a69dd18.jpg"",""img/0873/0c7f3d86-efda-4809-aac4-256ba01e0536.jpg""]","",""
"","3959","similarity","178","1072489","0.0-6.0-172.0","1","[""img/0873/c3ff3b70-fb22-42f2-883c-3ecffd77cb4b.jpg"",""img/0958/ebea41e3-9d65-4f5e-981a-92daaaad0d57.jpg""]","",""
"","2942","similarity","179","1076437","0.0-6.0-173.0","1","[""img/0868/77091fc7-a590-4ebb-b915-fdb2483a2399.jpg"",""img/0758/eabcd7a8-56ad-4fd2-bc24-90f6b7b33265.jpg""]","",""
"","3508","similarity","180","1080953","0.0-6.0-174.0","1","[""img/0757/424b465f-ba69-4277-bc61-d3e95d136f80.jpg"",""img/0874/a3bc679d-619f-4db6-bb68-116dcb757d9c.jpg""]","",""
"","2761","similarity","181","1084719","0.0-6.0-175.0","1","[""img/0958/d4138705-0a9d-4141-9af9-205e69367c44.jpg"",""img/0867/98d8cd96-1476-4fe0-a3a3-04f875500a1b.jpg""]","",""
"","4158","similarity","182","1089881","0.0-6.0-176.0","1","[""img/0874/eba003b4-cdab-4eee-8bc3-f064c7d94165.jpg"",""img/0760/9daf8012-19c4-498f-8f51-81ec001a83be.jpg""]","",""
"","3065","similarity","183","1093953","0.0-6.0-177.0","1","[""img/0873/d74e4aa9-420d-48a3-a42f-30a3481536ae.jpg"",""img/0860/c47fdead-eb02-4989-b078-26f4852f44fe.jpg""]","",""
"","4234","similarity","184","1099191","0.0-6.0-178.0","1","[""img/0881/f037e3b0-09cb-4a83-b2d9-6a71fe474e63.jpg"",""img/0883/daaa1a6f-c322-46f6-b6a6-db2c9496d710.jpg""]","",""
"","3266","similarity","185","1103463","0.0-6.0-179.0","1","[""img/0886/abd8dd83-d8ee-4003-b4d2-b4045220a578.jpg"",""img/0958/58b7811e-d3f6-4e4d-befb-86e063d13a43.jpg""]","",""
"","4355","similarity","186","1108824","0.0-6.0-180.0","1","[""img/0864/4bd81bc6-c13d-46df-95a9-485886dc7c1b.jpg"",""img/0883/142a783e-a468-4b7f-a750-1e107613d5a9.jpg""]","",""
"","3259","similarity","187","1113102","0.0-6.0-181.0","1","[""img/0756/8fdfa93c-88d0-4311-be2d-7f799fcaa8de.jpg"",""img/0868/0d3abd3a-b6c3-4584-a9f7-e2da63748b3d.jpg""]","",""
"","2861","similarity","188","1116967","0.0-6.0-182.0","1","[""img/0884/592da15b-09e4-46b5-81e7-bab08a1c33e9.jpg"",""img/0758/a709631e-3705-4725-ac40-f0d916924f08.jpg""]","",""
"","3781","similarity","189","1121753","0.0-6.0-183.0","1","[""img/0875/2e13d160-eea1-416b-aff1-d37ab99ecc1d.jpg"",""img/0874/995f0332-0439-4eb4-add3-957335dbf6d9.jpg""]","",""
"","5427","similarity","190","1128182","0.0-6.0-184.0","4","[""img/0867/c66898ba-b71b-4d50-84f9-f7f84853a98d.jpg"",""img/0868/e0aff734-077f-40dd-9781-74821abd3621.jpg""]","",""
"","3265","similarity","191","1132453","0.0-6.0-185.0","1","[""img/0881/6b1189e6-232d-4042-8885-16dc7b10e0d4.jpg"",""img/0885/eb5e4557-1792-49c3-8871-16afa58f3a28.jpg""]","",""
"","3729","similarity","192","1137185","0.0-6.0-186.0","1","[""img/0864/9b2490c5-a282-400a-9736-e1a0ecbf1cb7.jpg"",""img/0761/53a65b48-8b0c-4a1d-9ebb-a27a259c5bc6.jpg""]","",""
"","3635","similarity","193","1141825","0.0-6.0-187.0","1","[""img/0885/fbbfaacd-e49b-4d37-a2f9-fcaffa58f26f.jpg"",""img/0874/3ce41e7c-40c8-4d58-a546-171114521796.jpg""]","",""
"","3064","similarity","194","1145895","0.0-6.0-188.0","1","[""img/0758/335851a0-a55b-46d8-ab05-8463eda48349.jpg"",""img/0867/50a1b60e-3a29-44bf-b606-d4bd3746fea9.jpg""]","",""
"","3273","similarity","195","1150173","0.0-6.0-189.0","1","[""img/0756/792f9475-979d-4787-b7dc-8a0d02f6e25f.jpg"",""img/0884/e275ab3e-0948-43c3-8be7-a75271922185.jpg""]","",""
"","5248","similarity","196","1156427","0.0-6.0-190.0","1","[""img/0761/014e76d0-fb4e-4b40-901c-7a2d5655c3b0.jpg"",""img/0862/92fcd8a4-8193-4a6a-ae09-dd4a6338b0df.jpg""]","",""
"","3553","similarity","197","1160997","0.0-6.0-191.0","1","[""img/0860/fd4662f9-4c03-4d79-8593-06735e55a64b.jpg"",""img/0886/d1e40478-2fe0-404f-8409-920da98a96a2.jpg""]","",""
"","2951","similarity","198","1164954","0.0-6.0-192.0","1","[""img/0760/c7d43bfd-465f-4f4e-8dc1-ae4cd3d2c1de.jpg"",""img/0885/517a9189-9623-4ed7-a37e-48788791e028.jpg""]","",""
"","3803","similarity","199","1169761","0.0-6.0-193.0","1","[""img/0886/0f9715c1-b2e4-418e-bf9b-126cc9e70dc6.jpg"",""img/0868/c8ac40c7-6904-4e13-8d61-c75d3052dc4e.jpg""]","",""
"","6046","similarity","200","1176813","0.0-6.0-194.0","6","[""img/0881/633c6f40-56d9-4b48-bf1c-ecd83116eabb.jpg"",""img/0864/e336a4c5-6648-4fd7-b2f6-93a3fb83f8c6.jpg""]","",""
"","5315","similarity","201","1183133","0.0-6.0-195.0","1","[""img/0866/bf14b5bd-fb55-47db-86b9-4f8aeb9a6dad.jpg"",""img/0868/09a9ef4d-d000-4cfa-a6aa-ebec7c2edeb4.jpg""]","",""
"","10178","similarity","202","1194317","0.0-6.0-196.0","3","[""img/0864/f92649a2-0590-4d31-9a7a-1bfb81666a2d.jpg"",""img/0958/eea2b7ca-1c37-4e76-ada7-a8b1f3afdc01.jpg""]","",""
"","3661","similarity","203","1198985","0.0-6.0-197.0","1","[""img/0757/efa4466e-2951-4af9-b321-85458a89c2a7.jpg"",""img/0886/bd45b474-5559-4ea5-83ff-140bce19f5fa.jpg""]","",""
"","4648","similarity","204","1204639","0.0-6.0-198.0","1","[""img/0758/821c68d3-5cb0-4eae-8659-30e6263fca39.jpg"",""img/0883/724f020e-39d9-495c-abe1-b2e4504be9bc.jpg""]","",""
"","4533","similarity","205","1210177","0.0-6.0-199.0","1","[""img/0881/f8bd891e-aa09-4782-89db-33e7cb2b0cf1.jpg"",""img/0958/edfd5bc1-8c8f-489a-84c3-908436ef76cc.jpg""]","",""
"","3887","similarity","206","1215069","0.0-6.0-200.0","1","[""img/0958/644719ec-1690-4af2-a63f-0b6467c3791e.jpg"",""img/0874/ca23d307-fc00-4d7d-9106-584c6eb21b4d.jpg""]","",""
"","3121","similarity","207","1219196","0.0-6.0-201.0","1","[""img/0885/24afeefb-f7b3-4e8f-a5b9-17cc00fd22e3.jpg"",""img/0860/8277806e-b684-4474-8f7b-3fca946d7d4f.jpg""]","",""
"","3319","similarity","208","1223519","0.0-6.0-202.0","1","[""img/0875/5a7c4e35-6514-4e12-8879-d16071da4cd6.jpg"",""img/0881/1407b85b-a1c6-45b1-9884-3b24203efadb.jpg""]","",""
"","3741","similarity","209","1228266","0.0-6.0-203.0","1","[""img/0758/2fa3e613-e676-4e6e-bd12-705327eeb3e1.jpg"",""img/0860/524b2e98-5767-4d53-942c-ebae6925659b.jpg""]","",""
"","3735","similarity","210","1233020","0.0-6.0-204.0","7","[""img/0860/c3379ff7-0763-48fe-a1ec-7ea3d611bc7a.jpg"",""img/0860/17b44a7d-c5ca-479f-9e87-f65a64f5c80e.jpg""]","",""
"","7543","similarity","211","1241568","0.0-6.0-205.0","2","[""img/0874/85eb9b8a-c4c6-4e5a-b8e7-363a87a82054.jpg"",""img/0874/ca76a855-4e77-4f2f-872a-0a718153e7ed.jpg""]","",""
"","5193","similarity","212","1247766","0.0-6.0-206.0","1","[""img/0883/77f31752-1984-44f7-a77d-e22c2ad54256.jpg"",""img/0761/00a8e7ae-d8da-4cba-8969-1dfb943a2aa2.jpg""]","",""
"","4386","similarity","213","1253158","0.0-6.0-207.0","1","[""img/0761/a74c99e4-d9ed-42cd-9e83-8d525cb6a9a2.jpg"",""img/0881/f4e3e181-b3c9-4af2-a5a4-fc135ab70d2e.jpg""]","",""
"","3211","similarity","214","1257374","0.0-6.0-208.0","1","[""img/0760/812c848f-be21-4059-abe5-8c4f4ac9ad0f.jpg"",""img/0756/350ac166-1deb-4399-89db-da6a7e827c4d.jpg""]","",""
"","3090","similarity","215","1268150","0.0-6.0-209.0","1","[""img/0885/21b241a1-95da-4306-9cf2-cc52a784214a.jpg"",""img/0757/ec40956b-ed8b-4970-b87f-9b7c25cd5be6.jpg""]","",""
"[{""page_index"":0,""viewing_time"":14431}]","14432","instructions","216","1283583","0.0-7.0","","","",""
"","74096","image-multi-choice","217","1358709","0.0-8.0-0.0","","","{""Q0"":""Orange-crowned Warbler""}","Orange-crowned Warbler"
"","6825","image-multi-choice","218","1366556","0.0-8.0-1.0","","","{""Q0"":""Wilson's Warbler""}","Wilson's Warbler"
"","9478","image-multi-choice","219","1377054","0.0-8.0-2.0","","","{""Q0"":""Blackpoll Warbler""}","Blackpoll Warbler"
"","7174","image-multi-choice","220","1385248","0.0-8.0-3.0","","","{""Q0"":""Black-and-white Warbler""}","Black-and-white Warbler"
"","5330","image-multi-choice","221","1391599","0.0-8.0-4.0","","","{""Q0"":""Yellow-breasted Chat""}","Yellow-breasted Chat"
"","5010","image-multi-choice","222","1397628","0.0-8.0-5.0","","","{""Q0"":""Canada Warbler""}","Canada Warbler"
"","6273","image-multi-choice","223","1404922","0.0-8.0-6.0","","","{""Q0"":""Common Yellowthroat""}","Common Yellowthroat"
"","10079","image-multi-choice","224","1416018","0.0-8.0-7.0","","","{""Q0"":""American Redstart""}","American Redstart"
"","7869","image-multi-choice","225","1424905","0.0-8.0-8.0","","","{""Q0"":""Chestnut-sided Warbler""}","Chestnut-sided Warbler"
"","6000","image-multi-choice","226","1431924","0.0-8.0-9.0","","","{""Q0"":""Black-throated Green Warbler""}","Black-throated Green Warbler"
"","37399","image-multi-choice","227","1470342","0.0-8.0-10.0","","","{""Q0"":""Blackburnian Warbler""}","Blackburnian Warbler"
"","9671","image-multi-choice","228","1481030","0.0-8.0-11.0","","","{""Q0"":""Yellow-rumped Warbler""}","Yellow-rumped Warbler"
"","6369","image-multi-choice","229","1488418","0.0-8.0-12.0","","","{""Q0"":""Ovenbird""}","Ovenbird"
"","116587","image-multi-choice","230","1606025","0.0-8.0-13.0","","","{""Q0"":""Townsend's Warbler""}","Townsend's Warbler"
"","9218","image-multi-choice","231","1616261","0.0-8.0-14.0","","","{""Q0"":""Northern Waterthrush""}","Northern Waterthrush"
"","15091","image-multi-choice","232","1632369","0.0-8.0-15.0","","","{""Q0"":""Yellow Warbler""}","Yellow Warbler"
"","133268","image-multi-choice","233","1766655","0.0-8.0-16.0","","","{""Q0"":""Orange-crowned Warbler""}","Nashville Warbler"
"","9692","image-multi-choice","234","1777365","0.0-8.0-17.0","","","{""Q0"":""Northern Parula""}","Northern Parula"
"","6247","image-multi-choice","235","1784631","0.0-8.0-18.0","","","{""Q0"":""Tennessee Warbler""}","Tennessee Warbler"
"","9056","image-multi-choice","236","1794706","0.0-8.0-19.0","","","{""Q0"":""Magnolia Warbler""}","Magnolia Warbler"
