"view_history","rt","trial_type","trial_index","time_elapsed","internal_node_id","sim_score","stimulus","responses","answer"
"[{""page_index"":0,""viewing_time"":25201}]","25203","instructions","0","25204","0.0-0.0","","","",""
"","9829","similarity_demo","1","36064","0.0-1.0","7","[""img/bluejay1.jpg"",""img/bluejay2.jpg""]","",""
"[{""page_index"":0,""viewing_time"":12292}]","12292","instructions","2","49357","0.0-2.0","","","",""
"","6871","similarity_demo","3","57247","0.0-3.0","4","[""img/bluejay1.jpg"",""img/cardinal1.jpg""]","",""
"[{""page_index"":0,""viewing_time"":9110}]","9112","instructions","4","67361","0.0-4.0","","","",""
"[{""page_index"":0,""viewing_time"":236184}]","236185","instructions","5","304560","0.0-5.0","","","",""
"","9453","similarity","6","315054","0.0-6.0-0.0","5","[""img/0864/300bb811-8b3c-4c42-8653-6097c3725197.jpg"",""img/0860/fd4662f9-4c03-4d79-8593-06735e55a64b.jpg""]","",""
"","7879","similarity","7","323941","0.0-6.0-1.0","5","[""img/0884/a6389ab4-3291-4434-9b91-eeae3b04fce4.jpg"",""img/0760/83b0723f-4929-4ee7-ad35-fae98da3e152.jpg""]","",""
"","7507","similarity","8","332460","0.0-6.0-2.0","5","[""img/0886/0f9715c1-b2e4-418e-bf9b-126cc9e70dc6.jpg"",""img/0881/c843e210-bdfe-4a7c-8bbe-fcea1f90fe1c.jpg""]","",""
"","5830","similarity","9","339301","0.0-6.0-3.0","4","[""img/0866/d266fece-59b3-46fa-b69f-96f6efb81b59.jpg"",""img/0881/ee44e27f-d662-4608-b265-e7ffa19b216f.jpg""]","",""
"","9687","similarity","10","350004","0.0-6.0-4.0","5","[""img/0868/d6d1f30d-4323-435a-b194-7892521bc57e.jpg"",""img/0885/62bd11a8-7059-4cc2-b06d-4700688b313f.jpg""]","",""
"","5441","similarity","11","356461","0.0-6.0-5.0","4","[""img/0757/424b465f-ba69-4277-bc61-d3e95d136f80.jpg"",""img/0866/f756f7d1-9ad8-4a34-9ef6-7a443d705bfe.jpg""]","",""
"","4315","similarity","12","361794","0.0-6.0-6.0","4","[""img/0868/179a5502-ab5c-478e-8263-5a1fbcc101d2.jpg"",""img/0864/1ebbc554-99fa-49f9-8799-317375a79820.jpg""]","",""
"","7335","similarity","13","370148","0.0-6.0-7.0","7","[""img/0864/0116ca98-293d-4fa6-a93b-5a6144ef64cc.jpg"",""img/0864/efcfbb1b-8197-44c9-b723-40d6c608dd3c.jpg""]","",""
"","4557","similarity","14","375716","0.0-6.0-8.0","4","[""img/0757/91a048c0-e749-433b-9147-0c671dc5b4ca.jpg"",""img/0881/f7a8cc63-8842-40a4-9ff8-fe530310d62c.jpg""]","",""
"","6660","similarity","15","383388","0.0-6.0-9.0","5","[""img/0886/97243e18-4dba-4af8-b49f-b3b635c90ac4.jpg"",""img/0760/1c96ffb7-17db-4253-b66c-59250977c88b.jpg""]","",""
"","6342","similarity","16","390765","0.0-6.0-10.0","4","[""img/0884/5085d424-b3f5-461b-a1c7-f7ca55abcf4f.jpg"",""img/0883/29cba870-24df-4a0b-85cd-b680316ffe3d.jpg""]","",""
"","6314","similarity","17","398109","0.0-6.0-11.0","5","[""img/0874/bf14b896-e930-4fd9-9c05-2e83317a2773.jpg"",""img/0862/d0ca4c78-fc35-46ed-bdcc-8e124283c53e.jpg""]","",""
"","5521","similarity","18","404636","0.0-6.0-12.0","5","[""img/0862/f188d4f0-76a4-4102-818c-a209969d73a5.jpg"",""img/0875/42910c99-5463-450a-a0f8-d4d060a11455.jpg""]","",""
"","4825","similarity","19","410476","0.0-6.0-13.0","4","[""img/0875/99698b4d-b4a1-44bc-8c83-8ea755bbbf61.jpg"",""img/0757/1fd9dcb9-e489-4708-b518-f356d3f5481d.jpg""]","",""
"","5574","similarity","20","417060","0.0-6.0-14.0","5","[""img/0875/5a1e5100-0d94-4fec-bbe9-ca9894d2cf8e.jpg"",""img/0860/5383b320-1518-4095-a58e-5cc1ae30b64c.jpg""]","",""
"","4930","similarity","21","423000","0.0-6.0-15.0","5","[""img/0860/8a92e21b-6a32-4e4a-a445-2d5a487ed0a4.jpg"",""img/0881/f037e3b0-09cb-4a83-b2d9-6a71fe474e63.jpg""]","",""
"","6385","similarity","22","430397","0.0-6.0-16.0","5","[""img/0885/517a9189-9623-4ed7-a37e-48788791e028.jpg"",""img/0884/37ee4afa-34a0-4da2-bdb0-fcaff43dcdb6.jpg""]","",""
"","6726","similarity","23","438131","0.0-6.0-17.0","7","[""img/0761/a74c99e4-d9ed-42cd-9e83-8d525cb6a9a2.jpg"",""img/0761/3599fa54-18f9-488e-b402-e851c43586ff.jpg""]","",""
"","6343","similarity","24","445490","0.0-6.0-18.0","5","[""img/0760/9ddd6958-7349-45d6-b5bc-4a5911960c35.jpg"",""img/0864/87c467d3-abca-482f-ad80-3766c21b1bb3.jpg""]","",""
"","5372","similarity","25","451885","0.0-6.0-19.0","5","[""img/0864/3d4de670-b290-4285-9c3d-12a0e3af44e9.jpg"",""img/0875/3ecb367d-e9eb-4826-8aaa-7aa72fb98019.jpg""]","",""
"","5219","similarity","26","458124","0.0-6.0-20.0","4","[""img/0874/ca23d307-fc00-4d7d-9106-584c6eb21b4d.jpg"",""img/0884/e275ab3e-0948-43c3-8be7-a75271922185.jpg""]","",""
"","5285","similarity","27","464428","0.0-6.0-21.0","4","[""img/0885/24afeefb-f7b3-4e8f-a5b9-17cc00fd22e3.jpg"",""img/0866/945c6710-d15b-4a5b-a8f6-69af0850357f.jpg""]","",""
"","6503","similarity","28","471948","0.0-6.0-22.0","7","[""img/0868/83b4350a-3b70-4cea-b7f5-b5b56f3050a8.jpg"",""img/0868/5fa7f9d0-f0e5-454c-8224-74d964818f56.jpg""]","",""
"","5925","similarity","29","478892","0.0-6.0-23.0","5","[""img/0757/b46cab21-50e3-4f19-803d-682627bcd6a6.jpg"",""img/0756/4fcf5ea1-c2e0-44b9-b07f-26cbf07e1801.jpg""]","",""
"","6985","similarity","30","486893","0.0-6.0-24.0","7","[""img/0875/cff79b3a-a797-4393-9757-6275f999ec04.jpg"",""img/0875/527ced51-8e53-4aab-ab05-86df219104c0.jpg""]","",""
"","3655","similarity","31","491563","0.0-6.0-25.0","4","[""img/0761/89d3b943-cd14-4786-a7b8-0e9a695cf0e3.jpg"",""img/0866/a15b02be-11bb-43e3-b0e0-ecc3bd7dfc49.jpg""]","",""
"","5862","similarity","32","498436","0.0-6.0-26.0","5","[""img/0866/9b38d691-1802-4959-ab3f-fc902f0e4ea6.jpg"",""img/0758/ddc336e9-a8b6-4bb9-937a-c7e25e0e9250.jpg""]","",""
"","4974","similarity","33","504427","0.0-6.0-27.0","5","[""img/0758/f61ecdf8-a7d4-4db0-b84d-be46f7cfaffc.jpg"",""img/0875/90da8d75-108a-44ad-b999-e21fee3860d3.jpg""]","",""
"","8239","similarity","34","513683","0.0-6.0-28.0","5","[""img/0958/0a8f72c4-0c73-4d58-be6f-5e4613b87409.jpg"",""img/0757/31d8ee3d-1b79-4d6a-9347-f91c87c00f92.jpg""]","",""
"","6161","similarity","35","520863","0.0-6.0-29.0","5","[""img/0873/7dddc95f-ca6e-4d15-99a0-0e329ec6888e.jpg"",""img/0883/122548fc-b3cc-445b-b7c0-04794df6d11d.jpg""]","",""
"","6899","similarity","36","528771","0.0-6.0-30.0","4","[""img/0868/e0aff734-077f-40dd-9781-74821abd3621.jpg"",""img/0875/f87b67d7-c33e-40d1-b281-248c4be1cb6e.jpg""]","",""
"","5101","similarity","37","534891","0.0-6.0-31.0","5","[""img/0884/967c63af-8f6a-483f-9122-0c79d97fd22e.jpg"",""img/0862/ee3b7bff-4a70-4e84-9bea-4a565e456acb.jpg""]","",""
"","5965","similarity","38","541859","0.0-6.0-32.0","5","[""img/0884/7ae02e9d-46a4-4124-bcc2-cad90d7ef9f9.jpg"",""img/0864/1d15626a-2f7c-410f-819c-0fa2c967e95e.jpg""]","",""
"","4816","similarity","39","547683","0.0-6.0-33.0","4","[""img/0883/daaa1a6f-c322-46f6-b6a6-db2c9496d710.jpg"",""img/0958/7168f8d3-e3ae-405a-93d0-64836d899932.jpg""]","",""
"","2563","similarity","40","551271","0.0-6.0-34.0","4","[""img/0864/b3c4e378-28f0-4699-9338-2a257b4bca04.jpg"",""img/0756/b6e235f7-211b-4a2b-a7b8-393e5ec7351b.jpg""]","",""
"","5457","similarity","41","557746","0.0-6.0-35.0","4","[""img/0874/31e22c7c-99aa-40b1-bf03-dd73fa2df4d6.jpg"",""img/0758/d57c2592-a317-4f63-91be-91a3a9afd222.jpg""]","",""
"","2438","similarity","42","561204","0.0-6.0-36.0","4","[""img/0886/625c7dfa-3fa1-4166-80f0-229eb416b04f.jpg"",""img/0862/ad593cc7-cabe-4bb7-8e14-8a447a0717b4.jpg""]","",""
"","2214","similarity","43","564426","0.0-6.0-37.0","4","[""img/0862/e697469a-ec19-4414-b972-7b9f3564785b.jpg"",""img/0885/c840cf2c-c95d-4a08-b3c2-044d1ea946a7.jpg""]","",""
"","3522","similarity","44","568962","0.0-6.0-38.0","4","[""img/0758/53f35650-e455-4b53-8be4-c3c8271c6466.jpg"",""img/0864/c22faebd-9c53-47bc-ada3-b9a30c688e75.jpg""]","",""
"","13164","similarity","45","583147","0.0-6.0-39.0","7","[""img/0873/c2a7452d-a271-4207-81ce-bda281dc0297.jpg"",""img/0867/f26f6b60-f772-4f4c-95a4-addc62cfd692.jpg""]","",""
"","4207","similarity","46","588372","0.0-6.0-40.0","4","[""img/0958/58b7811e-d3f6-4e4d-befb-86e063d13a43.jpg"",""img/0884/ee845634-cd54-4c06-95a9-962122ef8712.jpg""]","",""
"","7624","similarity","47","611666","0.0-6.0-41.0","7","[""img/0873/c91c05f8-fafd-4054-bcf1-f5ed1f0a18e8.jpg"",""img/0873/1d1be182-3bb2-4efd-8543-d70b8db7beef.jpg""]","",""
"","4117","similarity","48","616798","0.0-6.0-42.0","4","[""img/0886/abd8dd83-d8ee-4003-b4d2-b4045220a578.jpg"",""img/0758/65d426d6-3ff6-415d-8654-a43b83ecc4fe.jpg""]","",""
"","3945","similarity","49","621754","0.0-6.0-43.0","4","[""img/0883/c6db9b70-f16c-47ee-a408-c9278365ae54.jpg"",""img/0874/3ce41e7c-40c8-4d58-a546-171114521796.jpg""]","",""
"","4463","similarity","50","627234","0.0-6.0-44.0","4","[""img/0881/7e822106-76f7-4b10-a805-14dc68b2cfaf.jpg"",""img/0873/0d9b4403-7f26-46dc-b0b7-2b97b0a91b46.jpg""]","",""
"","6227","similarity","51","634474","0.0-6.0-45.0","4","[""img/0867/1719a35d-f085-48c0-9099-16c94fe418b4.jpg"",""img/0757/c190d19b-2091-436c-a92b-a48c253ac955.jpg""]","",""
"","4771","similarity","52","640259","0.0-6.0-46.0","4","[""img/0866/07c9c966-3c8d-40e7-8128-92b2acbaed5d.jpg"",""img/0874/85eb9b8a-c4c6-4e5a-b8e7-363a87a82054.jpg""]","",""
"","6681","similarity","53","647954","0.0-6.0-47.0","7","[""img/0886/4d28f75a-a9c3-49dd-8aa8-00304af6e40b.jpg"",""img/0886/789f5d23-84b8-499a-ae1e-20c6309a06ae.jpg""]","",""
"","3967","similarity","54","652930","0.0-6.0-48.0","4","[""img/0883/46d6b8ad-7f31-441e-92d2-0cc16d3d99ce.jpg"",""img/0860/f44ba3fb-03a2-42f0-8509-2c1ded493086.jpg""]","",""
"","3878","similarity","55","657818","0.0-6.0-49.0","4","[""img/0860/c7047cd2-7cc1-41b6-8a34-c0986774975f.jpg"",""img/0756/314a157e-e6d3-4447-a98f-8fde8f810f0c.jpg""]","",""
"","2757","similarity","56","661578","0.0-6.0-50.0","4","[""img/0860/61fb959d-d4d9-4de4-9e4e-4fa62b4cfcd5.jpg"",""img/0757/89ce15d5-a3da-4a62-ac9f-c28a9273bf33.jpg""]","",""
"","6997","similarity","57","669582","0.0-6.0-51.0","7","[""img/0756/b7869208-7169-455d-835f-31926317dd95.jpg"",""img/0756/b5b6c1ba-df7c-4bac-94ac-786f45dbb140.jpg""]","",""
"","4532","similarity","58","675139","0.0-6.0-52.0","4","[""img/0875/2c361b79-c3d1-4eda-812e-bf03192407bf.jpg"",""img/0866/be24ab58-230e-4db8-9f45-ff04c9aec6bb.jpg""]","",""
"","2178","similarity","59","678339","0.0-6.0-53.0","4","[""img/0756/350ac166-1deb-4399-89db-da6a7e827c4d.jpg"",""img/0758/2fa3e613-e676-4e6e-bd12-705327eeb3e1.jpg""]","",""
"","4335","similarity","60","683691","0.0-6.0-54.0","4","[""img/0761/d5370a68-6c8a-486f-b2bf-330e2ad6b397.jpg"",""img/0884/a416b0d1-f903-4935-b89f-99c29683752b.jpg""]","",""
"","2625","similarity","61","687330","0.0-6.0-55.0","4","[""img/0760/dddcdfaf-2d02-4de9-a176-5705d0004b5a.jpg"",""img/0867/5e07b34d-b40f-4b1c-ac10-49975bace45f.jpg""]","",""
"","4458","similarity","62","692797","0.0-6.0-56.0","4","[""img/0866/d493a2c8-66eb-44b4-be02-2f327b700b7c.jpg"",""img/0884/d9185264-7f01-43b2-be7f-eed1a0f0f2e8.jpg""]","",""
"","3340","similarity","63","697155","0.0-6.0-57.0","4","[""img/0756/aa551726-e765-4729-82aa-99d700d388ae.jpg"",""img/0761/6b42b402-9e0f-4179-9e10-660b2c07626b.jpg""]","",""
"","2316","similarity","64","700482","0.0-6.0-58.0","4","[""img/0867/de92135f-5b65-4ed9-b245-188292c7c2f8.jpg"",""img/0860/4a022222-056d-461c-ab02-39fac9647552.jpg""]","",""
"","8545","similarity","65","710034","0.0-6.0-59.0","5","[""img/0881/b549bc99-a61c-4450-bab5-9efc3a197bf0.jpg"",""img/0758/335851a0-a55b-46d8-ab05-8463eda48349.jpg""]","",""
"","4909","similarity","66","715962","0.0-6.0-60.0","4","[""img/0761/07f8178b-8ce5-42d6-bca0-a0ae0e0e8eb3.jpg"",""img/0758/7ee8bc8f-c40b-4b3a-84ec-3e83580622d4.jpg""]","",""
"","4462","similarity","67","721442","0.0-6.0-61.0","4","[""img/0958/e9e2cc42-eb3b-4c91-8112-a517305c15f0.jpg"",""img/0875/fb732ab5-013a-4366-9f65-27811ed157e9.jpg""]","",""
"","5193","similarity","68","727650","0.0-6.0-62.0","4","[""img/0886/48077111-b86b-4612-910f-90a5d168d77f.jpg"",""img/0864/c3b63e8f-ea39-4d70-a1f2-b3fe4be8eb75.jpg""]","",""
"","2096","similarity","69","730764","0.0-6.0-63.0","4","[""img/0756/04655068-a9fc-49d9-b2f4-21e4d42b7903.jpg"",""img/0874/2c9464dd-8a23-4baa-ac94-1ba3af5c15cc.jpg""]","",""
"","2498","similarity","70","734267","0.0-6.0-64.0","4","[""img/0758/6e95579b-5166-487c-b8cb-e417c6a218e3.jpg"",""img/0885/21b241a1-95da-4306-9cf2-cc52a784214a.jpg""]","",""
"","3552","similarity","71","738869","0.0-6.0-65.0","4","[""img/0760/a97cc3a7-3e6e-423e-ac87-e1d1ab280ae9.jpg"",""img/0958/ba5ed153-96de-4f61-b7d9-87a478c8972c.jpg""]","",""
"","4701","similarity","72","744586","0.0-6.0-66.0","4","[""img/0884/9b1b7885-1502-448f-9b20-ddc19aa5456f.jpg"",""img/0881/566f45f8-5fed-4479-a60f-26377e60a62d.jpg""]","",""
"","2268","similarity","73","747874","0.0-6.0-67.0","4","[""img/0864/49150900-7f25-4ce8-8d10-9b47a71d1997.jpg"",""img/0873/d39b1731-1669-4c96-b5c6-682b30e287ee.jpg""]","",""
"","5328","similarity","74","754211","0.0-6.0-68.0","4","[""img/0862/00c06b00-3b73-44e9-bc1e-c5aafb438321.jpg"",""img/0758/a709631e-3705-4725-ac40-f0d916924f08.jpg""]","",""
"","8385","similarity","75","763602","0.0-6.0-69.0","6","[""img/0757/ec40956b-ed8b-4970-b87f-9b7c25cd5be6.jpg"",""img/0757/efa4466e-2951-4af9-b321-85458a89c2a7.jpg""]","",""
"","5355","similarity","76","769962","0.0-6.0-70.0","5","[""img/0860/99c589b9-9140-4d17-90c0-b344323edcda.jpg"",""img/0862/99a99e39-8355-44ec-b993-e7bcec111e1c.jpg""]","",""
"","4094","similarity","77","775066","0.0-6.0-71.0","4","[""img/0860/5bff793e-cbd5-4d7e-b628-0ac2b0e30b64.jpg"",""img/0884/10c0a35b-e20a-4d75-a7c0-959a578d9ebf.jpg""]","",""
"","2825","similarity","78","778897","0.0-6.0-72.0","4","[""img/0883/5716bfb3-e86c-42fe-8afa-58d226cb1aaa.jpg"",""img/0866/4a87911a-d5be-4d4e-ab8e-3d1f581bf507.jpg""]","",""
"","4500","similarity","79","784410","0.0-6.0-73.0","4","[""img/0866/23a224f3-2012-4fc8-8e0f-3c36f8de27fd.jpg"",""img/0886/1870a791-dfee-471e-8417-197d4a53c75a.jpg""]","",""
"","4168","similarity","80","789586","0.0-6.0-74.0","4","[""img/0958/1812c506-727b-43a7-882e-4729742e41fc.jpg"",""img/0761/9199a691-d36e-4ece-a815-078384ea6f06.jpg""]","",""
"","2949","similarity","81","793546","0.0-6.0-75.0","4","[""img/0875/d59ff733-eaff-4ee2-9443-06954dd0bcb6.jpg"",""img/0756/c211414a-203e-4a7f-9412-5abddea2af11.jpg""]","",""
"","2881","similarity","82","797441","0.0-6.0-76.0","4","[""img/0958/ef1b718f-ef8c-497f-80d7-42562aebf1a7.jpg"",""img/0885/6873c613-5e40-42ff-a5b6-443b6b626ae2.jpg""]","",""
"","3447","similarity","83","801906","0.0-6.0-77.0","4","[""img/0868/c8ac40c7-6904-4e13-8d61-c75d3052dc4e.jpg"",""img/0883/68a56098-91b8-4c40-8827-7808704aa1bc.jpg""]","",""
"","2969","similarity","84","805889","0.0-6.0-78.0","4","[""img/0862/1c20f772-3a51-4a80-aac0-f57dc9f86c28.jpg"",""img/0760/afe7a178-4458-4bdd-a0ad-0cffc57eadc3.jpg""]","",""
"","2704","similarity","85","809601","0.0-6.0-79.0","4","[""img/0885/8960bf05-34df-4a86-a9b2-6087c70e61d3.jpg"",""img/0761/e18d2113-1ed1-4a80-8171-4be5ee28d343.jpg""]","",""
"","3567","similarity","86","814177","0.0-6.0-80.0","4","[""img/0862/e8cc3bdf-cc43-4565-bccf-492626c70953.jpg"",""img/0864/da39ad34-04e0-40d4-a724-c08d53e0ea09.jpg""]","",""
"","5979","similarity","87","821161","0.0-6.0-81.0","7","[""img/0758/b76ceca7-95ac-46e4-ac13-da02c8e93be9.jpg"",""img/0758/caa93da2-9edf-49fa-96b9-32dedd8f5078.jpg""]","",""
"","3971","similarity","88","826145","0.0-6.0-82.0","4","[""img/0862/f23038d4-c366-4f70-979f-66b62362efa4.jpg"",""img/0873/0c7f3d86-efda-4809-aac4-256ba01e0536.jpg""]","",""
"","3798","similarity","89","837409","0.0-6.0-83.0","4","[""img/0760/868ae139-99b5-4ff2-9d19-c4933af135e4.jpg"",""img/0757/6ecf2f24-3286-49d6-b5ed-bb2da660c588.jpg""]","",""
"","4181","similarity","90","842609","0.0-6.0-84.0","4","[""img/0867/a749dddb-69f0-44a6-acdc-2bf295cf6dcc.jpg"",""img/0881/6b1189e6-232d-4042-8885-16dc7b10e0d4.jpg""]","",""
"","2253","similarity","91","845873","0.0-6.0-85.0","4","[""img/0885/05af267f-b982-498d-9807-ccd54689f9b4.jpg"",""img/0886/9f186bd5-d48b-4cc2-9206-be67c392faa9.jpg""]","",""
"","3080","similarity","92","849960","0.0-6.0-86.0","4","[""img/0866/c446214b-a368-4c65-ae39-ea46894256ab.jpg"",""img/0864/4bd81bc6-c13d-46df-95a9-485886dc7c1b.jpg""]","",""
"","7354","similarity","93","858324","0.0-6.0-87.0","6","[""img/0874/3f471690-9788-4d03-90c7-f615aecef149.jpg"",""img/0881/62a64f90-7a72-4aee-a1a1-0c548ac9bdda.jpg""]","",""
"","3703","similarity","94","863033","0.0-6.0-88.0","4","[""img/0866/620cd1aa-0800-4414-8f6e-90342e7a99ad.jpg"",""img/0760/c7d43bfd-465f-4f4e-8dc1-ae4cd3d2c1de.jpg""]","",""
"","3024","similarity","95","867065","0.0-6.0-89.0","4","[""img/0867/075e0f95-856b-4cbb-acf5-092393aaf04e.jpg"",""img/0884/989ec8e3-5e41-4055-b0b5-3d65b9c44917.jpg""]","",""
"","1749","similarity","96","869834","0.0-6.0-90.0","4","[""img/0757/1aca59fd-6030-4bb0-93c7-32a90f3237cf.jpg"",""img/0862/de9ad88c-b522-430a-8ee9-eb06a9f85df5.jpg""]","",""
"","2079","similarity","97","872922","0.0-6.0-91.0","4","[""img/0867/bf560d4f-dee3-4f11-a385-705cc1aa5f3c.jpg"",""img/0761/a69897c1-1310-4bae-9a51-8b29cd9543dd.jpg""]","",""
"","2789","similarity","98","876796","0.0-6.0-92.0","4","[""img/0868/8b0b8473-e2c0-4331-aa56-c3a5c29369da.jpg"",""img/0958/d3775867-a8f6-42ba-86ff-f86e85edba90.jpg""]","",""
"","9391","similarity","99","887208","0.0-6.0-93.0","6","[""img/0874/adf9a8f1-c40b-402b-b95b-1e85a54a7b62.jpg"",""img/0864/0f537697-a314-47c3-a8cc-8df23b7e536c.jpg""]","",""
"","3563","similarity","100","891783","0.0-6.0-94.0","4","[""img/0760/ed469d78-34af-4ea9-a969-05ea527438a2.jpg"",""img/0873/b509aa81-b1d7-4d50-8aef-9c7b725c3157.jpg""]","",""
"","2996","similarity","101","895793","0.0-6.0-95.0","4","[""img/0868/1a62b2b2-18f5-466e-b564-5176a57c565e.jpg"",""img/0873/6110910a-7895-4b6a-af51-12486a4595a3.jpg""]","",""
"","2992","similarity","102","899792","0.0-6.0-96.0","4","[""img/0860/b03b963d-949b-4d8d-b19c-4950c89eeca2.jpg"",""img/0761/176fde97-0334-4d2b-8a7a-38960c2528f3.jpg""]","",""
"","3110","similarity","103","903921","0.0-6.0-97.0","4","[""img/0862/eefa5588-9efd-4591-aa5f-a2e17c7d7bcc.jpg"",""img/0883/6884954b-873e-4d6f-9b4b-95d158e0de6c.jpg""]","",""
"","2986","similarity","104","907912","0.0-6.0-98.0","4","[""img/0757/c05f53f3-811c-4a3b-b848-a27b80b8fd53.jpg"",""img/0884/ffcce05a-b38d-4570-b3dc-751e89b7790a.jpg""]","",""
"","2876","similarity","105","911797","0.0-6.0-99.0","4","[""img/0867/f8159067-056c-41f1-a136-c529fe5e970a.jpg"",""img/0756/fd9b5e61-3674-448f-867a-29769dc8f07d.jpg""]","",""
"","4579","similarity","106","917384","0.0-6.0-100.0","4","[""img/0958/acbadc39-e665-446d-b98f-ccd0ef3223d6.jpg"",""img/0756/4cf0ac20-ce60-40ba-8078-4053ef50451c.jpg""]","",""
"","3858","similarity","107","922248","0.0-6.0-101.0","4","[""img/0760/191d8576-9ed7-4798-a486-66a7fd600e58.jpg"",""img/0760/fc99ba9e-e7fa-443b-9ba0-2b3c76930893.jpg""]","",""
"","7421","similarity","108","930681","0.0-6.0-102.0","5","[""img/0873/33552b07-bdb8-423e-88b4-25a37f159c6d.jpg"",""img/0875/34132396-d896-4c2d-8087-646dd867e769.jpg""]","",""
"","6513","similarity","109","938208","0.0-6.0-103.0","7","[""img/0884/05d9bfb9-44a6-4ab4-92fa-d17e5b2b4f33.jpg"",""img/0884/baabff07-71d8-424e-ac29-644768380941.jpg""]","",""
"","2943","similarity","110","942160","0.0-6.0-104.0","4","[""img/0873/e5374873-a1a7-4689-a04c-a3b959992244.jpg"",""img/0885/fbbfaacd-e49b-4d37-a2f9-fcaffa58f26f.jpg""]","",""
"","4708","similarity","111","947872","0.0-6.0-105.0","4","[""img/0883/903939ef-a67c-40d3-841d-52555815cd88.jpg"",""img/0875/5a7c4e35-6514-4e12-8879-d16071da4cd6.jpg""]","",""
"","1999","similarity","112","950888","0.0-6.0-106.0","4","[""img/0864/e02eddb5-f468-499c-91bf-f7be3ffe979b.jpg"",""img/0867/db7e032f-162b-46f5-ae67-2b29679adee4.jpg""]","",""
"","2097","similarity","113","953996","0.0-6.0-107.0","4","[""img/0958/ebea41e3-9d65-4f5e-981a-92daaaad0d57.jpg"",""img/0860/e8b8c51e-1834-4875-8b61-6c5bc9b178bd.jpg""]","",""
"","2106","similarity","114","957111","0.0-6.0-108.0","4","[""img/0885/fce9f22a-f769-477c-acee-a5ad8214f0a5.jpg"",""img/0756/2d59e6c9-df29-4c76-a030-db83f23c8b9b.jpg""]","",""
"","2282","similarity","115","960407","0.0-6.0-109.0","4","[""img/0883/3b1366c6-7baa-4ad2-889c-1ff9c3b379c9.jpg"",""img/0885/d2276b26-e91a-4f19-a818-cbeb297ed884.jpg""]","",""
"","11248","similarity","116","972663","0.0-6.0-110.0","4","[""img/0867/aa05d113-fc19-4756-a8eb-7878f580bc92.jpg"",""img/0867/26611f4e-d694-4460-b7e2-43c62753ddc3.jpg""]","",""
"","7297","similarity","117","980979","0.0-6.0-111.0","6","[""img/0881/20af39f5-373d-4a55-a437-2dc4c0382c46.jpg"",""img/0760/fe62dd62-331c-4317-8af2-f1c816871fee.jpg""]","",""
"","2260","similarity","118","984273","0.0-6.0-112.0","4","[""img/0881/292e9b4b-fca0-4ba8-87f1-4048f9e37b7d.jpg"",""img/0868/4e626425-63c8-484a-8a1d-e66ee4e0bef8.jpg""]","",""
"","1592","similarity","119","986891","0.0-6.0-113.0","4","[""img/0875/ebf7653f-ff45-4e9f-af58-2c042ab3cd2b.jpg"",""img/0761/53a65b48-8b0c-4a1d-9ebb-a27a259c5bc6.jpg""]","",""
"","3684","similarity","120","991593","0.0-6.0-114.0","4","[""img/0756/653c7580-fa90-45bb-828a-eb9d05a6b1c7.jpg"",""img/0866/93a27239-8317-4e08-98ca-d8b1ff298e07.jpg""]","",""
"","1830","similarity","121","994433","0.0-6.0-115.0","4","[""img/0884/3613aeb4-0028-4205-aea0-1ea28cb1f80e.jpg"",""img/0886/42cccc64-05f9-4afd-bc93-496ba50a4342.jpg""]","",""
"","4040","similarity","122","999481","0.0-6.0-116.0","4","[""img/0756/09fde3d3-27c5-435e-b68f-5410beb04e99.jpg"",""img/0881/667e2147-d457-4f32-aa5f-6ab86e5848f1.jpg""]","",""
"","2409","similarity","123","1002904","0.0-6.0-117.0","4","[""img/0760/dfa71fdd-ddff-4827-a999-d5e599dd5679.jpg"",""img/0875/a4935837-7d3c-4df6-88c1-36a94d4991ca.jpg""]","",""
"","3327","similarity","124","1007241","0.0-6.0-118.0","4","[""img/0958/6e602e13-8029-4642-bce0-8deffd0dc686.jpg"",""img/0866/11a1d141-be5e-443c-98c1-a9d4d9e3dec0.jpg""]","",""
"","2264","similarity","125","1010512","0.0-6.0-119.0","4","[""img/0867/7d1c497b-c1b3-4ed8-abb5-d7f73306015f.jpg"",""img/0874/99f6563c-8a8d-4c1c-a41d-667b618c3fd5.jpg""]","",""
"","2620","similarity","126","1014144","0.0-6.0-120.0","4","[""img/0883/b5e903b5-bc7f-421c-bf3e-245779ac90c9.jpg"",""img/0757/8993d166-c8ae-43f6-b269-9e8bd3379d57.jpg""]","",""
"","3544","similarity","127","1018704","0.0-6.0-121.0","4","[""img/0874/ca76a855-4e77-4f2f-872a-0a718153e7ed.jpg"",""img/0886/d1e40478-2fe0-404f-8409-920da98a96a2.jpg""]","",""
"","5854","similarity","128","1025568","0.0-6.0-122.0","4","[""img/0873/90b702a6-3dba-446a-9bba-a2ee096baf49.jpg"",""img/0761/47960f80-42b7-4397-a852-ec55d716c652.jpg""]","",""
"","6759","similarity","129","1033337","0.0-6.0-123.0","5","[""img/0875/5a716432-c6ca-4b1c-955a-2b8ac25198ee.jpg"",""img/0884/fb8b0101-bfd2-462b-a942-d3202a69dd18.jpg""]","",""
"","2701","similarity","130","1037048","0.0-6.0-124.0","4","[""img/0757/94c7f207-1115-4451-b22b-1f74b3661208.jpg"",""img/0868/77091fc7-a590-4ebb-b915-fdb2483a2399.jpg""]","",""
"","3525","similarity","131","1053568","0.0-6.0-125.0","4","[""img/0886/e5903946-897c-4420-87c0-afee4100305c.jpg"",""img/0883/724f020e-39d9-495c-abe1-b2e4504be9bc.jpg""]","",""
"","4441","similarity","132","1059025","0.0-6.0-126.0","4","[""img/0868/15dd6fd7-791e-4b53-b203-195d617521a4.jpg"",""img/0760/e697857f-b21d-4c49-8cde-1b803b437311.jpg""]","",""
"","6632","similarity","133","1066672","0.0-6.0-127.0","7","[""img/0881/b1a136f7-8511-4d3a-a0f6-3879acf1e1a1.jpg"",""img/0881/d373cb9f-a719-4549-a2a4-82def79fb2a5.jpg""]","",""
"","2612","similarity","134","1070295","0.0-6.0-128.0","4","[""img/0760/c76e8a36-1537-42e0-9779-13c2b6a89725.jpg"",""img/0860/87039971-2210-4aab-93c0-8e9b5f1655b2.jpg""]","",""
"","1904","similarity","135","1073208","0.0-6.0-129.0","4","[""img/0864/5f74a653-3bdc-4308-8cca-ac667dc22e1f.jpg"",""img/0885/89d8c48b-8bde-42ed-ae71-de669b15ea34.jpg""]","",""
"","1899","similarity","136","1076120","0.0-6.0-130.0","4","[""img/0864/5f33e097-23e3-4002-882d-76e8cb15f451.jpg"",""img/0757/69d850ce-9828-4b13-9e68-6a2c196ecbcc.jpg""]","",""
"","3583","similarity","137","1080720","0.0-6.0-131.0","4","[""img/0760/812c848f-be21-4059-abe5-8c4f4ac9ad0f.jpg"",""img/0883/387a9e30-7d95-483e-af34-c8262f62385f.jpg""]","",""
"","5468","similarity","138","1087207","0.0-6.0-132.0","7","[""img/0885/1e66fe61-15d5-42b1-86aa-dbfd13613f5c.jpg"",""img/0885/ef0386f3-e5d4-481b-8894-60b80e08bbe8.jpg""]","",""
"","3034","similarity","139","1091247","0.0-6.0-133.0","4","[""img/0860/29a21a9f-54bb-4093-ad3f-04823ceaa89f.jpg"",""img/0868/0d3abd3a-b6c3-4584-a9f7-e2da63748b3d.jpg""]","",""
"","2353","similarity","140","1094608","0.0-6.0-134.0","4","[""img/0867/ac1797e4-8afc-48fe-b252-86d1defb1cca.jpg"",""img/0886/aef00ed5-e288-47bf-b31e-512d7e762ea2.jpg""]","",""
"","3455","similarity","141","1099079","0.0-6.0-135.0","4","[""img/0756/403d0540-b812-446f-bb5a-e8030be0a02f.jpg"",""img/0886/bd45b474-5559-4ea5-83ff-140bce19f5fa.jpg""]","",""
"","2618","similarity","142","1102704","0.0-6.0-136.0","4","[""img/0884/13db1f36-8c9f-4b28-8426-04eaa9fba737.jpg"",""img/0868/293079b8-7e0c-4afd-a390-1e5d35fe3ded.jpg""]","",""
"","6368","similarity","143","1110088","0.0-6.0-137.0","7","[""img/0958/822de3b9-e5fd-4b74-aeb1-7c40805b0717.jpg"",""img/0958/fd950403-e452-4018-8207-a9714addcd75.jpg""]","",""
"","6284","similarity","144","1117383","0.0-6.0-138.0","5","[""img/0886/1e8c0f89-c766-41c9-b522-83c342048f34.jpg"",""img/0873/87f38f18-48a2-4de3-b24b-70630e8b6ca0.jpg""]","",""
"","2455","similarity","145","1120855","0.0-6.0-139.0","4","[""img/0758/7ffbc76b-1fc1-432c-8f7e-9ec8d1b3f643.jpg"",""img/0873/c3ff3b70-fb22-42f2-883c-3ecffd77cb4b.jpg""]","",""
"","3441","similarity","146","1125303","0.0-6.0-140.0","4","[""img/0873/b1e2e09f-ad9a-433e-818f-56dd2f1cb09c.jpg"",""img/0756/8f917ff3-2930-4f81-812b-19555fe71261.jpg""]","",""
"","2585","similarity","147","1128895","0.0-6.0-141.0","4","[""img/0868/fd307a36-9a3a-47d7-ab7c-f810d0b35040.jpg"",""img/0862/92f0146c-20c4-482e-aef5-adb693790338.jpg""]","",""
"","3882","similarity","148","1133793","0.0-6.0-142.0","4","[""img/0881/f8bd891e-aa09-4782-89db-33e7cb2b0cf1.jpg"",""img/0862/e0f1a4e9-e1b6-45f7-af67-89f334e6630d.jpg""]","",""
"","3453","similarity","149","1138264","0.0-6.0-143.0","4","[""img/0885/1cd940ef-9720-4a04-8fa1-1dd3a39ecdd6.jpg"",""img/0867/cc72ed48-7704-422c-86d6-467a1145287a.jpg""]","",""
"","7590","similarity","150","1146863","0.0-6.0-144.0","6","[""img/0883/142a783e-a468-4b7f-a750-1e107613d5a9.jpg"",""img/0883/cc3df660-426e-452e-ac50-3a3b09dc4b65.jpg""]","",""
"","4437","similarity","151","1152318","0.0-6.0-145.0","4","[""img/0874/eba003b4-cdab-4eee-8bc3-f064c7d94165.jpg"",""img/0873/ac86dbfd-0442-4dec-9d10-37d7093f5a52.jpg""]","",""
"","1733","similarity","152","1155063","0.0-6.0-146.0","4","[""img/0757/20c59f64-1fc2-448d-8423-42cbd8fe0164.jpg"",""img/0758/d540bee6-b460-4c32-ac57-bc282742d7d4.jpg""]","",""
"","1922","similarity","153","1157994","0.0-6.0-147.0","4","[""img/0883/3835edeb-1d59-4781-b10f-c26b9eaf6fd1.jpg"",""img/0756/85a63773-50ff-441d-b259-1e335100a9d0.jpg""]","",""
"","9273","similarity","154","1168280","0.0-6.0-148.0","6","[""img/0867/6e19c858-b606-45b2-a4c6-910a73f1d82c.jpg"",""img/0866/a04d37f0-99dd-478a-b6c6-58b215138f84.jpg""]","",""
"","3553","similarity","155","1172839","0.0-6.0-149.0","4","[""img/0758/821c68d3-5cb0-4eae-8659-30e6263fca39.jpg"",""img/0760/32bea725-69a2-4c9a-94d9-af05883fbb86.jpg""]","",""
"","5790","similarity","156","1179646","0.0-6.0-150.0","4","[""img/0757/86df581e-81a2-4205-95e3-1ea87cea1f36.jpg"",""img/0761/aebad236-1f4a-4bc2-a74d-d92b7e226316.jpg""]","",""
"","4068","similarity","157","1184728","0.0-6.0-151.0","4","[""img/0761/5ed865c0-8bfb-4310-9b47-690b3e450ca2.jpg"",""img/0874/a3bc679d-619f-4db6-bb68-116dcb757d9c.jpg""]","",""
"","4774","similarity","158","1190518","0.0-6.0-152.0","4","[""img/0761/8e379ec1-757d-4427-a0ff-d4efdd6a50c4.jpg"",""img/0760/237fa1c2-d59d-4475-8d1e-f9a4eb71f989.jpg""]","",""
"","5715","similarity","159","1197249","0.0-6.0-153.0","7","[""img/0866/02f5e6b9-52b7-448c-9708-5b460d0c9a23.jpg"",""img/0866/6f2a90d7-14f1-4f1b-bd64-fc0af6b9fe44.jpg""]","",""
"","5128","similarity","160","1203382","0.0-6.0-154.0","4","[""img/0866/386235d2-6857-41e7-88a8-25cfc3430025.jpg"",""img/0862/a0a3a7ba-7798-46a3-b4ca-05e1f6e581d0.jpg""]","",""
"","1694","similarity","161","1206094","0.0-6.0-155.0","4","[""img/0756/de72dcee-8bbb-43d1-a744-9c074b9122ee.jpg"",""img/0862/ba89835a-408c-480b-8594-ed4ffa97eb5c.jpg""]","",""
"","2083","similarity","162","1209182","0.0-6.0-156.0","4","[""img/0860/c5ccd1a4-4bb7-48e1-9b25-72cfaf06909b.jpg"",""img/0866/0207e9a2-7dbb-40b5-9459-b472aaeceb2a.jpg""]","",""
"","3545","similarity","163","1213735","0.0-6.0-157.0","4","[""img/0862/f43ceabf-acc1-4107-b857-5d1849808f93.jpg"",""img/0958/4e2ca4bc-52c7-4c27-9610-776441231e42.jpg""]","",""
"","2815","similarity","164","1217558","0.0-6.0-158.0","4","[""img/0761/ff3e024b-951d-4aca-a168-c09c6507525d.jpg"",""img/0868/3a62db2d-97e9-44a3-b8e3-a48c6f0e423b.jpg""]","",""
"","2449","similarity","165","1221014","0.0-6.0-159.0","4","[""img/0761/014e76d0-fb4e-4b40-901c-7a2d5655c3b0.jpg"",""img/0886/9ac18ff1-d3d9-4bfe-aa2e-ed5b28399f6c.jpg""]","",""
"","2240","similarity","166","1224270","0.0-6.0-160.0","4","[""img/0874/8cdb1c07-1c32-46d2-981c-3636560fa6e5.jpg"",""img/0868/09a9ef4d-d000-4cfa-a6aa-ebec7c2edeb4.jpg""]","",""
"","2340","similarity","167","1227614","0.0-6.0-161.0","4","[""img/0860/8fdba999-b946-4c7d-9891-336018b563ef.jpg"",""img/0874/1016b306-087c-4afc-aa08-fa527b28dc76.jpg""]","",""
"","2931","similarity","168","1231558","0.0-6.0-162.0","4","[""img/0883/e7e4af6a-bc7a-4a9b-921c-32652db13239.jpg"",""img/0867/85a96c62-548f-4994-9553-819e03c3135a.jpg""]","",""
"","7071","similarity","169","1239646","0.0-6.0-163.0","6","[""img/0758/e38fd80d-18d0-42f3-b848-f930788e8bd7.jpg"",""img/0958/644719ec-1690-4af2-a63f-0b6467c3791e.jpg""]","",""
"","3918","similarity","170","1244574","0.0-6.0-164.0","4","[""img/0873/b02f9cce-7f58-4f1b-baed-50fee9f0a21f.jpg"",""img/0757/4f8ae92b-a4ab-4020-b4fb-80c5615e76ac.jpg""]","",""
"","5227","similarity","171","1250813","0.0-6.0-165.0","4","[""img/0873/ec150e40-b3ec-4dfe-ab38-bb3f248a1175.jpg"",""img/0866/8efcaa46-83ab-4dee-a35f-850402aa21ae.jpg""]","",""
"","6453","similarity","172","1258277","0.0-6.0-166.0","7","[""img/0875/dbdd643e-6d0e-4a5c-ab57-b9c29b9c981a.jpg"",""img/0867/8ba0c5a7-c7e4-42cf-a80a-543763b90779.jpg""]","",""
"","7396","similarity","173","1276229","0.0-6.0-167.0","6","[""img/0862/7918ca67-5bd3-4606-a5ea-c39fb11a9297.jpg"",""img/0862/fad1d7c1-8187-43c3-942a-0fc12183e48e.jpg""]","",""
"","3112","similarity","174","1280349","0.0-6.0-168.0","4","[""img/0875/8521fd58-3b1e-4dc5-97ae-804edfa6734a.jpg"",""img/0886/9b0bffbe-9237-404d-a0ba-a1982e0814c7.jpg""]","",""
"","2105","similarity","175","1283461","0.0-6.0-169.0","4","[""img/0885/0cdcdaca-f91e-4d4a-a6f6-dc90ab676435.jpg"",""img/0875/2e13d160-eea1-416b-aff1-d37ab99ecc1d.jpg""]","",""
"","2939","similarity","176","1287413","0.0-6.0-170.0","4","[""img/0862/92fcd8a4-8193-4a6a-ae09-dd4a6338b0df.jpg"",""img/0867/a498eef3-9fa4-4ab2-9778-4ae82ac40dc5.jpg""]","",""
"","3562","similarity","177","1291993","0.0-6.0-171.0","4","[""img/0884/3c61ea12-a408-47ce-98aa-b14e0f6d4591.jpg"",""img/0873/d74e4aa9-420d-48a3-a42f-30a3481536ae.jpg""]","",""
"","2248","similarity","178","1295263","0.0-6.0-172.0","4","[""img/0873/c4b47588-9c66-4401-aefc-cf9481d5fa85.jpg"",""img/0958/d4138705-0a9d-4141-9af9-205e69367c44.jpg""]","",""
"","2034","similarity","179","1298313","0.0-6.0-173.0","4","[""img/0868/4bd5105a-d2c3-4f82-8c80-57196106ba53.jpg"",""img/0758/a085b443-b5d7-4cb2-9ad4-b9dab0fc23f1.jpg""]","",""
"","4413","similarity","180","1303743","0.0-6.0-174.0","4","[""img/0757/acda7aee-6b29-463f-bf01-0d64d6a6ae2b.jpg"",""img/0874/767f289c-9814-4496-803f-745cc8913d1f.jpg""]","",""
"","2304","similarity","181","1307062","0.0-6.0-175.0","4","[""img/0958/86d1a76d-f067-4e36-9ab5-13da78c97c0e.jpg"",""img/0867/c66898ba-b71b-4d50-84f9-f7f84853a98d.jpg""]","",""
"","3149","similarity","182","1311231","0.0-6.0-176.0","4","[""img/0874/c0378dac-9370-439a-8b79-db27c96fb390.jpg"",""img/0760/39d75e1e-0645-4f23-a2ca-3bbefac19d69.jpg""]","",""
"","1672","similarity","183","1313918","0.0-6.0-177.0","4","[""img/0873/a234d5d1-09ea-4594-9a0f-d569da31dbdb.jpg"",""img/0860/31ff6436-98bf-4652-bed2-40f627229568.jpg""]","",""
"","2157","similarity","184","1317086","0.0-6.0-178.0","4","[""img/0881/344de456-b358-4887-bd0e-e4c3278af887.jpg"",""img/0883/eff15ce5-9393-443c-829f-71242d1c56d0.jpg""]","",""
"","7424","similarity","185","1325518","0.0-6.0-179.0","5","[""img/0886/b8648eb5-de71-41ab-825d-848e51be8c1b.jpg"",""img/0958/96f89270-febc-4f09-b8c3-53a249ff00ea.jpg""]","",""
"","7024","similarity","186","1333558","0.0-6.0-180.0","6","[""img/0864/f92649a2-0590-4d31-9a7a-1bfb81666a2d.jpg"",""img/0883/ab9b6977-0cdc-47a2-b180-494a5be181b2.jpg""]","",""
"","2299","similarity","187","1336870","0.0-6.0-181.0","4","[""img/0756/d0f1b906-d8e0-4528-9d08-90cec14838ec.jpg"",""img/0868/4a8a45ed-2c4f-421b-9564-409a33ecd26c.jpg""]","",""
"","5008","similarity","188","1342886","0.0-6.0-182.0","4","[""img/0884/2348ce3f-5d2a-4a04-85ef-a65f05caa935.jpg"",""img/0758/dd559618-7f09-4a07-8018-d311c4a5ea29.jpg""]","",""
"","3565","similarity","189","1347462","0.0-6.0-183.0","4","[""img/0875/e7e66b13-b573-431e-b85e-288ce04a35a3.jpg"",""img/0874/995f0332-0439-4eb4-add3-957335dbf6d9.jpg""]","",""
"","6394","similarity","190","1354861","0.0-6.0-184.0","6","[""img/0867/c71dc569-f49c-4397-8381-68b8d726736d.jpg"",""img/0868/7b212364-ff5f-4e28-9241-7eb6ea00161b.jpg""]","",""
"","3472","similarity","191","1359353","0.0-6.0-185.0","4","[""img/0881/d1982897-8d8d-4704-a940-1ee5d07a1f15.jpg"",""img/0885/eb5e4557-1792-49c3-8871-16afa58f3a28.jpg""]","",""
"","5248","similarity","192","1365622","0.0-6.0-186.0","5","[""img/0864/6e846d43-94a6-4b37-a268-65eda979f052.jpg"",""img/0761/e34f97e4-14ac-4bb6-b226-816085d967c2.jpg""]","",""
"","3371","similarity","193","1370013","0.0-6.0-187.0","4","[""img/0885/4fd0aafb-6cc0-43d6-993a-c55a6e18a7ba.jpg"",""img/0874/7e4f2150-3b59-4a36-b5da-a4e0ba410531.jpg""]","",""
"","2380","similarity","194","1373406","0.0-6.0-188.0","4","[""img/0758/61d64021-9214-4951-bdf8-f871f9827cf9.jpg"",""img/0867/2e1a0b58-cdb1-4107-a14e-452530d7b9b0.jpg""]","",""
"","2028","similarity","195","1376454","0.0-6.0-189.0","4","[""img/0756/bb3f0571-641e-4d5b-b528-672892c37030.jpg"",""img/0884/0b4cf8d4-4c8f-4312-a794-f99e01679176.jpg""]","",""
"","3057","similarity","196","1380526","0.0-6.0-190.0","4","[""img/0761/bd083642-a9bc-4877-bfc6-63bd03d33e81.jpg"",""img/0862/47ed5efd-4ec9-4b74-bb4e-a5f5cf0c3e7d.jpg""]","",""
"","2586","similarity","197","1384125","0.0-6.0-191.0","4","[""img/0860/9593362c-9fe5-4d12-9735-6000a11f6aa5.jpg"",""img/0886/451550d7-6ff9-42b5-938c-9e20ee960bf6.jpg""]","",""
"","2541","similarity","198","1387685","0.0-6.0-192.0","4","[""img/0760/7f35fc6a-c21f-4f42-81c5-92ced38d82f8.jpg"",""img/0885/5a47e19f-19b4-4545-bf47-b508cb65da6a.jpg""]","",""
"","2456","similarity","199","1391157","0.0-6.0-193.0","4","[""img/0886/7164ac42-460f-4beb-9d5e-a1cfded3099c.jpg"",""img/0868/d98ca254-b195-477f-b57e-5760a2717db8.jpg""]","",""
"","6698","similarity","200","1398861","0.0-6.0-194.0","5","[""img/0881/e6746727-7f89-47ec-b939-d98abe78372d.jpg"",""img/0864/ea327690-500b-4137-bf91-451b309fe6a5.jpg""]","",""
"","7767","similarity","201","1407639","0.0-6.0-195.0","7","[""img/0866/bf14b5bd-fb55-47db-86b9-4f8aeb9a6dad.jpg"",""img/0868/6a28c3b0-3d76-498a-9fb7-ddafc665eca8.jpg""]","",""
"","3062","similarity","202","1411717","0.0-6.0-196.0","4","[""img/0864/6f631579-acf1-415c-a42c-1207f62a8d99.jpg"",""img/0958/bb684a39-afef-4125-9f70-b5ad830ba316.jpg""]","",""
"","3609","similarity","203","1416333","0.0-6.0-197.0","4","[""img/0757/e2cf79e3-9d9f-49eb-a09d-0028ca21d242.jpg"",""img/0886/c6c81122-f4bf-46f4-968b-167f8ed0cab3.jpg""]","",""
"","8031","similarity","204","1425373","0.0-6.0-198.0","5","[""img/0758/7fba58df-2a7a-4b76-8a8f-62739f97f271.jpg"",""img/0883/df1c6d22-bb1b-4eed-b4fe-eb5e46deacd4.jpg""]","",""
"","4102","similarity","205","1430493","0.0-6.0-199.0","4","[""img/0881/4bd34581-94d8-4e88-8c89-5cef864ca3be.jpg"",""img/0958/54f27d86-00c0-46b2-b2c9-050c9cc60fe0.jpg""]","",""
"","6035","similarity","206","1437541","0.0-6.0-200.0","4","[""img/0958/eea2b7ca-1c37-4e76-ada7-a8b1f3afdc01.jpg"",""img/0874/29830da7-be5f-44e5-b141-652a0ccf7269.jpg""]","",""
"","2021","similarity","207","1440581","0.0-6.0-201.0","4","[""img/0885/5225e532-2812-41d9-8ef0-0fbfc612784e.jpg"",""img/0860/c47fdead-eb02-4989-b078-26f4852f44fe.jpg""]","",""
"","2758","similarity","208","1444357","0.0-6.0-202.0","4","[""img/0875/03c3c331-738b-4446-af92-3d7386b08c2e.jpg"",""img/0881/5fe04dd0-5c74-47b7-99c8-b068db9ca26a.jpg""]","",""
"","2540","similarity","209","1447916","0.0-6.0-203.0","4","[""img/0758/d41c06bf-ebaf-454b-91c6-1a17f917b659.jpg"",""img/0860/524b2e98-5767-4d53-942c-ebae6925659b.jpg""]","",""
"","5738","similarity","210","1454668","0.0-6.0-204.0","7","[""img/0860/702bd09d-df3a-40aa-a267-5f04474305b5.jpg"",""img/0860/17b44a7d-c5ca-479f-9e87-f65a64f5c80e.jpg""]","",""
"","7782","similarity","211","1463469","0.0-6.0-205.0","6","[""img/0874/a82926a3-0b43-4add-803c-d5f9ea7798ee.jpg"",""img/0874/93d1f8dc-acf2-4f03-bd8d-8ec35df276ed.jpg""]","",""
"","8160","similarity","212","1472645","0.0-6.0-206.0","6","[""img/0883/0e1ed5c7-0881-4bfd-b12f-6a53500e74f0.jpg"",""img/0761/edc0b069-71dc-4b11-b7f0-8429ea8ac5c9.jpg""]","",""
"","6875","similarity","213","1480532","0.0-6.0-207.0","5","[""img/0761/1725cacb-5f86-4b47-a5c0-3c36cd981588.jpg"",""img/0881/33d65d80-8a8e-4ecf-852d-0ad7725c17a2.jpg""]","",""
"","3022","similarity","214","1484573","0.0-6.0-208.0","4","[""img/0760/36c930c0-2660-41c1-a356-77dafb18ae83.jpg"",""img/0756/8fdfa93c-88d0-4311-be2d-7f799fcaa8de.jpg""]","",""
"","4230","similarity","215","1496779","0.0-6.0-209.0","4","[""img/0885/8cdf3204-e0f1-482b-9546-5edca3d81376.jpg"",""img/0757/10030bb1-70b8-4889-a8a5-ab50e145704d.jpg""]","",""
"[{""page_index"":0,""viewing_time"":9929}]","9929","instructions","216","1507716","0.0-7.0","","","",""
"","25889","image-multi-choice","217","1534635","0.0-8.0-0.0","","","{""Q0"":""Orange-crowned Warbler""}","Orange-crowned Warbler"
"","4713","image-multi-choice","218","1540376","0.0-8.0-1.0","","","{""Q0"":""Wilson's Warbler""}","Wilson's Warbler"
"","15725","image-multi-choice","219","1557127","0.0-8.0-2.0","","","{""Q0"":""Blackpoll Warbler""}","Blackpoll Warbler"
"","13740","image-multi-choice","220","1571879","0.0-8.0-3.0","","","{""Q0"":""Black-and-white Warbler""}","Black-and-white Warbler"
"","7766","image-multi-choice","221","1580671","0.0-8.0-4.0","","","{""Q0"":""Yellow-breasted Chat""}","Yellow-breasted Chat"
"","31704","image-multi-choice","222","1613399","0.0-8.0-5.0","","","{""Q0"":""Canada Warbler""}","Canada Warbler"
"","7151","image-multi-choice","223","1621580","0.0-8.0-6.0","","","{""Q0"":""Common Yellowthroat""}","Common Yellowthroat"
"","9508","image-multi-choice","224","1632124","0.0-8.0-7.0","","","{""Q0"":""American Redstart""}","American Redstart"
"","8441","image-multi-choice","225","1641600","0.0-8.0-8.0","","","{""Q0"":""Chestnut-sided Warbler""}","Chestnut-sided Warbler"
"","22366","image-multi-choice","226","1664985","0.0-8.0-9.0","","","{""Q0"":""Black-throated Green Warbler""}","Black-throated Green Warbler"
"","9059","image-multi-choice","227","1675071","0.0-8.0-10.0","","","{""Q0"":""Blackburnian Warbler""}","Blackburnian Warbler"
"","20520","image-multi-choice","228","1696625","0.0-8.0-11.0","","","{""Q0"":""Townsend's Warbler""}","Yellow-rumped Warbler"
"","9632","image-multi-choice","229","1707296","0.0-8.0-12.0","","","{""Q0"":""Ovenbird""}","Ovenbird"
"","94989","image-multi-choice","230","1803316","0.0-8.0-13.0","","","{""Q0"":""Townsend's Warbler""}","Townsend's Warbler"
"","15320","image-multi-choice","231","1819670","0.0-8.0-14.0","","","{""Q0"":""Northern Waterthrush""}","Northern Waterthrush"
"","6454","image-multi-choice","232","1827147","0.0-8.0-15.0","","","{""Q0"":""Yellow Warbler""}","Yellow Warbler"
"","19618","image-multi-choice","233","1847794","0.0-8.0-16.0","","","{""Q0"":""Nashville Warbler""}","Nashville Warbler"
"","23169","image-multi-choice","234","1871993","0.0-8.0-17.0","","","{""Q0"":""Northern Parula""}","Northern Parula"
"","9968","image-multi-choice","235","1882997","0.0-8.0-18.0","","","{""Q0"":""Tennessee Warbler""}","Tennessee Warbler"
"","8346","image-multi-choice","236","1892382","0.0-8.0-19.0","","","{""Q0"":""Magnolia Warbler""}","Magnolia Warbler"
