"view_history","rt","trial_type","trial_index","time_elapsed","internal_node_id","sim_score","stimulus","responses","answer"
"[{""page_index"":0,""viewing_time"":50452}]","50453","instructions","0","50455","0.0-0.0","","","",""
"","10587","similarity_demo","1","62067","0.0-1.0","7","[""img/bluejay1.jpg"",""img/bluejay2.jpg""]","",""
"[{""page_index"":0,""viewing_time"":9795}]","9796","instructions","2","72872","0.0-2.0","","","",""
"","7638","similarity_demo","3","81521","0.0-3.0","2","[""img/bluejay1.jpg"",""img/cardinal1.jpg""]","",""
"[{""page_index"":0,""viewing_time"":8032}]","8033","instructions","4","90559","0.0-4.0","","","",""
"[{""page_index"":0,""viewing_time"":17903}]","17904","instructions","5","109466","0.0-5.0","","","",""
"","6857","similarity","6","117336","0.0-6.0-0.0","2","[""img/0864/49150900-7f25-4ce8-8d10-9b47a71d1997.jpg"",""img/0860/e8b8c51e-1834-4875-8b61-6c5bc9b178bd.jpg""]","",""
"","4294","similarity","7","122646","0.0-6.0-1.0","2","[""img/0884/9b1b7885-1502-448f-9b20-ddc19aa5456f.jpg"",""img/0760/fe62dd62-331c-4317-8af2-f1c816871fee.jpg""]","",""
"","3326","similarity","8","126983","0.0-6.0-2.0","2","[""img/0886/e5903946-897c-4420-87c0-afee4100305c.jpg"",""img/0881/f6bd3b96-dc40-4e99-8681-bc3a35cf896d.jpg""]","",""
"","5478","similarity","9","133470","0.0-6.0-3.0","2","[""img/0866/a15b02be-11bb-43e3-b0e0-ecc3bd7dfc49.jpg"",""img/0881/f7a8cc63-8842-40a4-9ff8-fe530310d62c.jpg""]","",""
"","4430","similarity","10","138910","0.0-6.0-4.0","2","[""img/0868/4bd5105a-d2c3-4f82-8c80-57196106ba53.jpg"",""img/0885/c840cf2c-c95d-4a08-b3c2-044d1ea946a7.jpg""]","",""
"","4832","similarity","11","144757","0.0-6.0-5.0","2","[""img/0757/a3620c04-efdc-4b42-940c-806958d1351e.jpg"",""img/0866/620cd1aa-0800-4414-8f6e-90342e7a99ad.jpg""]","",""
"","8039","similarity","12","153813","0.0-6.0-6.0","3","[""img/0868/5fa7f9d0-f0e5-454c-8224-74d964818f56.jpg"",""img/0864/e02eddb5-f468-499c-91bf-f7be3ffe979b.jpg""]","",""
"","7164","similarity","13","161988","0.0-6.0-7.0","6","[""img/0864/ef9cbca0-4be8-435d-ad49-977259e80409.jpg"",""img/0864/87c467d3-abca-482f-ad80-3766c21b1bb3.jpg""]","",""
"","3279","similarity","14","166276","0.0-6.0-8.0","3","[""img/0757/69d850ce-9828-4b13-9e68-6a2c196ecbcc.jpg"",""img/0881/445edb15-bd7f-4af3-8bd5-c6ad9677bb31.jpg""]","",""
"","2709","similarity","15","169996","0.0-6.0-9.0","2","[""img/0886/abd8dd83-d8ee-4003-b4d2-b4045220a578.jpg"",""img/0760/319c5462-51de-4d3b-a135-d6c44f59c0e1.jpg""]","",""
"","2884","similarity","16","173900","0.0-6.0-10.0","2","[""img/0884/05d9bfb9-44a6-4ab4-92fa-d17e5b2b4f33.jpg"",""img/0883/c6db9b70-f16c-47ee-a408-c9278365ae54.jpg""]","",""
"","5479","similarity","17","180395","0.0-6.0-11.0","3","[""img/0874/2c9464dd-8a23-4baa-ac94-1ba3af5c15cc.jpg"",""img/0862/24cdc752-c2e5-4a17-86a6-6f2045d8553b.jpg""]","",""
"","4278","similarity","18","185683","0.0-6.0-12.0","3","[""img/0862/5d887e9f-89e2-4ebc-80a0-6d46fe6480db.jpg"",""img/0875/5a7c4e35-6514-4e12-8879-d16071da4cd6.jpg""]","",""
"","3822","similarity","19","190518","0.0-6.0-13.0","3","[""img/0875/527ced51-8e53-4aab-ab05-86df219104c0.jpg"",""img/0757/8fdf4047-c2dc-42bc-9724-c35bd113f1dc.jpg""]","",""
"","4304","similarity","20","195834","0.0-6.0-14.0","2","[""img/0875/2c361b79-c3d1-4eda-812e-bf03192407bf.jpg"",""img/0860/61fb959d-d4d9-4de4-9e4e-4fa62b4cfcd5.jpg""]","",""
"","5658","similarity","21","202505","0.0-6.0-15.0","2","[""img/0860/b03b963d-949b-4d8d-b19c-4950c89eeca2.jpg"",""img/0881/4bd34581-94d8-4e88-8c89-5cef864ca3be.jpg""]","",""
"","4206","similarity","22","207729","0.0-6.0-16.0","3","[""img/0885/f4ed5442-1f5c-4a69-abe6-8336ed11ec77.jpg"",""img/0884/ffcce05a-b38d-4570-b3dc-751e89b7790a.jpg""]","",""
"","3954","similarity","23","212689","0.0-6.0-17.0","7","[""img/0761/71d2e184-21b4-4711-97f3-e381c641da2c.jpg"",""img/0761/89d3b943-cd14-4786-a7b8-0e9a695cf0e3.jpg""]","",""
"","4825","similarity","24","218521","0.0-6.0-18.0","3","[""img/0760/868ae139-99b5-4ff2-9d19-c4933af135e4.jpg"",""img/0864/0116ca98-293d-4fa6-a93b-5a6144ef64cc.jpg""]","",""
"","6239","similarity","25","225769","0.0-6.0-19.0","5","[""img/0864/300bb811-8b3c-4c42-8653-6097c3725197.jpg"",""img/0875/5a1e5100-0d94-4fec-bbe9-ca9894d2cf8e.jpg""]","",""
"","3873","similarity","26","230657","0.0-6.0-20.0","3","[""img/0874/eba003b4-cdab-4eee-8bc3-f064c7d94165.jpg"",""img/0884/ee845634-cd54-4c06-95a9-962122ef8712.jpg""]","",""
"","4549","similarity","27","236216","0.0-6.0-21.0","5","[""img/0885/d2276b26-e91a-4f19-a818-cbeb297ed884.jpg"",""img/0866/07c9c966-3c8d-40e7-8128-92b2acbaed5d.jpg""]","",""
"","4853","similarity","28","242088","0.0-6.0-22.0","7","[""img/0868/fd307a36-9a3a-47d7-ab7c-f810d0b35040.jpg"",""img/0868/83b4350a-3b70-4cea-b7f5-b5b56f3050a8.jpg""]","",""
"","3822","similarity","29","246919","0.0-6.0-23.0","3","[""img/0757/a91bb71b-8c84-4999-8da7-f30e53ddc2a7.jpg"",""img/0756/fd9b5e61-3674-448f-867a-29769dc8f07d.jpg""]","",""
"","4614","similarity","30","252552","0.0-6.0-24.0","7","[""img/0875/90da8d75-108a-44ad-b999-e21fee3860d3.jpg"",""img/0875/e7e66b13-b573-431e-b85e-288ce04a35a3.jpg""]","",""
"","4407","similarity","31","257974","0.0-6.0-25.0","3","[""img/0761/a69897c1-1310-4bae-9a51-8b29cd9543dd.jpg"",""img/0866/386235d2-6857-41e7-88a8-25cfc3430025.jpg""]","",""
"","3666","similarity","32","262647","0.0-6.0-26.0","3","[""img/0866/c446214b-a368-4c65-ae39-ea46894256ab.jpg"",""img/0758/2fa3e613-e676-4e6e-bd12-705327eeb3e1.jpg""]","",""
"","3825","similarity","33","267488","0.0-6.0-27.0","2","[""img/0758/eabcd7a8-56ad-4fd2-bc24-90f6b7b33265.jpg"",""img/0875/a4935837-7d3c-4df6-88c1-36a94d4991ca.jpg""]","",""
"","3005","similarity","34","271502","0.0-6.0-28.0","3","[""img/0958/df7705da-e817-409f-8a93-05abef4b26c3.jpg"",""img/0757/0668efad-1c92-425c-9aa9-2bbe833fd777.jpg""]","",""
"","5388","similarity","35","277909","0.0-6.0-29.0","6","[""img/0873/7dddc95f-ca6e-4d15-99a0-0e329ec6888e.jpg"",""img/0883/02f50df0-eb8c-4e17-836a-c89ddb1c04e1.jpg""]","",""
"","3264","similarity","36","282181","0.0-6.0-30.0","2","[""img/0868/4e626425-63c8-484a-8a1d-e66ee4e0bef8.jpg"",""img/0875/3ecb367d-e9eb-4826-8aaa-7aa72fb98019.jpg""]","",""
"","2723","similarity","37","285917","0.0-6.0-31.0","2","[""img/0884/7ae02e9d-46a4-4124-bcc2-cad90d7ef9f9.jpg"",""img/0862/de9ad88c-b522-430a-8ee9-eb06a9f85df5.jpg""]","",""
"","5469","similarity","38","292404","0.0-6.0-32.0","5","[""img/0884/baabff07-71d8-424e-ac29-644768380941.jpg"",""img/0864/66091c27-e588-4476-8af9-265dc6be4156.jpg""]","",""
"","2970","similarity","39","296381","0.0-6.0-33.0","3","[""img/0883/e7e4af6a-bc7a-4a9b-921c-32652db13239.jpg"",""img/0958/644719ec-1690-4af2-a63f-0b6467c3791e.jpg""]","",""
"","3064","similarity","40","300453","0.0-6.0-34.0","2","[""img/0864/1d15626a-2f7c-410f-819c-0fa2c967e95e.jpg"",""img/0756/403d0540-b812-446f-bb5a-e8030be0a02f.jpg""]","",""
"","3408","similarity","41","304868","0.0-6.0-35.0","3","[""img/0874/995f0332-0439-4eb4-add3-957335dbf6d9.jpg"",""img/0758/6cd8c362-ae2a-41eb-80a3-3a4f7ace1530.jpg""]","",""
"","2921","similarity","42","308796","0.0-6.0-36.0","2","[""img/0886/b8648eb5-de71-41ab-825d-848e51be8c1b.jpg"",""img/0862/f43ceabf-acc1-4107-b857-5d1849808f93.jpg""]","",""
"","3126","similarity","43","312931","0.0-6.0-37.0","2","[""img/0862/ba89835a-408c-480b-8594-ed4ffa97eb5c.jpg"",""img/0885/05af267f-b982-498d-9807-ccd54689f9b4.jpg""]","",""
"","5752","similarity","44","319691","0.0-6.0-38.0","6","[""img/0758/61d64021-9214-4951-bdf8-f871f9827cf9.jpg"",""img/0864/da39ad34-04e0-40d4-a724-c08d53e0ea09.jpg""]","",""
"","4365","similarity","45","325075","0.0-6.0-39.0","7","[""img/0873/a234d5d1-09ea-4594-9a0f-d569da31dbdb.jpg"",""img/0867/12264664-1860-46df-8c21-162b9817cdda.jpg""]","",""
"","4783","similarity","46","330875","0.0-6.0-40.0","5","[""img/0958/ba5ed153-96de-4f61-b7d9-87a478c8972c.jpg"",""img/0884/d9185264-7f01-43b2-be7f-eed1a0f0f2e8.jpg""]","",""
"","5163","similarity","47","349024","0.0-6.0-41.0","7","[""img/0873/d39b1731-1669-4c96-b5c6-682b30e287ee.jpg"",""img/0873/c3ff3b70-fb22-42f2-883c-3ecffd77cb4b.jpg""]","",""
"","4428","similarity","48","354465","0.0-6.0-42.0","1","[""img/0886/1e8c0f89-c766-41c9-b522-83c342048f34.jpg"",""img/0758/e1ba5e53-addc-436a-b428-d34fc1b130dc.jpg""]","",""
"","2927","similarity","49","358409","0.0-6.0-43.0","2","[""img/0883/387a9e30-7d95-483e-af34-c8262f62385f.jpg"",""img/0874/c0378dac-9370-439a-8b79-db27c96fb390.jpg""]","",""
"","2620","similarity","50","362049","0.0-6.0-44.0","3","[""img/0881/566f45f8-5fed-4479-a60f-26377e60a62d.jpg"",""img/0873/ac86dbfd-0442-4dec-9d10-37d7093f5a52.jpg""]","",""
"","2529","similarity","51","365592","0.0-6.0-45.0","2","[""img/0867/c66898ba-b71b-4d50-84f9-f7f84853a98d.jpg"",""img/0757/94c7f207-1115-4451-b22b-1f74b3661208.jpg""]","",""
"","2996","similarity","52","369601","0.0-6.0-46.0","2","[""img/0866/93a27239-8317-4e08-98ca-d8b1ff298e07.jpg"",""img/0874/31e22c7c-99aa-40b1-bf03-dd73fa2df4d6.jpg""]","",""
"","4850","similarity","53","375464","0.0-6.0-47.0","6","[""img/0886/bd45b474-5559-4ea5-83ff-140bce19f5fa.jpg"",""img/0886/0f9715c1-b2e4-418e-bf9b-126cc9e70dc6.jpg""]","",""
"","4009","similarity","54","380488","0.0-6.0-48.0","4","[""img/0883/3b1366c6-7baa-4ad2-889c-1ff9c3b379c9.jpg"",""img/0860/4a022222-056d-461c-ab02-39fac9647552.jpg""]","",""
"","2789","similarity","55","384287","0.0-6.0-49.0","2","[""img/0860/4c530c3c-6aab-492a-94d1-9c01797bde40.jpg"",""img/0756/8f917ff3-2930-4f81-812b-19555fe71261.jpg""]","",""
"","2355","similarity","56","387648","0.0-6.0-50.0","2","[""img/0860/c7047cd2-7cc1-41b6-8a34-c0986774975f.jpg"",""img/0757/92ed1ceb-29ef-4044-9601-78d7806e2396.jpg""]","",""
"","2837","similarity","57","391496","0.0-6.0-51.0","7","[""img/0756/de72dcee-8bbb-43d1-a744-9c074b9122ee.jpg"",""img/0756/4fcf5ea1-c2e0-44b9-b07f-26cbf07e1801.jpg""]","",""
"","4099","similarity","58","396615","0.0-6.0-52.0","5","[""img/0875/d59ff733-eaff-4ee2-9443-06954dd0bcb6.jpg"",""img/0866/a04d37f0-99dd-478a-b6c6-58b215138f84.jpg""]","",""
"","3590","similarity","59","401223","0.0-6.0-53.0","2","[""img/0756/04655068-a9fc-49d9-b2f4-21e4d42b7903.jpg"",""img/0758/335851a0-a55b-46d8-ab05-8463eda48349.jpg""]","",""
"","3973","similarity","60","406206","0.0-6.0-54.0","2","[""img/0761/e34f97e4-14ac-4bb6-b226-816085d967c2.jpg"",""img/0884/3613aeb4-0028-4205-aea0-1ea28cb1f80e.jpg""]","",""
"","2589","similarity","61","409814","0.0-6.0-55.0","3","[""img/0760/0864f159-c076-4573-83e1-ea134f239717.jpg"",""img/0867/f8488a47-94ee-4166-952c-44e16cf172f6.jpg""]","",""
"","3120","similarity","62","413950","0.0-6.0-56.0","2","[""img/0866/6f2a90d7-14f1-4f1b-bd64-fc0af6b9fe44.jpg"",""img/0884/fb8b0101-bfd2-462b-a942-d3202a69dd18.jpg""]","",""
"","2429","similarity","63","417398","0.0-6.0-57.0","2","[""img/0756/8ab56efe-fef0-45cc-ab57-82597f83b26a.jpg"",""img/0761/176fde97-0334-4d2b-8a7a-38960c2528f3.jpg""]","",""
"","3402","similarity","64","421814","0.0-6.0-58.0","3","[""img/0867/5e07b34d-b40f-4b1c-ac10-49975bace45f.jpg"",""img/0860/8277806e-b684-4474-8f7b-3fca946d7d4f.jpg""]","",""
"","4980","similarity","65","427805","0.0-6.0-59.0","6","[""img/0881/d1982897-8d8d-4704-a940-1ee5d07a1f15.jpg"",""img/0758/7fba58df-2a7a-4b76-8a8f-62739f97f271.jpg""]","",""
"","3548","similarity","66","432365","0.0-6.0-60.0","2","[""img/0761/b8f211c0-f640-43a2-b101-101774517d95.jpg"",""img/0758/d540bee6-b460-4c32-ac57-bc282742d7d4.jpg""]","",""
"","3865","similarity","67","437237","0.0-6.0-61.0","2","[""img/0958/b11515b3-5f04-4c3e-be00-56a05c6c3e96.jpg"",""img/0875/ebf7653f-ff45-4e9f-af58-2c042ab3cd2b.jpg""]","",""
"","3646","similarity","68","441901","0.0-6.0-62.0","2","[""img/0886/789f5d23-84b8-499a-ae1e-20c6309a06ae.jpg"",""img/0864/c22faebd-9c53-47bc-ada3-b9a30c688e75.jpg""]","",""
"","2464","similarity","69","445380","0.0-6.0-63.0","2","[""img/0756/6413e12f-951d-47b5-ae55-9fad7fb8d112.jpg"",""img/0874/ca23d307-fc00-4d7d-9106-584c6eb21b4d.jpg""]","",""
"","2542","similarity","70","448932","0.0-6.0-64.0","2","[""img/0758/dd559618-7f09-4a07-8018-d311c4a5ea29.jpg"",""img/0885/1cd940ef-9720-4a04-8fa1-1dd3a39ecdd6.jpg""]","",""
"","3002","similarity","71","452940","0.0-6.0-65.0","1","[""img/0760/1c96ffb7-17db-4253-b66c-59250977c88b.jpg"",""img/0958/ebea41e3-9d65-4f5e-981a-92daaaad0d57.jpg""]","",""
"","3318","similarity","72","457269","0.0-6.0-66.0","2","[""img/0884/d8ffab77-40df-44ba-bf27-70815b052250.jpg"",""img/0881/2a8413be-fec2-4de6-88ad-614dd4cccc9d.jpg""]","",""
"","2781","similarity","73","461069","0.0-6.0-67.0","1","[""img/0864/65210d57-1153-4657-886a-32e758f49b4a.jpg"",""img/0873/b1e2e09f-ad9a-433e-818f-56dd2f1cb09c.jpg""]","",""
"","3122","similarity","74","465195","0.0-6.0-68.0","1","[""img/0862/92f0146c-20c4-482e-aef5-adb693790338.jpg"",""img/0758/d57c2592-a317-4f63-91be-91a3a9afd222.jpg""]","",""
"","4202","similarity","75","470410","0.0-6.0-69.0","7","[""img/0757/802a8692-dc9e-4372-8811-ce4351a09d1a.jpg"",""img/0757/cb7ca802-27ac-4a1d-996f-bd21b96d6244.jpg""]","",""
"","3561","similarity","76","474979","0.0-6.0-70.0","3","[""img/0860/702bd09d-df3a-40aa-a267-5f04474305b5.jpg"",""img/0862/847e5208-38ec-4f36-949c-296cdd7424ee.jpg""]","",""
"","4398","similarity","77","480386","0.0-6.0-71.0","2","[""img/0860/d9a0d117-6d1d-41c0-8fec-9aff0fd9e9f2.jpg"",""img/0884/967c63af-8f6a-483f-9122-0c79d97fd22e.jpg""]","",""
"","5000","similarity","78","486402","0.0-6.0-72.0","7","[""img/0883/512a797a-315b-439e-9a9d-855929351fd0.jpg"",""img/0866/d266fece-59b3-46fa-b69f-96f6efb81b59.jpg""]","",""
"","4114","similarity","79","491521","0.0-6.0-73.0","3","[""img/0866/0207e9a2-7dbb-40b5-9459-b472aaeceb2a.jpg"",""img/0886/4d28f75a-a9c3-49dd-8aa8-00304af6e40b.jpg""]","",""
"","3502","similarity","80","496041","0.0-6.0-74.0","2","[""img/0958/822de3b9-e5fd-4b74-aeb1-7c40805b0717.jpg"",""img/0761/bd083642-a9bc-4877-bfc6-63bd03d33e81.jpg""]","",""
"","2410","similarity","81","499457","0.0-6.0-75.0","1","[""img/0875/8521fd58-3b1e-4dc5-97ae-804edfa6734a.jpg"",""img/0756/1cc17c90-3114-4ede-89cd-f34db9fa638a.jpg""]","",""
"","3112","similarity","82","503577","0.0-6.0-76.0","1","[""img/0958/86d1a76d-f067-4e36-9ab5-13da78c97c0e.jpg"",""img/0885/62bd11a8-7059-4cc2-b06d-4700688b313f.jpg""]","",""
"","3201","similarity","83","507784","0.0-6.0-77.0","1","[""img/0868/7b212364-ff5f-4e28-9241-7eb6ea00161b.jpg"",""img/0883/fc8cf4c9-003e-48c4-b222-8878ea2ae1c0.jpg""]","",""
"","2926","similarity","84","511720","0.0-6.0-78.0","1","[""img/0862/064818ee-13d5-4618-bb24-21c7368ea278.jpg"",""img/0760/111aecf1-147c-4227-90e0-9ed3a75e4e16.jpg""]","",""
"","4099","similarity","85","516824","0.0-6.0-79.0","2","[""img/0885/8960bf05-34df-4a86-a9b2-6087c70e61d3.jpg"",""img/0761/a74c99e4-d9ed-42cd-9e83-8d525cb6a9a2.jpg""]","",""
"","4156","similarity","86","522000","0.0-6.0-80.0","2","[""img/0862/f23038d4-c366-4f70-979f-66b62362efa4.jpg"",""img/0864/efcfbb1b-8197-44c9-b723-40d6c608dd3c.jpg""]","",""
"","5153","similarity","87","528160","0.0-6.0-81.0","6","[""img/0758/d41c06bf-ebaf-454b-91c6-1a17f917b659.jpg"",""img/0758/ddc336e9-a8b6-4bb9-937a-c7e25e0e9250.jpg""]","",""
"","3247","similarity","88","532415","0.0-6.0-82.0","5","[""img/0862/e0f1a4e9-e1b6-45f7-af67-89f334e6630d.jpg"",""img/0873/841d6549-01d2-4ebd-8d67-25d219876178.jpg""]","",""
"","4883","similarity","89","547006","0.0-6.0-83.0","3","[""img/0760/afe7a178-4458-4bdd-a0ad-0cffc57eadc3.jpg"",""img/0757/86df581e-81a2-4205-95e3-1ea87cea1f36.jpg""]","",""
"","3097","similarity","90","551111","0.0-6.0-84.0","2","[""img/0867/f26f6b60-f772-4f4c-95a4-addc62cfd692.jpg"",""img/0881/ed4c971f-0873-4fc8-b6d6-e8bbd82f0bcc.jpg""]","",""
"","3052","similarity","91","555167","0.0-6.0-85.0","2","[""img/0885/1e66fe61-15d5-42b1-86aa-dbfd13613f5c.jpg"",""img/0886/d1e40478-2fe0-404f-8409-920da98a96a2.jpg""]","",""
"","3857","similarity","92","560030","0.0-6.0-86.0","2","[""img/0866/02f5e6b9-52b7-448c-9708-5b460d0c9a23.jpg"",""img/0864/6e846d43-94a6-4b37-a268-65eda979f052.jpg""]","",""
"","5543","similarity","93","566581","0.0-6.0-87.0","3","[""img/0874/767f289c-9814-4496-803f-745cc8913d1f.jpg"",""img/0881/62a64f90-7a72-4aee-a1a1-0c548ac9bdda.jpg""]","",""
"","4448","similarity","94","572037","0.0-6.0-88.0","2","[""img/0866/d493a2c8-66eb-44b4-be02-2f327b700b7c.jpg"",""img/0760/a97cc3a7-3e6e-423e-ac87-e1d1ab280ae9.jpg""]","",""
"","2899","similarity","95","575951","0.0-6.0-89.0","1","[""img/0867/85a96c62-548f-4994-9553-819e03c3135a.jpg"",""img/0884/3c61ea12-a408-47ce-98aa-b14e0f6d4591.jpg""]","",""
"","2719","similarity","96","579685","0.0-6.0-90.0","1","[""img/0757/e2cf79e3-9d9f-49eb-a09d-0028ca21d242.jpg"",""img/0862/eefa5588-9efd-4591-aa5f-a2e17c7d7bcc.jpg""]","",""
"","2646","similarity","97","583341","0.0-6.0-91.0","1","[""img/0867/c71dc569-f49c-4397-8381-68b8d726736d.jpg"",""img/0761/af21c992-a721-45fb-bee7-f50c0f676c30.jpg""]","",""
"","3420","similarity","98","587782","0.0-6.0-92.0","1","[""img/0868/d6d1f30d-4323-435a-b194-7892521bc57e.jpg"",""img/0958/ef1b718f-ef8c-497f-80d7-42562aebf1a7.jpg""]","",""
"","4885","similarity","99","593676","0.0-6.0-93.0","4","[""img/0874/99f6563c-8a8d-4c1c-a41d-667b618c3fd5.jpg"",""img/0864/afcba0a3-7e27-4757-b254-e9f05fad27e2.jpg""]","",""
"","2964","similarity","100","597652","0.0-6.0-94.0","2","[""img/0760/868961d8-3272-4d3c-9c8b-9d183315cabc.jpg"",""img/0873/226317e0-f0e7-42ea-907b-058cb1ad519a.jpg""]","",""
"","4658","similarity","101","603323","0.0-6.0-95.0","3","[""img/0868/179a5502-ab5c-478e-8263-5a1fbcc101d2.jpg"",""img/0873/0c7f3d86-efda-4809-aac4-256ba01e0536.jpg""]","",""
"","2987","similarity","102","607315","0.0-6.0-96.0","1","[""img/0860/8a92e21b-6a32-4e4a-a445-2d5a487ed0a4.jpg"",""img/0761/d5370a68-6c8a-486f-b2bf-330e2ad6b397.jpg""]","",""
"","3385","similarity","103","611708","0.0-6.0-97.0","1","[""img/0862/e697469a-ec19-4414-b972-7b9f3564785b.jpg"",""img/0883/cc2bb2c6-18f1-414f-98cc-6cd683173ce4.jpg""]","",""
"","3537","similarity","104","616259","0.0-6.0-98.0","2","[""img/0757/4f8ae92b-a4ab-4020-b4fb-80c5615e76ac.jpg"",""img/0884/e275ab3e-0948-43c3-8be7-a75271922185.jpg""]","",""
"","3911","similarity","105","621186","0.0-6.0-99.0","2","[""img/0867/de92135f-5b65-4ed9-b245-188292c7c2f8.jpg"",""img/0756/8fdfa93c-88d0-4311-be2d-7f799fcaa8de.jpg""]","",""
"","2654","similarity","106","624858","0.0-6.0-100.0","2","[""img/0958/7168f8d3-e3ae-405a-93d0-64836d899932.jpg"",""img/0756/00b775eb-fe41-49b2-92e9-a9955cf1042b.jpg""]","",""
"","5843","similarity","107","631714","0.0-6.0-101.0","6","[""img/0760/9ddd6958-7349-45d6-b5bc-4a5911960c35.jpg"",""img/0760/57510c7a-e5a9-420e-9b3f-f7423746f67c.jpg""]","",""
"","3858","similarity","108","636577","0.0-6.0-102.0","3","[""img/0873/6110910a-7895-4b6a-af51-12486a4595a3.jpg"",""img/0875/dbdd643e-6d0e-4a5c-ab57-b9c29b9c981a.jpg""]","",""
"","4087","similarity","109","641673","0.0-6.0-103.0","4","[""img/0884/7f9cc898-36bc-49ec-8b1a-01065d9c0062.jpg"",""img/0884/2348ce3f-5d2a-4a04-85ef-a65f05caa935.jpg""]","",""
"","3179","similarity","110","645865","0.0-6.0-104.0","2","[""img/0873/0d9b4403-7f26-46dc-b0b7-2b97b0a91b46.jpg"",""img/0885/24afeefb-f7b3-4e8f-a5b9-17cc00fd22e3.jpg""]","",""
"","3381","similarity","111","650265","0.0-6.0-105.0","3","[""img/0883/00d89148-b7d4-49d2-831a-2eee070a85a4.jpg"",""img/0875/34132396-d896-4c2d-8087-646dd867e769.jpg""]","",""
"","2998","similarity","112","654281","0.0-6.0-106.0","2","[""img/0864/8ddd2e30-a1d0-479f-9cbe-591213023893.jpg"",""img/0867/50a1b60e-3a29-44bf-b606-d4bd3746fea9.jpg""]","",""
"","2741","similarity","113","658034","0.0-6.0-107.0","2","[""img/0958/1812c506-727b-43a7-882e-4729742e41fc.jpg"",""img/0860/e14d67c1-6d92-4f1e-9257-c8607159c19c.jpg""]","",""
"","3773","similarity","114","662825","0.0-6.0-108.0","1","[""img/0885/fbbfaacd-e49b-4d37-a2f9-fcaffa58f26f.jpg"",""img/0756/9a7a2119-24a3-431f-95e6-62f596bf88e2.jpg""]","",""
"","2926","similarity","115","666768","0.0-6.0-109.0","2","[""img/0883/df1c6d22-bb1b-4eed-b4fe-eb5e46deacd4.jpg"",""img/0885/fce9f22a-f769-477c-acee-a5ad8214f0a5.jpg""]","",""
"","4837","similarity","116","672626","0.0-6.0-110.0","6","[""img/0867/26611f4e-d694-4460-b7e2-43c62753ddc3.jpg"",""img/0867/179ab87a-8eac-4c52-a41f-2e48e3120f09.jpg""]","",""
"","4482","similarity","117","678119","0.0-6.0-111.0","3","[""img/0881/292e9b4b-fca0-4ba8-87f1-4048f9e37b7d.jpg"",""img/0760/e697857f-b21d-4c49-8cde-1b803b437311.jpg""]","",""
"","3479","similarity","118","682607","0.0-6.0-112.0","3","[""img/0881/d373cb9f-a719-4549-a2a4-82def79fb2a5.jpg"",""img/0868/0d3abd3a-b6c3-4584-a9f7-e2da63748b3d.jpg""]","",""
"","4969","similarity","119","688590","0.0-6.0-113.0","3","[""img/0875/5a716432-c6ca-4b1c-955a-2b8ac25198ee.jpg"",""img/0761/5747fedf-15f2-47fe-87c8-ff646dd66a5f.jpg""]","",""
"","2851","similarity","120","692446","0.0-6.0-114.0","2","[""img/0756/09fde3d3-27c5-435e-b68f-5410beb04e99.jpg"",""img/0866/23a224f3-2012-4fc8-8e0f-3c36f8de27fd.jpg""]","",""
"","3367","similarity","121","696830","0.0-6.0-115.0","3","[""img/0884/592da15b-09e4-46b5-81e7-bab08a1c33e9.jpg"",""img/0886/625c7dfa-3fa1-4166-80f0-229eb416b04f.jpg""]","",""
"","5293","similarity","122","703142","0.0-6.0-116.0","2","[""img/0756/10fa3aa2-6100-492a-826e-febb6513cf13.jpg"",""img/0881/84397291-bc14-4fbf-90e8-241e486ab0fe.jpg""]","",""
"","3229","similarity","123","707381","0.0-6.0-117.0","2","[""img/0760/7f35fc6a-c21f-4f42-81c5-92ced38d82f8.jpg"",""img/0875/42910c99-5463-450a-a0f8-d4d060a11455.jpg""]","",""
"","3484","similarity","124","711877","0.0-6.0-118.0","2","[""img/0958/acbadc39-e665-446d-b98f-ccd0ef3223d6.jpg"",""img/0866/bf14b5bd-fb55-47db-86b9-4f8aeb9a6dad.jpg""]","",""
"","3344","similarity","125","716229","0.0-6.0-119.0","2","[""img/0867/2e1a0b58-cdb1-4107-a14e-452530d7b9b0.jpg"",""img/0874/3f471690-9788-4d03-90c7-f615aecef149.jpg""]","",""
"","3375","similarity","126","720613","0.0-6.0-120.0","2","[""img/0883/6dcd54c3-64a3-4ed5-9149-d8b9aa1938c8.jpg"",""img/0757/6ecf2f24-3286-49d6-b5ed-bb2da660c588.jpg""]","",""
"","2495","similarity","127","724117","0.0-6.0-121.0","2","[""img/0874/a3bc679d-619f-4db6-bb68-116dcb757d9c.jpg"",""img/0886/1870a791-dfee-471e-8417-197d4a53c75a.jpg""]","",""
"","3606","similarity","128","728732","0.0-6.0-122.0","5","[""img/0873/90b702a6-3dba-446a-9bba-a2ee096baf49.jpg"",""img/0761/47960f80-42b7-4397-a852-ec55d716c652.jpg""]","",""
"","3348","similarity","129","733085","0.0-6.0-123.0","3","[""img/0875/fb732ab5-013a-4366-9f65-27811ed157e9.jpg"",""img/0884/5085d424-b3f5-461b-a1c7-f7ca55abcf4f.jpg""]","",""
"","3158","similarity","130","737260","0.0-6.0-124.0","3","[""img/0757/ec40956b-ed8b-4970-b87f-9b7c25cd5be6.jpg"",""img/0868/77091fc7-a590-4ebb-b915-fdb2483a2399.jpg""]","",""
"","5561","similarity","131","746314","0.0-6.0-125.0","4","[""img/0886/42cccc64-05f9-4afd-bc93-496ba50a4342.jpg"",""img/0883/599aacc5-bb0f-4dea-852c-9a27727eb0b9.jpg""]","",""
"","3346","similarity","132","750675","0.0-6.0-126.0","3","[""img/0868/15dd6fd7-791e-4b53-b203-195d617521a4.jpg"",""img/0760/d87ebbb0-e718-4ab1-8882-e48253d6fd00.jpg""]","",""
"","3946","similarity","133","755627","0.0-6.0-127.0","7","[""img/0881/db77fe00-aeb0-4d1d-aa66-f3a96fd077e4.jpg"",""img/0881/33d65d80-8a8e-4ecf-852d-0ad7725c17a2.jpg""]","",""
"","3872","similarity","134","760514","0.0-6.0-128.0","2","[""img/0760/4f024637-f98a-409a-baa0-fc4989d80667.jpg"",""img/0860/f44ba3fb-03a2-42f0-8509-2c1ded493086.jpg""]","",""
"","3045","similarity","135","764571","0.0-6.0-129.0","1","[""img/0864/9b2490c5-a282-400a-9736-e1a0ecbf1cb7.jpg"",""img/0885/6873c613-5e40-42ff-a5b6-443b6b626ae2.jpg""]","",""
"","2661","similarity","136","768242","0.0-6.0-130.0","1","[""img/0864/a248adb3-c70b-4652-b7a3-776d2a1e904b.jpg"",""img/0757/20c59f64-1fc2-448d-8423-42cbd8fe0164.jpg""]","",""
"","3579","similarity","137","772826","0.0-6.0-131.0","2","[""img/0760/d96a9342-5d16-403a-9f95-e062f795d968.jpg"",""img/0883/142a783e-a468-4b7f-a750-1e107613d5a9.jpg""]","",""
"","4759","similarity","138","778593","0.0-6.0-132.0","7","[""img/0885/517a9189-9623-4ed7-a37e-48788791e028.jpg"",""img/0885/0cdcdaca-f91e-4d4a-a6f6-dc90ab676435.jpg""]","",""
"","3187","similarity","139","782793","0.0-6.0-133.0","2","[""img/0860/5bff793e-cbd5-4d7e-b628-0ac2b0e30b64.jpg"",""img/0868/6a28c3b0-3d76-498a-9fb7-ddafc665eca8.jpg""]","",""
"","4847","similarity","140","788649","0.0-6.0-134.0","7","[""img/0867/8ba0c5a7-c7e4-42cf-a80a-543763b90779.jpg"",""img/0886/9f186bd5-d48b-4cc2-9206-be67c392faa9.jpg""]","",""
"","2557","similarity","141","792225","0.0-6.0-135.0","1","[""img/0756/314a157e-e6d3-4447-a98f-8fde8f810f0c.jpg"",""img/0886/aef00ed5-e288-47bf-b31e-512d7e762ea2.jpg""]","",""
"","5177","similarity","142","798416","0.0-6.0-136.0","6","[""img/0884/a8f7b854-0010-4c7a-a8fb-b1b1dc1f1ba1.jpg"",""img/0868/09a9ef4d-d000-4cfa-a6aa-ebec7c2edeb4.jpg""]","",""
"","4855","similarity","143","804288","0.0-6.0-137.0","7","[""img/0958/d4138705-0a9d-4141-9af9-205e69367c44.jpg"",""img/0958/e9e2cc42-eb3b-4c91-8112-a517305c15f0.jpg""]","",""
"","3173","similarity","144","808472","0.0-6.0-138.0","2","[""img/0886/7164ac42-460f-4beb-9d5e-a1cfded3099c.jpg"",""img/0873/1d1be182-3bb2-4efd-8543-d70b8db7beef.jpg""]","",""
"","4527","similarity","145","814007","0.0-6.0-139.0","7","[""img/0758/f61ecdf8-a7d4-4db0-b84d-be46f7cfaffc.jpg"",""img/0873/b02f9cce-7f58-4f1b-baed-50fee9f0a21f.jpg""]","",""
"","3487","similarity","146","818504","0.0-6.0-140.0","3","[""img/0873/33552b07-bdb8-423e-88b4-25a37f159c6d.jpg"",""img/0756/b8d6aa83-8673-4e0d-be72-b3da2bae7a6d.jpg""]","",""
"","5618","similarity","147","825127","0.0-6.0-141.0","3","[""img/0868/e0aff734-077f-40dd-9781-74821abd3621.jpg"",""img/0862/fad1d7c1-8187-43c3-942a-0fc12183e48e.jpg""]","",""
"","3188","similarity","148","829328","0.0-6.0-142.0","2","[""img/0881/48ed65a5-471f-41af-86ec-3793805c116d.jpg"",""img/0862/fb26cb07-d5a9-4653-813c-f41609f26cd5.jpg""]","",""
"","2663","similarity","149","832999","0.0-6.0-143.0","2","[""img/0885/21b241a1-95da-4306-9cf2-cc52a784214a.jpg"",""img/0867/f8159067-056c-41f1-a136-c529fe5e970a.jpg""]","",""
"","4373","similarity","150","838390","0.0-6.0-144.0","7","[""img/0883/ab9b6977-0cdc-47a2-b180-494a5be181b2.jpg"",""img/0883/46d6b8ad-7f31-441e-92d2-0cc16d3d99ce.jpg""]","",""
"","3662","similarity","151","843063","0.0-6.0-145.0","2","[""img/0874/1016b306-087c-4afc-aa08-fa527b28dc76.jpg"",""img/0873/c91c05f8-fafd-4054-bcf1-f5ed1f0a18e8.jpg""]","",""
"","3165","similarity","152","847246","0.0-6.0-146.0","2","[""img/0757/c05f53f3-811c-4a3b-b848-a27b80b8fd53.jpg"",""img/0758/821c68d3-5cb0-4eae-8659-30e6263fca39.jpg""]","",""
"","2625","similarity","153","850886","0.0-6.0-147.0","2","[""img/0883/1f394dd2-551c-4c8b-af82-f6a6fbe567bb.jpg"",""img/0756/96c1bf35-26b6-4428-b19d-bdb5efe1367a.jpg""]","",""
"","9695","similarity","154","861589","0.0-6.0-148.0","2","[""img/0867/1719a35d-f085-48c0-9099-16c94fe418b4.jpg"",""img/0866/f756f7d1-9ad8-4a34-9ef6-7a443d705bfe.jpg""]","",""
"","5727","similarity","155","868325","0.0-6.0-149.0","2","[""img/0758/3ddd05d3-557e-4ee7-8b78-9d2d681d8ae2.jpg"",""img/0760/a24659cd-f862-42cc-b43a-7ba8eae0c2c0.jpg""]","",""
"","2684","similarity","156","872021","0.0-6.0-150.0","2","[""img/0757/a7964b0f-aee3-4b4c-9cd1-c1c998c49fef.jpg"",""img/0761/53a65b48-8b0c-4a1d-9ebb-a27a259c5bc6.jpg""]","",""
"","4139","similarity","157","877172","0.0-6.0-151.0","2","[""img/0761/8e379ec1-757d-4427-a0ff-d4efdd6a50c4.jpg"",""img/0874/adf9a8f1-c40b-402b-b95b-1e85a54a7b62.jpg""]","",""
"","3919","similarity","158","882100","0.0-6.0-152.0","2","[""img/0761/1725cacb-5f86-4b47-a5c0-3c36cd981588.jpg"",""img/0760/7cdb34e4-0556-4bf7-9a6f-05990a92e0f3.jpg""]","",""
"","3084","similarity","159","886196","0.0-6.0-153.0","2","[""img/0866/8efcaa46-83ab-4dee-a35f-850402aa21ae.jpg"",""img/0866/9b38d691-1802-4959-ab3f-fc902f0e4ea6.jpg""]","",""
"","4150","similarity","160","891355","0.0-6.0-154.0","2","[""img/0866/be24ab58-230e-4db8-9f45-ff04c9aec6bb.jpg"",""img/0862/57b6f83f-c763-4858-830d-102f97bfefbf.jpg""]","",""
"","4035","similarity","161","896395","0.0-6.0-155.0","1","[""img/0756/ba3f2106-0416-46e6-a788-1b50d9f92bda.jpg"",""img/0862/92fcd8a4-8193-4a6a-ae09-dd4a6338b0df.jpg""]","",""
"","3236","similarity","162","900635","0.0-6.0-156.0","1","[""img/0860/c5ccd1a4-4bb7-48e1-9b25-72cfaf06909b.jpg"",""img/0866/945c6710-d15b-4a5b-a8f6-69af0850357f.jpg""]","",""
"","3208","similarity","163","904850","0.0-6.0-157.0","1","[""img/0862/7918ca67-5bd3-4606-a5ea-c39fb11a9297.jpg"",""img/0958/54f27d86-00c0-46b2-b2c9-050c9cc60fe0.jpg""]","",""
"","2739","similarity","164","908594","0.0-6.0-158.0","1","[""img/0761/3599fa54-18f9-488e-b402-e851c43586ff.jpg"",""img/0868/d98ca254-b195-477f-b57e-5760a2717db8.jpg""]","",""
"","3034","similarity","165","912634","0.0-6.0-159.0","2","[""img/0761/5ed865c0-8bfb-4310-9b47-690b3e450ca2.jpg"",""img/0886/c6c81122-f4bf-46f4-968b-167f8ed0cab3.jpg""]","",""
"","2857","similarity","166","916497","0.0-6.0-160.0","1","[""img/0874/7e4f2150-3b59-4a36-b5da-a4e0ba410531.jpg"",""img/0868/8b0b8473-e2c0-4331-aa56-c3a5c29369da.jpg""]","",""
"","2572","similarity","167","920081","0.0-6.0-161.0","1","[""img/0860/87039971-2210-4aab-93c0-8e9b5f1655b2.jpg"",""img/0874/85eb9b8a-c4c6-4e5a-b8e7-363a87a82054.jpg""]","",""
"","5142","similarity","168","926233","0.0-6.0-162.0","6","[""img/0883/ff85a2f1-14b1-4b7e-9c87-887151d97e01.jpg"",""img/0867/7d1c497b-c1b3-4ed8-abb5-d7f73306015f.jpg""]","",""
"","3757","similarity","169","931000","0.0-6.0-163.0","2","[""img/0758/20497cbe-ddae-489e-86e2-ab06985ed07c.jpg"",""img/0958/d3775867-a8f6-42ba-86ff-f86e85edba90.jpg""]","",""
"","4128","similarity","170","936144","0.0-6.0-164.0","2","[""img/0873/e5374873-a1a7-4689-a04c-a3b959992244.jpg"",""img/0757/1aca59fd-6030-4bb0-93c7-32a90f3237cf.jpg""]","",""
"","5987","similarity","171","943136","0.0-6.0-165.0","7","[""img/0873/87f38f18-48a2-4de3-b24b-70630e8b6ca0.jpg"",""img/0866/11a1d141-be5e-443c-98c1-a9d4d9e3dec0.jpg""]","",""
"","3311","similarity","172","947464","0.0-6.0-166.0","1","[""img/0875/03c3c331-738b-4446-af92-3d7386b08c2e.jpg"",""img/0867/6e19c858-b606-45b2-a4c6-910a73f1d82c.jpg""]","",""
"","3918","similarity","173","955214","0.0-6.0-167.0","7","[""img/0862/ad593cc7-cabe-4bb7-8e14-8a447a0717b4.jpg"",""img/0862/99a99e39-8355-44ec-b993-e7bcec111e1c.jpg""]","",""
"","2695","similarity","174","958919","0.0-6.0-168.0","2","[""img/0875/99698b4d-b4a1-44bc-8c83-8ea755bbbf61.jpg"",""img/0886/9ac18ff1-d3d9-4bfe-aa2e-ed5b28399f6c.jpg""]","",""
"","3283","similarity","175","963207","0.0-6.0-169.0","3","[""img/0885/a4e5c564-1e5f-4fed-9f73-b8d1becf62b6.jpg"",""img/0875/cff79b3a-a797-4393-9757-6275f999ec04.jpg""]","",""
"","2360","similarity","176","966575","0.0-6.0-170.0","2","[""img/0862/ee3b7bff-4a70-4e84-9bea-4a565e456acb.jpg"",""img/0867/db7e032f-162b-46f5-ae67-2b29679adee4.jpg""]","",""
"","5486","similarity","177","973070","0.0-6.0-171.0","4","[""img/0884/0b4cf8d4-4c8f-4312-a794-f99e01679176.jpg"",""img/0873/c2a7452d-a271-4207-81ce-bda281dc0297.jpg""]","",""
"","5764","similarity","178","979854","0.0-6.0-172.0","7","[""img/0873/b76d7003-814d-42b0-9a16-1399c4b0e706.jpg"",""img/0958/9be61b1d-099b-432a-ae0e-2aa69e157c0e.jpg""]","",""
"","2466","similarity","179","983326","0.0-6.0-173.0","2","[""img/0868/3a62db2d-97e9-44a3-b8e3-a48c6f0e423b.jpg"",""img/0758/caa93da2-9edf-49fa-96b9-32dedd8f5078.jpg""]","",""
"","2811","similarity","180","987150","0.0-6.0-174.0","2","[""img/0757/cd7fd185-981f-477a-ba00-a0f65bcfd0e9.jpg"",""img/0874/bf14b896-e930-4fd9-9c05-2e83317a2773.jpg""]","",""
"","5141","similarity","181","993301","0.0-6.0-175.0","1","[""img/0958/58b7811e-d3f6-4e4d-befb-86e063d13a43.jpg"",""img/0867/bf560d4f-dee3-4f11-a385-705cc1aa5f3c.jpg""]","",""
"","6202","similarity","182","1000509","0.0-6.0-176.0","4","[""img/0874/93d1f8dc-acf2-4f03-bd8d-8ec35df276ed.jpg"",""img/0760/812c848f-be21-4059-abe5-8c4f4ac9ad0f.jpg""]","",""
"","3555","similarity","183","1005069","0.0-6.0-177.0","1","[""img/0873/d74e4aa9-420d-48a3-a42f-30a3481536ae.jpg"",""img/0860/29a21a9f-54bb-4093-ad3f-04823ceaa89f.jpg""]","",""
"","3912","similarity","184","1009996","0.0-6.0-178.0","3","[""img/0881/f4e3e181-b3c9-4af2-a5a4-fc135ab70d2e.jpg"",""img/0883/68a56098-91b8-4c40-8827-7808704aa1bc.jpg""]","",""
"","2919","similarity","185","1013932","0.0-6.0-179.0","1","[""img/0886/48077111-b86b-4612-910f-90a5d168d77f.jpg"",""img/0958/5a91b0e8-8f60-4625-b88c-d6e55b4d7d93.jpg""]","",""
"","5794","similarity","186","1020739","0.0-6.0-180.0","6","[""img/0864/6f631579-acf1-415c-a42c-1207f62a8d99.jpg"",""img/0883/0e1ed5c7-0881-4bfd-b12f-6a53500e74f0.jpg""]","",""
"","2705","similarity","187","1024452","0.0-6.0-181.0","1","[""img/0756/b6e235f7-211b-4a2b-a7b8-393e5ec7351b.jpg"",""img/0868/1a62b2b2-18f5-466e-b564-5176a57c565e.jpg""]","",""
"","3472","similarity","188","1028931","0.0-6.0-182.0","1","[""img/0884/37ee4afa-34a0-4da2-bdb0-fcaff43dcdb6.jpg"",""img/0758/7ee8bc8f-c40b-4b3a-84ec-3e83580622d4.jpg""]","",""
"","2403","similarity","189","1032339","0.0-6.0-183.0","1","[""img/0875/f87b67d7-c33e-40d1-b281-248c4be1cb6e.jpg"",""img/0874/3ce41e7c-40c8-4d58-a546-171114521796.jpg""]","",""
"","5315","similarity","190","1038667","0.0-6.0-184.0","5","[""img/0867/98d8cd96-1476-4fe0-a3a3-04f875500a1b.jpg"",""img/0868/c8ac40c7-6904-4e13-8d61-c75d3052dc4e.jpg""]","",""
"","3581","similarity","191","1043267","0.0-6.0-185.0","3","[""img/0881/667e2147-d457-4f32-aa5f-6ab86e5848f1.jpg"",""img/0885/4fd0aafb-6cc0-43d6-993a-c55a6e18a7ba.jpg""]","",""
"","5939","similarity","192","1050210","0.0-6.0-186.0","7","[""img/0864/1ebbc554-99fa-49f9-8799-317375a79820.jpg"",""img/0761/aebad236-1f4a-4bc2-a74d-d92b7e226316.jpg""]","",""
"","2660","similarity","193","1053874","0.0-6.0-187.0","2","[""img/0885/5a47e19f-19b4-4545-bf47-b508cb65da6a.jpg"",""img/0874/29830da7-be5f-44e5-b141-652a0ccf7269.jpg""]","",""
"","4226","similarity","194","1059105","0.0-6.0-188.0","2","[""img/0758/6e95579b-5166-487c-b8cb-e417c6a218e3.jpg"",""img/0867/a749dddb-69f0-44a6-acdc-2bf295cf6dcc.jpg""]","",""
"","3096","similarity","195","1063217","0.0-6.0-189.0","1","[""img/0756/a940d622-200d-4df5-8896-60af56798bbe.jpg"",""img/0884/13db1f36-8c9f-4b28-8426-04eaa9fba737.jpg""]","",""
"","4041","similarity","196","1068265","0.0-6.0-190.0","3","[""img/0761/ff3e024b-951d-4aca-a168-c09c6507525d.jpg"",""img/0862/1c20f772-3a51-4a80-aac0-f57dc9f86c28.jpg""]","",""
"","3106","similarity","197","1072385","0.0-6.0-191.0","1","[""img/0860/4f695df5-afac-4da7-9875-fee39b0b24ad.jpg"",""img/0886/97243e18-4dba-4af8-b49f-b3b635c90ac4.jpg""]","",""
"","5371","similarity","198","1078768","0.0-6.0-192.0","2","[""img/0760/cbd28974-989a-49dd-b631-42de146d7e6f.jpg"",""img/0885/eb5e4557-1792-49c3-8871-16afa58f3a28.jpg""]","",""
"","4177","similarity","199","1083954","0.0-6.0-193.0","1","[""img/0886/451550d7-6ff9-42b5-938c-9e20ee960bf6.jpg"",""img/0868/4a8a45ed-2c4f-421b-9564-409a33ecd26c.jpg""]","",""
"","5317","similarity","200","1090290","0.0-6.0-194.0","4","[""img/0881/344de456-b358-4887-bd0e-e4c3278af887.jpg"",""img/0864/f92649a2-0590-4d31-9a7a-1bfb81666a2d.jpg""]","",""
"","3400","similarity","201","1094706","0.0-6.0-195.0","3","[""img/0866/4a87911a-d5be-4d4e-ab8e-3d1f581bf507.jpg"",""img/0868/293079b8-7e0c-4afd-a390-1e5d35fe3ded.jpg""]","",""
"","2967","similarity","202","1098687","0.0-6.0-196.0","3","[""img/0864/c3b63e8f-ea39-4d70-a1f2-b3fe4be8eb75.jpg"",""img/0958/eea2b7ca-1c37-4e76-ada7-a8b1f3afdc01.jpg""]","",""
"","3909","similarity","203","1103607","0.0-6.0-197.0","1","[""img/0757/10030bb1-70b8-4889-a8a5-ab50e145704d.jpg"",""img/0886/9b0bffbe-9237-404d-a0ba-a1982e0814c7.jpg""]","",""
"","4034","similarity","204","1108646","0.0-6.0-198.0","2","[""img/0758/e38fd80d-18d0-42f3-b848-f930788e8bd7.jpg"",""img/0883/29cba870-24df-4a0b-85cd-b680316ffe3d.jpg""]","",""
"","3844","similarity","205","1113494","0.0-6.0-199.0","3","[""img/0881/1407b85b-a1c6-45b1-9884-3b24203efadb.jpg"",""img/0958/fd950403-e452-4018-8207-a9714addcd75.jpg""]","",""
"","3288","similarity","206","1117790","0.0-6.0-200.0","2","[""img/0958/6e602e13-8029-4642-bce0-8deffd0dc686.jpg"",""img/0874/8cdb1c07-1c32-46d2-981c-3636560fa6e5.jpg""]","",""
"","2967","similarity","207","1121774","0.0-6.0-201.0","1","[""img/0885/ef0386f3-e5d4-481b-8894-60b80e08bbe8.jpg"",""img/0860/5383b320-1518-4095-a58e-5cc1ae30b64c.jpg""]","",""
"","2692","similarity","208","1125478","0.0-6.0-202.0","1","[""img/0875/2e13d160-eea1-416b-aff1-d37ab99ecc1d.jpg"",""img/0881/5fe04dd0-5c74-47b7-99c8-b068db9ca26a.jpg""]","",""
"","3154","similarity","209","1129637","0.0-6.0-203.0","1","[""img/0758/b76ceca7-95ac-46e4-ac13-da02c8e93be9.jpg"",""img/0860/fd4662f9-4c03-4d79-8593-06735e55a64b.jpg""]","",""
"","6453","similarity","210","1137101","0.0-6.0-204.0","6","[""img/0860/94ef7afc-e0e6-4a15-98c6-0bfac82bc832.jpg"",""img/0860/524b2e98-5767-4d53-942c-ebae6925659b.jpg""]","",""
"","4780","similarity","211","1142901","0.0-6.0-205.0","7","[""img/0874/ca76a855-4e77-4f2f-872a-0a718153e7ed.jpg"",""img/0874/a82926a3-0b43-4add-803c-d5f9ea7798ee.jpg""]","",""
"","4017","similarity","212","1147924","0.0-6.0-206.0","2","[""img/0883/724f020e-39d9-495c-abe1-b2e4504be9bc.jpg"",""img/0761/6b42b402-9e0f-4179-9e10-660b2c07626b.jpg""]","",""
"","4985","similarity","213","1153916","0.0-6.0-207.0","4","[""img/0761/6f9c1c71-e38d-4e3f-9062-39557812432a.jpg"",""img/0881/f62bdcd1-a4b7-4d48-83da-d9c9e01c8727.jpg""]","",""
"","3795","similarity","214","1158716","0.0-6.0-208.0","2","[""img/0760/36c930c0-2660-41c1-a356-77dafb18ae83.jpg"",""img/0756/64441928-baa3-49c8-a605-ee2370389b9f.jpg""]","",""
"","4925","similarity","215","1169330","0.0-6.0-209.0","3","[""img/0885/8cdf3204-e0f1-482b-9546-5edca3d81376.jpg"",""img/0757/b46cab21-50e3-4f19-803d-682627bcd6a6.jpg""]","",""
"[{""page_index"":0,""viewing_time"":9574}]","9574","instructions","216","1179906","0.0-7.0","","","",""
"","26635","image-multi-choice","217","1207559","0.0-8.0-0.0","","","{""Q0"":""Orange-crowned Warbler""}","Orange-crowned Warbler"
"","5041","image-multi-choice","218","1213613","0.0-8.0-1.0","","","{""Q0"":""Wilson's Warbler""}","Wilson's Warbler"
"","5941","image-multi-choice","219","1220572","0.0-8.0-2.0","","","{""Q0"":""Blackpoll Warbler""}","Blackpoll Warbler"
"","6546","image-multi-choice","220","1228132","0.0-8.0-3.0","","","{""Q0"":""Black-and-white Warbler""}","Black-and-white Warbler"
"","12333","image-multi-choice","221","1241491","0.0-8.0-4.0","","","{""Q0"":""Yellow-breasted Chat""}","Yellow-breasted Chat"
"","6217","image-multi-choice","222","1248723","0.0-8.0-5.0","","","{""Q0"":""Canada Warbler""}","Canada Warbler"
"","9650","image-multi-choice","223","1259394","0.0-8.0-6.0","","","{""Q0"":""Common Yellowthroat""}","Common Yellowthroat"
"","4331","image-multi-choice","224","1264745","0.0-8.0-7.0","","","{""Q0"":""American Redstart""}","American Redstart"
"","22674","image-multi-choice","225","1288441","0.0-8.0-8.0","","","{""Q0"":""Chestnut-sided Warbler""}","Chestnut-sided Warbler"
"","11188","image-multi-choice","226","1300647","0.0-8.0-9.0","","","{""Q0"":""Black-throated Green Warbler""}","Black-throated Green Warbler"
"","7681","image-multi-choice","227","1309339","0.0-8.0-10.0","","","{""Q0"":""Blackburnian Warbler""}","Blackburnian Warbler"
"","26259","image-multi-choice","228","1336622","0.0-8.0-11.0","","","{""Q0"":""Yellow-rumped Warbler""}","Yellow-rumped Warbler"
"","7450","image-multi-choice","229","1345101","0.0-8.0-12.0","","","{""Q0"":""Ovenbird""}","Ovenbird"
"","10781","image-multi-choice","230","1356900","0.0-8.0-13.0","","","{""Q0"":""Townsend's Warbler""}","Townsend's Warbler"
"","10733","image-multi-choice","231","1368644","0.0-8.0-14.0","","","{""Q0"":""Northern Waterthrush""}","Northern Waterthrush"
"","5716","image-multi-choice","232","1375372","0.0-8.0-15.0","","","{""Q0"":""Yellow Warbler""}","Yellow Warbler"
"","10863","image-multi-choice","233","1387259","0.0-8.0-16.0","","","{""Q0"":""Nashville Warbler""}","Nashville Warbler"
"","12303","image-multi-choice","234","1400586","0.0-8.0-17.0","","","{""Q0"":""Tennessee Warbler""}","Northern Parula"
"","26355","image-multi-choice","235","1427960","0.0-8.0-18.0","","","{""Q0"":""Orange-crowned Warbler""}","Tennessee Warbler"
"","13840","image-multi-choice","236","1442824","0.0-8.0-19.0","","","{""Q0"":""Magnolia Warbler""}","Magnolia Warbler"
