[{"view_history":"[{\"page_index\":0,\"viewing_time\":25413}]","rt":25416,"trial_type":"instructions","trial_index":0,"time_elapsed":25418,"internal_node_id":"0.0-0.0"},{"sim_score":4,"rt":6753,"stimulus":"[\"img/bluejay1.jpg\",\"img/bluejay2.jpg\"]","trial_type":"similarity_demo","trial_index":1,"time_elapsed":33185,"internal_node_id":"0.0-1.0"},{"view_history":"[{\"page_index\":0,\"viewing_time\":274809}]","rt":274810,"trial_type":"instructions","trial_index":2,"time_elapsed":309001,"internal_node_id":"0.0-2.0"},{"sim_score":5,"rt":9782,"stimulus":"[\"img/bluejay1.jpg\",\"img/cardinal1.jpg\"]","trial_type":"similarity_demo","trial_index":3,"time_elapsed":319790,"internal_node_id":"0.0-3.0"},{"view_history":"[{\"page_index\":0,\"viewing_time\":6314}]","rt":6314,"trial_type":"instructions","trial_index":4,"time_elapsed":327114,"internal_node_id":"0.0-4.0"},{"view_history":"[{\"page_index\":0,\"viewing_time\":26512}]","rt":26512,"trial_type":"instructions","trial_index":5,"time_elapsed":354632,"internal_node_id":"0.0-5.0"},{"sim_score":3,"rt":8886,"stimulus":"[\"img/0864/ef9cbca0-4be8-435d-ad49-977259e80409.jpg\",\"img/0860/29a21a9f-54bb-4093-ad3f-04823ceaa89f.jpg\"]","trial_type":"similarity","trial_index":6,"time_elapsed":364533,"internal_node_id":"0.0-6.0-0.0"},{"sim_score":5,"rt":6922,"stimulus":"[\"img/0884/967c63af-8f6a-483f-9122-0c79d97fd22e.jpg\",\"img/0760/cbd28974-989a-49dd-b631-42de146d7e6f.jpg\"]","trial_type":"similarity","trial_index":7,"time_elapsed":372467,"internal_node_id":"0.0-6.0-1.0"},{"sim_score":5,"rt":8802,"stimulus":"[\"img/0886/48077111-b86b-4612-910f-90a5d168d77f.jpg\",\"img/0881/33d65d80-8a8e-4ecf-852d-0ad7725c17a2.jpg\"]","trial_type":"similarity","trial_index":8,"time_elapsed":382287,"internal_node_id":"0.0-6.0-2.0"},{"sim_score":5,"rt":6608,"stimulus":"[\"img/0866/6f2a90d7-14f1-4f1b-bd64-fc0af6b9fe44.jpg\",\"img/0881/d1982897-8d8d-4704-a940-1ee5d07a1f15.jpg\"]","trial_type":"similarity","trial_index":9,"time_elapsed":389901,"internal_node_id":"0.0-6.0-3.0"},{"sim_score":5,"rt":7225,"stimulus":"[\"img/0868/7b212364-ff5f-4e28-9241-7eb6ea00161b.jpg\",\"img/0885/1cd940ef-9720-4a04-8fa1-1dd3a39ecdd6.jpg\"]","trial_type":"similarity","trial_index":10,"time_elapsed":398133,"internal_node_id":"0.0-6.0-4.0"},{"sim_score":3,"rt":6704,"stimulus":"[\"img/0757/e2cf79e3-9d9f-49eb-a09d-0028ca21d242.jpg\",\"img/0866/02f5e6b9-52b7-448c-9708-5b460d0c9a23.jpg\"]","trial_type":"similarity","trial_index":11,"time_elapsed":405843,"internal_node_id":"0.0-6.0-5.0"},{"sim_score":5,"rt":5052,"stimulus":"[\"img/0868/179a5502-ab5c-478e-8263-5a1fbcc101d2.jpg\",\"img/0864/e8bd659f-aa43-4748-877e-3118e8b4e189.jpg\"]","trial_type":"similarity","trial_index":12,"time_elapsed":411916,"internal_node_id":"0.0-6.0-6.0"},{"sim_score":7,"rt":5064,"stimulus":"[\"img/0864/4bd81bc6-c13d-46df-95a9-485886dc7c1b.jpg\",\"img/0864/1ebbc554-99fa-49f9-8799-317375a79820.jpg\"]","trial_type":"similarity","trial_index":13,"time_elapsed":417999,"internal_node_id":"0.0-6.0-7.0"},{"sim_score":5,"rt":5502,"stimulus":"[\"img/0757/cd7fd185-981f-477a-ba00-a0f65bcfd0e9.jpg\",\"img/0881/4da99fdd-1f40-4bbb-8e21-8833eef313f5.jpg\"]","trial_type":"similarity","trial_index":14,"time_elapsed":424506,"internal_node_id":"0.0-6.0-8.0"},{"sim_score":5,"rt":21830,"stimulus":"[\"img/0886/1870a791-dfee-471e-8417-197d4a53c75a.jpg\",\"img/0760/868961d8-3272-4d3c-9c8b-9d183315cabc.jpg\"]","trial_type":"similarity","trial_index":15,"time_elapsed":447343,"internal_node_id":"0.0-6.0-9.0"},{"sim_score":5,"rt":11533,"stimulus":"[\"img/0884/d8ffab77-40df-44ba-bf27-70815b052250.jpg\",\"img/0883/29cba870-24df-4a0b-85cd-b680316ffe3d.jpg\"]","trial_type":"similarity","trial_index":16,"time_elapsed":459882,"internal_node_id":"0.0-6.0-10.0"},{"sim_score":5,"rt":8531,"stimulus":"[\"img/0874/2c9464dd-8a23-4baa-ac94-1ba3af5c15cc.jpg\",\"img/0862/47ed5efd-4ec9-4b74-bb4e-a5f5cf0c3e7d.jpg\"]","trial_type":"similarity","trial_index":17,"time_elapsed":469424,"internal_node_id":"0.0-6.0-11.0"},{"sim_score":3,"rt":5738,"stimulus":"[\"img/0862/ba89835a-408c-480b-8594-ed4ffa97eb5c.jpg\",\"img/0875/f87b67d7-c33e-40d1-b281-248c4be1cb6e.jpg\"]","trial_type":"similarity","trial_index":18,"time_elapsed":476170,"internal_node_id":"0.0-6.0-12.0"},{"sim_score":3,"rt":8627,"stimulus":"[\"img/0875/cff79b3a-a797-4393-9757-6275f999ec04.jpg\",\"img/0757/10030bb1-70b8-4889-a8a5-ab50e145704d.jpg\"]","trial_type":"similarity","trial_index":19,"time_elapsed":485803,"internal_node_id":"0.0-6.0-13.0"},{"sim_score":5,"rt":7426,"stimulus":"[\"img/0875/dbdd643e-6d0e-4a5c-ab57-b9c29b9c981a.jpg\",\"img/0860/71e1aad0-2cdf-43bb-94a4-a8c016997c30.jpg\"]","trial_type":"similarity","trial_index":20,"time_elapsed":494234,"internal_node_id":"0.0-6.0-14.0"},{"sim_score":6,"rt":7474,"stimulus":"[\"img/0860/18dfed73-e36b-4487-a8bd-0b8cff8e3668.jpg\",\"img/0881/ee44e27f-d662-4608-b265-e7ffa19b216f.jpg\"]","trial_type":"similarity","trial_index":21,"time_elapsed":502728,"internal_node_id":"0.0-6.0-15.0"},{"sim_score":6,"rt":7442,"stimulus":"[\"img/0885/fbbfaacd-e49b-4d37-a2f9-fcaffa58f26f.jpg\",\"img/0884/d9185264-7f01-43b2-be7f-eed1a0f0f2e8.jpg\"]","trial_type":"similarity","trial_index":22,"time_elapsed":511176,"internal_node_id":"0.0-6.0-16.0"},{"sim_score":7,"rt":5980,"stimulus":"[\"img/0761/e18d2113-1ed1-4a80-8171-4be5ee28d343.jpg\",\"img/0761/1725cacb-5f86-4b47-a5c0-3c36cd981588.jpg\"]","trial_type":"similarity","trial_index":23,"time_elapsed":518164,"internal_node_id":"0.0-6.0-17.0"},{"sim_score":6,"rt":7780,"stimulus":"[\"img/0760/e697857f-b21d-4c49-8cde-1b803b437311.jpg\",\"img/0864/6f631579-acf1-415c-a42c-1207f62a8d99.jpg\"]","trial_type":"similarity","trial_index":24,"time_elapsed":526964,"internal_node_id":"0.0-6.0-18.0"},{"sim_score":3,"rt":5759,"stimulus":"[\"img/0864/5f74a653-3bdc-4308-8cca-ac667dc22e1f.jpg\",\"img/0875/42910c99-5463-450a-a0f8-d4d060a11455.jpg\"]","trial_type":"similarity","trial_index":25,"time_elapsed":533732,"internal_node_id":"0.0-6.0-19.0"},{"sim_score":3,"rt":6158,"stimulus":"[\"img/0874/29830da7-be5f-44e5-b141-652a0ccf7269.jpg\",\"img/0884/5085d424-b3f5-461b-a1c7-f7ca55abcf4f.jpg\"]","trial_type":"similarity","trial_index":26,"time_elapsed":540896,"internal_node_id":"0.0-6.0-20.0"},{"sim_score":3,"rt":6727,"stimulus":"[\"img/0885/5225e532-2812-41d9-8ef0-0fbfc612784e.jpg\",\"img/0866/a04d37f0-99dd-478a-b6c6-58b215138f84.jpg\"]","trial_type":"similarity","trial_index":27,"time_elapsed":548640,"internal_node_id":"0.0-6.0-21.0"},{"sim_score":5,"rt":5997,"stimulus":"[\"img/0868/0d3abd3a-b6c3-4584-a9f7-e2da63748b3d.jpg\",\"img/0868/c8ac40c7-6904-4e13-8d61-c75d3052dc4e.jpg\"]","trial_type":"similarity","trial_index":28,"time_elapsed":555642,"internal_node_id":"0.0-6.0-22.0"},{"sim_score":5,"rt":6136,"stimulus":"[\"img/0757/76206a63-e02d-4beb-a85a-ed1b5527bc36.jpg\",\"img/0756/321ae2a8-5dd4-4b23-b1e4-202e0b7c0b02.jpg\"]","trial_type":"similarity","trial_index":29,"time_elapsed":562782,"internal_node_id":"0.0-6.0-23.0"},{"sim_score":6,"rt":6600,"stimulus":"[\"img/0875/e7e66b13-b573-431e-b85e-288ce04a35a3.jpg\",\"img/0875/527ced51-8e53-4aab-ab05-86df219104c0.jpg\"]","trial_type":"similarity","trial_index":30,"time_elapsed":570394,"internal_node_id":"0.0-6.0-24.0"},{"sim_score":3,"rt":5521,"stimulus":"[\"img/0761/b8f211c0-f640-43a2-b101-101774517d95.jpg\",\"img/0866/8efcaa46-83ab-4dee-a35f-850402aa21ae.jpg\"]","trial_type":"similarity","trial_index":31,"time_elapsed":576934,"internal_node_id":"0.0-6.0-25.0"},{"sim_score":3,"rt":5387,"stimulus":"[\"img/0866/9b38d691-1802-4959-ab3f-fc902f0e4ea6.jpg\",\"img/0758/d41c06bf-ebaf-454b-91c6-1a17f917b659.jpg\"]","trial_type":"similarity","trial_index":32,"time_elapsed":583330,"internal_node_id":"0.0-6.0-26.0"},{"sim_score":2,"rt":5683,"stimulus":"[\"img/0758/e1ba5e53-addc-436a-b428-d34fc1b130dc.jpg\",\"img/0875/5a1e5100-0d94-4fec-bbe9-ca9894d2cf8e.jpg\"]","trial_type":"similarity","trial_index":33,"time_elapsed":590026,"internal_node_id":"0.0-6.0-27.0"},{"sim_score":3,"rt":5286,"stimulus":"[\"img/0958/acbadc39-e665-446d-b98f-ccd0ef3223d6.jpg\",\"img/0757/20c59f64-1fc2-448d-8423-42cbd8fe0164.jpg\"]","trial_type":"similarity","trial_index":34,"time_elapsed":596319,"internal_node_id":"0.0-6.0-28.0"},{"sim_score":3,"rt":5535,"stimulus":"[\"img/0873/226317e0-f0e7-42ea-907b-058cb1ad519a.jpg\",\"img/0883/eff15ce5-9393-443c-829f-71242d1c56d0.jpg\"]","trial_type":"similarity","trial_index":35,"time_elapsed":602857,"internal_node_id":"0.0-6.0-29.0"},{"sim_score":7,"rt":4700,"stimulus":"[\"img/0868/5fa7f9d0-f0e5-454c-8224-74d964818f56.jpg\",\"img/0875/5a716432-c6ca-4b1c-955a-2b8ac25198ee.jpg\"]","trial_type":"similarity","trial_index":36,"time_elapsed":608573,"internal_node_id":"0.0-6.0-30.0"},{"sim_score":3,"rt":4585,"stimulus":"[\"img/0884/a6389ab4-3291-4434-9b91-eeae3b04fce4.jpg\",\"img/0862/57b6f83f-c763-4858-830d-102f97bfefbf.jpg\"]","trial_type":"similarity","trial_index":37,"time_elapsed":614177,"internal_node_id":"0.0-6.0-31.0"},{"sim_score":3,"rt":8209,"stimulus":"[\"img/0884/7ae02e9d-46a4-4124-bcc2-cad90d7ef9f9.jpg\",\"img/0864/66091c27-e588-4476-8af9-265dc6be4156.jpg\"]","trial_type":"similarity","trial_index":38,"time_elapsed":623392,"internal_node_id":"0.0-6.0-32.0"},{"sim_score":3,"rt":5490,"stimulus":"[\"img/0883/599aacc5-bb0f-4dea-852c-9a27727eb0b9.jpg\",\"img/0958/5a91b0e8-8f60-4625-b88c-d6e55b4d7d93.jpg\"]","trial_type":"similarity","trial_index":39,"time_elapsed":629887,"internal_node_id":"0.0-6.0-33.0"},{"sim_score":3,"rt":4673,"stimulus":"[\"img/0864/a248adb3-c70b-4652-b7a3-776d2a1e904b.jpg\",\"img/0756/b8d6aa83-8673-4e0d-be72-b3da2bae7a6d.jpg\"]","trial_type":"similarity","trial_index":40,"time_elapsed":635565,"internal_node_id":"0.0-6.0-34.0"},{"sim_score":6,"rt":6764,"stimulus":"[\"img/0874/eba003b4-cdab-4eee-8bc3-f064c7d94165.jpg\",\"img/0758/7ee8bc8f-c40b-4b3a-84ec-3e83580622d4.jpg\"]","trial_type":"similarity","trial_index":41,"time_elapsed":643337,"internal_node_id":"0.0-6.0-35.0"},{"sim_score":3,"rt":6309,"stimulus":"[\"img/0886/c6c81122-f4bf-46f4-968b-167f8ed0cab3.jpg\",\"img/0862/064818ee-13d5-4618-bb24-21c7368ea278.jpg\"]","trial_type":"similarity","trial_index":42,"time_elapsed":650653,"internal_node_id":"0.0-6.0-36.0"},{"sim_score":3,"rt":5256,"stimulus":"[\"img/0862/d0ca4c78-fc35-46ed-bdcc-8e124283c53e.jpg\",\"img/0885/517a9189-9623-4ed7-a37e-48788791e028.jpg\"]","trial_type":"similarity","trial_index":43,"time_elapsed":656929,"internal_node_id":"0.0-6.0-37.0"},{"sim_score":6,"rt":6532,"stimulus":"[\"img/0758/821c68d3-5cb0-4eae-8659-30e6263fca39.jpg\",\"img/0864/6e846d43-94a6-4b37-a268-65eda979f052.jpg\"]","trial_type":"similarity","trial_index":44,"time_elapsed":664475,"internal_node_id":"0.0-6.0-38.0"},{"sim_score":5,"rt":6131,"stimulus":"[\"img/0873/c2a7452d-a271-4207-81ce-bda281dc0297.jpg\",\"img/0867/1719a35d-f085-48c0-9099-16c94fe418b4.jpg\"]","trial_type":"similarity","trial_index":45,"time_elapsed":671624,"internal_node_id":"0.0-6.0-39.0"},{"sim_score":5,"rt":5700,"stimulus":"[\"img/0958/df7705da-e817-409f-8a93-05abef4b26c3.jpg\",\"img/0884/37ee4afa-34a0-4da2-bdb0-fcaff43dcdb6.jpg\"]","trial_type":"similarity","trial_index":46,"time_elapsed":678343,"internal_node_id":"0.0-6.0-40.0"},{"sim_score":6,"rt":7347,"stimulus":"[\"img/0873/0c7f3d86-efda-4809-aac4-256ba01e0536.jpg\",\"img/0873/6110910a-7895-4b6a-af51-12486a4595a3.jpg\"]","trial_type":"similarity","trial_index":47,"time_elapsed":697290,"internal_node_id":"0.0-6.0-41.0"},{"sim_score":3,"rt":5566,"stimulus":"[\"img/0886/abd8dd83-d8ee-4003-b4d2-b4045220a578.jpg\",\"img/0758/a085b443-b5d7-4cb2-9ad4-b9dab0fc23f1.jpg\"]","trial_type":"similarity","trial_index":48,"time_elapsed":703863,"internal_node_id":"0.0-6.0-42.0"},{"sim_score":3,"rt":5243,"stimulus":"[\"img/0883/3835edeb-1d59-4781-b10f-c26b9eaf6fd1.jpg\",\"img/0874/767f289c-9814-4496-803f-745cc8913d1f.jpg\"]","trial_type":"similarity","trial_index":49,"time_elapsed":710127,"internal_node_id":"0.0-6.0-43.0"},{"sim_score":5,"rt":4635,"stimulus":"[\"img/0881/db77fe00-aeb0-4d1d-aa66-f3a96fd077e4.jpg\",\"img/0873/b76d7003-814d-42b0-9a16-1399c4b0e706.jpg\"]","trial_type":"similarity","trial_index":50,"time_elapsed":715766,"internal_node_id":"0.0-6.0-44.0"},{"sim_score":3,"rt":4935,"stimulus":"[\"img/0867/98d8cd96-1476-4fe0-a3a3-04f875500a1b.jpg\",\"img/0757/efa4466e-2951-4af9-b321-85458a89c2a7.jpg\"]","trial_type":"similarity","trial_index":51,"time_elapsed":721706,"internal_node_id":"0.0-6.0-45.0"},{"sim_score":2,"rt":5681,"stimulus":"[\"img/0866/23a224f3-2012-4fc8-8e0f-3c36f8de27fd.jpg\",\"img/0874/ca76a855-4e77-4f2f-872a-0a718153e7ed.jpg\"]","trial_type":"similarity","trial_index":52,"time_elapsed":728392,"internal_node_id":"0.0-6.0-46.0"},{"sim_score":5,"rt":6378,"stimulus":"[\"img/0886/9ac18ff1-d3d9-4bfe-aa2e-ed5b28399f6c.jpg\",\"img/0886/b8648eb5-de71-41ab-825d-848e51be8c1b.jpg\"]","trial_type":"similarity","trial_index":53,"time_elapsed":735776,"internal_node_id":"0.0-6.0-47.0"},{"sim_score":3,"rt":5501,"stimulus":"[\"img/0883/b5e903b5-bc7f-421c-bf3e-245779ac90c9.jpg\",\"img/0860/e8b8c51e-1834-4875-8b61-6c5bc9b178bd.jpg\"]","trial_type":"similarity","trial_index":54,"time_elapsed":742282,"internal_node_id":"0.0-6.0-48.0"},{"sim_score":2,"rt":6065,"stimulus":"[\"img/0860/e14d67c1-6d92-4f1e-9257-c8607159c19c.jpg\",\"img/0756/c7199ce2-2203-43c6-90d7-78f77277b522.jpg\"]","trial_type":"similarity","trial_index":55,"time_elapsed":749353,"internal_node_id":"0.0-6.0-49.0"},{"sim_score":3,"rt":6268,"stimulus":"[\"img/0860/8277806e-b684-4474-8f7b-3fca946d7d4f.jpg\",\"img/0757/4faaa503-45d9-43fa-bddb-707274a341ff.jpg\"]","trial_type":"similarity","trial_index":56,"time_elapsed":756626,"internal_node_id":"0.0-6.0-50.0"},{"sim_score":7,"rt":4808,"stimulus":"[\"img/0756/5dba4151-3cf5-42f5-8dd9-7c6128318b01.jpg\",\"img/0756/9a7a2119-24a3-431f-95e6-62f596bf88e2.jpg\"]","trial_type":"similarity","trial_index":57,"time_elapsed":762440,"internal_node_id":"0.0-6.0-51.0"},{"sim_score":6,"rt":8165,"stimulus":"[\"img/0875/03c3c331-738b-4446-af92-3d7386b08c2e.jpg\",\"img/0866/620cd1aa-0800-4414-8f6e-90342e7a99ad.jpg\"]","trial_type":"similarity","trial_index":58,"time_elapsed":771610,"internal_node_id":"0.0-6.0-52.0"},{"sim_score":6,"rt":7180,"stimulus":"[\"img/0756/a8246880-fb51-43bb-b25d-905e6e0d7880.jpg\",\"img/0758/eabcd7a8-56ad-4fd2-bc24-90f6b7b33265.jpg\"]","trial_type":"similarity","trial_index":59,"time_elapsed":779796,"internal_node_id":"0.0-6.0-53.0"},{"sim_score":5,"rt":5725,"stimulus":"[\"img/0761/8e379ec1-757d-4427-a0ff-d4efdd6a50c4.jpg\",\"img/0884/ee845634-cd54-4c06-95a9-962122ef8712.jpg\"]","trial_type":"similarity","trial_index":60,"time_elapsed":786536,"internal_node_id":"0.0-6.0-54.0"},{"sim_score":2,"rt":5334,"stimulus":"[\"img/0760/d96a9342-5d16-403a-9f95-e062f795d968.jpg\",\"img/0867/5e07b34d-b40f-4b1c-ac10-49975bace45f.jpg\"]","trial_type":"similarity","trial_index":61,"time_elapsed":792886,"internal_node_id":"0.0-6.0-55.0"},{"sim_score":3,"rt":4716,"stimulus":"[\"img/0866/11a1d141-be5e-443c-98c1-a9d4d9e3dec0.jpg\",\"img/0884/10c0a35b-e20a-4d75-a7c0-959a578d9ebf.jpg\"]","trial_type":"similarity","trial_index":62,"time_elapsed":798608,"internal_node_id":"0.0-6.0-56.0"},{"sim_score":3,"rt":5805,"stimulus":"[\"img/0756/00b775eb-fe41-49b2-92e9-a9955cf1042b.jpg\",\"img/0761/6f9c1c71-e38d-4e3f-9062-39557812432a.jpg\"]","trial_type":"similarity","trial_index":63,"time_elapsed":805426,"internal_node_id":"0.0-6.0-57.0"},{"sim_score":3,"rt":5131,"stimulus":"[\"img/0867/ac1797e4-8afc-48fe-b252-86d1defb1cca.jpg\",\"img/0860/9593362c-9fe5-4d12-9735-6000a11f6aa5.jpg\"]","trial_type":"similarity","trial_index":64,"time_elapsed":811564,"internal_node_id":"0.0-6.0-58.0"},{"sim_score":6,"rt":8455,"stimulus":"[\"img/0881/f62bdcd1-a4b7-4d48-83da-d9c9e01c8727.jpg\",\"img/0758/2fa3e613-e676-4e6e-bd12-705327eeb3e1.jpg\"]","trial_type":"similarity","trial_index":65,"time_elapsed":821035,"internal_node_id":"0.0-6.0-59.0"},{"sim_score":6,"rt":10660,"stimulus":"[\"img/0761/6b42b402-9e0f-4179-9e10-660b2c07626b.jpg\",\"img/0758/20497cbe-ddae-489e-86e2-ab06985ed07c.jpg\"]","trial_type":"similarity","trial_index":66,"time_elapsed":832712,"internal_node_id":"0.0-6.0-60.0"},{"sim_score":2,"rt":5060,"stimulus":"[\"img/0958/ba5ed153-96de-4f61-b7d9-87a478c8972c.jpg\",\"img/0875/8521fd58-3b1e-4dc5-97ae-804edfa6734a.jpg\"]","trial_type":"similarity","trial_index":67,"time_elapsed":838792,"internal_node_id":"0.0-6.0-61.0"},{"sim_score":2,"rt":4978,"stimulus":"[\"img/0886/4d28f75a-a9c3-49dd-8aa8-00304af6e40b.jpg\",\"img/0864/c3b63e8f-ea39-4d70-a1f2-b3fe4be8eb75.jpg\"]","trial_type":"similarity","trial_index":68,"time_elapsed":844780,"internal_node_id":"0.0-6.0-62.0"},{"sim_score":5,"rt":9716,"stimulus":"[\"img/0756/dbe25ae4-de3f-44b2-907f-6f2fc03ed1f0.jpg\",\"img/0874/3ce41e7c-40c8-4d58-a546-171114521796.jpg\"]","trial_type":"similarity","trial_index":69,"time_elapsed":855502,"internal_node_id":"0.0-6.0-63.0"},{"sim_score":2,"rt":4319,"stimulus":"[\"img/0758/6cd8c362-ae2a-41eb-80a3-3a4f7ace1530.jpg\",\"img/0885/a4e5c564-1e5f-4fed-9f73-b8d1becf62b6.jpg\"]","trial_type":"similarity","trial_index":70,"time_elapsed":860830,"internal_node_id":"0.0-6.0-64.0"},{"sim_score":3,"rt":5433,"stimulus":"[\"img/0760/36c930c0-2660-41c1-a356-77dafb18ae83.jpg\",\"img/0958/1812c506-727b-43a7-882e-4729742e41fc.jpg\"]","trial_type":"similarity","trial_index":71,"time_elapsed":867270,"internal_node_id":"0.0-6.0-65.0"},{"sim_score":2,"rt":5812,"stimulus":"[\"img/0884/3c61ea12-a408-47ce-98aa-b14e0f6d4591.jpg\",\"img/0881/4bd34581-94d8-4e88-8c89-5cef864ca3be.jpg\"]","trial_type":"similarity","trial_index":72,"time_elapsed":874086,"internal_node_id":"0.0-6.0-66.0"},{"sim_score":2,"rt":5924,"stimulus":"[\"img/0864/9b2490c5-a282-400a-9736-e1a0ecbf1cb7.jpg\",\"img/0873/0d9b4403-7f26-46dc-b0b7-2b97b0a91b46.jpg\"]","trial_type":"similarity","trial_index":73,"time_elapsed":881025,"internal_node_id":"0.0-6.0-67.0"},{"sim_score":5,"rt":5579,"stimulus":"[\"img/0862/1c20f772-3a51-4a80-aac0-f57dc9f86c28.jpg\",\"img/0758/67c0be2f-9e91-48b3-8219-70ac0a1802fa.jpg\"]","trial_type":"similarity","trial_index":74,"time_elapsed":887610,"internal_node_id":"0.0-6.0-68.0"},{"sim_score":7,"rt":6658,"stimulus":"[\"img/0757/cb7ca802-27ac-4a1d-996f-bd21b96d6244.jpg\",\"img/0757/424b465f-ba69-4277-bc61-d3e95d136f80.jpg\"]","trial_type":"similarity","trial_index":75,"time_elapsed":895273,"internal_node_id":"0.0-6.0-69.0"},{"sim_score":2,"rt":5901,"stimulus":"[\"img/0860/87039971-2210-4aab-93c0-8e9b5f1655b2.jpg\",\"img/0862/a0a3a7ba-7798-46a3-b4ca-05e1f6e581d0.jpg\"]","trial_type":"similarity","trial_index":76,"time_elapsed":902181,"internal_node_id":"0.0-6.0-70.0"},{"sim_score":6,"rt":5036,"stimulus":"[\"img/0860/5383b320-1518-4095-a58e-5cc1ae30b64c.jpg\",\"img/0884/9b1b7885-1502-448f-9b20-ddc19aa5456f.jpg\"]","trial_type":"similarity","trial_index":77,"time_elapsed":908227,"internal_node_id":"0.0-6.0-71.0"},{"sim_score":5,"rt":5689,"stimulus":"[\"img/0883/c6db9b70-f16c-47ee-a408-c9278365ae54.jpg\",\"img/0866/f756f7d1-9ad8-4a34-9ef6-7a443d705bfe.jpg\"]","trial_type":"similarity","trial_index":78,"time_elapsed":914921,"internal_node_id":"0.0-6.0-72.0"},{"sim_score":3,"rt":5977,"stimulus":"[\"img/0866/d493a2c8-66eb-44b4-be02-2f327b700b7c.jpg\",\"img/0886/aef00ed5-e288-47bf-b31e-512d7e762ea2.jpg\"]","trial_type":"similarity","trial_index":79,"time_elapsed":921907,"internal_node_id":"0.0-6.0-73.0"},{"sim_score":3,"rt":5893,"stimulus":"[\"img/0958/6e602e13-8029-4642-bce0-8deffd0dc686.jpg\",\"img/0761/af21c992-a721-45fb-bee7-f50c0f676c30.jpg\"]","trial_type":"similarity","trial_index":80,"time_elapsed":928805,"internal_node_id":"0.0-6.0-74.0"},{"sim_score":3,"rt":6215,"stimulus":"[\"img/0875/99698b4d-b4a1-44bc-8c83-8ea755bbbf61.jpg\",\"img/0756/7a83dec0-4724-4efc-9fbf-52a30b5acd99.jpg\"]","trial_type":"similarity","trial_index":81,"time_elapsed":936029,"internal_node_id":"0.0-6.0-75.0"},{"sim_score":2,"rt":4951,"stimulus":"[\"img/0958/d4138705-0a9d-4141-9af9-205e69367c44.jpg\",\"img/0885/24afeefb-f7b3-4e8f-a5b9-17cc00fd22e3.jpg\"]","trial_type":"similarity","trial_index":82,"time_elapsed":941991,"internal_node_id":"0.0-6.0-76.0"},{"sim_score":3,"rt":6597,"stimulus":"[\"img/0868/4e626425-63c8-484a-8a1d-e66ee4e0bef8.jpg\",\"img/0883/724f020e-39d9-495c-abe1-b2e4504be9bc.jpg\"]","trial_type":"similarity","trial_index":83,"time_elapsed":949597,"internal_node_id":"0.0-6.0-77.0"},{"sim_score":3,"rt":5353,"stimulus":"[\"img/0862/cdaed51d-9e2f-4807-801a-4663c40077e2.jpg\",\"img/0760/237fa1c2-d59d-4475-8d1e-f9a4eb71f989.jpg\"]","trial_type":"similarity","trial_index":84,"time_elapsed":955955,"internal_node_id":"0.0-6.0-78.0"},{"sim_score":3,"rt":5349,"stimulus":"[\"img/0885/8cdf3204-e0f1-482b-9546-5edca3d81376.jpg\",\"img/0761/176fde97-0334-4d2b-8a7a-38960c2528f3.jpg\"]","trial_type":"similarity","trial_index":85,"time_elapsed":962309,"internal_node_id":"0.0-6.0-79.0"},{"sim_score":3,"rt":5698,"stimulus":"[\"img/0862/24cdc752-c2e5-4a17-86a6-6f2045d8553b.jpg\",\"img/0864/5f33e097-23e3-4002-882d-76e8cb15f451.jpg\"]","trial_type":"similarity","trial_index":86,"time_elapsed":969013,"internal_node_id":"0.0-6.0-80.0"},{"sim_score":7,"rt":5512,"stimulus":"[\"img/0758/e38fd80d-18d0-42f3-b848-f930788e8bd7.jpg\",\"img/0758/7ffbc76b-1fc1-432c-8f7e-9ec8d1b3f643.jpg\"]","trial_type":"similarity","trial_index":87,"time_elapsed":975531,"internal_node_id":"0.0-6.0-81.0"},{"sim_score":6,"rt":8859,"stimulus":"[\"img/0862/fb26cb07-d5a9-4653-813c-f41609f26cd5.jpg\",\"img/0873/ec150e40-b3ec-4dfe-ab38-bb3f248a1175.jpg\"]","trial_type":"similarity","trial_index":88,"time_elapsed":985399,"internal_node_id":"0.0-6.0-82.0"},{"sim_score":5,"rt":5468,"stimulus":"[\"img/0760/9ddd6958-7349-45d6-b5bc-4a5911960c35.jpg\",\"img/0757/0668efad-1c92-425c-9aa9-2bbe833fd777.jpg\"]","trial_type":"similarity","trial_index":89,"time_elapsed":1008155,"internal_node_id":"0.0-6.0-83.0"},{"sim_score":3,"rt":6193,"stimulus":"[\"img/0867/f8488a47-94ee-4166-952c-44e16cf172f6.jpg\",\"img/0881/c843e210-bdfe-4a7c-8bbe-fcea1f90fe1c.jpg\"]","trial_type":"similarity","trial_index":90,"time_elapsed":1015354,"internal_node_id":"0.0-6.0-84.0"},{"sim_score":3,"rt":5576,"stimulus":"[\"img/0885/f4ed5442-1f5c-4a69-abe6-8336ed11ec77.jpg\",\"img/0886/0f9715c1-b2e4-418e-bf9b-126cc9e70dc6.jpg\"]","trial_type":"similarity","trial_index":91,"time_elapsed":1021936,"internal_node_id":"0.0-6.0-85.0"},{"sim_score":2,"rt":4679,"stimulus":"[\"img/0866/bf14b5bd-fb55-47db-86b9-4f8aeb9a6dad.jpg\",\"img/0864/e336a4c5-6648-4fd7-b2f6-93a3fb83f8c6.jpg\"]","trial_type":"similarity","trial_index":92,"time_elapsed":1027620,"internal_node_id":"0.0-6.0-86.0"},{"sim_score":6,"rt":5846,"stimulus":"[\"img/0874/995f0332-0439-4eb4-add3-957335dbf6d9.jpg\",\"img/0881/566f45f8-5fed-4479-a60f-26377e60a62d.jpg\"]","trial_type":"similarity","trial_index":93,"time_elapsed":1034476,"internal_node_id":"0.0-6.0-87.0"},{"sim_score":5,"rt":5942,"stimulus":"[\"img/0866/07c9c966-3c8d-40e7-8128-92b2acbaed5d.jpg\",\"img/0760/135d76ab-2bf3-4dc9-8509-92983dc9893d.jpg\"]","trial_type":"similarity","trial_index":94,"time_elapsed":1041422,"internal_node_id":"0.0-6.0-88.0"},{"sim_score":5,"rt":5755,"stimulus":"[\"img/0867/7d1c497b-c1b3-4ed8-abb5-d7f73306015f.jpg\",\"img/0884/a416b0d1-f903-4935-b89f-99c29683752b.jpg\"]","trial_type":"similarity","trial_index":95,"time_elapsed":1048194,"internal_node_id":"0.0-6.0-89.0"},{"sim_score":3,"rt":11609,"stimulus":"[\"img/0757/31d8ee3d-1b79-4d6a-9347-f91c87c00f92.jpg\",\"img/0862/f188d4f0-76a4-4102-818c-a209969d73a5.jpg\"]","trial_type":"similarity","trial_index":96,"time_elapsed":1060817,"internal_node_id":"0.0-6.0-90.0"},{"sim_score":3,"rt":4779,"stimulus":"[\"img/0867/c66898ba-b71b-4d50-84f9-f7f84853a98d.jpg\",\"img/0761/07f8178b-8ce5-42d6-bca0-a0ae0e0e8eb3.jpg\"]","trial_type":"similarity","trial_index":97,"time_elapsed":1066607,"internal_node_id":"0.0-6.0-91.0"},{"sim_score":3,"rt":4214,"stimulus":"[\"img/0868/fd307a36-9a3a-47d7-ab7c-f810d0b35040.jpg\",\"img/0958/644719ec-1690-4af2-a63f-0b6467c3791e.jpg\"]","trial_type":"similarity","trial_index":98,"time_elapsed":1071832,"internal_node_id":"0.0-6.0-92.0"},{"sim_score":6,"rt":9128,"stimulus":"[\"img/0874/c0378dac-9370-439a-8b79-db27c96fb390.jpg\",\"img/0864/b3c4e378-28f0-4699-9338-2a257b4bca04.jpg\"]","trial_type":"similarity","trial_index":99,"time_elapsed":1081978,"internal_node_id":"0.0-6.0-93.0"},{"sim_score":3,"rt":5463,"stimulus":"[\"img/0760/c76e8a36-1537-42e0-9779-13c2b6a89725.jpg\",\"img/0873/c91c05f8-fafd-4054-bcf1-f5ed1f0a18e8.jpg\"]","trial_type":"similarity","trial_index":100,"time_elapsed":1088452,"internal_node_id":"0.0-6.0-94.0"},{"sim_score":5,"rt":5899,"stimulus":"[\"img/0868/83b4350a-3b70-4cea-b7f5-b5b56f3050a8.jpg\",\"img/0873/ac86dbfd-0442-4dec-9d10-37d7093f5a52.jpg\"]","trial_type":"similarity","trial_index":101,"time_elapsed":1095358,"internal_node_id":"0.0-6.0-95.0"},{"sim_score":3,"rt":9133,"stimulus":"[\"img/0860/fd4662f9-4c03-4d79-8593-06735e55a64b.jpg\",\"img/0761/5ed865c0-8bfb-4310-9b47-690b3e450ca2.jpg\"]","trial_type":"similarity","trial_index":102,"time_elapsed":1105496,"internal_node_id":"0.0-6.0-96.0"},{"sim_score":3,"rt":7797,"stimulus":"[\"img/0862/fad1d7c1-8187-43c3-942a-0fc12183e48e.jpg\",\"img/0883/df1c6d22-bb1b-4eed-b4fe-eb5e46deacd4.jpg\"]","trial_type":"similarity","trial_index":103,"time_elapsed":1114298,"internal_node_id":"0.0-6.0-97.0"},{"sim_score":2,"rt":5271,"stimulus":"[\"img/0757/a91bb71b-8c84-4999-8da7-f30e53ddc2a7.jpg\",\"img/0884/3613aeb4-0028-4205-aea0-1ea28cb1f80e.jpg\"]","trial_type":"similarity","trial_index":104,"time_elapsed":1120574,"internal_node_id":"0.0-6.0-98.0"},{"sim_score":5,"rt":9888,"stimulus":"[\"img/0867/aa05d113-fc19-4756-a8eb-7878f580bc92.jpg\",\"img/0756/4fcf5ea1-c2e0-44b9-b07f-26cbf07e1801.jpg\"]","trial_type":"similarity","trial_index":105,"time_elapsed":1131468,"internal_node_id":"0.0-6.0-99.0"},{"sim_score":3,"rt":5737,"stimulus":"[\"img/0958/bb684a39-afef-4125-9f70-b5ad830ba316.jpg\",\"img/0756/ca2a8f93-ed77-45c8-a3a3-22324aa28501.jpg\"]","trial_type":"similarity","trial_index":106,"time_elapsed":1138216,"internal_node_id":"0.0-6.0-100.0"},{"sim_score":7,"rt":6478,"stimulus":"[\"img/0760/dddcdfaf-2d02-4de9-a176-5705d0004b5a.jpg\",\"img/0760/83b0723f-4929-4ee7-ad35-fae98da3e152.jpg\"]","trial_type":"similarity","trial_index":107,"time_elapsed":1145708,"internal_node_id":"0.0-6.0-101.0"},{"sim_score":6,"rt":5524,"stimulus":"[\"img/0873/1d1be182-3bb2-4efd-8543-d70b8db7beef.jpg\",\"img/0875/5a7c4e35-6514-4e12-8879-d16071da4cd6.jpg\"]","trial_type":"similarity","trial_index":108,"time_elapsed":1152238,"internal_node_id":"0.0-6.0-102.0"},{"sim_score":6,"rt":6011,"stimulus":"[\"img/0884/ffcce05a-b38d-4570-b3dc-751e89b7790a.jpg\",\"img/0884/fb8b0101-bfd2-462b-a942-d3202a69dd18.jpg\"]","trial_type":"similarity","trial_index":109,"time_elapsed":1159260,"internal_node_id":"0.0-6.0-103.0"},{"sim_score":6,"rt":6462,"stimulus":"[\"img/0873/e5374873-a1a7-4689-a04c-a3b959992244.jpg\",\"img/0885/8960bf05-34df-4a86-a9b2-6087c70e61d3.jpg\"]","trial_type":"similarity","trial_index":110,"time_elapsed":1166732,"internal_node_id":"0.0-6.0-104.0"},{"sim_score":5,"rt":5620,"stimulus":"[\"img/0883/ff85a2f1-14b1-4b7e-9c87-887151d97e01.jpg\",\"img/0875/34132396-d896-4c2d-8087-646dd867e769.jpg\"]","trial_type":"similarity","trial_index":111,"time_elapsed":1173360,"internal_node_id":"0.0-6.0-105.0"},{"sim_score":2,"rt":4650,"stimulus":"[\"img/0864/f92649a2-0590-4d31-9a7a-1bfb81666a2d.jpg\",\"img/0867/c71dc569-f49c-4397-8381-68b8d726736d.jpg\"]","trial_type":"similarity","trial_index":112,"time_elapsed":1179016,"internal_node_id":"0.0-6.0-106.0"},{"sim_score":3,"rt":5805,"stimulus":"[\"img/0958/d3775867-a8f6-42ba-86ff-f86e85edba90.jpg\",\"img/0860/c3379ff7-0763-48fe-a1ec-7ea3d611bc7a.jpg\"]","trial_type":"similarity","trial_index":113,"time_elapsed":1185825,"internal_node_id":"0.0-6.0-107.0"},{"sim_score":2,"rt":5657,"stimulus":"[\"img/0885/d2276b26-e91a-4f19-a818-cbeb297ed884.jpg\",\"img/0756/2bc961e4-b35f-4cfe-ba02-6f14fe3bdc10.jpg\"]","trial_type":"similarity","trial_index":114,"time_elapsed":1192488,"internal_node_id":"0.0-6.0-108.0"},{"sim_score":3,"rt":5339,"stimulus":"[\"img/0883/49aada36-b662-416c-93ae-9eab6598bfae.jpg\",\"img/0885/a8cbb477-19ef-45ef-8f48-9667aec40bd1.jpg\"]","trial_type":"similarity","trial_index":115,"time_elapsed":1198837,"internal_node_id":"0.0-6.0-109.0"},{"sim_score":7,"rt":5653,"stimulus":"[\"img/0867/26611f4e-d694-4460-b7e2-43c62753ddc3.jpg\",\"img/0867/a749dddb-69f0-44a6-acdc-2bf295cf6dcc.jpg\"]","trial_type":"similarity","trial_index":116,"time_elapsed":1205495,"internal_node_id":"0.0-6.0-110.0"},{"sim_score":3,"rt":6387,"stimulus":"[\"img/0881/445edb15-bd7f-4af3-8bd5-c6ad9677bb31.jpg\",\"img/0760/a97cc3a7-3e6e-423e-ac87-e1d1ab280ae9.jpg\"]","trial_type":"similarity","trial_index":117,"time_elapsed":1212888,"internal_node_id":"0.0-6.0-111.0"},{"sim_score":3,"rt":7144,"stimulus":"[\"img/0881/633c6f40-56d9-4b48-bf1c-ecd83116eabb.jpg\",\"img/0868/d98ca254-b195-477f-b57e-5760a2717db8.jpg\"]","trial_type":"similarity","trial_index":118,"time_elapsed":1221037,"internal_node_id":"0.0-6.0-112.0"},{"sim_score":2,"rt":12499,"stimulus":"[\"img/0875/ebf7653f-ff45-4e9f-af58-2c042ab3cd2b.jpg\",\"img/0761/bd083642-a9bc-4877-bfc6-63bd03d33e81.jpg\"]","trial_type":"similarity","trial_index":119,"time_elapsed":1234541,"internal_node_id":"0.0-6.0-113.0"},{"sim_score":3,"rt":5360,"stimulus":"[\"img/0756/04655068-a9fc-49d9-b2f4-21e4d42b7903.jpg\",\"img/0866/a15b02be-11bb-43e3-b0e0-ecc3bd7dfc49.jpg\"]","trial_type":"similarity","trial_index":120,"time_elapsed":1240919,"internal_node_id":"0.0-6.0-114.0"},{"sim_score":2,"rt":6462,"stimulus":"[\"img/0884/0b4cf8d4-4c8f-4312-a794-f99e01679176.jpg\",\"img/0886/625c7dfa-3fa1-4166-80f0-229eb416b04f.jpg\"]","trial_type":"similarity","trial_index":121,"time_elapsed":1248391,"internal_node_id":"0.0-6.0-115.0"},{"sim_score":3,"rt":6613,"stimulus":"[\"img/0756/b6e235f7-211b-4a2b-a7b8-393e5ec7351b.jpg\",\"img/0881/7e31e5dc-2240-4b1b-b5a0-3acd980099ef.jpg\"]","trial_type":"similarity","trial_index":122,"time_elapsed":1256020,"internal_node_id":"0.0-6.0-116.0"},{"sim_score":3,"rt":5960,"stimulus":"[\"img/0760/317fc071-99e6-43cb-9099-2e50aa79ccc2.jpg\",\"img/0875/a4935837-7d3c-4df6-88c1-36a94d4991ca.jpg\"]","trial_type":"similarity","trial_index":123,"time_elapsed":1262986,"internal_node_id":"0.0-6.0-117.0"},{"sim_score":2,"rt":4846,"stimulus":"[\"img/0958/54f27d86-00c0-46b2-b2c9-050c9cc60fe0.jpg\",\"img/0866/be24ab58-230e-4db8-9f45-ff04c9aec6bb.jpg\"]","trial_type":"similarity","trial_index":124,"time_elapsed":1268839,"internal_node_id":"0.0-6.0-118.0"},{"sim_score":2,"rt":7266,"stimulus":"[\"img/0867/bf560d4f-dee3-4f11-a385-705cc1aa5f3c.jpg\",\"img/0874/93d1f8dc-acf2-4f03-bd8d-8ec35df276ed.jpg\"]","trial_type":"similarity","trial_index":125,"time_elapsed":1277124,"internal_node_id":"0.0-6.0-119.0"},{"sim_score":5,"rt":7940,"stimulus":"[\"img/0883/d719aab0-0280-4c06-87e5-b9db7454965c.jpg\",\"img/0757/802a8692-dc9e-4372-8811-ce4351a09d1a.jpg\"]","trial_type":"similarity","trial_index":126,"time_elapsed":1286076,"internal_node_id":"0.0-6.0-120.0"},{"sim_score":3,"rt":5354,"stimulus":"[\"img/0874/ca23d307-fc00-4d7d-9106-584c6eb21b4d.jpg\",\"img/0886/97243e18-4dba-4af8-b49f-b3b635c90ac4.jpg\"]","trial_type":"similarity","trial_index":127,"time_elapsed":1292442,"internal_node_id":"0.0-6.0-121.0"},{"sim_score":2,"rt":5681,"stimulus":"[\"img/0873/d39b1731-1669-4c96-b5c6-682b30e287ee.jpg\",\"img/0761/3599fa54-18f9-488e-b402-e851c43586ff.jpg\"]","trial_type":"similarity","trial_index":128,"time_elapsed":1299138,"internal_node_id":"0.0-6.0-122.0"},{"sim_score":2,"rt":5653,"stimulus":"[\"img/0875/fb732ab5-013a-4366-9f65-27811ed157e9.jpg\",\"img/0884/a8f7b854-0010-4c7a-a8fb-b1b1dc1f1ba1.jpg\"]","trial_type":"similarity","trial_index":129,"time_elapsed":1305812,"internal_node_id":"0.0-6.0-123.0"},{"sim_score":2,"rt":4662,"stimulus":"[\"img/0757/6ecf2f24-3286-49d6-b5ed-bb2da660c588.jpg\",\"img/0868/3a62db2d-97e9-44a3-b8e3-a48c6f0e423b.jpg\"]","trial_type":"similarity","trial_index":130,"time_elapsed":1311480,"internal_node_id":"0.0-6.0-124.0"},{"sim_score":1,"rt":14510,"stimulus":"[\"img/0886/9b0bffbe-9237-404d-a0ba-a1982e0814c7.jpg\",\"img/0883/6884954b-873e-4d6f-9b4b-95d158e0de6c.jpg\"]","trial_type":"similarity","trial_index":131,"time_elapsed":1338428,"internal_node_id":"0.0-6.0-125.0"},{"sim_score":2,"rt":6501,"stimulus":"[\"img/0868/8b0b8473-e2c0-4331-aa56-c3a5c29369da.jpg\",\"img/0760/5f9bd780-65e3-43ab-a3a3-73a1cc87d5a2.jpg\"]","trial_type":"similarity","trial_index":132,"time_elapsed":1345938,"internal_node_id":"0.0-6.0-126.0"},{"sim_score":5,"rt":5050,"stimulus":"[\"img/0881/609a5e93-38b5-4940-8627-2bf8fad7f802.jpg\",\"img/0881/54ea8e77-c7e5-4197-b7fa-00b7020849a7.jpg\"]","trial_type":"similarity","trial_index":133,"time_elapsed":1352009,"internal_node_id":"0.0-6.0-127.0"},{"sim_score":2,"rt":5260,"stimulus":"[\"img/0760/57510c7a-e5a9-420e-9b3f-f7423746f67c.jpg\",\"img/0860/4a022222-056d-461c-ab02-39fac9647552.jpg\"]","trial_type":"similarity","trial_index":134,"time_elapsed":1358279,"internal_node_id":"0.0-6.0-128.0"},{"sim_score":3,"rt":8321,"stimulus":"[\"img/0864/0f537697-a314-47c3-a8cc-8df23b7e536c.jpg\",\"img/0885/1e66fe61-15d5-42b1-86aa-dbfd13613f5c.jpg\"]","trial_type":"similarity","trial_index":135,"time_elapsed":1367606,"internal_node_id":"0.0-6.0-129.0"},{"sim_score":3,"rt":5223,"stimulus":"[\"img/0864/3d4de670-b290-4285-9c3d-12a0e3af44e9.jpg\",\"img/0757/1fd9dcb9-e489-4708-b518-f356d3f5481d.jpg\"]","trial_type":"similarity","trial_index":136,"time_elapsed":1373840,"internal_node_id":"0.0-6.0-130.0"},{"sim_score":6,"rt":6087,"stimulus":"[\"img/0760/afe7a178-4458-4bdd-a0ad-0cffc57eadc3.jpg\",\"img/0883/e7e4af6a-bc7a-4a9b-921c-32652db13239.jpg\"]","trial_type":"similarity","trial_index":137,"time_elapsed":1380945,"internal_node_id":"0.0-6.0-131.0"},{"sim_score":6,"rt":6758,"stimulus":"[\"img/0885/6873c613-5e40-42ff-a5b6-443b6b626ae2.jpg\",\"img/0885/eb5e4557-1792-49c3-8871-16afa58f3a28.jpg\"]","trial_type":"similarity","trial_index":138,"time_elapsed":1388715,"internal_node_id":"0.0-6.0-132.0"},{"sim_score":3,"rt":5708,"stimulus":"[\"img/0860/524b2e98-5767-4d53-942c-ebae6925659b.jpg\",\"img/0868/09a9ef4d-d000-4cfa-a6aa-ebec7c2edeb4.jpg\"]","trial_type":"similarity","trial_index":139,"time_elapsed":1395433,"internal_node_id":"0.0-6.0-133.0"},{"sim_score":5,"rt":9032,"stimulus":"[\"img/0867/cc72ed48-7704-422c-86d6-467a1145287a.jpg\",\"img/0886/789f5d23-84b8-499a-ae1e-20c6309a06ae.jpg\"]","trial_type":"similarity","trial_index":140,"time_elapsed":1405469,"internal_node_id":"0.0-6.0-134.0"},{"sim_score":3,"rt":4019,"stimulus":"[\"img/0756/6413e12f-951d-47b5-ae55-9fad7fb8d112.jpg\",\"img/0886/e5903946-897c-4420-87c0-afee4100305c.jpg\"]","trial_type":"similarity","trial_index":141,"time_elapsed":1410493,"internal_node_id":"0.0-6.0-135.0"},{"sim_score":2,"rt":5454,"stimulus":"[\"img/0884/13db1f36-8c9f-4b28-8426-04eaa9fba737.jpg\",\"img/0868/6a28c3b0-3d76-498a-9fb7-ddafc665eca8.jpg\"]","trial_type":"similarity","trial_index":142,"time_elapsed":1416961,"internal_node_id":"0.0-6.0-136.0"},{"sim_score":7,"rt":5789,"stimulus":"[\"img/0958/822de3b9-e5fd-4b74-aeb1-7c40805b0717.jpg\",\"img/0958/fd950403-e452-4018-8207-a9714addcd75.jpg\"]","trial_type":"similarity","trial_index":143,"time_elapsed":1423755,"internal_node_id":"0.0-6.0-137.0"},{"sim_score":3,"rt":4668,"stimulus":"[\"img/0886/9f186bd5-d48b-4cc2-9206-be67c392faa9.jpg\",\"img/0873/d74e4aa9-420d-48a3-a42f-30a3481536ae.jpg\"]","trial_type":"similarity","trial_index":144,"time_elapsed":1429435,"internal_node_id":"0.0-6.0-138.0"},{"sim_score":3,"rt":5482,"stimulus":"[\"img/0758/ddc336e9-a8b6-4bb9-937a-c7e25e0e9250.jpg\",\"img/0873/87f38f18-48a2-4de3-b24b-70630e8b6ca0.jpg\"]","trial_type":"similarity","trial_index":145,"time_elapsed":1435923,"internal_node_id":"0.0-6.0-139.0"},{"sim_score":3,"rt":5171,"stimulus":"[\"img/0873/b1e2e09f-ad9a-433e-818f-56dd2f1cb09c.jpg\",\"img/0756/c211414a-203e-4a7f-9412-5abddea2af11.jpg\"]","trial_type":"similarity","trial_index":146,"time_elapsed":1442107,"internal_node_id":"0.0-6.0-140.0"},{"sim_score":2,"rt":7336,"stimulus":"[\"img/0868/d6d1f30d-4323-435a-b194-7892521bc57e.jpg\",\"img/0862/f23038d4-c366-4f70-979f-66b62362efa4.jpg\"]","trial_type":"similarity","trial_index":147,"time_elapsed":1450462,"internal_node_id":"0.0-6.0-141.0"},{"sim_score":5,"rt":7449,"stimulus":"[\"img/0881/f8bd891e-aa09-4782-89db-33e7cb2b0cf1.jpg\",\"img/0862/de9ad88c-b522-430a-8ee9-eb06a9f85df5.jpg\"]","trial_type":"similarity","trial_index":148,"time_elapsed":1458926,"internal_node_id":"0.0-6.0-142.0"},{"sim_score":5,"rt":6211,"stimulus":"[\"img/0885/5a47e19f-19b4-4545-bf47-b508cb65da6a.jpg\",\"img/0867/f8159067-056c-41f1-a136-c529fe5e970a.jpg\"]","trial_type":"similarity","trial_index":149,"time_elapsed":1466142,"internal_node_id":"0.0-6.0-143.0"},{"sim_score":6,"rt":6152,"stimulus":"[\"img/0883/1f394dd2-551c-4c8b-af82-f6a6fbe567bb.jpg\",\"img/0883/77f31752-1984-44f7-a77d-e22c2ad54256.jpg\"]","trial_type":"similarity","trial_index":150,"time_elapsed":1473300,"internal_node_id":"0.0-6.0-144.0"},{"sim_score":2,"rt":4314,"stimulus":"[\"img/0874/a82926a3-0b43-4add-803c-d5f9ea7798ee.jpg\",\"img/0873/7dddc95f-ca6e-4d15-99a0-0e329ec6888e.jpg\"]","trial_type":"similarity","trial_index":151,"time_elapsed":1478621,"internal_node_id":"0.0-6.0-145.0"},{"sim_score":3,"rt":7218,"stimulus":"[\"img/0757/91a048c0-e749-433b-9147-0c671dc5b4ca.jpg\",\"img/0758/7fba58df-2a7a-4b76-8a8f-62739f97f271.jpg\"]","trial_type":"similarity","trial_index":152,"time_elapsed":1486845,"internal_node_id":"0.0-6.0-146.0"},{"sim_score":3,"rt":6911,"stimulus":"[\"img/0883/02f50df0-eb8c-4e17-836a-c89ddb1c04e1.jpg\",\"img/0756/de72dcee-8bbb-43d1-a744-9c074b9122ee.jpg\"]","trial_type":"similarity","trial_index":153,"time_elapsed":1494762,"internal_node_id":"0.0-6.0-147.0"},{"sim_score":3,"rt":5689,"stimulus":"[\"img/0867/db7e032f-162b-46f5-ae67-2b29679adee4.jpg\",\"img/0866/93a27239-8317-4e08-98ca-d8b1ff298e07.jpg\"]","trial_type":"similarity","trial_index":154,"time_elapsed":1501455,"internal_node_id":"0.0-6.0-148.0"},{"sim_score":3,"rt":5221,"stimulus":"[\"img/0758/f61ecdf8-a7d4-4db0-b84d-be46f7cfaffc.jpg\",\"img/0760/0864f159-c076-4573-83e1-ea134f239717.jpg\"]","trial_type":"similarity","trial_index":155,"time_elapsed":1507682,"internal_node_id":"0.0-6.0-149.0"},{"sim_score":2,"rt":4782,"stimulus":"[\"img/0757/8993d166-c8ae-43f6-b269-9e8bd3379d57.jpg\",\"img/0761/ff3e024b-951d-4aca-a168-c09c6507525d.jpg\"]","trial_type":"similarity","trial_index":156,"time_elapsed":1513467,"internal_node_id":"0.0-6.0-150.0"},{"sim_score":6,"rt":6264,"stimulus":"[\"img/0761/a74c99e4-d9ed-42cd-9e83-8d525cb6a9a2.jpg\",\"img/0874/99f6563c-8a8d-4c1c-a41d-667b618c3fd5.jpg\"]","trial_type":"similarity","trial_index":157,"time_elapsed":1520749,"internal_node_id":"0.0-6.0-151.0"},{"sim_score":6,"rt":5315,"stimulus":"[\"img/0761/aebad236-1f4a-4bc2-a74d-d92b7e226316.jpg\",\"img/0760/1912c0dc-64a7-4c32-8d67-baf5e8752270.jpg\"]","trial_type":"similarity","trial_index":158,"time_elapsed":1527071,"internal_node_id":"0.0-6.0-152.0"},{"sim_score":7,"rt":5415,"stimulus":"[\"img/0866/0207e9a2-7dbb-40b5-9459-b472aaeceb2a.jpg\",\"img/0866/4a87911a-d5be-4d4e-ab8e-3d1f581bf507.jpg\"]","trial_type":"similarity","trial_index":159,"time_elapsed":1533501,"internal_node_id":"0.0-6.0-153.0"},{"sim_score":1,"rt":8349,"stimulus":"[\"img/0866/c446214b-a368-4c65-ae39-ea46894256ab.jpg\",\"img/0862/92f0146c-20c4-482e-aef5-adb693790338.jpg\"]","trial_type":"similarity","trial_index":160,"time_elapsed":1542855,"internal_node_id":"0.0-6.0-154.0"},{"sim_score":2,"rt":4768,"stimulus":"[\"img/0756/2d59e6c9-df29-4c76-a030-db83f23c8b9b.jpg\",\"img/0862/4f0a3b4c-afbf-486e-b248-1d54982f54b4.jpg\"]","trial_type":"similarity","trial_index":161,"time_elapsed":1548629,"internal_node_id":"0.0-6.0-155.0"},{"sim_score":2,"rt":6375,"stimulus":"[\"img/0860/b03b963d-949b-4d8d-b19c-4950c89eeca2.jpg\",\"img/0866/386235d2-6857-41e7-88a8-25cfc3430025.jpg\"]","trial_type":"similarity","trial_index":162,"time_elapsed":1556021,"internal_node_id":"0.0-6.0-156.0"},{"sim_score":2,"rt":5717,"stimulus":"[\"img/0862/5d887e9f-89e2-4ebc-80a0-6d46fe6480db.jpg\",\"img/0958/ebea41e3-9d65-4f5e-981a-92daaaad0d57.jpg\"]","trial_type":"similarity","trial_index":163,"time_elapsed":1562745,"internal_node_id":"0.0-6.0-157.0"},{"sim_score":2,"rt":5441,"stimulus":"[\"img/0761/d5370a68-6c8a-486f-b2bf-330e2ad6b397.jpg\",\"img/0868/77091fc7-a590-4ebb-b915-fdb2483a2399.jpg\"]","trial_type":"similarity","trial_index":164,"time_elapsed":1569191,"internal_node_id":"0.0-6.0-158.0"},{"sim_score":2,"rt":5309,"stimulus":"[\"img/0761/e34f97e4-14ac-4bb6-b226-816085d967c2.jpg\",\"img/0886/bd45b474-5559-4ea5-83ff-140bce19f5fa.jpg\"]","trial_type":"similarity","trial_index":165,"time_elapsed":1575506,"internal_node_id":"0.0-6.0-159.0"},{"sim_score":2,"rt":6267,"stimulus":"[\"img/0874/bf14b896-e930-4fd9-9c05-2e83317a2773.jpg\",\"img/0868/15dd6fd7-791e-4b53-b203-195d617521a4.jpg\"]","trial_type":"similarity","trial_index":166,"time_elapsed":1582779,"internal_node_id":"0.0-6.0-160.0"},{"sim_score":3,"rt":5238,"stimulus":"[\"img/0860/4c530c3c-6aab-492a-94d1-9c01797bde40.jpg\",\"img/0874/85eb9b8a-c4c6-4e5a-b8e7-363a87a82054.jpg\"]","trial_type":"similarity","trial_index":167,"time_elapsed":1589025,"internal_node_id":"0.0-6.0-161.0"},{"sim_score":2,"rt":4805,"stimulus":"[\"img/0883/122548fc-b3cc-445b-b7c0-04794df6d11d.jpg\",\"img/0867/50a1b60e-3a29-44bf-b606-d4bd3746fea9.jpg\"]","trial_type":"similarity","trial_index":168,"time_elapsed":1594841,"internal_node_id":"0.0-6.0-162.0"},{"sim_score":3,"rt":5473,"stimulus":"[\"img/0758/a709631e-3705-4725-ac40-f0d916924f08.jpg\",\"img/0958/0a8f72c4-0c73-4d58-be6f-5e4613b87409.jpg\"]","trial_type":"similarity","trial_index":169,"time_elapsed":1601319,"internal_node_id":"0.0-6.0-163.0"},{"sim_score":2,"rt":6763,"stimulus":"[\"img/0873/c4b47588-9c66-4401-aefc-cf9481d5fa85.jpg\",\"img/0757/4f8ae92b-a4ab-4020-b4fb-80c5615e76ac.jpg\"]","trial_type":"similarity","trial_index":170,"time_elapsed":1609099,"internal_node_id":"0.0-6.0-164.0"},{"sim_score":3,"rt":5144,"stimulus":"[\"img/0873/c3ff3b70-fb22-42f2-883c-3ecffd77cb4b.jpg\",\"img/0866/d266fece-59b3-46fa-b69f-96f6efb81b59.jpg\"]","trial_type":"similarity","trial_index":171,"time_elapsed":1615247,"internal_node_id":"0.0-6.0-165.0"},{"sim_score":3,"rt":4780,"stimulus":"[\"img/0875/2e13d160-eea1-416b-aff1-d37ab99ecc1d.jpg\",\"img/0867/12264664-1860-46df-8c21-162b9817cdda.jpg\"]","trial_type":"similarity","trial_index":172,"time_elapsed":1621046,"internal_node_id":"0.0-6.0-166.0"},{"sim_score":7,"rt":5727,"stimulus":"[\"img/0862/ad593cc7-cabe-4bb7-8e14-8a447a0717b4.jpg\",\"img/0862/00c06b00-3b73-44e9-bc1e-c5aafb438321.jpg\"]","trial_type":"similarity","trial_index":173,"time_elapsed":1640303,"internal_node_id":"0.0-6.0-167.0"},{"sim_score":2,"rt":5234,"stimulus":"[\"img/0875/d59ff733-eaff-4ee2-9443-06954dd0bcb6.jpg\",\"img/0886/451550d7-6ff9-42b5-938c-9e20ee960bf6.jpg\"]","trial_type":"similarity","trial_index":174,"time_elapsed":1646549,"internal_node_id":"0.0-6.0-168.0"},{"sim_score":3,"rt":4367,"stimulus":"[\"img/0885/89d8c48b-8bde-42ed-ae71-de669b15ea34.jpg\",\"img/0875/90da8d75-108a-44ad-b999-e21fee3860d3.jpg\"]","trial_type":"similarity","trial_index":175,"time_elapsed":1651932,"internal_node_id":"0.0-6.0-169.0"},{"sim_score":3,"rt":6034,"stimulus":"[\"img/0862/e8cc3bdf-cc43-4565-bccf-492626c70953.jpg\",\"img/0867/a498eef3-9fa4-4ab2-9778-4ae82ac40dc5.jpg\"]","trial_type":"similarity","trial_index":176,"time_elapsed":1658972,"internal_node_id":"0.0-6.0-170.0"},{"sim_score":3,"rt":8708,"stimulus":"[\"img/0884/baabff07-71d8-424e-ac29-644768380941.jpg\",\"img/0873/841d6549-01d2-4ebd-8d67-25d219876178.jpg\"]","trial_type":"similarity","trial_index":177,"time_elapsed":1668685,"internal_node_id":"0.0-6.0-171.0"},{"sim_score":6,"rt":10931,"stimulus":"[\"img/0873/90b702a6-3dba-446a-9bba-a2ee096baf49.jpg\",\"img/0958/eea2b7ca-1c37-4e76-ada7-a8b1f3afdc01.jpg\"]","trial_type":"similarity","trial_index":178,"time_elapsed":1680635,"internal_node_id":"0.0-6.0-172.0"},{"sim_score":3,"rt":7175,"stimulus":"[\"img/0868/1a62b2b2-18f5-466e-b564-5176a57c565e.jpg\",\"img/0758/d57c2592-a317-4f63-91be-91a3a9afd222.jpg\"]","trial_type":"similarity","trial_index":179,"time_elapsed":1688819,"internal_node_id":"0.0-6.0-173.0"},{"sim_score":2,"rt":5231,"stimulus":"[\"img/0757/1aca59fd-6030-4bb0-93c7-32a90f3237cf.jpg\",\"img/0874/31e22c7c-99aa-40b1-bf03-dd73fa2df4d6.jpg\"]","trial_type":"similarity","trial_index":180,"time_elapsed":1695056,"internal_node_id":"0.0-6.0-174.0"},{"sim_score":1,"rt":5485,"stimulus":"[\"img/0958/4e2ca4bc-52c7-4c27-9610-776441231e42.jpg\",\"img/0867/de92135f-5b65-4ed9-b245-188292c7c2f8.jpg\"]","trial_type":"similarity","trial_index":181,"time_elapsed":1701559,"internal_node_id":"0.0-6.0-175.0"},{"sim_score":6,"rt":6213,"stimulus":"[\"img/0874/a3bc679d-619f-4db6-bb68-116dcb757d9c.jpg\",\"img/0760/dfa71fdd-ddff-4827-a999-d5e599dd5679.jpg\"]","trial_type":"similarity","trial_index":182,"time_elapsed":1708777,"internal_node_id":"0.0-6.0-176.0"},{"sim_score":4,"rt":10459,"stimulus":"[\"img/0873/b02f9cce-7f58-4f1b-baed-50fee9f0a21f.jpg\",\"img/0860/702bd09d-df3a-40aa-a267-5f04474305b5.jpg\"]","trial_type":"similarity","trial_index":183,"time_elapsed":1720243,"internal_node_id":"0.0-6.0-177.0"},{"sim_score":2,"rt":5906,"stimulus":"[\"img/0881/344de456-b358-4887-bd0e-e4c3278af887.jpg\",\"img/0883/00d89148-b7d4-49d2-831a-2eee070a85a4.jpg\"]","trial_type":"similarity","trial_index":184,"time_elapsed":1727161,"internal_node_id":"0.0-6.0-178.0"},{"sim_score":2,"rt":5838,"stimulus":"[\"img/0886/42cccc64-05f9-4afd-bc93-496ba50a4342.jpg\",\"img/0958/96f89270-febc-4f09-b8c3-53a249ff00ea.jpg\"]","trial_type":"similarity","trial_index":185,"time_elapsed":1734005,"internal_node_id":"0.0-6.0-179.0"},{"sim_score":5,"rt":4755,"stimulus":"[\"img/0864/ea327690-500b-4137-bf91-451b309fe6a5.jpg\",\"img/0883/387a9e30-7d95-483e-af34-c8262f62385f.jpg\"]","trial_type":"similarity","trial_index":186,"time_elapsed":1739769,"internal_node_id":"0.0-6.0-180.0"},{"sim_score":2,"rt":6570,"stimulus":"[\"img/0756/4cf0ac20-ce60-40ba-8078-4053ef50451c.jpg\",\"img/0868/e0aff734-077f-40dd-9781-74821abd3621.jpg\"]","trial_type":"similarity","trial_index":187,"time_elapsed":1747355,"internal_node_id":"0.0-6.0-181.0"},{"sim_score":3,"rt":5672,"stimulus":"[\"img/0884/592da15b-09e4-46b5-81e7-bab08a1c33e9.jpg\",\"img/0758/61d64021-9214-4951-bdf8-f871f9827cf9.jpg\"]","trial_type":"similarity","trial_index":188,"time_elapsed":1754047,"internal_node_id":"0.0-6.0-182.0"},{"sim_score":2,"rt":5079,"stimulus":"[\"img/0875/2c361b79-c3d1-4eda-812e-bf03192407bf.jpg\",\"img/0874/1016b306-087c-4afc-aa08-fa527b28dc76.jpg\"]","trial_type":"similarity","trial_index":189,"time_elapsed":1760129,"internal_node_id":"0.0-6.0-183.0"},{"sim_score":7,"rt":6178,"stimulus":"[\"img/0867/6e19c858-b606-45b2-a4c6-910a73f1d82c.jpg\",\"img/0868/4a8a45ed-2c4f-421b-9564-409a33ecd26c.jpg\"]","trial_type":"similarity","trial_index":190,"time_elapsed":1767322,"internal_node_id":"0.0-6.0-184.0"},{"sim_score":5,"rt":5810,"stimulus":"[\"img/0881/f6bd3b96-dc40-4e99-8681-bc3a35cf896d.jpg\",\"img/0885/ef0386f3-e5d4-481b-8894-60b80e08bbe8.jpg\"]","trial_type":"similarity","trial_index":191,"time_elapsed":1774138,"internal_node_id":"0.0-6.0-185.0"},{"sim_score":5,"rt":5195,"stimulus":"[\"img/0864/c22faebd-9c53-47bc-ada3-b9a30c688e75.jpg\",\"img/0761/71d2e184-21b4-4711-97f3-e381c641da2c.jpg\"]","trial_type":"similarity","trial_index":192,"time_elapsed":1780350,"internal_node_id":"0.0-6.0-186.0"},{"sim_score":1,"rt":5568,"stimulus":"[\"img/0885/4fd0aafb-6cc0-43d6-993a-c55a6e18a7ba.jpg\",\"img/0874/8cdb1c07-1c32-46d2-981c-3636560fa6e5.jpg\"]","trial_type":"similarity","trial_index":193,"time_elapsed":1786922,"internal_node_id":"0.0-6.0-187.0"},{"sim_score":3,"rt":5867,"stimulus":"[\"img/0758/65d426d6-3ff6-415d-8654-a43b83ecc4fe.jpg\",\"img/0867/2e1a0b58-cdb1-4107-a14e-452530d7b9b0.jpg\"]","trial_type":"similarity","trial_index":194,"time_elapsed":1793793,"internal_node_id":"0.0-6.0-188.0"},{"sim_score":3,"rt":4971,"stimulus":"[\"img/0756/8f917ff3-2930-4f81-812b-19555fe71261.jpg\",\"img/0884/e275ab3e-0948-43c3-8be7-a75271922185.jpg\"]","trial_type":"similarity","trial_index":195,"time_elapsed":1799775,"internal_node_id":"0.0-6.0-189.0"},{"sim_score":2,"rt":5761,"stimulus":"[\"img/0761/89d3b943-cd14-4786-a7b8-0e9a695cf0e3.jpg\",\"img/0862/f43ceabf-acc1-4107-b857-5d1849808f93.jpg\"]","trial_type":"similarity","trial_index":196,"time_elapsed":1806556,"internal_node_id":"0.0-6.0-190.0"},{"sim_score":2,"rt":6261,"stimulus":"[\"img/0860/f44ba3fb-03a2-42f0-8509-2c1ded493086.jpg\",\"img/0886/1e8c0f89-c766-41c9-b522-83c342048f34.jpg\"]","trial_type":"similarity","trial_index":197,"time_elapsed":1813823,"internal_node_id":"0.0-6.0-191.0"},{"sim_score":1,"rt":5408,"stimulus":"[\"img/0760/1c96ffb7-17db-4253-b66c-59250977c88b.jpg\",\"img/0885/21b241a1-95da-4306-9cf2-cc52a784214a.jpg\"]","trial_type":"similarity","trial_index":198,"time_elapsed":1820243,"internal_node_id":"0.0-6.0-192.0"},{"sim_score":6,"rt":6197,"stimulus":"[\"img/0886/7164ac42-460f-4beb-9d5e-a1cfded3099c.jpg\",\"img/0868/293079b8-7e0c-4afd-a390-1e5d35fe3ded.jpg\"]","trial_type":"similarity","trial_index":199,"time_elapsed":1827446,"internal_node_id":"0.0-6.0-193.0"},{"sim_score":5,"rt":6552,"stimulus":"[\"img/0881/2a8413be-fec2-4de6-88ad-614dd4cccc9d.jpg\",\"img/0864/e02eddb5-f468-499c-91bf-f7be3ffe979b.jpg\"]","trial_type":"similarity","trial_index":200,"time_elapsed":1835002,"internal_node_id":"0.0-6.0-194.0"},{"sim_score":5,"rt":6170,"stimulus":"[\"img/0866/945c6710-d15b-4a5b-a8f6-69af0850357f.jpg\",\"img/0868/4bd5105a-d2c3-4f82-8c80-57196106ba53.jpg\"]","trial_type":"similarity","trial_index":201,"time_elapsed":1842177,"internal_node_id":"0.0-6.0-195.0"},{"sim_score":2,"rt":5430,"stimulus":"[\"img/0864/49150900-7f25-4ce8-8d10-9b47a71d1997.jpg\",\"img/0958/58b7811e-d3f6-4e4d-befb-86e063d13a43.jpg\"]","trial_type":"similarity","trial_index":202,"time_elapsed":1848613,"internal_node_id":"0.0-6.0-196.0"},{"sim_score":2,"rt":5762,"stimulus":"[\"img/0757/a3620c04-efdc-4b42-940c-806958d1351e.jpg\",\"img/0886/d1e40478-2fe0-404f-8409-920da98a96a2.jpg\"]","trial_type":"similarity","trial_index":203,"time_elapsed":1855379,"internal_node_id":"0.0-6.0-197.0"},{"sim_score":5,"rt":5683,"stimulus":"[\"img/0758/dd559618-7f09-4a07-8018-d311c4a5ea29.jpg\",\"img/0883/142a783e-a468-4b7f-a750-1e107613d5a9.jpg\"]","trial_type":"similarity","trial_index":204,"time_elapsed":1862067,"internal_node_id":"0.0-6.0-198.0"},{"sim_score":4,"rt":6647,"stimulus":"[\"img/0881/dea58fad-b4f1-41d9-bd3f-916eff19a3fd.jpg\",\"img/0958/9be61b1d-099b-432a-ae0e-2aa69e157c0e.jpg\"]","trial_type":"similarity","trial_index":205,"time_elapsed":1869734,"internal_node_id":"0.0-6.0-199.0"},{"sim_score":3,"rt":5503,"stimulus":"[\"img/0958/e9e2cc42-eb3b-4c91-8112-a517305c15f0.jpg\",\"img/0874/adf9a8f1-c40b-402b-b95b-1e85a54a7b62.jpg\"]","trial_type":"similarity","trial_index":206,"time_elapsed":1876241,"internal_node_id":"0.0-6.0-200.0"},{"sim_score":2,"rt":5666,"stimulus":"[\"img/0885/05af267f-b982-498d-9807-ccd54689f9b4.jpg\",\"img/0860/17b44a7d-c5ca-479f-9e87-f65a64f5c80e.jpg\"]","trial_type":"similarity","trial_index":207,"time_elapsed":1882913,"internal_node_id":"0.0-6.0-201.0"},{"sim_score":2,"rt":6114,"stimulus":"[\"img/0875/3ecb367d-e9eb-4826-8aaa-7aa72fb98019.jpg\",\"img/0881/adc02f34-ce97-4aef-850f-00519df06fd7.jpg\"]","trial_type":"similarity","trial_index":208,"time_elapsed":1890039,"internal_node_id":"0.0-6.0-202.0"},{"sim_score":5,"rt":6005,"stimulus":"[\"img/0758/3ddd05d3-557e-4ee7-8b78-9d2d681d8ae2.jpg\",\"img/0860/c7047cd2-7cc1-41b6-8a34-c0986774975f.jpg\"]","trial_type":"similarity","trial_index":209,"time_elapsed":1897049,"internal_node_id":"0.0-6.0-203.0"},{"sim_score":6,"rt":6720,"stimulus":"[\"img/0860/5bff793e-cbd5-4d7e-b628-0ac2b0e30b64.jpg\",\"img/0860/15b24a61-25be-4356-9eac-5ce95d0cb4a4.jpg\"]","trial_type":"similarity","trial_index":210,"time_elapsed":1904775,"internal_node_id":"0.0-6.0-204.0"},{"sim_score":4,"rt":8805,"stimulus":"[\"img/0874/3f471690-9788-4d03-90c7-f615aecef149.jpg\",\"img/0874/7e4f2150-3b59-4a36-b5da-a4e0ba410531.jpg\"]","trial_type":"similarity","trial_index":211,"time_elapsed":1914585,"internal_node_id":"0.0-6.0-205.0"},{"sim_score":3,"rt":5336,"stimulus":"[\"img/0883/daaa1a6f-c322-46f6-b6a6-db2c9496d710.jpg\",\"img/0761/47960f80-42b7-4397-a852-ec55d716c652.jpg\"]","trial_type":"similarity","trial_index":212,"time_elapsed":1920927,"internal_node_id":"0.0-6.0-206.0"},{"sim_score":2,"rt":4447,"stimulus":"[\"img/0761/00a8e7ae-d8da-4cba-8969-1dfb943a2aa2.jpg\",\"img/0881/292e9b4b-fca0-4ba8-87f1-4048f9e37b7d.jpg\"]","trial_type":"similarity","trial_index":213,"time_elapsed":1926391,"internal_node_id":"0.0-6.0-207.0"},{"sim_score":5,"rt":5797,"stimulus":"[\"img/0760/d87ebbb0-e718-4ab1-8882-e48253d6fd00.jpg\",\"img/0756/d0f1b906-d8e0-4528-9d08-90cec14838ec.jpg\"]","trial_type":"similarity","trial_index":214,"time_elapsed":1933193,"internal_node_id":"0.0-6.0-208.0"},{"sim_score":2,"rt":4624,"stimulus":"[\"img/0885/fce9f22a-f769-477c-acee-a5ad8214f0a5.jpg\",\"img/0757/acda7aee-6b29-463f-bf01-0d64d6a6ae2b.jpg\"]","trial_type":"similarity","trial_index":215,"time_elapsed":1948645,"internal_node_id":"0.0-6.0-209.0"},{"view_history":"[{\"page_index\":0,\"viewing_time\":9109}]","rt":9110,"trial_type":"instructions","trial_index":216,"time_elapsed":1958760,"internal_node_id":"0.0-7.0"},{"rt":49502,"responses":"{\"Q0\":\"Townsend's Warbler\"}","answer":["Orange-crowned Warbler"],"trial_type":"image-multi-choice","trial_index":217,"time_elapsed":2009296,"internal_node_id":"0.0-8.0-0.0"},{"rt":35173,"responses":"{\"Q0\":\"Wilson's Warbler\"}","answer":["Wilson's Warbler"],"trial_type":"image-multi-choice","trial_index":218,"time_elapsed":2045488,"internal_node_id":"0.0-8.0-1.0"},{"rt":47312,"responses":"{\"Q0\":\"Blackpoll Warbler\"}","answer":["Blackpoll Warbler"],"trial_type":"image-multi-choice","trial_index":219,"time_elapsed":2093819,"internal_node_id":"0.0-8.0-2.0"},{"rt":9703,"responses":"{\"Q0\":\"Black-and-white Warbler\"}","answer":["Black-and-white Warbler"],"trial_type":"image-multi-choice","trial_index":220,"time_elapsed":2104539,"internal_node_id":"0.0-8.0-3.0"},{"rt":26895,"responses":"{\"Q0\":\"Northern Parula\"}","answer":["Yellow-breasted Chat"],"trial_type":"image-multi-choice","trial_index":221,"time_elapsed":2132462,"internal_node_id":"0.0-8.0-4.0"},{"rt":45176,"responses":"{\"Q0\":\"Ovenbird\"}","answer":["Canada Warbler"],"trial_type":"image-multi-choice","trial_index":222,"time_elapsed":2178660,"internal_node_id":"0.0-8.0-5.0"},{"rt":12427,"responses":"{\"Q0\":\"Yellow-breasted Chat\"}","answer":["Common Yellowthroat"],"trial_type":"image-multi-choice","trial_index":223,"time_elapsed":2192097,"internal_node_id":"0.0-8.0-6.0"},{"rt":12051,"responses":"{\"Q0\":\"American Redstart\"}","answer":["American Redstart"],"trial_type":"image-multi-choice","trial_index":224,"time_elapsed":2205165,"internal_node_id":"0.0-8.0-7.0"},{"rt":16267,"responses":"{\"Q0\":\"Chestnut-sided Warbler\"}","answer":["Chestnut-sided Warbler"],"trial_type":"image-multi-choice","trial_index":225,"time_elapsed":2222448,"internal_node_id":"0.0-8.0-8.0"},{"rt":8482,"responses":"{\"Q0\":\"Black-throated Green Warbler\"}","answer":["Black-throated Green Warbler"],"trial_type":"image-multi-choice","trial_index":226,"time_elapsed":2231946,"internal_node_id":"0.0-8.0-9.0"},{"rt":19699,"responses":"{\"Q0\":\"Blackpoll Warbler\"}","answer":["Blackburnian Warbler"],"trial_type":"image-multi-choice","trial_index":227,"time_elapsed":2252660,"internal_node_id":"0.0-8.0-10.0"},{"rt":12118,"responses":"{\"Q0\":\"Chestnut-sided Warbler\"}","answer":["Yellow-rumped Warbler"],"trial_type":"image-multi-choice","trial_index":228,"time_elapsed":2265801,"internal_node_id":"0.0-8.0-11.0"},{"rt":14110,"responses":"{\"Q0\":\"Ovenbird\"}","answer":["Ovenbird"],"trial_type":"image-multi-choice","trial_index":229,"time_elapsed":2280931,"internal_node_id":"0.0-8.0-12.0"},{"rt":17049,"responses":"{\"Q0\":\"Canada Warbler\"}","answer":["Townsend's Warbler"],"trial_type":"image-multi-choice","trial_index":230,"time_elapsed":2299011,"internal_node_id":"0.0-8.0-13.0"},{"rt":12076,"responses":"{\"Q0\":\"Northern Waterthrush\"}","answer":["Northern Waterthrush"],"trial_type":"image-multi-choice","trial_index":231,"time_elapsed":2312103,"internal_node_id":"0.0-8.0-14.0"},{"rt":15168,"responses":"{\"Q0\":\"Nashville Warbler\"}","answer":["Yellow Warbler"],"trial_type":"image-multi-choice","trial_index":232,"time_elapsed":2328290,"internal_node_id":"0.0-8.0-15.0"},{"rt":14594,"responses":"{\"Q0\":\"Wilson's Warbler\"}","answer":["Nashville Warbler"],"trial_type":"image-multi-choice","trial_index":233,"time_elapsed":2343906,"internal_node_id":"0.0-8.0-16.0"},{"rt":24312,"responses":"{\"Q0\":\"Tennessee Warbler\"}","answer":["Northern Parula"],"trial_type":"image-multi-choice","trial_index":234,"time_elapsed":2369244,"internal_node_id":"0.0-8.0-17.0"},{"rt":21570,"responses":"{\"Q0\":\"Wilson's Warbler\"}","answer":["Tennessee Warbler"],"trial_type":"image-multi-choice","trial_index":235,"time_elapsed":2391831,"internal_node_id":"0.0-8.0-18.0"},{"rt":11316,"responses":"{\"Q0\":\"Blackburnian Warbler\"}","answer":["Magnolia Warbler"],"trial_type":"image-multi-choice","trial_index":236,"time_elapsed":2404164,"internal_node_id":"0.0-8.0-19.0"}]