"view_history","rt","trial_type","trial_index","time_elapsed","internal_node_id","sim_score","stimulus","responses","answer"
"[{""page_index"":0,""viewing_time"":8118}]","8119","instructions","0","8122","0.0-0.0","","","",""
"","10373","similarity_demo","1","19511","0.0-1.0","7","[""img/bluejay1.jpg"",""img/bluejay2.jpg""]","",""
"[{""page_index"":0,""viewing_time"":3263}]","3264","instructions","2","23775","0.0-2.0","","","",""
"","6467","similarity_demo","3","31249","0.0-3.0","4","[""img/bluejay1.jpg"",""img/cardinal1.jpg""]","",""
"[{""page_index"":0,""viewing_time"":7001}]","7002","instructions","4","39253","0.0-4.0","","","",""
"[{""page_index"":0,""viewing_time"":8147}]","8147","instructions","5","48400","0.0-5.0","","","",""
"","8481","similarity","6","57892","0.0-6.0-0.0","5","[""img/0864/da39ad34-04e0-40d4-a724-c08d53e0ea09.jpg"",""img/0860/524b2e98-5767-4d53-942c-ebae6925659b.jpg""]","",""
"","6082","similarity","7","64981","0.0-6.0-1.0","2","[""img/0884/7f9cc898-36bc-49ec-8b1a-01065d9c0062.jpg"",""img/0760/9ddd6958-7349-45d6-b5bc-4a5911960c35.jpg""]","",""
"","5943","similarity","8","71931","0.0-6.0-2.0","2","[""img/0886/451550d7-6ff9-42b5-938c-9e20ee960bf6.jpg"",""img/0881/20af39f5-373d-4a55-a437-2dc4c0382c46.jpg""]","",""
"","6740","similarity","9","79677","0.0-6.0-3.0","5","[""img/0866/f756f7d1-9ad8-4a34-9ef6-7a443d705bfe.jpg"",""img/0881/48ed65a5-471f-41af-86ec-3793805c116d.jpg""]","",""
"","6204","similarity","10","86889","0.0-6.0-4.0","3","[""img/0868/8b0b8473-e2c0-4331-aa56-c3a5c29369da.jpg"",""img/0885/6873c613-5e40-42ff-a5b6-443b6b626ae2.jpg""]","",""
"","6511","similarity","11","94407","0.0-6.0-5.0","2","[""img/0757/417763f8-6fe7-44f2-acaa-613a44f20835.jpg"",""img/0866/07c9c966-3c8d-40e7-8128-92b2acbaed5d.jpg""]","",""
"","6608","similarity","12","102021","0.0-6.0-6.0","5","[""img/0868/0d3abd3a-b6c3-4584-a9f7-e2da63748b3d.jpg"",""img/0864/9b2490c5-a282-400a-9736-e1a0ecbf1cb7.jpg""]","",""
"","5545","similarity","13","108573","0.0-6.0-7.0","4","[""img/0864/afcba0a3-7e27-4757-b254-e9f05fad27e2.jpg"",""img/0864/87c467d3-abca-482f-ad80-3766c21b1bb3.jpg""]","",""
"","4154","similarity","14","113733","0.0-6.0-8.0","5","[""img/0757/1fd9dcb9-e489-4708-b518-f356d3f5481d.jpg"",""img/0881/db77fe00-aeb0-4d1d-aa66-f3a96fd077e4.jpg""]","",""
"","5093","similarity","15","119832","0.0-6.0-9.0","1","[""img/0886/1e8c0f89-c766-41c9-b522-83c342048f34.jpg"",""img/0760/9daf8012-19c4-498f-8f51-81ec001a83be.jpg""]","",""
"","6203","similarity","16","127043","0.0-6.0-10.0","3","[""img/0884/ffcce05a-b38d-4570-b3dc-751e89b7790a.jpg"",""img/0883/cc2bb2c6-18f1-414f-98cc-6cd683173ce4.jpg""]","",""
"","5733","similarity","17","133782","0.0-6.0-11.0","6","[""img/0874/31e22c7c-99aa-40b1-bf03-dd73fa2df4d6.jpg"",""img/0862/00c06b00-3b73-44e9-bc1e-c5aafb438321.jpg""]","",""
"","5796","similarity","18","140584","0.0-6.0-12.0","2","[""img/0862/e8cc3bdf-cc43-4565-bccf-492626c70953.jpg"",""img/0875/dbdd643e-6d0e-4a5c-ab57-b9c29b9c981a.jpg""]","",""
"","6966","similarity","19","148556","0.0-6.0-13.0","4","[""img/0875/cff79b3a-a797-4393-9757-6275f999ec04.jpg"",""img/0757/31d8ee3d-1b79-4d6a-9347-f91c87c00f92.jpg""]","",""
"","5749","similarity","20","155310","0.0-6.0-14.0","6","[""img/0875/8521fd58-3b1e-4dc5-97ae-804edfa6734a.jpg"",""img/0860/8277806e-b684-4474-8f7b-3fca946d7d4f.jpg""]","",""
"","3655","similarity","21","159975","0.0-6.0-15.0","3","[""img/0860/d9a0d117-6d1d-41c0-8fec-9aff0fd9e9f2.jpg"",""img/0881/667e2147-d457-4f32-aa5f-6ab86e5848f1.jpg""]","",""
"","4363","similarity","22","165343","0.0-6.0-16.0","5","[""img/0885/24afeefb-f7b3-4e8f-a5b9-17cc00fd22e3.jpg"",""img/0884/9b1b7885-1502-448f-9b20-ddc19aa5456f.jpg""]","",""
"","3587","similarity","23","169939","0.0-6.0-17.0","7","[""img/0761/af21c992-a721-45fb-bee7-f50c0f676c30.jpg"",""img/0761/bd083642-a9bc-4877-bfc6-63bd03d33e81.jpg""]","",""
"","5111","similarity","24","176056","0.0-6.0-18.0","4","[""img/0760/1c96ffb7-17db-4253-b66c-59250977c88b.jpg"",""img/0864/1ebbc554-99fa-49f9-8799-317375a79820.jpg""]","",""
"","3873","similarity","25","180936","0.0-6.0-19.0","5","[""img/0864/b3c4e378-28f0-4699-9338-2a257b4bca04.jpg"",""img/0875/ebf7653f-ff45-4e9f-af58-2c042ab3cd2b.jpg""]","",""
"","6133","similarity","26","188075","0.0-6.0-20.0","3","[""img/0874/93d1f8dc-acf2-4f03-bd8d-8ec35df276ed.jpg"",""img/0884/ee845634-cd54-4c06-95a9-962122ef8712.jpg""]","",""
"","5120","similarity","27","194201","0.0-6.0-21.0","2","[""img/0885/0cdcdaca-f91e-4d4a-a6f6-dc90ab676435.jpg"",""img/0866/02f5e6b9-52b7-448c-9708-5b460d0c9a23.jpg""]","",""
"","6731","similarity","28","201938","0.0-6.0-22.0","6","[""img/0868/5fa7f9d0-f0e5-454c-8224-74d964818f56.jpg"",""img/0868/d98ca254-b195-477f-b57e-5760a2717db8.jpg""]","",""
"","6023","similarity","29","208968","0.0-6.0-23.0","2","[""img/0757/94c7f207-1115-4451-b22b-1f74b3661208.jpg"",""img/0756/8ab56efe-fef0-45cc-ab57-82597f83b26a.jpg""]","",""
"","3492","similarity","30","213466","0.0-6.0-24.0","7","[""img/0875/99698b4d-b4a1-44bc-8c83-8ea755bbbf61.jpg"",""img/0875/e7e66b13-b573-431e-b85e-288ce04a35a3.jpg""]","",""
"","3869","similarity","31","218342","0.0-6.0-25.0","2","[""img/0761/6b42b402-9e0f-4179-9e10-660b2c07626b.jpg"",""img/0866/93a27239-8317-4e08-98ca-d8b1ff298e07.jpg""]","",""
"","5820","similarity","32","225168","0.0-6.0-26.0","1","[""img/0866/945c6710-d15b-4a5b-a8f6-69af0850357f.jpg"",""img/0758/d540bee6-b460-4c32-ac57-bc282742d7d4.jpg""]","",""
"","3947","similarity","33","230122","0.0-6.0-27.0","5","[""img/0758/d41c06bf-ebaf-454b-91c6-1a17f917b659.jpg"",""img/0875/5a716432-c6ca-4b1c-955a-2b8ac25198ee.jpg""]","",""
"","6439","similarity","34","237567","0.0-6.0-28.0","3","[""img/0958/86d1a76d-f067-4e36-9ab5-13da78c97c0e.jpg"",""img/0757/1aca59fd-6030-4bb0-93c7-32a90f3237cf.jpg""]","",""
"","4806","similarity","35","243379","0.0-6.0-29.0","4","[""img/0873/b1e2e09f-ad9a-433e-818f-56dd2f1cb09c.jpg"",""img/0883/e7e4af6a-bc7a-4a9b-921c-32652db13239.jpg""]","",""
"","5458","similarity","36","249843","0.0-6.0-30.0","1","[""img/0868/d6d1f30d-4323-435a-b194-7892521bc57e.jpg"",""img/0875/2e13d160-eea1-416b-aff1-d37ab99ecc1d.jpg""]","",""
"","5260","similarity","37","256110","0.0-6.0-31.0","2","[""img/0884/baabff07-71d8-424e-ac29-644768380941.jpg"",""img/0862/53a9cf7c-93c4-41b9-952f-07d17f7a17b2.jpg""]","",""
"","5694","similarity","38","262811","0.0-6.0-32.0","5","[""img/0884/a416b0d1-f903-4935-b89f-99c29683752b.jpg"",""img/0864/49150900-7f25-4ce8-8d10-9b47a71d1997.jpg""]","",""
"","4247","similarity","39","268065","0.0-6.0-33.0","5","[""img/0883/dc95de8d-9297-41ec-b3ac-3f8b060260e3.jpg"",""img/0958/e9e2cc42-eb3b-4c91-8112-a517305c15f0.jpg""]","",""
"","5534","similarity","40","274606","0.0-6.0-34.0","1","[""img/0864/3d4de670-b290-4285-9c3d-12a0e3af44e9.jpg"",""img/0756/d0f1b906-d8e0-4528-9d08-90cec14838ec.jpg""]","",""
"","5450","similarity","41","281063","0.0-6.0-35.0","6","[""img/0874/99f6563c-8a8d-4c1c-a41d-667b618c3fd5.jpg"",""img/0758/53f35650-e455-4b53-8be4-c3c8271c6466.jpg""]","",""
"","5140","similarity","42","287209","0.0-6.0-36.0","1","[""img/0886/9b0bffbe-9237-404d-a0ba-a1982e0814c7.jpg"",""img/0862/47ed5efd-4ec9-4b74-bb4e-a5f5cf0c3e7d.jpg""]","",""
"","5515","similarity","43","293730","0.0-6.0-37.0","3","[""img/0862/ad593cc7-cabe-4bb7-8e14-8a447a0717b4.jpg"",""img/0885/62bd11a8-7059-4cc2-b06d-4700688b313f.jpg""]","",""
"","3920","similarity","44","298657","0.0-6.0-38.0","3","[""img/0758/7ffbc76b-1fc1-432c-8f7e-9ec8d1b3f643.jpg"",""img/0864/66091c27-e588-4476-8af9-265dc6be4156.jpg""]","",""
"","3774","similarity","45","303437","0.0-6.0-39.0","2","[""img/0873/ac86dbfd-0442-4dec-9d10-37d7093f5a52.jpg"",""img/0867/a749dddb-69f0-44a6-acdc-2bf295cf6dcc.jpg""]","",""
"","4089","similarity","46","308533","0.0-6.0-40.0","6","[""img/0958/bb684a39-afef-4125-9f70-b5ad830ba316.jpg"",""img/0884/3613aeb4-0028-4205-aea0-1ea28cb1f80e.jpg""]","",""
"","6150","similarity","47","321255","0.0-6.0-41.0","7","[""img/0873/d39b1731-1669-4c96-b5c6-682b30e287ee.jpg"",""img/0873/1d1be182-3bb2-4efd-8543-d70b8db7beef.jpg""]","",""
"","4962","similarity","48","327225","0.0-6.0-42.0","2","[""img/0886/e5903946-897c-4420-87c0-afee4100305c.jpg"",""img/0758/dd559618-7f09-4a07-8018-d311c4a5ea29.jpg""]","",""
"","4042","similarity","49","332273","0.0-6.0-43.0","2","[""img/0883/49aada36-b662-416c-93ae-9eab6598bfae.jpg"",""img/0874/a3bc679d-619f-4db6-bb68-116dcb757d9c.jpg""]","",""
"","3585","similarity","50","336865","0.0-6.0-44.0","2","[""img/0881/54ea8e77-c7e5-4197-b7fa-00b7020849a7.jpg"",""img/0873/0c7f3d86-efda-4809-aac4-256ba01e0536.jpg""]","",""
"","4050","similarity","51","341921","0.0-6.0-45.0","3","[""img/0867/6e19c858-b606-45b2-a4c6-910a73f1d82c.jpg"",""img/0757/802a8692-dc9e-4372-8811-ce4351a09d1a.jpg""]","",""
"","4939","similarity","52","347868","0.0-6.0-46.0","5","[""img/0866/a04d37f0-99dd-478a-b6c6-58b215138f84.jpg"",""img/0874/3ce41e7c-40c8-4d58-a546-171114521796.jpg""]","",""
"","3542","similarity","53","352417","0.0-6.0-47.0","7","[""img/0886/b8648eb5-de71-41ab-825d-848e51be8c1b.jpg"",""img/0886/0f9715c1-b2e4-418e-bf9b-126cc9e70dc6.jpg""]","",""
"","5165","similarity","54","358588","0.0-6.0-48.0","3","[""img/0883/29cba870-24df-4a0b-85cd-b680316ffe3d.jpg"",""img/0860/94ef7afc-e0e6-4a15-98c6-0bfac82bc832.jpg""]","",""
"","3207","similarity","55","362801","0.0-6.0-49.0","1","[""img/0860/15b24a61-25be-4356-9eac-5ce95d0cb4a4.jpg"",""img/0756/5dba4151-3cf5-42f5-8dd9-7c6128318b01.jpg""]","",""
"","4703","similarity","56","368510","0.0-6.0-50.0","3","[""img/0860/702bd09d-df3a-40aa-a267-5f04474305b5.jpg"",""img/0757/cd7fd185-981f-477a-ba00-a0f65bcfd0e9.jpg""]","",""
"","2682","similarity","57","372198","0.0-6.0-51.0","7","[""img/0756/350ac166-1deb-4399-89db-da6a7e827c4d.jpg"",""img/0756/c7199ce2-2203-43c6-90d7-78f77277b522.jpg""]","",""
"","5237","similarity","58","378441","0.0-6.0-52.0","4","[""img/0875/34132396-d896-4c2d-8087-646dd867e769.jpg"",""img/0866/23a224f3-2012-4fc8-8e0f-3c36f8de27fd.jpg""]","",""
"","4507","similarity","59","383954","0.0-6.0-53.0","3","[""img/0756/bb3f0571-641e-4d5b-b528-672892c37030.jpg"",""img/0758/61d64021-9214-4951-bdf8-f871f9827cf9.jpg""]","",""
"","5708","similarity","60","390667","0.0-6.0-54.0","3","[""img/0761/53a65b48-8b0c-4a1d-9ebb-a27a259c5bc6.jpg"",""img/0884/fb8b0101-bfd2-462b-a942-d3202a69dd18.jpg""]","",""
"","5459","similarity","61","397133","0.0-6.0-55.0","2","[""img/0760/191d8576-9ed7-4798-a486-66a7fd600e58.jpg"",""img/0867/075e0f95-856b-4cbb-acf5-092393aaf04e.jpg""]","",""
"","6227","similarity","62","404366","0.0-6.0-56.0","3","[""img/0866/386235d2-6857-41e7-88a8-25cfc3430025.jpg"",""img/0884/592da15b-09e4-46b5-81e7-bab08a1c33e9.jpg""]","",""
"","4048","similarity","63","409419","0.0-6.0-57.0","3","[""img/0756/ba3f2106-0416-46e6-a788-1b50d9f92bda.jpg"",""img/0761/71d2e184-21b4-4711-97f3-e381c641da2c.jpg""]","",""
"","4513","similarity","64","414939","0.0-6.0-58.0","3","[""img/0867/ac1797e4-8afc-48fe-b252-86d1defb1cca.jpg"",""img/0860/5bff793e-cbd5-4d7e-b628-0ac2b0e30b64.jpg""]","",""
"","5555","similarity","65","421501","0.0-6.0-59.0","6","[""img/0881/e6746727-7f89-47ec-b939-d98abe78372d.jpg"",""img/0758/caa93da2-9edf-49fa-96b9-32dedd8f5078.jpg""]","",""
"","5063","similarity","66","427569","0.0-6.0-60.0","5","[""img/0761/1725cacb-5f86-4b47-a5c0-3c36cd981588.jpg"",""img/0758/9fb5b2fe-3f00-4fe6-973c-1ce10d5f4cd5.jpg""]","",""
"","3843","similarity","67","432420","0.0-6.0-61.0","2","[""img/0958/eea2b7ca-1c37-4e76-ada7-a8b1f3afdc01.jpg"",""img/0875/3ecb367d-e9eb-4826-8aaa-7aa72fb98019.jpg""]","",""
"","3704","similarity","68","437131","0.0-6.0-62.0","2","[""img/0886/625c7dfa-3fa1-4166-80f0-229eb416b04f.jpg"",""img/0864/4bd81bc6-c13d-46df-95a9-485886dc7c1b.jpg""]","",""
"","3722","similarity","69","441860","0.0-6.0-63.0","3","[""img/0756/403d0540-b812-446f-bb5a-e8030be0a02f.jpg"",""img/0874/2c9464dd-8a23-4baa-ac94-1ba3af5c15cc.jpg""]","",""
"","4969","similarity","70","447836","0.0-6.0-64.0","5","[""img/0758/a085b443-b5d7-4cb2-9ad4-b9dab0fc23f1.jpg"",""img/0885/a8cbb477-19ef-45ef-8f48-9667aec40bd1.jpg""]","",""
"","5268","similarity","71","454111","0.0-6.0-65.0","4","[""img/0760/d87ebbb0-e718-4ab1-8882-e48253d6fd00.jpg"",""img/0958/644719ec-1690-4af2-a63f-0b6467c3791e.jpg""]","",""
"","4371","similarity","72","459488","0.0-6.0-66.0","2","[""img/0884/13db1f36-8c9f-4b28-8426-04eaa9fba737.jpg"",""img/0881/344de456-b358-4887-bd0e-e4c3278af887.jpg""]","",""
"","4050","similarity","73","464543","0.0-6.0-67.0","3","[""img/0864/0f537697-a314-47c3-a8cc-8df23b7e536c.jpg"",""img/0873/b02f9cce-7f58-4f1b-baed-50fee9f0a21f.jpg""]","",""
"","4481","similarity","74","470032","0.0-6.0-68.0","3","[""img/0862/24cdc752-c2e5-4a17-86a6-6f2045d8553b.jpg"",""img/0758/335851a0-a55b-46d8-ab05-8463eda48349.jpg""]","",""
"","4654","similarity","75","475692","0.0-6.0-69.0","7","[""img/0757/e2cf79e3-9d9f-49eb-a09d-0028ca21d242.jpg"",""img/0757/efa4466e-2951-4af9-b321-85458a89c2a7.jpg""]","",""
"","5288","similarity","76","481986","0.0-6.0-70.0","5","[""img/0860/4f695df5-afac-4da7-9875-fee39b0b24ad.jpg"",""img/0862/7918ca67-5bd3-4606-a5ea-c39fb11a9297.jpg""]","",""
"","3783","similarity","77","486775","0.0-6.0-71.0","4","[""img/0860/18dfed73-e36b-4487-a8bd-0b8cff8e3668.jpg"",""img/0884/989ec8e3-5e41-4055-b0b5-3d65b9c44917.jpg""]","",""
"","5708","similarity","78","493489","0.0-6.0-72.0","2","[""img/0883/cc3df660-426e-452e-ac50-3a3b09dc4b65.jpg"",""img/0866/620cd1aa-0800-4414-8f6e-90342e7a99ad.jpg""]","",""
"","4606","similarity","79","499100","0.0-6.0-73.0","5","[""img/0866/11a1d141-be5e-443c-98c1-a9d4d9e3dec0.jpg"",""img/0886/9ac18ff1-d3d9-4bfe-aa2e-ed5b28399f6c.jpg""]","",""
"","6103","similarity","80","506209","0.0-6.0-74.0","3","[""img/0958/96f89270-febc-4f09-b8c3-53a249ff00ea.jpg"",""img/0761/3599fa54-18f9-488e-b402-e851c43586ff.jpg""]","",""
"","4952","similarity","81","512167","0.0-6.0-75.0","3","[""img/0875/d59ff733-eaff-4ee2-9443-06954dd0bcb6.jpg"",""img/0756/04655068-a9fc-49d9-b2f4-21e4d42b7903.jpg""]","",""
"","5959","similarity","82","519132","0.0-6.0-76.0","2","[""img/0958/ba5ed153-96de-4f61-b7d9-87a478c8972c.jpg"",""img/0885/1cd940ef-9720-4a04-8fa1-1dd3a39ecdd6.jpg""]","",""
"","4639","similarity","83","524777","0.0-6.0-77.0","3","[""img/0868/4e626425-63c8-484a-8a1d-e66ee4e0bef8.jpg"",""img/0883/46d6b8ad-7f31-441e-92d2-0cc16d3d99ce.jpg""]","",""
"","3924","similarity","84","529708","0.0-6.0-78.0","2","[""img/0862/847e5208-38ec-4f36-949c-296cdd7424ee.jpg"",""img/0760/c76e8a36-1537-42e0-9779-13c2b6a89725.jpg""]","",""
"","3080","similarity","85","533792","0.0-6.0-79.0","3","[""img/0885/4fd0aafb-6cc0-43d6-993a-c55a6e18a7ba.jpg"",""img/0761/b8f211c0-f640-43a2-b101-101774517d95.jpg""]","",""
"","6267","similarity","86","541065","0.0-6.0-80.0","5","[""img/0862/f188d4f0-76a4-4102-818c-a209969d73a5.jpg"",""img/0864/6e846d43-94a6-4b37-a268-65eda979f052.jpg""]","",""
"","5275","similarity","87","547344","0.0-6.0-81.0","6","[""img/0758/6e95579b-5166-487c-b8cb-e417c6a218e3.jpg"",""img/0758/b76ceca7-95ac-46e4-ac13-da02c8e93be9.jpg""]","",""
"","3359","similarity","88","551708","0.0-6.0-82.0","3","[""img/0862/57b6f83f-c763-4858-830d-102f97bfefbf.jpg"",""img/0873/b509aa81-b1d7-4d50-8aef-9c7b725c3157.jpg""]","",""
"","3641","similarity","89","559539","0.0-6.0-83.0","1","[""img/0760/0864f159-c076-4573-83e1-ea134f239717.jpg"",""img/0757/c05f53f3-811c-4a3b-b848-a27b80b8fd53.jpg""]","",""
"","3751","similarity","90","564297","0.0-6.0-84.0","1","[""img/0867/c66898ba-b71b-4d50-84f9-f7f84853a98d.jpg"",""img/0881/44e09805-5a25-4f17-a716-4ad4a331b174.jpg""]","",""
"","3340","similarity","91","568643","0.0-6.0-85.0","2","[""img/0885/a4e5c564-1e5f-4fed-9f73-b8d1becf62b6.jpg"",""img/0886/97243e18-4dba-4af8-b49f-b3b635c90ac4.jpg""]","",""
"","3097","similarity","92","572746","0.0-6.0-86.0","2","[""img/0866/0207e9a2-7dbb-40b5-9459-b472aaeceb2a.jpg"",""img/0864/5f74a653-3bdc-4308-8cca-ac667dc22e1f.jpg""]","",""
"","4169","similarity","93","577921","0.0-6.0-87.0","6","[""img/0874/bf14b896-e930-4fd9-9c05-2e83317a2773.jpg"",""img/0881/e046471a-35b4-4159-bbf7-3cfd201bef66.jpg""]","",""
"","3490","similarity","94","582416","0.0-6.0-88.0","4","[""img/0866/d493a2c8-66eb-44b4-be02-2f327b700b7c.jpg"",""img/0760/4f024637-f98a-409a-baa0-fc4989d80667.jpg""]","",""
"","4836","similarity","95","588258","0.0-6.0-89.0","5","[""img/0867/f8159067-056c-41f1-a136-c529fe5e970a.jpg"",""img/0884/d8ffab77-40df-44ba-bf27-70815b052250.jpg""]","",""
"","6139","similarity","96","595403","0.0-6.0-90.0","2","[""img/0757/92ed1ceb-29ef-4044-9601-78d7806e2396.jpg"",""img/0862/92f0146c-20c4-482e-aef5-adb693790338.jpg""]","",""
"","5916","similarity","97","602326","0.0-6.0-91.0","3","[""img/0867/f26f6b60-f772-4f4c-95a4-addc62cfd692.jpg"",""img/0761/8e379ec1-757d-4427-a0ff-d4efdd6a50c4.jpg""]","",""
"","5007","similarity","98","608339","0.0-6.0-92.0","5","[""img/0868/15dd6fd7-791e-4b53-b203-195d617521a4.jpg"",""img/0958/edfd5bc1-8c8f-489a-84c3-908436ef76cc.jpg""]","",""
"","5337","similarity","99","614684","0.0-6.0-93.0","6","[""img/0874/7e4f2150-3b59-4a36-b5da-a4e0ba410531.jpg"",""img/0864/5f33e097-23e3-4002-882d-76e8cb15f451.jpg""]","",""
"","3806","similarity","100","619495","0.0-6.0-94.0","4","[""img/0760/39d75e1e-0645-4f23-a2ca-3bbefac19d69.jpg"",""img/0873/b76d7003-814d-42b0-9a16-1399c4b0e706.jpg""]","",""
"","4896","similarity","101","625400","0.0-6.0-95.0","3","[""img/0868/7b212364-ff5f-4e28-9241-7eb6ea00161b.jpg"",""img/0873/90b702a6-3dba-446a-9bba-a2ee096baf49.jpg""]","",""
"","6071","similarity","102","632476","0.0-6.0-96.0","5","[""img/0860/8fdba999-b946-4c7d-9891-336018b563ef.jpg"",""img/0761/014e76d0-fb4e-4b40-901c-7a2d5655c3b0.jpg""]","",""
"","5322","similarity","103","638803","0.0-6.0-97.0","2","[""img/0862/de9ad88c-b522-430a-8ee9-eb06a9f85df5.jpg"",""img/0883/d719aab0-0280-4c06-87e5-b9db7454965c.jpg""]","",""
"","3544","similarity","104","643353","0.0-6.0-98.0","1","[""img/0757/443a1d16-5d59-4e77-a670-d6190157c319.jpg"",""img/0884/d9185264-7f01-43b2-be7f-eed1a0f0f2e8.jpg""]","",""
"","5529","similarity","105","649888","0.0-6.0-99.0","3","[""img/0867/aa05d113-fc19-4756-a8eb-7878f580bc92.jpg"",""img/0756/caa9655d-9f7e-420d-a757-6af4985d335a.jpg""]","",""
"","3788","similarity","106","654681","0.0-6.0-100.0","3","[""img/0958/822de3b9-e5fd-4b74-aeb1-7c40805b0717.jpg"",""img/0756/4fcf5ea1-c2e0-44b9-b07f-26cbf07e1801.jpg""]","",""
"","5342","similarity","107","661030","0.0-6.0-101.0","7","[""img/0760/7cdb34e4-0556-4bf7-9a6f-05990a92e0f3.jpg"",""img/0760/1912c0dc-64a7-4c32-8d67-baf5e8752270.jpg""]","",""
"","6776","similarity","108","668813","0.0-6.0-102.0","1","[""img/0873/33552b07-bdb8-423e-88b4-25a37f159c6d.jpg"",""img/0875/90da8d75-108a-44ad-b999-e21fee3860d3.jpg""]","",""
"","4621","similarity","109","674440","0.0-6.0-103.0","6","[""img/0884/a6389ab4-3291-4434-9b91-eeae3b04fce4.jpg"",""img/0884/a8f7b854-0010-4c7a-a8fb-b1b1dc1f1ba1.jpg""]","",""
"","7737","similarity","110","683183","0.0-6.0-104.0","2","[""img/0873/ec150e40-b3ec-4dfe-ab38-bb3f248a1175.jpg"",""img/0885/fbbfaacd-e49b-4d37-a2f9-fcaffa58f26f.jpg""]","",""
"","3985","similarity","111","688173","0.0-6.0-105.0","5","[""img/0883/122548fc-b3cc-445b-b7c0-04794df6d11d.jpg"",""img/0875/f87b67d7-c33e-40d1-b281-248c4be1cb6e.jpg""]","",""
"","4643","similarity","112","693820","0.0-6.0-106.0","3","[""img/0864/65210d57-1153-4657-886a-32e758f49b4a.jpg"",""img/0867/c71dc569-f49c-4397-8381-68b8d726736d.jpg""]","",""
"","3608","similarity","113","698435","0.0-6.0-107.0","2","[""img/0958/4e2ca4bc-52c7-4c27-9610-776441231e42.jpg"",""img/0860/61fb959d-d4d9-4de4-9e4e-4fa62b4cfcd5.jpg""]","",""
"","5086","similarity","114","704527","0.0-6.0-108.0","1","[""img/0885/c840cf2c-c95d-4a08-b3c2-044d1ea946a7.jpg"",""img/0756/aa551726-e765-4729-82aa-99d700d388ae.jpg""]","",""
"","4284","similarity","115","709817","0.0-6.0-109.0","5","[""img/0883/eff15ce5-9393-443c-829f-71242d1c56d0.jpg"",""img/0885/5a47e19f-19b4-4545-bf47-b508cb65da6a.jpg""]","",""
"","4866","similarity","116","715689","0.0-6.0-110.0","7","[""img/0867/1719a35d-f085-48c0-9099-16c94fe418b4.jpg"",""img/0867/98d8cd96-1476-4fe0-a3a3-04f875500a1b.jpg""]","",""
"","6334","similarity","117","723028","0.0-6.0-111.0","4","[""img/0881/566f45f8-5fed-4479-a60f-26377e60a62d.jpg"",""img/0760/32bea725-69a2-4c9a-94d9-af05883fbb86.jpg""]","",""
"","5053","similarity","118","729088","0.0-6.0-112.0","2","[""img/0881/f6bd3b96-dc40-4e99-8681-bc3a35cf896d.jpg"",""img/0868/e0aff734-077f-40dd-9781-74821abd3621.jpg""]","",""
"","6269","similarity","119","736363","0.0-6.0-113.0","3","[""img/0875/03c3c331-738b-4446-af92-3d7386b08c2e.jpg"",""img/0761/aebad236-1f4a-4bc2-a74d-d92b7e226316.jpg""]","",""
"","4142","similarity","120","741511","0.0-6.0-114.0","2","[""img/0756/09fde3d3-27c5-435e-b68f-5410beb04e99.jpg"",""img/0866/8efcaa46-83ab-4dee-a35f-850402aa21ae.jpg""]","",""
"","5590","similarity","121","748106","0.0-6.0-115.0","4","[""img/0884/2348ce3f-5d2a-4a04-85ef-a65f05caa935.jpg"",""img/0886/7164ac42-460f-4beb-9d5e-a1cfded3099c.jpg""]","",""
"","4592","similarity","122","753705","0.0-6.0-116.0","3","[""img/0756/00b775eb-fe41-49b2-92e9-a9955cf1042b.jpg"",""img/0881/d373cb9f-a719-4549-a2a4-82def79fb2a5.jpg""]","",""
"","5008","similarity","123","759718","0.0-6.0-117.0","3","[""img/0760/e697857f-b21d-4c49-8cde-1b803b437311.jpg"",""img/0875/42910c99-5463-450a-a0f8-d4d060a11455.jpg""]","",""
"","4184","similarity","124","764908","0.0-6.0-118.0","4","[""img/0958/fd950403-e452-4018-8207-a9714addcd75.jpg"",""img/0866/a15b02be-11bb-43e3-b0e0-ecc3bd7dfc49.jpg""]","",""
"","5379","similarity","125","771293","0.0-6.0-119.0","3","[""img/0867/f8488a47-94ee-4166-952c-44e16cf172f6.jpg"",""img/0874/995f0332-0439-4eb4-add3-957335dbf6d9.jpg""]","",""
"","4482","similarity","126","776780","0.0-6.0-120.0","2","[""img/0883/0e1ed5c7-0881-4bfd-b12f-6a53500e74f0.jpg"",""img/0757/91a048c0-e749-433b-9147-0c671dc5b4ca.jpg""]","",""
"","4863","similarity","127","782649","0.0-6.0-121.0","2","[""img/0874/8cdb1c07-1c32-46d2-981c-3636560fa6e5.jpg"",""img/0886/42cccc64-05f9-4afd-bc93-496ba50a4342.jpg""]","",""
"","5197","similarity","128","788852","0.0-6.0-122.0","1","[""img/0873/c3ff3b70-fb22-42f2-883c-3ecffd77cb4b.jpg"",""img/0761/b1819a20-de99-463b-9840-60a4b8faa30d.jpg""]","",""
"","3790","similarity","129","793648","0.0-6.0-123.0","1","[""img/0875/fb732ab5-013a-4366-9f65-27811ed157e9.jpg"",""img/0884/3c61ea12-a408-47ce-98aa-b14e0f6d4591.jpg""]","",""
"","4717","similarity","130","799372","0.0-6.0-124.0","3","[""img/0757/cb7ca802-27ac-4a1d-996f-bd21b96d6244.jpg"",""img/0868/179a5502-ab5c-478e-8263-5a1fbcc101d2.jpg""]","",""
"","4237","similarity","131","808467","0.0-6.0-125.0","3","[""img/0886/789f5d23-84b8-499a-ae1e-20c6309a06ae.jpg"",""img/0883/ff85a2f1-14b1-4b7e-9c87-887151d97e01.jpg""]","",""
"","3034","similarity","132","812508","0.0-6.0-126.0","3","[""img/0868/fd307a36-9a3a-47d7-ab7c-f810d0b35040.jpg"",""img/0760/317fc071-99e6-43cb-9099-2e50aa79ccc2.jpg""]","",""
"","5487","similarity","133","819003","0.0-6.0-127.0","6","[""img/0881/ed4c971f-0873-4fc8-b6d6-e8bbd82f0bcc.jpg"",""img/0881/609a5e93-38b5-4940-8627-2bf8fad7f802.jpg""]","",""
"","4818","similarity","134","824828","0.0-6.0-128.0","2","[""img/0760/319c5462-51de-4d3b-a135-d6c44f59c0e1.jpg"",""img/0860/c47fdead-eb02-4989-b078-26f4852f44fe.jpg""]","",""
"","5510","similarity","135","831346","0.0-6.0-129.0","3","[""img/0864/300bb811-8b3c-4c42-8653-6097c3725197.jpg"",""img/0885/517a9189-9623-4ed7-a37e-48788791e028.jpg""]","",""
"","5068","similarity","136","837420","0.0-6.0-130.0","3","[""img/0864/c22faebd-9c53-47bc-ada3-b9a30c688e75.jpg"",""img/0757/acda7aee-6b29-463f-bf01-0d64d6a6ae2b.jpg""]","",""
"","4674","similarity","137","843100","0.0-6.0-131.0","3","[""img/0760/a97cc3a7-3e6e-423e-ac87-e1d1ab280ae9.jpg"",""img/0883/b5e903b5-bc7f-421c-bf3e-245779ac90c9.jpg""]","",""
"","3144","similarity","138","847249","0.0-6.0-132.0","7","[""img/0885/21b241a1-95da-4306-9cf2-cc52a784214a.jpg"",""img/0885/1e66fe61-15d5-42b1-86aa-dbfd13613f5c.jpg""]","",""
"","5123","similarity","139","853379","0.0-6.0-133.0","5","[""img/0860/c3379ff7-0763-48fe-a1ec-7ea3d611bc7a.jpg"",""img/0868/293079b8-7e0c-4afd-a390-1e5d35fe3ded.jpg""]","",""
"","5008","similarity","140","859392","0.0-6.0-134.0","7","[""img/0867/26611f4e-d694-4460-b7e2-43c62753ddc3.jpg"",""img/0886/abd8dd83-d8ee-4003-b4d2-b4045220a578.jpg""]","",""
"","3996","similarity","141","864394","0.0-6.0-135.0","2","[""img/0756/a553ae3f-5140-4271-9000-b496fe2d4622.jpg"",""img/0886/bd45b474-5559-4ea5-83ff-140bce19f5fa.jpg""]","",""
"","5351","similarity","142","870751","0.0-6.0-136.0","5","[""img/0884/05d9bfb9-44a6-4ab4-92fa-d17e5b2b4f33.jpg"",""img/0868/c8ac40c7-6904-4e13-8d61-c75d3052dc4e.jpg""]","",""
"","4324","similarity","143","876082","0.0-6.0-137.0","5","[""img/0958/acbadc39-e665-446d-b98f-ccd0ef3223d6.jpg"",""img/0958/58b7811e-d3f6-4e4d-befb-86e063d13a43.jpg""]","",""
"","5182","similarity","144","882269","0.0-6.0-138.0","3","[""img/0886/1870a791-dfee-471e-8417-197d4a53c75a.jpg"",""img/0873/c91c05f8-fafd-4054-bcf1-f5ed1f0a18e8.jpg""]","",""
"","4550","similarity","145","887825","0.0-6.0-139.0","5","[""img/0758/e1ba5e53-addc-436a-b428-d34fc1b130dc.jpg"",""img/0873/87f38f18-48a2-4de3-b24b-70630e8b6ca0.jpg""]","",""
"","4120","similarity","146","892952","0.0-6.0-140.0","5","[""img/0873/6110910a-7895-4b6a-af51-12486a4595a3.jpg"",""img/0756/9a7a2119-24a3-431f-95e6-62f596bf88e2.jpg""]","",""
"","3490","similarity","147","897448","0.0-6.0-141.0","4","[""img/0868/3a62db2d-97e9-44a3-b8e3-a48c6f0e423b.jpg"",""img/0862/99a99e39-8355-44ec-b993-e7bcec111e1c.jpg""]","",""
"","4124","similarity","148","902578","0.0-6.0-142.0","5","[""img/0881/19e82c47-8e4b-45d2-a6c8-74181eb4155e.jpg"",""img/0862/d0ca4c78-fc35-46ed-bdcc-8e124283c53e.jpg""]","",""
"","4150","similarity","149","907735","0.0-6.0-143.0","2","[""img/0885/d2276b26-e91a-4f19-a818-cbeb297ed884.jpg"",""img/0867/50a1b60e-3a29-44bf-b606-d4bd3746fea9.jpg""]","",""
"","5620","similarity","150","914361","0.0-6.0-144.0","6","[""img/0883/512a797a-315b-439e-9a9d-855929351fd0.jpg"",""img/0883/fc8cf4c9-003e-48c4-b222-8878ea2ae1c0.jpg""]","",""
"","3876","similarity","151","919242","0.0-6.0-145.0","4","[""img/0874/eba003b4-cdab-4eee-8bc3-f064c7d94165.jpg"",""img/0873/7dddc95f-ca6e-4d15-99a0-0e329ec6888e.jpg""]","",""
"","3563","similarity","152","923812","0.0-6.0-146.0","3","[""img/0757/69d850ce-9828-4b13-9e68-6a2c196ecbcc.jpg"",""img/0758/ddc336e9-a8b6-4bb9-937a-c7e25e0e9250.jpg""]","",""
"","4706","similarity","153","929525","0.0-6.0-147.0","1","[""img/0883/142a783e-a468-4b7f-a750-1e107613d5a9.jpg"",""img/0756/b6e235f7-211b-4a2b-a7b8-393e5ec7351b.jpg""]","",""
"","5147","similarity","154","935678","0.0-6.0-148.0","6","[""img/0867/5e07b34d-b40f-4b1c-ac10-49975bace45f.jpg"",""img/0866/d266fece-59b3-46fa-b69f-96f6efb81b59.jpg""]","",""
"","4184","similarity","155","940868","0.0-6.0-149.0","1","[""img/0758/20497cbe-ddae-489e-86e2-ab06985ed07c.jpg"",""img/0760/d96a9342-5d16-403a-9f95-e062f795d968.jpg""]","",""
"","4338","similarity","156","946213","0.0-6.0-150.0","4","[""img/0757/10030bb1-70b8-4889-a8a5-ab50e145704d.jpg"",""img/0761/e34f97e4-14ac-4bb6-b226-816085d967c2.jpg""]","",""
"","4042","similarity","157","951260","0.0-6.0-151.0","4","[""img/0761/07f8178b-8ce5-42d6-bca0-a0ae0e0e8eb3.jpg"",""img/0874/85eb9b8a-c4c6-4e5a-b8e7-363a87a82054.jpg""]","",""
"","3954","similarity","158","956220","0.0-6.0-152.0","4","[""img/0761/9199a691-d36e-4ece-a815-078384ea6f06.jpg"",""img/0760/36c930c0-2660-41c1-a356-77dafb18ae83.jpg""]","",""
"","4174","similarity","159","961400","0.0-6.0-153.0","3","[""img/0866/9b38d691-1802-4959-ab3f-fc902f0e4ea6.jpg"",""img/0866/c446214b-a368-4c65-ae39-ea46894256ab.jpg""]","",""
"","5122","similarity","160","967528","0.0-6.0-154.0","5","[""img/0866/6f2a90d7-14f1-4f1b-bd64-fc0af6b9fe44.jpg"",""img/0862/5d887e9f-89e2-4ebc-80a0-6d46fe6480db.jpg""]","",""
"","5294","similarity","161","973829","0.0-6.0-155.0","2","[""img/0756/b7869208-7169-455d-835f-31926317dd95.jpg"",""img/0862/fad1d7c1-8187-43c3-942a-0fc12183e48e.jpg""]","",""
"","2831","similarity","162","977667","0.0-6.0-156.0","2","[""img/0860/99c589b9-9140-4d17-90c0-b344323edcda.jpg"",""img/0866/be24ab58-230e-4db8-9f45-ff04c9aec6bb.jpg""]","",""
"","5831","similarity","163","984504","0.0-6.0-157.0","3","[""img/0862/4f0a3b4c-afbf-486e-b248-1d54982f54b4.jpg"",""img/0958/ef1b718f-ef8c-497f-80d7-42562aebf1a7.jpg""]","",""
"","3570","similarity","164","989079","0.0-6.0-158.0","2","[""img/0761/ff3e024b-951d-4aca-a168-c09c6507525d.jpg"",""img/0868/1a62b2b2-18f5-466e-b564-5176a57c565e.jpg""]","",""
"","3385","similarity","165","993471","0.0-6.0-159.0","2","[""img/0761/a69897c1-1310-4bae-9a51-8b29cd9543dd.jpg"",""img/0886/d1e40478-2fe0-404f-8409-920da98a96a2.jpg""]","",""
"","3788","similarity","166","998266","0.0-6.0-160.0","1","[""img/0874/c0378dac-9370-439a-8b79-db27c96fb390.jpg"",""img/0868/77091fc7-a590-4ebb-b915-fdb2483a2399.jpg""]","",""
"","4190","similarity","167","1003462","0.0-6.0-161.0","3","[""img/0860/c5ccd1a4-4bb7-48e1-9b25-72cfaf06909b.jpg"",""img/0874/767f289c-9814-4496-803f-745cc8913d1f.jpg""]","",""
"","4519","similarity","168","1008987","0.0-6.0-162.0","5","[""img/0883/02f50df0-eb8c-4e17-836a-c89ddb1c04e1.jpg"",""img/0867/de92135f-5b65-4ed9-b245-188292c7c2f8.jpg""]","",""
"","6503","similarity","169","1016496","0.0-6.0-163.0","3","[""img/0758/eabcd7a8-56ad-4fd2-bc24-90f6b7b33265.jpg"",""img/0958/6e602e13-8029-4642-bce0-8deffd0dc686.jpg""]","",""
"","4141","similarity","170","1021642","0.0-6.0-164.0","4","[""img/0873/841d6549-01d2-4ebd-8d67-25d219876178.jpg"",""img/0757/014ee4a8-8069-4b08-ac1c-04230da90244.jpg""]","",""
"","4077","similarity","171","1026725","0.0-6.0-165.0","5","[""img/0873/e5374873-a1a7-4689-a04c-a3b959992244.jpg"",""img/0866/4a87911a-d5be-4d4e-ab8e-3d1f581bf507.jpg""]","",""
"","5251","similarity","172","1032982","0.0-6.0-166.0","5","[""img/0875/a4935837-7d3c-4df6-88c1-36a94d4991ca.jpg"",""img/0867/85a96c62-548f-4994-9553-819e03c3135a.jpg""]","",""
"","4128","similarity","173","1041485","0.0-6.0-167.0","7","[""img/0862/fb26cb07-d5a9-4653-813c-f41609f26cd5.jpg"",""img/0862/e0f1a4e9-e1b6-45f7-af67-89f334e6630d.jpg""]","",""
"","3358","similarity","174","1045849","0.0-6.0-168.0","1","[""img/0875/527ced51-8e53-4aab-ab05-86df219104c0.jpg"",""img/0886/48077111-b86b-4612-910f-90a5d168d77f.jpg""]","",""
"","3372","similarity","175","1050228","0.0-6.0-169.0","5","[""img/0885/05af267f-b982-498d-9807-ccd54689f9b4.jpg"",""img/0875/2c361b79-c3d1-4eda-812e-bf03192407bf.jpg""]","",""
"","4410","similarity","176","1055643","0.0-6.0-170.0","3","[""img/0862/ee3b7bff-4a70-4e84-9bea-4a565e456acb.jpg"",""img/0867/8ba0c5a7-c7e4-42cf-a80a-543763b90779.jpg""]","",""
"","5542","similarity","177","1062191","0.0-6.0-171.0","3","[""img/0884/7ae02e9d-46a4-4124-bcc2-cad90d7ef9f9.jpg"",""img/0873/c4b47588-9c66-4401-aefc-cf9481d5fa85.jpg""]","",""
"","3977","similarity","178","1067174","0.0-6.0-172.0","2","[""img/0873/a234d5d1-09ea-4594-9a0f-d569da31dbdb.jpg"",""img/0958/ebea41e3-9d65-4f5e-981a-92daaaad0d57.jpg""]","",""
"","2878","similarity","179","1071058","0.0-6.0-173.0","2","[""img/0868/4bd5105a-d2c3-4f82-8c80-57196106ba53.jpg"",""img/0758/f61ecdf8-a7d4-4db0-b84d-be46f7cfaffc.jpg""]","",""
"","5195","similarity","180","1077259","0.0-6.0-174.0","5","[""img/0757/8993d166-c8ae-43f6-b269-9e8bd3379d57.jpg"",""img/0874/1016b306-087c-4afc-aa08-fa527b28dc76.jpg""]","",""
"","4938","similarity","181","1083204","0.0-6.0-175.0","5","[""img/0958/54f27d86-00c0-46b2-b2c9-050c9cc60fe0.jpg"",""img/0867/7d1c497b-c1b3-4ed8-abb5-d7f73306015f.jpg""]","",""
"","3658","similarity","182","1087868","0.0-6.0-176.0","3","[""img/0874/ca76a855-4e77-4f2f-872a-0a718153e7ed.jpg"",""img/0760/dddcdfaf-2d02-4de9-a176-5705d0004b5a.jpg""]","",""
"","5816","similarity","183","1094689","0.0-6.0-177.0","6","[""img/0873/0d9b4403-7f26-46dc-b0b7-2b97b0a91b46.jpg"",""img/0860/b03b963d-949b-4d8d-b19c-4950c89eeca2.jpg""]","",""
"","2782","similarity","184","1098477","0.0-6.0-178.0","3","[""img/0881/f62bdcd1-a4b7-4d48-83da-d9c9e01c8727.jpg"",""img/0883/599aacc5-bb0f-4dea-852c-9a27727eb0b9.jpg""]","",""
"","3176","similarity","185","1102660","0.0-6.0-179.0","3","[""img/0886/c6c81122-f4bf-46f4-968b-167f8ed0cab3.jpg"",""img/0958/0a8f72c4-0c73-4d58-be6f-5e4613b87409.jpg""]","",""
"","4056","similarity","186","1107722","0.0-6.0-180.0","5","[""img/0864/efcfbb1b-8197-44c9-b723-40d6c608dd3c.jpg"",""img/0883/5716bfb3-e86c-42fe-8afa-58d226cb1aaa.jpg""]","",""
"","4031","similarity","187","1112759","0.0-6.0-181.0","3","[""img/0756/4cf0ac20-ce60-40ba-8078-4053ef50451c.jpg"",""img/0868/09a9ef4d-d000-4cfa-a6aa-ebec7c2edeb4.jpg""]","",""
"","4928","similarity","188","1118694","0.0-6.0-182.0","4","[""img/0884/967c63af-8f6a-483f-9122-0c79d97fd22e.jpg"",""img/0758/2fa3e613-e676-4e6e-bd12-705327eeb3e1.jpg""]","",""
"","5006","similarity","189","1124705","0.0-6.0-183.0","3","[""img/0875/5a7c4e35-6514-4e12-8879-d16071da4cd6.jpg"",""img/0874/adf9a8f1-c40b-402b-b95b-1e85a54a7b62.jpg""]","",""
"","4951","similarity","190","1130663","0.0-6.0-184.0","7","[""img/0867/2e1a0b58-cdb1-4107-a14e-452530d7b9b0.jpg"",""img/0868/83b4350a-3b70-4cea-b7f5-b5b56f3050a8.jpg""]","",""
"","4127","similarity","191","1135796","0.0-6.0-185.0","2","[""img/0881/2a8413be-fec2-4de6-88ad-614dd4cccc9d.jpg"",""img/0885/5225e532-2812-41d9-8ef0-0fbfc612784e.jpg""]","",""
"","3538","similarity","192","1140340","0.0-6.0-186.0","2","[""img/0864/e02eddb5-f468-499c-91bf-f7be3ffe979b.jpg"",""img/0761/6f9c1c71-e38d-4e3f-9062-39557812432a.jpg""]","",""
"","4603","similarity","193","1145948","0.0-6.0-187.0","1","[""img/0885/fce9f22a-f769-477c-acee-a5ad8214f0a5.jpg"",""img/0874/29830da7-be5f-44e5-b141-652a0ccf7269.jpg""]","",""
"","4323","similarity","194","1151277","0.0-6.0-188.0","1","[""img/0758/67c0be2f-9e91-48b3-8219-70ac0a1802fa.jpg"",""img/0867/179ab87a-8eac-4c52-a41f-2e48e3120f09.jpg""]","",""
"","3960","similarity","195","1156244","0.0-6.0-189.0","1","[""img/0756/a8246880-fb51-43bb-b25d-905e6e0d7880.jpg"",""img/0884/0b4cf8d4-4c8f-4312-a794-f99e01679176.jpg""]","",""
"","3875","similarity","196","1161124","0.0-6.0-190.0","2","[""img/0761/47960f80-42b7-4397-a852-ec55d716c652.jpg"",""img/0862/ba89835a-408c-480b-8594-ed4ffa97eb5c.jpg""]","",""
"","5243","similarity","197","1167374","0.0-6.0-191.0","1","[""img/0860/5383b320-1518-4095-a58e-5cc1ae30b64c.jpg"",""img/0886/4d28f75a-a9c3-49dd-8aa8-00304af6e40b.jpg""]","",""
"","4323","similarity","198","1172703","0.0-6.0-192.0","2","[""img/0760/7f35fc6a-c21f-4f42-81c5-92ced38d82f8.jpg"",""img/0885/89d8c48b-8bde-42ed-ae71-de669b15ea34.jpg""]","",""
"","5038","similarity","199","1178747","0.0-6.0-193.0","6","[""img/0886/aef00ed5-e288-47bf-b31e-512d7e762ea2.jpg"",""img/0868/4a8a45ed-2c4f-421b-9564-409a33ecd26c.jpg""]","",""
"","5217","similarity","200","1184971","0.0-6.0-194.0","3","[""img/0881/62a64f90-7a72-4aee-a1a1-0c548ac9bdda.jpg"",""img/0864/0116ca98-293d-4fa6-a93b-5a6144ef64cc.jpg""]","",""
"","4519","similarity","201","1190495","0.0-6.0-195.0","3","[""img/0866/bf14b5bd-fb55-47db-86b9-4f8aeb9a6dad.jpg"",""img/0868/6a28c3b0-3d76-498a-9fb7-ddafc665eca8.jpg""]","",""
"","4349","similarity","202","1195849","0.0-6.0-196.0","5","[""img/0864/a248adb3-c70b-4652-b7a3-776d2a1e904b.jpg"",""img/0958/d3775867-a8f6-42ba-86ff-f86e85edba90.jpg""]","",""
"","3843","similarity","203","1200698","0.0-6.0-197.0","1","[""img/0757/a3620c04-efdc-4b42-940c-806958d1351e.jpg"",""img/0886/9f186bd5-d48b-4cc2-9206-be67c392faa9.jpg""]","",""
"","3840","similarity","204","1205545","0.0-6.0-198.0","2","[""img/0758/6cd8c362-ae2a-41eb-80a3-3a4f7ace1530.jpg"",""img/0883/1f394dd2-551c-4c8b-af82-f6a6fbe567bb.jpg""]","",""
"","5572","similarity","205","1212123","0.0-6.0-199.0","5","[""img/0881/c843e210-bdfe-4a7c-8bbe-fcea1f90fe1c.jpg"",""img/0958/b11515b3-5f04-4c3e-be00-56a05c6c3e96.jpg""]","",""
"","4409","similarity","206","1217538","0.0-6.0-200.0","3","[""img/0958/d4138705-0a9d-4141-9af9-205e69367c44.jpg"",""img/0874/a82926a3-0b43-4add-803c-d5f9ea7798ee.jpg""]","",""
"","3381","similarity","207","1221925","0.0-6.0-201.0","1","[""img/0885/eb5e4557-1792-49c3-8871-16afa58f3a28.jpg"",""img/0860/4c530c3c-6aab-492a-94d1-9c01797bde40.jpg""]","",""
"","5501","similarity","208","1228432","0.0-6.0-202.0","1","[""img/0875/5a1e5100-0d94-4fec-bbe9-ca9894d2cf8e.jpg"",""img/0881/4bd34581-94d8-4e88-8c89-5cef864ca3be.jpg""]","",""
"","4817","similarity","209","1234255","0.0-6.0-203.0","2","[""img/0758/e38fd80d-18d0-42f3-b848-f930788e8bd7.jpg"",""img/0860/87039971-2210-4aab-93c0-8e9b5f1655b2.jpg""]","",""
"","3751","similarity","210","1239012","0.0-6.0-204.0","7","[""img/0860/29a21a9f-54bb-4093-ad3f-04823ceaa89f.jpg"",""img/0860/17b44a7d-c5ca-479f-9e87-f65a64f5c80e.jpg""]","",""
"","3238","similarity","211","1243256","0.0-6.0-205.0","7","[""img/0874/3f471690-9788-4d03-90c7-f615aecef149.jpg"",""img/0874/ca23d307-fc00-4d7d-9106-584c6eb21b4d.jpg""]","",""
"","5496","similarity","212","1249757","0.0-6.0-206.0","4","[""img/0883/00d89148-b7d4-49d2-831a-2eee070a85a4.jpg"",""img/0761/89d3b943-cd14-4786-a7b8-0e9a695cf0e3.jpg""]","",""
"","4362","similarity","213","1255125","0.0-6.0-207.0","3","[""img/0761/5ed865c0-8bfb-4310-9b47-690b3e450ca2.jpg"",""img/0881/b549bc99-a61c-4450-bab5-9efc3a197bf0.jpg""]","",""
"","4724","similarity","214","1260856","0.0-6.0-208.0","2","[""img/0760/ed469d78-34af-4ea9-a969-05ea527438a2.jpg"",""img/0756/8d47d83d-7e73-4d35-94ec-d814380febc6.jpg""]","",""
"","5665","similarity","215","1271924","0.0-6.0-209.0","2","[""img/0885/f4ed5442-1f5c-4a69-abe6-8336ed11ec77.jpg"",""img/0757/4faaa503-45d9-43fa-bddb-707274a341ff.jpg""]","",""
"[{""page_index"":0,""viewing_time"":6782}]","6783","instructions","216","1279709","0.0-7.0","","","",""
"","12389","image-multi-choice","217","1293128","0.0-8.0-0.0","","","{""Q0"":""Orange-crowned Warbler""}","Orange-crowned Warbler"
"","6285","image-multi-choice","218","1300435","0.0-8.0-1.0","","","{""Q0"":""Wilson's Warbler""}","Wilson's Warbler"
"","12582","image-multi-choice","219","1314039","0.0-8.0-2.0","","","{""Q0"":""Blackpoll Warbler""}","Blackpoll Warbler"
"","7295","image-multi-choice","220","1322355","0.0-8.0-3.0","","","{""Q0"":""Black-and-white Warbler""}","Black-and-white Warbler"
"","7601","image-multi-choice","221","1330976","0.0-8.0-4.0","","","{""Q0"":""Northern Parula""}","Yellow-breasted Chat"
"","17891","image-multi-choice","222","1349887","0.0-8.0-5.0","","","{""Q0"":""Black-throated Green Warbler""}","Canada Warbler"
"","4276","image-multi-choice","223","1355184","0.0-8.0-6.0","","","{""Q0"":""Yellow-breasted Chat""}","Common Yellowthroat"
"","3082","image-multi-choice","224","1359287","0.0-8.0-7.0","","","{""Q0"":""American Redstart""}","American Redstart"
"","18347","image-multi-choice","225","1378654","0.0-8.0-8.0","","","{""Q0"":""Canada Warbler""}","Chestnut-sided Warbler"
"","13121","image-multi-choice","226","1392794","0.0-8.0-9.0","","","{""Q0"":""Black-throated Green Warbler""}","Black-throated Green Warbler"
"","6180","image-multi-choice","227","1399994","0.0-8.0-10.0","","","{""Q0"":""Townsend's Warbler""}","Blackburnian Warbler"
"","4694","image-multi-choice","228","1405708","0.0-8.0-11.0","","","{""Q0"":""Blackburnian Warbler""}","Yellow-rumped Warbler"
"","4632","image-multi-choice","229","1411360","0.0-8.0-12.0","","","{""Q0"":""Ovenbird""}","Ovenbird"
"","7933","image-multi-choice","230","1420314","0.0-8.0-13.0","","","{""Q0"":""Townsend's Warbler""}","Townsend's Warbler"
"","8319","image-multi-choice","231","1429654","0.0-8.0-14.0","","","{""Q0"":""Ovenbird""}","Northern Waterthrush"
"","3043","image-multi-choice","232","1433719","0.0-8.0-15.0","","","{""Q0"":""Yellow Warbler""}","Yellow Warbler"
"","19969","image-multi-choice","233","1454698","0.0-8.0-16.0","","","{""Q0"":""Townsend's Warbler""}","Nashville Warbler"
"","18286","image-multi-choice","234","1474004","0.0-8.0-17.0","","","{""Q0"":""Nashville Warbler""}","Northern Parula"
"","4034","image-multi-choice","235","1479058","0.0-8.0-18.0","","","{""Q0"":""Magnolia Warbler""}","Tennessee Warbler"
"","4948","image-multi-choice","236","1485027","0.0-8.0-19.0","","","{""Q0"":""Yellow-rumped Warbler""}","Magnolia Warbler"
