"view_history","rt","trial_type","trial_index","time_elapsed","internal_node_id","sim_score","stimulus","responses","answer"
"[{""page_index"":0,""viewing_time"":20332}]","20335","instructions","0","20336","0.0-0.0","","","",""
"","6800","similarity_demo","1","28163","0.0-1.0","7","[""img/bluejay1.jpg"",""img/bluejay2.jpg""]","",""
"[{""page_index"":0,""viewing_time"":11481}]","11482","instructions","2","40646","0.0-2.0","","","",""
"","4954","similarity_demo","3","46615","0.0-3.0","1","[""img/bluejay1.jpg"",""img/cardinal1.jpg""]","",""
"[{""page_index"":0,""viewing_time"":8020}]","8021","instructions","4","55645","0.0-4.0","","","",""
"[{""page_index"":0,""viewing_time"":49245}]","49246","instructions","5","105900","0.0-5.0","","","",""
"","11709","similarity","6","118621","0.0-6.0-0.0","4","[""img/0864/3d4de670-b290-4285-9c3d-12a0e3af44e9.jpg"",""img/0860/5383b320-1518-4095-a58e-5cc1ae30b64c.jpg""]","",""
"","13653","similarity","7","133285","0.0-6.0-1.0","4","[""img/0884/ee845634-cd54-4c06-95a9-962122ef8712.jpg"",""img/0760/fe62dd62-331c-4317-8af2-f1c816871fee.jpg""]","",""
"","8952","similarity","8","143253","0.0-6.0-2.0","4","[""img/0886/0f9715c1-b2e4-418e-bf9b-126cc9e70dc6.jpg"",""img/0881/7e822106-76f7-4b10-a805-14dc68b2cfaf.jpg""]","",""
"","5628","similarity","9","149892","0.0-6.0-3.0","5","[""img/0866/be24ab58-230e-4db8-9f45-ff04c9aec6bb.jpg"",""img/0881/e046471a-35b4-4159-bbf7-3cfd201bef66.jpg""]","",""
"","3981","similarity","10","154892","0.0-6.0-4.0","5","[""img/0868/83b4350a-3b70-4cea-b7f5-b5b56f3050a8.jpg"",""img/0885/62bd11a8-7059-4cc2-b06d-4700688b313f.jpg""]","",""
"","5359","similarity","11","161269","0.0-6.0-5.0","5","[""img/0757/0668efad-1c92-425c-9aa9-2bbe833fd777.jpg"",""img/0866/4a87911a-d5be-4d4e-ab8e-3d1f581bf507.jpg""]","",""
"","4125","similarity","12","166403","0.0-6.0-6.0","4","[""img/0868/d6d1f30d-4323-435a-b194-7892521bc57e.jpg"",""img/0864/1ebbc554-99fa-49f9-8799-317375a79820.jpg""]","",""
"","5046","similarity","13","172465","0.0-6.0-7.0","7","[""img/0864/ea327690-500b-4137-bf91-451b309fe6a5.jpg"",""img/0864/e8bd659f-aa43-4748-877e-3118e8b4e189.jpg""]","",""
"","6396","similarity","14","179875","0.0-6.0-8.0","5","[""img/0757/20c59f64-1fc2-448d-8423-42cbd8fe0164.jpg"",""img/0881/33d65d80-8a8e-4ecf-852d-0ad7725c17a2.jpg""]","",""
"","6230","similarity","15","187122","0.0-6.0-9.0","4","[""img/0886/625c7dfa-3fa1-4166-80f0-229eb416b04f.jpg"",""img/0760/fc99ba9e-e7fa-443b-9ba0-2b3c76930893.jpg""]","",""
"","4471","similarity","16","192607","0.0-6.0-10.0","4","[""img/0884/baabff07-71d8-424e-ac29-644768380941.jpg"",""img/0883/e7e4af6a-bc7a-4a9b-921c-32652db13239.jpg""]","",""
"","5353","similarity","17","198971","0.0-6.0-11.0","4","[""img/0874/bf14b896-e930-4fd9-9c05-2e83317a2773.jpg"",""img/0862/00c06b00-3b73-44e9-bc1e-c5aafb438321.jpg""]","",""
"","3519","similarity","18","203505","0.0-6.0-12.0","4","[""img/0862/4f0a3b4c-afbf-486e-b248-1d54982f54b4.jpg"",""img/0875/8521fd58-3b1e-4dc5-97ae-804edfa6734a.jpg""]","",""
"","3772","similarity","19","208289","0.0-6.0-13.0","5","[""img/0875/527ced51-8e53-4aab-ab05-86df219104c0.jpg"",""img/0757/94c7f207-1115-4451-b22b-1f74b3661208.jpg""]","",""
"","3882","similarity","20","213177","0.0-6.0-14.0","4","[""img/0875/3ecb367d-e9eb-4826-8aaa-7aa72fb98019.jpg"",""img/0860/71e1aad0-2cdf-43bb-94a4-a8c016997c30.jpg""]","",""
"","6063","similarity","21","220249","0.0-6.0-15.0","3","[""img/0860/4c530c3c-6aab-492a-94d1-9c01797bde40.jpg"",""img/0881/ee44e27f-d662-4608-b265-e7ffa19b216f.jpg""]","",""
"","4225","similarity","22","225482","0.0-6.0-16.0","5","[""img/0885/517a9189-9623-4ed7-a37e-48788791e028.jpg"",""img/0884/0b4cf8d4-4c8f-4312-a794-f99e01679176.jpg""]","",""
"","4350","similarity","23","230849","0.0-6.0-17.0","7","[""img/0761/e34f97e4-14ac-4bb6-b226-816085d967c2.jpg"",""img/0761/b1819a20-de99-463b-9840-60a4b8faa30d.jpg""]","",""
"","3688","similarity","24","235552","0.0-6.0-18.0","4","[""img/0760/36c930c0-2660-41c1-a356-77dafb18ae83.jpg"",""img/0864/8ddd2e30-a1d0-479f-9cbe-591213023893.jpg""]","",""
"","5621","similarity","25","242184","0.0-6.0-19.0","4","[""img/0864/49150900-7f25-4ce8-8d10-9b47a71d1997.jpg"",""img/0875/e7e66b13-b573-431e-b85e-288ce04a35a3.jpg""]","",""
"","3779","similarity","26","246972","0.0-6.0-20.0","4","[""img/0874/1016b306-087c-4afc-aa08-fa527b28dc76.jpg"",""img/0884/592da15b-09e4-46b5-81e7-bab08a1c33e9.jpg""]","",""
"","3574","similarity","27","251563","0.0-6.0-21.0","4","[""img/0885/6873c613-5e40-42ff-a5b6-443b6b626ae2.jpg"",""img/0866/a04d37f0-99dd-478a-b6c6-58b215138f84.jpg""]","",""
"","4812","similarity","28","257384","0.0-6.0-22.0","7","[""img/0868/c8ac40c7-6904-4e13-8d61-c75d3052dc4e.jpg"",""img/0868/5fa7f9d0-f0e5-454c-8224-74d964818f56.jpg""]","",""
"","7054","similarity","29","265448","0.0-6.0-23.0","3","[""img/0757/91a048c0-e749-433b-9147-0c671dc5b4ca.jpg"",""img/0756/8f917ff3-2930-4f81-812b-19555fe71261.jpg""]","",""
"","3492","similarity","30","269949","0.0-6.0-24.0","7","[""img/0875/34132396-d896-4c2d-8087-646dd867e769.jpg"",""img/0875/ebf7653f-ff45-4e9f-af58-2c042ab3cd2b.jpg""]","",""
"","5462","similarity","31","276427","0.0-6.0-25.0","4","[""img/0761/ff3e024b-951d-4aca-a168-c09c6507525d.jpg"",""img/0866/bf14b5bd-fb55-47db-86b9-4f8aeb9a6dad.jpg""]","",""
"","4565","similarity","32","281999","0.0-6.0-26.0","5","[""img/0866/f756f7d1-9ad8-4a34-9ef6-7a443d705bfe.jpg"",""img/0758/20497cbe-ddae-489e-86e2-ab06985ed07c.jpg""]","",""
"","3732","similarity","33","286742","0.0-6.0-27.0","5","[""img/0758/caa93da2-9edf-49fa-96b9-32dedd8f5078.jpg"",""img/0875/5a1e5100-0d94-4fec-bbe9-ca9894d2cf8e.jpg""]","",""
"","3640","similarity","34","291392","0.0-6.0-28.0","5","[""img/0958/58b7811e-d3f6-4e4d-befb-86e063d13a43.jpg"",""img/0757/86df581e-81a2-4205-95e3-1ea87cea1f36.jpg""]","",""
"","3151","similarity","35","295558","0.0-6.0-29.0","5","[""img/0873/c2a7452d-a271-4207-81ce-bda281dc0297.jpg"",""img/0883/ff85a2f1-14b1-4b7e-9c87-887151d97e01.jpg""]","",""
"","4130","similarity","36","300702","0.0-6.0-30.0","5","[""img/0868/d98ca254-b195-477f-b57e-5760a2717db8.jpg"",""img/0875/d59ff733-eaff-4ee2-9443-06954dd0bcb6.jpg""]","",""
"","4196","similarity","37","305910","0.0-6.0-31.0","5","[""img/0884/3c61ea12-a408-47ce-98aa-b14e0f6d4591.jpg"",""img/0862/847e5208-38ec-4f36-949c-296cdd7424ee.jpg""]","",""
"","3762","similarity","38","310681","0.0-6.0-32.0","4","[""img/0884/5085d424-b3f5-461b-a1c7-f7ca55abcf4f.jpg"",""img/0864/c22faebd-9c53-47bc-ada3-b9a30c688e75.jpg""]","",""
"","4576","similarity","39","316269","0.0-6.0-33.0","4","[""img/0883/599aacc5-bb0f-4dea-852c-9a27727eb0b9.jpg"",""img/0958/d3775867-a8f6-42ba-86ff-f86e85edba90.jpg""]","",""
"","3923","similarity","40","321205","0.0-6.0-34.0","4","[""img/0864/9b2490c5-a282-400a-9736-e1a0ecbf1cb7.jpg"",""img/0756/caa9655d-9f7e-420d-a757-6af4985d335a.jpg""]","",""
"","5336","similarity","41","327549","0.0-6.0-35.0","4","[""img/0874/ca23d307-fc00-4d7d-9106-584c6eb21b4d.jpg"",""img/0758/7ffbc76b-1fc1-432c-8f7e-9ec8d1b3f643.jpg""]","",""
"","7244","similarity","42","335806","0.0-6.0-36.0","3","[""img/0886/b8648eb5-de71-41ab-825d-848e51be8c1b.jpg"",""img/0862/f43ceabf-acc1-4107-b857-5d1849808f93.jpg""]","",""
"","4632","similarity","43","341444","0.0-6.0-37.0","4","[""img/0862/fad1d7c1-8187-43c3-942a-0fc12183e48e.jpg"",""img/0885/c840cf2c-c95d-4a08-b3c2-044d1ea946a7.jpg""]","",""
"","4229","similarity","44","346685","0.0-6.0-38.0","4","[""img/0758/67c0be2f-9e91-48b3-8219-70ac0a1802fa.jpg"",""img/0864/ef9cbca0-4be8-435d-ad49-977259e80409.jpg""]","",""
"","4561","similarity","45","352252","0.0-6.0-39.0","4","[""img/0873/ac86dbfd-0442-4dec-9d10-37d7093f5a52.jpg"",""img/0867/bf560d4f-dee3-4f11-a385-705cc1aa5f3c.jpg""]","",""
"","3023","similarity","46","356284","0.0-6.0-40.0","4","[""img/0958/7168f8d3-e3ae-405a-93d0-64836d899932.jpg"",""img/0884/3613aeb4-0028-4205-aea0-1ea28cb1f80e.jpg""]","",""
"","5609","similarity","47","371043","0.0-6.0-41.0","4","[""img/0873/33552b07-bdb8-423e-88b4-25a37f159c6d.jpg"",""img/0873/226317e0-f0e7-42ea-907b-058cb1ad519a.jpg""]","",""
"","5063","similarity","48","377116","0.0-6.0-42.0","4","[""img/0886/7164ac42-460f-4beb-9d5e-a1cfded3099c.jpg"",""img/0758/dd559618-7f09-4a07-8018-d311c4a5ea29.jpg""]","",""
"","3736","similarity","49","381860","0.0-6.0-43.0","5","[""img/0883/3b1366c6-7baa-4ad2-889c-1ff9c3b379c9.jpg"",""img/0874/3f471690-9788-4d03-90c7-f615aecef149.jpg""]","",""
"","2996","similarity","50","385871","0.0-6.0-44.0","4","[""img/0881/f62bdcd1-a4b7-4d48-83da-d9c9e01c8727.jpg"",""img/0873/b02f9cce-7f58-4f1b-baed-50fee9f0a21f.jpg""]","",""
"","4236","similarity","51","391119","0.0-6.0-45.0","4","[""img/0867/1719a35d-f085-48c0-9099-16c94fe418b4.jpg"",""img/0757/92ed1ceb-29ef-4044-9601-78d7806e2396.jpg""]","",""
"","3960","similarity","52","396091","0.0-6.0-46.0","5","[""img/0866/945c6710-d15b-4a5b-a8f6-69af0850357f.jpg"",""img/0874/a3bc679d-619f-4db6-bb68-116dcb757d9c.jpg""]","",""
"","3229","similarity","53","400332","0.0-6.0-47.0","7","[""img/0886/451550d7-6ff9-42b5-938c-9e20ee960bf6.jpg"",""img/0886/d1e40478-2fe0-404f-8409-920da98a96a2.jpg""]","",""
"","3007","similarity","54","404349","0.0-6.0-48.0","4","[""img/0883/6884954b-873e-4d6f-9b4b-95d158e0de6c.jpg"",""img/0860/8fdba999-b946-4c7d-9891-336018b563ef.jpg""]","",""
"","3675","similarity","55","409035","0.0-6.0-49.0","4","[""img/0860/87039971-2210-4aab-93c0-8e9b5f1655b2.jpg"",""img/0756/1cc17c90-3114-4ede-89cd-f34db9fa638a.jpg""]","",""
"","7498","similarity","56","417546","0.0-6.0-50.0","4","[""img/0860/c5ccd1a4-4bb7-48e1-9b25-72cfaf06909b.jpg"",""img/0757/443a1d16-5d59-4e77-a670-d6190157c319.jpg""]","",""
"","3217","similarity","57","421778","0.0-6.0-51.0","7","[""img/0756/76d2b9c0-998f-48ad-95fe-3c317a6c74c0.jpg"",""img/0756/350ac166-1deb-4399-89db-da6a7e827c4d.jpg""]","",""
"","4713","similarity","58","427506","0.0-6.0-52.0","5","[""img/0875/42910c99-5463-450a-a0f8-d4d060a11455.jpg"",""img/0866/02f5e6b9-52b7-448c-9708-5b460d0c9a23.jpg""]","",""
"","4525","similarity","59","433045","0.0-6.0-53.0","4","[""img/0756/c211414a-203e-4a7f-9412-5abddea2af11.jpg"",""img/0758/b76ceca7-95ac-46e4-ac13-da02c8e93be9.jpg""]","",""
"","4495","similarity","60","438554","0.0-6.0-54.0","4","[""img/0761/aebad236-1f4a-4bc2-a74d-d92b7e226316.jpg"",""img/0884/967c63af-8f6a-483f-9122-0c79d97fd22e.jpg""]","",""
"","3867","similarity","61","443427","0.0-6.0-55.0","5","[""img/0760/111aecf1-147c-4227-90e0-9ed3a75e4e16.jpg"",""img/0867/26611f4e-d694-4460-b7e2-43c62753ddc3.jpg""]","",""
"","3365","similarity","62","447803","0.0-6.0-56.0","4","[""img/0866/0207e9a2-7dbb-40b5-9459-b472aaeceb2a.jpg"",""img/0884/fb8b0101-bfd2-462b-a942-d3202a69dd18.jpg""]","",""
"","3193","similarity","63","452001","0.0-6.0-57.0","4","[""img/0756/fd9b5e61-3674-448f-867a-29769dc8f07d.jpg"",""img/0761/3599fa54-18f9-488e-b402-e851c43586ff.jpg""]","",""
"","4138","similarity","64","457145","0.0-6.0-58.0","4","[""img/0867/ac1797e4-8afc-48fe-b252-86d1defb1cca.jpg"",""img/0860/c47fdead-eb02-4989-b078-26f4852f44fe.jpg""]","",""
"","5564","similarity","65","463722","0.0-6.0-59.0","7","[""img/0881/4bd34581-94d8-4e88-8c89-5cef864ca3be.jpg"",""img/0758/e1ba5e53-addc-436a-b428-d34fc1b130dc.jpg""]","",""
"","4280","similarity","66","469015","0.0-6.0-60.0","5","[""img/0761/e18d2113-1ed1-4a80-8171-4be5ee28d343.jpg"",""img/0758/a709631e-3705-4725-ac40-f0d916924f08.jpg""]","",""
"","3076","similarity","67","473113","0.0-6.0-61.0","4","[""img/0958/df7705da-e817-409f-8a93-05abef4b26c3.jpg"",""img/0875/cff79b3a-a797-4393-9757-6275f999ec04.jpg""]","",""
"","3551","similarity","68","477676","0.0-6.0-62.0","4","[""img/0886/c6c81122-f4bf-46f4-968b-167f8ed0cab3.jpg"",""img/0864/66091c27-e588-4476-8af9-265dc6be4156.jpg""]","",""
"","6242","similarity","69","484939","0.0-6.0-63.0","4","[""img/0756/8d47d83d-7e73-4d35-94ec-d814380febc6.jpg"",""img/0874/ca76a855-4e77-4f2f-872a-0a718153e7ed.jpg""]","",""
"","4053","similarity","70","490011","0.0-6.0-64.0","4","[""img/0758/f61ecdf8-a7d4-4db0-b84d-be46f7cfaffc.jpg"",""img/0885/5a47e19f-19b4-4545-bf47-b508cb65da6a.jpg""]","",""
"","4090","similarity","71","495124","0.0-6.0-65.0","5","[""img/0760/319c5462-51de-4d3b-a135-d6c44f59c0e1.jpg"",""img/0958/86d1a76d-f067-4e36-9ab5-13da78c97c0e.jpg""]","",""
"","3534","similarity","72","499674","0.0-6.0-66.0","4","[""img/0884/989ec8e3-5e41-4055-b0b5-3d65b9c44917.jpg"",""img/0881/54ea8e77-c7e5-4197-b7fa-00b7020849a7.jpg""]","",""
"","2531","similarity","73","503218","0.0-6.0-67.0","4","[""img/0864/1d15626a-2f7c-410f-819c-0fa2c967e95e.jpg"",""img/0873/b1e2e09f-ad9a-433e-818f-56dd2f1cb09c.jpg""]","",""
"","2882","similarity","74","507116","0.0-6.0-68.0","3","[""img/0862/064818ee-13d5-4618-bb24-21c7368ea278.jpg"",""img/0758/2fa3e613-e676-4e6e-bd12-705327eeb3e1.jpg""]","",""
"","4300","similarity","75","512433","0.0-6.0-69.0","7","[""img/0757/8fdf4047-c2dc-42bc-9724-c35bd113f1dc.jpg"",""img/0757/cd7fd185-981f-477a-ba00-a0f65bcfd0e9.jpg""]","",""
"","6381","similarity","76","519834","0.0-6.0-70.0","6","[""img/0860/fd4662f9-4c03-4d79-8593-06735e55a64b.jpg"",""img/0862/57b6f83f-c763-4858-830d-102f97bfefbf.jpg""]","",""
"","5462","similarity","77","526307","0.0-6.0-71.0","4","[""img/0860/e8b8c51e-1834-4875-8b61-6c5bc9b178bd.jpg"",""img/0884/a6389ab4-3291-4434-9b91-eeae3b04fce4.jpg""]","",""
"","3890","similarity","78","531210","0.0-6.0-72.0","5","[""img/0883/df1c6d22-bb1b-4eed-b4fe-eb5e46deacd4.jpg"",""img/0866/6f2a90d7-14f1-4f1b-bd64-fc0af6b9fe44.jpg""]","",""
"","3229","similarity","79","535448","0.0-6.0-73.0","4","[""img/0866/11a1d141-be5e-443c-98c1-a9d4d9e3dec0.jpg"",""img/0886/1870a791-dfee-471e-8417-197d4a53c75a.jpg""]","",""
"","3207","similarity","80","539666","0.0-6.0-74.0","4","[""img/0958/eea2b7ca-1c37-4e76-ada7-a8b1f3afdc01.jpg"",""img/0761/53a65b48-8b0c-4a1d-9ebb-a27a259c5bc6.jpg""]","",""
"","6271","similarity","81","546953","0.0-6.0-75.0","5","[""img/0875/fb732ab5-013a-4366-9f65-27811ed157e9.jpg"",""img/0756/ba3f2106-0416-46e6-a788-1b50d9f92bda.jpg""]","",""
"","5166","similarity","82","553135","0.0-6.0-76.0","4","[""img/0958/ef1b718f-ef8c-497f-80d7-42562aebf1a7.jpg"",""img/0885/21b241a1-95da-4306-9cf2-cc52a784214a.jpg""]","",""
"","4737","similarity","83","558887","0.0-6.0-77.0","4","[""img/0868/4e626425-63c8-484a-8a1d-e66ee4e0bef8.jpg"",""img/0883/00d89148-b7d4-49d2-831a-2eee070a85a4.jpg""]","",""
"","4086","similarity","84","563983","0.0-6.0-78.0","3","[""img/0862/d0ca4c78-fc35-46ed-bdcc-8e124283c53e.jpg"",""img/0760/e697857f-b21d-4c49-8cde-1b803b437311.jpg""]","",""
"","2500","similarity","85","567495","0.0-6.0-79.0","4","[""img/0885/1e66fe61-15d5-42b1-86aa-dbfd13613f5c.jpg"",""img/0761/6f9c1c71-e38d-4e3f-9062-39557812432a.jpg""]","",""
"","4494","similarity","86","573007","0.0-6.0-80.0","3","[""img/0862/92fcd8a4-8193-4a6a-ae09-dd4a6338b0df.jpg"",""img/0864/a248adb3-c70b-4652-b7a3-776d2a1e904b.jpg""]","",""
"","3245","similarity","87","577263","0.0-6.0-81.0","7","[""img/0758/6cd8c362-ae2a-41eb-80a3-3a4f7ace1530.jpg"",""img/0758/d57c2592-a317-4f63-91be-91a3a9afd222.jpg""]","",""
"","4717","similarity","88","582991","0.0-6.0-82.0","3","[""img/0862/ad593cc7-cabe-4bb7-8e14-8a447a0717b4.jpg"",""img/0873/87f38f18-48a2-4de3-b24b-70630e8b6ca0.jpg""]","",""
"","2707","similarity","89","589861","0.0-6.0-83.0","4","[""img/0760/9daf8012-19c4-498f-8f51-81ec001a83be.jpg"",""img/0757/1fd9dcb9-e489-4708-b518-f356d3f5481d.jpg""]","",""
"","4362","similarity","90","595232","0.0-6.0-84.0","4","[""img/0867/075e0f95-856b-4cbb-acf5-092393aaf04e.jpg"",""img/0881/633c6f40-56d9-4b48-bf1c-ecd83116eabb.jpg""]","",""
"","3979","similarity","91","600230","0.0-6.0-85.0","4","[""img/0885/05af267f-b982-498d-9807-ccd54689f9b4.jpg"",""img/0886/1e8c0f89-c766-41c9-b522-83c342048f34.jpg""]","",""
"","4209","similarity","92","605447","0.0-6.0-86.0","5","[""img/0866/9b38d691-1802-4959-ab3f-fc902f0e4ea6.jpg"",""img/0864/300bb811-8b3c-4c42-8653-6097c3725197.jpg""]","",""
"","4598","similarity","93","611054","0.0-6.0-87.0","5","[""img/0874/93d1f8dc-acf2-4f03-bd8d-8ec35df276ed.jpg"",""img/0881/ed4c971f-0873-4fc8-b6d6-e8bbd82f0bcc.jpg""]","",""
"","4397","similarity","94","616459","0.0-6.0-88.0","4","[""img/0866/93a27239-8317-4e08-98ca-d8b1ff298e07.jpg"",""img/0760/ed469d78-34af-4ea9-a969-05ea527438a2.jpg""]","",""
"","2540","similarity","95","620007","0.0-6.0-89.0","4","[""img/0867/db7e032f-162b-46f5-ae67-2b29679adee4.jpg"",""img/0884/d8ffab77-40df-44ba-bf27-70815b052250.jpg""]","",""
"","2989","similarity","96","624007","0.0-6.0-90.0","3","[""img/0757/31d8ee3d-1b79-4d6a-9347-f91c87c00f92.jpg"",""img/0862/1c20f772-3a51-4a80-aac0-f57dc9f86c28.jpg""]","",""
"","5093","similarity","97","630111","0.0-6.0-91.0","4","[""img/0867/c71dc569-f49c-4397-8381-68b8d726736d.jpg"",""img/0761/8e379ec1-757d-4427-a0ff-d4efdd6a50c4.jpg""]","",""
"","3235","similarity","98","634356","0.0-6.0-92.0","4","[""img/0868/8b0b8473-e2c0-4331-aa56-c3a5c29369da.jpg"",""img/0958/0a8f72c4-0c73-4d58-be6f-5e4613b87409.jpg""]","",""
"","3699","similarity","99","639068","0.0-6.0-93.0","5","[""img/0874/31e22c7c-99aa-40b1-bf03-dd73fa2df4d6.jpg"",""img/0864/3651d070-2fc5-4848-b6a6-088a2d9ac5c9.jpg""]","",""
"","2697","similarity","100","642772","0.0-6.0-94.0","4","[""img/0760/57510c7a-e5a9-420e-9b3f-f7423746f67c.jpg"",""img/0873/b76d7003-814d-42b0-9a16-1399c4b0e706.jpg""]","",""
"","3518","similarity","101","647301","0.0-6.0-95.0","5","[""img/0868/e0aff734-077f-40dd-9781-74821abd3621.jpg"",""img/0873/d39b1731-1669-4c96-b5c6-682b30e287ee.jpg""]","",""
"","3458","similarity","102","651772","0.0-6.0-96.0","4","[""img/0860/4f695df5-afac-4da7-9875-fee39b0b24ad.jpg"",""img/0761/07f8178b-8ce5-42d6-bca0-a0ae0e0e8eb3.jpg""]","",""
"","3672","similarity","103","656452","0.0-6.0-97.0","3","[""img/0862/53a9cf7c-93c4-41b9-952f-07d17f7a17b2.jpg"",""img/0883/ab9b6977-0cdc-47a2-b180-494a5be181b2.jpg""]","",""
"","2664","similarity","104","660125","0.0-6.0-98.0","4","[""img/0757/4faaa503-45d9-43fa-bddb-707274a341ff.jpg"",""img/0884/13db1f36-8c9f-4b28-8426-04eaa9fba737.jpg""]","",""
"","3510","similarity","105","664644","0.0-6.0-99.0","4","[""img/0867/f8159067-056c-41f1-a136-c529fe5e970a.jpg"",""img/0756/09fde3d3-27c5-435e-b68f-5410beb04e99.jpg""]","",""
"","3121","similarity","106","668779","0.0-6.0-100.0","4","[""img/0958/54f27d86-00c0-46b2-b2c9-050c9cc60fe0.jpg"",""img/0756/6413e12f-951d-47b5-ae55-9fad7fb8d112.jpg""]","",""
"","2701","similarity","107","672491","0.0-6.0-101.0","7","[""img/0760/a24659cd-f862-42cc-b43a-7ba8eae0c2c0.jpg"",""img/0760/32bea725-69a2-4c9a-94d9-af05883fbb86.jpg""]","",""
"","4842","similarity","108","678347","0.0-6.0-102.0","5","[""img/0873/1d1be182-3bb2-4efd-8543-d70b8db7beef.jpg"",""img/0875/f87b67d7-c33e-40d1-b281-248c4be1cb6e.jpg""]","",""
"","3488","similarity","109","682843","0.0-6.0-103.0","5","[""img/0884/a8f7b854-0010-4c7a-a8fb-b1b1dc1f1ba1.jpg"",""img/0884/a416b0d1-f903-4935-b89f-99c29683752b.jpg""]","",""
"","5206","similarity","110","689058","0.0-6.0-104.0","4","[""img/0873/841d6549-01d2-4ebd-8d67-25d219876178.jpg"",""img/0885/fce9f22a-f769-477c-acee-a5ad8214f0a5.jpg""]","",""
"","2547","similarity","111","692613","0.0-6.0-105.0","4","[""img/0883/77f31752-1984-44f7-a77d-e22c2ad54256.jpg"",""img/0875/99698b4d-b4a1-44bc-8c83-8ea755bbbf61.jpg""]","",""
"","2731","similarity","112","696353","0.0-6.0-106.0","4","[""img/0864/5f74a653-3bdc-4308-8cca-ac667dc22e1f.jpg"",""img/0867/f8488a47-94ee-4166-952c-44e16cf172f6.jpg""]","",""
"","5102","similarity","113","702465","0.0-6.0-107.0","3","[""img/0958/fd950403-e452-4018-8207-a9714addcd75.jpg"",""img/0860/8277806e-b684-4474-8f7b-3fca946d7d4f.jpg""]","",""
"","3804","similarity","114","707281","0.0-6.0-108.0","4","[""img/0885/ef0386f3-e5d4-481b-8894-60b80e08bbe8.jpg"",""img/0756/76516e04-06c4-4108-9130-fa84d688f55a.jpg""]","",""
"","2908","similarity","115","711200","0.0-6.0-109.0","4","[""img/0883/fc8cf4c9-003e-48c4-b222-8878ea2ae1c0.jpg"",""img/0885/f4ed5442-1f5c-4a69-abe6-8336ed11ec77.jpg""]","",""
"","6568","similarity","116","718776","0.0-6.0-110.0","6","[""img/0867/aa05d113-fc19-4756-a8eb-7878f580bc92.jpg"",""img/0867/a749dddb-69f0-44a6-acdc-2bf295cf6dcc.jpg""]","",""
"","3300","similarity","117","723088","0.0-6.0-111.0","5","[""img/0881/f7a8cc63-8842-40a4-9ff8-fe530310d62c.jpg"",""img/0760/0864f159-c076-4573-83e1-ea134f239717.jpg""]","",""
"","2736","similarity","118","726840","0.0-6.0-112.0","4","[""img/0881/62a64f90-7a72-4aee-a1a1-0c548ac9bdda.jpg"",""img/0868/15dd6fd7-791e-4b53-b203-195d617521a4.jpg""]","",""
"","2387","similarity","119","730240","0.0-6.0-113.0","4","[""img/0875/5a716432-c6ca-4b1c-955a-2b8ac25198ee.jpg"",""img/0761/47960f80-42b7-4397-a852-ec55d716c652.jpg""]","",""
"","2987","similarity","120","734240","0.0-6.0-114.0","4","[""img/0756/8fdfa93c-88d0-4311-be2d-7f799fcaa8de.jpg"",""img/0866/d493a2c8-66eb-44b4-be02-2f327b700b7c.jpg""]","",""
"","3446","similarity","121","738696","0.0-6.0-115.0","3","[""img/0884/37ee4afa-34a0-4da2-bdb0-fcaff43dcdb6.jpg"",""img/0886/bd45b474-5559-4ea5-83ff-140bce19f5fa.jpg""]","",""
"","2347","similarity","122","742056","0.0-6.0-116.0","4","[""img/0756/792f9475-979d-4787-b7dc-8a0d02f6e25f.jpg"",""img/0881/e6746727-7f89-47ec-b939-d98abe78372d.jpg""]","",""
"","3825","similarity","123","746887","0.0-6.0-117.0","4","[""img/0760/4c78b78c-193e-4a1e-8bb2-394add325fda.jpg"",""img/0875/a4935837-7d3c-4df6-88c1-36a94d4991ca.jpg""]","",""
"","3632","similarity","124","751527","0.0-6.0-118.0","4","[""img/0958/6e602e13-8029-4642-bce0-8deffd0dc686.jpg"",""img/0866/8efcaa46-83ab-4dee-a35f-850402aa21ae.jpg""]","",""
"","2204","similarity","125","754747","0.0-6.0-119.0","4","[""img/0867/8ba0c5a7-c7e4-42cf-a80a-543763b90779.jpg"",""img/0874/8cdb1c07-1c32-46d2-981c-3636560fa6e5.jpg""]","",""
"","3272","similarity","126","759031","0.0-6.0-120.0","4","[""img/0883/903939ef-a67c-40d3-841d-52555815cd88.jpg"",""img/0757/cb7ca802-27ac-4a1d-996f-bd21b96d6244.jpg""]","",""
"","2783","similarity","127","762823","0.0-6.0-121.0","3","[""img/0874/7e4f2150-3b59-4a36-b5da-a4e0ba410531.jpg"",""img/0886/9b0bffbe-9237-404d-a0ba-a1982e0814c7.jpg""]","",""
"","3034","similarity","128","766863","0.0-6.0-122.0","4","[""img/0873/b509aa81-b1d7-4d50-8aef-9c7b725c3157.jpg"",""img/0761/89d3b943-cd14-4786-a7b8-0e9a695cf0e3.jpg""]","",""
"","4464","similarity","129","772335","0.0-6.0-123.0","4","[""img/0875/5a7c4e35-6514-4e12-8879-d16071da4cd6.jpg"",""img/0884/7f9cc898-36bc-49ec-8b1a-01065d9c0062.jpg""]","",""
"","4103","similarity","130","777455","0.0-6.0-124.0","4","[""img/0757/b46cab21-50e3-4f19-803d-682627bcd6a6.jpg"",""img/0868/293079b8-7e0c-4afd-a390-1e5d35fe3ded.jpg""]","",""
"","3019","similarity","131","783173","0.0-6.0-125.0","3","[""img/0886/e5903946-897c-4420-87c0-afee4100305c.jpg"",""img/0883/c6db9b70-f16c-47ee-a408-c9278365ae54.jpg""]","",""
"","5197","similarity","132","789378","0.0-6.0-126.0","4","[""img/0868/179a5502-ab5c-478e-8263-5a1fbcc101d2.jpg"",""img/0760/7f35fc6a-c21f-4f42-81c5-92ced38d82f8.jpg""]","",""
"","4098","similarity","133","794486","0.0-6.0-127.0","7","[""img/0881/609a5e93-38b5-4940-8627-2bf8fad7f802.jpg"",""img/0881/d1982897-8d8d-4704-a940-1ee5d07a1f15.jpg""]","",""
"","3688","similarity","134","799182","0.0-6.0-128.0","4","[""img/0760/868ae139-99b5-4ff2-9d19-c4933af135e4.jpg"",""img/0860/9593362c-9fe5-4d12-9735-6000a11f6aa5.jpg""]","",""
"","2921","similarity","135","803110","0.0-6.0-129.0","4","[""img/0864/0f537697-a314-47c3-a8cc-8df23b7e536c.jpg"",""img/0885/0cdcdaca-f91e-4d4a-a6f6-dc90ab676435.jpg""]","",""
"","2480","similarity","136","806598","0.0-6.0-130.0","4","[""img/0864/65210d57-1153-4657-886a-32e758f49b4a.jpg"",""img/0757/014ee4a8-8069-4b08-ac1c-04230da90244.jpg""]","",""
"","5390","similarity","137","812997","0.0-6.0-131.0","6","[""img/0760/83b0723f-4929-4ee7-ad35-fae98da3e152.jpg"",""img/0883/3835edeb-1d59-4781-b10f-c26b9eaf6fd1.jpg""]","",""
"","2981","similarity","138","816985","0.0-6.0-132.0","7","[""img/0885/eb5e4557-1792-49c3-8871-16afa58f3a28.jpg"",""img/0885/89d8c48b-8bde-42ed-ae71-de669b15ea34.jpg""]","",""
"","4056","similarity","139","822053","0.0-6.0-133.0","5","[""img/0860/17b44a7d-c5ca-479f-9e87-f65a64f5c80e.jpg"",""img/0868/7b212364-ff5f-4e28-9241-7eb6ea00161b.jpg""]","",""
"","4690","similarity","140","827757","0.0-6.0-134.0","5","[""img/0867/5e07b34d-b40f-4b1c-ac10-49975bace45f.jpg"",""img/0886/aef00ed5-e288-47bf-b31e-512d7e762ea2.jpg""]","",""
"","6799","similarity","141","835564","0.0-6.0-135.0","4","[""img/0756/85a63773-50ff-441d-b259-1e335100a9d0.jpg"",""img/0886/48077111-b86b-4612-910f-90a5d168d77f.jpg""]","",""
"","3032","similarity","142","839612","0.0-6.0-136.0","4","[""img/0884/7ae02e9d-46a4-4124-bcc2-cad90d7ef9f9.jpg"",""img/0868/3a62db2d-97e9-44a3-b8e3-a48c6f0e423b.jpg""]","",""
"","2321","similarity","143","842948","0.0-6.0-137.0","4","[""img/0958/d4138705-0a9d-4141-9af9-205e69367c44.jpg"",""img/0958/edfd5bc1-8c8f-489a-84c3-908436ef76cc.jpg""]","",""
"","8604","similarity","144","852564","0.0-6.0-138.0","3","[""img/0886/4d28f75a-a9c3-49dd-8aa8-00304af6e40b.jpg"",""img/0873/c3ff3b70-fb22-42f2-883c-3ecffd77cb4b.jpg""]","",""
"","40542","similarity","145","894115","0.0-6.0-139.0","4","[""img/0758/a085b443-b5d7-4cb2-9ad4-b9dab0fc23f1.jpg"",""img/0873/7dddc95f-ca6e-4d15-99a0-0e329ec6888e.jpg""]","",""
"","5558","similarity","146","900682","0.0-6.0-140.0","5","[""img/0873/a234d5d1-09ea-4594-9a0f-d569da31dbdb.jpg"",""img/0756/b6e235f7-211b-4a2b-a7b8-393e5ec7351b.jpg""]","",""
"","2431","similarity","147","904122","0.0-6.0-141.0","3","[""img/0868/4bd5105a-d2c3-4f82-8c80-57196106ba53.jpg"",""img/0862/eefa5588-9efd-4591-aa5f-a2e17c7d7bcc.jpg""]","",""
"","2840","similarity","148","907978","0.0-6.0-142.0","3","[""img/0881/445edb15-bd7f-4af3-8bd5-c6ad9677bb31.jpg"",""img/0862/ee3b7bff-4a70-4e84-9bea-4a565e456acb.jpg""]","",""
"","4456","similarity","149","913442","0.0-6.0-143.0","4","[""img/0885/a8cbb477-19ef-45ef-8f48-9667aec40bd1.jpg"",""img/0867/6e19c858-b606-45b2-a4c6-910a73f1d82c.jpg""]","",""
"","5223","similarity","150","919674","0.0-6.0-144.0","6","[""img/0883/6dcd54c3-64a3-4ed5-9149-d8b9aa1938c8.jpg"",""img/0883/0e1ed5c7-0881-4bfd-b12f-6a53500e74f0.jpg""]","",""
"","3730","similarity","151","924413","0.0-6.0-145.0","4","[""img/0874/85eb9b8a-c4c6-4e5a-b8e7-363a87a82054.jpg"",""img/0873/c91c05f8-fafd-4054-bcf1-f5ed1f0a18e8.jpg""]","",""
"","3241","similarity","152","928666","0.0-6.0-146.0","4","[""img/0757/6ecf2f24-3286-49d6-b5ed-bb2da660c588.jpg"",""img/0758/e38fd80d-18d0-42f3-b848-f930788e8bd7.jpg""]","",""
"","3526","similarity","153","933201","0.0-6.0-147.0","4","[""img/0883/142a783e-a468-4b7f-a750-1e107613d5a9.jpg"",""img/0756/1f40b002-ee9a-43c3-9506-ef79c513207d.jpg""]","",""
"","3823","similarity","154","938033","0.0-6.0-148.0","7","[""img/0867/7d1c497b-c1b3-4ed8-abb5-d7f73306015f.jpg"",""img/0866/23a224f3-2012-4fc8-8e0f-3c36f8de27fd.jpg""]","",""
"","4437","similarity","155","943481","0.0-6.0-149.0","4","[""img/0758/3ddd05d3-557e-4ee7-8b78-9d2d681d8ae2.jpg"",""img/0760/191d8576-9ed7-4798-a486-66a7fd600e58.jpg""]","",""
"","3207","similarity","156","947697","0.0-6.0-150.0","4","[""img/0757/a91bb71b-8c84-4999-8da7-f30e53ddc2a7.jpg"",""img/0761/6b42b402-9e0f-4179-9e10-660b2c07626b.jpg""]","",""
"","3608","similarity","157","952313","0.0-6.0-151.0","5","[""img/0761/014e76d0-fb4e-4b40-901c-7a2d5655c3b0.jpg"",""img/0874/2c9464dd-8a23-4baa-ac94-1ba3af5c15cc.jpg""]","",""
"","4288","similarity","158","957608","0.0-6.0-152.0","5","[""img/0761/d5370a68-6c8a-486f-b2bf-330e2ad6b397.jpg"",""img/0760/39d75e1e-0645-4f23-a2ca-3bbefac19d69.jpg""]","",""
"","5763","similarity","159","964376","0.0-6.0-153.0","7","[""img/0866/386235d2-6857-41e7-88a8-25cfc3430025.jpg"",""img/0866/c446214b-a368-4c65-ae39-ea46894256ab.jpg""]","",""
"","3697","similarity","160","969080","0.0-6.0-154.0","3","[""img/0866/07c9c966-3c8d-40e7-8128-92b2acbaed5d.jpg"",""img/0862/99a99e39-8355-44ec-b993-e7bcec111e1c.jpg""]","",""
"","2859","similarity","161","972952","0.0-6.0-155.0","3","[""img/0756/9a7a2119-24a3-431f-95e6-62f596bf88e2.jpg"",""img/0862/5d887e9f-89e2-4ebc-80a0-6d46fe6480db.jpg""]","",""
"","2517","similarity","162","976481","0.0-6.0-156.0","3","[""img/0860/4a022222-056d-461c-ab02-39fac9647552.jpg"",""img/0866/a15b02be-11bb-43e3-b0e0-ecc3bd7dfc49.jpg""]","",""
"","3114","similarity","163","980609","0.0-6.0-157.0","3","[""img/0862/cdaed51d-9e2f-4807-801a-4663c40077e2.jpg"",""img/0958/e9e2cc42-eb3b-4c91-8112-a517305c15f0.jpg""]","",""
"","2448","similarity","164","984074","0.0-6.0-158.0","3","[""img/0761/71d2e184-21b4-4711-97f3-e381c641da2c.jpg"",""img/0868/6a28c3b0-3d76-498a-9fb7-ddafc665eca8.jpg""]","",""
"","4076","similarity","165","989159","0.0-6.0-159.0","3","[""img/0761/5ed865c0-8bfb-4310-9b47-690b3e450ca2.jpg"",""img/0886/42cccc64-05f9-4afd-bc93-496ba50a4342.jpg""]","",""
"","3442","similarity","166","993616","0.0-6.0-160.0","4","[""img/0874/eba003b4-cdab-4eee-8bc3-f064c7d94165.jpg"",""img/0868/1a62b2b2-18f5-466e-b564-5176a57c565e.jpg""]","",""
"","3241","similarity","167","997863","0.0-6.0-161.0","4","[""img/0860/e14d67c1-6d92-4f1e-9257-c8607159c19c.jpg"",""img/0874/767f289c-9814-4496-803f-745cc8913d1f.jpg""]","",""
"","5208","similarity","168","1004079","0.0-6.0-162.0","6","[""img/0883/512a797a-315b-439e-9a9d-855929351fd0.jpg"",""img/0867/98d8cd96-1476-4fe0-a3a3-04f875500a1b.jpg""]","",""
"","3186","similarity","169","1008271","0.0-6.0-163.0","5","[""img/0758/821c68d3-5cb0-4eae-8659-30e6263fca39.jpg"",""img/0958/96f89270-febc-4f09-b8c3-53a249ff00ea.jpg""]","",""
"","4364","similarity","170","1013647","0.0-6.0-164.0","4","[""img/0873/90b702a6-3dba-446a-9bba-a2ee096baf49.jpg"",""img/0757/8993d166-c8ae-43f6-b269-9e8bd3379d57.jpg""]","",""
"","5202","similarity","171","1019854","0.0-6.0-165.0","5","[""img/0873/0d9b4403-7f26-46dc-b0b7-2b97b0a91b46.jpg"",""img/0866/620cd1aa-0800-4414-8f6e-90342e7a99ad.jpg""]","",""
"","2880","similarity","172","1023743","0.0-6.0-166.0","5","[""img/0875/2e13d160-eea1-416b-aff1-d37ab99ecc1d.jpg"",""img/0867/179ab87a-8eac-4c52-a41f-2e48e3120f09.jpg""]","",""
"","4126","similarity","173","1030472","0.0-6.0-167.0","7","[""img/0862/47ed5efd-4ec9-4b74-bb4e-a5f5cf0c3e7d.jpg"",""img/0862/f188d4f0-76a4-4102-818c-a209969d73a5.jpg""]","",""
"","2948","similarity","174","1034430","0.0-6.0-168.0","3","[""img/0875/90da8d75-108a-44ad-b999-e21fee3860d3.jpg"",""img/0886/789f5d23-84b8-499a-ae1e-20c6309a06ae.jpg""]","",""
"","4558","similarity","175","1039998","0.0-6.0-169.0","5","[""img/0885/1cd940ef-9720-4a04-8fa1-1dd3a39ecdd6.jpg"",""img/0875/dbdd643e-6d0e-4a5c-ab57-b9c29b9c981a.jpg""]","",""
"","3409","similarity","176","1044414","0.0-6.0-170.0","3","[""img/0862/de9ad88c-b522-430a-8ee9-eb06a9f85df5.jpg"",""img/0867/f26f6b60-f772-4f4c-95a4-addc62cfd692.jpg""]","",""
"","3797","similarity","177","1049217","0.0-6.0-171.0","4","[""img/0884/ffcce05a-b38d-4570-b3dc-751e89b7790a.jpg"",""img/0873/ec150e40-b3ec-4dfe-ab38-bb3f248a1175.jpg""]","",""
"","2865","similarity","178","1053101","0.0-6.0-172.0","4","[""img/0873/d74e4aa9-420d-48a3-a42f-30a3481536ae.jpg"",""img/0958/644719ec-1690-4af2-a63f-0b6467c3791e.jpg""]","",""
"","4319","similarity","179","1058430","0.0-6.0-173.0","4","[""img/0868/77091fc7-a590-4ebb-b915-fdb2483a2399.jpg"",""img/0758/6e95579b-5166-487c-b8cb-e417c6a218e3.jpg""]","",""
"","2331","similarity","180","1061773","0.0-6.0-174.0","4","[""img/0757/1aca59fd-6030-4bb0-93c7-32a90f3237cf.jpg"",""img/0874/3ce41e7c-40c8-4d58-a546-171114521796.jpg""]","",""
"","3992","similarity","181","1066773","0.0-6.0-175.0","4","[""img/0958/acbadc39-e665-446d-b98f-ccd0ef3223d6.jpg"",""img/0867/85a96c62-548f-4994-9553-819e03c3135a.jpg""]","",""
"","3331","similarity","182","1071110","0.0-6.0-176.0","5","[""img/0874/29830da7-be5f-44e5-b141-652a0ccf7269.jpg"",""img/0760/cbd28974-989a-49dd-b631-42de146d7e6f.jpg""]","",""
"","3364","similarity","183","1075485","0.0-6.0-177.0","4","[""img/0873/c4b47588-9c66-4401-aefc-cf9481d5fa85.jpg"",""img/0860/94ef7afc-e0e6-4a15-98c6-0bfac82bc832.jpg""]","",""
"","3931","similarity","184","1080423","0.0-6.0-178.0","4","[""img/0881/566f45f8-5fed-4479-a60f-26377e60a62d.jpg"",""img/0883/46d6b8ad-7f31-441e-92d2-0cc16d3d99ce.jpg""]","",""
"","2933","similarity","185","1084365","0.0-6.0-179.0","3","[""img/0886/9f186bd5-d48b-4cc2-9206-be67c392faa9.jpg"",""img/0958/bb684a39-afef-4125-9f70-b5ad830ba316.jpg""]","",""
"","3903","similarity","186","1089277","0.0-6.0-180.0","5","[""img/0864/c3b63e8f-ea39-4d70-a1f2-b3fe4be8eb75.jpg"",""img/0883/daaa1a6f-c322-46f6-b6a6-db2c9496d710.jpg""]","",""
"","3109","similarity","187","1093398","0.0-6.0-181.0","4","[""img/0756/314a157e-e6d3-4447-a98f-8fde8f810f0c.jpg"",""img/0868/0d3abd3a-b6c3-4584-a9f7-e2da63748b3d.jpg""]","",""
"","3242","similarity","188","1097652","0.0-6.0-182.0","4","[""img/0884/d9185264-7f01-43b2-be7f-eed1a0f0f2e8.jpg"",""img/0758/53f35650-e455-4b53-8be4-c3c8271c6466.jpg""]","",""
"","2832","similarity","189","1101493","0.0-6.0-183.0","4","[""img/0875/03c3c331-738b-4446-af92-3d7386b08c2e.jpg"",""img/0874/c0378dac-9370-439a-8b79-db27c96fb390.jpg""]","",""
"","2864","similarity","190","1105365","0.0-6.0-184.0","5","[""img/0867/c66898ba-b71b-4d50-84f9-f7f84853a98d.jpg"",""img/0868/fd307a36-9a3a-47d7-ab7c-f810d0b35040.jpg""]","",""
"","3186","similarity","191","1109556","0.0-6.0-185.0","4","[""img/0881/48ed65a5-471f-41af-86ec-3793805c116d.jpg"",""img/0885/24afeefb-f7b3-4e8f-a5b9-17cc00fd22e3.jpg""]","",""
"","5513","similarity","192","1116076","0.0-6.0-186.0","6","[""img/0864/e02eddb5-f468-499c-91bf-f7be3ffe979b.jpg"",""img/0761/00a8e7ae-d8da-4cba-8969-1dfb943a2aa2.jpg""]","",""
"","2641","similarity","193","1119732","0.0-6.0-187.0","4","[""img/0885/5225e532-2812-41d9-8ef0-0fbfc612784e.jpg"",""img/0874/995f0332-0439-4eb4-add3-957335dbf6d9.jpg""]","",""
"","2516","similarity","194","1123259","0.0-6.0-188.0","4","[""img/0758/eabcd7a8-56ad-4fd2-bc24-90f6b7b33265.jpg"",""img/0867/cc72ed48-7704-422c-86d6-467a1145287a.jpg""]","",""
"","3158","similarity","195","1127432","0.0-6.0-189.0","4","[""img/0756/64441928-baa3-49c8-a605-ee2370389b9f.jpg"",""img/0884/e275ab3e-0948-43c3-8be7-a75271922185.jpg""]","",""
"","3074","similarity","196","1131515","0.0-6.0-190.0","3","[""img/0761/edc0b069-71dc-4b11-b7f0-8429ea8ac5c9.jpg"",""img/0862/24cdc752-c2e5-4a17-86a6-6f2045d8553b.jpg""]","",""
"","8705","similarity","197","1141227","0.0-6.0-191.0","3","[""img/0860/5bff793e-cbd5-4d7e-b628-0ac2b0e30b64.jpg"",""img/0886/abd8dd83-d8ee-4003-b4d2-b4045220a578.jpg""]","",""
"","2615","similarity","198","1144850","0.0-6.0-192.0","4","[""img/0760/dfa71fdd-ddff-4827-a999-d5e599dd5679.jpg"",""img/0885/a4e5c564-1e5f-4fed-9f73-b8d1becf62b6.jpg""]","",""
"","2956","similarity","199","1148815","0.0-6.0-193.0","3","[""img/0886/97243e18-4dba-4af8-b49f-b3b635c90ac4.jpg"",""img/0868/4a8a45ed-2c4f-421b-9564-409a33ecd26c.jpg""]","",""
"","3781","similarity","200","1153613","0.0-6.0-194.0","5","[""img/0881/c843e210-bdfe-4a7c-8bbe-fcea1f90fe1c.jpg"",""img/0864/87c467d3-abca-482f-ad80-3766c21b1bb3.jpg""]","",""
"","3670","similarity","201","1158289","0.0-6.0-195.0","5","[""img/0866/d266fece-59b3-46fa-b69f-96f6efb81b59.jpg"",""img/0868/09a9ef4d-d000-4cfa-a6aa-ebec7c2edeb4.jpg""]","",""
"","2786","similarity","202","1162082","0.0-6.0-196.0","4","[""img/0864/0116ca98-293d-4fa6-a93b-5a6144ef64cc.jpg"",""img/0958/822de3b9-e5fd-4b74-aeb1-7c40805b0717.jpg""]","",""
"","2969","similarity","203","1166058","0.0-6.0-197.0","4","[""img/0757/a3620c04-efdc-4b42-940c-806958d1351e.jpg"",""img/0886/9ac18ff1-d3d9-4bfe-aa2e-ed5b28399f6c.jpg""]","",""
"","3518","similarity","204","1170586","0.0-6.0-198.0","5","[""img/0758/335851a0-a55b-46d8-ab05-8463eda48349.jpg"",""img/0883/dc95de8d-9297-41ec-b3ac-3f8b060260e3.jpg""]","",""
"","2658","similarity","205","1174249","0.0-6.0-199.0","4","[""img/0881/6b1189e6-232d-4042-8885-16dc7b10e0d4.jpg"",""img/0958/5a91b0e8-8f60-4625-b88c-d6e55b4d7d93.jpg""]","",""
"","3848","similarity","206","1179107","0.0-6.0-200.0","4","[""img/0958/ebea41e3-9d65-4f5e-981a-92daaaad0d57.jpg"",""img/0874/adf9a8f1-c40b-402b-b95b-1e85a54a7b62.jpg""]","",""
"","3223","similarity","207","1183345","0.0-6.0-201.0","4","[""img/0885/8960bf05-34df-4a86-a9b2-6087c70e61d3.jpg"",""img/0860/c7047cd2-7cc1-41b6-8a34-c0986774975f.jpg""]","",""
"","2655","similarity","208","1187009","0.0-6.0-202.0","4","[""img/0875/2c361b79-c3d1-4eda-812e-bf03192407bf.jpg"",""img/0881/7e31e5dc-2240-4b1b-b5a0-3acd980099ef.jpg""]","",""
"","3054","similarity","209","1191075","0.0-6.0-203.0","3","[""img/0758/ddc336e9-a8b6-4bb9-937a-c7e25e0e9250.jpg"",""img/0860/c3379ff7-0763-48fe-a1ec-7ea3d611bc7a.jpg""]","",""
"","4253","similarity","210","1196337","0.0-6.0-204.0","7","[""img/0860/524b2e98-5767-4d53-942c-ebae6925659b.jpg"",""img/0860/b03b963d-949b-4d8d-b19c-4950c89eeca2.jpg""]","",""
"","4363","similarity","211","1201712","0.0-6.0-205.0","7","[""img/0874/a82926a3-0b43-4add-803c-d5f9ea7798ee.jpg"",""img/0874/99f6563c-8a8d-4c1c-a41d-667b618c3fd5.jpg""]","",""
"","4194","similarity","212","1206912","0.0-6.0-206.0","5","[""img/0883/68a56098-91b8-4c40-8827-7808704aa1bc.jpg"",""img/0761/b8f211c0-f640-43a2-b101-101774517d95.jpg""]","",""
"","2692","similarity","213","1210609","0.0-6.0-207.0","4","[""img/0761/a74c99e4-d9ed-42cd-9e83-8d525cb6a9a2.jpg"",""img/0881/667e2147-d457-4f32-aa5f-6ab86e5848f1.jpg""]","",""
"","2912","similarity","214","1214528","0.0-6.0-208.0","4","[""img/0760/237fa1c2-d59d-4475-8d1e-f9a4eb71f989.jpg"",""img/0756/321ae2a8-5dd4-4b23-b1e4-202e0b7c0b02.jpg""]","",""
"","2003","similarity","215","1219030","0.0-6.0-209.0","4","[""img/0885/fbbfaacd-e49b-4d37-a2f9-fcaffa58f26f.jpg"",""img/0757/a7964b0f-aee3-4b4c-9cd1-c1c998c49fef.jpg""]","",""
"[{""page_index"":0,""viewing_time"":10347}]","10348","instructions","216","1230384","0.0-7.0","","","",""
"","13361","image-multi-choice","217","1244785","0.0-8.0-0.0","","","{""Q0"":""Orange-crowned Warbler""}","Orange-crowned Warbler"
"","5185","image-multi-choice","218","1250982","0.0-8.0-1.0","","","{""Q0"":""Wilson's Warbler""}","Wilson's Warbler"
"","5797","image-multi-choice","219","1257812","0.0-8.0-2.0","","","{""Q0"":""Blackpoll Warbler""}","Blackpoll Warbler"
"","4160","image-multi-choice","220","1263003","0.0-8.0-3.0","","","{""Q0"":""Black-and-white Warbler""}","Black-and-white Warbler"
"","3958","image-multi-choice","221","1267995","0.0-8.0-4.0","","","{""Q0"":""Yellow-breasted Chat""}","Yellow-breasted Chat"
"","5539","image-multi-choice","222","1274563","0.0-8.0-5.0","","","{""Q0"":""Canada Warbler""}","Canada Warbler"
"","4794","image-multi-choice","223","1280378","0.0-8.0-6.0","","","{""Q0"":""Common Yellowthroat""}","Common Yellowthroat"
"","6758","image-multi-choice","224","1288154","0.0-8.0-7.0","","","{""Q0"":""American Redstart""}","American Redstart"
"","4559","image-multi-choice","225","1293739","0.0-8.0-8.0","","","{""Q0"":""Chestnut-sided Warbler""}","Chestnut-sided Warbler"
"","5064","image-multi-choice","226","1299825","0.0-8.0-9.0","","","{""Q0"":""Black-throated Green Warbler""}","Black-throated Green Warbler"
"","20245","image-multi-choice","227","1321096","0.0-8.0-10.0","","","{""Q0"":""Blackburnian Warbler""}","Blackburnian Warbler"
"","4238","image-multi-choice","228","1326354","0.0-8.0-11.0","","","{""Q0"":""Northern Parula""}","Yellow-rumped Warbler"
"","3592","image-multi-choice","229","1330977","0.0-8.0-12.0","","","{""Q0"":""Ovenbird""}","Ovenbird"
"","26891","image-multi-choice","230","1358888","0.0-8.0-13.0","","","{""Q0"":""Townsend's Warbler""}","Townsend's Warbler"
"","10837","image-multi-choice","231","1370745","0.0-8.0-14.0","","","{""Q0"":""Northern Waterthrush""}","Northern Waterthrush"
"","3587","image-multi-choice","232","1375354","0.0-8.0-15.0","","","{""Q0"":""Yellow Warbler""}","Yellow Warbler"
"","33243","image-multi-choice","233","1409625","0.0-8.0-16.0","","","{""Q0"":""Orange-crowned Warbler""}","Nashville Warbler"
"","12198","image-multi-choice","234","1422845","0.0-8.0-17.0","","","{""Q0"":""Northern Parula""}","Northern Parula"
"","5140","image-multi-choice","235","1429006","0.0-8.0-18.0","","","{""Q0"":""Tennessee Warbler""}","Tennessee Warbler"
"","10671","image-multi-choice","236","1440701","0.0-8.0-19.0","","","{""Q0"":""Yellow-rumped Warbler""}","Magnolia Warbler"
