"view_history","rt","trial_type","trial_index","time_elapsed","internal_node_id","sim_score","stimulus","responses","answer"
"[{""page_index"":0,""viewing_time"":2867}]","2869","instructions","0","2871","0.0-0.0","","","",""
"","3451","similarity_demo","1","7333","0.0-1.0","7","[""img/bluejay1.jpg"",""img/bluejay2.jpg""]","",""
"[{""page_index"":0,""viewing_time"":1369}]","1370","instructions","2","9703","0.0-2.0","","","",""
"","2602","similarity_demo","3","13313","0.0-3.0","5","[""img/bluejay1.jpg"",""img/cardinal1.jpg""]","",""
"[{""page_index"":0,""viewing_time"":1699}]","1699","instructions","4","16014","0.0-4.0","","","",""
"[{""page_index"":0,""viewing_time"":7289}]","7290","instructions","5","24304","0.0-5.0","","","",""
"","5675","similarity","6","30992","0.0-6.0-0.0","3","[""img/0864/49150900-7f25-4ce8-8d10-9b47a71d1997.jpg"",""img/0860/f44ba3fb-03a2-42f0-8509-2c1ded493086.jpg""]","",""
"","5111","similarity","7","37110","0.0-6.0-1.0","5","[""img/0884/baabff07-71d8-424e-ac29-644768380941.jpg"",""img/0760/317fc071-99e6-43cb-9099-2e50aa79ccc2.jpg""]","",""
"","6344","similarity","8","44463","0.0-6.0-2.0","3","[""img/0886/bd45b474-5559-4ea5-83ff-140bce19f5fa.jpg"",""img/0881/84397291-bc14-4fbf-90e8-241e486ab0fe.jpg""]","",""
"","5808","similarity","9","51279","0.0-6.0-3.0","4","[""img/0866/4a87911a-d5be-4d4e-ab8e-3d1f581bf507.jpg"",""img/0881/4bd34581-94d8-4e88-8c89-5cef864ca3be.jpg""]","",""
"","5031","similarity","10","57319","0.0-6.0-4.0","3","[""img/0868/5fa7f9d0-f0e5-454c-8224-74d964818f56.jpg"",""img/0885/05af267f-b982-498d-9807-ccd54689f9b4.jpg""]","",""
"","3872","similarity","11","62198","0.0-6.0-5.0","1","[""img/0757/e2cf79e3-9d9f-49eb-a09d-0028ca21d242.jpg"",""img/0866/a04d37f0-99dd-478a-b6c6-58b215138f84.jpg""]","",""
"","4280","similarity","12","67485","0.0-6.0-6.0","4","[""img/0868/8b0b8473-e2c0-4331-aa56-c3a5c29369da.jpg"",""img/0864/4bd81bc6-c13d-46df-95a9-485886dc7c1b.jpg""]","",""
"","5353","similarity","13","73846","0.0-6.0-7.0","7","[""img/0864/0f537697-a314-47c3-a8cc-8df23b7e536c.jpg"",""img/0864/6f631579-acf1-415c-a42c-1207f62a8d99.jpg""]","",""
"","5416","similarity","14","80270","0.0-6.0-8.0","5","[""img/0757/31d8ee3d-1b79-4d6a-9347-f91c87c00f92.jpg"",""img/0881/c24f3051-eefa-42de-aba6-fccb56d93c70.jpg""]","",""
"","4561","similarity","15","85838","0.0-6.0-9.0","1","[""img/0886/48077111-b86b-4612-910f-90a5d168d77f.jpg"",""img/0760/7cdb34e4-0556-4bf7-9a6f-05990a92e0f3.jpg""]","",""
"","5797","similarity","16","92642","0.0-6.0-10.0","2","[""img/0884/2348ce3f-5d2a-4a04-85ef-a65f05caa935.jpg"",""img/0883/49aada36-b662-416c-93ae-9eab6598bfae.jpg""]","",""
"","6223","similarity","17","99872","0.0-6.0-11.0","3","[""img/0874/85eb9b8a-c4c6-4e5a-b8e7-363a87a82054.jpg"",""img/0862/e697469a-ec19-4414-b972-7b9f3564785b.jpg""]","",""
"","5267","similarity","18","106147","0.0-6.0-12.0","2","[""img/0862/de9ad88c-b522-430a-8ee9-eb06a9f85df5.jpg"",""img/0875/527ced51-8e53-4aab-ab05-86df219104c0.jpg""]","",""
"","5272","similarity","19","112424","0.0-6.0-13.0","5","[""img/0875/5a1e5100-0d94-4fec-bbe9-ca9894d2cf8e.jpg"",""img/0757/443a1d16-5d59-4e77-a670-d6190157c319.jpg""]","",""
"","5561","similarity","20","118993","0.0-6.0-14.0","2","[""img/0875/5a7c4e35-6514-4e12-8879-d16071da4cd6.jpg"",""img/0860/fd4662f9-4c03-4d79-8593-06735e55a64b.jpg""]","",""
"","4618","similarity","21","124619","0.0-6.0-15.0","1","[""img/0860/87039971-2210-4aab-93c0-8e9b5f1655b2.jpg"",""img/0881/f037e3b0-09cb-4a83-b2d9-6a71fe474e63.jpg""]","",""
"","5625","similarity","22","131252","0.0-6.0-16.0","3","[""img/0885/1e66fe61-15d5-42b1-86aa-dbfd13613f5c.jpg"",""img/0884/7f9cc898-36bc-49ec-8b1a-01065d9c0062.jpg""]","",""
"","4406","similarity","23","136665","0.0-6.0-17.0","7","[""img/0761/af21c992-a721-45fb-bee7-f50c0f676c30.jpg"",""img/0761/aebad236-1f4a-4bc2-a74d-d92b7e226316.jpg""]","",""
"","4297","similarity","24","141970","0.0-6.0-18.0","5","[""img/0760/57510c7a-e5a9-420e-9b3f-f7423746f67c.jpg"",""img/0864/ef9cbca0-4be8-435d-ad49-977259e80409.jpg""]","",""
"","5473","similarity","25","148450","0.0-6.0-19.0","5","[""img/0864/efcfbb1b-8197-44c9-b723-40d6c608dd3c.jpg"",""img/0875/8521fd58-3b1e-4dc5-97ae-804edfa6734a.jpg""]","",""
"","4837","similarity","26","154294","0.0-6.0-20.0","5","[""img/0874/ca76a855-4e77-4f2f-872a-0a718153e7ed.jpg"",""img/0884/0b4cf8d4-4c8f-4312-a794-f99e01679176.jpg""]","",""
"","5977","similarity","27","161279","0.0-6.0-21.0","6","[""img/0885/517a9189-9623-4ed7-a37e-48788791e028.jpg"",""img/0866/945c6710-d15b-4a5b-a8f6-69af0850357f.jpg""]","",""
"","5152","similarity","28","167439","0.0-6.0-22.0","4","[""img/0868/d98ca254-b195-477f-b57e-5760a2717db8.jpg"",""img/0868/09a9ef4d-d000-4cfa-a6aa-ebec7c2edeb4.jpg""]","",""
"","5873","similarity","29","174319","0.0-6.0-23.0","5","[""img/0757/76206a63-e02d-4beb-a85a-ed1b5527bc36.jpg"",""img/0756/350ac166-1deb-4399-89db-da6a7e827c4d.jpg""]","",""
"","5010","similarity","30","180335","0.0-6.0-24.0","6","[""img/0875/34132396-d896-4c2d-8087-646dd867e769.jpg"",""img/0875/dbdd643e-6d0e-4a5c-ab57-b9c29b9c981a.jpg""]","",""
"","5241","similarity","31","186583","0.0-6.0-25.0","3","[""img/0761/176fde97-0334-4d2b-8a7a-38960c2528f3.jpg"",""img/0866/a15b02be-11bb-43e3-b0e0-ecc3bd7dfc49.jpg""]","",""
"","4586","similarity","32","192175","0.0-6.0-26.0","5","[""img/0866/02f5e6b9-52b7-448c-9708-5b460d0c9a23.jpg"",""img/0758/7fba58df-2a7a-4b76-8a8f-62739f97f271.jpg""]","",""
"","4505","similarity","33","197687","0.0-6.0-27.0","6","[""img/0758/a085b443-b5d7-4cb2-9ad4-b9dab0fc23f1.jpg"",""img/0875/99698b4d-b4a1-44bc-8c83-8ea755bbbf61.jpg""]","",""
"","5698","similarity","34","204391","0.0-6.0-28.0","5","[""img/0958/b11515b3-5f04-4c3e-be00-56a05c6c3e96.jpg"",""img/0757/6ecf2f24-3286-49d6-b5ed-bb2da660c588.jpg""]","",""
"","5489","similarity","35","210887","0.0-6.0-29.0","4","[""img/0873/87f38f18-48a2-4de3-b24b-70630e8b6ca0.jpg"",""img/0883/903939ef-a67c-40d3-841d-52555815cd88.jpg""]","",""
"","6197","similarity","36","218091","0.0-6.0-30.0","3","[""img/0868/15dd6fd7-791e-4b53-b203-195d617521a4.jpg"",""img/0875/ebf7653f-ff45-4e9f-af58-2c042ab3cd2b.jpg""]","",""
"","5479","similarity","37","224578","0.0-6.0-31.0","2","[""img/0884/10c0a35b-e20a-4d75-a7c0-959a578d9ebf.jpg"",""img/0862/47ed5efd-4ec9-4b74-bb4e-a5f5cf0c3e7d.jpg""]","",""
"","4832","similarity","38","230420","0.0-6.0-32.0","4","[""img/0884/967c63af-8f6a-483f-9122-0c79d97fd22e.jpg"",""img/0864/3651d070-2fc5-4848-b6a6-088a2d9ac5c9.jpg""]","",""
"","4896","similarity","39","236323","0.0-6.0-33.0","5","[""img/0883/6dcd54c3-64a3-4ed5-9149-d8b9aa1938c8.jpg"",""img/0958/eea2b7ca-1c37-4e76-ada7-a8b1f3afdc01.jpg""]","",""
"","4546","similarity","40","241874","0.0-6.0-34.0","5","[""img/0864/5f74a653-3bdc-4308-8cca-ac667dc22e1f.jpg"",""img/0756/7a83dec0-4724-4efc-9fbf-52a30b5acd99.jpg""]","",""
"","4339","similarity","41","247219","0.0-6.0-35.0","6","[""img/0874/995f0332-0439-4eb4-add3-957335dbf6d9.jpg"",""img/0758/e1ba5e53-addc-436a-b428-d34fc1b130dc.jpg""]","",""
"","5446","similarity","42","253674","0.0-6.0-36.0","5","[""img/0886/42cccc64-05f9-4afd-bc93-496ba50a4342.jpg"",""img/0862/7918ca67-5bd3-4606-a5ea-c39fb11a9297.jpg""]","",""
"","5161","similarity","43","259842","0.0-6.0-37.0","5","[""img/0862/e0f1a4e9-e1b6-45f7-af67-89f334e6630d.jpg"",""img/0885/c840cf2c-c95d-4a08-b3c2-044d1ea946a7.jpg""]","",""
"","4872","similarity","44","265723","0.0-6.0-38.0","6","[""img/0758/6cd8c362-ae2a-41eb-80a3-3a4f7ace1530.jpg"",""img/0864/87c467d3-abca-482f-ad80-3766c21b1bb3.jpg""]","",""
"","5505","similarity","45","272235","0.0-6.0-39.0","6","[""img/0873/d74e4aa9-420d-48a3-a42f-30a3481536ae.jpg"",""img/0867/f8159067-056c-41f1-a136-c529fe5e970a.jpg""]","",""
"","5125","similarity","46","278368","0.0-6.0-40.0","3","[""img/0958/644719ec-1690-4af2-a63f-0b6467c3791e.jpg"",""img/0884/05d9bfb9-44a6-4ab4-92fa-d17e5b2b4f33.jpg""]","",""
"","4496","similarity","47","287214","0.0-6.0-41.0","7","[""img/0873/0c7f3d86-efda-4809-aac4-256ba01e0536.jpg"",""img/0873/b02f9cce-7f58-4f1b-baed-50fee9f0a21f.jpg""]","",""
"","5123","similarity","48","293343","0.0-6.0-42.0","2","[""img/0886/0f9715c1-b2e4-418e-bf9b-126cc9e70dc6.jpg"",""img/0758/7ee8bc8f-c40b-4b3a-84ec-3e83580622d4.jpg""]","",""
"","3578","similarity","49","297928","0.0-6.0-43.0","6","[""img/0883/cc2bb2c6-18f1-414f-98cc-6cd683173ce4.jpg"",""img/0874/a82926a3-0b43-4add-803c-d5f9ea7798ee.jpg""]","",""
"","4665","similarity","50","303600","0.0-6.0-44.0","6","[""img/0881/db77fe00-aeb0-4d1d-aa66-f3a96fd077e4.jpg"",""img/0873/b509aa81-b1d7-4d50-8aef-9c7b725c3157.jpg""]","",""
"","6192","similarity","51","310799","0.0-6.0-45.0","4","[""img/0867/12264664-1860-46df-8c21-162b9817cdda.jpg"",""img/0757/efa4466e-2951-4af9-b321-85458a89c2a7.jpg""]","",""
"","3810","similarity","52","315616","0.0-6.0-46.0","5","[""img/0866/6f2a90d7-14f1-4f1b-bd64-fc0af6b9fe44.jpg"",""img/0874/767f289c-9814-4496-803f-745cc8913d1f.jpg""]","",""
"","6640","similarity","53","323264","0.0-6.0-47.0","5","[""img/0886/1e8c0f89-c766-41c9-b522-83c342048f34.jpg"",""img/0886/9ac18ff1-d3d9-4bfe-aa2e-ed5b28399f6c.jpg""]","",""
"","5753","similarity","54","330023","0.0-6.0-48.0","5","[""img/0883/e7e4af6a-bc7a-4a9b-921c-32652db13239.jpg"",""img/0860/5383b320-1518-4095-a58e-5cc1ae30b64c.jpg""]","",""
"","5185","similarity","55","336216","0.0-6.0-49.0","2","[""img/0860/71e1aad0-2cdf-43bb-94a4-a8c016997c30.jpg"",""img/0756/fd9b5e61-3674-448f-867a-29769dc8f07d.jpg""]","",""
"","5014","similarity","56","342236","0.0-6.0-50.0","2","[""img/0860/29a21a9f-54bb-4093-ad3f-04823ceaa89f.jpg"",""img/0757/cd7fd185-981f-477a-ba00-a0f65bcfd0e9.jpg""]","",""
"","3817","similarity","57","347060","0.0-6.0-51.0","7","[""img/0756/a8246880-fb51-43bb-b25d-905e6e0d7880.jpg"",""img/0756/1cc17c90-3114-4ede-89cd-f34db9fa638a.jpg""]","",""
"","4985","similarity","58","353052","0.0-6.0-52.0","4","[""img/0875/d59ff733-eaff-4ee2-9443-06954dd0bcb6.jpg"",""img/0866/d266fece-59b3-46fa-b69f-96f6efb81b59.jpg""]","",""
"","4337","similarity","59","358396","0.0-6.0-53.0","5","[""img/0756/2bc961e4-b35f-4cfe-ba02-6f14fe3bdc10.jpg"",""img/0758/6e95579b-5166-487c-b8cb-e417c6a218e3.jpg""]","",""
"","5706","similarity","60","365108","0.0-6.0-54.0","3","[""img/0761/1725cacb-5f86-4b47-a5c0-3c36cd981588.jpg"",""img/0884/37ee4afa-34a0-4da2-bdb0-fcaff43dcdb6.jpg""]","",""
"","5673","similarity","61","371788","0.0-6.0-55.0","5","[""img/0760/7f35fc6a-c21f-4f42-81c5-92ced38d82f8.jpg"",""img/0867/98d8cd96-1476-4fe0-a3a3-04f875500a1b.jpg""]","",""
"","5353","similarity","62","378148","0.0-6.0-56.0","4","[""img/0866/93a27239-8317-4e08-98ca-d8b1ff298e07.jpg"",""img/0884/ffcce05a-b38d-4570-b3dc-751e89b7790a.jpg""]","",""
"","4889","similarity","63","384046","0.0-6.0-57.0","5","[""img/0756/403d0540-b812-446f-bb5a-e8030be0a02f.jpg"",""img/0761/a69897c1-1310-4bae-9a51-8b29cd9543dd.jpg""]","",""
"","4287","similarity","64","389340","0.0-6.0-58.0","1","[""img/0867/50a1b60e-3a29-44bf-b606-d4bd3746fea9.jpg"",""img/0860/702bd09d-df3a-40aa-a267-5f04474305b5.jpg""]","",""
"","4481","similarity","65","394828","0.0-6.0-59.0","5","[""img/0881/ee44e27f-d662-4608-b265-e7ffa19b216f.jpg"",""img/0758/eabcd7a8-56ad-4fd2-bc24-90f6b7b33265.jpg""]","",""
"","4034","similarity","66","399867","0.0-6.0-60.0","6","[""img/0761/6f9c1c71-e38d-4e3f-9062-39557812432a.jpg"",""img/0758/d540bee6-b460-4c32-ac57-bc282742d7d4.jpg""]","",""
"","3525","similarity","67","404400","0.0-6.0-61.0","1","[""img/0958/4e2ca4bc-52c7-4c27-9610-776441231e42.jpg"",""img/0875/03c3c331-738b-4446-af92-3d7386b08c2e.jpg""]","",""
"","5202","similarity","68","410608","0.0-6.0-62.0","5","[""img/0886/abd8dd83-d8ee-4003-b4d2-b4045220a578.jpg"",""img/0864/6e846d43-94a6-4b37-a268-65eda979f052.jpg""]","",""
"","5065","similarity","69","416680","0.0-6.0-63.0","5","[""img/0756/00b775eb-fe41-49b2-92e9-a9955cf1042b.jpg"",""img/0874/bf14b896-e930-4fd9-9c05-2e83317a2773.jpg""]","",""
"","5105","similarity","70","422792","0.0-6.0-64.0","4","[""img/0758/a709631e-3705-4725-ac40-f0d916924f08.jpg"",""img/0885/8cdf3204-e0f1-482b-9546-5edca3d81376.jpg""]","",""
"","5241","similarity","71","429040","0.0-6.0-65.0","3","[""img/0760/32bea725-69a2-4c9a-94d9-af05883fbb86.jpg"",""img/0958/fd950403-e452-4018-8207-a9714addcd75.jpg""]","",""
"","3849","similarity","72","433896","0.0-6.0-66.0","6","[""img/0884/3613aeb4-0028-4205-aea0-1ea28cb1f80e.jpg"",""img/0881/292e9b4b-fca0-4ba8-87f1-4048f9e37b7d.jpg""]","",""
"","3306","similarity","73","438208","0.0-6.0-67.0","5","[""img/0864/9b2490c5-a282-400a-9736-e1a0ecbf1cb7.jpg"",""img/0873/c3ff3b70-fb22-42f2-883c-3ecffd77cb4b.jpg""]","",""
"","6640","similarity","74","445856","0.0-6.0-68.0","2","[""img/0862/57b6f83f-c763-4858-830d-102f97bfefbf.jpg"",""img/0758/ddc336e9-a8b6-4bb9-937a-c7e25e0e9250.jpg""]","",""
"","4921","similarity","75","451783","0.0-6.0-69.0","6","[""img/0757/4faaa503-45d9-43fa-bddb-707274a341ff.jpg"",""img/0757/a7964b0f-aee3-4b4c-9cd1-c1c998c49fef.jpg""]","",""
"","4753","similarity","76","457544","0.0-6.0-70.0","6","[""img/0860/17b44a7d-c5ca-479f-9e87-f65a64f5c80e.jpg"",""img/0862/92f0146c-20c4-482e-aef5-adb693790338.jpg""]","",""
"","5046","similarity","77","463597","0.0-6.0-71.0","6","[""img/0860/18dfed73-e36b-4487-a8bd-0b8cff8e3668.jpg"",""img/0884/d8ffab77-40df-44ba-bf27-70815b052250.jpg""]","",""
"","5939","similarity","78","470542","0.0-6.0-72.0","4","[""img/0883/724f020e-39d9-495c-abe1-b2e4504be9bc.jpg"",""img/0866/9b38d691-1802-4959-ab3f-fc902f0e4ea6.jpg""]","",""
"","4656","similarity","79","476205","0.0-6.0-73.0","1","[""img/0866/11a1d141-be5e-443c-98c1-a9d4d9e3dec0.jpg"",""img/0886/4d28f75a-a9c3-49dd-8aa8-00304af6e40b.jpg""]","",""
"","5625","similarity","80","482837","0.0-6.0-74.0","5","[""img/0958/86d1a76d-f067-4e36-9ab5-13da78c97c0e.jpg"",""img/0761/47960f80-42b7-4397-a852-ec55d716c652.jpg""]","",""
"","4026","similarity","81","487869","0.0-6.0-75.0","6","[""img/0875/cff79b3a-a797-4393-9757-6275f999ec04.jpg"",""img/0756/1f40b002-ee9a-43c3-9506-ef79c513207d.jpg""]","",""
"","5137","similarity","82","494013","0.0-6.0-76.0","5","[""img/0958/54f27d86-00c0-46b2-b2c9-050c9cc60fe0.jpg"",""img/0885/fbbfaacd-e49b-4d37-a2f9-fcaffa58f26f.jpg""]","",""
"","5121","similarity","83","500141","0.0-6.0-77.0","4","[""img/0868/83b4350a-3b70-4cea-b7f5-b5b56f3050a8.jpg"",""img/0883/3b1366c6-7baa-4ad2-889c-1ff9c3b379c9.jpg""]","",""
"","5122","similarity","84","506269","0.0-6.0-78.0","3","[""img/0862/00c06b00-3b73-44e9-bc1e-c5aafb438321.jpg"",""img/0760/cbd28974-989a-49dd-b631-42de146d7e6f.jpg""]","",""
"","5066","similarity","85","512341","0.0-6.0-79.0","5","[""img/0885/0cdcdaca-f91e-4d4a-a6f6-dc90ab676435.jpg"",""img/0761/89d3b943-cd14-4786-a7b8-0e9a695cf0e3.jpg""]","",""
"","5721","similarity","86","519069","0.0-6.0-80.0","3","[""img/0862/064818ee-13d5-4618-bb24-21c7368ea278.jpg"",""img/0864/e336a4c5-6648-4fd7-b2f6-93a3fb83f8c6.jpg""]","",""
"","4062","similarity","87","524137","0.0-6.0-81.0","6","[""img/0758/d57c2592-a317-4f63-91be-91a3a9afd222.jpg"",""img/0758/20497cbe-ddae-489e-86e2-ab06985ed07c.jpg""]","",""
"","5537","similarity","88","530681","0.0-6.0-82.0","2","[""img/0862/99a99e39-8355-44ec-b993-e7bcec111e1c.jpg"",""img/0873/e5374873-a1a7-4689-a04c-a3b959992244.jpg""]","",""
"","5634","similarity","89","541695","0.0-6.0-83.0","3","[""img/0760/83b0723f-4929-4ee7-ad35-fae98da3e152.jpg"",""img/0757/89ce15d5-a3da-4a62-ac9f-c28a9273bf33.jpg""]","",""
"","4683","similarity","90","547385","0.0-6.0-84.0","5","[""img/0867/f8488a47-94ee-4166-952c-44e16cf172f6.jpg"",""img/0881/5fe04dd0-5c74-47b7-99c8-b068db9ca26a.jpg""]","",""
"","3778","similarity","91","552170","0.0-6.0-85.0","2","[""img/0885/f4ed5442-1f5c-4a69-abe6-8336ed11ec77.jpg"",""img/0886/aef00ed5-e288-47bf-b31e-512d7e762ea2.jpg""]","",""
"","4360","similarity","92","557538","0.0-6.0-86.0","3","[""img/0866/0207e9a2-7dbb-40b5-9459-b472aaeceb2a.jpg"",""img/0864/da39ad34-04e0-40d4-a724-c08d53e0ea09.jpg""]","",""
"","4350","similarity","93","562897","0.0-6.0-87.0","6","[""img/0874/a3bc679d-619f-4db6-bb68-116dcb757d9c.jpg"",""img/0881/f8bd891e-aa09-4782-89db-33e7cb2b0cf1.jpg""]","",""
"","4377","similarity","94","568281","0.0-6.0-88.0","2","[""img/0866/23a224f3-2012-4fc8-8e0f-3c36f8de27fd.jpg"",""img/0760/191d8576-9ed7-4798-a486-66a7fd600e58.jpg""]","",""
"","5584","similarity","95","574873","0.0-6.0-89.0","7","[""img/0867/a498eef3-9fa4-4ab2-9778-4ae82ac40dc5.jpg"",""img/0884/a8f7b854-0010-4c7a-a8fb-b1b1dc1f1ba1.jpg""]","",""
"","5401","similarity","96","581281","0.0-6.0-90.0","3","[""img/0757/c190d19b-2091-436c-a92b-a48c253ac955.jpg"",""img/0862/fad1d7c1-8187-43c3-942a-0fc12183e48e.jpg""]","",""
"","4861","similarity","97","587150","0.0-6.0-91.0","4","[""img/0867/aa05d113-fc19-4756-a8eb-7878f580bc92.jpg"",""img/0761/8e379ec1-757d-4427-a0ff-d4efdd6a50c4.jpg""]","",""
"","5011","similarity","98","593167","0.0-6.0-92.0","5","[""img/0868/1a62b2b2-18f5-466e-b564-5176a57c565e.jpg"",""img/0958/edfd5bc1-8c8f-489a-84c3-908436ef76cc.jpg""]","",""
"","5410","similarity","99","599582","0.0-6.0-93.0","7","[""img/0874/2c9464dd-8a23-4baa-ac94-1ba3af5c15cc.jpg"",""img/0864/0116ca98-293d-4fa6-a93b-5a6144ef64cc.jpg""]","",""
"","4929","similarity","100","605518","0.0-6.0-94.0","3","[""img/0760/319c5462-51de-4d3b-a135-d6c44f59c0e1.jpg"",""img/0873/c4b47588-9c66-4401-aefc-cf9481d5fa85.jpg""]","",""
"","5128","similarity","101","611655","0.0-6.0-95.0","2","[""img/0868/6a28c3b0-3d76-498a-9fb7-ddafc665eca8.jpg"",""img/0873/a234d5d1-09ea-4594-9a0f-d569da31dbdb.jpg""]","",""
"","4585","similarity","102","617246","0.0-6.0-96.0","1","[""img/0860/c47fdead-eb02-4989-b078-26f4852f44fe.jpg"",""img/0761/07f8178b-8ce5-42d6-bca0-a0ae0e0e8eb3.jpg""]","",""
"","4409","similarity","103","622662","0.0-6.0-97.0","2","[""img/0862/fb26cb07-d5a9-4653-813c-f41609f26cd5.jpg"",""img/0883/599aacc5-bb0f-4dea-852c-9a27727eb0b9.jpg""]","",""
"","3802","similarity","104","627470","0.0-6.0-98.0","3","[""img/0757/0668efad-1c92-425c-9aa9-2bbe833fd777.jpg"",""img/0884/592da15b-09e4-46b5-81e7-bab08a1c33e9.jpg""]","",""
"","4617","similarity","105","633096","0.0-6.0-99.0","5","[""img/0867/db7e032f-162b-46f5-ae67-2b29679adee4.jpg"",""img/0756/8ab56efe-fef0-45cc-ab57-82597f83b26a.jpg""]","",""
"","5496","similarity","106","639598","0.0-6.0-100.0","5","[""img/0958/9be61b1d-099b-432a-ae0e-2aa69e157c0e.jpg"",""img/0756/9a7a2119-24a3-431f-95e6-62f596bf88e2.jpg""]","",""
"","5057","similarity","107","645662","0.0-6.0-101.0","7","[""img/0760/ed469d78-34af-4ea9-a969-05ea527438a2.jpg"",""img/0760/0864f159-c076-4573-83e1-ea134f239717.jpg""]","",""
"","5065","similarity","108","651730","0.0-6.0-102.0","5","[""img/0873/d39b1731-1669-4c96-b5c6-682b30e287ee.jpg"",""img/0875/2e13d160-eea1-416b-aff1-d37ab99ecc1d.jpg""]","",""
"","5593","similarity","109","658330","0.0-6.0-103.0","6","[""img/0884/d9185264-7f01-43b2-be7f-eed1a0f0f2e8.jpg"",""img/0884/a6389ab4-3291-4434-9b91-eeae3b04fce4.jpg""]","",""
"","5858","similarity","110","665196","0.0-6.0-104.0","5","[""img/0873/0d9b4403-7f26-46dc-b0b7-2b97b0a91b46.jpg"",""img/0885/d2276b26-e91a-4f19-a818-cbeb297ed884.jpg""]","",""
"","4054","similarity","111","670258","0.0-6.0-105.0","5","[""img/0883/5716bfb3-e86c-42fe-8afa-58d226cb1aaa.jpg"",""img/0875/fb732ab5-013a-4366-9f65-27811ed157e9.jpg""]","",""
"","5905","similarity","112","677170","0.0-6.0-106.0","4","[""img/0864/f92649a2-0590-4d31-9a7a-1bfb81666a2d.jpg"",""img/0867/7d1c497b-c1b3-4ed8-abb5-d7f73306015f.jpg""]","",""
"","5824","similarity","113","684003","0.0-6.0-107.0","1","[""img/0958/df7705da-e817-409f-8a93-05abef4b26c3.jpg"",""img/0860/d9a0d117-6d1d-41c0-8fec-9aff0fd9e9f2.jpg""]","",""
"","4297","similarity","114","689306","0.0-6.0-108.0","6","[""img/0885/5a47e19f-19b4-4545-bf47-b508cb65da6a.jpg"",""img/0756/dbe25ae4-de3f-44b2-907f-6f2fc03ed1f0.jpg""]","",""
"","4273","similarity","115","694586","0.0-6.0-109.0","5","[""img/0883/0e1ed5c7-0881-4bfd-b12f-6a53500e74f0.jpg"",""img/0885/4fd0aafb-6cc0-43d6-993a-c55a6e18a7ba.jpg""]","",""
"","5034","similarity","116","700626","0.0-6.0-110.0","6","[""img/0867/2e1a0b58-cdb1-4107-a14e-452530d7b9b0.jpg"",""img/0867/26611f4e-d694-4460-b7e2-43c62753ddc3.jpg""]","",""
"","4561","similarity","117","706194","0.0-6.0-111.0","6","[""img/0881/48ed65a5-471f-41af-86ec-3793805c116d.jpg"",""img/0760/9ddd6958-7349-45d6-b5bc-4a5911960c35.jpg""]","",""
"","5522","similarity","118","712719","0.0-6.0-112.0","3","[""img/0881/566f45f8-5fed-4479-a60f-26377e60a62d.jpg"",""img/0868/293079b8-7e0c-4afd-a390-1e5d35fe3ded.jpg""]","",""
"","3939","similarity","119","717664","0.0-6.0-113.0","3","[""img/0875/5a716432-c6ca-4b1c-955a-2b8ac25198ee.jpg"",""img/0761/b8f211c0-f640-43a2-b101-101774517d95.jpg""]","",""
"","5209","similarity","120","723879","0.0-6.0-114.0","3","[""img/0756/792f9475-979d-4787-b7dc-8a0d02f6e25f.jpg"",""img/0866/8efcaa46-83ab-4dee-a35f-850402aa21ae.jpg""]","",""
"","4993","similarity","121","729879","0.0-6.0-115.0","5","[""img/0884/e275ab3e-0948-43c3-8be7-a75271922185.jpg"",""img/0886/e5903946-897c-4420-87c0-afee4100305c.jpg""]","",""
"","3387","similarity","122","734272","0.0-6.0-116.0","6","[""img/0756/5dba4151-3cf5-42f5-8dd9-7c6128318b01.jpg"",""img/0881/adc02f34-ce97-4aef-850f-00519df06fd7.jpg""]","",""
"","3321","similarity","123","738599","0.0-6.0-117.0","5","[""img/0760/868ae139-99b5-4ff2-9d19-c4933af135e4.jpg"",""img/0875/3ecb367d-e9eb-4826-8aaa-7aa72fb98019.jpg""]","",""
"","4681","similarity","124","744287","0.0-6.0-118.0","4","[""img/0958/bb684a39-afef-4125-9f70-b5ad830ba316.jpg"",""img/0866/f756f7d1-9ad8-4a34-9ef6-7a443d705bfe.jpg""]","",""
"","6882","similarity","125","752177","0.0-6.0-119.0","2","[""img/0867/5e07b34d-b40f-4b1c-ac10-49975bace45f.jpg"",""img/0874/eba003b4-cdab-4eee-8bc3-f064c7d94165.jpg""]","",""
"","3816","similarity","126","757000","0.0-6.0-120.0","5","[""img/0883/ff85a2f1-14b1-4b7e-9c87-887151d97e01.jpg"",""img/0757/1fd9dcb9-e489-4708-b518-f356d3f5481d.jpg""]","",""
"","5601","similarity","127","763608","0.0-6.0-121.0","2","[""img/0874/3f471690-9788-4d03-90c7-f615aecef149.jpg"",""img/0886/7164ac42-460f-4beb-9d5e-a1cfded3099c.jpg""]","",""
"","5814","similarity","128","770428","0.0-6.0-122.0","2","[""img/0873/90b702a6-3dba-446a-9bba-a2ee096baf49.jpg"",""img/0761/e34f97e4-14ac-4bb6-b226-816085d967c2.jpg""]","",""
"","5329","similarity","129","776763","0.0-6.0-123.0","5","[""img/0875/2c361b79-c3d1-4eda-812e-bf03192407bf.jpg"",""img/0884/9b1b7885-1502-448f-9b20-ddc19aa5456f.jpg""]","",""
"","4673","similarity","130","782443","0.0-6.0-124.0","5","[""img/0757/4f8ae92b-a4ab-4020-b4fb-80c5615e76ac.jpg"",""img/0868/c8ac40c7-6904-4e13-8d61-c75d3052dc4e.jpg""]","",""
"","5345","similarity","131","792891","0.0-6.0-125.0","4","[""img/0886/789f5d23-84b8-499a-ae1e-20c6309a06ae.jpg"",""img/0883/fc8cf4c9-003e-48c4-b222-8878ea2ae1c0.jpg""]","",""
"","4593","similarity","132","798491","0.0-6.0-126.0","3","[""img/0868/0d3abd3a-b6c3-4584-a9f7-e2da63748b3d.jpg"",""img/0760/39d75e1e-0645-4f23-a2ca-3bbefac19d69.jpg""]","",""
"","4018","similarity","133","803516","0.0-6.0-127.0","7","[""img/0881/0c7068da-d0d9-4103-bda1-74ef7a2b32c3.jpg"",""img/0881/19e82c47-8e4b-45d2-a6c8-74181eb4155e.jpg""]","",""
"","4978","similarity","134","809500","0.0-6.0-128.0","2","[""img/0760/111aecf1-147c-4227-90e0-9ed3a75e4e16.jpg"",""img/0860/94ef7afc-e0e6-4a15-98c6-0bfac82bc832.jpg""]","",""
"","3448","similarity","135","813959","0.0-6.0-129.0","5","[""img/0864/65210d57-1153-4657-886a-32e758f49b4a.jpg"",""img/0885/1cd940ef-9720-4a04-8fa1-1dd3a39ecdd6.jpg""]","",""
"","4221","similarity","136","819187","0.0-6.0-130.0","5","[""img/0864/8ddd2e30-a1d0-479f-9cbe-591213023893.jpg"",""img/0757/b46cab21-50e3-4f19-803d-682627bcd6a6.jpg""]","",""
"","5073","similarity","137","825268","0.0-6.0-131.0","3","[""img/0760/237fa1c2-d59d-4475-8d1e-f9a4eb71f989.jpg"",""img/0883/29cba870-24df-4a0b-85cd-b680316ffe3d.jpg""]","",""
"","3686","similarity","138","829960","0.0-6.0-132.0","7","[""img/0885/ef0386f3-e5d4-481b-8894-60b80e08bbe8.jpg"",""img/0885/24afeefb-f7b3-4e8f-a5b9-17cc00fd22e3.jpg""]","",""
"","5066","similarity","139","836032","0.0-6.0-133.0","5","[""img/0860/61fb959d-d4d9-4de4-9e4e-4fa62b4cfcd5.jpg"",""img/0868/179a5502-ab5c-478e-8263-5a1fbcc101d2.jpg""]","",""
"","5259","similarity","140","842297","0.0-6.0-134.0","3","[""img/0867/bf560d4f-dee3-4f11-a385-705cc1aa5f3c.jpg"",""img/0886/d1e40478-2fe0-404f-8409-920da98a96a2.jpg""]","",""
"","4992","similarity","141","848294","0.0-6.0-135.0","6","[""img/0756/ca2a8f93-ed77-45c8-a3a3-22324aa28501.jpg"",""img/0886/b8648eb5-de71-41ab-825d-848e51be8c1b.jpg""]","",""
"","6213","similarity","142","855513","0.0-6.0-136.0","5","[""img/0884/13db1f36-8c9f-4b28-8426-04eaa9fba737.jpg"",""img/0868/d6d1f30d-4323-435a-b194-7892521bc57e.jpg""]","",""
"","4746","similarity","143","861264","0.0-6.0-137.0","7","[""img/0958/d4138705-0a9d-4141-9af9-205e69367c44.jpg"",""img/0958/acbadc39-e665-446d-b98f-ccd0ef3223d6.jpg""]","",""
"","4705","similarity","144","866976","0.0-6.0-138.0","2","[""img/0886/9b0bffbe-9237-404d-a0ba-a1982e0814c7.jpg"",""img/0873/ac86dbfd-0442-4dec-9d10-37d7093f5a52.jpg""]","",""
"","4491","similarity","145","872473","0.0-6.0-139.0","5","[""img/0758/821c68d3-5cb0-4eae-8659-30e6263fca39.jpg"",""img/0873/7dddc95f-ca6e-4d15-99a0-0e329ec6888e.jpg""]","",""
"","5042","similarity","146","878521","0.0-6.0-140.0","5","[""img/0873/c2a7452d-a271-4207-81ce-bda281dc0297.jpg"",""img/0756/04655068-a9fc-49d9-b2f4-21e4d42b7903.jpg""]","",""
"","5185","similarity","147","884712","0.0-6.0-141.0","3","[""img/0868/3a62db2d-97e9-44a3-b8e3-a48c6f0e423b.jpg"",""img/0862/53a9cf7c-93c4-41b9-952f-07d17f7a17b2.jpg""]","",""
"","4918","similarity","148","890637","0.0-6.0-142.0","2","[""img/0881/b549bc99-a61c-4450-bab5-9efc3a197bf0.jpg"",""img/0862/eefa5588-9efd-4591-aa5f-a2e17c7d7bcc.jpg""]","",""
"","4377","similarity","149","896021","0.0-6.0-143.0","4","[""img/0885/89d8c48b-8bde-42ed-ae71-de669b15ea34.jpg"",""img/0867/1719a35d-f085-48c0-9099-16c94fe418b4.jpg""]","",""
"","5184","similarity","150","902212","0.0-6.0-144.0","6","[""img/0883/daaa1a6f-c322-46f6-b6a6-db2c9496d710.jpg"",""img/0883/46d6b8ad-7f31-441e-92d2-0cc16d3d99ce.jpg""]","",""
"","3538","similarity","151","906756","0.0-6.0-145.0","5","[""img/0874/93d1f8dc-acf2-4f03-bd8d-8ec35df276ed.jpg"",""img/0873/c91c05f8-fafd-4054-bcf1-f5ed1f0a18e8.jpg""]","",""
"","4410","similarity","152","912173","0.0-6.0-146.0","5","[""img/0757/cb7ca802-27ac-4a1d-996f-bd21b96d6244.jpg"",""img/0758/caa93da2-9edf-49fa-96b9-32dedd8f5078.jpg""]","",""
"","4129","similarity","153","917308","0.0-6.0-147.0","5","[""img/0883/eff15ce5-9393-443c-829f-71242d1c56d0.jpg"",""img/0756/6d2df7ce-35aa-4a5d-ab53-974d2c02034e.jpg""]","",""
"","5361","similarity","154","923676","0.0-6.0-148.0","2","[""img/0867/075e0f95-856b-4cbb-acf5-092393aaf04e.jpg"",""img/0866/386235d2-6857-41e7-88a8-25cfc3430025.jpg""]","",""
"","5475","similarity","155","930157","0.0-6.0-149.0","6","[""img/0758/335851a0-a55b-46d8-ab05-8463eda48349.jpg"",""img/0760/afe7a178-4458-4bdd-a0ad-0cffc57eadc3.jpg""]","",""
"","4649","similarity","156","935812","0.0-6.0-150.0","4","[""img/0757/86df581e-81a2-4205-95e3-1ea87cea1f36.jpg"",""img/0761/d5370a68-6c8a-486f-b2bf-330e2ad6b397.jpg""]","",""
"","3825","similarity","157","940644","0.0-6.0-151.0","6","[""img/0761/53a65b48-8b0c-4a1d-9ebb-a27a259c5bc6.jpg"",""img/0874/99f6563c-8a8d-4c1c-a41d-667b618c3fd5.jpg""]","",""
"","5019","similarity","158","946669","0.0-6.0-152.0","6","[""img/0761/3599fa54-18f9-488e-b402-e851c43586ff.jpg"",""img/0760/868961d8-3272-4d3c-9c8b-9d183315cabc.jpg""]","",""
"","4742","similarity","159","952417","0.0-6.0-153.0","6","[""img/0866/be24ab58-230e-4db8-9f45-ff04c9aec6bb.jpg"",""img/0866/07c9c966-3c8d-40e7-8128-92b2acbaed5d.jpg""]","",""
"","3882","similarity","160","957305","0.0-6.0-154.0","2","[""img/0866/d493a2c8-66eb-44b4-be02-2f327b700b7c.jpg"",""img/0862/ad593cc7-cabe-4bb7-8e14-8a447a0717b4.jpg""]","",""
"","3970","similarity","161","962282","0.0-6.0-155.0","1","[""img/0756/ba3f2106-0416-46e6-a788-1b50d9f92bda.jpg"",""img/0862/847e5208-38ec-4f36-949c-296cdd7424ee.jpg""]","",""
"","4728","similarity","162","968018","0.0-6.0-156.0","2","[""img/0860/9593362c-9fe5-4d12-9735-6000a11f6aa5.jpg"",""img/0866/bf14b5bd-fb55-47db-86b9-4f8aeb9a6dad.jpg""]","",""
"","5755","similarity","163","974777","0.0-6.0-157.0","1","[""img/0862/92fcd8a4-8193-4a6a-ae09-dd4a6338b0df.jpg"",""img/0958/96f89270-febc-4f09-b8c3-53a249ff00ea.jpg""]","",""
"","4931","similarity","164","980714","0.0-6.0-158.0","3","[""img/0761/ff3e024b-951d-4aca-a168-c09c6507525d.jpg"",""img/0868/4a8a45ed-2c4f-421b-9564-409a33ecd26c.jpg""]","",""
"","5569","similarity","165","987289","0.0-6.0-159.0","4","[""img/0761/014e76d0-fb4e-4b40-901c-7a2d5655c3b0.jpg"",""img/0886/97243e18-4dba-4af8-b49f-b3b635c90ac4.jpg""]","",""
"","4402","similarity","166","992697","0.0-6.0-160.0","3","[""img/0874/7e4f2150-3b59-4a36-b5da-a4e0ba410531.jpg"",""img/0868/7b212364-ff5f-4e28-9241-7eb6ea00161b.jpg""]","",""
"","4898","similarity","167","998602","0.0-6.0-161.0","2","[""img/0860/8a92e21b-6a32-4e4a-a445-2d5a487ed0a4.jpg"",""img/0874/c0378dac-9370-439a-8b79-db27c96fb390.jpg""]","",""
"","4793","similarity","168","1004401","0.0-6.0-162.0","5","[""img/0883/387a9e30-7d95-483e-af34-c8262f62385f.jpg"",""img/0867/85a96c62-548f-4994-9553-819e03c3135a.jpg""]","",""
"","4361","similarity","169","1009769","0.0-6.0-163.0","4","[""img/0758/e38fd80d-18d0-42f3-b848-f930788e8bd7.jpg"",""img/0958/ef1b718f-ef8c-497f-80d7-42562aebf1a7.jpg""]","",""
"","4214","similarity","170","1014989","0.0-6.0-164.0","3","[""img/0873/1d1be182-3bb2-4efd-8543-d70b8db7beef.jpg"",""img/0757/ec40956b-ed8b-4970-b87f-9b7c25cd5be6.jpg""]","",""
"","4777","similarity","171","1020773","0.0-6.0-165.0","4","[""img/0873/841d6549-01d2-4ebd-8d67-25d219876178.jpg"",""img/0866/c446214b-a368-4c65-ae39-ea46894256ab.jpg""]","",""
"","5753","similarity","172","1027534","0.0-6.0-166.0","6","[""img/0875/90da8d75-108a-44ad-b999-e21fee3860d3.jpg"",""img/0867/cc72ed48-7704-422c-86d6-467a1145287a.jpg""]","",""
"","3953","similarity","173","1038795","0.0-6.0-167.0","7","[""img/0862/cdaed51d-9e2f-4807-801a-4663c40077e2.jpg"",""img/0862/1c20f772-3a51-4a80-aac0-f57dc9f86c28.jpg""]","",""
"","4299","similarity","174","1044101","0.0-6.0-168.0","1","[""img/0875/42910c99-5463-450a-a0f8-d4d060a11455.jpg"",""img/0886/451550d7-6ff9-42b5-938c-9e20ee960bf6.jpg""]","",""
"","4801","similarity","175","1049911","0.0-6.0-169.0","5","[""img/0885/8960bf05-34df-4a86-a9b2-6087c70e61d3.jpg"",""img/0875/a4935837-7d3c-4df6-88c1-36a94d4991ca.jpg""]","",""
"","4721","similarity","176","1055637","0.0-6.0-170.0","2","[""img/0862/d0ca4c78-fc35-46ed-bdcc-8e124283c53e.jpg"",""img/0867/179ab87a-8eac-4c52-a41f-2e48e3120f09.jpg""]","",""
"","4650","similarity","177","1061293","0.0-6.0-171.0","3","[""img/0884/a416b0d1-f903-4935-b89f-99c29683752b.jpg"",""img/0873/226317e0-f0e7-42ea-907b-058cb1ad519a.jpg""]","",""
"","4762","similarity","178","1067062","0.0-6.0-172.0","7","[""img/0873/ec150e40-b3ec-4dfe-ab38-bb3f248a1175.jpg"",""img/0958/e9e2cc42-eb3b-4c91-8112-a517305c15f0.jpg""]","",""
"","4386","similarity","179","1072454","0.0-6.0-173.0","2","[""img/0868/e0aff734-077f-40dd-9781-74821abd3621.jpg"",""img/0758/dd559618-7f09-4a07-8018-d311c4a5ea29.jpg""]","",""
"","4478","similarity","180","1077938","0.0-6.0-174.0","3","[""img/0757/a91bb71b-8c84-4999-8da7-f30e53ddc2a7.jpg"",""img/0874/3ce41e7c-40c8-4d58-a546-171114521796.jpg""]","",""
"","4914","similarity","181","1083859","0.0-6.0-175.0","5","[""img/0958/ebea41e3-9d65-4f5e-981a-92daaaad0d57.jpg"",""img/0867/6e19c858-b606-45b2-a4c6-910a73f1d82c.jpg""]","",""
"","4746","similarity","182","1089611","0.0-6.0-176.0","5","[""img/0874/29830da7-be5f-44e5-b141-652a0ccf7269.jpg"",""img/0760/1c96ffb7-17db-4253-b66c-59250977c88b.jpg""]","",""
"","3665","similarity","183","1094282","0.0-6.0-177.0","2","[""img/0873/6110910a-7895-4b6a-af51-12486a4595a3.jpg"",""img/0860/c7047cd2-7cc1-41b6-8a34-c0986774975f.jpg""]","",""
"","5274","similarity","184","1100563","0.0-6.0-178.0","4","[""img/0881/609a5e93-38b5-4940-8627-2bf8fad7f802.jpg"",""img/0883/6884954b-873e-4d6f-9b4b-95d158e0de6c.jpg""]","",""
"","4954","similarity","185","1106523","0.0-6.0-179.0","4","[""img/0886/1870a791-dfee-471e-8417-197d4a53c75a.jpg"",""img/0958/ba5ed153-96de-4f61-b7d9-87a478c8972c.jpg""]","",""
"","3785","similarity","186","1111314","0.0-6.0-180.0","5","[""img/0864/e02eddb5-f468-499c-91bf-f7be3ffe979b.jpg"",""img/0883/68a56098-91b8-4c40-8827-7808704aa1bc.jpg""]","",""
"","5026","similarity","187","1117347","0.0-6.0-181.0","3","[""img/0756/d0f1b906-d8e0-4528-9d08-90cec14838ec.jpg"",""img/0868/4bd5105a-d2c3-4f82-8c80-57196106ba53.jpg""]","",""
"","4698","similarity","188","1123051","0.0-6.0-182.0","3","[""img/0884/7ae02e9d-46a4-4124-bcc2-cad90d7ef9f9.jpg"",""img/0758/d41c06bf-ebaf-454b-91c6-1a17f917b659.jpg""]","",""
"","4153","similarity","189","1128210","0.0-6.0-183.0","5","[""img/0875/f87b67d7-c33e-40d1-b281-248c4be1cb6e.jpg"",""img/0874/31e22c7c-99aa-40b1-bf03-dd73fa2df4d6.jpg""]","",""
"","3810","similarity","190","1133026","0.0-6.0-184.0","6","[""img/0867/c66898ba-b71b-4d50-84f9-f7f84853a98d.jpg"",""img/0868/fd307a36-9a3a-47d7-ab7c-f810d0b35040.jpg""]","",""
"","4231","similarity","191","1138263","0.0-6.0-185.0","3","[""img/0881/445edb15-bd7f-4af3-8bd5-c6ad9677bb31.jpg"",""img/0885/6873c613-5e40-42ff-a5b6-443b6b626ae2.jpg""]","",""
"","4857","similarity","192","1144126","0.0-6.0-186.0","5","[""img/0864/c3b63e8f-ea39-4d70-a1f2-b3fe4be8eb75.jpg"",""img/0761/5747fedf-15f2-47fe-87c8-ff646dd66a5f.jpg""]","",""
"","4225","similarity","193","1149358","0.0-6.0-187.0","4","[""img/0885/a4e5c564-1e5f-4fed-9f73-b8d1becf62b6.jpg"",""img/0874/adf9a8f1-c40b-402b-b95b-1e85a54a7b62.jpg""]","",""
"","3739","similarity","194","1154103","0.0-6.0-188.0","2","[""img/0758/b76ceca7-95ac-46e4-ac13-da02c8e93be9.jpg"",""img/0867/8ba0c5a7-c7e4-42cf-a80a-543763b90779.jpg""]","",""
"","5218","similarity","195","1160327","0.0-6.0-189.0","3","[""img/0756/aa551726-e765-4729-82aa-99d700d388ae.jpg"",""img/0884/5085d424-b3f5-461b-a1c7-f7ca55abcf4f.jpg""]","",""
"","5850","similarity","196","1167182","0.0-6.0-190.0","3","[""img/0761/bd083642-a9bc-4877-bfc6-63bd03d33e81.jpg"",""img/0862/ee3b7bff-4a70-4e84-9bea-4a565e456acb.jpg""]","",""
"","6418","similarity","197","1174607","0.0-6.0-191.0","2","[""img/0860/99c589b9-9140-4d17-90c0-b344323edcda.jpg"",""img/0886/c6c81122-f4bf-46f4-968b-167f8ed0cab3.jpg""]","",""
"","3880","similarity","198","1179491","0.0-6.0-192.0","5","[""img/0760/36c930c0-2660-41c1-a356-77dafb18ae83.jpg"",""img/0885/21b241a1-95da-4306-9cf2-cc52a784214a.jpg""]","",""
"","6877","similarity","199","1187375","0.0-6.0-193.0","4","[""img/0886/9f186bd5-d48b-4cc2-9206-be67c392faa9.jpg"",""img/0868/4e626425-63c8-484a-8a1d-e66ee4e0bef8.jpg""]","",""
"","4778","similarity","200","1193159","0.0-6.0-194.0","6","[""img/0881/dea58fad-b4f1-41d9-bd3f-916eff19a3fd.jpg"",""img/0864/66091c27-e588-4476-8af9-265dc6be4156.jpg""]","",""
"","4397","similarity","201","1198563","0.0-6.0-195.0","6","[""img/0866/620cd1aa-0800-4414-8f6e-90342e7a99ad.jpg"",""img/0868/77091fc7-a590-4ebb-b915-fdb2483a2399.jpg""]","",""
"","5306","similarity","202","1204876","0.0-6.0-196.0","3","[""img/0864/ea327690-500b-4137-bf91-451b309fe6a5.jpg"",""img/0958/0a8f72c4-0c73-4d58-be6f-5e4613b87409.jpg""]","",""
"","5618","similarity","203","1211500","0.0-6.0-197.0","4","[""img/0757/20c59f64-1fc2-448d-8423-42cbd8fe0164.jpg"",""img/0886/625c7dfa-3fa1-4166-80f0-229eb416b04f.jpg""]","",""
"","4761","similarity","204","1217267","0.0-6.0-198.0","3","[""img/0758/53f35650-e455-4b53-8be4-c3c8271c6466.jpg"",""img/0883/142a783e-a468-4b7f-a750-1e107613d5a9.jpg""]","",""
"","4490","similarity","205","1222764","0.0-6.0-199.0","6","[""img/0881/d373cb9f-a719-4549-a2a4-82def79fb2a5.jpg"",""img/0958/d3775867-a8f6-42ba-86ff-f86e85edba90.jpg""]","",""
"","5354","similarity","206","1229124","0.0-6.0-200.0","5","[""img/0958/5a91b0e8-8f60-4625-b88c-d6e55b4d7d93.jpg"",""img/0874/ca23d307-fc00-4d7d-9106-584c6eb21b4d.jpg""]","",""
"","4041","similarity","207","1234171","0.0-6.0-201.0","2","[""img/0885/62bd11a8-7059-4cc2-b06d-4700688b313f.jpg"",""img/0860/31ff6436-98bf-4652-bed2-40f627229568.jpg""]","",""
"","6306","similarity","208","1241484","0.0-6.0-202.0","3","[""img/0875/e7e66b13-b573-431e-b85e-288ce04a35a3.jpg"",""img/0881/d1982897-8d8d-4704-a940-1ee5d07a1f15.jpg""]","",""
"","3442","similarity","209","1245931","0.0-6.0-203.0","1","[""img/0758/f61ecdf8-a7d4-4db0-b84d-be46f7cfaffc.jpg"",""img/0860/4c530c3c-6aab-492a-94d1-9c01797bde40.jpg""]","",""
"","3482","similarity","210","1250420","0.0-6.0-204.0","7","[""img/0860/e14d67c1-6d92-4f1e-9257-c8607159c19c.jpg"",""img/0860/e8b8c51e-1834-4875-8b61-6c5bc9b178bd.jpg""]","",""
"","4977","similarity","211","1256403","0.0-6.0-205.0","6","[""img/0874/1016b306-087c-4afc-aa08-fa527b28dc76.jpg"",""img/0874/8cdb1c07-1c32-46d2-981c-3636560fa6e5.jpg""]","",""
"","5141","similarity","212","1262551","0.0-6.0-206.0","5","[""img/0883/df1c6d22-bb1b-4eed-b4fe-eb5e46deacd4.jpg"",""img/0761/9199a691-d36e-4ece-a815-078384ea6f06.jpg""]","",""
"","4002","similarity","213","1267560","0.0-6.0-207.0","4","[""img/0761/a74c99e4-d9ed-42cd-9e83-8d525cb6a9a2.jpg"",""img/0881/54ea8e77-c7e5-4197-b7fa-00b7020849a7.jpg""]","",""
"","3929","similarity","214","1272495","0.0-6.0-208.0","5","[""img/0760/a24659cd-f862-42cc-b43a-7ba8eae0c2c0.jpg"",""img/0756/76516e04-06c4-4108-9130-fa84d688f55a.jpg""]","",""
"","4371","similarity","215","1281278","0.0-6.0-209.0","3","[""img/0885/eb5e4557-1792-49c3-8871-16afa58f3a28.jpg"",""img/0757/69d850ce-9828-4b13-9e68-6a2c196ecbcc.jpg""]","",""
"[{""page_index"":0,""viewing_time"":3838}]","3840","instructions","216","1286119","0.0-7.0","","","",""
"","16322","image-multi-choice","217","1303475","0.0-8.0-0.0","","","{""Q0"":""Yellow Warbler""}","Orange-crowned Warbler"
"","3400","image-multi-choice","218","1307896","0.0-8.0-1.0","","","{""Q0"":""Wilson's Warbler""}","Wilson's Warbler"
"","5891","image-multi-choice","219","1314809","0.0-8.0-2.0","","","{""Q0"":""Blackpoll Warbler""}","Blackpoll Warbler"
"","5507","image-multi-choice","220","1321336","0.0-8.0-3.0","","","{""Q0"":""Black-and-white Warbler""}","Black-and-white Warbler"
"","9036","image-multi-choice","221","1331390","0.0-8.0-4.0","","","{""Q0"":""Yellow-breasted Chat""}","Yellow-breasted Chat"
"","11868","image-multi-choice","222","1344278","0.0-8.0-5.0","","","{""Q0"":""Northern Parula""}","Canada Warbler"
"","4552","image-multi-choice","223","1349854","0.0-8.0-6.0","","","{""Q0"":""Common Yellowthroat""}","Common Yellowthroat"
"","5507","image-multi-choice","224","1356381","0.0-8.0-7.0","","","{""Q0"":""American Redstart""}","American Redstart"
"","7774","image-multi-choice","225","1365174","0.0-8.0-8.0","","","{""Q0"":""Blackburnian Warbler""}","Chestnut-sided Warbler"
"","7947","image-multi-choice","226","1374141","0.0-8.0-9.0","","","{""Q0"":""Chestnut-sided Warbler""}","Black-throated Green Warbler"
"","10432","image-multi-choice","227","1385594","0.0-8.0-10.0","","","{""Q0"":""Blackburnian Warbler""}","Blackburnian Warbler"
"","18492","image-multi-choice","228","1405106","0.0-8.0-11.0","","","{""Q0"":""Black-throated Green Warbler""}","Yellow-rumped Warbler"
"","6363","image-multi-choice","229","1412481","0.0-8.0-12.0","","","{""Q0"":""Ovenbird""}","Ovenbird"
"","18371","image-multi-choice","230","1431874","0.0-8.0-13.0","","","{""Q0"":""Magnolia Warbler""}","Townsend's Warbler"
"","6697","image-multi-choice","231","1439585","0.0-8.0-14.0","","","{""Q0"":""Northern Waterthrush""}","Northern Waterthrush"
"","4580","image-multi-choice","232","1445185","0.0-8.0-15.0","","","{""Q0"":""Yellow Warbler""}","Yellow Warbler"
"","6365","image-multi-choice","233","1452568","0.0-8.0-16.0","","","{""Q0"":""Nashville Warbler""}","Nashville Warbler"
"","20419","image-multi-choice","234","1474008","0.0-8.0-17.0","","","{""Q0"":""Tennessee Warbler""}","Northern Parula"
"","10213","image-multi-choice","235","1485240","0.0-8.0-18.0","","","{""Q0"":""Townsend's Warbler""}","Tennessee Warbler"
"","21814","image-multi-choice","236","1508073","0.0-8.0-19.0","","","{""Q0"":""Magnolia Warbler""}","Magnolia Warbler"
