[{"view_history":"[{\"page_index\":0,\"viewing_time\":2080}]","rt":2081,"trial_type":"instructions","trial_index":0,"time_elapsed":2083,"internal_node_id":"0.0-0.0"},{"sim_score":7,"rt":7623,"stimulus":"[\"img/bluejay1.jpg\",\"img/bluejay2.jpg\"]","trial_type":"similarity_demo","trial_index":1,"time_elapsed":10739,"internal_node_id":"0.0-1.0"},{"view_history":"[{\"page_index\":0,\"viewing_time\":6418}]","rt":6418,"trial_type":"instructions","trial_index":2,"time_elapsed":18168,"internal_node_id":"0.0-2.0"},{"sim_score":4,"rt":7427,"stimulus":"[\"img/bluejay1.jpg\",\"img/cardinal1.jpg\"]","trial_type":"similarity_demo","trial_index":3,"time_elapsed":26634,"internal_node_id":"0.0-3.0"},{"view_history":"[{\"page_index\":0,\"viewing_time\":5552}]","rt":5553,"trial_type":"instructions","trial_index":4,"time_elapsed":33200,"internal_node_id":"0.0-4.0"},{"view_history":"[{\"page_index\":0,\"viewing_time\":16559}]","rt":16560,"trial_type":"instructions","trial_index":5,"time_elapsed":50784,"internal_node_id":"0.0-5.0"},{"sim_score":5,"rt":4731,"stimulus":"[\"img/0864/0116ca98-293d-4fa6-a93b-5a6144ef64cc.jpg\",\"img/0860/c5ccd1a4-4bb7-48e1-9b25-72cfaf06909b.jpg\"]","trial_type":"similarity","trial_index":6,"time_elapsed":56546,"internal_node_id":"0.0-6.0-0.0"},{"sim_score":6,"rt":4409,"stimulus":"[\"img/0884/967c63af-8f6a-483f-9122-0c79d97fd22e.jpg\",\"img/0760/0864f159-c076-4573-83e1-ea134f239717.jpg\"]","trial_type":"similarity","trial_index":7,"time_elapsed":61986,"internal_node_id":"0.0-6.0-1.0"},{"sim_score":3,"rt":4847,"stimulus":"[\"img/0886/451550d7-6ff9-42b5-938c-9e20ee960bf6.jpg\",\"img/0881/566f45f8-5fed-4479-a60f-26377e60a62d.jpg\"]","trial_type":"similarity","trial_index":8,"time_elapsed":67866,"internal_node_id":"0.0-6.0-2.0"},{"sim_score":5,"rt":6269,"stimulus":"[\"img/0866/f756f7d1-9ad8-4a34-9ef6-7a443d705bfe.jpg\",\"img/0881/33d65d80-8a8e-4ecf-852d-0ad7725c17a2.jpg\"]","trial_type":"similarity","trial_index":9,"time_elapsed":75170,"internal_node_id":"0.0-6.0-3.0"},{"sim_score":6,"rt":4722,"stimulus":"[\"img/0868/4bd5105a-d2c3-4f82-8c80-57196106ba53.jpg\",\"img/0885/fce9f22a-f769-477c-acee-a5ad8214f0a5.jpg\"]","trial_type":"similarity","trial_index":10,"time_elapsed":80921,"internal_node_id":"0.0-6.0-4.0"},{"sim_score":6,"rt":3449,"stimulus":"[\"img/0757/92ed1ceb-29ef-4044-9601-78d7806e2396.jpg\",\"img/0866/23a224f3-2012-4fc8-8e0f-3c36f8de27fd.jpg\"]","trial_type":"similarity","trial_index":11,"time_elapsed":85410,"internal_node_id":"0.0-6.0-5.0"},{"sim_score":5,"rt":5711,"stimulus":"[\"img/0868/4a8a45ed-2c4f-421b-9564-409a33ecd26c.jpg\",\"img/0864/49150900-7f25-4ce8-8d10-9b47a71d1997.jpg\"]","trial_type":"similarity","trial_index":12,"time_elapsed":92146,"internal_node_id":"0.0-6.0-6.0"},{"sim_score":7,"rt":4018,"stimulus":"[\"img/0864/6f631579-acf1-415c-a42c-1207f62a8d99.jpg\",\"img/0864/9b2490c5-a282-400a-9736-e1a0ecbf1cb7.jpg\"]","trial_type":"similarity","trial_index":13,"time_elapsed":97202,"internal_node_id":"0.0-6.0-7.0"},{"sim_score":6,"rt":6132,"stimulus":"[\"img/0757/417763f8-6fe7-44f2-acaa-613a44f20835.jpg\",\"img/0881/dea58fad-b4f1-41d9-bd3f-916eff19a3fd.jpg\"]","trial_type":"similarity","trial_index":14,"time_elapsed":104354,"internal_node_id":"0.0-6.0-8.0"},{"sim_score":4,"rt":5666,"stimulus":"[\"img/0886/7164ac42-460f-4beb-9d5e-a1cfded3099c.jpg\",\"img/0760/c7d43bfd-465f-4f4e-8dc1-ae4cd3d2c1de.jpg\"]","trial_type":"similarity","trial_index":15,"time_elapsed":111049,"internal_node_id":"0.0-6.0-9.0"},{"sim_score":6,"rt":6672,"stimulus":"[\"img/0884/13db1f36-8c9f-4b28-8426-04eaa9fba737.jpg\",\"img/0883/0e1ed5c7-0881-4bfd-b12f-6a53500e74f0.jpg\"]","trial_type":"similarity","trial_index":16,"time_elapsed":118762,"internal_node_id":"0.0-6.0-10.0"},{"sim_score":5,"rt":3668,"stimulus":"[\"img/0874/85eb9b8a-c4c6-4e5a-b8e7-363a87a82054.jpg\",\"img/0862/e697469a-ec19-4414-b972-7b9f3564785b.jpg\"]","trial_type":"similarity","trial_index":17,"time_elapsed":123458,"internal_node_id":"0.0-6.0-11.0"},{"sim_score":4,"rt":5930,"stimulus":"[\"img/0862/ba89835a-408c-480b-8594-ed4ffa97eb5c.jpg\",\"img/0875/2c361b79-c3d1-4eda-812e-bf03192407bf.jpg\"]","trial_type":"similarity","trial_index":18,"time_elapsed":130418,"internal_node_id":"0.0-6.0-12.0"},{"sim_score":5,"rt":5588,"stimulus":"[\"img/0875/99698b4d-b4a1-44bc-8c83-8ea755bbbf61.jpg\",\"img/0757/b46cab21-50e3-4f19-803d-682627bcd6a6.jpg\"]","trial_type":"similarity","trial_index":19,"time_elapsed":137033,"internal_node_id":"0.0-6.0-13.0"},{"sim_score":4,"rt":3085,"stimulus":"[\"img/0875/ebf7653f-ff45-4e9f-af58-2c042ab3cd2b.jpg\",\"img/0860/61fb959d-d4d9-4de4-9e4e-4fa62b4cfcd5.jpg\"]","trial_type":"similarity","trial_index":20,"time_elapsed":141146,"internal_node_id":"0.0-6.0-14.0"},{"sim_score":4,"rt":2740,"stimulus":"[\"img/0860/fd4662f9-4c03-4d79-8593-06735e55a64b.jpg\",\"img/0881/f8bd891e-aa09-4782-89db-33e7cb2b0cf1.jpg\"]","trial_type":"similarity","trial_index":21,"time_elapsed":144930,"internal_node_id":"0.0-6.0-15.0"},{"sim_score":5,"rt":4111,"stimulus":"[\"img/0885/eb5e4557-1792-49c3-8871-16afa58f3a28.jpg\",\"img/0884/9b1b7885-1502-448f-9b20-ddc19aa5456f.jpg\"]","trial_type":"similarity","trial_index":22,"time_elapsed":150075,"internal_node_id":"0.0-6.0-16.0"},{"sim_score":7,"rt":3426,"stimulus":"[\"img/0761/07f8178b-8ce5-42d6-bca0-a0ae0e0e8eb3.jpg\",\"img/0761/6f9c1c71-e38d-4e3f-9062-39557812432a.jpg\"]","trial_type":"similarity","trial_index":23,"time_elapsed":154529,"internal_node_id":"0.0-6.0-17.0"},{"sim_score":5,"rt":4555,"stimulus":"[\"img/0760/e697857f-b21d-4c49-8cde-1b803b437311.jpg\",\"img/0864/da39ad34-04e0-40d4-a724-c08d53e0ea09.jpg\"]","trial_type":"similarity","trial_index":24,"time_elapsed":160107,"internal_node_id":"0.0-6.0-18.0"},{"sim_score":5,"rt":4148,"stimulus":"[\"img/0864/a248adb3-c70b-4652-b7a3-776d2a1e904b.jpg\",\"img/0875/fb732ab5-013a-4366-9f65-27811ed157e9.jpg\"]","trial_type":"similarity","trial_index":25,"time_elapsed":165289,"internal_node_id":"0.0-6.0-19.0"},{"sim_score":6,"rt":5602,"stimulus":"[\"img/0874/eba003b4-cdab-4eee-8bc3-f064c7d94165.jpg\",\"img/0884/05d9bfb9-44a6-4ab4-92fa-d17e5b2b4f33.jpg\"]","trial_type":"similarity","trial_index":26,"time_elapsed":171929,"internal_node_id":"0.0-6.0-20.0"},{"sim_score":5,"rt":5409,"stimulus":"[\"img/0885/f4ed5442-1f5c-4a69-abe6-8336ed11ec77.jpg\",\"img/0866/07c9c966-3c8d-40e7-8128-92b2acbaed5d.jpg\"]","trial_type":"similarity","trial_index":27,"time_elapsed":178361,"internal_node_id":"0.0-6.0-21.0"},{"sim_score":6,"rt":5415,"stimulus":"[\"img/0868/7b212364-ff5f-4e28-9241-7eb6ea00161b.jpg\",\"img/0868/09a9ef4d-d000-4cfa-a6aa-ebec7c2edeb4.jpg\"]","trial_type":"similarity","trial_index":28,"time_elapsed":184802,"internal_node_id":"0.0-6.0-22.0"},{"sim_score":4,"rt":4194,"stimulus":"[\"img/0757/cb7ca802-27ac-4a1d-996f-bd21b96d6244.jpg\",\"img/0756/85a63773-50ff-441d-b259-1e335100a9d0.jpg\"]","trial_type":"similarity","trial_index":29,"time_elapsed":190017,"internal_node_id":"0.0-6.0-23.0"},{"sim_score":7,"rt":3001,"stimulus":"[\"img/0875/e7e66b13-b573-431e-b85e-288ce04a35a3.jpg\",\"img/0875/cff79b3a-a797-4393-9757-6275f999ec04.jpg\"]","trial_type":"similarity","trial_index":30,"time_elapsed":194042,"internal_node_id":"0.0-6.0-24.0"},{"sim_score":6,"rt":7713,"stimulus":"[\"img/0761/b1819a20-de99-463b-9840-60a4b8faa30d.jpg\",\"img/0866/11a1d141-be5e-443c-98c1-a9d4d9e3dec0.jpg\"]","trial_type":"similarity","trial_index":31,"time_elapsed":202786,"internal_node_id":"0.0-6.0-25.0"},{"sim_score":6,"rt":5890,"stimulus":"[\"img/0866/c446214b-a368-4c65-ae39-ea46894256ab.jpg\",\"img/0758/e1ba5e53-addc-436a-b428-d34fc1b130dc.jpg\"]","trial_type":"similarity","trial_index":32,"time_elapsed":209698,"internal_node_id":"0.0-6.0-26.0"},{"sim_score":5,"rt":2837,"stimulus":"[\"img/0758/65d426d6-3ff6-415d-8654-a43b83ecc4fe.jpg\",\"img/0875/a4935837-7d3c-4df6-88c1-36a94d4991ca.jpg\"]","trial_type":"similarity","trial_index":33,"time_elapsed":213562,"internal_node_id":"0.0-6.0-27.0"},{"sim_score":5,"rt":4774,"stimulus":"[\"img/0958/4e2ca4bc-52c7-4c27-9610-776441231e42.jpg\",\"img/0757/4faaa503-45d9-43fa-bddb-707274a341ff.jpg\"]","trial_type":"similarity","trial_index":34,"time_elapsed":219354,"internal_node_id":"0.0-6.0-28.0"},{"sim_score":5,"rt":3918,"stimulus":"[\"img/0873/1d1be182-3bb2-4efd-8543-d70b8db7beef.jpg\",\"img/0883/387a9e30-7d95-483e-af34-c8262f62385f.jpg\"]","trial_type":"similarity","trial_index":35,"time_elapsed":224290,"internal_node_id":"0.0-6.0-29.0"},{"sim_score":5,"rt":3561,"stimulus":"[\"img/0868/c8ac40c7-6904-4e13-8d61-c75d3052dc4e.jpg\",\"img/0875/dbdd643e-6d0e-4a5c-ab57-b9c29b9c981a.jpg\"]","trial_type":"similarity","trial_index":36,"time_elapsed":228873,"internal_node_id":"0.0-6.0-30.0"},{"sim_score":4,"rt":2426,"stimulus":"[\"img/0884/10c0a35b-e20a-4d75-a7c0-959a578d9ebf.jpg\",\"img/0862/ee3b7bff-4a70-4e84-9bea-4a565e456acb.jpg\"]","trial_type":"similarity","trial_index":37,"time_elapsed":232329,"internal_node_id":"0.0-6.0-31.0"},{"sim_score":5,"rt":4395,"stimulus":"[\"img/0884/5085d424-b3f5-461b-a1c7-f7ca55abcf4f.jpg\",\"img/0864/0f537697-a314-47c3-a8cc-8df23b7e536c.jpg\"]","trial_type":"similarity","trial_index":38,"time_elapsed":237761,"internal_node_id":"0.0-6.0-32.0"},{"sim_score":5,"rt":4432,"stimulus":"[\"img/0883/b5e903b5-bc7f-421c-bf3e-245779ac90c9.jpg\",\"img/0958/1812c506-727b-43a7-882e-4729742e41fc.jpg\"]","trial_type":"similarity","trial_index":39,"time_elapsed":243225,"internal_node_id":"0.0-6.0-33.0"},{"sim_score":4,"rt":3238,"stimulus":"[\"img/0864/ef9cbca0-4be8-435d-ad49-977259e80409.jpg\",\"img/0756/8ab56efe-fef0-45cc-ab57-82597f83b26a.jpg\"]","trial_type":"similarity","trial_index":40,"time_elapsed":247497,"internal_node_id":"0.0-6.0-34.0"},{"sim_score":6,"rt":3687,"stimulus":"[\"img/0874/767f289c-9814-4496-803f-745cc8913d1f.jpg\",\"img/0758/2fa3e613-e676-4e6e-bd12-705327eeb3e1.jpg\"]","trial_type":"similarity","trial_index":41,"time_elapsed":252217,"internal_node_id":"0.0-6.0-35.0"},{"sim_score":4,"rt":3282,"stimulus":"[\"img/0886/4d28f75a-a9c3-49dd-8aa8-00304af6e40b.jpg\",\"img/0862/92f0146c-20c4-482e-aef5-adb693790338.jpg\"]","trial_type":"similarity","trial_index":42,"time_elapsed":256521,"internal_node_id":"0.0-6.0-36.0"},{"sim_score":4,"rt":3448,"stimulus":"[\"img/0862/e0f1a4e9-e1b6-45f7-af67-89f334e6630d.jpg\",\"img/0885/24afeefb-f7b3-4e8f-a5b9-17cc00fd22e3.jpg\"]","trial_type":"similarity","trial_index":43,"time_elapsed":261001,"internal_node_id":"0.0-6.0-37.0"},{"sim_score":6,"rt":5495,"stimulus":"[\"img/0758/821c68d3-5cb0-4eae-8659-30e6263fca39.jpg\",\"img/0864/c3b63e8f-ea39-4d70-a1f2-b3fe4be8eb75.jpg\"]","trial_type":"similarity","trial_index":44,"time_elapsed":267522,"internal_node_id":"0.0-6.0-38.0"},{"sim_score":6,"rt":4123,"stimulus":"[\"img/0873/b02f9cce-7f58-4f1b-baed-50fee9f0a21f.jpg\",\"img/0867/85a96c62-548f-4994-9553-819e03c3135a.jpg\"]","trial_type":"similarity","trial_index":45,"time_elapsed":272666,"internal_node_id":"0.0-6.0-39.0"},{"sim_score":5,"rt":5189,"stimulus":"[\"img/0958/d4138705-0a9d-4141-9af9-205e69367c44.jpg\",\"img/0884/2348ce3f-5d2a-4a04-85ef-a65f05caa935.jpg\"]","trial_type":"similarity","trial_index":46,"time_elapsed":278874,"internal_node_id":"0.0-6.0-40.0"},{"sim_score":6,"rt":4071,"stimulus":"[\"img/0873/b509aa81-b1d7-4d50-8aef-9c7b725c3157.jpg\",\"img/0873/87f38f18-48a2-4de3-b24b-70630e8b6ca0.jpg\"]","trial_type":"similarity","trial_index":47,"time_elapsed":289204,"internal_node_id":"0.0-6.0-41.0"},{"sim_score":4,"rt":2725,"stimulus":"[\"img/0886/e5903946-897c-4420-87c0-afee4100305c.jpg\",\"img/0758/6e95579b-5166-487c-b8cb-e417c6a218e3.jpg\"]","trial_type":"similarity","trial_index":48,"time_elapsed":292953,"internal_node_id":"0.0-6.0-42.0"},{"sim_score":5,"rt":5932,"stimulus":"[\"img/0883/29cba870-24df-4a0b-85cd-b680316ffe3d.jpg\",\"img/0874/a82926a3-0b43-4add-803c-d5f9ea7798ee.jpg\"]","trial_type":"similarity","trial_index":49,"time_elapsed":299913,"internal_node_id":"0.0-6.0-43.0"},{"sim_score":5,"rt":4812,"stimulus":"[\"img/0881/2a8413be-fec2-4de6-88ad-614dd4cccc9d.jpg\",\"img/0873/0d9b4403-7f26-46dc-b0b7-2b97b0a91b46.jpg\"]","trial_type":"similarity","trial_index":50,"time_elapsed":305753,"internal_node_id":"0.0-6.0-44.0"},{"sim_score":6,"rt":4590,"stimulus":"[\"img/0867/075e0f95-856b-4cbb-acf5-092393aaf04e.jpg\",\"img/0757/ec40956b-ed8b-4970-b87f-9b7c25cd5be6.jpg\"]","trial_type":"similarity","trial_index":51,"time_elapsed":311378,"internal_node_id":"0.0-6.0-45.0"},{"sim_score":6,"rt":5308,"stimulus":"[\"img/0866/02f5e6b9-52b7-448c-9708-5b460d0c9a23.jpg\",\"img/0874/c0378dac-9370-439a-8b79-db27c96fb390.jpg\"]","trial_type":"similarity","trial_index":52,"time_elapsed":317713,"internal_node_id":"0.0-6.0-46.0"},{"sim_score":7,"rt":3342,"stimulus":"[\"img/0886/48077111-b86b-4612-910f-90a5d168d77f.jpg\",\"img/0886/aef00ed5-e288-47bf-b31e-512d7e762ea2.jpg\"]","trial_type":"similarity","trial_index":53,"time_elapsed":322073,"internal_node_id":"0.0-6.0-47.0"},{"sim_score":4,"rt":2782,"stimulus":"[\"img/0883/c6db9b70-f16c-47ee-a408-c9278365ae54.jpg\",\"img/0860/524b2e98-5767-4d53-942c-ebae6925659b.jpg\"]","trial_type":"similarity","trial_index":54,"time_elapsed":325889,"internal_node_id":"0.0-6.0-48.0"},{"sim_score":4,"rt":1537,"stimulus":"[\"img/0860/31ff6436-98bf-4652-bed2-40f627229568.jpg\",\"img/0756/dbe25ae4-de3f-44b2-907f-6f2fc03ed1f0.jpg\"]","trial_type":"similarity","trial_index":55,"time_elapsed":328457,"internal_node_id":"0.0-6.0-49.0"},{"sim_score":4,"rt":1911,"stimulus":"[\"img/0860/8277806e-b684-4474-8f7b-3fca946d7d4f.jpg\",\"img/0757/443a1d16-5d59-4e77-a670-d6190157c319.jpg\"]","trial_type":"similarity","trial_index":56,"time_elapsed":331393,"internal_node_id":"0.0-6.0-50.0"},{"sim_score":7,"rt":3173,"stimulus":"[\"img/0756/6d2df7ce-35aa-4a5d-ab53-974d2c02034e.jpg\",\"img/0756/9a7a2119-24a3-431f-95e6-62f596bf88e2.jpg\"]","trial_type":"similarity","trial_index":57,"time_elapsed":335593,"internal_node_id":"0.0-6.0-51.0"},{"sim_score":6,"rt":5577,"stimulus":"[\"img/0875/34132396-d896-4c2d-8087-646dd867e769.jpg\",\"img/0866/d266fece-59b3-46fa-b69f-96f6efb81b59.jpg\"]","trial_type":"similarity","trial_index":58,"time_elapsed":342193,"internal_node_id":"0.0-6.0-52.0"},{"sim_score":5,"rt":4903,"stimulus":"[\"img/0756/c7199ce2-2203-43c6-90d7-78f77277b522.jpg\",\"img/0758/6cd8c362-ae2a-41eb-80a3-3a4f7ace1530.jpg\"]","trial_type":"similarity","trial_index":59,"time_elapsed":348130,"internal_node_id":"0.0-6.0-53.0"},{"sim_score":5,"rt":4598,"stimulus":"[\"img/0761/71d2e184-21b4-4711-97f3-e381c641da2c.jpg\",\"img/0884/e275ab3e-0948-43c3-8be7-a75271922185.jpg\"]","trial_type":"similarity","trial_index":60,"time_elapsed":353770,"internal_node_id":"0.0-6.0-54.0"},{"sim_score":5,"rt":2686,"stimulus":"[\"img/0760/d87ebbb0-e718-4ab1-8882-e48253d6fd00.jpg\",\"img/0867/c66898ba-b71b-4d50-84f9-f7f84853a98d.jpg\"]","trial_type":"similarity","trial_index":61,"time_elapsed":357481,"internal_node_id":"0.0-6.0-55.0"},{"sim_score":5,"rt":4487,"stimulus":"[\"img/0866/6f2a90d7-14f1-4f1b-bd64-fc0af6b9fe44.jpg\",\"img/0884/a8f7b854-0010-4c7a-a8fb-b1b1dc1f1ba1.jpg\"]","trial_type":"similarity","trial_index":62,"time_elapsed":363001,"internal_node_id":"0.0-6.0-56.0"},{"sim_score":4,"rt":3158,"stimulus":"[\"img/0756/403d0540-b812-446f-bb5a-e8030be0a02f.jpg\",\"img/0761/53a65b48-8b0c-4a1d-9ebb-a27a259c5bc6.jpg\"]","trial_type":"similarity","trial_index":63,"time_elapsed":367194,"internal_node_id":"0.0-6.0-57.0"},{"sim_score":4,"rt":2812,"stimulus":"[\"img/0867/50a1b60e-3a29-44bf-b606-d4bd3746fea9.jpg\",\"img/0860/f44ba3fb-03a2-42f0-8509-2c1ded493086.jpg\"]","trial_type":"similarity","trial_index":64,"time_elapsed":371033,"internal_node_id":"0.0-6.0-58.0"},{"sim_score":7,"rt":5190,"stimulus":"[\"img/0881/c24f3051-eefa-42de-aba6-fccb56d93c70.jpg\",\"img/0758/e38fd80d-18d0-42f3-b848-f930788e8bd7.jpg\"]","trial_type":"similarity","trial_index":65,"time_elapsed":377249,"internal_node_id":"0.0-6.0-59.0"},{"sim_score":5,"rt":5899,"stimulus":"[\"img/0761/af21c992-a721-45fb-bee7-f50c0f676c30.jpg\",\"img/0758/7ffbc76b-1fc1-432c-8f7e-9ec8d1b3f643.jpg\"]","trial_type":"similarity","trial_index":66,"time_elapsed":384177,"internal_node_id":"0.0-6.0-60.0"},{"sim_score":4,"rt":4284,"stimulus":"[\"img/0958/b11515b3-5f04-4c3e-be00-56a05c6c3e96.jpg\",\"img/0875/42910c99-5463-450a-a0f8-d4d060a11455.jpg\"]","trial_type":"similarity","trial_index":67,"time_elapsed":389482,"internal_node_id":"0.0-6.0-61.0"},{"sim_score":3,"rt":4012,"stimulus":"[\"img/0886/d1e40478-2fe0-404f-8409-920da98a96a2.jpg\",\"img/0864/8ddd2e30-a1d0-479f-9cbe-591213023893.jpg\"]","trial_type":"similarity","trial_index":68,"time_elapsed":394529,"internal_node_id":"0.0-6.0-62.0"},{"sim_score":4,"rt":4974,"stimulus":"[\"img/0756/350ac166-1deb-4399-89db-da6a7e827c4d.jpg\",\"img/0874/2c9464dd-8a23-4baa-ac94-1ba3af5c15cc.jpg\"]","trial_type":"similarity","trial_index":69,"time_elapsed":400529,"internal_node_id":"0.0-6.0-63.0"},{"sim_score":5,"rt":3762,"stimulus":"[\"img/0758/dd559618-7f09-4a07-8018-d311c4a5ea29.jpg\",\"img/0885/a4e5c564-1e5f-4fed-9f73-b8d1becf62b6.jpg\"]","trial_type":"similarity","trial_index":70,"time_elapsed":405313,"internal_node_id":"0.0-6.0-64.0"},{"sim_score":5,"rt":3911,"stimulus":"[\"img/0760/4f024637-f98a-409a-baa0-fc4989d80667.jpg\",\"img/0958/ef1b718f-ef8c-497f-80d7-42562aebf1a7.jpg\"]","trial_type":"similarity","trial_index":71,"time_elapsed":410250,"internal_node_id":"0.0-6.0-65.0"},{"sim_score":4,"rt":4340,"stimulus":"[\"img/0884/989ec8e3-5e41-4055-b0b5-3d65b9c44917.jpg\",\"img/0881/db77fe00-aeb0-4d1d-aa66-f3a96fd077e4.jpg\"]","trial_type":"similarity","trial_index":72,"time_elapsed":415618,"internal_node_id":"0.0-6.0-66.0"},{"sim_score":4,"rt":4489,"stimulus":"[\"img/0864/e336a4c5-6648-4fd7-b2f6-93a3fb83f8c6.jpg\",\"img/0873/a234d5d1-09ea-4594-9a0f-d569da31dbdb.jpg\"]","trial_type":"similarity","trial_index":73,"time_elapsed":421130,"internal_node_id":"0.0-6.0-67.0"},{"sim_score":4,"rt":2656,"stimulus":"[\"img/0862/57b6f83f-c763-4858-830d-102f97bfefbf.jpg\",\"img/0758/f61ecdf8-a7d4-4db0-b84d-be46f7cfaffc.jpg\"]","trial_type":"similarity","trial_index":74,"time_elapsed":424809,"internal_node_id":"0.0-6.0-68.0"},{"sim_score":7,"rt":4744,"stimulus":"[\"img/0757/424b465f-ba69-4277-bc61-d3e95d136f80.jpg\",\"img/0757/6ecf2f24-3286-49d6-b5ed-bb2da660c588.jpg\"]","trial_type":"similarity","trial_index":75,"time_elapsed":430594,"internal_node_id":"0.0-6.0-69.0"},{"sim_score":6,"rt":3814,"stimulus":"[\"img/0860/94ef7afc-e0e6-4a15-98c6-0bfac82bc832.jpg\",\"img/0862/7918ca67-5bd3-4606-a5ea-c39fb11a9297.jpg\"]","trial_type":"similarity","trial_index":76,"time_elapsed":435434,"internal_node_id":"0.0-6.0-70.0"},{"sim_score":5,"rt":3864,"stimulus":"[\"img/0860/c47fdead-eb02-4989-b078-26f4852f44fe.jpg\",\"img/0884/a416b0d1-f903-4935-b89f-99c29683752b.jpg\"]","trial_type":"similarity","trial_index":77,"time_elapsed":440337,"internal_node_id":"0.0-6.0-71.0"},{"sim_score":5,"rt":3939,"stimulus":"[\"img/0883/68a56098-91b8-4c40-8827-7808704aa1bc.jpg\",\"img/0866/4a87911a-d5be-4d4e-ab8e-3d1f581bf507.jpg\"]","trial_type":"similarity","trial_index":78,"time_elapsed":445305,"internal_node_id":"0.0-6.0-72.0"},{"sim_score":5,"rt":5509,"stimulus":"[\"img/0866/be24ab58-230e-4db8-9f45-ff04c9aec6bb.jpg\",\"img/0886/42cccc64-05f9-4afd-bc93-496ba50a4342.jpg\"]","trial_type":"similarity","trial_index":79,"time_elapsed":451833,"internal_node_id":"0.0-6.0-73.0"},{"sim_score":5,"rt":4710,"stimulus":"[\"img/0958/ba5ed153-96de-4f61-b7d9-87a478c8972c.jpg\",\"img/0761/5ed865c0-8bfb-4310-9b47-690b3e450ca2.jpg\"]","trial_type":"similarity","trial_index":80,"time_elapsed":457585,"internal_node_id":"0.0-6.0-74.0"},{"sim_score":4,"rt":5243,"stimulus":"[\"img/0875/d59ff733-eaff-4ee2-9443-06954dd0bcb6.jpg\",\"img/0756/00b775eb-fe41-49b2-92e9-a9955cf1042b.jpg\"]","trial_type":"similarity","trial_index":81,"time_elapsed":463857,"internal_node_id":"0.0-6.0-75.0"},{"sim_score":5,"rt":5812,"stimulus":"[\"img/0958/54f27d86-00c0-46b2-b2c9-050c9cc60fe0.jpg\",\"img/0885/8960bf05-34df-4a86-a9b2-6087c70e61d3.jpg\"]","trial_type":"similarity","trial_index":82,"time_elapsed":470697,"internal_node_id":"0.0-6.0-76.0"},{"sim_score":5,"rt":6296,"stimulus":"[\"img/0868/0d3abd3a-b6c3-4584-a9f7-e2da63748b3d.jpg\",\"img/0883/df1c6d22-bb1b-4eed-b4fe-eb5e46deacd4.jpg\"]","trial_type":"similarity","trial_index":83,"time_elapsed":478025,"internal_node_id":"0.0-6.0-77.0"},{"sim_score":5,"rt":5173,"stimulus":"[\"img/0862/f188d4f0-76a4-4102-818c-a209969d73a5.jpg\",\"img/0760/111aecf1-147c-4227-90e0-9ed3a75e4e16.jpg\"]","trial_type":"similarity","trial_index":84,"time_elapsed":484225,"internal_node_id":"0.0-6.0-78.0"},{"sim_score":5,"rt":3398,"stimulus":"[\"img/0885/1e66fe61-15d5-42b1-86aa-dbfd13613f5c.jpg\",\"img/0761/ff3e024b-951d-4aca-a168-c09c6507525d.jpg\"]","trial_type":"similarity","trial_index":85,"time_elapsed":488649,"internal_node_id":"0.0-6.0-79.0"},{"sim_score":6,"rt":4321,"stimulus":"[\"img/0862/ad593cc7-cabe-4bb7-8e14-8a447a0717b4.jpg\",\"img/0864/300bb811-8b3c-4c42-8653-6097c3725197.jpg\"]","trial_type":"similarity","trial_index":86,"time_elapsed":493993,"internal_node_id":"0.0-6.0-80.0"},{"sim_score":7,"rt":3374,"stimulus":"[\"img/0758/335851a0-a55b-46d8-ab05-8463eda48349.jpg\",\"img/0758/d57c2592-a317-4f63-91be-91a3a9afd222.jpg\"]","trial_type":"similarity","trial_index":87,"time_elapsed":498401,"internal_node_id":"0.0-6.0-81.0"},{"sim_score":3,"rt":4232,"stimulus":"[\"img/0862/eefa5588-9efd-4591-aa5f-a2e17c7d7bcc.jpg\",\"img/0873/33552b07-bdb8-423e-88b4-25a37f159c6d.jpg\"]","trial_type":"similarity","trial_index":88,"time_elapsed":503658,"internal_node_id":"0.0-6.0-82.0"},{"sim_score":5,"rt":4300,"stimulus":"[\"img/0760/cbd28974-989a-49dd-b631-42de146d7e6f.jpg\",\"img/0757/86df581e-81a2-4205-95e3-1ea87cea1f36.jpg\"]","trial_type":"similarity","trial_index":89,"time_elapsed":510408,"internal_node_id":"0.0-6.0-83.0"},{"sim_score":6,"rt":5133,"stimulus":"[\"img/0867/f26f6b60-f772-4f4c-95a4-addc62cfd692.jpg\",\"img/0881/e046471a-35b4-4159-bbf7-3cfd201bef66.jpg\"]","trial_type":"similarity","trial_index":90,"time_elapsed":516561,"internal_node_id":"0.0-6.0-84.0"},{"sim_score":4,"rt":3761,"stimulus":"[\"img/0885/a8cbb477-19ef-45ef-8f48-9667aec40bd1.jpg\",\"img/0886/c6c81122-f4bf-46f4-968b-167f8ed0cab3.jpg\"]","trial_type":"similarity","trial_index":91,"time_elapsed":521346,"internal_node_id":"0.0-6.0-85.0"},{"sim_score":5,"rt":3806,"stimulus":"[\"img/0866/93a27239-8317-4e08-98ca-d8b1ff298e07.jpg\",\"img/0864/1ebbc554-99fa-49f9-8799-317375a79820.jpg\"]","trial_type":"similarity","trial_index":92,"time_elapsed":526185,"internal_node_id":"0.0-6.0-86.0"},{"sim_score":5,"rt":4590,"stimulus":"[\"img/0874/99f6563c-8a8d-4c1c-a41d-667b618c3fd5.jpg\",\"img/0881/c843e210-bdfe-4a7c-8bbe-fcea1f90fe1c.jpg\"]","trial_type":"similarity","trial_index":93,"time_elapsed":531801,"internal_node_id":"0.0-6.0-87.0"},{"sim_score":5,"rt":3721,"stimulus":"[\"img/0866/9b38d691-1802-4959-ab3f-fc902f0e4ea6.jpg\",\"img/0760/afe7a178-4458-4bdd-a0ad-0cffc57eadc3.jpg\"]","trial_type":"similarity","trial_index":94,"time_elapsed":536545,"internal_node_id":"0.0-6.0-88.0"},{"sim_score":5,"rt":2958,"stimulus":"[\"img/0867/7d1c497b-c1b3-4ed8-abb5-d7f73306015f.jpg\",\"img/0884/3613aeb4-0028-4205-aea0-1ea28cb1f80e.jpg\"]","trial_type":"similarity","trial_index":95,"time_elapsed":540538,"internal_node_id":"0.0-6.0-89.0"},{"sim_score":4,"rt":2278,"stimulus":"[\"img/0757/e2cf79e3-9d9f-49eb-a09d-0028ca21d242.jpg\",\"img/0862/a0a3a7ba-7798-46a3-b4ca-05e1f6e581d0.jpg\"]","trial_type":"similarity","trial_index":96,"time_elapsed":543849,"internal_node_id":"0.0-6.0-90.0"},{"sim_score":5,"rt":2971,"stimulus":"[\"img/0867/a749dddb-69f0-44a6-acdc-2bf295cf6dcc.jpg\",\"img/0761/a74c99e4-d9ed-42cd-9e83-8d525cb6a9a2.jpg\"]","trial_type":"similarity","trial_index":97,"time_elapsed":547833,"internal_node_id":"0.0-6.0-91.0"},{"sim_score":5,"rt":3598,"stimulus":"[\"img/0868/77091fc7-a590-4ebb-b915-fdb2483a2399.jpg\",\"img/0958/acbadc39-e665-446d-b98f-ccd0ef3223d6.jpg\"]","trial_type":"similarity","trial_index":98,"time_elapsed":552457,"internal_node_id":"0.0-6.0-92.0"},{"sim_score":5,"rt":4431,"stimulus":"[\"img/0874/29830da7-be5f-44e5-b141-652a0ccf7269.jpg\",\"img/0864/87c467d3-abca-482f-ad80-3766c21b1bb3.jpg\"]","trial_type":"similarity","trial_index":99,"time_elapsed":557922,"internal_node_id":"0.0-6.0-93.0"},{"sim_score":5,"rt":2958,"stimulus":"[\"img/0760/7cdb34e4-0556-4bf7-9a6f-05990a92e0f3.jpg\",\"img/0873/c4b47588-9c66-4401-aefc-cf9481d5fa85.jpg\"]","trial_type":"similarity","trial_index":100,"time_elapsed":561921,"internal_node_id":"0.0-6.0-94.0"},{"sim_score":4,"rt":4864,"stimulus":"[\"img/0868/d6d1f30d-4323-435a-b194-7892521bc57e.jpg\",\"img/0873/b1e2e09f-ad9a-433e-818f-56dd2f1cb09c.jpg\"]","trial_type":"similarity","trial_index":101,"time_elapsed":567817,"internal_node_id":"0.0-6.0-95.0"},{"sim_score":4,"rt":1645,"stimulus":"[\"img/0860/87039971-2210-4aab-93c0-8e9b5f1655b2.jpg\",\"img/0761/00a8e7ae-d8da-4cba-8969-1dfb943a2aa2.jpg\"]","trial_type":"similarity","trial_index":102,"time_elapsed":570492,"internal_node_id":"0.0-6.0-96.0"},{"sim_score":4,"rt":1407,"stimulus":"[\"img/0862/847e5208-38ec-4f36-949c-296cdd7424ee.jpg\",\"img/0883/6884954b-873e-4d6f-9b4b-95d158e0de6c.jpg\"]","trial_type":"similarity","trial_index":103,"time_elapsed":572938,"internal_node_id":"0.0-6.0-97.0"},{"sim_score":5,"rt":4592,"stimulus":"[\"img/0757/2f6a36b2-6543-4003-bcb9-6f2c61db2de8.jpg\",\"img/0884/fb8b0101-bfd2-462b-a942-d3202a69dd18.jpg\"]","trial_type":"similarity","trial_index":104,"time_elapsed":578561,"internal_node_id":"0.0-6.0-98.0"},{"sim_score":4,"rt":3723,"stimulus":"[\"img/0867/f8488a47-94ee-4166-952c-44e16cf172f6.jpg\",\"img/0756/321ae2a8-5dd4-4b23-b1e4-202e0b7c0b02.jpg\"]","trial_type":"similarity","trial_index":105,"time_elapsed":583313,"internal_node_id":"0.0-6.0-99.0"},{"sim_score":3,"rt":4629,"stimulus":"[\"img/0958/5a91b0e8-8f60-4625-b88c-d6e55b4d7d93.jpg\",\"img/0756/8d47d83d-7e73-4d35-94ec-d814380febc6.jpg\"]","trial_type":"similarity","trial_index":106,"time_elapsed":588977,"internal_node_id":"0.0-6.0-100.0"},{"sim_score":7,"rt":2757,"stimulus":"[\"img/0760/135d76ab-2bf3-4dc9-8509-92983dc9893d.jpg\",\"img/0760/dddcdfaf-2d02-4de9-a176-5705d0004b5a.jpg\"]","trial_type":"similarity","trial_index":107,"time_elapsed":592753,"internal_node_id":"0.0-6.0-101.0"},{"sim_score":5,"rt":4178,"stimulus":"[\"img/0873/ac86dbfd-0442-4dec-9d10-37d7093f5a52.jpg\",\"img/0875/5a716432-c6ca-4b1c-955a-2b8ac25198ee.jpg\"]","trial_type":"similarity","trial_index":108,"time_elapsed":597954,"internal_node_id":"0.0-6.0-102.0"},{"sim_score":4,"rt":5616,"stimulus":"[\"img/0884/ee845634-cd54-4c06-95a9-962122ef8712.jpg\",\"img/0884/592da15b-09e4-46b5-81e7-bab08a1c33e9.jpg\"]","trial_type":"similarity","trial_index":109,"time_elapsed":604601,"internal_node_id":"0.0-6.0-103.0"},{"sim_score":6,"rt":3758,"stimulus":"[\"img/0873/e5374873-a1a7-4689-a04c-a3b959992244.jpg\",\"img/0885/ef0386f3-e5d4-481b-8894-60b80e08bbe8.jpg\"]","trial_type":"similarity","trial_index":110,"time_elapsed":609401,"internal_node_id":"0.0-6.0-104.0"},{"sim_score":5,"rt":2862,"stimulus":"[\"img/0883/6dcd54c3-64a3-4ed5-9149-d8b9aa1938c8.jpg\",\"img/0875/8521fd58-3b1e-4dc5-97ae-804edfa6734a.jpg\"]","trial_type":"similarity","trial_index":111,"time_elapsed":613281,"internal_node_id":"0.0-6.0-105.0"},{"sim_score":5,"rt":2635,"stimulus":"[\"img/0864/1d15626a-2f7c-410f-819c-0fa2c967e95e.jpg\",\"img/0867/c71dc569-f49c-4397-8381-68b8d726736d.jpg\"]","trial_type":"similarity","trial_index":112,"time_elapsed":616953,"internal_node_id":"0.0-6.0-106.0"},{"sim_score":4,"rt":5101,"stimulus":"[\"img/0958/fd950403-e452-4018-8207-a9714addcd75.jpg\",\"img/0860/e8b8c51e-1834-4875-8b61-6c5bc9b178bd.jpg\"]","trial_type":"similarity","trial_index":113,"time_elapsed":623081,"internal_node_id":"0.0-6.0-107.0"},{"sim_score":4,"rt":3495,"stimulus":"[\"img/0885/517a9189-9623-4ed7-a37e-48788791e028.jpg\",\"img/0756/b8d6aa83-8673-4e0d-be72-b3da2bae7a6d.jpg\"]","trial_type":"similarity","trial_index":114,"time_elapsed":627651,"internal_node_id":"0.0-6.0-108.0"},{"sim_score":5,"rt":5952,"stimulus":"[\"img/0883/599aacc5-bb0f-4dea-852c-9a27727eb0b9.jpg\",\"img/0885/62bd11a8-7059-4cc2-b06d-4700688b313f.jpg\"]","trial_type":"similarity","trial_index":115,"time_elapsed":634626,"internal_node_id":"0.0-6.0-109.0"},{"sim_score":7,"rt":5124,"stimulus":"[\"img/0867/179ab87a-8eac-4c52-a41f-2e48e3120f09.jpg\",\"img/0867/98d8cd96-1476-4fe0-a3a3-04f875500a1b.jpg\"]","trial_type":"similarity","trial_index":116,"time_elapsed":640777,"internal_node_id":"0.0-6.0-110.0"},{"sim_score":5,"rt":3943,"stimulus":"[\"img/0881/405484ae-0d00-4b05-bc57-6420a36adfac.jpg\",\"img/0760/868ae139-99b5-4ff2-9d19-c4933af135e4.jpg\"]","trial_type":"similarity","trial_index":117,"time_elapsed":645753,"internal_node_id":"0.0-6.0-111.0"},{"sim_score":5,"rt":3967,"stimulus":"[\"img/0881/e6746727-7f89-47ec-b939-d98abe78372d.jpg\",\"img/0868/5fa7f9d0-f0e5-454c-8224-74d964818f56.jpg\"]","trial_type":"similarity","trial_index":118,"time_elapsed":650746,"internal_node_id":"0.0-6.0-112.0"},{"sim_score":5,"rt":5465,"stimulus":"[\"img/0875/90da8d75-108a-44ad-b999-e21fee3860d3.jpg\",\"img/0761/176fde97-0334-4d2b-8a7a-38960c2528f3.jpg\"]","trial_type":"similarity","trial_index":119,"time_elapsed":657249,"internal_node_id":"0.0-6.0-113.0"},{"sim_score":4,"rt":3971,"stimulus":"[\"img/0756/7a68b61c-212a-4f14-8b6f-4d74b6cd206e.jpg\",\"img/0866/0207e9a2-7dbb-40b5-9459-b472aaeceb2a.jpg\"]","trial_type":"similarity","trial_index":120,"time_elapsed":662250,"internal_node_id":"0.0-6.0-114.0"},{"sim_score":3,"rt":3443,"stimulus":"[\"img/0884/d9185264-7f01-43b2-be7f-eed1a0f0f2e8.jpg\",\"img/0886/0f9715c1-b2e4-418e-bf9b-126cc9e70dc6.jpg\"]","trial_type":"similarity","trial_index":121,"time_elapsed":666713,"internal_node_id":"0.0-6.0-115.0"},{"sim_score":3,"rt":3834,"stimulus":"[\"img/0756/04655068-a9fc-49d9-b2f4-21e4d42b7903.jpg\",\"img/0881/54ea8e77-c7e5-4197-b7fa-00b7020849a7.jpg\"]","trial_type":"similarity","trial_index":122,"time_elapsed":671586,"internal_node_id":"0.0-6.0-116.0"},{"sim_score":5,"rt":3571,"stimulus":"[\"img/0760/a24659cd-f862-42cc-b43a-7ba8eae0c2c0.jpg\",\"img/0875/5a1e5100-0d94-4fec-bbe9-ca9894d2cf8e.jpg\"]","trial_type":"similarity","trial_index":123,"time_elapsed":676193,"internal_node_id":"0.0-6.0-117.0"},{"sim_score":6,"rt":3334,"stimulus":"[\"img/0958/eea2b7ca-1c37-4e76-ada7-a8b1f3afdc01.jpg\",\"img/0866/620cd1aa-0800-4414-8f6e-90342e7a99ad.jpg\"]","trial_type":"similarity","trial_index":124,"time_elapsed":680553,"internal_node_id":"0.0-6.0-118.0"},{"sim_score":6,"rt":4429,"stimulus":"[\"img/0867/cc72ed48-7704-422c-86d6-467a1145287a.jpg\",\"img/0874/adf9a8f1-c40b-402b-b95b-1e85a54a7b62.jpg\"]","trial_type":"similarity","trial_index":125,"time_elapsed":686017,"internal_node_id":"0.0-6.0-119.0"},{"sim_score":6,"rt":5160,"stimulus":"[\"img/0883/3b1366c6-7baa-4ad2-889c-1ff9c3b379c9.jpg\",\"img/0757/1fd9dcb9-e489-4708-b518-f356d3f5481d.jpg\"]","trial_type":"similarity","trial_index":126,"time_elapsed":692201,"internal_node_id":"0.0-6.0-120.0"},{"sim_score":3,"rt":3432,"stimulus":"[\"img/0874/93d1f8dc-acf2-4f03-bd8d-8ec35df276ed.jpg\",\"img/0886/9b0bffbe-9237-404d-a0ba-a1982e0814c7.jpg\"]","trial_type":"similarity","trial_index":127,"time_elapsed":696674,"internal_node_id":"0.0-6.0-121.0"},{"sim_score":6,"rt":5713,"stimulus":"[\"img/0873/7dddc95f-ca6e-4d15-99a0-0e329ec6888e.jpg\",\"img/0761/e34f97e4-14ac-4bb6-b226-816085d967c2.jpg\"]","trial_type":"similarity","trial_index":128,"time_elapsed":703417,"internal_node_id":"0.0-6.0-122.0"},{"sim_score":5,"rt":4328,"stimulus":"[\"img/0875/3ecb367d-e9eb-4826-8aaa-7aa72fb98019.jpg\",\"img/0884/7f9cc898-36bc-49ec-8b1a-01065d9c0062.jpg\"]","trial_type":"similarity","trial_index":129,"time_elapsed":708777,"internal_node_id":"0.0-6.0-123.0"},{"sim_score":6,"rt":3778,"stimulus":"[\"img/0757/014ee4a8-8069-4b08-ac1c-04230da90244.jpg\",\"img/0868/83b4350a-3b70-4cea-b7f5-b5b56f3050a8.jpg\"]","trial_type":"similarity","trial_index":130,"time_elapsed":713593,"internal_node_id":"0.0-6.0-124.0"},{"sim_score":3,"rt":3754,"stimulus":"[\"img/0886/abd8dd83-d8ee-4003-b4d2-b4045220a578.jpg\",\"img/0883/daaa1a6f-c322-46f6-b6a6-db2c9496d710.jpg\"]","trial_type":"similarity","trial_index":131,"time_elapsed":719744,"internal_node_id":"0.0-6.0-125.0"},{"sim_score":4,"rt":7141,"stimulus":"[\"img/0868/fd307a36-9a3a-47d7-ab7c-f810d0b35040.jpg\",\"img/0760/9daf8012-19c4-498f-8f51-81ec001a83be.jpg\"]","trial_type":"similarity","trial_index":132,"time_elapsed":727913,"internal_node_id":"0.0-6.0-126.0"},{"sim_score":7,"rt":2879,"stimulus":"[\"img/0881/7e822106-76f7-4b10-a805-14dc68b2cfaf.jpg\",\"img/0881/44e09805-5a25-4f17-a716-4ad4a331b174.jpg\"]","trial_type":"similarity","trial_index":133,"time_elapsed":731809,"internal_node_id":"0.0-6.0-127.0"},{"sim_score":5,"rt":3001,"stimulus":"[\"img/0760/812c848f-be21-4059-abe5-8c4f4ac9ad0f.jpg\",\"img/0860/e14d67c1-6d92-4f1e-9257-c8607159c19c.jpg\"]","trial_type":"similarity","trial_index":134,"time_elapsed":735841,"internal_node_id":"0.0-6.0-128.0"},{"sim_score":3,"rt":2899,"stimulus":"[\"img/0864/5f74a653-3bdc-4308-8cca-ac667dc22e1f.jpg\",\"img/0885/5225e532-2812-41d9-8ef0-0fbfc612784e.jpg\"]","trial_type":"similarity","trial_index":135,"time_elapsed":739778,"internal_node_id":"0.0-6.0-129.0"},{"sim_score":5,"rt":2785,"stimulus":"[\"img/0864/afcba0a3-7e27-4757-b254-e9f05fad27e2.jpg\",\"img/0757/cd7fd185-981f-477a-ba00-a0f65bcfd0e9.jpg\"]","trial_type":"similarity","trial_index":136,"time_elapsed":743593,"internal_node_id":"0.0-6.0-130.0"},{"sim_score":7,"rt":5580,"stimulus":"[\"img/0760/fe62dd62-331c-4317-8af2-f1c816871fee.jpg\",\"img/0883/724f020e-39d9-495c-abe1-b2e4504be9bc.jpg\"]","trial_type":"similarity","trial_index":137,"time_elapsed":750201,"internal_node_id":"0.0-6.0-131.0"},{"sim_score":7,"rt":3712,"stimulus":"[\"img/0885/21b241a1-95da-4306-9cf2-cc52a784214a.jpg\",\"img/0885/4fd0aafb-6cc0-43d6-993a-c55a6e18a7ba.jpg\"]","trial_type":"similarity","trial_index":138,"time_elapsed":754961,"internal_node_id":"0.0-6.0-132.0"},{"sim_score":5,"rt":3017,"stimulus":"[\"img/0860/15b24a61-25be-4356-9eac-5ce95d0cb4a4.jpg\",\"img/0868/6a28c3b0-3d76-498a-9fb7-ddafc665eca8.jpg\"]","trial_type":"similarity","trial_index":139,"time_elapsed":759002,"internal_node_id":"0.0-6.0-133.0"},{"sim_score":3,"rt":3043,"stimulus":"[\"img/0867/6e19c858-b606-45b2-a4c6-910a73f1d82c.jpg\",\"img/0886/b8648eb5-de71-41ab-825d-848e51be8c1b.jpg\"]","trial_type":"similarity","trial_index":140,"time_elapsed":763066,"internal_node_id":"0.0-6.0-134.0"},{"sim_score":3,"rt":2768,"stimulus":"[\"img/0756/76d2b9c0-998f-48ad-95fe-3c317a6c74c0.jpg\",\"img/0886/9ac18ff1-d3d9-4bfe-aa2e-ed5b28399f6c.jpg\"]","trial_type":"similarity","trial_index":141,"time_elapsed":766858,"internal_node_id":"0.0-6.0-135.0"},{"sim_score":5,"rt":3438,"stimulus":"[\"img/0884/a6389ab4-3291-4434-9b91-eeae3b04fce4.jpg\",\"img/0868/15dd6fd7-791e-4b53-b203-195d617521a4.jpg\"]","trial_type":"similarity","trial_index":142,"time_elapsed":771313,"internal_node_id":"0.0-6.0-136.0"},{"sim_score":7,"rt":3952,"stimulus":"[\"img/0958/58b7811e-d3f6-4e4d-befb-86e063d13a43.jpg\",\"img/0958/6e602e13-8029-4642-bce0-8deffd0dc686.jpg\"]","trial_type":"similarity","trial_index":143,"time_elapsed":776305,"internal_node_id":"0.0-6.0-137.0"},{"sim_score":3,"rt":3029,"stimulus":"[\"img/0886/1870a791-dfee-471e-8417-197d4a53c75a.jpg\",\"img/0873/6110910a-7895-4b6a-af51-12486a4595a3.jpg\"]","trial_type":"similarity","trial_index":144,"time_elapsed":780372,"internal_node_id":"0.0-6.0-138.0"},{"sim_score":5,"rt":3285,"stimulus":"[\"img/0758/53f35650-e455-4b53-8be4-c3c8271c6466.jpg\",\"img/0873/841d6549-01d2-4ebd-8d67-25d219876178.jpg\"]","trial_type":"similarity","trial_index":145,"time_elapsed":784689,"internal_node_id":"0.0-6.0-139.0"},{"sim_score":4,"rt":3927,"stimulus":"[\"img/0873/90b702a6-3dba-446a-9bba-a2ee096baf49.jpg\",\"img/0756/09fde3d3-27c5-435e-b68f-5410beb04e99.jpg\"]","trial_type":"similarity","trial_index":146,"time_elapsed":789649,"internal_node_id":"0.0-6.0-140.0"},{"sim_score":4,"rt":1753,"stimulus":"[\"img/0868/4e626425-63c8-484a-8a1d-e66ee4e0bef8.jpg\",\"img/0862/fb26cb07-d5a9-4653-813c-f41609f26cd5.jpg\"]","trial_type":"similarity","trial_index":147,"time_elapsed":792434,"internal_node_id":"0.0-6.0-141.0"},{"sim_score":4,"rt":1743,"stimulus":"[\"img/0881/f62bdcd1-a4b7-4d48-83da-d9c9e01c8727.jpg\",\"img/0862/fad1d7c1-8187-43c3-942a-0fc12183e48e.jpg\"]","trial_type":"similarity","trial_index":148,"time_elapsed":795209,"internal_node_id":"0.0-6.0-142.0"},{"sim_score":5,"rt":2588,"stimulus":"[\"img/0885/89d8c48b-8bde-42ed-ae71-de669b15ea34.jpg\",\"img/0867/db7e032f-162b-46f5-ae67-2b29679adee4.jpg\"]","trial_type":"similarity","trial_index":149,"time_elapsed":798826,"internal_node_id":"0.0-6.0-143.0"},{"sim_score":7,"rt":7103,"stimulus":"[\"img/0883/512a797a-315b-439e-9a9d-855929351fd0.jpg\",\"img/0883/02f50df0-eb8c-4e17-836a-c89ddb1c04e1.jpg\"]","trial_type":"similarity","trial_index":150,"time_elapsed":806969,"internal_node_id":"0.0-6.0-144.0"},{"sim_score":5,"rt":4359,"stimulus":"[\"img/0874/a3bc679d-619f-4db6-bb68-116dcb757d9c.jpg\",\"img/0873/d74e4aa9-420d-48a3-a42f-30a3481536ae.jpg\"]","trial_type":"similarity","trial_index":151,"time_elapsed":812369,"internal_node_id":"0.0-6.0-145.0"},{"sim_score":5,"rt":2886,"stimulus":"[\"img/0757/94c7f207-1115-4451-b22b-1f74b3661208.jpg\",\"img/0758/9fb5b2fe-3f00-4fe6-973c-1ce10d5f4cd5.jpg\"]","trial_type":"similarity","trial_index":152,"time_elapsed":816274,"internal_node_id":"0.0-6.0-146.0"},{"sim_score":4,"rt":2973,"stimulus":"[\"img/0883/cc3df660-426e-452e-ac50-3a3b09dc4b65.jpg\",\"img/0756/8fdfa93c-88d0-4311-be2d-7f799fcaa8de.jpg\"]","trial_type":"similarity","trial_index":153,"time_elapsed":820273,"internal_node_id":"0.0-6.0-147.0"},{"sim_score":6,"rt":4944,"stimulus":"[\"img/0867/f8159067-056c-41f1-a136-c529fe5e970a.jpg\",\"img/0866/a04d37f0-99dd-478a-b6c6-58b215138f84.jpg\"]","trial_type":"similarity","trial_index":154,"time_elapsed":826249,"internal_node_id":"0.0-6.0-148.0"},{"sim_score":5,"rt":4822,"stimulus":"[\"img/0758/eabcd7a8-56ad-4fd2-bc24-90f6b7b33265.jpg\",\"img/0760/191d8576-9ed7-4798-a486-66a7fd600e58.jpg\"]","trial_type":"similarity","trial_index":155,"time_elapsed":832098,"internal_node_id":"0.0-6.0-149.0"},{"sim_score":5,"rt":2991,"stimulus":"[\"img/0757/0668efad-1c92-425c-9aa9-2bbe833fd777.jpg\",\"img/0761/9199a691-d36e-4ece-a815-078384ea6f06.jpg\"]","trial_type":"similarity","trial_index":156,"time_elapsed":836113,"internal_node_id":"0.0-6.0-150.0"},{"sim_score":5,"rt":3690,"stimulus":"[\"img/0761/b8f211c0-f640-43a2-b101-101774517d95.jpg\",\"img/0874/3ce41e7c-40c8-4d58-a546-171114521796.jpg\"]","trial_type":"similarity","trial_index":157,"time_elapsed":840825,"internal_node_id":"0.0-6.0-151.0"},{"sim_score":5,"rt":2816,"stimulus":"[\"img/0761/5747fedf-15f2-47fe-87c8-ff646dd66a5f.jpg\",\"img/0760/237fa1c2-d59d-4475-8d1e-f9a4eb71f989.jpg\"]","trial_type":"similarity","trial_index":158,"time_elapsed":844665,"internal_node_id":"0.0-6.0-152.0"},{"sim_score":7,"rt":3127,"stimulus":"[\"img/0866/8efcaa46-83ab-4dee-a35f-850402aa21ae.jpg\",\"img/0866/386235d2-6857-41e7-88a8-25cfc3430025.jpg\"]","trial_type":"similarity","trial_index":159,"time_elapsed":848818,"internal_node_id":"0.0-6.0-153.0"},{"sim_score":4,"rt":2991,"stimulus":"[\"img/0866/a15b02be-11bb-43e3-b0e0-ecc3bd7dfc49.jpg\",\"img/0862/47ed5efd-4ec9-4b74-bb4e-a5f5cf0c3e7d.jpg\"]","trial_type":"similarity","trial_index":160,"time_elapsed":852834,"internal_node_id":"0.0-6.0-154.0"},{"sim_score":3,"rt":3217,"stimulus":"[\"img/0756/10fa3aa2-6100-492a-826e-febb6513cf13.jpg\",\"img/0862/f23038d4-c366-4f70-979f-66b62362efa4.jpg\"]","trial_type":"similarity","trial_index":161,"time_elapsed":857090,"internal_node_id":"0.0-6.0-155.0"},{"sim_score":3,"rt":3241,"stimulus":"[\"img/0860/8fdba999-b946-4c7d-9891-336018b563ef.jpg\",\"img/0866/bf14b5bd-fb55-47db-86b9-4f8aeb9a6dad.jpg\"]","trial_type":"similarity","trial_index":162,"time_elapsed":861361,"internal_node_id":"0.0-6.0-156.0"},{"sim_score":3,"rt":2765,"stimulus":"[\"img/0862/99a99e39-8355-44ec-b993-e7bcec111e1c.jpg\",\"img/0958/0a8f72c4-0c73-4d58-be6f-5e4613b87409.jpg\"]","trial_type":"similarity","trial_index":163,"time_elapsed":865161,"internal_node_id":"0.0-6.0-157.0"},{"sim_score":5,"rt":2765,"stimulus":"[\"img/0761/d5370a68-6c8a-486f-b2bf-330e2ad6b397.jpg\",\"img/0868/179a5502-ab5c-478e-8263-5a1fbcc101d2.jpg\"]","trial_type":"similarity","trial_index":164,"time_elapsed":868953,"internal_node_id":"0.0-6.0-158.0"},{"sim_score":3,"rt":2757,"stimulus":"[\"img/0761/e18d2113-1ed1-4a80-8171-4be5ee28d343.jpg\",\"img/0886/1e8c0f89-c766-41c9-b522-83c342048f34.jpg\"]","trial_type":"similarity","trial_index":165,"time_elapsed":872745,"internal_node_id":"0.0-6.0-159.0"},{"sim_score":5,"rt":4161,"stimulus":"[\"img/0874/3f471690-9788-4d03-90c7-f615aecef149.jpg\",\"img/0868/293079b8-7e0c-4afd-a390-1e5d35fe3ded.jpg\"]","trial_type":"similarity","trial_index":166,"time_elapsed":877937,"internal_node_id":"0.0-6.0-160.0"},{"sim_score":3,"rt":3948,"stimulus":"[\"img/0860/71e1aad0-2cdf-43bb-94a4-a8c016997c30.jpg\",\"img/0874/bf14b896-e930-4fd9-9c05-2e83317a2773.jpg\"]","trial_type":"similarity","trial_index":167,"time_elapsed":882913,"internal_node_id":"0.0-6.0-161.0"},{"sim_score":5,"rt":4170,"stimulus":"[\"img/0883/fc8cf4c9-003e-48c4-b222-8878ea2ae1c0.jpg\",\"img/0867/de92135f-5b65-4ed9-b245-188292c7c2f8.jpg\"]","trial_type":"similarity","trial_index":168,"time_elapsed":888113,"internal_node_id":"0.0-6.0-162.0"},{"sim_score":6,"rt":4454,"stimulus":"[\"img/0758/caa93da2-9edf-49fa-96b9-32dedd8f5078.jpg\",\"img/0958/96f89270-febc-4f09-b8c3-53a249ff00ea.jpg\"]","trial_type":"similarity","trial_index":169,"time_elapsed":893593,"internal_node_id":"0.0-6.0-163.0"},{"sim_score":5,"rt":5394,"stimulus":"[\"img/0873/c91c05f8-fafd-4054-bcf1-f5ed1f0a18e8.jpg\",\"img/0757/91a048c0-e749-433b-9147-0c671dc5b4ca.jpg\"]","trial_type":"similarity","trial_index":170,"time_elapsed":900025,"internal_node_id":"0.0-6.0-164.0"},{"sim_score":5,"rt":3659,"stimulus":"[\"img/0873/0c7f3d86-efda-4809-aac4-256ba01e0536.jpg\",\"img/0866/945c6710-d15b-4a5b-a8f6-69af0850357f.jpg\"]","trial_type":"similarity","trial_index":171,"time_elapsed":904713,"internal_node_id":"0.0-6.0-165.0"},{"sim_score":5,"rt":2736,"stimulus":"[\"img/0875/2e13d160-eea1-416b-aff1-d37ab99ecc1d.jpg\",\"img/0867/ac1797e4-8afc-48fe-b252-86d1defb1cca.jpg\"]","trial_type":"similarity","trial_index":172,"time_elapsed":908474,"internal_node_id":"0.0-6.0-166.0"},{"sim_score":4,"rt":4008,"stimulus":"[\"img/0862/1c20f772-3a51-4a80-aac0-f57dc9f86c28.jpg\",\"img/0862/d0ca4c78-fc35-46ed-bdcc-8e124283c53e.jpg\"]","trial_type":"similarity","trial_index":173,"time_elapsed":914952,"internal_node_id":"0.0-6.0-167.0"},{"sim_score":3,"rt":5430,"stimulus":"[\"img/0875/f87b67d7-c33e-40d1-b281-248c4be1cb6e.jpg\",\"img/0886/625c7dfa-3fa1-4166-80f0-229eb416b04f.jpg\"]","trial_type":"similarity","trial_index":174,"time_elapsed":921417,"internal_node_id":"0.0-6.0-168.0"},{"sim_score":5,"rt":3100,"stimulus":"[\"img/0885/05af267f-b982-498d-9807-ccd54689f9b4.jpg\",\"img/0875/03c3c331-738b-4446-af92-3d7386b08c2e.jpg\"]","trial_type":"similarity","trial_index":175,"time_elapsed":925545,"internal_node_id":"0.0-6.0-169.0"},{"sim_score":4,"rt":2216,"stimulus":"[\"img/0862/5d887e9f-89e2-4ebc-80a0-6d46fe6480db.jpg\",\"img/0867/12264664-1860-46df-8c21-162b9817cdda.jpg\"]","trial_type":"similarity","trial_index":176,"time_elapsed":928801,"internal_node_id":"0.0-6.0-170.0"},{"sim_score":5,"rt":2961,"stimulus":"[\"img/0884/0b4cf8d4-4c8f-4312-a794-f99e01679176.jpg\",\"img/0873/c3ff3b70-fb22-42f2-883c-3ecffd77cb4b.jpg\"]","trial_type":"similarity","trial_index":177,"time_elapsed":932785,"internal_node_id":"0.0-6.0-171.0"},{"sim_score":5,"rt":4569,"stimulus":"[\"img/0873/226317e0-f0e7-42ea-907b-058cb1ad519a.jpg\",\"img/0958/e9e2cc42-eb3b-4c91-8112-a517305c15f0.jpg\"]","trial_type":"similarity","trial_index":178,"time_elapsed":938393,"internal_node_id":"0.0-6.0-172.0"},{"sim_score":5,"rt":2500,"stimulus":"[\"img/0868/1a62b2b2-18f5-466e-b564-5176a57c565e.jpg\",\"img/0758/7fba58df-2a7a-4b76-8a8f-62739f97f271.jpg\"]","trial_type":"similarity","trial_index":179,"time_elapsed":941914,"internal_node_id":"0.0-6.0-173.0"},{"sim_score":5,"rt":4165,"stimulus":"[\"img/0757/c190d19b-2091-436c-a92b-a48c253ac955.jpg\",\"img/0874/ca76a855-4e77-4f2f-872a-0a718153e7ed.jpg\"]","trial_type":"similarity","trial_index":180,"time_elapsed":947106,"internal_node_id":"0.0-6.0-174.0"},{"sim_score":5,"rt":3784,"stimulus":"[\"img/0958/9be61b1d-099b-432a-ae0e-2aa69e157c0e.jpg\",\"img/0867/2e1a0b58-cdb1-4107-a14e-452530d7b9b0.jpg\"]","trial_type":"similarity","trial_index":181,"time_elapsed":951921,"internal_node_id":"0.0-6.0-175.0"},{"sim_score":4,"rt":2928,"stimulus":"[\"img/0874/8cdb1c07-1c32-46d2-981c-3636560fa6e5.jpg\",\"img/0760/1912c0dc-64a7-4c32-8d67-baf5e8752270.jpg\"]","trial_type":"similarity","trial_index":182,"time_elapsed":955889,"internal_node_id":"0.0-6.0-176.0"},{"sim_score":3,"rt":2726,"stimulus":"[\"img/0873/ec150e40-b3ec-4dfe-ab38-bb3f248a1175.jpg\",\"img/0860/99c589b9-9140-4d17-90c0-b344323edcda.jpg\"]","trial_type":"similarity","trial_index":183,"time_elapsed":959634,"internal_node_id":"0.0-6.0-177.0"},{"sim_score":5,"rt":2577,"stimulus":"[\"img/0881/b1a136f7-8511-4d3a-a0f6-3879acf1e1a1.jpg\",\"img/0883/46d6b8ad-7f31-441e-92d2-0cc16d3d99ce.jpg\"]","trial_type":"similarity","trial_index":184,"time_elapsed":963242,"internal_node_id":"0.0-6.0-178.0"},{"sim_score":3,"rt":2666,"stimulus":"[\"img/0886/bd45b474-5559-4ea5-83ff-140bce19f5fa.jpg\",\"img/0958/bb684a39-afef-4125-9f70-b5ad830ba316.jpg\"]","trial_type":"similarity","trial_index":185,"time_elapsed":966937,"internal_node_id":"0.0-6.0-179.0"},{"sim_score":5,"rt":3892,"stimulus":"[\"img/0864/b3c4e378-28f0-4699-9338-2a257b4bca04.jpg\",\"img/0883/903939ef-a67c-40d3-841d-52555815cd88.jpg\"]","trial_type":"similarity","trial_index":186,"time_elapsed":971865,"internal_node_id":"0.0-6.0-180.0"},{"sim_score":3,"rt":2324,"stimulus":"[\"img/0756/a940d622-200d-4df5-8896-60af56798bbe.jpg\",\"img/0868/8b0b8473-e2c0-4331-aa56-c3a5c29369da.jpg\"]","trial_type":"similarity","trial_index":187,"time_elapsed":975217,"internal_node_id":"0.0-6.0-181.0"},{"sim_score":5,"rt":2852,"stimulus":"[\"img/0884/37ee4afa-34a0-4da2-bdb0-fcaff43dcdb6.jpg\",\"img/0758/7ee8bc8f-c40b-4b3a-84ec-3e83580622d4.jpg\"]","trial_type":"similarity","trial_index":188,"time_elapsed":979105,"internal_node_id":"0.0-6.0-182.0"},{"sim_score":5,"rt":2138,"stimulus":"[\"img/0875/527ced51-8e53-4aab-ab05-86df219104c0.jpg\",\"img/0874/1016b306-087c-4afc-aa08-fa527b28dc76.jpg\"]","trial_type":"similarity","trial_index":189,"time_elapsed":982273,"internal_node_id":"0.0-6.0-183.0"},{"sim_score":7,"rt":3915,"stimulus":"[\"img/0867/aa05d113-fc19-4756-a8eb-7878f580bc92.jpg\",\"img/0868/d98ca254-b195-477f-b57e-5760a2717db8.jpg\"]","trial_type":"similarity","trial_index":190,"time_elapsed":987209,"internal_node_id":"0.0-6.0-184.0"},{"sim_score":5,"rt":2564,"stimulus":"[\"img/0881/14236cf2-6b95-48b8-9368-78af09d2d27f.jpg\",\"img/0885/c840cf2c-c95d-4a08-b3c2-044d1ea946a7.jpg\"]","trial_type":"similarity","trial_index":191,"time_elapsed":990810,"internal_node_id":"0.0-6.0-185.0"},{"sim_score":5,"rt":3698,"stimulus":"[\"img/0864/c22faebd-9c53-47bc-ada3-b9a30c688e75.jpg\",\"img/0761/3599fa54-18f9-488e-b402-e851c43586ff.jpg\"]","trial_type":"similarity","trial_index":192,"time_elapsed":995537,"internal_node_id":"0.0-6.0-186.0"},{"sim_score":5,"rt":2310,"stimulus":"[\"img/0885/5a47e19f-19b4-4545-bf47-b508cb65da6a.jpg\",\"img/0874/995f0332-0439-4eb4-add3-957335dbf6d9.jpg\"]","trial_type":"similarity","trial_index":193,"time_elapsed":998881,"internal_node_id":"0.0-6.0-187.0"},{"sim_score":5,"rt":5160,"stimulus":"[\"img/0758/b76ceca7-95ac-46e4-ac13-da02c8e93be9.jpg\",\"img/0867/bf560d4f-dee3-4f11-a385-705cc1aa5f3c.jpg\"]","trial_type":"similarity","trial_index":194,"time_elapsed":1005073,"internal_node_id":"0.0-6.0-188.0"},{"sim_score":5,"rt":3497,"stimulus":"[\"img/0756/96c1bf35-26b6-4428-b19d-bdb5efe1367a.jpg\",\"img/0884/d8ffab77-40df-44ba-bf27-70815b052250.jpg\"]","trial_type":"similarity","trial_index":195,"time_elapsed":1009609,"internal_node_id":"0.0-6.0-189.0"},{"sim_score":4,"rt":4971,"stimulus":"[\"img/0761/014e76d0-fb4e-4b40-901c-7a2d5655c3b0.jpg\",\"img/0862/24cdc752-c2e5-4a17-86a6-6f2045d8553b.jpg\"]","trial_type":"similarity","trial_index":196,"time_elapsed":1015601,"internal_node_id":"0.0-6.0-190.0"},{"sim_score":3,"rt":2801,"stimulus":"[\"img/0860/c3379ff7-0763-48fe-a1ec-7ea3d611bc7a.jpg\",\"img/0886/9f186bd5-d48b-4cc2-9206-be67c392faa9.jpg\"]","trial_type":"similarity","trial_index":197,"time_elapsed":1019441,"internal_node_id":"0.0-6.0-191.0"},{"sim_score":5,"rt":2493,"stimulus":"[\"img/0760/83b0723f-4929-4ee7-ad35-fae98da3e152.jpg\",\"img/0885/fbbfaacd-e49b-4d37-a2f9-fcaffa58f26f.jpg\"]","trial_type":"similarity","trial_index":198,"time_elapsed":1022961,"internal_node_id":"0.0-6.0-192.0"},{"sim_score":3,"rt":2759,"stimulus":"[\"img/0886/97243e18-4dba-4af8-b49f-b3b635c90ac4.jpg\",\"img/0868/e0aff734-077f-40dd-9781-74821abd3621.jpg\"]","trial_type":"similarity","trial_index":199,"time_elapsed":1026753,"internal_node_id":"0.0-6.0-193.0"},{"sim_score":5,"rt":3478,"stimulus":"[\"img/0881/1407b85b-a1c6-45b1-9884-3b24203efadb.jpg\",\"img/0864/65210d57-1153-4657-886a-32e758f49b4a.jpg\"]","trial_type":"similarity","trial_index":200,"time_elapsed":1031257,"internal_node_id":"0.0-6.0-194.0"},{"sim_score":3,"rt":4570,"stimulus":"[\"img/0866/d493a2c8-66eb-44b4-be02-2f327b700b7c.jpg\",\"img/0868/3a62db2d-97e9-44a3-b8e3-a48c6f0e423b.jpg\"]","trial_type":"similarity","trial_index":201,"time_elapsed":1036849,"internal_node_id":"0.0-6.0-195.0"},{"sim_score":5,"rt":6128,"stimulus":"[\"img/0864/3d4de670-b290-4285-9c3d-12a0e3af44e9.jpg\",\"img/0958/644719ec-1690-4af2-a63f-0b6467c3791e.jpg\"]","trial_type":"similarity","trial_index":202,"time_elapsed":1044001,"internal_node_id":"0.0-6.0-196.0"},{"sim_score":3,"rt":2395,"stimulus":"[\"img/0757/a3620c04-efdc-4b42-940c-806958d1351e.jpg\",\"img/0886/789f5d23-84b8-499a-ae1e-20c6309a06ae.jpg\"]","trial_type":"similarity","trial_index":203,"time_elapsed":1047426,"internal_node_id":"0.0-6.0-197.0"},{"sim_score":6,"rt":3051,"stimulus":"[\"img/0758/d41c06bf-ebaf-454b-91c6-1a17f917b659.jpg\",\"img/0883/ff85a2f1-14b1-4b7e-9c87-887151d97e01.jpg\"]","trial_type":"similarity","trial_index":204,"time_elapsed":1051506,"internal_node_id":"0.0-6.0-198.0"},{"sim_score":5,"rt":3841,"stimulus":"[\"img/0881/19e82c47-8e4b-45d2-a6c8-74181eb4155e.jpg\",\"img/0958/edfd5bc1-8c8f-489a-84c3-908436ef76cc.jpg\"]","trial_type":"similarity","trial_index":205,"time_elapsed":1056377,"internal_node_id":"0.0-6.0-199.0"},{"sim_score":6,"rt":3234,"stimulus":"[\"img/0958/86d1a76d-f067-4e36-9ab5-13da78c97c0e.jpg\",\"img/0874/ca23d307-fc00-4d7d-9106-584c6eb21b4d.jpg\"]","trial_type":"similarity","trial_index":206,"time_elapsed":1060625,"internal_node_id":"0.0-6.0-200.0"},{"sim_score":3,"rt":2639,"stimulus":"[\"img/0885/6873c613-5e40-42ff-a5b6-443b6b626ae2.jpg\",\"img/0860/8a92e21b-6a32-4e4a-a445-2d5a487ed0a4.jpg\"]","trial_type":"similarity","trial_index":207,"time_elapsed":1064307,"internal_node_id":"0.0-6.0-201.0"},{"sim_score":5,"rt":2131,"stimulus":"[\"img/0875/5a7c4e35-6514-4e12-8879-d16071da4cd6.jpg\",\"img/0881/344de456-b358-4887-bd0e-e4c3278af887.jpg\"]","trial_type":"similarity","trial_index":208,"time_elapsed":1067473,"internal_node_id":"0.0-6.0-202.0"},{"sim_score":3,"rt":3581,"stimulus":"[\"img/0758/61d64021-9214-4951-bdf8-f871f9827cf9.jpg\",\"img/0860/5bff793e-cbd5-4d7e-b628-0ac2b0e30b64.jpg\"]","trial_type":"similarity","trial_index":209,"time_elapsed":1072073,"internal_node_id":"0.0-6.0-203.0"},{"sim_score":7,"rt":2429,"stimulus":"[\"img/0860/4f695df5-afac-4da7-9875-fee39b0b24ad.jpg\",\"img/0860/702bd09d-df3a-40aa-a267-5f04474305b5.jpg\"]","trial_type":"similarity","trial_index":210,"time_elapsed":1075529,"internal_node_id":"0.0-6.0-204.0"},{"sim_score":7,"rt":4637,"stimulus":"[\"img/0874/7e4f2150-3b59-4a36-b5da-a4e0ba410531.jpg\",\"img/0874/31e22c7c-99aa-40b1-bf03-dd73fa2df4d6.jpg\"]","trial_type":"similarity","trial_index":211,"time_elapsed":1081193,"internal_node_id":"0.0-6.0-205.0"},{"sim_score":5,"rt":3182,"stimulus":"[\"img/0883/ab9b6977-0cdc-47a2-b180-494a5be181b2.jpg\",\"img/0761/1725cacb-5f86-4b47-a5c0-3c36cd981588.jpg\"]","trial_type":"similarity","trial_index":212,"time_elapsed":1085401,"internal_node_id":"0.0-6.0-206.0"},{"sim_score":6,"rt":2844,"stimulus":"[\"img/0761/bd083642-a9bc-4877-bfc6-63bd03d33e81.jpg\",\"img/0881/633c6f40-56d9-4b48-bf1c-ecd83116eabb.jpg\"]","trial_type":"similarity","trial_index":213,"time_elapsed":1089274,"internal_node_id":"0.0-6.0-207.0"},{"sim_score":4,"rt":2460,"stimulus":"[\"img/0760/9ddd6958-7349-45d6-b5bc-4a5911960c35.jpg\",\"img/0756/a553ae3f-5140-4271-9000-b496fe2d4622.jpg\"]","trial_type":"similarity","trial_index":214,"time_elapsed":1092769,"internal_node_id":"0.0-6.0-208.0"},{"sim_score":4,"rt":2239,"stimulus":"[\"img/0885/0cdcdaca-f91e-4d4a-a6f6-dc90ab676435.jpg\",\"img/0757/fd3c82c8-3311-4fae-bcec-10559587910a.jpg\"]","trial_type":"similarity","trial_index":215,"time_elapsed":1097744,"internal_node_id":"0.0-6.0-209.0"},{"view_history":"[{\"page_index\":0,\"viewing_time\":9146}]","rt":9146,"trial_type":"instructions","trial_index":216,"time_elapsed":1107913,"internal_node_id":"0.0-7.0"},{"rt":29384,"responses":"{\"Q0\":\"Orange-crowned Warbler\"}","answer":["Orange-crowned Warbler"],"trial_type":"image-multi-choice","trial_index":217,"time_elapsed":1138379,"internal_node_id":"0.0-8.0-0.0"},{"rt":3515,"responses":"{\"Q0\":\"Wilson's Warbler\"}","answer":["Wilson's Warbler"],"trial_type":"image-multi-choice","trial_index":218,"time_elapsed":1142978,"internal_node_id":"0.0-8.0-1.0"},{"rt":5657,"responses":"{\"Q0\":\"Blackpoll Warbler\"}","answer":["Blackpoll Warbler"],"trial_type":"image-multi-choice","trial_index":219,"time_elapsed":1149746,"internal_node_id":"0.0-8.0-2.0"},{"rt":7599,"responses":"{\"Q0\":\"Black-and-white Warbler\"}","answer":["Black-and-white Warbler"],"trial_type":"image-multi-choice","trial_index":220,"time_elapsed":1158442,"internal_node_id":"0.0-8.0-3.0"},{"rt":4753,"responses":"{\"Q0\":\"Yellow-breasted Chat\"}","answer":["Yellow-breasted Chat"],"trial_type":"image-multi-choice","trial_index":221,"time_elapsed":1164282,"internal_node_id":"0.0-8.0-4.0"},{"rt":3105,"responses":"{\"Q0\":\"Canada Warbler\"}","answer":["Canada Warbler"],"trial_type":"image-multi-choice","trial_index":222,"time_elapsed":1168490,"internal_node_id":"0.0-8.0-5.0"},{"rt":3283,"responses":"{\"Q0\":\"Common Yellowthroat\"}","answer":["Common Yellowthroat"],"trial_type":"image-multi-choice","trial_index":223,"time_elapsed":1172882,"internal_node_id":"0.0-8.0-6.0"},{"rt":3667,"responses":"{\"Q0\":\"American Redstart\"}","answer":["American Redstart"],"trial_type":"image-multi-choice","trial_index":224,"time_elapsed":1177642,"internal_node_id":"0.0-8.0-7.0"},{"rt":4417,"responses":"{\"Q0\":\"Chestnut-sided Warbler\"}","answer":["Chestnut-sided Warbler"],"trial_type":"image-multi-choice","trial_index":225,"time_elapsed":1183162,"internal_node_id":"0.0-8.0-8.0"},{"rt":7767,"responses":"{\"Q0\":\"Townsend's Warbler\"}","answer":["Black-throated Green Warbler"],"trial_type":"image-multi-choice","trial_index":226,"time_elapsed":1192018,"internal_node_id":"0.0-8.0-9.0"},{"rt":26565,"responses":"{\"Q0\":\"Blackburnian Warbler\"}","answer":["Blackburnian Warbler"],"trial_type":"image-multi-choice","trial_index":227,"time_elapsed":1219675,"internal_node_id":"0.0-8.0-10.0"},{"rt":7941,"responses":"{\"Q0\":\"Yellow-rumped Warbler\"}","answer":["Yellow-rumped Warbler"],"trial_type":"image-multi-choice","trial_index":228,"time_elapsed":1228722,"internal_node_id":"0.0-8.0-11.0"},{"rt":2548,"responses":"{\"Q0\":\"Ovenbird\"}","answer":["Ovenbird"],"trial_type":"image-multi-choice","trial_index":229,"time_elapsed":1232346,"internal_node_id":"0.0-8.0-12.0"},{"rt":17047,"responses":"{\"Q0\":\"Black-throated Green Warbler\"}","answer":["Townsend's Warbler"],"trial_type":"image-multi-choice","trial_index":230,"time_elapsed":1250482,"internal_node_id":"0.0-8.0-13.0"},{"rt":20030,"responses":"{\"Q0\":\"Northern Waterthrush\"}","answer":["Northern Waterthrush"],"trial_type":"image-multi-choice","trial_index":231,"time_elapsed":1271618,"internal_node_id":"0.0-8.0-14.0"},{"rt":3906,"responses":"{\"Q0\":\"Yellow Warbler\"}","answer":["Yellow Warbler"],"trial_type":"image-multi-choice","trial_index":232,"time_elapsed":1276602,"internal_node_id":"0.0-8.0-15.0"},{"rt":28324,"responses":"{\"Q0\":\"Tennessee Warbler\"}","answer":["Nashville Warbler"],"trial_type":"image-multi-choice","trial_index":233,"time_elapsed":1306018,"internal_node_id":"0.0-8.0-16.0"},{"rt":10482,"responses":"{\"Q0\":\"Northern Parula\"}","answer":["Northern Parula"],"trial_type":"image-multi-choice","trial_index":234,"time_elapsed":1317610,"internal_node_id":"0.0-8.0-17.0"},{"rt":16688,"responses":"{\"Q0\":\"Tennessee Warbler\"}","answer":["Tennessee Warbler"],"trial_type":"image-multi-choice","trial_index":235,"time_elapsed":1335394,"internal_node_id":"0.0-8.0-18.0"},{"rt":6784,"responses":"{\"Q0\":\"Magnolia Warbler\"}","answer":["Magnolia Warbler"],"trial_type":"image-multi-choice","trial_index":236,"time_elapsed":1343266,"internal_node_id":"0.0-8.0-19.0"}]