"view_history","rt","trial_type","trial_index","time_elapsed","internal_node_id","sim_score","stimulus"
"[{""page_index"":0,""viewing_time"":49311}]","49312","instructions","0","49314","0.0-0.0","",""
"","1231","similarity","1","51561","0.0-1.0","4","[""img/bluejay1.jpg"",""img/bluejay2.jpg""]"
"[{""page_index"":0,""viewing_time"":1952}]","1953","instructions","2","54516","0.0-2.0","",""
"","935","similarity","3","56458","0.0-3.0","4","[""img/bluejay1.jpg"",""img/cardinal1.jpg""]"
"[{""page_index"":0,""viewing_time"":1002}]","1002","instructions","4","58462","0.0-4.0","",""
"[{""page_index"":0,""viewing_time"":1968}]","1968","instructions","5","61431","0.0-5.0","",""
"","1314","similarity","6","63753","0.0-6.0-0.0","4","[""img/0756/b6e235f7-211b-4a2b-a7b8-393e5ec7351b.jpg"",""img/0756/b8d6aa83-8673-4e0d-be72-b3da2bae7a6d.jpg""]"
"","674","similarity","7","65436","0.0-6.0-1.0","4","[""img/0868/1a62b2b2-18f5-466e-b564-5176a57c565e.jpg"",""img/0958/9be61b1d-099b-432a-ae0e-2aa69e157c0e.jpg""]"
"","404","similarity","8","66847","0.0-6.0-2.0","4","[""img/0760/237fa1c2-d59d-4475-8d1e-f9a4eb71f989.jpg"",""img/0860/99c589b9-9140-4d17-90c0-b344323edcda.jpg""]"
"","353","similarity","9","68208","0.0-6.0-3.0","4","[""img/0874/93d1f8dc-acf2-4f03-bd8d-8ec35df276ed.jpg"",""img/0886/1e8c0f89-c766-41c9-b522-83c342048f34.jpg""]"
"","356","similarity","10","69569","0.0-6.0-4.0","4","[""img/0883/512a797a-315b-439e-9a9d-855929351fd0.jpg"",""img/0860/c5ccd1a4-4bb7-48e1-9b25-72cfaf06909b.jpg""]"
"","373","similarity","11","70949","0.0-6.0-5.0","4","[""img/0875/527ced51-8e53-4aab-ab05-86df219104c0.jpg"",""img/0884/13db1f36-8c9f-4b28-8426-04eaa9fba737.jpg""]"
"","404","similarity","12","72360","0.0-6.0-6.0","4","[""img/0886/7164ac42-460f-4beb-9d5e-a1cfded3099c.jpg"",""img/0886/97243e18-4dba-4af8-b49f-b3b635c90ac4.jpg""]"
"","412","similarity","13","73777","0.0-6.0-7.0","4","[""img/0874/ca76a855-4e77-4f2f-872a-0a718153e7ed.jpg"",""img/0760/57510c7a-e5a9-420e-9b3f-f7423746f67c.jpg""]"
"","436","similarity","14","75219","0.0-6.0-8.0","4","[""img/0760/c76e8a36-1537-42e0-9779-13c2b6a89725.jpg"",""img/0958/b11515b3-5f04-4c3e-be00-56a05c6c3e96.jpg""]"
"","405","similarity","15","76630","0.0-6.0-9.0","4","[""img/0868/4bd5105a-d2c3-4f82-8c80-57196106ba53.jpg"",""img/0868/0d3abd3a-b6c3-4584-a9f7-e2da63748b3d.jpg""]"
"","316","similarity","16","77951","0.0-6.0-10.0","4","[""img/0868/15dd6fd7-791e-4b53-b203-195d617521a4.jpg"",""img/0864/e336a4c5-6648-4fd7-b2f6-93a3fb83f8c6.jpg""]"
"","323","similarity","17","79282","0.0-6.0-11.0","4","[""img/0756/a553ae3f-5140-4271-9000-b496fe2d4622.jpg"",""img/0862/eefa5588-9efd-4591-aa5f-a2e17c7d7bcc.jpg""]"
"","723","similarity","18","81011","0.0-6.0-12.0","4","[""img/0873/b1e2e09f-ad9a-433e-818f-56dd2f1cb09c.jpg"",""img/0756/792f9475-979d-4787-b7dc-8a0d02f6e25f.jpg""]"
"","306","similarity","19","82325","0.0-6.0-13.0","4","[""img/0873/d74e4aa9-420d-48a3-a42f-30a3481536ae.jpg"",""img/0761/5ed865c0-8bfb-4310-9b47-690b3e450ca2.jpg""]"
"","308","similarity","20","83639","0.0-6.0-14.0","4","[""img/0885/5a47e19f-19b4-4545-bf47-b508cb65da6a.jpg"",""img/0756/b7105b92-3ad0-444a-aaab-6989bc24b091.jpg""]"
"","242","similarity","21","84889","0.0-6.0-15.0","4","[""img/0885/fbbfaacd-e49b-4d37-a2f9-fcaffa58f26f.jpg"",""img/0867/cc72ed48-7704-422c-86d6-467a1145287a.jpg""]"
"","228","similarity","22","86123","0.0-6.0-16.0","4","[""img/0760/4f024637-f98a-409a-baa0-fc4989d80667.jpg"",""img/0757/a7964b0f-aee3-4b4c-9cd1-c1c998c49fef.jpg""]"
"","228","similarity","23","87357","0.0-6.0-17.0","4","[""img/0958/86d1a76d-f067-4e36-9ab5-13da78c97c0e.jpg"",""img/0866/c446214b-a368-4c65-ae39-ea46894256ab.jpg""]"
"","143","similarity","24","88505","0.0-6.0-18.0","4","[""img/0885/517a9189-9623-4ed7-a37e-48788791e028.jpg"",""img/0884/2348ce3f-5d2a-4a04-85ef-a65f05caa935.jpg""]"
"","132","similarity","25","89643","0.0-6.0-19.0","4","[""img/0874/8cdb1c07-1c32-46d2-981c-3636560fa6e5.jpg"",""img/0884/d9185264-7f01-43b2-be7f-eed1a0f0f2e8.jpg""]"
"","253","similarity","26","90902","0.0-6.0-20.0","4","[""img/0875/2e13d160-eea1-416b-aff1-d37ab99ecc1d.jpg"",""img/0874/85eb9b8a-c4c6-4e5a-b8e7-363a87a82054.jpg""]"
"","117","similarity","27","92025","0.0-6.0-21.0","4","[""img/0862/fad1d7c1-8187-43c3-942a-0fc12183e48e.jpg"",""img/0883/e7e4af6a-bc7a-4a9b-921c-32652db13239.jpg""]"
"","282","similarity","28","93313","0.0-6.0-22.0","4","[""img/0760/dfa71fdd-ddff-4827-a999-d5e599dd5679.jpg"",""img/0883/cc3df660-426e-452e-ac50-3a3b09dc4b65.jpg""]"
"","181","similarity","29","94499","0.0-6.0-23.0","4","[""img/0881/d373cb9f-a719-4549-a2a4-82def79fb2a5.jpg"",""img/0864/49150900-7f25-4ce8-8d10-9b47a71d1997.jpg""]"
"","272","similarity","30","95777","0.0-6.0-24.0","4","[""img/0868/4e626425-63c8-484a-8a1d-e66ee4e0bef8.jpg"",""img/0862/24cdc752-c2e5-4a17-86a6-6f2045d8553b.jpg""]"
"","137","similarity","31","96921","0.0-6.0-25.0","4","[""img/0874/995f0332-0439-4eb4-add3-957335dbf6d9.jpg"",""img/0758/a709631e-3705-4725-ac40-f0d916924f08.jpg""]"
"","227","similarity","32","98156","0.0-6.0-26.0","4","[""img/0875/99698b4d-b4a1-44bc-8c83-8ea755bbbf61.jpg"",""img/0860/c47fdead-eb02-4989-b078-26f4852f44fe.jpg""]"
"","129","similarity","33","99290","0.0-6.0-27.0","4","[""img/0881/b549bc99-a61c-4450-bab5-9efc3a197bf0.jpg"",""img/0862/847e5208-38ec-4f36-949c-296cdd7424ee.jpg""]"
"","228","similarity","34","100526","0.0-6.0-28.0","4","[""img/0758/821c68d3-5cb0-4eae-8659-30e6263fca39.jpg"",""img/0875/90da8d75-108a-44ad-b999-e21fee3860d3.jpg""]"
"","186","similarity","35","101719","0.0-6.0-29.0","4","[""img/0862/47ed5efd-4ec9-4b74-bb4e-a5f5cf0c3e7d.jpg"",""img/0885/0cdcdaca-f91e-4d4a-a6f6-dc90ab676435.jpg""]"
"","170","similarity","36","102897","0.0-6.0-30.0","4","[""img/0761/89d3b943-cd14-4786-a7b8-0e9a695cf0e3.jpg"",""img/0874/29830da7-be5f-44e5-b141-652a0ccf7269.jpg""]"
"","186","similarity","37","104088","0.0-6.0-31.0","4","[""img/0758/6cd8c362-ae2a-41eb-80a3-3a4f7ace1530.jpg"",""img/0860/31ff6436-98bf-4652-bed2-40f627229568.jpg""]"
"","108","similarity","38","105202","0.0-6.0-32.0","4","[""img/0864/6f631579-acf1-415c-a42c-1207f62a8d99.jpg"",""img/0864/5f74a653-3bdc-4308-8cca-ac667dc22e1f.jpg""]"
"view_history","rt","trial_type","trial_index","time_elapsed","internal_node_id","sim_score","stimulus"
"[{""page_index"":0,""viewing_time"":49311}]","49312","instructions","0","49314","0.0-0.0","",""
"","1231","similarity","1","51561","0.0-1.0","4","[""img/bluejay1.jpg"",""img/bluejay2.jpg""]"
"[{""page_index"":0,""viewing_time"":1952}]","1953","instructions","2","54516","0.0-2.0","",""
"","935","similarity","3","56458","0.0-3.0","4","[""img/bluejay1.jpg"",""img/cardinal1.jpg""]"
"[{""page_index"":0,""viewing_time"":1002}]","1002","instructions","4","58462","0.0-4.0","",""
"[{""page_index"":0,""viewing_time"":1968}]","1968","instructions","5","61431","0.0-5.0","",""
"","1314","similarity","6","63753","0.0-6.0-0.0","4","[""img/0756/b6e235f7-211b-4a2b-a7b8-393e5ec7351b.jpg"",""img/0756/b8d6aa83-8673-4e0d-be72-b3da2bae7a6d.jpg""]"
"","674","similarity","7","65436","0.0-6.0-1.0","4","[""img/0868/1a62b2b2-18f5-466e-b564-5176a57c565e.jpg"",""img/0958/9be61b1d-099b-432a-ae0e-2aa69e157c0e.jpg""]"
"","404","similarity","8","66847","0.0-6.0-2.0","4","[""img/0760/237fa1c2-d59d-4475-8d1e-f9a4eb71f989.jpg"",""img/0860/99c589b9-9140-4d17-90c0-b344323edcda.jpg""]"
"","353","similarity","9","68208","0.0-6.0-3.0","4","[""img/0874/93d1f8dc-acf2-4f03-bd8d-8ec35df276ed.jpg"",""img/0886/1e8c0f89-c766-41c9-b522-83c342048f34.jpg""]"
"","356","similarity","10","69569","0.0-6.0-4.0","4","[""img/0883/512a797a-315b-439e-9a9d-855929351fd0.jpg"",""img/0860/c5ccd1a4-4bb7-48e1-9b25-72cfaf06909b.jpg""]"
"","373","similarity","11","70949","0.0-6.0-5.0","4","[""img/0875/527ced51-8e53-4aab-ab05-86df219104c0.jpg"",""img/0884/13db1f36-8c9f-4b28-8426-04eaa9fba737.jpg""]"
"","404","similarity","12","72360","0.0-6.0-6.0","4","[""img/0886/7164ac42-460f-4beb-9d5e-a1cfded3099c.jpg"",""img/0886/97243e18-4dba-4af8-b49f-b3b635c90ac4.jpg""]"
"","412","similarity","13","73777","0.0-6.0-7.0","4","[""img/0874/ca76a855-4e77-4f2f-872a-0a718153e7ed.jpg"",""img/0760/57510c7a-e5a9-420e-9b3f-f7423746f67c.jpg""]"
"","436","similarity","14","75219","0.0-6.0-8.0","4","[""img/0760/c76e8a36-1537-42e0-9779-13c2b6a89725.jpg"",""img/0958/b11515b3-5f04-4c3e-be00-56a05c6c3e96.jpg""]"
"","405","similarity","15","76630","0.0-6.0-9.0","4","[""img/0868/4bd5105a-d2c3-4f82-8c80-57196106ba53.jpg"",""img/0868/0d3abd3a-b6c3-4584-a9f7-e2da63748b3d.jpg""]"
"","316","similarity","16","77951","0.0-6.0-10.0","4","[""img/0868/15dd6fd7-791e-4b53-b203-195d617521a4.jpg"",""img/0864/e336a4c5-6648-4fd7-b2f6-93a3fb83f8c6.jpg""]"
"","323","similarity","17","79282","0.0-6.0-11.0","4","[""img/0756/a553ae3f-5140-4271-9000-b496fe2d4622.jpg"",""img/0862/eefa5588-9efd-4591-aa5f-a2e17c7d7bcc.jpg""]"
"","723","similarity","18","81011","0.0-6.0-12.0","4","[""img/0873/b1e2e09f-ad9a-433e-818f-56dd2f1cb09c.jpg"",""img/0756/792f9475-979d-4787-b7dc-8a0d02f6e25f.jpg""]"
"","306","similarity","19","82325","0.0-6.0-13.0","4","[""img/0873/d74e4aa9-420d-48a3-a42f-30a3481536ae.jpg"",""img/0761/5ed865c0-8bfb-4310-9b47-690b3e450ca2.jpg""]"
"","308","similarity","20","83639","0.0-6.0-14.0","4","[""img/0885/5a47e19f-19b4-4545-bf47-b508cb65da6a.jpg"",""img/0756/b7105b92-3ad0-444a-aaab-6989bc24b091.jpg""]"
"","242","similarity","21","84889","0.0-6.0-15.0","4","[""img/0885/fbbfaacd-e49b-4d37-a2f9-fcaffa58f26f.jpg"",""img/0867/cc72ed48-7704-422c-86d6-467a1145287a.jpg""]"
"","228","similarity","22","86123","0.0-6.0-16.0","4","[""img/0760/4f024637-f98a-409a-baa0-fc4989d80667.jpg"",""img/0757/a7964b0f-aee3-4b4c-9cd1-c1c998c49fef.jpg""]"
"","228","similarity","23","87357","0.0-6.0-17.0","4","[""img/0958/86d1a76d-f067-4e36-9ab5-13da78c97c0e.jpg"",""img/0866/c446214b-a368-4c65-ae39-ea46894256ab.jpg""]"
"","143","similarity","24","88505","0.0-6.0-18.0","4","[""img/0885/517a9189-9623-4ed7-a37e-48788791e028.jpg"",""img/0884/2348ce3f-5d2a-4a04-85ef-a65f05caa935.jpg""]"
"","132","similarity","25","89643","0.0-6.0-19.0","4","[""img/0874/8cdb1c07-1c32-46d2-981c-3636560fa6e5.jpg"",""img/0884/d9185264-7f01-43b2-be7f-eed1a0f0f2e8.jpg""]"
"","253","similarity","26","90902","0.0-6.0-20.0","4","[""img/0875/2e13d160-eea1-416b-aff1-d37ab99ecc1d.jpg"",""img/0874/85eb9b8a-c4c6-4e5a-b8e7-363a87a82054.jpg""]"
"","117","similarity","27","92025","0.0-6.0-21.0","4","[""img/0862/fad1d7c1-8187-43c3-942a-0fc12183e48e.jpg"",""img/0883/e7e4af6a-bc7a-4a9b-921c-32652db13239.jpg""]"
"","282","similarity","28","93313","0.0-6.0-22.0","4","[""img/0760/dfa71fdd-ddff-4827-a999-d5e599dd5679.jpg"",""img/0883/cc3df660-426e-452e-ac50-3a3b09dc4b65.jpg""]"
"","181","similarity","29","94499","0.0-6.0-23.0","4","[""img/0881/d373cb9f-a719-4549-a2a4-82def79fb2a5.jpg"",""img/0864/49150900-7f25-4ce8-8d10-9b47a71d1997.jpg""]"
"","272","similarity","30","95777","0.0-6.0-24.0","4","[""img/0868/4e626425-63c8-484a-8a1d-e66ee4e0bef8.jpg"",""img/0862/24cdc752-c2e5-4a17-86a6-6f2045d8553b.jpg""]"
"","137","similarity","31","96921","0.0-6.0-25.0","4","[""img/0874/995f0332-0439-4eb4-add3-957335dbf6d9.jpg"",""img/0758/a709631e-3705-4725-ac40-f0d916924f08.jpg""]"
"","227","similarity","32","98156","0.0-6.0-26.0","4","[""img/0875/99698b4d-b4a1-44bc-8c83-8ea755bbbf61.jpg"",""img/0860/c47fdead-eb02-4989-b078-26f4852f44fe.jpg""]"
"","129","similarity","33","99290","0.0-6.0-27.0","4","[""img/0881/b549bc99-a61c-4450-bab5-9efc3a197bf0.jpg"",""img/0862/847e5208-38ec-4f36-949c-296cdd7424ee.jpg""]"
"","228","similarity","34","100526","0.0-6.0-28.0","4","[""img/0758/821c68d3-5cb0-4eae-8659-30e6263fca39.jpg"",""img/0875/90da8d75-108a-44ad-b999-e21fee3860d3.jpg""]"
"","186","similarity","35","101719","0.0-6.0-29.0","4","[""img/0862/47ed5efd-4ec9-4b74-bb4e-a5f5cf0c3e7d.jpg"",""img/0885/0cdcdaca-f91e-4d4a-a6f6-dc90ab676435.jpg""]"
"","170","similarity","36","102897","0.0-6.0-30.0","4","[""img/0761/89d3b943-cd14-4786-a7b8-0e9a695cf0e3.jpg"",""img/0874/29830da7-be5f-44e5-b141-652a0ccf7269.jpg""]"
"","186","similarity","37","104088","0.0-6.0-31.0","4","[""img/0758/6cd8c362-ae2a-41eb-80a3-3a4f7ace1530.jpg"",""img/0860/31ff6436-98bf-4652-bed2-40f627229568.jpg""]"
"","108","similarity","38","105202","0.0-6.0-32.0","4","[""img/0864/6f631579-acf1-415c-a42c-1207f62a8d99.jpg"",""img/0864/5f74a653-3bdc-4308-8cca-ac667dc22e1f.jpg""]"
