[{"view_history":"[{\"page_index\":0,\"viewing_time\":31925}]","rt":31925,"trial_type":"instructions","trial_index":0,"time_elapsed":31926,"internal_node_id":"0.0-0.0"},{"sim_score":7,"rt":11292,"stimulus":"[\"img/bluejay1.jpg\",\"img/bluejay2.jpg\"]","trial_type":"similarity_demo","trial_index":1,"time_elapsed":44253,"internal_node_id":"0.0-1.0"},{"view_history":"[{\"page_index\":0,\"viewing_time\":14087}]","rt":14088,"trial_type":"instructions","trial_index":2,"time_elapsed":59362,"internal_node_id":"0.0-2.0"},{"sim_score":3,"rt":11069,"stimulus":"[\"img/bluejay1.jpg\",\"img/cardinal1.jpg\"]","trial_type":"similarity_demo","trial_index":3,"time_elapsed":71443,"internal_node_id":"0.0-3.0"},{"view_history":"[{\"page_index\":0,\"viewing_time\":6659}]","rt":6660,"trial_type":"instructions","trial_index":4,"time_elapsed":79105,"internal_node_id":"0.0-4.0"},{"view_history":"[{\"page_index\":0,\"viewing_time\":41661}]","rt":41661,"trial_type":"instructions","trial_index":5,"time_elapsed":121775,"internal_node_id":"0.0-5.0"},{"sim_score":1,"rt":8328,"stimulus":"[\"img/0868/3a62db2d-97e9-44a3-b8e3-a48c6f0e423b.jpg\",\"img/0894/3664e04c-c6d3-4c9b-afb6-25d89974b174.jpg\"]","trial_type":"similarity","trial_index":6,"time_elapsed":131136,"internal_node_id":"0.0-6.0-0.0"},{"sim_score":1,"rt":5733,"stimulus":"[\"img/0898/b2732712-71c2-45d8-834f-2b2ed5504910.jpg\",\"img/0758/d57c2592-a317-4f63-91be-91a3a9afd222.jpg\"]","trial_type":"similarity","trial_index":7,"time_elapsed":137888,"internal_node_id":"0.0-6.0-1.0"},{"sim_score":5,"rt":8959,"stimulus":"[\"img/0903/5995f4a8-fa82-46f8-8760-fd7800a5ca34.jpg\",\"img/0894/6aa5545f-fa7d-4286-bbaa-aaf34dc7ec96.jpg\"]","trial_type":"similarity","trial_index":8,"time_elapsed":147872,"internal_node_id":"0.0-6.0-2.0"},{"sim_score":1,"rt":5227,"stimulus":"[\"img/0881/7e31e5dc-2240-4b1b-b5a0-3acd980099ef.jpg\",\"img/0766/33519c22-aaa4-49d7-8d49-ab551db1945e.jpg\"]","trial_type":"similarity","trial_index":9,"time_elapsed":154128,"internal_node_id":"0.0-6.0-3.0"},{"sim_score":5,"rt":5092,"stimulus":"[\"img/0864/ea327690-500b-4137-bf91-451b309fe6a5.jpg\",\"img/0860/e8b8c51e-1834-4875-8b61-6c5bc9b178bd.jpg\"]","trial_type":"similarity","trial_index":10,"time_elapsed":160239,"internal_node_id":"0.0-6.0-4.0"},{"sim_score":3,"rt":5804,"stimulus":"[\"img/0902/af45fe42-178c-4c1a-99ef-256e87e3b092.jpg\",\"img/0899/8abe6c69-822c-436c-9bf2-96c818b49ba5.jpg\"]","trial_type":"similarity","trial_index":11,"time_elapsed":167063,"internal_node_id":"0.0-6.0-5.0"},{"sim_score":2,"rt":7712,"stimulus":"[\"img/0868/83b4350a-3b70-4cea-b7f5-b5b56f3050a8.jpg\",\"img/0769/da36e3f7-2337-434f-ab57-11822dd7eed7.jpg\"]","trial_type":"similarity","trial_index":12,"time_elapsed":175800,"internal_node_id":"0.0-6.0-6.0"},{"sim_score":1,"rt":6627,"stimulus":"[\"img/0764/6ef77040-1fae-4afa-bfe7-eda98e6d0376.jpg\",\"img/0901/693e0535-ef7e-4d60-af9d-fac2f38e8307.jpg\"]","trial_type":"similarity","trial_index":13,"time_elapsed":183455,"internal_node_id":"0.0-6.0-7.0"},{"sim_score":7,"rt":7088,"stimulus":"[\"img/0881/e046471a-35b4-4159-bbf7-3cfd201bef66.jpg\",\"img/0866/02f5e6b9-52b7-448c-9708-5b460d0c9a23.jpg\"]","trial_type":"similarity","trial_index":14,"time_elapsed":191558,"internal_node_id":"0.0-6.0-8.0"},{"sim_score":3,"rt":19092,"stimulus":"[\"img/0867/c66898ba-b71b-4d50-84f9-f7f84853a98d.jpg\",\"img/0899/d60714ae-98d7-4564-8c98-94dba1351135.jpg\"]","trial_type":"similarity","trial_index":15,"time_elapsed":211670,"internal_node_id":"0.0-6.0-9.0"},{"sim_score":1,"rt":5754,"stimulus":"[\"img/0875/e7e66b13-b573-431e-b85e-288ce04a35a3.jpg\",\"img/0766/110832e5-2646-4bd0-a94e-5df8cc314269.jpg\"]","trial_type":"similarity","trial_index":16,"time_elapsed":218453,"internal_node_id":"0.0-6.0-10.0"},{"sim_score":1,"rt":55295,"stimulus":"[\"img/0901/effc03f6-8f9d-46db-a66c-16fc83891c5c.jpg\",\"img/0875/5a716432-c6ca-4b1c-955a-2b8ac25198ee.jpg\"]","trial_type":"similarity","trial_index":17,"time_elapsed":274765,"internal_node_id":"0.0-6.0-11.0"},{"sim_score":5,"rt":38726,"stimulus":"[\"img/0902/95a36b6b-9601-4fa5-8fd9-606ea62f9425.jpg\",\"img/0860/4f695df5-afac-4da7-9875-fee39b0b24ad.jpg\"]","trial_type":"similarity","trial_index":18,"time_elapsed":314514,"internal_node_id":"0.0-6.0-12.0"},{"sim_score":5,"rt":34283,"stimulus":"[\"img/0874/ca23d307-fc00-4d7d-9106-584c6eb21b4d.jpg\",\"img/0867/6e19c858-b606-45b2-a4c6-910a73f1d82c.jpg\"]","trial_type":"similarity","trial_index":19,"time_elapsed":349809,"internal_node_id":"0.0-6.0-13.0"},{"sim_score":1,"rt":7029,"stimulus":"[\"img/0904/09934646-45d2-4147-8fec-64a22a5ac822.jpg\",\"img/0866/be24ab58-230e-4db8-9f45-ff04c9aec6bb.jpg\"]","trial_type":"similarity","trial_index":20,"time_elapsed":357857,"internal_node_id":"0.0-6.0-14.0"},{"sim_score":3,"rt":7173,"stimulus":"[\"img/0758/61d64021-9214-4951-bdf8-f871f9827cf9.jpg\",\"img/0902/22ed3536-288b-452e-9777-0fa0ab94deb0.jpg\"]","trial_type":"similarity","trial_index":21,"time_elapsed":366050,"internal_node_id":"0.0-6.0-15.0"},{"sim_score":5,"rt":6471,"stimulus":"[\"img/0867/12264664-1860-46df-8c21-162b9817cdda.jpg\",\"img/0898/82231d4c-218b-4d0a-b50d-35a49b524e97.jpg\"]","trial_type":"similarity","trial_index":22,"time_elapsed":373536,"internal_node_id":"0.0-6.0-16.0"},{"sim_score":2,"rt":18550,"stimulus":"[\"img/0904/a8c3c7d2-9bcf-4347-9e03-8203adfc1fc5.jpg\",\"img/0868/4e626425-63c8-484a-8a1d-e66ee4e0bef8.jpg\"]","trial_type":"similarity","trial_index":23,"time_elapsed":393103,"internal_node_id":"0.0-6.0-17.0"},{"sim_score":1,"rt":10076,"stimulus":"[\"img/0766/d3bab2fc-ddcc-40a0-bb72-c0d0ebe19978.jpg\",\"img/0864/5f33e097-23e3-4002-882d-76e8cb15f451.jpg\"]","trial_type":"similarity","trial_index":24,"time_elapsed":404199,"internal_node_id":"0.0-6.0-18.0"},{"sim_score":5,"rt":12554,"stimulus":"[\"img/0899/66ab3178-c3fe-4455-ad17-d5952b08e018.jpg\",\"img/0766/d8221e53-2300-4d99-ae1b-0bfb0eabe579.jpg\"]","trial_type":"similarity","trial_index":25,"time_elapsed":417767,"internal_node_id":"0.0-6.0-19.0"},{"sim_score":1,"rt":6593,"stimulus":"[\"img/0764/f713847b-4832-42d1-8fb3-e17e37fd745c.jpg\",\"img/0758/7ee8bc8f-c40b-4b3a-84ec-3e83580622d4.jpg\"]","trial_type":"similarity","trial_index":26,"time_elapsed":425374,"internal_node_id":"0.0-6.0-20.0"},{"sim_score":1,"rt":45068,"stimulus":"[\"img/0901/50e1d53e-a49f-4806-8610-be6dec5a2475.jpg\",\"img/0874/2c9464dd-8a23-4baa-ac94-1ba3af5c15cc.jpg\"]","trial_type":"similarity","trial_index":27,"time_elapsed":471468,"internal_node_id":"0.0-6.0-21.0"},{"sim_score":4,"rt":6776,"stimulus":"[\"img/0875/34132396-d896-4c2d-8087-646dd867e769.jpg\",\"img/0758/d540bee6-b460-4c32-ac57-bc282742d7d4.jpg\"]","trial_type":"similarity","trial_index":28,"time_elapsed":479260,"internal_node_id":"0.0-6.0-22.0"},{"sim_score":6,"rt":5853,"stimulus":"[\"img/0867/f26f6b60-f772-4f4c-95a4-addc62cfd692.jpg\",\"img/0881/54ea8e77-c7e5-4197-b7fa-00b7020849a7.jpg\"]","trial_type":"similarity","trial_index":29,"time_elapsed":486123,"internal_node_id":"0.0-6.0-23.0"},{"sim_score":1,"rt":4881,"stimulus":"[\"img/0758/d41c06bf-ebaf-454b-91c6-1a17f917b659.jpg\",\"img/0901/a373612d-67e2-4fec-9764-21d3d6ef6359.jpg\"]","trial_type":"similarity","trial_index":30,"time_elapsed":492028,"internal_node_id":"0.0-6.0-24.0"},{"sim_score":5,"rt":6236,"stimulus":"[\"img/0868/c8ac40c7-6904-4e13-8d61-c75d3052dc4e.jpg\",\"img/0875/8521fd58-3b1e-4dc5-97ae-804edfa6734a.jpg\"]","trial_type":"similarity","trial_index":31,"time_elapsed":499291,"internal_node_id":"0.0-6.0-25.0"},{"sim_score":4,"rt":4831,"stimulus":"[\"img/0903/47e39de8-6959-469f-8be9-6999a6db207c.jpg\",\"img/0901/f469cb1d-6d81-4a45-bab5-cd0b650c2b4f.jpg\"]","trial_type":"similarity","trial_index":32,"time_elapsed":505139,"internal_node_id":"0.0-6.0-26.0"},{"sim_score":5,"rt":642847,"stimulus":"[\"img/0894/a3d4170b-b7d8-40e3-955f-87e76ed745fc.jpg\",\"img/0899/565ccdd9-0933-4536-a625-3c0e25a713dd.jpg\"]","trial_type":"similarity","trial_index":33,"time_elapsed":1149013,"internal_node_id":"0.0-6.0-27.0"},{"sim_score":6,"rt":5083,"stimulus":"[\"img/0862/f23038d4-c366-4f70-979f-66b62362efa4.jpg\",\"img/0867/a749dddb-69f0-44a6-acdc-2bf295cf6dcc.jpg\"]","trial_type":"similarity","trial_index":34,"time_elapsed":1155108,"internal_node_id":"0.0-6.0-28.0"},{"sim_score":5,"rt":8002,"stimulus":"[\"img/0864/c22faebd-9c53-47bc-ada3-b9a30c688e75.jpg\",\"img/0875/42910c99-5463-450a-a0f8-d4d060a11455.jpg\"]","trial_type":"similarity","trial_index":35,"time_elapsed":1164140,"internal_node_id":"0.0-6.0-29.0"},{"sim_score":5,"rt":5016,"stimulus":"[\"img/0862/5d887e9f-89e2-4ebc-80a0-6d46fe6480db.jpg\",\"img/0874/3f471690-9788-4d03-90c7-f615aecef149.jpg\"]","trial_type":"similarity","trial_index":36,"time_elapsed":1170180,"internal_node_id":"0.0-6.0-30.0"},{"sim_score":1,"rt":4378,"stimulus":"[\"img/0903/d987e220-f3e6-4b6d-a270-fe6757041f6d.jpg\",\"img/0758/2fa3e613-e676-4e6e-bd12-705327eeb3e1.jpg\"]","trial_type":"similarity","trial_index":37,"time_elapsed":1175579,"internal_node_id":"0.0-6.0-31.0"},{"sim_score":3,"rt":5094,"stimulus":"[\"img/0866/6f2a90d7-14f1-4f1b-bd64-fc0af6b9fe44.jpg\",\"img/0901/148b747a-7392-437e-8823-33053c5dff3f.jpg\"]","trial_type":"similarity","trial_index":38,"time_elapsed":1181700,"internal_node_id":"0.0-6.0-32.0"},{"sim_score":1,"rt":4643,"stimulus":"[\"img/0874/93d1f8dc-acf2-4f03-bd8d-8ec35df276ed.jpg\",\"img/0899/f58b8d2f-b19d-4b59-8b94-8834be92e4ba.jpg\"]","trial_type":"similarity","trial_index":39,"time_elapsed":1187355,"internal_node_id":"0.0-6.0-33.0"},{"sim_score":3,"rt":5916,"stimulus":"[\"img/0903/4cbdc464-e562-4ec2-9bb6-15f894fdf528.jpg\",\"img/0902/b03129ba-b087-4558-af37-e8399d6217d6.jpg\"]","trial_type":"similarity","trial_index":40,"time_elapsed":1194283,"internal_node_id":"0.0-6.0-34.0"},{"sim_score":5,"rt":5094,"stimulus":"[\"img/0758/a709631e-3705-4725-ac40-f0d916924f08.jpg\",\"img/0866/0207e9a2-7dbb-40b5-9459-b472aaeceb2a.jpg\"]","trial_type":"similarity","trial_index":41,"time_elapsed":1200395,"internal_node_id":"0.0-6.0-35.0"},{"sim_score":2,"rt":7390,"stimulus":"[\"img/0875/90da8d75-108a-44ad-b999-e21fee3860d3.jpg\",\"img/0903/5ea5bbe0-f238-4724-abe7-9ed8dee8c0ba.jpg\"]","trial_type":"similarity","trial_index":42,"time_elapsed":1208802,"internal_node_id":"0.0-6.0-36.0"},{"sim_score":2,"rt":6093,"stimulus":"[\"img/0864/f92649a2-0590-4d31-9a7a-1bfb81666a2d.jpg\",\"img/0902/418b716e-63e5-4c77-93e9-95b1f5a3ddf0.jpg\"]","trial_type":"similarity","trial_index":43,"time_elapsed":1230376,"internal_node_id":"0.0-6.0-37.0"},{"sim_score":1,"rt":4801,"stimulus":"[\"img/0901/77087ed2-6e12-4329-b2a5-605bca6d972d.jpg\",\"img/0867/85a96c62-548f-4994-9553-819e03c3135a.jpg\"]","trial_type":"similarity","trial_index":44,"time_elapsed":1236193,"internal_node_id":"0.0-6.0-38.0"},{"sim_score":6,"rt":5617,"stimulus":"[\"img/0862/e697469a-ec19-4414-b972-7b9f3564785b.jpg\",\"img/0860/18dfed73-e36b-4487-a8bd-0b8cff8e3668.jpg\"]","trial_type":"similarity","trial_index":45,"time_elapsed":1242834,"internal_node_id":"0.0-6.0-39.0"},{"sim_score":4,"rt":6123,"stimulus":"[\"img/0867/7d1c497b-c1b3-4ed8-abb5-d7f73306015f.jpg\",\"img/0868/8b0b8473-e2c0-4331-aa56-c3a5c29369da.jpg\"]","trial_type":"similarity","trial_index":46,"time_elapsed":1249970,"internal_node_id":"0.0-6.0-40.0"},{"sim_score":5,"rt":6459,"stimulus":"[\"img/0904/1d10df11-b5c8-4370-9a6b-097a7f965895.jpg\",\"img/0899/fd9efb43-701f-4cd6-baaa-4c38315f4bdc.jpg\"]","trial_type":"similarity","trial_index":47,"time_elapsed":1257449,"internal_node_id":"0.0-6.0-41.0"},{"sim_score":3,"rt":5679,"stimulus":"[\"img/0862/f43ceabf-acc1-4107-b857-5d1849808f93.jpg\",\"img/0894/7f2f31fd-6618-41c6-b65a-0fd8b2851bc9.jpg\"]","trial_type":"similarity","trial_index":48,"time_elapsed":1264153,"internal_node_id":"0.0-6.0-42.0"},{"sim_score":1,"rt":4890,"stimulus":"[\"img/0875/cff79b3a-a797-4393-9757-6275f999ec04.jpg\",\"img/0904/696ebb60-8891-417a-91fd-c53218907a95.jpg\"]","trial_type":"similarity","trial_index":49,"time_elapsed":1270064,"internal_node_id":"0.0-6.0-43.0"},{"sim_score":1,"rt":4300,"stimulus":"[\"img/0874/85eb9b8a-c4c6-4e5a-b8e7-363a87a82054.jpg\",\"img/0898/26c41340-15bd-4ead-8fe4-c0d0ddca09c2.jpg\"]","trial_type":"similarity","trial_index":50,"time_elapsed":1275384,"internal_node_id":"0.0-6.0-44.0"},{"sim_score":1,"rt":4445,"stimulus":"[\"img/0898/4184e5a2-84ea-4f36-9b42-ae58646f6f87.jpg\",\"img/0868/09a9ef4d-d000-4cfa-a6aa-ebec7c2edeb4.jpg\"]","trial_type":"similarity","trial_index":51,"time_elapsed":1280848,"internal_node_id":"0.0-6.0-45.0"},{"sim_score":4,"rt":7294,"stimulus":"[\"img/0901/7d4a3388-488d-4e9b-9d32-9d0def7aae8d.jpg\",\"img/0860/8277806e-b684-4474-8f7b-3fca946d7d4f.jpg\"]","trial_type":"similarity","trial_index":52,"time_elapsed":1289168,"internal_node_id":"0.0-6.0-46.0"},{"sim_score":6,"rt":6893,"stimulus":"[\"img/0894/492d2f29-d7b9-4422-8be8-47fd58bfaa8b.jpg\",\"img/0902/c018bd7a-d91a-4192-aea4-7259cfcdb6c4.jpg\"]","trial_type":"similarity","trial_index":53,"time_elapsed":1297079,"internal_node_id":"0.0-6.0-47.0"},{"sim_score":1,"rt":8057,"stimulus":"[\"img/0764/6c7fe363-2d37-418f-9e5e-a3273af5d4fb.jpg\",\"img/0862/1c20f772-3a51-4a80-aac0-f57dc9f86c28.jpg\"]","trial_type":"similarity","trial_index":54,"time_elapsed":1306150,"internal_node_id":"0.0-6.0-48.0"},{"sim_score":7,"rt":8006,"stimulus":"[\"img/0881/dea58fad-b4f1-41d9-bd3f-916eff19a3fd.jpg\",\"img/0758/3ddd05d3-557e-4ee7-8b78-9d2d681d8ae2.jpg\"]","trial_type":"similarity","trial_index":55,"time_elapsed":1315174,"internal_node_id":"0.0-6.0-49.0"},{"sim_score":5,"rt":6118,"stimulus":"[\"img/0766/d50d734f-285c-4840-bc7a-c8dd4aff391e.jpg\",\"img/0769/75f7e514-0548-4329-b1e4-93c05e74f038.jpg\"]","trial_type":"similarity","trial_index":56,"time_elapsed":1322310,"internal_node_id":"0.0-6.0-50.0"},{"sim_score":6,"rt":4476,"stimulus":"[\"img/0875/3ecb367d-e9eb-4826-8aaa-7aa72fb98019.jpg\",\"img/0866/d493a2c8-66eb-44b4-be02-2f327b700b7c.jpg\"]","trial_type":"similarity","trial_index":57,"time_elapsed":1327798,"internal_node_id":"0.0-6.0-51.0"},{"sim_score":5,"rt":6083,"stimulus":"[\"img/0894/2217bdcd-23a7-42d3-823b-23f2488d7e87.jpg\",\"img/0904/2c98dc56-88d1-4fb5-a999-b6a7861f65f0.jpg\"]","trial_type":"similarity","trial_index":58,"time_elapsed":1334894,"internal_node_id":"0.0-6.0-52.0"},{"sim_score":1,"rt":4435,"stimulus":"[\"img/0758/67c0be2f-9e91-48b3-8219-70ac0a1802fa.jpg\",\"img/0769/9ea9ceb6-049e-4ad9-be8f-00645cd35803.jpg\"]","trial_type":"similarity","trial_index":59,"time_elapsed":1340342,"internal_node_id":"0.0-6.0-53.0"},{"sim_score":1,"rt":4420,"stimulus":"[\"img/0902/cdec1bc6-7f90-4f72-9e01-f5a4111bac1d.jpg\",\"img/0874/a82926a3-0b43-4add-803c-d5f9ea7798ee.jpg\"]","trial_type":"similarity","trial_index":60,"time_elapsed":1345782,"internal_node_id":"0.0-6.0-54.0"},{"sim_score":2,"rt":4902,"stimulus":"[\"img/0903/39365c8e-a733-4801-ac7d-b87e38c3784b.jpg\",\"img/0862/e8cc3bdf-cc43-4565-bccf-492626c70953.jpg\"]","trial_type":"similarity","trial_index":61,"time_elapsed":1351710,"internal_node_id":"0.0-6.0-55.0"},{"sim_score":1,"rt":4125,"stimulus":"[\"img/0866/bf14b5bd-fb55-47db-86b9-4f8aeb9a6dad.jpg\",\"img/0894/661b9f9f-4bde-487a-b1ed-87085fde6948.jpg\"]","trial_type":"similarity","trial_index":62,"time_elapsed":1356853,"internal_node_id":"0.0-6.0-56.0"},{"sim_score":1,"rt":4271,"stimulus":"[\"img/0867/a498eef3-9fa4-4ab2-9778-4ae82ac40dc5.jpg\",\"img/0904/60d1a521-edf7-4696-9263-f21ac0e62a01.jpg\"]","trial_type":"similarity","trial_index":63,"time_elapsed":1362140,"internal_node_id":"0.0-6.0-57.0"},{"sim_score":6,"rt":4503,"stimulus":"[\"img/0875/f87b67d7-c33e-40d1-b281-248c4be1cb6e.jpg\",\"img/0881/609a5e93-38b5-4940-8627-2bf8fad7f802.jpg\"]","trial_type":"similarity","trial_index":64,"time_elapsed":1367653,"internal_node_id":"0.0-6.0-58.0"},{"sim_score":5,"rt":6760,"stimulus":"[\"img/0866/11a1d141-be5e-443c-98c1-a9d4d9e3dec0.jpg\",\"img/0860/94ef7afc-e0e6-4a15-98c6-0bfac82bc832.jpg\"]","trial_type":"similarity","trial_index":65,"time_elapsed":1375436,"internal_node_id":"0.0-6.0-59.0"},{"sim_score":1,"rt":4336,"stimulus":"[\"img/0903/8c358e9e-a4f4-466e-8b93-7aec0d2358e8.jpg\",\"img/0866/a04d37f0-99dd-478a-b6c6-58b215138f84.jpg\"]","trial_type":"similarity","trial_index":66,"time_elapsed":1380788,"internal_node_id":"0.0-6.0-60.0"},{"sim_score":5,"rt":5814,"stimulus":"[\"img/0860/c47fdead-eb02-4989-b078-26f4852f44fe.jpg\",\"img/0875/dbdd643e-6d0e-4a5c-ab57-b9c29b9c981a.jpg\"]","trial_type":"similarity","trial_index":67,"time_elapsed":1387620,"internal_node_id":"0.0-6.0-61.0"},{"sim_score":1,"rt":5232,"stimulus":"[\"img/0898/01bfe666-3510-4fc7-964f-d00d28732dc8.jpg\",\"img/0862/e0f1a4e9-e1b6-45f7-af67-89f334e6630d.jpg\"]","trial_type":"similarity","trial_index":68,"time_elapsed":1393884,"internal_node_id":"0.0-6.0-62.0"},{"sim_score":6,"rt":4957,"stimulus":"[\"img/0902/8065aa6b-4aef-4368-afa2-02c6465ca582.jpg\",\"img/0766/af3be95e-e52e-4fae-899b-0ff02ec340aa.jpg\"]","trial_type":"similarity","trial_index":69,"time_elapsed":1399862,"internal_node_id":"0.0-6.0-63.0"},{"sim_score":6,"rt":5183,"stimulus":"[\"img/0758/ddc336e9-a8b6-4bb9-937a-c7e25e0e9250.jpg\",\"img/0864/ef9cbca0-4be8-435d-ad49-977259e80409.jpg\"]","trial_type":"similarity","trial_index":70,"time_elapsed":1406059,"internal_node_id":"0.0-6.0-64.0"},{"sim_score":1,"rt":6008,"stimulus":"[\"img/0894/9b1333fd-3561-43bf-aee5-99b7b7ca3dc3.jpg\",\"img/0860/b03b963d-949b-4d8d-b19c-4950c89eeca2.jpg\"]","trial_type":"similarity","trial_index":71,"time_elapsed":1413091,"internal_node_id":"0.0-6.0-65.0"},{"sim_score":1,"rt":6994,"stimulus":"[\"img/0899/0adc0bc3-6fca-4078-be6f-d45ddf1653d5.jpg\",\"img/0868/5fa7f9d0-f0e5-454c-8224-74d964818f56.jpg\"]","trial_type":"similarity","trial_index":72,"time_elapsed":1421099,"internal_node_id":"0.0-6.0-66.0"},{"sim_score":4,"rt":7528,"stimulus":"[\"img/0866/07c9c966-3c8d-40e7-8128-92b2acbaed5d.jpg\",\"img/0862/d0ca4c78-fc35-46ed-bdcc-8e124283c53e.jpg\"]","trial_type":"similarity","trial_index":73,"time_elapsed":1429642,"internal_node_id":"0.0-6.0-67.0"},{"sim_score":5,"rt":4077,"stimulus":"[\"img/0860/702bd09d-df3a-40aa-a267-5f04474305b5.jpg\",\"img/0758/f61ecdf8-a7d4-4db0-b84d-be46f7cfaffc.jpg\"]","trial_type":"similarity","trial_index":74,"time_elapsed":1434730,"internal_node_id":"0.0-6.0-68.0"},{"sim_score":1,"rt":5735,"stimulus":"[\"img/0902/24d10fe7-314f-4d5a-8c7b-b43121bba0a4.jpg\",\"img/0867/98d8cd96-1476-4fe0-a3a3-04f875500a1b.jpg\"]","trial_type":"similarity","trial_index":75,"time_elapsed":1441489,"internal_node_id":"0.0-6.0-69.0"},{"sim_score":3,"rt":6688,"stimulus":"[\"img/0862/de9ad88c-b522-430a-8ee9-eb06a9f85df5.jpg\",\"img/0901/04a53755-6da5-44d4-a7a6-48a6bc0a2280.jpg\"]","trial_type":"similarity","trial_index":76,"time_elapsed":1449194,"internal_node_id":"0.0-6.0-70.0"},{"sim_score":7,"rt":4881,"stimulus":"[\"img/0867/8ba0c5a7-c7e4-42cf-a80a-543763b90779.jpg\",\"img/0866/620cd1aa-0800-4414-8f6e-90342e7a99ad.jpg\"]","trial_type":"similarity","trial_index":77,"time_elapsed":1455081,"internal_node_id":"0.0-6.0-71.0"},{"sim_score":1,"rt":4787,"stimulus":"[\"img/0860/5383b320-1518-4095-a58e-5cc1ae30b64c.jpg\",\"img/0904/b5855d6a-7ef9-46ca-9215-6e9fa046e543.jpg\"]","trial_type":"similarity","trial_index":78,"time_elapsed":1460881,"internal_node_id":"0.0-6.0-72.0"},{"sim_score":1,"rt":4426,"stimulus":"[\"img/0875/2c361b79-c3d1-4eda-812e-bf03192407bf.jpg\",\"img/0899/a05bea16-2bb4-4cb9-b8fb-4ff975db6971.jpg\"]","trial_type":"similarity","trial_index":79,"time_elapsed":1466329,"internal_node_id":"0.0-6.0-73.0"},{"sim_score":1,"rt":4267,"stimulus":"[\"img/0899/56a605c3-d0a2-4215-89e1-779279d85a7c.jpg\",\"img/0758/821c68d3-5cb0-4eae-8659-30e6263fca39.jpg\"]","trial_type":"similarity","trial_index":80,"time_elapsed":1471601,"internal_node_id":"0.0-6.0-74.0"},{"sim_score":6,"rt":4522,"stimulus":"[\"img/0862/7918ca67-5bd3-4606-a5ea-c39fb11a9297.jpg\",\"img/0875/99698b4d-b4a1-44bc-8c83-8ea755bbbf61.jpg\"]","trial_type":"similarity","trial_index":81,"time_elapsed":1482287,"internal_node_id":"0.0-6.0-75.0"},{"sim_score":4,"rt":6567,"stimulus":"[\"img/0901/3db47171-0139-4235-82cd-0b1787b6775f.jpg\",\"img/0894/8cadb87a-7001-4e47-99fb-1867bebf1668.jpg\"]","trial_type":"similarity","trial_index":82,"time_elapsed":1489872,"internal_node_id":"0.0-6.0-76.0"},{"sim_score":1,"rt":4250,"stimulus":"[\"img/0766/d14acac4-7db1-4b07-8f8f-302437326fc0.jpg\",\"img/0758/7fba58df-2a7a-4b76-8a8f-62739f97f271.jpg\"]","trial_type":"similarity","trial_index":83,"time_elapsed":1495144,"internal_node_id":"0.0-6.0-77.0"},{"sim_score":6,"rt":4743,"stimulus":"[\"img/0894/e6385e52-6c35-43bd-b0af-bc803d107b11.jpg\",\"img/0764/e0788029-9d7f-414c-b747-46d2a99f7c86.jpg\"]","trial_type":"similarity","trial_index":84,"time_elapsed":1500903,"internal_node_id":"0.0-6.0-78.0"},{"sim_score":4,"rt":6156,"stimulus":"[\"img/0860/87039971-2210-4aab-93c0-8e9b5f1655b2.jpg\",\"img/0867/de92135f-5b65-4ed9-b245-188292c7c2f8.jpg\"]","trial_type":"similarity","trial_index":85,"time_elapsed":1508080,"internal_node_id":"0.0-6.0-79.0"},{"sim_score":3,"rt":6194,"stimulus":"[\"img/0898/224c1572-56b9-4f16-a9e4-6f3bc9c114bd.jpg\",\"img/0901/12da1841-e611-435c-9719-109413d536a8.jpg\"]","trial_type":"similarity","trial_index":86,"time_elapsed":1515295,"internal_node_id":"0.0-6.0-80.0"},{"sim_score":1,"rt":4278,"stimulus":"[\"img/0874/1016b306-087c-4afc-aa08-fa527b28dc76.jpg\",\"img/0764/b887d7c6-aa81-4637-af8e-05135757ac59.jpg\"]","trial_type":"similarity","trial_index":87,"time_elapsed":1520592,"internal_node_id":"0.0-6.0-81.0"},{"sim_score":1,"rt":5075,"stimulus":"[\"img/0899/51a7a498-98c7-42d7-bca8-bc2d8f0b5831.jpg\",\"img/0862/ad593cc7-cabe-4bb7-8e14-8a447a0717b4.jpg\"]","trial_type":"similarity","trial_index":88,"time_elapsed":1526687,"internal_node_id":"0.0-6.0-82.0"},{"sim_score":1,"rt":5112,"stimulus":"[\"img/0766/fd064894-7147-4af5-97e9-2089d5472656.jpg\",\"img/0901/d61f267a-c492-4db6-9bfb-61efd49cf072.jpg\"]","trial_type":"similarity","trial_index":89,"time_elapsed":1532815,"internal_node_id":"0.0-6.0-83.0"},{"sim_score":1,"rt":4359,"stimulus":"[\"img/0881/5fe04dd0-5c74-47b7-99c8-b068db9ca26a.jpg\",\"img/0898/881e2a85-d5c2-49be-a0c6-8a6ce2c4af08.jpg\"]","trial_type":"similarity","trial_index":90,"time_elapsed":1538199,"internal_node_id":"0.0-6.0-84.0"},{"sim_score":4,"rt":5990,"stimulus":"[\"img/0868/15dd6fd7-791e-4b53-b203-195d617521a4.jpg\",\"img/0860/15b24a61-25be-4356-9eac-5ce95d0cb4a4.jpg\"]","trial_type":"similarity","trial_index":91,"time_elapsed":1545214,"internal_node_id":"0.0-6.0-85.0"},{"sim_score":6,"rt":6330,"stimulus":"[\"img/0758/7ffbc76b-1fc1-432c-8f7e-9ec8d1b3f643.jpg\",\"img/0868/6a28c3b0-3d76-498a-9fb7-ddafc665eca8.jpg\"]","trial_type":"similarity","trial_index":92,"time_elapsed":1552566,"internal_node_id":"0.0-6.0-86.0"},{"sim_score":1,"rt":4439,"stimulus":"[\"img/0864/9b2490c5-a282-400a-9736-e1a0ecbf1cb7.jpg\",\"img/0894/5f15154e-e72e-4ce5-aafb-bce6f0564006.jpg\"]","trial_type":"similarity","trial_index":93,"time_elapsed":1558030,"internal_node_id":"0.0-6.0-87.0"},{"sim_score":1,"rt":4263,"stimulus":"[\"img/0866/4a87911a-d5be-4d4e-ab8e-3d1f581bf507.jpg\",\"img/0902/fbef27fa-ac83-4936-ab78-9d1c20a383e1.jpg\"]","trial_type":"similarity","trial_index":94,"time_elapsed":1563309,"internal_node_id":"0.0-6.0-88.0"},{"sim_score":1,"rt":5075,"stimulus":"[\"img/0769/387a9744-d6a7-42b8-bab8-33007ec434aa.jpg\",\"img/0867/db7e032f-162b-46f5-ae67-2b29679adee4.jpg\"]","trial_type":"similarity","trial_index":95,"time_elapsed":1569397,"internal_node_id":"0.0-6.0-89.0"},{"sim_score":6,"rt":6490,"stimulus":"[\"img/0874/99f6563c-8a8d-4c1c-a41d-667b618c3fd5.jpg\",\"img/0875/ebf7653f-ff45-4e9f-af58-2c042ab3cd2b.jpg\"]","trial_type":"similarity","trial_index":96,"time_elapsed":1576910,"internal_node_id":"0.0-6.0-90.0"},{"sim_score":5,"rt":5589,"stimulus":"[\"img/0864/87c467d3-abca-482f-ad80-3766c21b1bb3.jpg\",\"img/0874/adf9a8f1-c40b-402b-b95b-1e85a54a7b62.jpg\"]","trial_type":"similarity","trial_index":97,"time_elapsed":1583525,"internal_node_id":"0.0-6.0-91.0"},{"sim_score":5,"rt":5871,"stimulus":"[\"img/0881/14236cf2-6b95-48b8-9368-78af09d2d27f.jpg\",\"img/0862/4f0a3b4c-afbf-486e-b248-1d54982f54b4.jpg\"]","trial_type":"similarity","trial_index":98,"time_elapsed":1590413,"internal_node_id":"0.0-6.0-92.0"},{"sim_score":7,"rt":7480,"stimulus":"[\"img/0864/0f537697-a314-47c3-a8cc-8df23b7e536c.jpg\",\"img/0881/f62bdcd1-a4b7-4d48-83da-d9c9e01c8727.jpg\"]","trial_type":"similarity","trial_index":99,"time_elapsed":1598908,"internal_node_id":"0.0-6.0-93.0"},{"sim_score":5,"rt":6229,"stimulus":"[\"img/0899/a048912c-b12c-40e3-90af-46b69b0cc4fe.jpg\",\"img/0901/fb0a8e69-7f19-4e6e-a6bb-a48f97f9b4f3.jpg\"]","trial_type":"similarity","trial_index":100,"time_elapsed":1606149,"internal_node_id":"0.0-6.0-94.0"},{"sim_score":1,"rt":4621,"stimulus":"[\"img/0874/29830da7-be5f-44e5-b141-652a0ccf7269.jpg\",\"img/0766/d5d38751-8fa5-476f-93e9-86ed2d9045ef.jpg\"]","trial_type":"similarity","trial_index":101,"time_elapsed":1611795,"internal_node_id":"0.0-6.0-95.0"},{"sim_score":1,"rt":4530,"stimulus":"[\"img/0881/445edb15-bd7f-4af3-8bd5-c6ad9677bb31.jpg\",\"img/0899/9de5e857-aa9a-4e0c-8ba2-46d79bd069a4.jpg\"]","trial_type":"similarity","trial_index":102,"time_elapsed":1617340,"internal_node_id":"0.0-6.0-96.0"},{"sim_score":1,"rt":5617,"stimulus":"[\"img/0862/24cdc752-c2e5-4a17-86a6-6f2045d8553b.jpg\",\"img/0902/62f11694-7ed7-4cb7-8a73-9e95c43824e7.jpg\"]","trial_type":"similarity","trial_index":103,"time_elapsed":1623971,"internal_node_id":"0.0-6.0-97.0"},{"sim_score":6,"rt":5424,"stimulus":"[\"img/0899/ddf96ade-692e-4602-bd22-dedbb46401bc.jpg\",\"img/0764/1def7b22-b054-4ec2-860b-73d25691823b.jpg\"]","trial_type":"similarity","trial_index":104,"time_elapsed":1630419,"internal_node_id":"0.0-6.0-98.0"},{"sim_score":6,"rt":5208,"stimulus":"[\"img/0758/b76ceca7-95ac-46e4-ac13-da02c8e93be9.jpg\",\"img/0862/cdaed51d-9e2f-4807-801a-4663c40077e2.jpg\"]","trial_type":"similarity","trial_index":105,"time_elapsed":1636635,"internal_node_id":"0.0-6.0-99.0"},{"sim_score":4,"rt":8188,"stimulus":"[\"img/0764/0e7ed062-f798-4366-8a24-6f430926f919.jpg\",\"img/0898/cd3aaa3f-efa9-4ab3-8d6f-a6a9273ddf42.jpg\"]","trial_type":"similarity","trial_index":106,"time_elapsed":1645827,"internal_node_id":"0.0-6.0-100.0"},{"sim_score":5,"rt":6974,"stimulus":"[\"img/0901/d6d15b1c-4a30-4f74-a3fd-d4c8ee4169ca.jpg\",\"img/0902/97022122-01e4-46c3-a34f-c6260ad28428.jpg\"]","trial_type":"similarity","trial_index":107,"time_elapsed":1653827,"internal_node_id":"0.0-6.0-101.0"},{"sim_score":1,"rt":4664,"stimulus":"[\"img/0764/56441045-b648-4ede-9632-3e9c0227080b.jpg\",\"img/0868/179a5502-ab5c-478e-8263-5a1fbcc101d2.jpg\"]","trial_type":"similarity","trial_index":108,"time_elapsed":1659506,"internal_node_id":"0.0-6.0-102.0"},{"sim_score":1,"rt":5270,"stimulus":"[\"img/0769/aad494cc-674d-4a08-9bfa-24a88ebe3c79.jpg\",\"img/0881/d373cb9f-a719-4549-a2a4-82def79fb2a5.jpg\"]","trial_type":"similarity","trial_index":109,"time_elapsed":1665794,"internal_node_id":"0.0-6.0-103.0"},{"sim_score":5,"rt":6339,"stimulus":"[\"img/0864/e02eddb5-f468-499c-91bf-f7be3ffe979b.jpg\",\"img/0769/8c7cf147-1780-4d5c-8ddf-5ea23ff03ac9.jpg\"]","trial_type":"similarity","trial_index":110,"time_elapsed":1673153,"internal_node_id":"0.0-6.0-104.0"},{"sim_score":5,"rt":4732,"stimulus":"[\"img/0866/d266fece-59b3-46fa-b69f-96f6efb81b59.jpg\",\"img/0868/4a8a45ed-2c4f-421b-9564-409a33ecd26c.jpg\"]","trial_type":"similarity","trial_index":111,"time_elapsed":1678914,"internal_node_id":"0.0-6.0-105.0"},{"sim_score":5,"rt":5868,"stimulus":"[\"img/0868/fd307a36-9a3a-47d7-ab7c-f810d0b35040.jpg\",\"img/0862/00c06b00-3b73-44e9-bc1e-c5aafb438321.jpg\"]","trial_type":"similarity","trial_index":112,"time_elapsed":1685801,"internal_node_id":"0.0-6.0-106.0"},{"sim_score":5,"rt":5443,"stimulus":"[\"img/0766/717fd72f-a281-499b-a5ba-5e2ecc4d4866.jpg\",\"img/0898/40f99fb2-64d2-4e72-8a7f-a1cf60741e69.jpg\"]","trial_type":"similarity","trial_index":113,"time_elapsed":1692265,"internal_node_id":"0.0-6.0-107.0"},{"sim_score":1,"rt":5433,"stimulus":"[\"img/0898/f3a3f225-1248-4ac7-b93b-f0ff28485bf3.jpg\",\"img/0864/49150900-7f25-4ce8-8d10-9b47a71d1997.jpg\"]","trial_type":"similarity","trial_index":114,"time_elapsed":1698705,"internal_node_id":"0.0-6.0-108.0"},{"sim_score":1,"rt":5069,"stimulus":"[\"img/0868/d6d1f30d-4323-435a-b194-7892521bc57e.jpg\",\"img/0902/2a7ac123-414a-476a-9a96-4757b924baef.jpg\"]","trial_type":"similarity","trial_index":115,"time_elapsed":1704785,"internal_node_id":"0.0-6.0-109.0"},{"sim_score":6,"rt":5872,"stimulus":"[\"img/0904/4e58005d-a2ec-4aaa-b199-445343561396.jpg\",\"img/0764/d7f3ac54-318a-4dac-a06b-62bed34d01a4.jpg\"]","trial_type":"similarity","trial_index":116,"time_elapsed":1711673,"internal_node_id":"0.0-6.0-110.0"},{"sim_score":1,"rt":4891,"stimulus":"[\"img/0894/2d2db7b3-e8a3-499b-b63a-14f51bf73882.jpg\",\"img/0875/fb732ab5-013a-4366-9f65-27811ed157e9.jpg\"]","trial_type":"similarity","trial_index":117,"time_elapsed":1717584,"internal_node_id":"0.0-6.0-111.0"},{"sim_score":3,"rt":6747,"stimulus":"[\"img/0868/293079b8-7e0c-4afd-a390-1e5d35fe3ded.jpg\",\"img/0874/3ce41e7c-40c8-4d58-a546-171114521796.jpg\"]","trial_type":"similarity","trial_index":118,"time_elapsed":1725351,"internal_node_id":"0.0-6.0-112.0"},{"sim_score":7,"rt":5013,"stimulus":"[\"img/0904/06dacdc5-2206-4fb8-92b7-88042d22833c.jpg\",\"img/0898/a8f16b02-e19f-423b-86c3-a36562ae1f9b.jpg\"]","trial_type":"similarity","trial_index":119,"time_elapsed":1736070,"internal_node_id":"0.0-6.0-113.0"},{"sim_score":1,"rt":4390,"stimulus":"[\"img/0860/4a022222-056d-461c-ab02-39fac9647552.jpg\",\"img/0766/db750ba0-ce04-46e1-b601-e1b80212bad2.jpg\"]","trial_type":"similarity","trial_index":120,"time_elapsed":1741471,"internal_node_id":"0.0-6.0-114.0"},{"sim_score":1,"rt":4460,"stimulus":"[\"img/0894/4739e06d-c31e-4bf1-bf91-c97fa9afb456.jpg\",\"img/0874/767f289c-9814-4496-803f-745cc8913d1f.jpg\"]","trial_type":"similarity","trial_index":121,"time_elapsed":1746952,"internal_node_id":"0.0-6.0-115.0"},{"sim_score":5,"rt":6936,"stimulus":"[\"img/0899/0433d056-aa30-4f8a-9aa1-abbb951e4edd.jpg\",\"img/0903/0e5c2854-42aa-48c0-9c3d-6e1ad2a400bd.jpg\"]","trial_type":"similarity","trial_index":122,"time_elapsed":1754903,"internal_node_id":"0.0-6.0-116.0"},{"sim_score":1,"rt":4367,"stimulus":"[\"img/0881/633c6f40-56d9-4b48-bf1c-ecd83116eabb.jpg\",\"img/0764/62fafeea-6274-48ce-976f-35d3d3484c65.jpg\"]","trial_type":"similarity","trial_index":123,"time_elapsed":1760287,"internal_node_id":"0.0-6.0-117.0"},{"sim_score":5,"rt":4614,"stimulus":"[\"img/0903/97a42b34-5462-4665-88c7-83c014b33d24.jpg\",\"img/0769/458d9c77-b844-40b5-bb1b-1e3bbd4da64e.jpg\"]","trial_type":"similarity","trial_index":124,"time_elapsed":1765919,"internal_node_id":"0.0-6.0-118.0"},{"sim_score":1,"rt":5269,"stimulus":"[\"img/0901/233a6948-48eb-4b67-8259-222b916b2322.jpg\",\"img/0904/2f88ce53-02d0-4f95-a082-182c56a0eeb4.jpg\"]","trial_type":"similarity","trial_index":125,"time_elapsed":1772206,"internal_node_id":"0.0-6.0-119.0"},{"sim_score":5,"rt":4768,"stimulus":"[\"img/0860/c5ccd1a4-4bb7-48e1-9b25-72cfaf06909b.jpg\",\"img/0881/62a64f90-7a72-4aee-a1a1-0c548ac9bdda.jpg\"]","trial_type":"similarity","trial_index":126,"time_elapsed":1777982,"internal_node_id":"0.0-6.0-120.0"},{"sim_score":6,"rt":4977,"stimulus":"[\"img/0758/a085b443-b5d7-4cb2-9ad4-b9dab0fc23f1.jpg\",\"img/0874/c0378dac-9370-439a-8b79-db27c96fb390.jpg\"]","trial_type":"similarity","trial_index":127,"time_elapsed":1783974,"internal_node_id":"0.0-6.0-121.0"},{"sim_score":1,"rt":5068,"stimulus":"[\"img/0901/b13fa50f-dbe0-4d0f-8647-6ac0fd8f40bd.jpg\",\"img/0769/48a1144d-fbda-4809-991b-fc8424a32ee4.jpg\"]","trial_type":"similarity","trial_index":128,"time_elapsed":1790070,"internal_node_id":"0.0-6.0-122.0"},{"sim_score":5,"rt":6022,"stimulus":"[\"img/0902/44cd9b7e-fdfb-4f78-90de-8d4c9d279365.jpg\",\"img/0904/65e2b70a-b184-4da3-b5c0-5038bdf9469a.jpg\"]","trial_type":"similarity","trial_index":129,"time_elapsed":1797102,"internal_node_id":"0.0-6.0-123.0"},{"sim_score":1,"rt":4296,"stimulus":"[\"img/0899/06b0fc99-0581-461a-9913-d1a5a941ac61.jpg\",\"img/0864/300bb811-8b3c-4c42-8653-6097c3725197.jpg\"]","trial_type":"similarity","trial_index":130,"time_elapsed":1802413,"internal_node_id":"0.0-6.0-124.0"},{"sim_score":1,"rt":4264,"stimulus":"[\"img/0766/006035d8-c736-4daf-bbe4-a9e373af9da6.jpg\",\"img/0868/e0aff734-077f-40dd-9781-74821abd3621.jpg\"]","trial_type":"similarity","trial_index":131,"time_elapsed":1807702,"internal_node_id":"0.0-6.0-125.0"},{"sim_score":1,"rt":4482,"stimulus":"[\"img/0764/39a9fc7e-b863-432c-9374-de43983f31a5.jpg\",\"img/0864/1d15626a-2f7c-410f-819c-0fa2c967e95e.jpg\"]","trial_type":"similarity","trial_index":132,"time_elapsed":1813197,"internal_node_id":"0.0-6.0-126.0"},{"sim_score":1,"rt":4422,"stimulus":"[\"img/0899/4f7bc593-8ddd-4da3-a0b9-84da730d3370.jpg\",\"img/0866/a15b02be-11bb-43e3-b0e0-ecc3bd7dfc49.jpg\"]","trial_type":"similarity","trial_index":133,"time_elapsed":1818636,"internal_node_id":"0.0-6.0-127.0"},{"sim_score":1,"rt":4279,"stimulus":"[\"img/0901/875dedb9-24c9-4443-9f8c-85e97d70ee5a.jpg\",\"img/0881/4bd34581-94d8-4e88-8c89-5cef864ca3be.jpg\"]","trial_type":"similarity","trial_index":134,"time_elapsed":1823933,"internal_node_id":"0.0-6.0-128.0"},{"sim_score":7,"rt":5583,"stimulus":"[\"img/0898/04e39a7a-fcf6-4156-ab0e-f5871f335e1c.jpg\",\"img/0903/776b74ee-a8ab-4ab8-a78d-097c0747538d.jpg\"]","trial_type":"similarity","trial_index":135,"time_elapsed":1830543,"internal_node_id":"0.0-6.0-129.0"},{"sim_score":5,"rt":5839,"stimulus":"[\"img/0894/1a010553-d598-4b06-a772-81f1e7b3addb.jpg\",\"img/0867/ac1797e4-8afc-48fe-b252-86d1defb1cca.jpg\"]","trial_type":"similarity","trial_index":136,"time_elapsed":1837395,"internal_node_id":"0.0-6.0-130.0"},{"sim_score":1,"rt":4386,"stimulus":"[\"img/0874/eba003b4-cdab-4eee-8bc3-f064c7d94165.jpg\",\"img/0903/3e9ee8a5-eb66-47f5-8973-8a5af1ddc87e.jpg\"]","trial_type":"similarity","trial_index":137,"time_elapsed":1842804,"internal_node_id":"0.0-6.0-131.0"},{"sim_score":5,"rt":6290,"stimulus":"[\"img/0899/fef567a2-c121-4481-9af0-ff108d199bbf.jpg\",\"img/0898/5f699581-3853-4547-856c-12f419ba5af7.jpg\"]","trial_type":"similarity","trial_index":138,"time_elapsed":1850115,"internal_node_id":"0.0-6.0-132.0"},{"sim_score":1,"rt":4653,"stimulus":"[\"img/0867/1719a35d-f085-48c0-9099-16c94fe418b4.jpg\",\"img/0764/c01e2d65-6586-441b-bef5-3c96fcd85380.jpg\"]","trial_type":"similarity","trial_index":139,"time_elapsed":1855788,"internal_node_id":"0.0-6.0-133.0"},{"sim_score":2,"rt":6505,"stimulus":"[\"img/0866/93a27239-8317-4e08-98ca-d8b1ff298e07.jpg\",\"img/0769/db94b61b-a5a7-4861-9d32-7b02ad194fb0.jpg\"]","trial_type":"similarity","trial_index":140,"time_elapsed":1863305,"internal_node_id":"0.0-6.0-134.0"},{"sim_score":7,"rt":4988,"stimulus":"[\"img/0860/c7047cd2-7cc1-41b6-8a34-c0986774975f.jpg\",\"img/0898/79233891-305a-4a6a-8ddf-5c8604858203.jpg\"]","trial_type":"similarity","trial_index":141,"time_elapsed":1869318,"internal_node_id":"0.0-6.0-135.0"},{"sim_score":1,"rt":4898,"stimulus":"[\"img/0881/ed4c971f-0873-4fc8-b6d6-e8bbd82f0bcc.jpg\",\"img/0903/70d764d9-1f35-4da7-a35d-4cc39834d270.jpg\"]","trial_type":"similarity","trial_index":142,"time_elapsed":1875235,"internal_node_id":"0.0-6.0-136.0"},{"sim_score":7,"rt":10074,"stimulus":"[\"img/0894/5c7677b0-a4f1-479e-b274-7822c415175a.jpg\",\"img/0766/ea09dd5a-d24d-4e97-a099-7da3db1baef1.jpg\"]","trial_type":"similarity","trial_index":143,"time_elapsed":1886323,"internal_node_id":"0.0-6.0-137.0"},{"sim_score":1,"rt":4346,"stimulus":"[\"img/0860/524b2e98-5767-4d53-942c-ebae6925659b.jpg\",\"img/0764/4952d0a0-c9be-471a-8ec7-94a37bf4051d.jpg\"]","trial_type":"similarity","trial_index":144,"time_elapsed":1891691,"internal_node_id":"0.0-6.0-138.0"},{"sim_score":6,"rt":4463,"stimulus":"[\"img/0769/3adfa417-3b90-4aab-b437-5eaa474189cb.jpg\",\"img/0902/f3cfec34-482c-4bdb-9c92-19ea6cfce183.jpg\"]","trial_type":"similarity","trial_index":145,"time_elapsed":1897170,"internal_node_id":"0.0-6.0-139.0"},{"sim_score":5,"rt":4612,"stimulus":"[\"img/0904/2fd488e9-960f-41f7-8a44-33375f7d5051.jpg\",\"img/0903/24477210-856c-4550-9de0-9f85a32762eb.jpg\"]","trial_type":"similarity","trial_index":146,"time_elapsed":1902802,"internal_node_id":"0.0-6.0-140.0"},{"sim_score":6,"rt":5136,"stimulus":"[\"img/0764/83c93cce-18d1-4aa7-9e23-2c268afe0a46.jpg\",\"img/0769/f2740c58-7c02-433f-920b-746b0b75435b.jpg\"]","trial_type":"similarity","trial_index":147,"time_elapsed":1908954,"internal_node_id":"0.0-6.0-141.0"},{"sim_score":1,"rt":4618,"stimulus":"[\"img/0902/0db94c50-f1fb-4091-953c-29ca0466bee2.jpg\",\"img/0881/84397291-bc14-4fbf-90e8-241e486ab0fe.jpg\"]","trial_type":"similarity","trial_index":148,"time_elapsed":1914594,"internal_node_id":"0.0-6.0-142.0"},{"sim_score":5,"rt":4840,"stimulus":"[\"img/0866/945c6710-d15b-4a5b-a8f6-69af0850357f.jpg\",\"img/0864/a248adb3-c70b-4652-b7a3-776d2a1e904b.jpg\"]","trial_type":"similarity","trial_index":149,"time_elapsed":1920449,"internal_node_id":"0.0-6.0-143.0"},{"sim_score":5,"rt":4540,"stimulus":"[\"img/0902/bd89a85f-3853-4786-acd6-98818ee29f1c.jpg\",\"img/0898/993d8f2d-bef7-4251-a193-0f93a32b7763.jpg\"]","trial_type":"similarity","trial_index":150,"time_elapsed":1926009,"internal_node_id":"0.0-6.0-144.0"},{"sim_score":6,"rt":5376,"stimulus":"[\"img/0862/eefa5588-9efd-4591-aa5f-a2e17c7d7bcc.jpg\",\"img/0864/6e846d43-94a6-4b37-a268-65eda979f052.jpg\"]","trial_type":"similarity","trial_index":151,"time_elapsed":1932409,"internal_node_id":"0.0-6.0-145.0"},{"sim_score":2,"rt":6787,"stimulus":"[\"img/0875/03c3c331-738b-4446-af92-3d7386b08c2e.jpg\",\"img/0898/661621d4-a14e-487c-8c74-354134a29710.jpg\"]","trial_type":"similarity","trial_index":152,"time_elapsed":1940218,"internal_node_id":"0.0-6.0-146.0"},{"sim_score":6,"rt":4860,"stimulus":"[\"img/0874/bf14b896-e930-4fd9-9c05-2e83317a2773.jpg\",\"img/0881/20af39f5-373d-4a55-a437-2dc4c0382c46.jpg\"]","trial_type":"similarity","trial_index":153,"time_elapsed":1946096,"internal_node_id":"0.0-6.0-147.0"},{"sim_score":1,"rt":4442,"stimulus":"[\"img/0758/eabcd7a8-56ad-4fd2-bc24-90f6b7b33265.jpg\",\"img/0894/e5edf723-72a5-4673-8441-6c1734a8929b.jpg\"]","trial_type":"similarity","trial_index":154,"time_elapsed":1951551,"internal_node_id":"0.0-6.0-148.0"},{"sim_score":1,"rt":4832,"stimulus":"[\"img/0904/09dac84f-3d1c-4445-a68e-d0389fdbf1e9.jpg\",\"img/0864/3651d070-2fc5-4848-b6a6-088a2d9ac5c9.jpg\"]","trial_type":"similarity","trial_index":155,"time_elapsed":1957407,"internal_node_id":"0.0-6.0-149.0"},{"sim_score":7,"rt":4954,"stimulus":"[\"img/0769/4a1d0b52-3fe8-40fb-bb1c-c814fe49a68c.jpg\",\"img/0899/ad8268c5-8199-48d0-ad70-c5b6d6c599ec.jpg\"]","trial_type":"similarity","trial_index":156,"time_elapsed":1963375,"internal_node_id":"0.0-6.0-150.0"},{"sim_score":5,"rt":5933,"stimulus":"[\"img/0764/d0bef2e0-e16b-4c82-9451-c1d16265eb67.jpg\",\"img/0903/2a9c8033-3e70-47fa-816d-97ee1813a3a3.jpg\"]","trial_type":"similarity","trial_index":157,"time_elapsed":1975950,"internal_node_id":"0.0-6.0-151.0"},{"sim_score":1,"rt":4163,"stimulus":"[\"img/0903/07b445ee-0cdb-4d2c-a23b-d727613f4059.jpg\",\"img/0864/1ebbc554-99fa-49f9-8799-317375a79820.jpg\"]","trial_type":"similarity","trial_index":158,"time_elapsed":1981135,"internal_node_id":"0.0-6.0-152.0"},{"sim_score":1,"rt":4405,"stimulus":"[\"img/0894/5ff3c4f6-52e2-4075-8679-be0312e59703.jpg\",\"img/0881/566f45f8-5fed-4479-a60f-26377e60a62d.jpg\"]","trial_type":"similarity","trial_index":159,"time_elapsed":1986550,"internal_node_id":"0.0-6.0-153.0"},{"sim_score":6,"rt":4423,"stimulus":"[\"img/0875/d59ff733-eaff-4ee2-9443-06954dd0bcb6.jpg\",\"img/0867/2e1a0b58-cdb1-4107-a14e-452530d7b9b0.jpg\"]","trial_type":"similarity","trial_index":160,"time_elapsed":1991990,"internal_node_id":"0.0-6.0-154.0"},{"sim_score":5,"rt":4977,"stimulus":"[\"img/0867/c71dc569-f49c-4397-8381-68b8d726736d.jpg\",\"img/0758/53f35650-e455-4b53-8be4-c3c8271c6466.jpg\"]","trial_type":"similarity","trial_index":161,"time_elapsed":1997983,"internal_node_id":"0.0-6.0-155.0"},{"sim_score":1,"rt":4209,"stimulus":"[\"img/0868/4bd5105a-d2c3-4f82-8c80-57196106ba53.jpg\",\"img/0901/33b51a81-06d9-46d9-9d4f-5a2d6d6b8058.jpg\"]","trial_type":"similarity","trial_index":162,"time_elapsed":2003206,"internal_node_id":"0.0-6.0-156.0"},{"sim_score":7,"rt":4892,"stimulus":"[\"img/0769/022c7e3b-c3f2-4119-b4bc-f22fa7cae18c.jpg\",\"img/0894/38f5931f-926d-414e-b498-66b188978b7a.jpg\"]","trial_type":"similarity","trial_index":163,"time_elapsed":2009117,"internal_node_id":"0.0-6.0-157.0"},{"sim_score":1,"rt":4226,"stimulus":"[\"img/0904/9dd5708f-3f8b-46a9-b49f-2f2fab87b357.jpg\",\"img/0758/e38fd80d-18d0-42f3-b848-f930788e8bd7.jpg\"]","trial_type":"similarity","trial_index":164,"time_elapsed":2014357,"internal_node_id":"0.0-6.0-158.0"},{"sim_score":1,"rt":4783,"stimulus":"[\"img/0874/8cdb1c07-1c32-46d2-981c-3636560fa6e5.jpg\",\"img/0904/9d30eff1-46ef-4453-b11e-124ef8145c00.jpg\"]","trial_type":"similarity","trial_index":165,"time_elapsed":2020157,"internal_node_id":"0.0-6.0-159.0"},{"sim_score":1,"rt":4753,"stimulus":"[\"img/0864/b3c4e378-28f0-4699-9338-2a257b4bca04.jpg\",\"img/0901/168eb52c-c415-43f1-b5c8-e76e1a1ec247.jpg\"]","trial_type":"similarity","trial_index":166,"time_elapsed":2025933,"internal_node_id":"0.0-6.0-160.0"},{"sim_score":1,"rt":5027,"stimulus":"[\"img/0898/c3cecf20-f7fd-45fa-97d0-dc0a63e8d6c0.jpg\",\"img/0866/c446214b-a368-4c65-ae39-ea46894256ab.jpg\"]","trial_type":"similarity","trial_index":167,"time_elapsed":2031982,"internal_node_id":"0.0-6.0-161.0"},{"sim_score":3,"rt":5105,"stimulus":"[\"img/0766/f5f78e4e-d88f-4866-951a-118ba9fec4d0.jpg\",\"img/0903/e2e55a9e-0397-4dc0-8adf-4a54cfefe1fe.jpg\"]","trial_type":"similarity","trial_index":168,"time_elapsed":2038101,"internal_node_id":"0.0-6.0-162.0"},{"sim_score":1,"rt":5581,"stimulus":"[\"img/0860/5bff793e-cbd5-4d7e-b628-0ac2b0e30b64.jpg\",\"img/0899/d8f2dd94-570e-4e8c-a087-d96090fb9e8c.jpg\"]","trial_type":"similarity","trial_index":169,"time_elapsed":2044692,"internal_node_id":"0.0-6.0-163.0"},{"sim_score":1,"rt":4506,"stimulus":"[\"img/0766/2746b119-4bba-463e-acf0-88136dc6600c.jpg\",\"img/0862/92fcd8a4-8193-4a6a-ae09-dd4a6338b0df.jpg\"]","trial_type":"similarity","trial_index":170,"time_elapsed":2050212,"internal_node_id":"0.0-6.0-164.0"},{"sim_score":5,"rt":4416,"stimulus":"[\"img/0898/b3290bf9-215b-4b45-b21a-65bdf73f142f.jpg\",\"img/0894/b422d5c6-3c5a-49ae-a53e-7e88ac993f49.jpg\"]","trial_type":"similarity","trial_index":171,"time_elapsed":2055644,"internal_node_id":"0.0-6.0-165.0"},{"sim_score":1,"rt":4167,"stimulus":"[\"img/0867/075e0f95-856b-4cbb-acf5-092393aaf04e.jpg\",\"img/0766/b84598d0-5b41-4841-88b0-b441b48289f5.jpg\"]","trial_type":"similarity","trial_index":172,"time_elapsed":2060836,"internal_node_id":"0.0-6.0-166.0"},{"sim_score":1,"rt":4156,"stimulus":"[\"img/0904/ba8e689e-9ca6-4608-a2a1-3b0940666ae6.jpg\",\"img/0862/99a99e39-8355-44ec-b993-e7bcec111e1c.jpg\"]","trial_type":"similarity","trial_index":173,"time_elapsed":2066012,"internal_node_id":"0.0-6.0-167.0"},{"sim_score":5,"rt":9565,"stimulus":"[\"img/0866/9b38d691-1802-4959-ab3f-fc902f0e4ea6.jpg\",\"img/0874/7e4f2150-3b59-4a36-b5da-a4e0ba410531.jpg\"]","trial_type":"similarity","trial_index":174,"time_elapsed":2076595,"internal_node_id":"0.0-6.0-168.0"},{"sim_score":1,"rt":4091,"stimulus":"[\"img/0903/aa842abe-6fa3-448a-bf71-88d3ad28663b.jpg\",\"img/0868/0d3abd3a-b6c3-4584-a9f7-e2da63748b3d.jpg\"]","trial_type":"similarity","trial_index":175,"time_elapsed":2081707,"internal_node_id":"0.0-6.0-169.0"},{"sim_score":6,"rt":4595,"stimulus":"[\"img/0769/f6396414-6788-4d59-9683-de153298d89c.jpg\",\"img/0904/63dd06dd-dccb-47ba-9740-eb33239e18a7.jpg\"]","trial_type":"similarity","trial_index":176,"time_elapsed":2087323,"internal_node_id":"0.0-6.0-170.0"},{"sim_score":2,"rt":5831,"stimulus":"[\"img/0875/5a1e5100-0d94-4fec-bbe9-ca9894d2cf8e.jpg\",\"img/0764/3297a811-ea8b-4d74-9547-59cecab7293a.jpg\"]","trial_type":"similarity","trial_index":177,"time_elapsed":2094171,"internal_node_id":"0.0-6.0-171.0"},{"sim_score":1,"rt":4294,"stimulus":"[\"img/0860/fd4662f9-4c03-4d79-8593-06735e55a64b.jpg\",\"img/0903/680ed18e-b311-4ecf-9b00-7dea32128334.jpg\"]","trial_type":"similarity","trial_index":178,"time_elapsed":2099483,"internal_node_id":"0.0-6.0-172.0"},{"sim_score":5,"rt":4251,"stimulus":"[\"img/0864/da39ad34-04e0-40d4-a724-c08d53e0ea09.jpg\",\"img/0867/f8488a47-94ee-4166-952c-44e16cf172f6.jpg\"]","trial_type":"similarity","trial_index":179,"time_elapsed":2104762,"internal_node_id":"0.0-6.0-173.0"},{"sim_score":6,"rt":6584,"stimulus":"[\"img/0868/7b212364-ff5f-4e28-9241-7eb6ea00161b.jpg\",\"img/0864/8ddd2e30-a1d0-479f-9cbe-591213023893.jpg\"]","trial_type":"similarity","trial_index":180,"time_elapsed":2112362,"internal_node_id":"0.0-6.0-174.0"},{"sim_score":4,"rt":6342,"stimulus":"[\"img/0898/0c7dde4f-efce-4b7a-9387-6921635b7890.jpg\",\"img/0769/35f2dd39-40aa-498e-b401-9f1ef2622d00.jpg\"]","trial_type":"similarity","trial_index":181,"time_elapsed":2119731,"internal_node_id":"0.0-6.0-175.0"},{"sim_score":6,"rt":6534,"stimulus":"[\"img/0766/a1ed3f0f-e338-4a26-8fe4-4370f0c9fa6e.jpg\",\"img/0764/ba0c0955-acbb-457d-b1c2-f006b88121d5.jpg\"]","trial_type":"similarity","trial_index":182,"time_elapsed":2127274,"internal_node_id":"0.0-6.0-176.0"},{"sim_score":1,"rt":4765,"stimulus":"[\"img/0764/ef0e64c6-d0dd-4dc6-87b6-ce5c0665f421.jpg\",\"img/0866/f756f7d1-9ad8-4a34-9ef6-7a443d705bfe.jpg\"]","trial_type":"similarity","trial_index":183,"time_elapsed":2133050,"internal_node_id":"0.0-6.0-177.0"},{"sim_score":1,"rt":4281,"stimulus":"[\"img/0902/94198618-7047-4dc9-ad04-85f4ba913067.jpg\",\"img/0875/a4935837-7d3c-4df6-88c1-36a94d4991ca.jpg\"]","trial_type":"similarity","trial_index":184,"time_elapsed":2138353,"internal_node_id":"0.0-6.0-178.0"},{"sim_score":1,"rt":4493,"stimulus":"[\"img/0881/ee44e27f-d662-4608-b265-e7ffa19b216f.jpg\",\"img/0904/da170c1b-9651-4f08-b231-2bdd1d9a046f.jpg\"]","trial_type":"similarity","trial_index":185,"time_elapsed":2143857,"internal_node_id":"0.0-6.0-179.0"},{"sim_score":5,"rt":5098,"stimulus":"[\"img/0874/995f0332-0439-4eb4-add3-957335dbf6d9.jpg\",\"img/0860/d9a0d117-6d1d-41c0-8fec-9aff0fd9e9f2.jpg\"]","trial_type":"similarity","trial_index":186,"time_elapsed":2149969,"internal_node_id":"0.0-6.0-180.0"},{"sim_score":2,"rt":8024,"stimulus":"[\"img/0769/688d0c52-ad73-4065-a5eb-f8c10d076bff.jpg\",\"img/0874/31e22c7c-99aa-40b1-bf03-dd73fa2df4d6.jpg\"]","trial_type":"similarity","trial_index":187,"time_elapsed":2159016,"internal_node_id":"0.0-6.0-181.0"},{"sim_score":5,"rt":7605,"stimulus":"[\"img/0904/6291eb43-c10c-4810-a36a-101d09868b04.jpg\",\"img/0766/6d32752d-aa05-40dc-9541-640b6e9d6fa1.jpg\"]","trial_type":"similarity","trial_index":188,"time_elapsed":2167640,"internal_node_id":"0.0-6.0-182.0"},{"sim_score":6,"rt":5539,"stimulus":"[\"img/0902/27b84584-948a-485b-8749-cb09929ef631.jpg\",\"img/0764/438c0217-036f-43c9-9b87-f43144e46011.jpg\"]","trial_type":"similarity","trial_index":189,"time_elapsed":2174200,"internal_node_id":"0.0-6.0-183.0"},{"sim_score":2,"rt":5806,"stimulus":"[\"img/0769/35364db7-e0d5-40ef-93dc-faf9dfb95136.jpg\",\"img/0875/2e13d160-eea1-416b-aff1-d37ab99ecc1d.jpg\"]","trial_type":"similarity","trial_index":190,"time_elapsed":2181023,"internal_node_id":"0.0-6.0-184.0"},{"sim_score":1,"rt":4250,"stimulus":"[\"img/0867/bf560d4f-dee3-4f11-a385-705cc1aa5f3c.jpg\",\"img/0903/59defeb8-98bd-4570-a2f8-9bd189e68ef4.jpg\"]","trial_type":"similarity","trial_index":191,"time_elapsed":2186287,"internal_node_id":"0.0-6.0-185.0"},{"sim_score":4,"rt":5209,"stimulus":"[\"img/0862/847e5208-38ec-4f36-949c-296cdd7424ee.jpg\",\"img/0769/14d393ce-e5be-4ca1-86ce-cc27d4b6074c.jpg\"]","trial_type":"similarity","trial_index":192,"time_elapsed":2192521,"internal_node_id":"0.0-6.0-186.0"},{"sim_score":1,"rt":4217,"stimulus":"[\"img/0766/09f646c8-a69e-4ed3-879c-8d29b04ad7f9.jpg\",\"img/0866/386235d2-6857-41e7-88a8-25cfc3430025.jpg\"]","trial_type":"similarity","trial_index":193,"time_elapsed":2197751,"internal_node_id":"0.0-6.0-187.0"},{"sim_score":4,"rt":4923,"stimulus":"[\"img/0769/11518cb3-13ea-4dd0-890c-30cfab728ade.jpg\",\"img/0860/71e1aad0-2cdf-43bb-94a4-a8c016997c30.jpg\"]","trial_type":"similarity","trial_index":194,"time_elapsed":2203695,"internal_node_id":"0.0-6.0-188.0"},{"sim_score":5,"rt":5948,"stimulus":"[\"img/0881/f037e3b0-09cb-4a83-b2d9-6a71fe474e63.jpg\",\"img/0868/77091fc7-a590-4ebb-b915-fdb2483a2399.jpg\"]","trial_type":"similarity","trial_index":195,"time_elapsed":2213101,"internal_node_id":"0.0-6.0-189.0"},{"view_history":"[{\"page_index\":0,\"viewing_time\":7224}]","rt":7224,"trial_type":"instructions","trial_index":196,"time_elapsed":2221341,"internal_node_id":"0.0-7.0"},{"rt":24338,"responses":"{\"Q0\":\"Nashville Warbler\"}","answer":["Nashville Warbler"],"trial_type":"image-multi-choice","trial_index":197,"time_elapsed":2246728,"internal_node_id":"0.0-8.0-0.0"},{"rt":13391,"responses":"{\"Q0\":\"Black-and-white Warbler\"}","answer":["Black-and-white Warbler"],"trial_type":"image-multi-choice","trial_index":198,"time_elapsed":2261157,"internal_node_id":"0.0-8.0-1.0"},{"rt":12580,"responses":"{\"Q0\":\"Townsend's Warbler\"}","answer":["Townsend's Warbler"],"trial_type":"image-multi-choice","trial_index":199,"time_elapsed":2274766,"internal_node_id":"0.0-8.0-2.0"},{"rt":26457,"responses":"{\"Q0\":\"Lark Sparrow\"}","answer":["Lark Sparrow"],"trial_type":"image-multi-choice","trial_index":200,"time_elapsed":2302244,"internal_node_id":"0.0-8.0-3.0"},{"rt":16348,"responses":"{\"Q0\":\"Yellow Warbler\"}","answer":["Yellow Warbler"],"trial_type":"image-multi-choice","trial_index":201,"time_elapsed":2319627,"internal_node_id":"0.0-8.0-4.0"},{"rt":28468,"responses":"{\"Q0\":\"Orange-crowned Warbler\"}","answer":["Orange-crowned Warbler"],"trial_type":"image-multi-choice","trial_index":202,"time_elapsed":2349131,"internal_node_id":"0.0-8.0-5.0"},{"rt":13750,"responses":"{\"Q0\":\"White-throated Sparrow\"}","answer":["White-throated Sparrow"],"trial_type":"image-multi-choice","trial_index":203,"time_elapsed":2363924,"internal_node_id":"0.0-8.0-6.0"},{"rt":45835,"responses":"{\"Q0\":\"Swamp Sparrow\"}","answer":["Fox Sparrow"],"trial_type":"image-multi-choice","trial_index":204,"time_elapsed":2410784,"internal_node_id":"0.0-8.0-7.0"},{"rt":58586,"responses":"{\"Q0\":\"White-crowned Sparrow\"}","answer":["Song Sparrow"],"trial_type":"image-multi-choice","trial_index":205,"time_elapsed":2470398,"internal_node_id":"0.0-8.0-8.0"},{"rt":9160,"responses":"{\"Q0\":\"Magnolia Warbler\"}","answer":["Blackburnian Warbler"],"trial_type":"image-multi-choice","trial_index":206,"time_elapsed":2480607,"internal_node_id":"0.0-8.0-9.0"},{"rt":20013,"responses":"{\"Q0\":\"Song Sparrow\"}","answer":["Vesper Sparrow"],"trial_type":"image-multi-choice","trial_index":207,"time_elapsed":2501662,"internal_node_id":"0.0-8.0-10.0"},{"rt":19364,"responses":"{\"Q0\":\"White-crowned Sparrow\"}","answer":["White-crowned Sparrow"],"trial_type":"image-multi-choice","trial_index":208,"time_elapsed":2522070,"internal_node_id":"0.0-8.0-11.0"},{"rt":14778,"responses":"{\"Q0\":\"American Tree Sparrow\"}","answer":["American Tree Sparrow"],"trial_type":"image-multi-choice","trial_index":209,"time_elapsed":2537885,"internal_node_id":"0.0-8.0-12.0"},{"rt":34326,"responses":"{\"Q0\":\"Tennessee Warbler\"}","answer":["Tennessee Warbler"],"trial_type":"image-multi-choice","trial_index":210,"time_elapsed":2573244,"internal_node_id":"0.0-8.0-13.0"},{"rt":8298,"responses":"{\"Q0\":\"Blackburnian Warbler\"}","answer":["Magnolia Warbler"],"trial_type":"image-multi-choice","trial_index":211,"time_elapsed":2582571,"internal_node_id":"0.0-8.0-14.0"},{"rt":7935,"responses":"{\"Q0\":\"Northern Waterthrush\"}","answer":["Northern Waterthrush"],"trial_type":"image-multi-choice","trial_index":212,"time_elapsed":2591523,"internal_node_id":"0.0-8.0-15.0"},{"rt":13185,"responses":"{\"Q0\":\"Vesper Sparrow\"}","answer":["Chipping Sparrow"],"trial_type":"image-multi-choice","trial_index":213,"time_elapsed":2605753,"internal_node_id":"0.0-8.0-16.0"},{"rt":17867,"responses":"{\"Q0\":\"American Tree Sparrow\"}","answer":["Swamp Sparrow"],"trial_type":"image-multi-choice","trial_index":214,"time_elapsed":2624656,"internal_node_id":"0.0-8.0-17.0"},{"rt":9789,"responses":"{\"Q0\":\"Ovenbird\"}","answer":["Lincoln's Sparrow"],"trial_type":"image-multi-choice","trial_index":215,"time_elapsed":2635480,"internal_node_id":"0.0-8.0-18.0"},{"rt":9430,"responses":"{\"Q0\":\"Ovenbird\"}","answer":["Ovenbird"],"trial_type":"image-multi-choice","trial_index":216,"time_elapsed":2645936,"internal_node_id":"0.0-8.0-19.0"}]