"view_history","rt","trial_type","trial_index","time_elapsed","internal_node_id","sim_score","stimulus","responses","answer"
"[{""page_index"":0,""viewing_time"":13296}]","13297","instructions","0","13298","0.0-0.0","","","",""
"","5265","similarity_demo","1","19570","0.0-1.0","7","[""img/bluejay1.jpg"",""img/bluejay2.jpg""]","",""
"[{""page_index"":0,""viewing_time"":4918}]","4918","instructions","2","25489","0.0-2.0","","","",""
"","5528","similarity_demo","3","32023","0.0-3.0","6","[""img/bluejay1.jpg"",""img/cardinal1.jpg""]","",""
"[{""page_index"":0,""viewing_time"":6686}]","6687","instructions","4","39712","0.0-4.0","","","",""
"[{""page_index"":0,""viewing_time"":10051}]","10052","instructions","5","50765","0.0-5.0","","","",""
"","6347","similarity","6","58118","0.0-6.0-0.0","4","[""img/0868/1a62b2b2-18f5-466e-b564-5176a57c565e.jpg"",""img/0894/e6385e52-6c35-43bd-b0af-bc803d107b11.jpg""]","",""
"","5619","similarity","7","64742","0.0-6.0-1.0","4","[""img/0898/6cd3830b-d44e-4915-be2b-88d31424b91c.jpg"",""img/0758/f61ecdf8-a7d4-4db0-b84d-be46f7cfaffc.jpg""]","",""
"","5567","similarity","8","71313","0.0-6.0-2.0","3","[""img/0903/14f179a2-8786-48a2-8377-88d1d404341b.jpg"",""img/0894/767a0eec-1064-46b1-b1aa-dfa02b0cd74e.jpg""]","",""
"","6632","similarity","9","78949","0.0-6.0-3.0","5","[""img/0881/0c7068da-d0d9-4103-bda1-74ef7a2b32c3.jpg"",""img/0766/27f54113-8561-4568-9ffe-0a1650ae65ec.jpg""]","",""
"","5443","similarity","10","85398","0.0-6.0-4.0","6","[""img/0864/da39ad34-04e0-40d4-a724-c08d53e0ea09.jpg"",""img/0860/c3379ff7-0763-48fe-a1ec-7ea3d611bc7a.jpg""]","",""
"","4950","similarity","11","91351","0.0-6.0-5.0","6","[""img/0902/3b243e54-0803-4c29-af42-4037c2118495.jpg"",""img/0899/66ab3178-c3fe-4455-ad17-d5952b08e018.jpg""]","",""
"","4692","similarity","12","97048","0.0-6.0-6.0","4","[""img/0868/77091fc7-a590-4ebb-b915-fdb2483a2399.jpg"",""img/0769/f2740c58-7c02-433f-920b-746b0b75435b.jpg""]","",""
"","6741","similarity","13","104794","0.0-6.0-7.0","4","[""img/0764/83c93cce-18d1-4aa7-9e23-2c268afe0a46.jpg"",""img/0901/04a53755-6da5-44d4-a7a6-48a6bc0a2280.jpg""]","",""
"","4126","similarity","14","109924","0.0-6.0-8.0","3","[""img/0881/c843e210-bdfe-4a7c-8bbe-fcea1f90fe1c.jpg"",""img/0866/386235d2-6857-41e7-88a8-25cfc3430025.jpg""]","",""
"","6174","similarity","15","117103","0.0-6.0-9.0","2","[""img/0867/50a1b60e-3a29-44bf-b606-d4bd3746fea9.jpg"",""img/0899/25ae6ec8-9565-49fe-a8bb-8d0666f52716.jpg""]","",""
"","6359","similarity","16","124466","0.0-6.0-10.0","3","[""img/0875/527ced51-8e53-4aab-ab05-86df219104c0.jpg"",""img/0766/09f646c8-a69e-4ed3-879c-8d29b04ad7f9.jpg""]","",""
"","5018","similarity","17","130488","0.0-6.0-11.0","3","[""img/0901/443f2e59-199b-4f7b-9de9-c44ad97326a5.jpg"",""img/0875/5a716432-c6ca-4b1c-955a-2b8ac25198ee.jpg""]","",""
"","5848","similarity","18","137340","0.0-6.0-12.0","5","[""img/0902/af45fe42-178c-4c1a-99ef-256e87e3b092.jpg"",""img/0860/e14d67c1-6d92-4f1e-9257-c8607159c19c.jpg""]","",""
"","4635","similarity","19","142979","0.0-6.0-13.0","3","[""img/0874/995f0332-0439-4eb4-add3-957335dbf6d9.jpg"",""img/0867/c66898ba-b71b-4d50-84f9-f7f84853a98d.jpg""]","",""
"","4686","similarity","20","148669","0.0-6.0-14.0","3","[""img/0904/96e503ea-6630-4996-85f2-0237688ce441.jpg"",""img/0866/11a1d141-be5e-443c-98c1-a9d4d9e3dec0.jpg""]","",""
"","6265","similarity","21","155939","0.0-6.0-15.0","3","[""img/0758/821c68d3-5cb0-4eae-8659-30e6263fca39.jpg"",""img/0902/6c2c243a-f663-45db-baf5-038d3d58c589.jpg""]","",""
"","4184","similarity","22","161127","0.0-6.0-16.0","2","[""img/0867/cc72ed48-7704-422c-86d6-467a1145287a.jpg"",""img/0898/cd3aaa3f-efa9-4ab3-8d6f-a6a9273ddf42.jpg""]","",""
"","5009","similarity","23","167139","0.0-6.0-17.0","2","[""img/0904/4d7d70a3-9477-4921-bda0-f9531d0a5c5b.jpg"",""img/0868/15dd6fd7-791e-4b53-b203-195d617521a4.jpg""]","",""
"","3966","similarity","24","172109","0.0-6.0-18.0","2","[""img/0766/d50d734f-285c-4840-bc7a-c8dd4aff391e.jpg"",""img/0864/3651d070-2fc5-4848-b6a6-088a2d9ac5c9.jpg""]","",""
"","5804","similarity","25","178917","0.0-6.0-19.0","3","[""img/0899/7b7380d5-d2be-44e5-a09a-c1756f87ef71.jpg"",""img/0766/ba35c0fc-4d5b-490d-959e-c94b279cdd02.jpg""]","",""
"","6262","similarity","26","186184","0.0-6.0-20.0","3","[""img/0764/c80b3e06-2ee3-4326-9678-340607eb5348.jpg"",""img/0758/65d426d6-3ff6-415d-8654-a43b83ecc4fe.jpg""]","",""
"","5328","similarity","27","192515","0.0-6.0-21.0","2","[""img/0901/58978a6d-a3e2-4c59-8d62-f60693ecc0f6.jpg"",""img/0874/8cdb1c07-1c32-46d2-981c-3636560fa6e5.jpg""]","",""
"","6540","similarity","28","200059","0.0-6.0-22.0","3","[""img/0875/dbdd643e-6d0e-4a5c-ab57-b9c29b9c981a.jpg"",""img/0758/e1ba5e53-addc-436a-b428-d34fc1b130dc.jpg""]","",""
"","4891","similarity","29","205955","0.0-6.0-23.0","3","[""img/0867/f26f6b60-f772-4f4c-95a4-addc62cfd692.jpg"",""img/0881/1407b85b-a1c6-45b1-9884-3b24203efadb.jpg""]","",""
"","4584","similarity","30","211542","0.0-6.0-24.0","2","[""img/0758/53f35650-e455-4b53-8be4-c3c8271c6466.jpg"",""img/0901/693e0535-ef7e-4d60-af9d-fac2f38e8307.jpg""]","",""
"","4605","similarity","31","217150","0.0-6.0-25.0","2","[""img/0868/6a28c3b0-3d76-498a-9fb7-ddafc665eca8.jpg"",""img/0875/5a1e5100-0d94-4fec-bbe9-ca9894d2cf8e.jpg""]","",""
"","5521","similarity","32","223674","0.0-6.0-26.0","3","[""img/0903/150cf64c-0bd2-4674-abbb-a1387cf1f3e9.jpg"",""img/0901/7c16dd9c-44ad-4d5b-990c-6a0b9b48b1b1.jpg""]","",""
"","5971","similarity","33","230648","0.0-6.0-27.0","5","[""img/0894/7f2f31fd-6618-41c6-b65a-0fd8b2851bc9.jpg"",""img/0899/57476fed-5962-4272-8fc9-b317bb777b54.jpg""]","",""
"","5528","similarity","34","237180","0.0-6.0-28.0","4","[""img/0862/e8cc3bdf-cc43-4565-bccf-492626c70953.jpg"",""img/0867/f8488a47-94ee-4166-952c-44e16cf172f6.jpg""]","",""
"","5092","similarity","35","243276","0.0-6.0-29.0","5","[""img/0864/6f631579-acf1-415c-a42c-1207f62a8d99.jpg"",""img/0875/99698b4d-b4a1-44bc-8c83-8ea755bbbf61.jpg""]","",""
"","4894","similarity","36","249174","0.0-6.0-30.0","3","[""img/0862/ad593cc7-cabe-4bb7-8e14-8a447a0717b4.jpg"",""img/0874/a3bc679d-619f-4db6-bb68-116dcb757d9c.jpg""]","",""
"","5020","similarity","37","255199","0.0-6.0-31.0","3","[""img/0903/5c6b1f57-b3a2-40f5-9fb1-82785e24b6a0.jpg"",""img/0758/67c0be2f-9e91-48b3-8219-70ac0a1802fa.jpg""]","",""
"","4572","similarity","38","260775","0.0-6.0-32.0","3","[""img/0866/0207e9a2-7dbb-40b5-9459-b472aaeceb2a.jpg"",""img/0901/233a6948-48eb-4b67-8259-222b916b2322.jpg""]","",""
"","4776","similarity","39","266555","0.0-6.0-33.0","3","[""img/0874/29830da7-be5f-44e5-b141-652a0ccf7269.jpg"",""img/0899/00715b3f-851b-420b-a26b-d7f79f7759a9.jpg""]","",""
"","5163","similarity","40","272721","0.0-6.0-34.0","3","[""img/0903/6f343da5-00d9-4d50-89d1-2ed24cdb8319.jpg"",""img/0902/04a6ad4a-afc6-4871-8225-56b299af7b6b.jpg""]","",""
"","4639","similarity","41","278363","0.0-6.0-35.0","5","[""img/0758/d41c06bf-ebaf-454b-91c6-1a17f917b659.jpg"",""img/0866/4a87911a-d5be-4d4e-ab8e-3d1f581bf507.jpg""]","",""
"","6490","similarity","42","285857","0.0-6.0-36.0","4","[""img/0875/ebf7653f-ff45-4e9f-af58-2c042ab3cd2b.jpg"",""img/0903/c3cb4a01-2797-43ca-b216-88c67b323fbb.jpg""]","",""
"","9997","similarity","43","302087","0.0-6.0-37.0","3","[""img/0864/efcfbb1b-8197-44c9-b723-40d6c608dd3c.jpg"",""img/0902/0c760cc9-10ac-429e-8957-a7d51fc99683.jpg""]","",""
"","5068","similarity","44","308158","0.0-6.0-38.0","2","[""img/0901/a0d65c84-3f20-476a-92d1-0c01e8019cf4.jpg"",""img/0867/bf560d4f-dee3-4f11-a385-705cc1aa5f3c.jpg""]","",""
"","4866","similarity","45","314028","0.0-6.0-39.0","5","[""img/0862/f188d4f0-76a4-4102-818c-a209969d73a5.jpg"",""img/0860/31ff6436-98bf-4652-bed2-40f627229568.jpg""]","",""
"","4647","similarity","46","319678","0.0-6.0-40.0","5","[""img/0867/c71dc569-f49c-4397-8381-68b8d726736d.jpg"",""img/0868/3a62db2d-97e9-44a3-b8e3-a48c6f0e423b.jpg""]","",""
"","4291","similarity","47","324972","0.0-6.0-41.0","2","[""img/0904/25365108-e038-4021-aac9-797f2063b337.jpg"",""img/0899/93494f3b-d539-4075-b027-d82e344563da.jpg""]","",""
"","3731","similarity","48","329706","0.0-6.0-42.0","2","[""img/0862/fad1d7c1-8187-43c3-942a-0fc12183e48e.jpg"",""img/0894/133a1636-d123-4893-873c-1718050f832a.jpg""]","",""
"","5794","similarity","49","336504","0.0-6.0-43.0","3","[""img/0875/34132396-d896-4c2d-8087-646dd867e769.jpg"",""img/0904/60d1a521-edf7-4696-9263-f21ac0e62a01.jpg""]","",""
"","5286","similarity","50","342794","0.0-6.0-44.0","2","[""img/0874/31e22c7c-99aa-40b1-bf03-dd73fa2df4d6.jpg"",""img/0898/40f99fb2-64d2-4e72-8a7f-a1cf60741e69.jpg""]","",""
"","4162","similarity","51","347960","0.0-6.0-45.0","1","[""img/0898/a114b375-cb89-44ba-9498-74213f1ecdee.jpg"",""img/0868/0d3abd3a-b6c3-4584-a9f7-e2da63748b3d.jpg""]","",""
"","1229","similarity","52","350192","0.0-6.0-46.0","4","[""img/0901/a373612d-67e2-4fec-9764-21d3d6ef6359.jpg"",""img/0860/18dfed73-e36b-4487-a8bd-0b8cff8e3668.jpg""]","",""
"","5149","similarity","53","356344","0.0-6.0-47.0","6","[""img/0894/1a010553-d598-4b06-a772-81f1e7b3addb.jpg"",""img/0902/b03129ba-b087-4558-af37-e8399d6217d6.jpg""]","",""
"","5746","similarity","54","363094","0.0-6.0-48.0","4","[""img/0764/ef0e64c6-d0dd-4dc6-87b6-ce5c0665f421.jpg"",""img/0862/ee3b7bff-4a70-4e84-9bea-4a565e456acb.jpg""]","",""
"","5136","similarity","55","369234","0.0-6.0-49.0","5","[""img/0881/20af39f5-373d-4a55-a437-2dc4c0382c46.jpg"",""img/0758/6e95579b-5166-487c-b8cb-e417c6a218e3.jpg""]","",""
"","4715","similarity","56","374952","0.0-6.0-50.0","5","[""img/0766/d512b99c-a2dc-40d7-8e86-827323a0cbcf.jpg"",""img/0769/aad494cc-674d-4a08-9bfa-24a88ebe3c79.jpg""]","",""
"","5145","similarity","57","381101","0.0-6.0-51.0","5","[""img/0875/fb732ab5-013a-4366-9f65-27811ed157e9.jpg"",""img/0866/23a224f3-2012-4fc8-8e0f-3c36f8de27fd.jpg""]","",""
"","5803","similarity","58","387907","0.0-6.0-52.0","4","[""img/0894/e5edf723-72a5-4673-8441-6c1734a8929b.jpg"",""img/0904/9d30eff1-46ef-4453-b11e-124ef8145c00.jpg""]","",""
"","4159","similarity","59","393069","0.0-6.0-53.0","3","[""img/0758/d57c2592-a317-4f63-91be-91a3a9afd222.jpg"",""img/0769/82ab9db6-4578-4e79-874f-f09100439f09.jpg""]","",""
"","4011","similarity","60","398083","0.0-6.0-54.0","3","[""img/0902/168ebd47-9e82-4ab7-a18b-c3da85072db8.jpg"",""img/0874/a82926a3-0b43-4add-803c-d5f9ea7798ee.jpg""]","",""
"","4042","similarity","61","403129","0.0-6.0-55.0","3","[""img/0903/8635cf25-2648-4fe9-8c42-79d2598e999c.jpg"",""img/0862/00c06b00-3b73-44e9-bc1e-c5aafb438321.jpg""]","",""
"","4649","similarity","62","408781","0.0-6.0-56.0","2","[""img/0866/a15b02be-11bb-43e3-b0e0-ecc3bd7dfc49.jpg"",""img/0894/38f5931f-926d-414e-b498-66b188978b7a.jpg""]","",""
"","3476","similarity","63","413261","0.0-6.0-57.0","1","[""img/0867/12264664-1860-46df-8c21-162b9817cdda.jpg"",""img/0904/d23dd7be-7fe8-4435-82f7-bd592c01e6a1.jpg""]","",""
"","4948","similarity","64","419214","0.0-6.0-58.0","3","[""img/0875/d59ff733-eaff-4ee2-9443-06954dd0bcb6.jpg"",""img/0881/609a5e93-38b5-4940-8627-2bf8fad7f802.jpg""]","",""
"","5787","similarity","65","426003","0.0-6.0-59.0","1","[""img/0866/bf14b5bd-fb55-47db-86b9-4f8aeb9a6dad.jpg"",""img/0860/87039971-2210-4aab-93c0-8e9b5f1655b2.jpg""]","",""
"","3589","similarity","66","430596","0.0-6.0-60.0","1","[""img/0903/9b60ef5b-234f-4239-892b-3d4c412accc2.jpg"",""img/0866/6f2a90d7-14f1-4f1b-bd64-fc0af6b9fe44.jpg""]","",""
"","4793","similarity","67","436392","0.0-6.0-61.0","3","[""img/0860/702bd09d-df3a-40aa-a267-5f04474305b5.jpg"",""img/0875/e7e66b13-b573-431e-b85e-288ce04a35a3.jpg""]","",""
"","4513","similarity","68","441908","0.0-6.0-62.0","2","[""img/0898/f3a3f225-1248-4ac7-b93b-f0ff28485bf3.jpg"",""img/0862/1c20f772-3a51-4a80-aac0-f57dc9f86c28.jpg""]","",""
"","4703","similarity","69","447614","0.0-6.0-63.0","1","[""img/0902/95a36b6b-9601-4fa5-8fd9-606ea62f9425.jpg"",""img/0766/1865bfc9-2410-4765-a804-3ae4ba2393d0.jpg""]","",""
"","4376","similarity","70","452993","0.0-6.0-64.0","3","[""img/0758/a085b443-b5d7-4cb2-9ad4-b9dab0fc23f1.jpg"",""img/0864/1d15626a-2f7c-410f-819c-0fa2c967e95e.jpg""]","",""
"","3786","similarity","71","457782","0.0-6.0-65.0","2","[""img/0894/5f15154e-e72e-4ce5-aafb-bce6f0564006.jpg"",""img/0860/8a92e21b-6a32-4e4a-a445-2d5a487ed0a4.jpg""]","",""
"","3497","similarity","72","462283","0.0-6.0-66.0","1","[""img/0899/b45c550b-96c3-4255-ad59-48a2b4db1c1e.jpg"",""img/0868/5fa7f9d0-f0e5-454c-8224-74d964818f56.jpg""]","",""
"","4640","similarity","73","467926","0.0-6.0-67.0","4","[""img/0866/d266fece-59b3-46fa-b69f-96f6efb81b59.jpg"",""img/0862/92f0146c-20c4-482e-aef5-adb693790338.jpg""]","",""
"","4974","similarity","74","473904","0.0-6.0-68.0","2","[""img/0860/9593362c-9fe5-4d12-9735-6000a11f6aa5.jpg"",""img/0758/d540bee6-b460-4c32-ac57-bc282742d7d4.jpg""]","",""
"","4821","similarity","75","479729","0.0-6.0-69.0","1","[""img/0902/1f4a4c62-68c1-4993-b213-05652a173ed1.jpg"",""img/0867/aa05d113-fc19-4756-a8eb-7878f580bc92.jpg""]","",""
"","4007","similarity","76","484739","0.0-6.0-70.0","2","[""img/0862/92fcd8a4-8193-4a6a-ae09-dd4a6338b0df.jpg"",""img/0901/da4fe30f-d12a-491e-96a2-5ab8ebaadd09.jpg""]","",""
"","5097","similarity","77","490839","0.0-6.0-71.0","6","[""img/0867/075e0f95-856b-4cbb-acf5-092393aaf04e.jpg"",""img/0866/c446214b-a368-4c65-ae39-ea46894256ab.jpg""]","",""
"","5883","similarity","78","497725","0.0-6.0-72.0","4","[""img/0860/4c530c3c-6aab-492a-94d1-9c01797bde40.jpg"",""img/0904/4e58005d-a2ec-4aaa-b199-445343561396.jpg""]","",""
"","3780","similarity","79","502509","0.0-6.0-73.0","2","[""img/0875/90da8d75-108a-44ad-b999-e21fee3860d3.jpg"",""img/0899/f58b8d2f-b19d-4b59-8b94-8834be92e4ba.jpg""]","",""
"","3527","similarity","80","507039","0.0-6.0-74.0","1","[""img/0899/8abe6c69-822c-436c-9bf2-96c818b49ba5.jpg"",""img/0758/61d64021-9214-4951-bdf8-f871f9827cf9.jpg""]","",""
"","4612","similarity","81","521545","0.0-6.0-75.0","2","[""img/0862/064818ee-13d5-4618-bb24-21c7368ea278.jpg"",""img/0875/5a7c4e35-6514-4e12-8879-d16071da4cd6.jpg""]","",""
"","5280","similarity","82","527829","0.0-6.0-76.0","5","[""img/0901/effc03f6-8f9d-46db-a66c-16fc83891c5c.jpg"",""img/0894/8cadb87a-7001-4e47-99fb-1867bebf1668.jpg""]","",""
"","4649","similarity","83","533482","0.0-6.0-77.0","2","[""img/0766/db750ba0-ce04-46e1-b601-e1b80212bad2.jpg"",""img/0758/dd559618-7f09-4a07-8018-d311c4a5ea29.jpg""]","",""
"","4003","similarity","84","538488","0.0-6.0-78.0","3","[""img/0894/b422d5c6-3c5a-49ae-a53e-7e88ac993f49.jpg"",""img/0764/4eff630a-6426-4f8d-b2ba-b4d9842a0962.jpg""]","",""
"","4703","similarity","85","544194","0.0-6.0-79.0","2","[""img/0860/8fdba999-b946-4c7d-9891-336018b563ef.jpg"",""img/0867/1719a35d-f085-48c0-9099-16c94fe418b4.jpg""]","",""
"","4227","similarity","86","549424","0.0-6.0-80.0","5","[""img/0898/b2732712-71c2-45d8-834f-2b2ed5504910.jpg"",""img/0901/71e551a2-9ce2-409c-9c7c-dd556a0791e9.jpg""]","",""
"","3883","similarity","87","554310","0.0-6.0-81.0","1","[""img/0874/93d1f8dc-acf2-4f03-bd8d-8ec35df276ed.jpg"",""img/0764/978aede9-4590-4ad0-b234-135c83e5d669.jpg""]","",""
"","3625","similarity","88","558938","0.0-6.0-82.0","1","[""img/0899/0e1d936a-dbe2-4afc-9f19-7b7a1ae6c9ed.jpg"",""img/0862/4f0a3b4c-afbf-486e-b248-1d54982f54b4.jpg""]","",""
"","4464","similarity","89","564406","0.0-6.0-83.0","5","[""img/0766/b84598d0-5b41-4841-88b0-b441b48289f5.jpg"",""img/0901/548d1110-7cb8-42a2-9927-9798875c8b5c.jpg""]","",""
"","5280","similarity","90","570690","0.0-6.0-84.0","3","[""img/0881/344de456-b358-4887-bd0e-e4c3278af887.jpg"",""img/0898/993d8f2d-bef7-4251-a193-0f93a32b7763.jpg""]","",""
"","5310","similarity","91","577004","0.0-6.0-85.0","3","[""img/0868/09a9ef4d-d000-4cfa-a6aa-ebec7c2edeb4.jpg"",""img/0860/d9a0d117-6d1d-41c0-8fec-9aff0fd9e9f2.jpg""]","",""
"","5547","similarity","92","583555","0.0-6.0-86.0","5","[""img/0758/a709631e-3705-4725-ac40-f0d916924f08.jpg"",""img/0868/293079b8-7e0c-4afd-a390-1e5d35fe3ded.jpg""]","",""
"","5429","similarity","93","589987","0.0-6.0-87.0","3","[""img/0864/c3b63e8f-ea39-4d70-a1f2-b3fe4be8eb75.jpg"",""img/0894/3664e04c-c6d3-4c9b-afb6-25d89974b174.jpg""]","",""
"","6201","similarity","94","597191","0.0-6.0-88.0","5","[""img/0866/02f5e6b9-52b7-448c-9708-5b460d0c9a23.jpg"",""img/0902/3f0eeac5-c996-4026-a376-563ce8f28521.jpg""]","",""
"","3823","similarity","95","602017","0.0-6.0-89.0","1","[""img/0769/91acb237-65a3-4d0b-9748-af5c7b83d3c7.jpg"",""img/0867/7d1c497b-c1b3-4ed8-abb5-d7f73306015f.jpg""]","",""
"","4623","similarity","96","607643","0.0-6.0-90.0","5","[""img/0874/ca23d307-fc00-4d7d-9106-584c6eb21b4d.jpg"",""img/0875/f87b67d7-c33e-40d1-b281-248c4be1cb6e.jpg""]","",""
"","5012","similarity","97","613659","0.0-6.0-91.0","5","[""img/0864/e336a4c5-6648-4fd7-b2f6-93a3fb83f8c6.jpg"",""img/0874/2c9464dd-8a23-4baa-ac94-1ba3af5c15cc.jpg""]","",""
"","5384","similarity","98","620046","0.0-6.0-92.0","6","[""img/0881/dea58fad-b4f1-41d9-bd3f-916eff19a3fd.jpg"",""img/0862/d0ca4c78-fc35-46ed-bdcc-8e124283c53e.jpg""]","",""
"","4332","similarity","99","625381","0.0-6.0-93.0","5","[""img/0864/ef9cbca0-4be8-435d-ad49-977259e80409.jpg"",""img/0881/19e82c47-8e4b-45d2-a6c8-74181eb4155e.jpg""]","",""
"","4230","similarity","100","630615","0.0-6.0-94.0","5","[""img/0899/ddf96ade-692e-4602-bd22-dedbb46401bc.jpg"",""img/0901/5657dd86-0ff9-4753-ba2b-9dfb223e5c89.jpg""]","",""
"","4143","similarity","101","635762","0.0-6.0-95.0","2","[""img/0874/ca76a855-4e77-4f2f-872a-0a718153e7ed.jpg"",""img/0766/33aa9ebb-c9f5-418f-8c8b-c77861889568.jpg""]","",""
"","3817","similarity","102","640582","0.0-6.0-96.0","2","[""img/0881/ed4c971f-0873-4fc8-b6d6-e8bbd82f0bcc.jpg"",""img/0899/d60714ae-98d7-4564-8c98-94dba1351135.jpg""]","",""
"","4516","similarity","103","646101","0.0-6.0-97.0","2","[""img/0862/a0a3a7ba-7798-46a3-b4ca-05e1f6e581d0.jpg"",""img/0902/af40b98b-3d23-4d95-b401-49ba5783ce39.jpg""]","",""
"","6467","similarity","104","653572","0.0-6.0-98.0","5","[""img/0899/d8f2dd94-570e-4e8c-a087-d96090fb9e8c.jpg"",""img/0764/39a9fc7e-b863-432c-9374-de43983f31a5.jpg""]","",""
"","4472","similarity","105","659048","0.0-6.0-99.0","5","[""img/0758/caa93da2-9edf-49fa-96b9-32dedd8f5078.jpg"",""img/0862/f43ceabf-acc1-4107-b857-5d1849808f93.jpg""]","",""
"","5225","similarity","106","665276","0.0-6.0-100.0","4","[""img/0764/4bec8d92-75aa-475a-954d-8215dbe538f5.jpg"",""img/0898/08c72dac-f8ad-407a-9ce6-8c9a5d679c3a.jpg""]","",""
"","4809","similarity","107","671088","0.0-6.0-101.0","5","[""img/0901/168eb52c-c415-43f1-b5c8-e76e1a1ec247.jpg"",""img/0902/bd89a85f-3853-4786-acd6-98818ee29f1c.jpg""]","",""
"","5437","similarity","108","677529","0.0-6.0-102.0","1","[""img/0764/bc3865c9-9004-4582-88a7-048478673f97.jpg"",""img/0868/7b212364-ff5f-4e28-9241-7eb6ea00161b.jpg""]","",""
"","4205","similarity","109","682738","0.0-6.0-103.0","2","[""img/0769/3adfa417-3b90-4aab-b437-5eaa474189cb.jpg"",""img/0881/f4e3e181-b3c9-4af2-a5a4-fc135ab70d2e.jpg""]","",""
"","4075","similarity","110","687817","0.0-6.0-104.0","1","[""img/0864/ea327690-500b-4137-bf91-451b309fe6a5.jpg"",""img/0769/50985283-d353-4abc-9abe-14a91d56ebe6.jpg""]","",""
"","5625","similarity","111","694445","0.0-6.0-105.0","6","[""img/0866/8efcaa46-83ab-4dee-a35f-850402aa21ae.jpg"",""img/0868/4bd5105a-d2c3-4f82-8c80-57196106ba53.jpg""]","",""
"","4699","similarity","112","700147","0.0-6.0-106.0","4","[""img/0868/fd307a36-9a3a-47d7-ab7c-f810d0b35040.jpg"",""img/0862/7918ca67-5bd3-4606-a5ea-c39fb11a9297.jpg""]","",""
"","5521","similarity","113","706671","0.0-6.0-107.0","4","[""img/0766/60033a74-9919-47e5-913c-71d0d483e7e5.jpg"",""img/0898/c3cecf20-f7fd-45fa-97d0-dc0a63e8d6c0.jpg""]","",""
"","4219","similarity","114","711893","0.0-6.0-108.0","2","[""img/0898/26c41340-15bd-4ead-8fe4-c0d0ddca09c2.jpg"",""img/0864/300bb811-8b3c-4c42-8653-6097c3725197.jpg""]","",""
"","4403","similarity","115","717299","0.0-6.0-109.0","2","[""img/0868/e0aff734-077f-40dd-9781-74821abd3621.jpg"",""img/0902/511abb54-0094-4f4d-b6dc-3f2c97050521.jpg""]","",""
"","5123","similarity","116","723425","0.0-6.0-110.0","3","[""img/0904/63dd06dd-dccb-47ba-9740-eb33239e18a7.jpg"",""img/0764/ba0c0955-acbb-457d-b1c2-f006b88121d5.jpg""]","",""
"","3538","similarity","117","727967","0.0-6.0-111.0","2","[""img/0894/9b1333fd-3561-43bf-aee5-99b7b7ca3dc3.jpg"",""img/0875/2e13d160-eea1-416b-aff1-d37ab99ecc1d.jpg""]","",""
"","4514","similarity","118","733485","0.0-6.0-112.0","4","[""img/0868/c8ac40c7-6904-4e13-8d61-c75d3052dc4e.jpg"",""img/0874/1016b306-087c-4afc-aa08-fa527b28dc76.jpg""]","",""
"","4072","similarity","119","769699","0.0-6.0-113.0","5","[""img/0904/2f88ce53-02d0-4f95-a082-182c56a0eeb4.jpg"",""img/0898/a8f16b02-e19f-423b-86c3-a36562ae1f9b.jpg""]","",""
"","6105","similarity","120","776808","0.0-6.0-114.0","1","[""img/0860/e8b8c51e-1834-4875-8b61-6c5bc9b178bd.jpg"",""img/0766/26d3ae14-8275-4e08-99b2-a6598c193ddf.jpg""]","",""
"","4252","similarity","121","782064","0.0-6.0-115.0","2","[""img/0894/38cf335f-f76f-4349-8d65-e20cd6859565.jpg"",""img/0874/bf14b896-e930-4fd9-9c05-2e83317a2773.jpg""]","",""
"","4516","similarity","122","787584","0.0-6.0-116.0","5","[""img/0899/4408c14d-c168-4a7d-96f6-bc87bfb58f83.jpg"",""img/0903/31b5a5f4-b695-4af1-bad2-a19650a05498.jpg""]","",""
"","5302","similarity","123","793891","0.0-6.0-117.0","3","[""img/0881/e046471a-35b4-4159-bbf7-3cfd201bef66.jpg"",""img/0764/56441045-b648-4ede-9632-3e9c0227080b.jpg""]","",""
"","4284","similarity","124","799178","0.0-6.0-118.0","3","[""img/0903/b0a3c45f-467e-412f-a183-c9c1827f2e63.jpg"",""img/0769/8056889f-2b14-4782-bb25-b4e8896ab65b.jpg""]","",""
"","3407","similarity","125","803589","0.0-6.0-119.0","5","[""img/0901/b13fa50f-dbe0-4d0f-8647-6ac0fd8f40bd.jpg"",""img/0904/4b8daf2a-13a9-4ea9-9e0b-b265b6e933e7.jpg""]","",""
"","4751","similarity","126","809343","0.0-6.0-120.0","4","[""img/0860/524b2e98-5767-4d53-942c-ebae6925659b.jpg"",""img/0881/d1982897-8d8d-4704-a940-1ee5d07a1f15.jpg""]","",""
"","4597","similarity","127","814943","0.0-6.0-121.0","5","[""img/0758/ddc336e9-a8b6-4bb9-937a-c7e25e0e9250.jpg"",""img/0874/eba003b4-cdab-4eee-8bc3-f064c7d94165.jpg""]","",""
"","5553","similarity","128","821499","0.0-6.0-122.0","4","[""img/0901/0adb3bd6-d758-4ba7-9723-3ad6cac05bd5.jpg"",""img/0769/7c50e5f5-cc38-4d48-b009-fbe17bcea61c.jpg""]","",""
"","4145","similarity","129","826647","0.0-6.0-123.0","4","[""img/0902/6730b12a-f0a7-4587-8c10-a32fae16565b.jpg"",""img/0904/e9423a8c-f946-43ad-ab7b-931acef870e2.jpg""]","",""
"","4570","similarity","130","832221","0.0-6.0-124.0","2","[""img/0899/1b3457ea-87d4-4946-a01c-aac1863ed46c.jpg"",""img/0864/8ddd2e30-a1d0-479f-9cbe-591213023893.jpg""]","",""
"","3804","similarity","131","837029","0.0-6.0-125.0","2","[""img/0766/535849cc-ff5d-4df9-8f31-0ce94a97d571.jpg"",""img/0868/4a8a45ed-2c4f-421b-9564-409a33ecd26c.jpg""]","",""
"","3708","similarity","132","841741","0.0-6.0-126.0","2","[""img/0764/974d52cc-6318-4e7a-b294-2f3e92ff800f.jpg"",""img/0864/4bd81bc6-c13d-46df-95a9-485886dc7c1b.jpg""]","",""
"","3772","similarity","133","846517","0.0-6.0-127.0","1","[""img/0899/7f9d45d0-b2c6-40d3-aa41-c207db2c411b.jpg"",""img/0866/a04d37f0-99dd-478a-b6c6-58b215138f84.jpg""]","",""
"","5116","similarity","134","852637","0.0-6.0-128.0","2","[""img/0901/2a953e50-d237-405c-a38d-5ed21494c968.jpg"",""img/0881/667e2147-d457-4f32-aa5f-6ab86e5848f1.jpg""]","",""
"","5701","similarity","135","859341","0.0-6.0-129.0","4","[""img/0898/e167334e-cc1d-4986-b3b1-c7bc7da64baa.jpg"",""img/0903/8fcafe03-43df-4c45-9da5-0df3a1eeccc5.jpg""]","",""
"","3219","similarity","136","863564","0.0-6.0-130.0","1","[""img/0894/11674fa4-285d-44e2-939f-2228c6a64080.jpg"",""img/0867/de92135f-5b65-4ed9-b245-188292c7c2f8.jpg""]","",""
"","3835","similarity","137","868402","0.0-6.0-131.0","3","[""img/0874/99f6563c-8a8d-4c1c-a41d-667b618c3fd5.jpg"",""img/0903/3e9ee8a5-eb66-47f5-8973-8a5af1ddc87e.jpg""]","",""
"","3389","similarity","138","872794","0.0-6.0-132.0","2","[""img/0899/a05bea16-2bb4-4cb9-b8fb-4ff975db6971.jpg"",""img/0898/8605a25b-6895-476d-8c13-df7a83f96093.jpg""]","",""
"","3703","similarity","139","877500","0.0-6.0-133.0","2","[""img/0867/6e19c858-b606-45b2-a4c6-910a73f1d82c.jpg"",""img/0764/23ea9375-f801-4a96-9925-7d453da887c7.jpg""]","",""
"","3717","similarity","140","882220","0.0-6.0-134.0","2","[""img/0866/620cd1aa-0800-4414-8f6e-90342e7a99ad.jpg"",""img/0769/b664b502-a86c-46c1-ad6f-5ebffc2e1bd3.jpg""]","",""
"","4285","similarity","141","887508","0.0-6.0-135.0","5","[""img/0860/71e1aad0-2cdf-43bb-94a4-a8c016997c30.jpg"",""img/0898/81b08535-2020-4c15-9ce4-2f1e460755ae.jpg""]","",""
"","5038","similarity","142","893550","0.0-6.0-136.0","4","[""img/0881/33d65d80-8a8e-4ecf-852d-0ad7725c17a2.jpg"",""img/0903/72197c2b-403e-4a26-b391-f1aa8dea4b76.jpg""]","",""
"","7340","similarity","143","901894","0.0-6.0-137.0","6","[""img/0894/5a49e858-2850-4892-9a06-e9f0efb5f94d.jpg"",""img/0766/f011ef45-fb48-44b8-8224-867ed2ccf786.jpg""]","",""
"","4687","similarity","144","907584","0.0-6.0-138.0","2","[""img/0860/4a022222-056d-461c-ab02-39fac9647552.jpg"",""img/0764/0e7ed062-f798-4366-8a24-6f430926f919.jpg""]","",""
"","3539","similarity","145","912126","0.0-6.0-139.0","3","[""img/0769/6c0bac4c-5f59-43c7-898c-3ca93cf55cfe.jpg"",""img/0902/24d10fe7-314f-4d5a-8c7b-b43121bba0a4.jpg""]","",""
"","5941","similarity","146","919071","0.0-6.0-140.0","5","[""img/0904/1d10df11-b5c8-4370-9a6b-097a7f965895.jpg"",""img/0903/aa842abe-6fa3-448a-bf71-88d3ad28663b.jpg""]","",""
"","4859","similarity","147","924933","0.0-6.0-141.0","4","[""img/0764/06ea144f-f4f3-4a14-ba47-f20f35c561e0.jpg"",""img/0769/4a1d0b52-3fe8-40fb-bb1c-c814fe49a68c.jpg""]","",""
"","4112","similarity","148","930049","0.0-6.0-142.0","2","[""img/0902/44cd9b7e-fdfb-4f78-90de-8d4c9d279365.jpg"",""img/0881/d373cb9f-a719-4549-a2a4-82def79fb2a5.jpg""]","",""
"","5954","similarity","149","937007","0.0-6.0-143.0","4","[""img/0866/be24ab58-230e-4db8-9f45-ff04c9aec6bb.jpg"",""img/0864/e8bd659f-aa43-4748-877e-3118e8b4e189.jpg""]","",""
"","3792","similarity","150","941803","0.0-6.0-144.0","3","[""img/0902/cf9dee9c-2bdf-4d64-9302-97f1660fe52c.jpg"",""img/0898/82231d4c-218b-4d0a-b50d-35a49b524e97.jpg""]","",""
"","5730","similarity","151","948537","0.0-6.0-145.0","5","[""img/0862/cdaed51d-9e2f-4807-801a-4663c40077e2.jpg"",""img/0864/0116ca98-293d-4fa6-a93b-5a6144ef64cc.jpg""]","",""
"","4181","similarity","152","953721","0.0-6.0-146.0","1","[""img/0875/cff79b3a-a797-4393-9757-6275f999ec04.jpg"",""img/0898/881e2a85-d5c2-49be-a0c6-8a6ce2c4af08.jpg""]","",""
"","4276","similarity","153","959001","0.0-6.0-147.0","5","[""img/0874/7e4f2150-3b59-4a36-b5da-a4e0ba410531.jpg"",""img/0881/b549bc99-a61c-4450-bab5-9efc3a197bf0.jpg""]","",""
"","4285","similarity","154","964290","0.0-6.0-148.0","1","[""img/0758/2fa3e613-e676-4e6e-bd12-705327eeb3e1.jpg"",""img/0894/43216a7f-27bc-4b5a-8841-d122a30da9d9.jpg""]","",""
"","4891","similarity","155","970183","0.0-6.0-149.0","2","[""img/0904/5aec2708-cf14-4a58-aa30-9a8a61c1be0e.jpg"",""img/0864/9b2490c5-a282-400a-9736-e1a0ecbf1cb7.jpg""]","",""
"","5605","similarity","156","976792","0.0-6.0-150.0","3","[""img/0769/ecda2fb3-556b-43ba-8a67-e87dd75ff2b4.jpg"",""img/0899/fd9efb43-701f-4cd6-baaa-4c38315f4bdc.jpg""]","",""
"","5201","similarity","157","1004871","0.0-6.0-151.0","2","[""img/0764/f9f890e6-3c2f-40cd-84e9-85e0b54cb28e.jpg"",""img/0903/f67c4ab9-f8c2-4fcd-848a-a54a7b031002.jpg""]","",""
"","5217","similarity","158","1011092","0.0-6.0-152.0","4","[""img/0903/0a92ec52-4e87-410a-857a-4455cde56a70.jpg"",""img/0864/f92649a2-0590-4d31-9a7a-1bfb81666a2d.jpg""]","",""
"","4258","similarity","159","1016354","0.0-6.0-153.0","3","[""img/0894/76c1201f-8524-4865-85e6-dda8cb4ac986.jpg"",""img/0881/2a8413be-fec2-4de6-88ad-614dd4cccc9d.jpg""]","",""
"","4471","similarity","160","1021828","0.0-6.0-154.0","4","[""img/0875/2c361b79-c3d1-4eda-812e-bf03192407bf.jpg"",""img/0867/98d8cd96-1476-4fe0-a3a3-04f875500a1b.jpg""]","",""
"","3918","similarity","161","1026750","0.0-6.0-155.0","5","[""img/0867/85a96c62-548f-4994-9553-819e03c3135a.jpg"",""img/0758/b76ceca7-95ac-46e4-ac13-da02c8e93be9.jpg""]","",""
"","3848","similarity","162","1031602","0.0-6.0-156.0","2","[""img/0868/d6d1f30d-4323-435a-b194-7892521bc57e.jpg"",""img/0901/4f9cffe0-c0be-4d7f-bacd-9d51efd19b4a.jpg""]","",""
"","3582","similarity","163","1036188","0.0-6.0-157.0","2","[""img/0769/965c3c44-d9e5-47c5-b61a-2bbdf4215d9a.jpg"",""img/0894/6b2e9509-8699-42b7-9582-7741df0ba2d7.jpg""]","",""
"","5341","similarity","164","1042532","0.0-6.0-158.0","4","[""img/0904/2fd488e9-960f-41f7-8a44-33375f7d5051.jpg"",""img/0758/e38fd80d-18d0-42f3-b848-f930788e8bd7.jpg""]","",""
"","4301","similarity","165","1047836","0.0-6.0-159.0","3","[""img/0874/c0378dac-9370-439a-8b79-db27c96fb390.jpg"",""img/0904/a8c3c7d2-9bcf-4347-9e03-8203adfc1fc5.jpg""]","",""
"","3225","similarity","166","1052065","0.0-6.0-160.0","1","[""img/0864/5f74a653-3bdc-4308-8cca-ac667dc22e1f.jpg"",""img/0901/c6c877e0-dd63-4e00-9657-33af29d55aab.jpg""]","",""
"","4759","similarity","167","1057827","0.0-6.0-161.0","1","[""img/0898/4184e5a2-84ea-4f36-9b42-ae58646f6f87.jpg"",""img/0866/07c9c966-3c8d-40e7-8128-92b2acbaed5d.jpg""]","",""
"","3591","similarity","168","1062421","0.0-6.0-162.0","3","[""img/0766/c23b5a20-e50f-4d85-841f-cf89212a4348.jpg"",""img/0903/47e39de8-6959-469f-8be9-6999a6db207c.jpg""]","",""
"","4439","similarity","169","1067863","0.0-6.0-163.0","3","[""img/0860/5383b320-1518-4095-a58e-5cc1ae30b64c.jpg"",""img/0899/4f7bc593-8ddd-4da3-a0b9-84da730d3370.jpg""]","",""
"","3771","similarity","170","1072637","0.0-6.0-164.0","1","[""img/0766/717fd72f-a281-499b-a5ba-5e2ecc4d4866.jpg"",""img/0862/fb26cb07-d5a9-4653-813c-f41609f26cd5.jpg""]","",""
"","3747","similarity","171","1077387","0.0-6.0-165.0","3","[""img/0898/0c7dde4f-efce-4b7a-9387-6921635b7890.jpg"",""img/0894/a98416c0-51e2-4960-85da-d81d8688b9d5.jpg""]","",""
"","4834","similarity","172","1083225","0.0-6.0-166.0","3","[""img/0867/db7e032f-162b-46f5-ae67-2b29679adee4.jpg"",""img/0766/110832e5-2646-4bd0-a94e-5df8cc314269.jpg""]","",""
"","6420","similarity","173","1090649","0.0-6.0-167.0","4","[""img/0904/24fc38fe-842c-4831-ad8a-b1de5c25c0a8.jpg"",""img/0862/24cdc752-c2e5-4a17-86a6-6f2045d8553b.jpg""]","",""
"","5496","similarity","174","1097149","0.0-6.0-168.0","5","[""img/0866/d493a2c8-66eb-44b4-be02-2f327b700b7c.jpg"",""img/0874/adf9a8f1-c40b-402b-b95b-1e85a54a7b62.jpg""]","",""
"","4774","similarity","175","1102927","0.0-6.0-169.0","4","[""img/0903/5248eedd-7e6a-4d39-91b0-06ec227f3ed0.jpg"",""img/0868/83b4350a-3b70-4cea-b7f5-b5b56f3050a8.jpg""]","",""
"","4274","similarity","176","1108205","0.0-6.0-170.0","3","[""img/0769/d1be2815-fa79-46e8-b5c3-7d81caaca490.jpg"",""img/0904/0d25eb24-bb20-4e8d-9787-8b489558b4cb.jpg""]","",""
"","3327","similarity","177","1112535","0.0-6.0-171.0","2","[""img/0875/03c3c331-738b-4446-af92-3d7386b08c2e.jpg"",""img/0764/e42c1dc9-7831-4995-be19-7ca7b4d141fc.jpg""]","",""
"","4235","similarity","178","1117774","0.0-6.0-172.0","3","[""img/0860/94ef7afc-e0e6-4a15-98c6-0bfac82bc832.jpg"",""img/0903/43ffd882-077a-40dd-a264-e58d519420a1.jpg""]","",""
"","4937","similarity","179","1123714","0.0-6.0-173.0","4","[""img/0864/49150900-7f25-4ce8-8d10-9b47a71d1997.jpg"",""img/0867/a749dddb-69f0-44a6-acdc-2bf295cf6dcc.jpg""]","",""
"","3989","similarity","180","1128706","0.0-6.0-174.0","4","[""img/0868/d98ca254-b195-477f-b57e-5760a2717db8.jpg"",""img/0864/65210d57-1153-4657-886a-32e758f49b4a.jpg""]","",""
"","6001","similarity","181","1135710","0.0-6.0-175.0","4","[""img/0898/224c1572-56b9-4f16-a9e4-6f3bc9c114bd.jpg"",""img/0769/458d9c77-b844-40b5-bb1b-1e3bbd4da64e.jpg""]","",""
"","3583","similarity","182","1140296","0.0-6.0-176.0","5","[""img/0766/00891401-e4c9-4ce1-bc19-f70740d174bc.jpg"",""img/0764/8389e74f-e0e0-435d-945f-da1f4c92ccb6.jpg""]","",""
"","3901","similarity","183","1145200","0.0-6.0-177.0","3","[""img/0764/6c7fe363-2d37-418f-9e5e-a3273af5d4fb.jpg"",""img/0866/945c6710-d15b-4a5b-a8f6-69af0850357f.jpg""]","",""
"","4969","similarity","184","1151172","0.0-6.0-178.0","3","[""img/0902/31abfa33-7cdb-44ad-968e-9f7b324d577a.jpg"",""img/0875/a4935837-7d3c-4df6-88c1-36a94d4991ca.jpg""]","",""
"","3879","similarity","185","1156054","0.0-6.0-179.0","4","[""img/0881/db77fe00-aeb0-4d1d-aa66-f3a96fd077e4.jpg"",""img/0904/ba8e689e-9ca6-4608-a2a1-3b0940666ae6.jpg""]","",""
"","5933","similarity","186","1162990","0.0-6.0-180.0","4","[""img/0874/3f471690-9788-4d03-90c7-f615aecef149.jpg"",""img/0860/29a21a9f-54bb-4093-ad3f-04823ceaa89f.jpg""]","",""
"","3458","similarity","187","1167452","0.0-6.0-181.0","4","[""img/0769/14d393ce-e5be-4ca1-86ce-cc27d4b6074c.jpg"",""img/0874/85eb9b8a-c4c6-4e5a-b8e7-363a87a82054.jpg""]","",""
"","4019","similarity","188","1172474","0.0-6.0-182.0","3","[""img/0904/9b3568cc-3cf7-42be-9df3-fdafde7a58b8.jpg"",""img/0766/ef3b15ce-abb7-4292-ad93-aec8e8b50520.jpg""]","",""
"","4570","similarity","189","1178048","0.0-6.0-183.0","3","[""img/0902/51493fab-2a10-4385-aa88-bee3db441626.jpg"",""img/0764/cbdc4f20-3a9a-4211-9b40-090699e0abcc.jpg""]","",""
"","3918","similarity","190","1182970","0.0-6.0-184.0","2","[""img/0769/f229321f-04dd-42d7-b14a-ffad6b509862.jpg"",""img/0875/3ecb367d-e9eb-4826-8aaa-7aa72fb98019.jpg""]","",""
"","4119","similarity","191","1188092","0.0-6.0-185.0","3","[""img/0867/a498eef3-9fa4-4ab2-9778-4ae82ac40dc5.jpg"",""img/0903/8f7f9939-b8e6-433f-93dd-b362496c80a7.jpg""]","",""
"","4306","similarity","192","1193402","0.0-6.0-186.0","2","[""img/0862/47ed5efd-4ec9-4b74-bb4e-a5f5cf0c3e7d.jpg"",""img/0769/bb8c4e53-6f32-4814-97ee-392d4decfb2e.jpg""]","",""
"","5371","similarity","193","1199777","0.0-6.0-187.0","4","[""img/0766/d3bab2fc-ddcc-40a0-bb72-c0d0ebe19978.jpg"",""img/0866/93a27239-8317-4e08-98ca-d8b1ff298e07.jpg""]","",""
"","4515","similarity","194","1205295","0.0-6.0-188.0","3","[""img/0769/4680bcc3-8fbc-4643-8f9a-12aa0e780b64.jpg"",""img/0860/17b44a7d-c5ca-479f-9e87-f65a64f5c80e.jpg""]","",""
"","4710","similarity","195","1217562","0.0-6.0-189.0","5","[""img/0881/ee44e27f-d662-4608-b265-e7ffa19b216f.jpg"",""img/0868/8b0b8473-e2c0-4331-aa56-c3a5c29369da.jpg""]","",""
"[{""page_index"":0,""viewing_time"":6693}]","6693","instructions","196","1225256","0.0-7.0","","","",""
"","46661","image-multi-choice","197","1272928","0.0-8.0-0.0","","","{""Q0"":""Northern Waterthrush""}","Nashville Warbler"
"","4376","image-multi-choice","198","1278313","0.0-8.0-1.0","","","{""Q0"":""Black-and-white Warbler""}","Black-and-white Warbler"
"","4818","image-multi-choice","199","1284141","0.0-8.0-2.0","","","{""Q0"":""Blackburnian Warbler""}","Townsend's Warbler"
"","36582","image-multi-choice","200","1321732","0.0-8.0-3.0","","","{""Q0"":""American Tree Sparrow""}","Lark Sparrow"
"","302436","image-multi-choice","201","1625176","0.0-8.0-4.0","","","{""Q0"":""Yellow Warbler""}","Yellow Warbler"
"","40522","image-multi-choice","202","1666706","0.0-8.0-5.0","","","{""Q0"":""Orange-crowned Warbler""}","Orange-crowned Warbler"
"","30456","image-multi-choice","203","1698171","0.0-8.0-6.0","","","{""Q0"":""Swamp Sparrow""}","White-throated Sparrow"
"","156576","image-multi-choice","204","1855756","0.0-8.0-7.0","","","{""Q0"":""Fox Sparrow""}","Fox Sparrow"
"","18254","image-multi-choice","205","1875019","0.0-8.0-8.0","","","{""Q0"":""Chipping Sparrow""}","Song Sparrow"
"","59259","image-multi-choice","206","1935286","0.0-8.0-9.0","","","{""Q0"":""Townsend's Warbler""}","Blackburnian Warbler"
"","5723","image-multi-choice","207","1942015","0.0-8.0-10.0","","","{""Q0"":""Song Sparrow""}","Vesper Sparrow"
"","130696","image-multi-choice","208","2073720","0.0-8.0-11.0","","","{""Q0"":""White-crowned Sparrow""}","White-crowned Sparrow"
"","13598","image-multi-choice","209","2088327","0.0-8.0-12.0","","","{""Q0"":""Vesper Sparrow""}","American Tree Sparrow"
"","68990","image-multi-choice","210","2158325","0.0-8.0-13.0","","","{""Q0"":""Tennessee Warbler""}","Tennessee Warbler"
"","35244","image-multi-choice","211","2194577","0.0-8.0-14.0","","","{""Q0"":""Magnolia Warbler""}","Magnolia Warbler"
"","13459","image-multi-choice","212","2209045","0.0-8.0-15.0","","","{""Q0"":""Ovenbird""}","Northern Waterthrush"
"","42623","image-multi-choice","213","2252676","0.0-8.0-16.0","","","{""Q0"":""Chipping Sparrow""}","Chipping Sparrow"
"","14194","image-multi-choice","214","2267878","0.0-8.0-17.0","","","{""Q0"":""Swamp Sparrow""}","Swamp Sparrow"
"","14813","image-multi-choice","215","2283700","0.0-8.0-18.0","","","{""Q0"":""Northern Waterthrush""}","Lincoln's Sparrow"
"","4744","image-multi-choice","216","2289452","0.0-8.0-19.0","","","{""Q0"":""Ovenbird""}","Ovenbird"
