[{"view_history":"[{\"page_index\":0,\"viewing_time\":13296}]","rt":13297,"trial_type":"instructions","trial_index":0,"time_elapsed":13298,"internal_node_id":"0.0-0.0"},{"sim_score":7,"rt":5265,"stimulus":"[\"img/bluejay1.jpg\",\"img/bluejay2.jpg\"]","trial_type":"similarity_demo","trial_index":1,"time_elapsed":19570,"internal_node_id":"0.0-1.0"},{"view_history":"[{\"page_index\":0,\"viewing_time\":4918}]","rt":4918,"trial_type":"instructions","trial_index":2,"time_elapsed":25489,"internal_node_id":"0.0-2.0"},{"sim_score":6,"rt":5528,"stimulus":"[\"img/bluejay1.jpg\",\"img/cardinal1.jpg\"]","trial_type":"similarity_demo","trial_index":3,"time_elapsed":32023,"internal_node_id":"0.0-3.0"},{"view_history":"[{\"page_index\":0,\"viewing_time\":6686}]","rt":6687,"trial_type":"instructions","trial_index":4,"time_elapsed":39712,"internal_node_id":"0.0-4.0"},{"view_history":"[{\"page_index\":0,\"viewing_time\":10051}]","rt":10052,"trial_type":"instructions","trial_index":5,"time_elapsed":50765,"internal_node_id":"0.0-5.0"},{"sim_score":4,"rt":6347,"stimulus":"[\"img/0868/1a62b2b2-18f5-466e-b564-5176a57c565e.jpg\",\"img/0894/e6385e52-6c35-43bd-b0af-bc803d107b11.jpg\"]","trial_type":"similarity","trial_index":6,"time_elapsed":58118,"internal_node_id":"0.0-6.0-0.0"},{"sim_score":4,"rt":5619,"stimulus":"[\"img/0898/6cd3830b-d44e-4915-be2b-88d31424b91c.jpg\",\"img/0758/f61ecdf8-a7d4-4db0-b84d-be46f7cfaffc.jpg\"]","trial_type":"similarity","trial_index":7,"time_elapsed":64742,"internal_node_id":"0.0-6.0-1.0"},{"sim_score":3,"rt":5567,"stimulus":"[\"img/0903/14f179a2-8786-48a2-8377-88d1d404341b.jpg\",\"img/0894/767a0eec-1064-46b1-b1aa-dfa02b0cd74e.jpg\"]","trial_type":"similarity","trial_index":8,"time_elapsed":71313,"internal_node_id":"0.0-6.0-2.0"},{"sim_score":5,"rt":6632,"stimulus":"[\"img/0881/0c7068da-d0d9-4103-bda1-74ef7a2b32c3.jpg\",\"img/0766/27f54113-8561-4568-9ffe-0a1650ae65ec.jpg\"]","trial_type":"similarity","trial_index":9,"time_elapsed":78949,"internal_node_id":"0.0-6.0-3.0"},{"sim_score":6,"rt":5443,"stimulus":"[\"img/0864/da39ad34-04e0-40d4-a724-c08d53e0ea09.jpg\",\"img/0860/c3379ff7-0763-48fe-a1ec-7ea3d611bc7a.jpg\"]","trial_type":"similarity","trial_index":10,"time_elapsed":85398,"internal_node_id":"0.0-6.0-4.0"},{"sim_score":6,"rt":4950,"stimulus":"[\"img/0902/3b243e54-0803-4c29-af42-4037c2118495.jpg\",\"img/0899/66ab3178-c3fe-4455-ad17-d5952b08e018.jpg\"]","trial_type":"similarity","trial_index":11,"time_elapsed":91351,"internal_node_id":"0.0-6.0-5.0"},{"sim_score":4,"rt":4692,"stimulus":"[\"img/0868/77091fc7-a590-4ebb-b915-fdb2483a2399.jpg\",\"img/0769/f2740c58-7c02-433f-920b-746b0b75435b.jpg\"]","trial_type":"similarity","trial_index":12,"time_elapsed":97048,"internal_node_id":"0.0-6.0-6.0"},{"sim_score":4,"rt":6741,"stimulus":"[\"img/0764/83c93cce-18d1-4aa7-9e23-2c268afe0a46.jpg\",\"img/0901/04a53755-6da5-44d4-a7a6-48a6bc0a2280.jpg\"]","trial_type":"similarity","trial_index":13,"time_elapsed":104794,"internal_node_id":"0.0-6.0-7.0"},{"sim_score":3,"rt":4126,"stimulus":"[\"img/0881/c843e210-bdfe-4a7c-8bbe-fcea1f90fe1c.jpg\",\"img/0866/386235d2-6857-41e7-88a8-25cfc3430025.jpg\"]","trial_type":"similarity","trial_index":14,"time_elapsed":109924,"internal_node_id":"0.0-6.0-8.0"},{"sim_score":2,"rt":6174,"stimulus":"[\"img/0867/50a1b60e-3a29-44bf-b606-d4bd3746fea9.jpg\",\"img/0899/25ae6ec8-9565-49fe-a8bb-8d0666f52716.jpg\"]","trial_type":"similarity","trial_index":15,"time_elapsed":117103,"internal_node_id":"0.0-6.0-9.0"},{"sim_score":3,"rt":6359,"stimulus":"[\"img/0875/527ced51-8e53-4aab-ab05-86df219104c0.jpg\",\"img/0766/09f646c8-a69e-4ed3-879c-8d29b04ad7f9.jpg\"]","trial_type":"similarity","trial_index":16,"time_elapsed":124466,"internal_node_id":"0.0-6.0-10.0"},{"sim_score":3,"rt":5018,"stimulus":"[\"img/0901/443f2e59-199b-4f7b-9de9-c44ad97326a5.jpg\",\"img/0875/5a716432-c6ca-4b1c-955a-2b8ac25198ee.jpg\"]","trial_type":"similarity","trial_index":17,"time_elapsed":130488,"internal_node_id":"0.0-6.0-11.0"},{"sim_score":5,"rt":5848,"stimulus":"[\"img/0902/af45fe42-178c-4c1a-99ef-256e87e3b092.jpg\",\"img/0860/e14d67c1-6d92-4f1e-9257-c8607159c19c.jpg\"]","trial_type":"similarity","trial_index":18,"time_elapsed":137340,"internal_node_id":"0.0-6.0-12.0"},{"sim_score":3,"rt":4635,"stimulus":"[\"img/0874/995f0332-0439-4eb4-add3-957335dbf6d9.jpg\",\"img/0867/c66898ba-b71b-4d50-84f9-f7f84853a98d.jpg\"]","trial_type":"similarity","trial_index":19,"time_elapsed":142979,"internal_node_id":"0.0-6.0-13.0"},{"sim_score":3,"rt":4686,"stimulus":"[\"img/0904/96e503ea-6630-4996-85f2-0237688ce441.jpg\",\"img/0866/11a1d141-be5e-443c-98c1-a9d4d9e3dec0.jpg\"]","trial_type":"similarity","trial_index":20,"time_elapsed":148669,"internal_node_id":"0.0-6.0-14.0"},{"sim_score":3,"rt":6265,"stimulus":"[\"img/0758/821c68d3-5cb0-4eae-8659-30e6263fca39.jpg\",\"img/0902/6c2c243a-f663-45db-baf5-038d3d58c589.jpg\"]","trial_type":"similarity","trial_index":21,"time_elapsed":155939,"internal_node_id":"0.0-6.0-15.0"},{"sim_score":2,"rt":4184,"stimulus":"[\"img/0867/cc72ed48-7704-422c-86d6-467a1145287a.jpg\",\"img/0898/cd3aaa3f-efa9-4ab3-8d6f-a6a9273ddf42.jpg\"]","trial_type":"similarity","trial_index":22,"time_elapsed":161127,"internal_node_id":"0.0-6.0-16.0"},{"sim_score":2,"rt":5009,"stimulus":"[\"img/0904/4d7d70a3-9477-4921-bda0-f9531d0a5c5b.jpg\",\"img/0868/15dd6fd7-791e-4b53-b203-195d617521a4.jpg\"]","trial_type":"similarity","trial_index":23,"time_elapsed":167139,"internal_node_id":"0.0-6.0-17.0"},{"sim_score":2,"rt":3966,"stimulus":"[\"img/0766/d50d734f-285c-4840-bc7a-c8dd4aff391e.jpg\",\"img/0864/3651d070-2fc5-4848-b6a6-088a2d9ac5c9.jpg\"]","trial_type":"similarity","trial_index":24,"time_elapsed":172109,"internal_node_id":"0.0-6.0-18.0"},{"sim_score":3,"rt":5804,"stimulus":"[\"img/0899/7b7380d5-d2be-44e5-a09a-c1756f87ef71.jpg\",\"img/0766/ba35c0fc-4d5b-490d-959e-c94b279cdd02.jpg\"]","trial_type":"similarity","trial_index":25,"time_elapsed":178917,"internal_node_id":"0.0-6.0-19.0"},{"sim_score":3,"rt":6262,"stimulus":"[\"img/0764/c80b3e06-2ee3-4326-9678-340607eb5348.jpg\",\"img/0758/65d426d6-3ff6-415d-8654-a43b83ecc4fe.jpg\"]","trial_type":"similarity","trial_index":26,"time_elapsed":186184,"internal_node_id":"0.0-6.0-20.0"},{"sim_score":2,"rt":5328,"stimulus":"[\"img/0901/58978a6d-a3e2-4c59-8d62-f60693ecc0f6.jpg\",\"img/0874/8cdb1c07-1c32-46d2-981c-3636560fa6e5.jpg\"]","trial_type":"similarity","trial_index":27,"time_elapsed":192515,"internal_node_id":"0.0-6.0-21.0"},{"sim_score":3,"rt":6540,"stimulus":"[\"img/0875/dbdd643e-6d0e-4a5c-ab57-b9c29b9c981a.jpg\",\"img/0758/e1ba5e53-addc-436a-b428-d34fc1b130dc.jpg\"]","trial_type":"similarity","trial_index":28,"time_elapsed":200059,"internal_node_id":"0.0-6.0-22.0"},{"sim_score":3,"rt":4891,"stimulus":"[\"img/0867/f26f6b60-f772-4f4c-95a4-addc62cfd692.jpg\",\"img/0881/1407b85b-a1c6-45b1-9884-3b24203efadb.jpg\"]","trial_type":"similarity","trial_index":29,"time_elapsed":205955,"internal_node_id":"0.0-6.0-23.0"},{"sim_score":2,"rt":4584,"stimulus":"[\"img/0758/53f35650-e455-4b53-8be4-c3c8271c6466.jpg\",\"img/0901/693e0535-ef7e-4d60-af9d-fac2f38e8307.jpg\"]","trial_type":"similarity","trial_index":30,"time_elapsed":211542,"internal_node_id":"0.0-6.0-24.0"},{"sim_score":2,"rt":4605,"stimulus":"[\"img/0868/6a28c3b0-3d76-498a-9fb7-ddafc665eca8.jpg\",\"img/0875/5a1e5100-0d94-4fec-bbe9-ca9894d2cf8e.jpg\"]","trial_type":"similarity","trial_index":31,"time_elapsed":217150,"internal_node_id":"0.0-6.0-25.0"},{"sim_score":3,"rt":5521,"stimulus":"[\"img/0903/150cf64c-0bd2-4674-abbb-a1387cf1f3e9.jpg\",\"img/0901/7c16dd9c-44ad-4d5b-990c-6a0b9b48b1b1.jpg\"]","trial_type":"similarity","trial_index":32,"time_elapsed":223674,"internal_node_id":"0.0-6.0-26.0"},{"sim_score":5,"rt":5971,"stimulus":"[\"img/0894/7f2f31fd-6618-41c6-b65a-0fd8b2851bc9.jpg\",\"img/0899/57476fed-5962-4272-8fc9-b317bb777b54.jpg\"]","trial_type":"similarity","trial_index":33,"time_elapsed":230648,"internal_node_id":"0.0-6.0-27.0"},{"sim_score":4,"rt":5528,"stimulus":"[\"img/0862/e8cc3bdf-cc43-4565-bccf-492626c70953.jpg\",\"img/0867/f8488a47-94ee-4166-952c-44e16cf172f6.jpg\"]","trial_type":"similarity","trial_index":34,"time_elapsed":237180,"internal_node_id":"0.0-6.0-28.0"},{"sim_score":5,"rt":5092,"stimulus":"[\"img/0864/6f631579-acf1-415c-a42c-1207f62a8d99.jpg\",\"img/0875/99698b4d-b4a1-44bc-8c83-8ea755bbbf61.jpg\"]","trial_type":"similarity","trial_index":35,"time_elapsed":243276,"internal_node_id":"0.0-6.0-29.0"},{"sim_score":3,"rt":4894,"stimulus":"[\"img/0862/ad593cc7-cabe-4bb7-8e14-8a447a0717b4.jpg\",\"img/0874/a3bc679d-619f-4db6-bb68-116dcb757d9c.jpg\"]","trial_type":"similarity","trial_index":36,"time_elapsed":249174,"internal_node_id":"0.0-6.0-30.0"},{"sim_score":3,"rt":5020,"stimulus":"[\"img/0903/5c6b1f57-b3a2-40f5-9fb1-82785e24b6a0.jpg\",\"img/0758/67c0be2f-9e91-48b3-8219-70ac0a1802fa.jpg\"]","trial_type":"similarity","trial_index":37,"time_elapsed":255199,"internal_node_id":"0.0-6.0-31.0"},{"sim_score":3,"rt":4572,"stimulus":"[\"img/0866/0207e9a2-7dbb-40b5-9459-b472aaeceb2a.jpg\",\"img/0901/233a6948-48eb-4b67-8259-222b916b2322.jpg\"]","trial_type":"similarity","trial_index":38,"time_elapsed":260775,"internal_node_id":"0.0-6.0-32.0"},{"sim_score":3,"rt":4776,"stimulus":"[\"img/0874/29830da7-be5f-44e5-b141-652a0ccf7269.jpg\",\"img/0899/00715b3f-851b-420b-a26b-d7f79f7759a9.jpg\"]","trial_type":"similarity","trial_index":39,"time_elapsed":266555,"internal_node_id":"0.0-6.0-33.0"},{"sim_score":3,"rt":5163,"stimulus":"[\"img/0903/6f343da5-00d9-4d50-89d1-2ed24cdb8319.jpg\",\"img/0902/04a6ad4a-afc6-4871-8225-56b299af7b6b.jpg\"]","trial_type":"similarity","trial_index":40,"time_elapsed":272721,"internal_node_id":"0.0-6.0-34.0"},{"sim_score":5,"rt":4639,"stimulus":"[\"img/0758/d41c06bf-ebaf-454b-91c6-1a17f917b659.jpg\",\"img/0866/4a87911a-d5be-4d4e-ab8e-3d1f581bf507.jpg\"]","trial_type":"similarity","trial_index":41,"time_elapsed":278363,"internal_node_id":"0.0-6.0-35.0"},{"sim_score":4,"rt":6490,"stimulus":"[\"img/0875/ebf7653f-ff45-4e9f-af58-2c042ab3cd2b.jpg\",\"img/0903/c3cb4a01-2797-43ca-b216-88c67b323fbb.jpg\"]","trial_type":"similarity","trial_index":42,"time_elapsed":285857,"internal_node_id":"0.0-6.0-36.0"},{"sim_score":3,"rt":9997,"stimulus":"[\"img/0864/efcfbb1b-8197-44c9-b723-40d6c608dd3c.jpg\",\"img/0902/0c760cc9-10ac-429e-8957-a7d51fc99683.jpg\"]","trial_type":"similarity","trial_index":43,"time_elapsed":302087,"internal_node_id":"0.0-6.0-37.0"},{"sim_score":2,"rt":5068,"stimulus":"[\"img/0901/a0d65c84-3f20-476a-92d1-0c01e8019cf4.jpg\",\"img/0867/bf560d4f-dee3-4f11-a385-705cc1aa5f3c.jpg\"]","trial_type":"similarity","trial_index":44,"time_elapsed":308158,"internal_node_id":"0.0-6.0-38.0"},{"sim_score":5,"rt":4866,"stimulus":"[\"img/0862/f188d4f0-76a4-4102-818c-a209969d73a5.jpg\",\"img/0860/31ff6436-98bf-4652-bed2-40f627229568.jpg\"]","trial_type":"similarity","trial_index":45,"time_elapsed":314028,"internal_node_id":"0.0-6.0-39.0"},{"sim_score":5,"rt":4647,"stimulus":"[\"img/0867/c71dc569-f49c-4397-8381-68b8d726736d.jpg\",\"img/0868/3a62db2d-97e9-44a3-b8e3-a48c6f0e423b.jpg\"]","trial_type":"similarity","trial_index":46,"time_elapsed":319678,"internal_node_id":"0.0-6.0-40.0"},{"sim_score":2,"rt":4291,"stimulus":"[\"img/0904/25365108-e038-4021-aac9-797f2063b337.jpg\",\"img/0899/93494f3b-d539-4075-b027-d82e344563da.jpg\"]","trial_type":"similarity","trial_index":47,"time_elapsed":324972,"internal_node_id":"0.0-6.0-41.0"},{"sim_score":2,"rt":3731,"stimulus":"[\"img/0862/fad1d7c1-8187-43c3-942a-0fc12183e48e.jpg\",\"img/0894/133a1636-d123-4893-873c-1718050f832a.jpg\"]","trial_type":"similarity","trial_index":48,"time_elapsed":329706,"internal_node_id":"0.0-6.0-42.0"},{"sim_score":3,"rt":5794,"stimulus":"[\"img/0875/34132396-d896-4c2d-8087-646dd867e769.jpg\",\"img/0904/60d1a521-edf7-4696-9263-f21ac0e62a01.jpg\"]","trial_type":"similarity","trial_index":49,"time_elapsed":336504,"internal_node_id":"0.0-6.0-43.0"},{"sim_score":2,"rt":5286,"stimulus":"[\"img/0874/31e22c7c-99aa-40b1-bf03-dd73fa2df4d6.jpg\",\"img/0898/40f99fb2-64d2-4e72-8a7f-a1cf60741e69.jpg\"]","trial_type":"similarity","trial_index":50,"time_elapsed":342794,"internal_node_id":"0.0-6.0-44.0"},{"sim_score":1,"rt":4162,"stimulus":"[\"img/0898/a114b375-cb89-44ba-9498-74213f1ecdee.jpg\",\"img/0868/0d3abd3a-b6c3-4584-a9f7-e2da63748b3d.jpg\"]","trial_type":"similarity","trial_index":51,"time_elapsed":347960,"internal_node_id":"0.0-6.0-45.0"},{"sim_score":4,"rt":1229,"stimulus":"[\"img/0901/a373612d-67e2-4fec-9764-21d3d6ef6359.jpg\",\"img/0860/18dfed73-e36b-4487-a8bd-0b8cff8e3668.jpg\"]","trial_type":"similarity","trial_index":52,"time_elapsed":350192,"internal_node_id":"0.0-6.0-46.0"},{"sim_score":6,"rt":5149,"stimulus":"[\"img/0894/1a010553-d598-4b06-a772-81f1e7b3addb.jpg\",\"img/0902/b03129ba-b087-4558-af37-e8399d6217d6.jpg\"]","trial_type":"similarity","trial_index":53,"time_elapsed":356344,"internal_node_id":"0.0-6.0-47.0"},{"sim_score":4,"rt":5746,"stimulus":"[\"img/0764/ef0e64c6-d0dd-4dc6-87b6-ce5c0665f421.jpg\",\"img/0862/ee3b7bff-4a70-4e84-9bea-4a565e456acb.jpg\"]","trial_type":"similarity","trial_index":54,"time_elapsed":363094,"internal_node_id":"0.0-6.0-48.0"},{"sim_score":5,"rt":5136,"stimulus":"[\"img/0881/20af39f5-373d-4a55-a437-2dc4c0382c46.jpg\",\"img/0758/6e95579b-5166-487c-b8cb-e417c6a218e3.jpg\"]","trial_type":"similarity","trial_index":55,"time_elapsed":369234,"internal_node_id":"0.0-6.0-49.0"},{"sim_score":5,"rt":4715,"stimulus":"[\"img/0766/d512b99c-a2dc-40d7-8e86-827323a0cbcf.jpg\",\"img/0769/aad494cc-674d-4a08-9bfa-24a88ebe3c79.jpg\"]","trial_type":"similarity","trial_index":56,"time_elapsed":374952,"internal_node_id":"0.0-6.0-50.0"},{"sim_score":5,"rt":5145,"stimulus":"[\"img/0875/fb732ab5-013a-4366-9f65-27811ed157e9.jpg\",\"img/0866/23a224f3-2012-4fc8-8e0f-3c36f8de27fd.jpg\"]","trial_type":"similarity","trial_index":57,"time_elapsed":381101,"internal_node_id":"0.0-6.0-51.0"},{"sim_score":4,"rt":5803,"stimulus":"[\"img/0894/e5edf723-72a5-4673-8441-6c1734a8929b.jpg\",\"img/0904/9d30eff1-46ef-4453-b11e-124ef8145c00.jpg\"]","trial_type":"similarity","trial_index":58,"time_elapsed":387907,"internal_node_id":"0.0-6.0-52.0"},{"sim_score":3,"rt":4159,"stimulus":"[\"img/0758/d57c2592-a317-4f63-91be-91a3a9afd222.jpg\",\"img/0769/82ab9db6-4578-4e79-874f-f09100439f09.jpg\"]","trial_type":"similarity","trial_index":59,"time_elapsed":393069,"internal_node_id":"0.0-6.0-53.0"},{"sim_score":3,"rt":4011,"stimulus":"[\"img/0902/168ebd47-9e82-4ab7-a18b-c3da85072db8.jpg\",\"img/0874/a82926a3-0b43-4add-803c-d5f9ea7798ee.jpg\"]","trial_type":"similarity","trial_index":60,"time_elapsed":398083,"internal_node_id":"0.0-6.0-54.0"},{"sim_score":3,"rt":4042,"stimulus":"[\"img/0903/8635cf25-2648-4fe9-8c42-79d2598e999c.jpg\",\"img/0862/00c06b00-3b73-44e9-bc1e-c5aafb438321.jpg\"]","trial_type":"similarity","trial_index":61,"time_elapsed":403129,"internal_node_id":"0.0-6.0-55.0"},{"sim_score":2,"rt":4649,"stimulus":"[\"img/0866/a15b02be-11bb-43e3-b0e0-ecc3bd7dfc49.jpg\",\"img/0894/38f5931f-926d-414e-b498-66b188978b7a.jpg\"]","trial_type":"similarity","trial_index":62,"time_elapsed":408781,"internal_node_id":"0.0-6.0-56.0"},{"sim_score":1,"rt":3476,"stimulus":"[\"img/0867/12264664-1860-46df-8c21-162b9817cdda.jpg\",\"img/0904/d23dd7be-7fe8-4435-82f7-bd592c01e6a1.jpg\"]","trial_type":"similarity","trial_index":63,"time_elapsed":413261,"internal_node_id":"0.0-6.0-57.0"},{"sim_score":3,"rt":4948,"stimulus":"[\"img/0875/d59ff733-eaff-4ee2-9443-06954dd0bcb6.jpg\",\"img/0881/609a5e93-38b5-4940-8627-2bf8fad7f802.jpg\"]","trial_type":"similarity","trial_index":64,"time_elapsed":419214,"internal_node_id":"0.0-6.0-58.0"},{"sim_score":1,"rt":5787,"stimulus":"[\"img/0866/bf14b5bd-fb55-47db-86b9-4f8aeb9a6dad.jpg\",\"img/0860/87039971-2210-4aab-93c0-8e9b5f1655b2.jpg\"]","trial_type":"similarity","trial_index":65,"time_elapsed":426003,"internal_node_id":"0.0-6.0-59.0"},{"sim_score":1,"rt":3589,"stimulus":"[\"img/0903/9b60ef5b-234f-4239-892b-3d4c412accc2.jpg\",\"img/0866/6f2a90d7-14f1-4f1b-bd64-fc0af6b9fe44.jpg\"]","trial_type":"similarity","trial_index":66,"time_elapsed":430596,"internal_node_id":"0.0-6.0-60.0"},{"sim_score":3,"rt":4793,"stimulus":"[\"img/0860/702bd09d-df3a-40aa-a267-5f04474305b5.jpg\",\"img/0875/e7e66b13-b573-431e-b85e-288ce04a35a3.jpg\"]","trial_type":"similarity","trial_index":67,"time_elapsed":436392,"internal_node_id":"0.0-6.0-61.0"},{"sim_score":2,"rt":4513,"stimulus":"[\"img/0898/f3a3f225-1248-4ac7-b93b-f0ff28485bf3.jpg\",\"img/0862/1c20f772-3a51-4a80-aac0-f57dc9f86c28.jpg\"]","trial_type":"similarity","trial_index":68,"time_elapsed":441908,"internal_node_id":"0.0-6.0-62.0"},{"sim_score":1,"rt":4703,"stimulus":"[\"img/0902/95a36b6b-9601-4fa5-8fd9-606ea62f9425.jpg\",\"img/0766/1865bfc9-2410-4765-a804-3ae4ba2393d0.jpg\"]","trial_type":"similarity","trial_index":69,"time_elapsed":447614,"internal_node_id":"0.0-6.0-63.0"},{"sim_score":3,"rt":4376,"stimulus":"[\"img/0758/a085b443-b5d7-4cb2-9ad4-b9dab0fc23f1.jpg\",\"img/0864/1d15626a-2f7c-410f-819c-0fa2c967e95e.jpg\"]","trial_type":"similarity","trial_index":70,"time_elapsed":452993,"internal_node_id":"0.0-6.0-64.0"},{"sim_score":2,"rt":3786,"stimulus":"[\"img/0894/5f15154e-e72e-4ce5-aafb-bce6f0564006.jpg\",\"img/0860/8a92e21b-6a32-4e4a-a445-2d5a487ed0a4.jpg\"]","trial_type":"similarity","trial_index":71,"time_elapsed":457782,"internal_node_id":"0.0-6.0-65.0"},{"sim_score":1,"rt":3497,"stimulus":"[\"img/0899/b45c550b-96c3-4255-ad59-48a2b4db1c1e.jpg\",\"img/0868/5fa7f9d0-f0e5-454c-8224-74d964818f56.jpg\"]","trial_type":"similarity","trial_index":72,"time_elapsed":462283,"internal_node_id":"0.0-6.0-66.0"},{"sim_score":4,"rt":4640,"stimulus":"[\"img/0866/d266fece-59b3-46fa-b69f-96f6efb81b59.jpg\",\"img/0862/92f0146c-20c4-482e-aef5-adb693790338.jpg\"]","trial_type":"similarity","trial_index":73,"time_elapsed":467926,"internal_node_id":"0.0-6.0-67.0"},{"sim_score":2,"rt":4974,"stimulus":"[\"img/0860/9593362c-9fe5-4d12-9735-6000a11f6aa5.jpg\",\"img/0758/d540bee6-b460-4c32-ac57-bc282742d7d4.jpg\"]","trial_type":"similarity","trial_index":74,"time_elapsed":473904,"internal_node_id":"0.0-6.0-68.0"},{"sim_score":1,"rt":4821,"stimulus":"[\"img/0902/1f4a4c62-68c1-4993-b213-05652a173ed1.jpg\",\"img/0867/aa05d113-fc19-4756-a8eb-7878f580bc92.jpg\"]","trial_type":"similarity","trial_index":75,"time_elapsed":479729,"internal_node_id":"0.0-6.0-69.0"},{"sim_score":2,"rt":4007,"stimulus":"[\"img/0862/92fcd8a4-8193-4a6a-ae09-dd4a6338b0df.jpg\",\"img/0901/da4fe30f-d12a-491e-96a2-5ab8ebaadd09.jpg\"]","trial_type":"similarity","trial_index":76,"time_elapsed":484739,"internal_node_id":"0.0-6.0-70.0"},{"sim_score":6,"rt":5097,"stimulus":"[\"img/0867/075e0f95-856b-4cbb-acf5-092393aaf04e.jpg\",\"img/0866/c446214b-a368-4c65-ae39-ea46894256ab.jpg\"]","trial_type":"similarity","trial_index":77,"time_elapsed":490839,"internal_node_id":"0.0-6.0-71.0"},{"sim_score":4,"rt":5883,"stimulus":"[\"img/0860/4c530c3c-6aab-492a-94d1-9c01797bde40.jpg\",\"img/0904/4e58005d-a2ec-4aaa-b199-445343561396.jpg\"]","trial_type":"similarity","trial_index":78,"time_elapsed":497725,"internal_node_id":"0.0-6.0-72.0"},{"sim_score":2,"rt":3780,"stimulus":"[\"img/0875/90da8d75-108a-44ad-b999-e21fee3860d3.jpg\",\"img/0899/f58b8d2f-b19d-4b59-8b94-8834be92e4ba.jpg\"]","trial_type":"similarity","trial_index":79,"time_elapsed":502509,"internal_node_id":"0.0-6.0-73.0"},{"sim_score":1,"rt":3527,"stimulus":"[\"img/0899/8abe6c69-822c-436c-9bf2-96c818b49ba5.jpg\",\"img/0758/61d64021-9214-4951-bdf8-f871f9827cf9.jpg\"]","trial_type":"similarity","trial_index":80,"time_elapsed":507039,"internal_node_id":"0.0-6.0-74.0"},{"sim_score":2,"rt":4612,"stimulus":"[\"img/0862/064818ee-13d5-4618-bb24-21c7368ea278.jpg\",\"img/0875/5a7c4e35-6514-4e12-8879-d16071da4cd6.jpg\"]","trial_type":"similarity","trial_index":81,"time_elapsed":521545,"internal_node_id":"0.0-6.0-75.0"},{"sim_score":5,"rt":5280,"stimulus":"[\"img/0901/effc03f6-8f9d-46db-a66c-16fc83891c5c.jpg\",\"img/0894/8cadb87a-7001-4e47-99fb-1867bebf1668.jpg\"]","trial_type":"similarity","trial_index":82,"time_elapsed":527829,"internal_node_id":"0.0-6.0-76.0"},{"sim_score":2,"rt":4649,"stimulus":"[\"img/0766/db750ba0-ce04-46e1-b601-e1b80212bad2.jpg\",\"img/0758/dd559618-7f09-4a07-8018-d311c4a5ea29.jpg\"]","trial_type":"similarity","trial_index":83,"time_elapsed":533482,"internal_node_id":"0.0-6.0-77.0"},{"sim_score":3,"rt":4003,"stimulus":"[\"img/0894/b422d5c6-3c5a-49ae-a53e-7e88ac993f49.jpg\",\"img/0764/4eff630a-6426-4f8d-b2ba-b4d9842a0962.jpg\"]","trial_type":"similarity","trial_index":84,"time_elapsed":538488,"internal_node_id":"0.0-6.0-78.0"},{"sim_score":2,"rt":4703,"stimulus":"[\"img/0860/8fdba999-b946-4c7d-9891-336018b563ef.jpg\",\"img/0867/1719a35d-f085-48c0-9099-16c94fe418b4.jpg\"]","trial_type":"similarity","trial_index":85,"time_elapsed":544194,"internal_node_id":"0.0-6.0-79.0"},{"sim_score":5,"rt":4227,"stimulus":"[\"img/0898/b2732712-71c2-45d8-834f-2b2ed5504910.jpg\",\"img/0901/71e551a2-9ce2-409c-9c7c-dd556a0791e9.jpg\"]","trial_type":"similarity","trial_index":86,"time_elapsed":549424,"internal_node_id":"0.0-6.0-80.0"},{"sim_score":1,"rt":3883,"stimulus":"[\"img/0874/93d1f8dc-acf2-4f03-bd8d-8ec35df276ed.jpg\",\"img/0764/978aede9-4590-4ad0-b234-135c83e5d669.jpg\"]","trial_type":"similarity","trial_index":87,"time_elapsed":554310,"internal_node_id":"0.0-6.0-81.0"},{"sim_score":1,"rt":3625,"stimulus":"[\"img/0899/0e1d936a-dbe2-4afc-9f19-7b7a1ae6c9ed.jpg\",\"img/0862/4f0a3b4c-afbf-486e-b248-1d54982f54b4.jpg\"]","trial_type":"similarity","trial_index":88,"time_elapsed":558938,"internal_node_id":"0.0-6.0-82.0"},{"sim_score":5,"rt":4464,"stimulus":"[\"img/0766/b84598d0-5b41-4841-88b0-b441b48289f5.jpg\",\"img/0901/548d1110-7cb8-42a2-9927-9798875c8b5c.jpg\"]","trial_type":"similarity","trial_index":89,"time_elapsed":564406,"internal_node_id":"0.0-6.0-83.0"},{"sim_score":3,"rt":5280,"stimulus":"[\"img/0881/344de456-b358-4887-bd0e-e4c3278af887.jpg\",\"img/0898/993d8f2d-bef7-4251-a193-0f93a32b7763.jpg\"]","trial_type":"similarity","trial_index":90,"time_elapsed":570690,"internal_node_id":"0.0-6.0-84.0"},{"sim_score":3,"rt":5310,"stimulus":"[\"img/0868/09a9ef4d-d000-4cfa-a6aa-ebec7c2edeb4.jpg\",\"img/0860/d9a0d117-6d1d-41c0-8fec-9aff0fd9e9f2.jpg\"]","trial_type":"similarity","trial_index":91,"time_elapsed":577004,"internal_node_id":"0.0-6.0-85.0"},{"sim_score":5,"rt":5547,"stimulus":"[\"img/0758/a709631e-3705-4725-ac40-f0d916924f08.jpg\",\"img/0868/293079b8-7e0c-4afd-a390-1e5d35fe3ded.jpg\"]","trial_type":"similarity","trial_index":92,"time_elapsed":583555,"internal_node_id":"0.0-6.0-86.0"},{"sim_score":3,"rt":5429,"stimulus":"[\"img/0864/c3b63e8f-ea39-4d70-a1f2-b3fe4be8eb75.jpg\",\"img/0894/3664e04c-c6d3-4c9b-afb6-25d89974b174.jpg\"]","trial_type":"similarity","trial_index":93,"time_elapsed":589987,"internal_node_id":"0.0-6.0-87.0"},{"sim_score":5,"rt":6201,"stimulus":"[\"img/0866/02f5e6b9-52b7-448c-9708-5b460d0c9a23.jpg\",\"img/0902/3f0eeac5-c996-4026-a376-563ce8f28521.jpg\"]","trial_type":"similarity","trial_index":94,"time_elapsed":597191,"internal_node_id":"0.0-6.0-88.0"},{"sim_score":1,"rt":3823,"stimulus":"[\"img/0769/91acb237-65a3-4d0b-9748-af5c7b83d3c7.jpg\",\"img/0867/7d1c497b-c1b3-4ed8-abb5-d7f73306015f.jpg\"]","trial_type":"similarity","trial_index":95,"time_elapsed":602017,"internal_node_id":"0.0-6.0-89.0"},{"sim_score":5,"rt":4623,"stimulus":"[\"img/0874/ca23d307-fc00-4d7d-9106-584c6eb21b4d.jpg\",\"img/0875/f87b67d7-c33e-40d1-b281-248c4be1cb6e.jpg\"]","trial_type":"similarity","trial_index":96,"time_elapsed":607643,"internal_node_id":"0.0-6.0-90.0"},{"sim_score":5,"rt":5012,"stimulus":"[\"img/0864/e336a4c5-6648-4fd7-b2f6-93a3fb83f8c6.jpg\",\"img/0874/2c9464dd-8a23-4baa-ac94-1ba3af5c15cc.jpg\"]","trial_type":"similarity","trial_index":97,"time_elapsed":613659,"internal_node_id":"0.0-6.0-91.0"},{"sim_score":6,"rt":5384,"stimulus":"[\"img/0881/dea58fad-b4f1-41d9-bd3f-916eff19a3fd.jpg\",\"img/0862/d0ca4c78-fc35-46ed-bdcc-8e124283c53e.jpg\"]","trial_type":"similarity","trial_index":98,"time_elapsed":620046,"internal_node_id":"0.0-6.0-92.0"},{"sim_score":5,"rt":4332,"stimulus":"[\"img/0864/ef9cbca0-4be8-435d-ad49-977259e80409.jpg\",\"img/0881/19e82c47-8e4b-45d2-a6c8-74181eb4155e.jpg\"]","trial_type":"similarity","trial_index":99,"time_elapsed":625381,"internal_node_id":"0.0-6.0-93.0"},{"sim_score":5,"rt":4230,"stimulus":"[\"img/0899/ddf96ade-692e-4602-bd22-dedbb46401bc.jpg\",\"img/0901/5657dd86-0ff9-4753-ba2b-9dfb223e5c89.jpg\"]","trial_type":"similarity","trial_index":100,"time_elapsed":630615,"internal_node_id":"0.0-6.0-94.0"},{"sim_score":2,"rt":4143,"stimulus":"[\"img/0874/ca76a855-4e77-4f2f-872a-0a718153e7ed.jpg\",\"img/0766/33aa9ebb-c9f5-418f-8c8b-c77861889568.jpg\"]","trial_type":"similarity","trial_index":101,"time_elapsed":635762,"internal_node_id":"0.0-6.0-95.0"},{"sim_score":2,"rt":3817,"stimulus":"[\"img/0881/ed4c971f-0873-4fc8-b6d6-e8bbd82f0bcc.jpg\",\"img/0899/d60714ae-98d7-4564-8c98-94dba1351135.jpg\"]","trial_type":"similarity","trial_index":102,"time_elapsed":640582,"internal_node_id":"0.0-6.0-96.0"},{"sim_score":2,"rt":4516,"stimulus":"[\"img/0862/a0a3a7ba-7798-46a3-b4ca-05e1f6e581d0.jpg\",\"img/0902/af40b98b-3d23-4d95-b401-49ba5783ce39.jpg\"]","trial_type":"similarity","trial_index":103,"time_elapsed":646101,"internal_node_id":"0.0-6.0-97.0"},{"sim_score":5,"rt":6467,"stimulus":"[\"img/0899/d8f2dd94-570e-4e8c-a087-d96090fb9e8c.jpg\",\"img/0764/39a9fc7e-b863-432c-9374-de43983f31a5.jpg\"]","trial_type":"similarity","trial_index":104,"time_elapsed":653572,"internal_node_id":"0.0-6.0-98.0"},{"sim_score":5,"rt":4472,"stimulus":"[\"img/0758/caa93da2-9edf-49fa-96b9-32dedd8f5078.jpg\",\"img/0862/f43ceabf-acc1-4107-b857-5d1849808f93.jpg\"]","trial_type":"similarity","trial_index":105,"time_elapsed":659048,"internal_node_id":"0.0-6.0-99.0"},{"sim_score":4,"rt":5225,"stimulus":"[\"img/0764/4bec8d92-75aa-475a-954d-8215dbe538f5.jpg\",\"img/0898/08c72dac-f8ad-407a-9ce6-8c9a5d679c3a.jpg\"]","trial_type":"similarity","trial_index":106,"time_elapsed":665276,"internal_node_id":"0.0-6.0-100.0"},{"sim_score":5,"rt":4809,"stimulus":"[\"img/0901/168eb52c-c415-43f1-b5c8-e76e1a1ec247.jpg\",\"img/0902/bd89a85f-3853-4786-acd6-98818ee29f1c.jpg\"]","trial_type":"similarity","trial_index":107,"time_elapsed":671088,"internal_node_id":"0.0-6.0-101.0"},{"sim_score":1,"rt":5437,"stimulus":"[\"img/0764/bc3865c9-9004-4582-88a7-048478673f97.jpg\",\"img/0868/7b212364-ff5f-4e28-9241-7eb6ea00161b.jpg\"]","trial_type":"similarity","trial_index":108,"time_elapsed":677529,"internal_node_id":"0.0-6.0-102.0"},{"sim_score":2,"rt":4205,"stimulus":"[\"img/0769/3adfa417-3b90-4aab-b437-5eaa474189cb.jpg\",\"img/0881/f4e3e181-b3c9-4af2-a5a4-fc135ab70d2e.jpg\"]","trial_type":"similarity","trial_index":109,"time_elapsed":682738,"internal_node_id":"0.0-6.0-103.0"},{"sim_score":1,"rt":4075,"stimulus":"[\"img/0864/ea327690-500b-4137-bf91-451b309fe6a5.jpg\",\"img/0769/50985283-d353-4abc-9abe-14a91d56ebe6.jpg\"]","trial_type":"similarity","trial_index":110,"time_elapsed":687817,"internal_node_id":"0.0-6.0-104.0"},{"sim_score":6,"rt":5625,"stimulus":"[\"img/0866/8efcaa46-83ab-4dee-a35f-850402aa21ae.jpg\",\"img/0868/4bd5105a-d2c3-4f82-8c80-57196106ba53.jpg\"]","trial_type":"similarity","trial_index":111,"time_elapsed":694445,"internal_node_id":"0.0-6.0-105.0"},{"sim_score":4,"rt":4699,"stimulus":"[\"img/0868/fd307a36-9a3a-47d7-ab7c-f810d0b35040.jpg\",\"img/0862/7918ca67-5bd3-4606-a5ea-c39fb11a9297.jpg\"]","trial_type":"similarity","trial_index":112,"time_elapsed":700147,"internal_node_id":"0.0-6.0-106.0"},{"sim_score":4,"rt":5521,"stimulus":"[\"img/0766/60033a74-9919-47e5-913c-71d0d483e7e5.jpg\",\"img/0898/c3cecf20-f7fd-45fa-97d0-dc0a63e8d6c0.jpg\"]","trial_type":"similarity","trial_index":113,"time_elapsed":706671,"internal_node_id":"0.0-6.0-107.0"},{"sim_score":2,"rt":4219,"stimulus":"[\"img/0898/26c41340-15bd-4ead-8fe4-c0d0ddca09c2.jpg\",\"img/0864/300bb811-8b3c-4c42-8653-6097c3725197.jpg\"]","trial_type":"similarity","trial_index":114,"time_elapsed":711893,"internal_node_id":"0.0-6.0-108.0"},{"sim_score":2,"rt":4403,"stimulus":"[\"img/0868/e0aff734-077f-40dd-9781-74821abd3621.jpg\",\"img/0902/511abb54-0094-4f4d-b6dc-3f2c97050521.jpg\"]","trial_type":"similarity","trial_index":115,"time_elapsed":717299,"internal_node_id":"0.0-6.0-109.0"},{"sim_score":3,"rt":5123,"stimulus":"[\"img/0904/63dd06dd-dccb-47ba-9740-eb33239e18a7.jpg\",\"img/0764/ba0c0955-acbb-457d-b1c2-f006b88121d5.jpg\"]","trial_type":"similarity","trial_index":116,"time_elapsed":723425,"internal_node_id":"0.0-6.0-110.0"},{"sim_score":2,"rt":3538,"stimulus":"[\"img/0894/9b1333fd-3561-43bf-aee5-99b7b7ca3dc3.jpg\",\"img/0875/2e13d160-eea1-416b-aff1-d37ab99ecc1d.jpg\"]","trial_type":"similarity","trial_index":117,"time_elapsed":727967,"internal_node_id":"0.0-6.0-111.0"},{"sim_score":4,"rt":4514,"stimulus":"[\"img/0868/c8ac40c7-6904-4e13-8d61-c75d3052dc4e.jpg\",\"img/0874/1016b306-087c-4afc-aa08-fa527b28dc76.jpg\"]","trial_type":"similarity","trial_index":118,"time_elapsed":733485,"internal_node_id":"0.0-6.0-112.0"},{"sim_score":5,"rt":4072,"stimulus":"[\"img/0904/2f88ce53-02d0-4f95-a082-182c56a0eeb4.jpg\",\"img/0898/a8f16b02-e19f-423b-86c3-a36562ae1f9b.jpg\"]","trial_type":"similarity","trial_index":119,"time_elapsed":769699,"internal_node_id":"0.0-6.0-113.0"},{"sim_score":1,"rt":6105,"stimulus":"[\"img/0860/e8b8c51e-1834-4875-8b61-6c5bc9b178bd.jpg\",\"img/0766/26d3ae14-8275-4e08-99b2-a6598c193ddf.jpg\"]","trial_type":"similarity","trial_index":120,"time_elapsed":776808,"internal_node_id":"0.0-6.0-114.0"},{"sim_score":2,"rt":4252,"stimulus":"[\"img/0894/38cf335f-f76f-4349-8d65-e20cd6859565.jpg\",\"img/0874/bf14b896-e930-4fd9-9c05-2e83317a2773.jpg\"]","trial_type":"similarity","trial_index":121,"time_elapsed":782064,"internal_node_id":"0.0-6.0-115.0"},{"sim_score":5,"rt":4516,"stimulus":"[\"img/0899/4408c14d-c168-4a7d-96f6-bc87bfb58f83.jpg\",\"img/0903/31b5a5f4-b695-4af1-bad2-a19650a05498.jpg\"]","trial_type":"similarity","trial_index":122,"time_elapsed":787584,"internal_node_id":"0.0-6.0-116.0"},{"sim_score":3,"rt":5302,"stimulus":"[\"img/0881/e046471a-35b4-4159-bbf7-3cfd201bef66.jpg\",\"img/0764/56441045-b648-4ede-9632-3e9c0227080b.jpg\"]","trial_type":"similarity","trial_index":123,"time_elapsed":793891,"internal_node_id":"0.0-6.0-117.0"},{"sim_score":3,"rt":4284,"stimulus":"[\"img/0903/b0a3c45f-467e-412f-a183-c9c1827f2e63.jpg\",\"img/0769/8056889f-2b14-4782-bb25-b4e8896ab65b.jpg\"]","trial_type":"similarity","trial_index":124,"time_elapsed":799178,"internal_node_id":"0.0-6.0-118.0"},{"sim_score":5,"rt":3407,"stimulus":"[\"img/0901/b13fa50f-dbe0-4d0f-8647-6ac0fd8f40bd.jpg\",\"img/0904/4b8daf2a-13a9-4ea9-9e0b-b265b6e933e7.jpg\"]","trial_type":"similarity","trial_index":125,"time_elapsed":803589,"internal_node_id":"0.0-6.0-119.0"},{"sim_score":4,"rt":4751,"stimulus":"[\"img/0860/524b2e98-5767-4d53-942c-ebae6925659b.jpg\",\"img/0881/d1982897-8d8d-4704-a940-1ee5d07a1f15.jpg\"]","trial_type":"similarity","trial_index":126,"time_elapsed":809343,"internal_node_id":"0.0-6.0-120.0"},{"sim_score":5,"rt":4597,"stimulus":"[\"img/0758/ddc336e9-a8b6-4bb9-937a-c7e25e0e9250.jpg\",\"img/0874/eba003b4-cdab-4eee-8bc3-f064c7d94165.jpg\"]","trial_type":"similarity","trial_index":127,"time_elapsed":814943,"internal_node_id":"0.0-6.0-121.0"},{"sim_score":4,"rt":5553,"stimulus":"[\"img/0901/0adb3bd6-d758-4ba7-9723-3ad6cac05bd5.jpg\",\"img/0769/7c50e5f5-cc38-4d48-b009-fbe17bcea61c.jpg\"]","trial_type":"similarity","trial_index":128,"time_elapsed":821499,"internal_node_id":"0.0-6.0-122.0"},{"sim_score":4,"rt":4145,"stimulus":"[\"img/0902/6730b12a-f0a7-4587-8c10-a32fae16565b.jpg\",\"img/0904/e9423a8c-f946-43ad-ab7b-931acef870e2.jpg\"]","trial_type":"similarity","trial_index":129,"time_elapsed":826647,"internal_node_id":"0.0-6.0-123.0"},{"sim_score":2,"rt":4570,"stimulus":"[\"img/0899/1b3457ea-87d4-4946-a01c-aac1863ed46c.jpg\",\"img/0864/8ddd2e30-a1d0-479f-9cbe-591213023893.jpg\"]","trial_type":"similarity","trial_index":130,"time_elapsed":832221,"internal_node_id":"0.0-6.0-124.0"},{"sim_score":2,"rt":3804,"stimulus":"[\"img/0766/535849cc-ff5d-4df9-8f31-0ce94a97d571.jpg\",\"img/0868/4a8a45ed-2c4f-421b-9564-409a33ecd26c.jpg\"]","trial_type":"similarity","trial_index":131,"time_elapsed":837029,"internal_node_id":"0.0-6.0-125.0"},{"sim_score":2,"rt":3708,"stimulus":"[\"img/0764/974d52cc-6318-4e7a-b294-2f3e92ff800f.jpg\",\"img/0864/4bd81bc6-c13d-46df-95a9-485886dc7c1b.jpg\"]","trial_type":"similarity","trial_index":132,"time_elapsed":841741,"internal_node_id":"0.0-6.0-126.0"},{"sim_score":1,"rt":3772,"stimulus":"[\"img/0899/7f9d45d0-b2c6-40d3-aa41-c207db2c411b.jpg\",\"img/0866/a04d37f0-99dd-478a-b6c6-58b215138f84.jpg\"]","trial_type":"similarity","trial_index":133,"time_elapsed":846517,"internal_node_id":"0.0-6.0-127.0"},{"sim_score":2,"rt":5116,"stimulus":"[\"img/0901/2a953e50-d237-405c-a38d-5ed21494c968.jpg\",\"img/0881/667e2147-d457-4f32-aa5f-6ab86e5848f1.jpg\"]","trial_type":"similarity","trial_index":134,"time_elapsed":852637,"internal_node_id":"0.0-6.0-128.0"},{"sim_score":4,"rt":5701,"stimulus":"[\"img/0898/e167334e-cc1d-4986-b3b1-c7bc7da64baa.jpg\",\"img/0903/8fcafe03-43df-4c45-9da5-0df3a1eeccc5.jpg\"]","trial_type":"similarity","trial_index":135,"time_elapsed":859341,"internal_node_id":"0.0-6.0-129.0"},{"sim_score":1,"rt":3219,"stimulus":"[\"img/0894/11674fa4-285d-44e2-939f-2228c6a64080.jpg\",\"img/0867/de92135f-5b65-4ed9-b245-188292c7c2f8.jpg\"]","trial_type":"similarity","trial_index":136,"time_elapsed":863564,"internal_node_id":"0.0-6.0-130.0"},{"sim_score":3,"rt":3835,"stimulus":"[\"img/0874/99f6563c-8a8d-4c1c-a41d-667b618c3fd5.jpg\",\"img/0903/3e9ee8a5-eb66-47f5-8973-8a5af1ddc87e.jpg\"]","trial_type":"similarity","trial_index":137,"time_elapsed":868402,"internal_node_id":"0.0-6.0-131.0"},{"sim_score":2,"rt":3389,"stimulus":"[\"img/0899/a05bea16-2bb4-4cb9-b8fb-4ff975db6971.jpg\",\"img/0898/8605a25b-6895-476d-8c13-df7a83f96093.jpg\"]","trial_type":"similarity","trial_index":138,"time_elapsed":872794,"internal_node_id":"0.0-6.0-132.0"},{"sim_score":2,"rt":3703,"stimulus":"[\"img/0867/6e19c858-b606-45b2-a4c6-910a73f1d82c.jpg\",\"img/0764/23ea9375-f801-4a96-9925-7d453da887c7.jpg\"]","trial_type":"similarity","trial_index":139,"time_elapsed":877500,"internal_node_id":"0.0-6.0-133.0"},{"sim_score":2,"rt":3717,"stimulus":"[\"img/0866/620cd1aa-0800-4414-8f6e-90342e7a99ad.jpg\",\"img/0769/b664b502-a86c-46c1-ad6f-5ebffc2e1bd3.jpg\"]","trial_type":"similarity","trial_index":140,"time_elapsed":882220,"internal_node_id":"0.0-6.0-134.0"},{"sim_score":5,"rt":4285,"stimulus":"[\"img/0860/71e1aad0-2cdf-43bb-94a4-a8c016997c30.jpg\",\"img/0898/81b08535-2020-4c15-9ce4-2f1e460755ae.jpg\"]","trial_type":"similarity","trial_index":141,"time_elapsed":887508,"internal_node_id":"0.0-6.0-135.0"},{"sim_score":4,"rt":5038,"stimulus":"[\"img/0881/33d65d80-8a8e-4ecf-852d-0ad7725c17a2.jpg\",\"img/0903/72197c2b-403e-4a26-b391-f1aa8dea4b76.jpg\"]","trial_type":"similarity","trial_index":142,"time_elapsed":893550,"internal_node_id":"0.0-6.0-136.0"},{"sim_score":6,"rt":7340,"stimulus":"[\"img/0894/5a49e858-2850-4892-9a06-e9f0efb5f94d.jpg\",\"img/0766/f011ef45-fb48-44b8-8224-867ed2ccf786.jpg\"]","trial_type":"similarity","trial_index":143,"time_elapsed":901894,"internal_node_id":"0.0-6.0-137.0"},{"sim_score":2,"rt":4687,"stimulus":"[\"img/0860/4a022222-056d-461c-ab02-39fac9647552.jpg\",\"img/0764/0e7ed062-f798-4366-8a24-6f430926f919.jpg\"]","trial_type":"similarity","trial_index":144,"time_elapsed":907584,"internal_node_id":"0.0-6.0-138.0"},{"sim_score":3,"rt":3539,"stimulus":"[\"img/0769/6c0bac4c-5f59-43c7-898c-3ca93cf55cfe.jpg\",\"img/0902/24d10fe7-314f-4d5a-8c7b-b43121bba0a4.jpg\"]","trial_type":"similarity","trial_index":145,"time_elapsed":912126,"internal_node_id":"0.0-6.0-139.0"},{"sim_score":5,"rt":5941,"stimulus":"[\"img/0904/1d10df11-b5c8-4370-9a6b-097a7f965895.jpg\",\"img/0903/aa842abe-6fa3-448a-bf71-88d3ad28663b.jpg\"]","trial_type":"similarity","trial_index":146,"time_elapsed":919071,"internal_node_id":"0.0-6.0-140.0"},{"sim_score":4,"rt":4859,"stimulus":"[\"img/0764/06ea144f-f4f3-4a14-ba47-f20f35c561e0.jpg\",\"img/0769/4a1d0b52-3fe8-40fb-bb1c-c814fe49a68c.jpg\"]","trial_type":"similarity","trial_index":147,"time_elapsed":924933,"internal_node_id":"0.0-6.0-141.0"},{"sim_score":2,"rt":4112,"stimulus":"[\"img/0902/44cd9b7e-fdfb-4f78-90de-8d4c9d279365.jpg\",\"img/0881/d373cb9f-a719-4549-a2a4-82def79fb2a5.jpg\"]","trial_type":"similarity","trial_index":148,"time_elapsed":930049,"internal_node_id":"0.0-6.0-142.0"},{"sim_score":4,"rt":5954,"stimulus":"[\"img/0866/be24ab58-230e-4db8-9f45-ff04c9aec6bb.jpg\",\"img/0864/e8bd659f-aa43-4748-877e-3118e8b4e189.jpg\"]","trial_type":"similarity","trial_index":149,"time_elapsed":937007,"internal_node_id":"0.0-6.0-143.0"},{"sim_score":3,"rt":3792,"stimulus":"[\"img/0902/cf9dee9c-2bdf-4d64-9302-97f1660fe52c.jpg\",\"img/0898/82231d4c-218b-4d0a-b50d-35a49b524e97.jpg\"]","trial_type":"similarity","trial_index":150,"time_elapsed":941803,"internal_node_id":"0.0-6.0-144.0"},{"sim_score":5,"rt":5730,"stimulus":"[\"img/0862/cdaed51d-9e2f-4807-801a-4663c40077e2.jpg\",\"img/0864/0116ca98-293d-4fa6-a93b-5a6144ef64cc.jpg\"]","trial_type":"similarity","trial_index":151,"time_elapsed":948537,"internal_node_id":"0.0-6.0-145.0"},{"sim_score":1,"rt":4181,"stimulus":"[\"img/0875/cff79b3a-a797-4393-9757-6275f999ec04.jpg\",\"img/0898/881e2a85-d5c2-49be-a0c6-8a6ce2c4af08.jpg\"]","trial_type":"similarity","trial_index":152,"time_elapsed":953721,"internal_node_id":"0.0-6.0-146.0"},{"sim_score":5,"rt":4276,"stimulus":"[\"img/0874/7e4f2150-3b59-4a36-b5da-a4e0ba410531.jpg\",\"img/0881/b549bc99-a61c-4450-bab5-9efc3a197bf0.jpg\"]","trial_type":"similarity","trial_index":153,"time_elapsed":959001,"internal_node_id":"0.0-6.0-147.0"},{"sim_score":1,"rt":4285,"stimulus":"[\"img/0758/2fa3e613-e676-4e6e-bd12-705327eeb3e1.jpg\",\"img/0894/43216a7f-27bc-4b5a-8841-d122a30da9d9.jpg\"]","trial_type":"similarity","trial_index":154,"time_elapsed":964290,"internal_node_id":"0.0-6.0-148.0"},{"sim_score":2,"rt":4891,"stimulus":"[\"img/0904/5aec2708-cf14-4a58-aa30-9a8a61c1be0e.jpg\",\"img/0864/9b2490c5-a282-400a-9736-e1a0ecbf1cb7.jpg\"]","trial_type":"similarity","trial_index":155,"time_elapsed":970183,"internal_node_id":"0.0-6.0-149.0"},{"sim_score":3,"rt":5605,"stimulus":"[\"img/0769/ecda2fb3-556b-43ba-8a67-e87dd75ff2b4.jpg\",\"img/0899/fd9efb43-701f-4cd6-baaa-4c38315f4bdc.jpg\"]","trial_type":"similarity","trial_index":156,"time_elapsed":976792,"internal_node_id":"0.0-6.0-150.0"},{"sim_score":2,"rt":5201,"stimulus":"[\"img/0764/f9f890e6-3c2f-40cd-84e9-85e0b54cb28e.jpg\",\"img/0903/f67c4ab9-f8c2-4fcd-848a-a54a7b031002.jpg\"]","trial_type":"similarity","trial_index":157,"time_elapsed":1004871,"internal_node_id":"0.0-6.0-151.0"},{"sim_score":4,"rt":5217,"stimulus":"[\"img/0903/0a92ec52-4e87-410a-857a-4455cde56a70.jpg\",\"img/0864/f92649a2-0590-4d31-9a7a-1bfb81666a2d.jpg\"]","trial_type":"similarity","trial_index":158,"time_elapsed":1011092,"internal_node_id":"0.0-6.0-152.0"},{"sim_score":3,"rt":4258,"stimulus":"[\"img/0894/76c1201f-8524-4865-85e6-dda8cb4ac986.jpg\",\"img/0881/2a8413be-fec2-4de6-88ad-614dd4cccc9d.jpg\"]","trial_type":"similarity","trial_index":159,"time_elapsed":1016354,"internal_node_id":"0.0-6.0-153.0"},{"sim_score":4,"rt":4471,"stimulus":"[\"img/0875/2c361b79-c3d1-4eda-812e-bf03192407bf.jpg\",\"img/0867/98d8cd96-1476-4fe0-a3a3-04f875500a1b.jpg\"]","trial_type":"similarity","trial_index":160,"time_elapsed":1021828,"internal_node_id":"0.0-6.0-154.0"},{"sim_score":5,"rt":3918,"stimulus":"[\"img/0867/85a96c62-548f-4994-9553-819e03c3135a.jpg\",\"img/0758/b76ceca7-95ac-46e4-ac13-da02c8e93be9.jpg\"]","trial_type":"similarity","trial_index":161,"time_elapsed":1026750,"internal_node_id":"0.0-6.0-155.0"},{"sim_score":2,"rt":3848,"stimulus":"[\"img/0868/d6d1f30d-4323-435a-b194-7892521bc57e.jpg\",\"img/0901/4f9cffe0-c0be-4d7f-bacd-9d51efd19b4a.jpg\"]","trial_type":"similarity","trial_index":162,"time_elapsed":1031602,"internal_node_id":"0.0-6.0-156.0"},{"sim_score":2,"rt":3582,"stimulus":"[\"img/0769/965c3c44-d9e5-47c5-b61a-2bbdf4215d9a.jpg\",\"img/0894/6b2e9509-8699-42b7-9582-7741df0ba2d7.jpg\"]","trial_type":"similarity","trial_index":163,"time_elapsed":1036188,"internal_node_id":"0.0-6.0-157.0"},{"sim_score":4,"rt":5341,"stimulus":"[\"img/0904/2fd488e9-960f-41f7-8a44-33375f7d5051.jpg\",\"img/0758/e38fd80d-18d0-42f3-b848-f930788e8bd7.jpg\"]","trial_type":"similarity","trial_index":164,"time_elapsed":1042532,"internal_node_id":"0.0-6.0-158.0"},{"sim_score":3,"rt":4301,"stimulus":"[\"img/0874/c0378dac-9370-439a-8b79-db27c96fb390.jpg\",\"img/0904/a8c3c7d2-9bcf-4347-9e03-8203adfc1fc5.jpg\"]","trial_type":"similarity","trial_index":165,"time_elapsed":1047836,"internal_node_id":"0.0-6.0-159.0"},{"sim_score":1,"rt":3225,"stimulus":"[\"img/0864/5f74a653-3bdc-4308-8cca-ac667dc22e1f.jpg\",\"img/0901/c6c877e0-dd63-4e00-9657-33af29d55aab.jpg\"]","trial_type":"similarity","trial_index":166,"time_elapsed":1052065,"internal_node_id":"0.0-6.0-160.0"},{"sim_score":1,"rt":4759,"stimulus":"[\"img/0898/4184e5a2-84ea-4f36-9b42-ae58646f6f87.jpg\",\"img/0866/07c9c966-3c8d-40e7-8128-92b2acbaed5d.jpg\"]","trial_type":"similarity","trial_index":167,"time_elapsed":1057827,"internal_node_id":"0.0-6.0-161.0"},{"sim_score":3,"rt":3591,"stimulus":"[\"img/0766/c23b5a20-e50f-4d85-841f-cf89212a4348.jpg\",\"img/0903/47e39de8-6959-469f-8be9-6999a6db207c.jpg\"]","trial_type":"similarity","trial_index":168,"time_elapsed":1062421,"internal_node_id":"0.0-6.0-162.0"},{"sim_score":3,"rt":4439,"stimulus":"[\"img/0860/5383b320-1518-4095-a58e-5cc1ae30b64c.jpg\",\"img/0899/4f7bc593-8ddd-4da3-a0b9-84da730d3370.jpg\"]","trial_type":"similarity","trial_index":169,"time_elapsed":1067863,"internal_node_id":"0.0-6.0-163.0"},{"sim_score":1,"rt":3771,"stimulus":"[\"img/0766/717fd72f-a281-499b-a5ba-5e2ecc4d4866.jpg\",\"img/0862/fb26cb07-d5a9-4653-813c-f41609f26cd5.jpg\"]","trial_type":"similarity","trial_index":170,"time_elapsed":1072637,"internal_node_id":"0.0-6.0-164.0"},{"sim_score":3,"rt":3747,"stimulus":"[\"img/0898/0c7dde4f-efce-4b7a-9387-6921635b7890.jpg\",\"img/0894/a98416c0-51e2-4960-85da-d81d8688b9d5.jpg\"]","trial_type":"similarity","trial_index":171,"time_elapsed":1077387,"internal_node_id":"0.0-6.0-165.0"},{"sim_score":3,"rt":4834,"stimulus":"[\"img/0867/db7e032f-162b-46f5-ae67-2b29679adee4.jpg\",\"img/0766/110832e5-2646-4bd0-a94e-5df8cc314269.jpg\"]","trial_type":"similarity","trial_index":172,"time_elapsed":1083225,"internal_node_id":"0.0-6.0-166.0"},{"sim_score":4,"rt":6420,"stimulus":"[\"img/0904/24fc38fe-842c-4831-ad8a-b1de5c25c0a8.jpg\",\"img/0862/24cdc752-c2e5-4a17-86a6-6f2045d8553b.jpg\"]","trial_type":"similarity","trial_index":173,"time_elapsed":1090649,"internal_node_id":"0.0-6.0-167.0"},{"sim_score":5,"rt":5496,"stimulus":"[\"img/0866/d493a2c8-66eb-44b4-be02-2f327b700b7c.jpg\",\"img/0874/adf9a8f1-c40b-402b-b95b-1e85a54a7b62.jpg\"]","trial_type":"similarity","trial_index":174,"time_elapsed":1097149,"internal_node_id":"0.0-6.0-168.0"},{"sim_score":4,"rt":4774,"stimulus":"[\"img/0903/5248eedd-7e6a-4d39-91b0-06ec227f3ed0.jpg\",\"img/0868/83b4350a-3b70-4cea-b7f5-b5b56f3050a8.jpg\"]","trial_type":"similarity","trial_index":175,"time_elapsed":1102927,"internal_node_id":"0.0-6.0-169.0"},{"sim_score":3,"rt":4274,"stimulus":"[\"img/0769/d1be2815-fa79-46e8-b5c3-7d81caaca490.jpg\",\"img/0904/0d25eb24-bb20-4e8d-9787-8b489558b4cb.jpg\"]","trial_type":"similarity","trial_index":176,"time_elapsed":1108205,"internal_node_id":"0.0-6.0-170.0"},{"sim_score":2,"rt":3327,"stimulus":"[\"img/0875/03c3c331-738b-4446-af92-3d7386b08c2e.jpg\",\"img/0764/e42c1dc9-7831-4995-be19-7ca7b4d141fc.jpg\"]","trial_type":"similarity","trial_index":177,"time_elapsed":1112535,"internal_node_id":"0.0-6.0-171.0"},{"sim_score":3,"rt":4235,"stimulus":"[\"img/0860/94ef7afc-e0e6-4a15-98c6-0bfac82bc832.jpg\",\"img/0903/43ffd882-077a-40dd-a264-e58d519420a1.jpg\"]","trial_type":"similarity","trial_index":178,"time_elapsed":1117774,"internal_node_id":"0.0-6.0-172.0"},{"sim_score":4,"rt":4937,"stimulus":"[\"img/0864/49150900-7f25-4ce8-8d10-9b47a71d1997.jpg\",\"img/0867/a749dddb-69f0-44a6-acdc-2bf295cf6dcc.jpg\"]","trial_type":"similarity","trial_index":179,"time_elapsed":1123714,"internal_node_id":"0.0-6.0-173.0"},{"sim_score":4,"rt":3989,"stimulus":"[\"img/0868/d98ca254-b195-477f-b57e-5760a2717db8.jpg\",\"img/0864/65210d57-1153-4657-886a-32e758f49b4a.jpg\"]","trial_type":"similarity","trial_index":180,"time_elapsed":1128706,"internal_node_id":"0.0-6.0-174.0"},{"sim_score":4,"rt":6001,"stimulus":"[\"img/0898/224c1572-56b9-4f16-a9e4-6f3bc9c114bd.jpg\",\"img/0769/458d9c77-b844-40b5-bb1b-1e3bbd4da64e.jpg\"]","trial_type":"similarity","trial_index":181,"time_elapsed":1135710,"internal_node_id":"0.0-6.0-175.0"},{"sim_score":5,"rt":3583,"stimulus":"[\"img/0766/00891401-e4c9-4ce1-bc19-f70740d174bc.jpg\",\"img/0764/8389e74f-e0e0-435d-945f-da1f4c92ccb6.jpg\"]","trial_type":"similarity","trial_index":182,"time_elapsed":1140296,"internal_node_id":"0.0-6.0-176.0"},{"sim_score":3,"rt":3901,"stimulus":"[\"img/0764/6c7fe363-2d37-418f-9e5e-a3273af5d4fb.jpg\",\"img/0866/945c6710-d15b-4a5b-a8f6-69af0850357f.jpg\"]","trial_type":"similarity","trial_index":183,"time_elapsed":1145200,"internal_node_id":"0.0-6.0-177.0"},{"sim_score":3,"rt":4969,"stimulus":"[\"img/0902/31abfa33-7cdb-44ad-968e-9f7b324d577a.jpg\",\"img/0875/a4935837-7d3c-4df6-88c1-36a94d4991ca.jpg\"]","trial_type":"similarity","trial_index":184,"time_elapsed":1151172,"internal_node_id":"0.0-6.0-178.0"},{"sim_score":4,"rt":3879,"stimulus":"[\"img/0881/db77fe00-aeb0-4d1d-aa66-f3a96fd077e4.jpg\",\"img/0904/ba8e689e-9ca6-4608-a2a1-3b0940666ae6.jpg\"]","trial_type":"similarity","trial_index":185,"time_elapsed":1156054,"internal_node_id":"0.0-6.0-179.0"},{"sim_score":4,"rt":5933,"stimulus":"[\"img/0874/3f471690-9788-4d03-90c7-f615aecef149.jpg\",\"img/0860/29a21a9f-54bb-4093-ad3f-04823ceaa89f.jpg\"]","trial_type":"similarity","trial_index":186,"time_elapsed":1162990,"internal_node_id":"0.0-6.0-180.0"},{"sim_score":4,"rt":3458,"stimulus":"[\"img/0769/14d393ce-e5be-4ca1-86ce-cc27d4b6074c.jpg\",\"img/0874/85eb9b8a-c4c6-4e5a-b8e7-363a87a82054.jpg\"]","trial_type":"similarity","trial_index":187,"time_elapsed":1167452,"internal_node_id":"0.0-6.0-181.0"},{"sim_score":3,"rt":4019,"stimulus":"[\"img/0904/9b3568cc-3cf7-42be-9df3-fdafde7a58b8.jpg\",\"img/0766/ef3b15ce-abb7-4292-ad93-aec8e8b50520.jpg\"]","trial_type":"similarity","trial_index":188,"time_elapsed":1172474,"internal_node_id":"0.0-6.0-182.0"},{"sim_score":3,"rt":4570,"stimulus":"[\"img/0902/51493fab-2a10-4385-aa88-bee3db441626.jpg\",\"img/0764/cbdc4f20-3a9a-4211-9b40-090699e0abcc.jpg\"]","trial_type":"similarity","trial_index":189,"time_elapsed":1178048,"internal_node_id":"0.0-6.0-183.0"},{"sim_score":2,"rt":3918,"stimulus":"[\"img/0769/f229321f-04dd-42d7-b14a-ffad6b509862.jpg\",\"img/0875/3ecb367d-e9eb-4826-8aaa-7aa72fb98019.jpg\"]","trial_type":"similarity","trial_index":190,"time_elapsed":1182970,"internal_node_id":"0.0-6.0-184.0"},{"sim_score":3,"rt":4119,"stimulus":"[\"img/0867/a498eef3-9fa4-4ab2-9778-4ae82ac40dc5.jpg\",\"img/0903/8f7f9939-b8e6-433f-93dd-b362496c80a7.jpg\"]","trial_type":"similarity","trial_index":191,"time_elapsed":1188092,"internal_node_id":"0.0-6.0-185.0"},{"sim_score":2,"rt":4306,"stimulus":"[\"img/0862/47ed5efd-4ec9-4b74-bb4e-a5f5cf0c3e7d.jpg\",\"img/0769/bb8c4e53-6f32-4814-97ee-392d4decfb2e.jpg\"]","trial_type":"similarity","trial_index":192,"time_elapsed":1193402,"internal_node_id":"0.0-6.0-186.0"},{"sim_score":4,"rt":5371,"stimulus":"[\"img/0766/d3bab2fc-ddcc-40a0-bb72-c0d0ebe19978.jpg\",\"img/0866/93a27239-8317-4e08-98ca-d8b1ff298e07.jpg\"]","trial_type":"similarity","trial_index":193,"time_elapsed":1199777,"internal_node_id":"0.0-6.0-187.0"},{"sim_score":3,"rt":4515,"stimulus":"[\"img/0769/4680bcc3-8fbc-4643-8f9a-12aa0e780b64.jpg\",\"img/0860/17b44a7d-c5ca-479f-9e87-f65a64f5c80e.jpg\"]","trial_type":"similarity","trial_index":194,"time_elapsed":1205295,"internal_node_id":"0.0-6.0-188.0"},{"sim_score":5,"rt":4710,"stimulus":"[\"img/0881/ee44e27f-d662-4608-b265-e7ffa19b216f.jpg\",\"img/0868/8b0b8473-e2c0-4331-aa56-c3a5c29369da.jpg\"]","trial_type":"similarity","trial_index":195,"time_elapsed":1217562,"internal_node_id":"0.0-6.0-189.0"},{"view_history":"[{\"page_index\":0,\"viewing_time\":6693}]","rt":6693,"trial_type":"instructions","trial_index":196,"time_elapsed":1225256,"internal_node_id":"0.0-7.0"},{"rt":46661,"responses":"{\"Q0\":\"Northern Waterthrush\"}","answer":["Nashville Warbler"],"trial_type":"image-multi-choice","trial_index":197,"time_elapsed":1272928,"internal_node_id":"0.0-8.0-0.0"},{"rt":4376,"responses":"{\"Q0\":\"Black-and-white Warbler\"}","answer":["Black-and-white Warbler"],"trial_type":"image-multi-choice","trial_index":198,"time_elapsed":1278313,"internal_node_id":"0.0-8.0-1.0"},{"rt":4818,"responses":"{\"Q0\":\"Blackburnian Warbler\"}","answer":["Townsend's Warbler"],"trial_type":"image-multi-choice","trial_index":199,"time_elapsed":1284141,"internal_node_id":"0.0-8.0-2.0"},{"rt":36582,"responses":"{\"Q0\":\"American Tree Sparrow\"}","answer":["Lark Sparrow"],"trial_type":"image-multi-choice","trial_index":200,"time_elapsed":1321732,"internal_node_id":"0.0-8.0-3.0"},{"rt":302436,"responses":"{\"Q0\":\"Yellow Warbler\"}","answer":["Yellow Warbler"],"trial_type":"image-multi-choice","trial_index":201,"time_elapsed":1625176,"internal_node_id":"0.0-8.0-4.0"},{"rt":40522,"responses":"{\"Q0\":\"Orange-crowned Warbler\"}","answer":["Orange-crowned Warbler"],"trial_type":"image-multi-choice","trial_index":202,"time_elapsed":1666706,"internal_node_id":"0.0-8.0-5.0"},{"rt":30456,"responses":"{\"Q0\":\"Swamp Sparrow\"}","answer":["White-throated Sparrow"],"trial_type":"image-multi-choice","trial_index":203,"time_elapsed":1698171,"internal_node_id":"0.0-8.0-6.0"},{"rt":156576,"responses":"{\"Q0\":\"Fox Sparrow\"}","answer":["Fox Sparrow"],"trial_type":"image-multi-choice","trial_index":204,"time_elapsed":1855756,"internal_node_id":"0.0-8.0-7.0"},{"rt":18254,"responses":"{\"Q0\":\"Chipping Sparrow\"}","answer":["Song Sparrow"],"trial_type":"image-multi-choice","trial_index":205,"time_elapsed":1875019,"internal_node_id":"0.0-8.0-8.0"},{"rt":59259,"responses":"{\"Q0\":\"Townsend's Warbler\"}","answer":["Blackburnian Warbler"],"trial_type":"image-multi-choice","trial_index":206,"time_elapsed":1935286,"internal_node_id":"0.0-8.0-9.0"},{"rt":5723,"responses":"{\"Q0\":\"Song Sparrow\"}","answer":["Vesper Sparrow"],"trial_type":"image-multi-choice","trial_index":207,"time_elapsed":1942015,"internal_node_id":"0.0-8.0-10.0"},{"rt":130696,"responses":"{\"Q0\":\"White-crowned Sparrow\"}","answer":["White-crowned Sparrow"],"trial_type":"image-multi-choice","trial_index":208,"time_elapsed":2073720,"internal_node_id":"0.0-8.0-11.0"},{"rt":13598,"responses":"{\"Q0\":\"Vesper Sparrow\"}","answer":["American Tree Sparrow"],"trial_type":"image-multi-choice","trial_index":209,"time_elapsed":2088327,"internal_node_id":"0.0-8.0-12.0"},{"rt":68990,"responses":"{\"Q0\":\"Tennessee Warbler\"}","answer":["Tennessee Warbler"],"trial_type":"image-multi-choice","trial_index":210,"time_elapsed":2158325,"internal_node_id":"0.0-8.0-13.0"},{"rt":35244,"responses":"{\"Q0\":\"Magnolia Warbler\"}","answer":["Magnolia Warbler"],"trial_type":"image-multi-choice","trial_index":211,"time_elapsed":2194577,"internal_node_id":"0.0-8.0-14.0"},{"rt":13459,"responses":"{\"Q0\":\"Ovenbird\"}","answer":["Northern Waterthrush"],"trial_type":"image-multi-choice","trial_index":212,"time_elapsed":2209045,"internal_node_id":"0.0-8.0-15.0"},{"rt":42623,"responses":"{\"Q0\":\"Chipping Sparrow\"}","answer":["Chipping Sparrow"],"trial_type":"image-multi-choice","trial_index":213,"time_elapsed":2252676,"internal_node_id":"0.0-8.0-16.0"},{"rt":14194,"responses":"{\"Q0\":\"Swamp Sparrow\"}","answer":["Swamp Sparrow"],"trial_type":"image-multi-choice","trial_index":214,"time_elapsed":2267878,"internal_node_id":"0.0-8.0-17.0"},{"rt":14813,"responses":"{\"Q0\":\"Northern Waterthrush\"}","answer":["Lincoln's Sparrow"],"trial_type":"image-multi-choice","trial_index":215,"time_elapsed":2283700,"internal_node_id":"0.0-8.0-18.0"},{"rt":4744,"responses":"{\"Q0\":\"Ovenbird\"}","answer":["Ovenbird"],"trial_type":"image-multi-choice","trial_index":216,"time_elapsed":2289452,"internal_node_id":"0.0-8.0-19.0"}]