[{"view_history":"[{\"page_index\":0,\"viewing_time\":20870}]","rt":20871,"trial_type":"instructions","trial_index":0,"time_elapsed":20872,"internal_node_id":"0.0-0.0"},{"sim_score":7,"rt":5562,"stimulus":"[\"img/bluejay1.jpg\",\"img/bluejay2.jpg\"]","trial_type":"similarity_demo","trial_index":1,"time_elapsed":27445,"internal_node_id":"0.0-1.0"},{"view_history":"[{\"page_index\":0,\"viewing_time\":6590}]","rt":6591,"trial_type":"instructions","trial_index":2,"time_elapsed":35037,"internal_node_id":"0.0-2.0"},{"sim_score":3,"rt":5737,"stimulus":"[\"img/bluejay1.jpg\",\"img/cardinal1.jpg\"]","trial_type":"similarity_demo","trial_index":3,"time_elapsed":41781,"internal_node_id":"0.0-3.0"},{"view_history":"[{\"page_index\":0,\"viewing_time\":6032}]","rt":6033,"trial_type":"instructions","trial_index":4,"time_elapsed":48815,"internal_node_id":"0.0-4.0"},{"view_history":"[{\"page_index\":0,\"viewing_time\":19467}]","rt":19468,"trial_type":"instructions","trial_index":5,"time_elapsed":69284,"internal_node_id":"0.0-5.0"},{"sim_score":1,"rt":5591,"stimulus":"[\"img/0868/77091fc7-a590-4ebb-b915-fdb2483a2399.jpg\",\"img/0894/1a010553-d598-4b06-a772-81f1e7b3addb.jpg\"]","trial_type":"similarity","trial_index":6,"time_elapsed":75887,"internal_node_id":"0.0-6.0-0.0"},{"sim_score":1,"rt":4136,"stimulus":"[\"img/0898/ec565187-2e31-4fdd-9a5c-153d0c789ae0.jpg\",\"img/0758/67c0be2f-9e91-48b3-8219-70ac0a1802fa.jpg\"]","trial_type":"similarity","trial_index":7,"time_elapsed":81031,"internal_node_id":"0.0-6.0-1.0"},{"sim_score":5,"rt":4745,"stimulus":"[\"img/0903/b0a3c45f-467e-412f-a183-c9c1827f2e63.jpg\",\"img/0894/792c83e9-a747-4000-bc72-5663d2439edb.jpg\"]","trial_type":"similarity","trial_index":8,"time_elapsed":86788,"internal_node_id":"0.0-6.0-2.0"},{"sim_score":1,"rt":4587,"stimulus":"[\"img/0881/566f45f8-5fed-4479-a60f-26377e60a62d.jpg\",\"img/0766/717fd72f-a281-499b-a5ba-5e2ecc4d4866.jpg\"]","trial_type":"similarity","trial_index":9,"time_elapsed":92380,"internal_node_id":"0.0-6.0-3.0"},{"sim_score":5,"rt":4192,"stimulus":"[\"img/0864/ea327690-500b-4137-bf91-451b309fe6a5.jpg\",\"img/0860/4f695df5-afac-4da7-9875-fee39b0b24ad.jpg\"]","trial_type":"similarity","trial_index":10,"time_elapsed":97579,"internal_node_id":"0.0-6.0-4.0"},{"sim_score":5,"rt":3946,"stimulus":"[\"img/0902/d2c34af0-8c50-437d-8cc3-619195a3e8ba.jpg\",\"img/0899/d8f2dd94-570e-4e8c-a087-d96090fb9e8c.jpg\"]","trial_type":"similarity","trial_index":11,"time_elapsed":102533,"internal_node_id":"0.0-6.0-5.0"},{"sim_score":1,"rt":5206,"stimulus":"[\"img/0868/0d3abd3a-b6c3-4584-a9f7-e2da63748b3d.jpg\",\"img/0769/76eaa4a3-dfe9-4dc1-9efb-caebe86264e1.jpg\"]","trial_type":"similarity","trial_index":12,"time_elapsed":108746,"internal_node_id":"0.0-6.0-6.0"},{"sim_score":5,"rt":3477,"stimulus":"[\"img/0764/5d83b9db-3b2b-4dc8-9bd1-2b515b19c858.jpg\",\"img/0901/00acf6c1-b66e-4060-bb04-4caf29b5a8b0.jpg\"]","trial_type":"similarity","trial_index":13,"time_elapsed":113230,"internal_node_id":"0.0-6.0-7.0"},{"sim_score":5,"rt":4596,"stimulus":"[\"img/0881/e6746727-7f89-47ec-b939-d98abe78372d.jpg\",\"img/0866/07c9c966-3c8d-40e7-8128-92b2acbaed5d.jpg\"]","trial_type":"similarity","trial_index":14,"time_elapsed":118835,"internal_node_id":"0.0-6.0-8.0"},{"sim_score":1,"rt":3659,"stimulus":"[\"img/0867/2e1a0b58-cdb1-4107-a14e-452530d7b9b0.jpg\",\"img/0899/57476fed-5962-4272-8fc9-b317bb777b54.jpg\"]","trial_type":"similarity","trial_index":15,"time_elapsed":123503,"internal_node_id":"0.0-6.0-9.0"},{"sim_score":1,"rt":4040,"stimulus":"[\"img/0875/527ced51-8e53-4aab-ab05-86df219104c0.jpg\",\"img/0766/110832e5-2646-4bd0-a94e-5df8cc314269.jpg\"]","trial_type":"similarity","trial_index":16,"time_elapsed":128549,"internal_node_id":"0.0-6.0-10.0"},{"sim_score":1,"rt":3620,"stimulus":"[\"img/0901/0f670aef-ac36-496d-8142-ee5fdb21dd82.jpg\",\"img/0875/03c3c331-738b-4446-af92-3d7386b08c2e.jpg\"]","trial_type":"similarity","trial_index":17,"time_elapsed":133176,"internal_node_id":"0.0-6.0-11.0"},{"sim_score":1,"rt":3328,"stimulus":"[\"img/0902/7499db23-3a41-41ea-ab5b-6ab4d4c3ed35.jpg\",\"img/0860/8a92e21b-6a32-4e4a-a445-2d5a487ed0a4.jpg\"]","trial_type":"similarity","trial_index":18,"time_elapsed":137509,"internal_node_id":"0.0-6.0-12.0"},{"sim_score":5,"rt":3960,"stimulus":"[\"img/0874/c0378dac-9370-439a-8b79-db27c96fb390.jpg\",\"img/0867/f8488a47-94ee-4166-952c-44e16cf172f6.jpg\"]","trial_type":"similarity","trial_index":19,"time_elapsed":142474,"internal_node_id":"0.0-6.0-13.0"},{"sim_score":1,"rt":3853,"stimulus":"[\"img/0904/96e503ea-6630-4996-85f2-0237688ce441.jpg\",\"img/0866/6f2a90d7-14f1-4f1b-bd64-fc0af6b9fe44.jpg\"]","trial_type":"similarity","trial_index":20,"time_elapsed":147335,"internal_node_id":"0.0-6.0-14.0"},{"sim_score":1,"rt":3621,"stimulus":"[\"img/0758/7ee8bc8f-c40b-4b3a-84ec-3e83580622d4.jpg\",\"img/0902/af40b98b-3d23-4d95-b401-49ba5783ce39.jpg\"]","trial_type":"similarity","trial_index":21,"time_elapsed":151963,"internal_node_id":"0.0-6.0-15.0"},{"sim_score":5,"rt":3613,"stimulus":"[\"img/0867/8ba0c5a7-c7e4-42cf-a80a-543763b90779.jpg\",\"img/0898/e167334e-cc1d-4986-b3b1-c7bc7da64baa.jpg\"]","trial_type":"similarity","trial_index":22,"time_elapsed":156583,"internal_node_id":"0.0-6.0-16.0"},{"sim_score":1,"rt":3233,"stimulus":"[\"img/0904/fe746a3f-8458-48d0-8a13-8cba2a9df9f8.jpg\",\"img/0868/3a62db2d-97e9-44a3-b8e3-a48c6f0e423b.jpg\"]","trial_type":"similarity","trial_index":23,"time_elapsed":160822,"internal_node_id":"0.0-6.0-17.0"},{"sim_score":1,"rt":3906,"stimulus":"[\"img/0766/5d1b8041-c5a1-4b02-b4fe-3453d98a0d72.jpg\",\"img/0864/87c467d3-abca-482f-ad80-3766c21b1bb3.jpg\"]","trial_type":"similarity","trial_index":24,"time_elapsed":165735,"internal_node_id":"0.0-6.0-18.0"},{"sim_score":5,"rt":3082,"stimulus":"[\"img/0899/25ae6ec8-9565-49fe-a8bb-8d0666f52716.jpg\",\"img/0766/69e486f7-dbef-456b-9d48-53d814248a28.jpg\"]","trial_type":"similarity","trial_index":25,"time_elapsed":169823,"internal_node_id":"0.0-6.0-19.0"},{"sim_score":1,"rt":3276,"stimulus":"[\"img/0764/974d52cc-6318-4e7a-b294-2f3e92ff800f.jpg\",\"img/0758/20497cbe-ddae-489e-86e2-ab06985ed07c.jpg\"]","trial_type":"similarity","trial_index":26,"time_elapsed":174106,"internal_node_id":"0.0-6.0-20.0"},{"sim_score":1,"rt":3076,"stimulus":"[\"img/0901/3db47171-0139-4235-82cd-0b1787b6775f.jpg\",\"img/0874/ca76a855-4e77-4f2f-872a-0a718153e7ed.jpg\"]","trial_type":"similarity","trial_index":27,"time_elapsed":178187,"internal_node_id":"0.0-6.0-21.0"},{"sim_score":5,"rt":3343,"stimulus":"[\"img/0875/8521fd58-3b1e-4dc5-97ae-804edfa6734a.jpg\",\"img/0758/ddc336e9-a8b6-4bb9-937a-c7e25e0e9250.jpg\"]","trial_type":"similarity","trial_index":28,"time_elapsed":182537,"internal_node_id":"0.0-6.0-22.0"},{"sim_score":5,"rt":3731,"stimulus":"[\"img/0867/50a1b60e-3a29-44bf-b606-d4bd3746fea9.jpg\",\"img/0881/405484ae-0d00-4b05-bc57-6420a36adfac.jpg\"]","trial_type":"similarity","trial_index":29,"time_elapsed":187276,"internal_node_id":"0.0-6.0-23.0"},{"sim_score":1,"rt":2951,"stimulus":"[\"img/0758/61d64021-9214-4951-bdf8-f871f9827cf9.jpg\",\"img/0901/bc47e078-bda4-40ed-b89a-bbd819164b95.jpg\"]","trial_type":"similarity","trial_index":30,"time_elapsed":191232,"internal_node_id":"0.0-6.0-24.0"},{"sim_score":5,"rt":3763,"stimulus":"[\"img/0868/15dd6fd7-791e-4b53-b203-195d617521a4.jpg\",\"img/0875/90da8d75-108a-44ad-b999-e21fee3860d3.jpg\"]","trial_type":"similarity","trial_index":31,"time_elapsed":196002,"internal_node_id":"0.0-6.0-25.0"},{"sim_score":5,"rt":3927,"stimulus":"[\"img/0903/43ffd882-077a-40dd-a264-e58d519420a1.jpg\",\"img/0901/5657dd86-0ff9-4753-ba2b-9dfb223e5c89.jpg\"]","trial_type":"similarity","trial_index":32,"time_elapsed":200934,"internal_node_id":"0.0-6.0-26.0"},{"sim_score":5,"rt":4407,"stimulus":"[\"img/0894/2d2db7b3-e8a3-499b-b63a-14f51bf73882.jpg\",\"img/0899/0adc0bc3-6fca-4078-be6f-d45ddf1653d5.jpg\"]","trial_type":"similarity","trial_index":33,"time_elapsed":206347,"internal_node_id":"0.0-6.0-27.0"},{"sim_score":4,"rt":8086,"stimulus":"[\"img/0862/7918ca67-5bd3-4606-a5ea-c39fb11a9297.jpg\",\"img/0867/5e07b34d-b40f-4b1c-ac10-49975bace45f.jpg\"]","trial_type":"similarity","trial_index":34,"time_elapsed":215438,"internal_node_id":"0.0-6.0-28.0"},{"sim_score":5,"rt":4344,"stimulus":"[\"img/0864/65210d57-1153-4657-886a-32e758f49b4a.jpg\",\"img/0875/2e13d160-eea1-416b-aff1-d37ab99ecc1d.jpg\"]","trial_type":"similarity","trial_index":35,"time_elapsed":220787,"internal_node_id":"0.0-6.0-29.0"},{"sim_score":5,"rt":3552,"stimulus":"[\"img/0862/ad593cc7-cabe-4bb7-8e14-8a447a0717b4.jpg\",\"img/0874/3ce41e7c-40c8-4d58-a546-171114521796.jpg\"]","trial_type":"similarity","trial_index":36,"time_elapsed":225345,"internal_node_id":"0.0-6.0-30.0"},{"sim_score":1,"rt":3396,"stimulus":"[\"img/0903/5c6b1f57-b3a2-40f5-9fb1-82785e24b6a0.jpg\",\"img/0758/b76ceca7-95ac-46e4-ac13-da02c8e93be9.jpg\"]","trial_type":"similarity","trial_index":37,"time_elapsed":229749,"internal_node_id":"0.0-6.0-31.0"},{"sim_score":1,"rt":3550,"stimulus":"[\"img/0866/be24ab58-230e-4db8-9f45-ff04c9aec6bb.jpg\",\"img/0901/5b97abf9-f0c8-4fd1-b921-36d574779078.jpg\"]","trial_type":"similarity","trial_index":38,"time_elapsed":234304,"internal_node_id":"0.0-6.0-32.0"},{"sim_score":1,"rt":3641,"stimulus":"[\"img/0874/8cdb1c07-1c32-46d2-981c-3636560fa6e5.jpg\",\"img/0899/93494f3b-d539-4075-b027-d82e344563da.jpg\"]","trial_type":"similarity","trial_index":39,"time_elapsed":238951,"internal_node_id":"0.0-6.0-33.0"},{"sim_score":5,"rt":3173,"stimulus":"[\"img/0903/776b74ee-a8ab-4ab8-a78d-097c0747538d.jpg\",\"img/0902/d1083f2c-5520-44ec-81a8-3f856fbf0e80.jpg\"]","trial_type":"similarity","trial_index":40,"time_elapsed":243132,"internal_node_id":"0.0-6.0-34.0"},{"sim_score":5,"rt":3284,"stimulus":"[\"img/0758/d540bee6-b460-4c32-ac57-bc282742d7d4.jpg\",\"img/0866/620cd1aa-0800-4414-8f6e-90342e7a99ad.jpg\"]","trial_type":"similarity","trial_index":41,"time_elapsed":247425,"internal_node_id":"0.0-6.0-35.0"},{"sim_score":2,"rt":3680,"stimulus":"[\"img/0875/34132396-d896-4c2d-8087-646dd867e769.jpg\",\"img/0903/12bd8657-92e6-4c36-a06c-597e7a1d51f3.jpg\"]","trial_type":"similarity","trial_index":42,"time_elapsed":252111,"internal_node_id":"0.0-6.0-36.0"},{"sim_score":2,"rt":4029,"stimulus":"[\"img/0864/c22faebd-9c53-47bc-ada3-b9a30c688e75.jpg\",\"img/0902/ca3160ba-ad5d-459f-a1b6-8b4f3c85ecd5.jpg\"]","trial_type":"similarity","trial_index":43,"time_elapsed":266614,"internal_node_id":"0.0-6.0-37.0"},{"sim_score":2,"rt":3258,"stimulus":"[\"img/0901/62315ff5-ed95-46b4-b099-92552079659b.jpg\",\"img/0867/c71dc569-f49c-4397-8381-68b8d726736d.jpg\"]","trial_type":"similarity","trial_index":44,"time_elapsed":270877,"internal_node_id":"0.0-6.0-38.0"},{"sim_score":1,"rt":2869,"stimulus":"[\"img/0862/cdaed51d-9e2f-4807-801a-4663c40077e2.jpg\",\"img/0860/e14d67c1-6d92-4f1e-9257-c8607159c19c.jpg\"]","trial_type":"similarity","trial_index":45,"time_elapsed":274753,"internal_node_id":"0.0-6.0-39.0"},{"sim_score":7,"rt":3632,"stimulus":"[\"img/0867/98d8cd96-1476-4fe0-a3a3-04f875500a1b.jpg\",\"img/0868/d6d1f30d-4323-435a-b194-7892521bc57e.jpg\"]","trial_type":"similarity","trial_index":46,"time_elapsed":279392,"internal_node_id":"0.0-6.0-40.0"},{"sim_score":5,"rt":3435,"stimulus":"[\"img/0904/b5855d6a-7ef9-46ca-9215-6e9fa046e543.jpg\",\"img/0899/b45c550b-96c3-4255-ad59-48a2b4db1c1e.jpg\"]","trial_type":"similarity","trial_index":47,"time_elapsed":283835,"internal_node_id":"0.0-6.0-41.0"},{"sim_score":1,"rt":3072,"stimulus":"[\"img/0862/57b6f83f-c763-4858-830d-102f97bfefbf.jpg\",\"img/0894/151063aa-6472-4745-837b-36603aba5966.jpg\"]","trial_type":"similarity","trial_index":48,"time_elapsed":287914,"internal_node_id":"0.0-6.0-42.0"},{"sim_score":1,"rt":3409,"stimulus":"[\"img/0875/5a1e5100-0d94-4fec-bbe9-ca9894d2cf8e.jpg\",\"img/0904/9dd5708f-3f8b-46a9-b49f-2f2fab87b357.jpg\"]","trial_type":"similarity","trial_index":49,"time_elapsed":292328,"internal_node_id":"0.0-6.0-43.0"},{"sim_score":2,"rt":6102,"stimulus":"[\"img/0874/29830da7-be5f-44e5-b141-652a0ccf7269.jpg\",\"img/0898/81b08535-2020-4c15-9ce4-2f1e460755ae.jpg\"]","trial_type":"similarity","trial_index":50,"time_elapsed":299439,"internal_node_id":"0.0-6.0-44.0"},{"sim_score":1,"rt":3268,"stimulus":"[\"img/0898/08c72dac-f8ad-407a-9ce6-8c9a5d679c3a.jpg\",\"img/0868/5fa7f9d0-f0e5-454c-8224-74d964818f56.jpg\"]","trial_type":"similarity","trial_index":51,"time_elapsed":303712,"internal_node_id":"0.0-6.0-45.0"},{"sim_score":1,"rt":3216,"stimulus":"[\"img/0901/b9141736-3041-4385-a586-b1fe911c76a5.jpg\",\"img/0860/524b2e98-5767-4d53-942c-ebae6925659b.jpg\"]","trial_type":"similarity","trial_index":52,"time_elapsed":307934,"internal_node_id":"0.0-6.0-46.0"},{"sim_score":5,"rt":3315,"stimulus":"[\"img/0894/c505c65a-cde2-4f2c-8cde-f8676f7c894d.jpg\",\"img/0902/94ee9c53-a9a2-4f95-b9b7-794a5fc62bb6.jpg\"]","trial_type":"similarity","trial_index":53,"time_elapsed":312258,"internal_node_id":"0.0-6.0-47.0"},{"sim_score":1,"rt":3387,"stimulus":"[\"img/0764/6ef77040-1fae-4afa-bfe7-eda98e6d0376.jpg\",\"img/0862/24cdc752-c2e5-4a17-86a6-6f2045d8553b.jpg\"]","trial_type":"similarity","trial_index":54,"time_elapsed":316651,"internal_node_id":"0.0-6.0-48.0"},{"sim_score":7,"rt":3775,"stimulus":"[\"img/0881/4da99fdd-1f40-4bbb-8e21-8833eef313f5.jpg\",\"img/0758/e38fd80d-18d0-42f3-b848-f930788e8bd7.jpg\"]","trial_type":"similarity","trial_index":55,"time_elapsed":321432,"internal_node_id":"0.0-6.0-49.0"},{"sim_score":5,"rt":3521,"stimulus":"[\"img/0766/f3276cc4-65de-4c2d-88d5-6cfebce14b8f.jpg\",\"img/0769/1afb527f-9887-428c-bd26-a12c2f9efb68.jpg\"]","trial_type":"similarity","trial_index":56,"time_elapsed":325960,"internal_node_id":"0.0-6.0-50.0"},{"sim_score":5,"rt":3021,"stimulus":"[\"img/0875/f87b67d7-c33e-40d1-b281-248c4be1cb6e.jpg\",\"img/0866/945c6710-d15b-4a5b-a8f6-69af0850357f.jpg\"]","trial_type":"similarity","trial_index":57,"time_elapsed":329987,"internal_node_id":"0.0-6.0-51.0"},{"sim_score":6,"rt":3806,"stimulus":"[\"img/0894/3adef67d-7676-4995-80b2-bb31b8aca3ef.jpg\",\"img/0904/4d7d70a3-9477-4921-bda0-f9531d0a5c5b.jpg\"]","trial_type":"similarity","trial_index":58,"time_elapsed":334798,"internal_node_id":"0.0-6.0-52.0"},{"sim_score":1,"rt":3182,"stimulus":"[\"img/0758/53f35650-e455-4b53-8be4-c3c8271c6466.jpg\",\"img/0769/f6396414-6788-4d59-9683-de153298d89c.jpg\"]","trial_type":"similarity","trial_index":59,"time_elapsed":338988,"internal_node_id":"0.0-6.0-53.0"},{"sim_score":1,"rt":2728,"stimulus":"[\"img/0902/962f645e-9b55-4628-9b50-c703422bfe1a.jpg\",\"img/0874/767f289c-9814-4496-803f-745cc8913d1f.jpg\"]","trial_type":"similarity","trial_index":60,"time_elapsed":342723,"internal_node_id":"0.0-6.0-54.0"},{"sim_score":1,"rt":2900,"stimulus":"[\"img/0903/8635cf25-2648-4fe9-8c42-79d2598e999c.jpg\",\"img/0862/e697469a-ec19-4414-b972-7b9f3564785b.jpg\"]","trial_type":"similarity","trial_index":61,"time_elapsed":346628,"internal_node_id":"0.0-6.0-55.0"},{"sim_score":1,"rt":3003,"stimulus":"[\"img/0866/d266fece-59b3-46fa-b69f-96f6efb81b59.jpg\",\"img/0894/7dd6ff43-f8fc-408a-8a41-a2b261871820.jpg\"]","trial_type":"similarity","trial_index":62,"time_elapsed":350638,"internal_node_id":"0.0-6.0-56.0"},{"sim_score":3,"rt":4914,"stimulus":"[\"img/0867/f26f6b60-f772-4f4c-95a4-addc62cfd692.jpg\",\"img/0904/696ebb60-8891-417a-91fd-c53218907a95.jpg\"]","trial_type":"similarity","trial_index":63,"time_elapsed":356557,"internal_node_id":"0.0-6.0-57.0"},{"sim_score":5,"rt":3136,"stimulus":"[\"img/0875/ebf7653f-ff45-4e9f-af58-2c042ab3cd2b.jpg\",\"img/0881/7e822106-76f7-4b10-a805-14dc68b2cfaf.jpg\"]","trial_type":"similarity","trial_index":64,"time_elapsed":360697,"internal_node_id":"0.0-6.0-58.0"},{"sim_score":5,"rt":4301,"stimulus":"[\"img/0866/c446214b-a368-4c65-ae39-ea46894256ab.jpg\",\"img/0860/29a21a9f-54bb-4093-ad3f-04823ceaa89f.jpg\"]","trial_type":"similarity","trial_index":65,"time_elapsed":366007,"internal_node_id":"0.0-6.0-59.0"},{"sim_score":2,"rt":3326,"stimulus":"[\"img/0903/14f179a2-8786-48a2-8377-88d1d404341b.jpg\",\"img/0866/f756f7d1-9ad8-4a34-9ef6-7a443d705bfe.jpg\"]","trial_type":"similarity","trial_index":66,"time_elapsed":370339,"internal_node_id":"0.0-6.0-60.0"},{"sim_score":6,"rt":3957,"stimulus":"[\"img/0860/fd4662f9-4c03-4d79-8593-06735e55a64b.jpg\",\"img/0875/42910c99-5463-450a-a0f8-d4d060a11455.jpg\"]","trial_type":"similarity","trial_index":67,"time_elapsed":375302,"internal_node_id":"0.0-6.0-61.0"},{"sim_score":1,"rt":3164,"stimulus":"[\"img/0898/04e39a7a-fcf6-4156-ab0e-f5871f335e1c.jpg\",\"img/0862/00c06b00-3b73-44e9-bc1e-c5aafb438321.jpg\"]","trial_type":"similarity","trial_index":68,"time_elapsed":379471,"internal_node_id":"0.0-6.0-62.0"},{"sim_score":5,"rt":3268,"stimulus":"[\"img/0902/04a6ad4a-afc6-4871-8225-56b299af7b6b.jpg\",\"img/0766/908bc45b-7c9e-4f95-806e-86b196ebcb2c.jpg\"]","trial_type":"similarity","trial_index":69,"time_elapsed":383746,"internal_node_id":"0.0-6.0-63.0"},{"sim_score":5,"rt":4630,"stimulus":"[\"img/0758/eabcd7a8-56ad-4fd2-bc24-90f6b7b33265.jpg\",\"img/0864/5f33e097-23e3-4002-882d-76e8cb15f451.jpg\"]","trial_type":"similarity","trial_index":70,"time_elapsed":389381,"internal_node_id":"0.0-6.0-64.0"},{"sim_score":1,"rt":2867,"stimulus":"[\"img/0894/b422d5c6-3c5a-49ae-a53e-7e88ac993f49.jpg\",\"img/0860/9593362c-9fe5-4d12-9735-6000a11f6aa5.jpg\"]","trial_type":"similarity","trial_index":71,"time_elapsed":393255,"internal_node_id":"0.0-6.0-65.0"},{"sim_score":2,"rt":3204,"stimulus":"[\"img/0899/fd9efb43-701f-4cd6-baaa-4c38315f4bdc.jpg\",\"img/0868/4bd5105a-d2c3-4f82-8c80-57196106ba53.jpg\"]","trial_type":"similarity","trial_index":72,"time_elapsed":397466,"internal_node_id":"0.0-6.0-66.0"},{"sim_score":5,"rt":3569,"stimulus":"[\"img/0866/a04d37f0-99dd-478a-b6c6-58b215138f84.jpg\",\"img/0862/847e5208-38ec-4f36-949c-296cdd7424ee.jpg\"]","trial_type":"similarity","trial_index":73,"time_elapsed":402044,"internal_node_id":"0.0-6.0-67.0"},{"sim_score":6,"rt":3233,"stimulus":"[\"img/0860/8277806e-b684-4474-8f7b-3fca946d7d4f.jpg\",\"img/0758/6cd8c362-ae2a-41eb-80a3-3a4f7ace1530.jpg\"]","trial_type":"similarity","trial_index":74,"time_elapsed":406286,"internal_node_id":"0.0-6.0-68.0"},{"sim_score":1,"rt":2779,"stimulus":"[\"img/0902/07437a16-3d0f-4a5c-89ec-36d0efa4b3b8.jpg\",\"img/0867/12264664-1860-46df-8c21-162b9817cdda.jpg\"]","trial_type":"similarity","trial_index":75,"time_elapsed":410071,"internal_node_id":"0.0-6.0-69.0"},{"sim_score":1,"rt":3192,"stimulus":"[\"img/0862/99a99e39-8355-44ec-b993-e7bcec111e1c.jpg\",\"img/0901/c6df1a21-44ed-47c2-960e-7c52220e329e.jpg\"]","trial_type":"similarity","trial_index":76,"time_elapsed":414268,"internal_node_id":"0.0-6.0-70.0"},{"sim_score":7,"rt":3176,"stimulus":"[\"img/0867/c66898ba-b71b-4d50-84f9-f7f84853a98d.jpg\",\"img/0866/d493a2c8-66eb-44b4-be02-2f327b700b7c.jpg\"]","trial_type":"similarity","trial_index":77,"time_elapsed":418449,"internal_node_id":"0.0-6.0-71.0"},{"sim_score":1,"rt":3014,"stimulus":"[\"img/0860/18dfed73-e36b-4487-a8bd-0b8cff8e3668.jpg\",\"img/0904/09dac84f-3d1c-4445-a68e-d0389fdbf1e9.jpg\"]","trial_type":"similarity","trial_index":78,"time_elapsed":422470,"internal_node_id":"0.0-6.0-72.0"},{"sim_score":1,"rt":2995,"stimulus":"[\"img/0875/d59ff733-eaff-4ee2-9443-06954dd0bcb6.jpg\",\"img/0899/4408c14d-c168-4a7d-96f6-bc87bfb58f83.jpg\"]","trial_type":"similarity","trial_index":79,"time_elapsed":426474,"internal_node_id":"0.0-6.0-73.0"},{"sim_score":1,"rt":2878,"stimulus":"[\"img/0899/9de5e857-aa9a-4e0c-8ba2-46d79bd069a4.jpg\",\"img/0758/65d426d6-3ff6-415d-8654-a43b83ecc4fe.jpg\"]","trial_type":"similarity","trial_index":80,"time_elapsed":430358,"internal_node_id":"0.0-6.0-74.0"},{"sim_score":3,"rt":5314,"stimulus":"[\"img/0862/e0f1a4e9-e1b6-45f7-af67-89f334e6630d.jpg\",\"img/0875/cff79b3a-a797-4393-9757-6275f999ec04.jpg\"]","trial_type":"similarity","trial_index":81,"time_elapsed":441506,"internal_node_id":"0.0-6.0-75.0"},{"sim_score":5,"rt":3696,"stimulus":"[\"img/0901/a9b9c0a0-8aed-4888-a78a-65fb7e764d13.jpg\",\"img/0894/8cadb87a-7001-4e47-99fb-1867bebf1668.jpg\"]","trial_type":"similarity","trial_index":82,"time_elapsed":446207,"internal_node_id":"0.0-6.0-76.0"},{"sim_score":1,"rt":2952,"stimulus":"[\"img/0766/aaec5f42-7f0a-4a16-aeca-488d757acbcc.jpg\",\"img/0758/f61ecdf8-a7d4-4db0-b84d-be46f7cfaffc.jpg\"]","trial_type":"similarity","trial_index":83,"time_elapsed":450164,"internal_node_id":"0.0-6.0-77.0"},{"sim_score":5,"rt":3714,"stimulus":"[\"img/0894/76c1201f-8524-4865-85e6-dda8cb4ac986.jpg\",\"img/0764/f64dfa83-333d-494c-87b5-73e942f1766e.jpg\"]","trial_type":"similarity","trial_index":84,"time_elapsed":454884,"internal_node_id":"0.0-6.0-78.0"},{"sim_score":5,"rt":2933,"stimulus":"[\"img/0860/99c589b9-9140-4d17-90c0-b344323edcda.jpg\",\"img/0867/de92135f-5b65-4ed9-b245-188292c7c2f8.jpg\"]","trial_type":"similarity","trial_index":85,"time_elapsed":458822,"internal_node_id":"0.0-6.0-79.0"},{"sim_score":6,"rt":4689,"stimulus":"[\"img/0898/8605a25b-6895-476d-8c13-df7a83f96093.jpg\",\"img/0901/a6776381-91fe-43f8-ab73-261d318f95fd.jpg\"]","trial_type":"similarity","trial_index":86,"time_elapsed":464518,"internal_node_id":"0.0-6.0-80.0"},{"sim_score":1,"rt":3207,"stimulus":"[\"img/0874/995f0332-0439-4eb4-add3-957335dbf6d9.jpg\",\"img/0764/e0788029-9d7f-414c-b747-46d2a99f7c86.jpg\"]","trial_type":"similarity","trial_index":87,"time_elapsed":468730,"internal_node_id":"0.0-6.0-81.0"},{"sim_score":1,"rt":4323,"stimulus":"[\"img/0899/565ccdd9-0933-4536-a625-3c0e25a713dd.jpg\",\"img/0862/f23038d4-c366-4f70-979f-66b62362efa4.jpg\"]","trial_type":"similarity","trial_index":88,"time_elapsed":474059,"internal_node_id":"0.0-6.0-82.0"},{"sim_score":6,"rt":4151,"stimulus":"[\"img/0766/006035d8-c736-4daf-bbe4-a9e373af9da6.jpg\",\"img/0901/d61f267a-c492-4db6-9bfb-61efd49cf072.jpg\"]","trial_type":"similarity","trial_index":89,"time_elapsed":479216,"internal_node_id":"0.0-6.0-83.0"},{"sim_score":6,"rt":4682,"stimulus":"[\"img/0881/633c6f40-56d9-4b48-bf1c-ecd83116eabb.jpg\",\"img/0898/68476bbb-34a1-42d9-8bc1-deab783d4489.jpg\"]","trial_type":"similarity","trial_index":90,"time_elapsed":484902,"internal_node_id":"0.0-6.0-84.0"},{"sim_score":6,"rt":4539,"stimulus":"[\"img/0868/7b212364-ff5f-4e28-9241-7eb6ea00161b.jpg\",\"img/0860/e8b8c51e-1834-4875-8b61-6c5bc9b178bd.jpg\"]","trial_type":"similarity","trial_index":91,"time_elapsed":490447,"internal_node_id":"0.0-6.0-85.0"},{"sim_score":5,"rt":3480,"stimulus":"[\"img/0758/e1ba5e53-addc-436a-b428-d34fc1b130dc.jpg\",\"img/0868/6a28c3b0-3d76-498a-9fb7-ddafc665eca8.jpg\"]","trial_type":"similarity","trial_index":92,"time_elapsed":494931,"internal_node_id":"0.0-6.0-86.0"},{"sim_score":2,"rt":3591,"stimulus":"[\"img/0864/c3b63e8f-ea39-4d70-a1f2-b3fe4be8eb75.jpg\",\"img/0894/86201968-6e78-4d68-9b3a-d1692e066210.jpg\"]","trial_type":"similarity","trial_index":93,"time_elapsed":499529,"internal_node_id":"0.0-6.0-87.0"},{"sim_score":1,"rt":3112,"stimulus":"[\"img/0866/0207e9a2-7dbb-40b5-9459-b472aaeceb2a.jpg\",\"img/0902/511abb54-0094-4f4d-b6dc-3f2c97050521.jpg\"]","trial_type":"similarity","trial_index":94,"time_elapsed":503650,"internal_node_id":"0.0-6.0-88.0"},{"sim_score":1,"rt":3195,"stimulus":"[\"img/0769/47700831-0ca2-4fdd-a498-a3bc5a528f43.jpg\",\"img/0867/075e0f95-856b-4cbb-acf5-092393aaf04e.jpg\"]","trial_type":"similarity","trial_index":95,"time_elapsed":507851,"internal_node_id":"0.0-6.0-89.0"},{"sim_score":5,"rt":3766,"stimulus":"[\"img/0874/ca23d307-fc00-4d7d-9106-584c6eb21b4d.jpg\",\"img/0875/fb732ab5-013a-4366-9f65-27811ed157e9.jpg\"]","trial_type":"similarity","trial_index":96,"time_elapsed":512622,"internal_node_id":"0.0-6.0-90.0"},{"sim_score":6,"rt":3399,"stimulus":"[\"img/0864/3651d070-2fc5-4848-b6a6-088a2d9ac5c9.jpg\",\"img/0874/a3bc679d-619f-4db6-bb68-116dcb757d9c.jpg\"]","trial_type":"similarity","trial_index":97,"time_elapsed":517026,"internal_node_id":"0.0-6.0-91.0"},{"sim_score":6,"rt":3451,"stimulus":"[\"img/0881/20af39f5-373d-4a55-a437-2dc4c0382c46.jpg\",\"img/0862/e8cc3bdf-cc43-4565-bccf-492626c70953.jpg\"]","trial_type":"similarity","trial_index":98,"time_elapsed":521482,"internal_node_id":"0.0-6.0-92.0"},{"sim_score":6,"rt":3234,"stimulus":"[\"img/0864/5f74a653-3bdc-4308-8cca-ac667dc22e1f.jpg\",\"img/0881/445edb15-bd7f-4af3-8bd5-c6ad9677bb31.jpg\"]","trial_type":"similarity","trial_index":99,"time_elapsed":525725,"internal_node_id":"0.0-6.0-93.0"},{"sim_score":5,"rt":4029,"stimulus":"[\"img/0899/06b0fc99-0581-461a-9913-d1a5a941ac61.jpg\",\"img/0901/71e551a2-9ce2-409c-9c7c-dd556a0791e9.jpg\"]","trial_type":"similarity","trial_index":100,"time_elapsed":530760,"internal_node_id":"0.0-6.0-94.0"},{"sim_score":1,"rt":3277,"stimulus":"[\"img/0874/99f6563c-8a8d-4c1c-a41d-667b618c3fd5.jpg\",\"img/0766/09f646c8-a69e-4ed3-879c-8d29b04ad7f9.jpg\"]","trial_type":"similarity","trial_index":101,"time_elapsed":535043,"internal_node_id":"0.0-6.0-95.0"},{"sim_score":3,"rt":3388,"stimulus":"[\"img/0881/d373cb9f-a719-4549-a2a4-82def79fb2a5.jpg\",\"img/0899/0433d056-aa30-4f8a-9aa1-abbb951e4edd.jpg\"]","trial_type":"similarity","trial_index":102,"time_elapsed":539438,"internal_node_id":"0.0-6.0-96.0"},{"sim_score":5,"rt":4466,"stimulus":"[\"img/0862/d0ca4c78-fc35-46ed-bdcc-8e124283c53e.jpg\",\"img/0902/3b243e54-0803-4c29-af42-4037c2118495.jpg\"]","trial_type":"similarity","trial_index":103,"time_elapsed":544909,"internal_node_id":"0.0-6.0-97.0"},{"sim_score":6,"rt":4143,"stimulus":"[\"img/0899/ddf96ade-692e-4602-bd22-dedbb46401bc.jpg\",\"img/0764/c01e2d65-6586-441b-bef5-3c96fcd85380.jpg\"]","trial_type":"similarity","trial_index":104,"time_elapsed":550056,"internal_node_id":"0.0-6.0-98.0"},{"sim_score":5,"rt":4907,"stimulus":"[\"img/0758/2fa3e613-e676-4e6e-bd12-705327eeb3e1.jpg\",\"img/0862/f188d4f0-76a4-4102-818c-a209969d73a5.jpg\"]","trial_type":"similarity","trial_index":105,"time_elapsed":555968,"internal_node_id":"0.0-6.0-99.0"},{"sim_score":6,"rt":3898,"stimulus":"[\"img/0764/d7f3ac54-318a-4dac-a06b-62bed34d01a4.jpg\",\"img/0898/cd3aaa3f-efa9-4ab3-8d6f-a6a9273ddf42.jpg\"]","trial_type":"similarity","trial_index":106,"time_elapsed":560872,"internal_node_id":"0.0-6.0-100.0"},{"sim_score":6,"rt":3794,"stimulus":"[\"img/0901/04a53755-6da5-44d4-a7a6-48a6bc0a2280.jpg\",\"img/0902/2db723b6-130f-454c-8c8d-88829edbcd65.jpg\"]","trial_type":"similarity","trial_index":107,"time_elapsed":565673,"internal_node_id":"0.0-6.0-101.0"},{"sim_score":1,"rt":3293,"stimulus":"[\"img/0764/0e7ed062-f798-4366-8a24-6f430926f919.jpg\",\"img/0868/c8ac40c7-6904-4e13-8d61-c75d3052dc4e.jpg\"]","trial_type":"similarity","trial_index":108,"time_elapsed":569976,"internal_node_id":"0.0-6.0-102.0"},{"sim_score":1,"rt":3156,"stimulus":"[\"img/0769/bb8c4e53-6f32-4814-97ee-392d4decfb2e.jpg\",\"img/0881/1407b85b-a1c6-45b1-9884-3b24203efadb.jpg\"]","trial_type":"similarity","trial_index":109,"time_elapsed":574138,"internal_node_id":"0.0-6.0-103.0"},{"sim_score":3,"rt":3286,"stimulus":"[\"img/0864/f92649a2-0590-4d31-9a7a-1bfb81666a2d.jpg\",\"img/0769/3c1efec9-f8fd-487d-8955-4be88e48c832.jpg\"]","trial_type":"similarity","trial_index":110,"time_elapsed":578430,"internal_node_id":"0.0-6.0-104.0"},{"sim_score":5,"rt":3267,"stimulus":"[\"img/0866/a15b02be-11bb-43e3-b0e0-ecc3bd7dfc49.jpg\",\"img/0868/4e626425-63c8-484a-8a1d-e66ee4e0bef8.jpg\"]","trial_type":"similarity","trial_index":111,"time_elapsed":582703,"internal_node_id":"0.0-6.0-105.0"},{"sim_score":5,"rt":2988,"stimulus":"[\"img/0868/179a5502-ab5c-478e-8263-5a1fbcc101d2.jpg\",\"img/0862/eefa5588-9efd-4591-aa5f-a2e17c7d7bcc.jpg\"]","trial_type":"similarity","trial_index":112,"time_elapsed":586700,"internal_node_id":"0.0-6.0-106.0"},{"sim_score":6,"rt":3625,"stimulus":"[\"img/0766/d50d734f-285c-4840-bc7a-c8dd4aff391e.jpg\",\"img/0898/6cd3830b-d44e-4915-be2b-88d31424b91c.jpg\"]","trial_type":"similarity","trial_index":113,"time_elapsed":591330,"internal_node_id":"0.0-6.0-107.0"},{"sim_score":1,"rt":2969,"stimulus":"[\"img/0898/f3a3f225-1248-4ac7-b93b-f0ff28485bf3.jpg\",\"img/0864/300bb811-8b3c-4c42-8653-6097c3725197.jpg\"]","trial_type":"similarity","trial_index":114,"time_elapsed":595306,"internal_node_id":"0.0-6.0-108.0"},{"sim_score":1,"rt":3144,"stimulus":"[\"img/0868/293079b8-7e0c-4afd-a390-1e5d35fe3ded.jpg\",\"img/0902/4e0baa32-988e-46f6-989d-f669225ab645.jpg\"]","trial_type":"similarity","trial_index":115,"time_elapsed":599455,"internal_node_id":"0.0-6.0-109.0"},{"sim_score":6,"rt":4223,"stimulus":"[\"img/0904/2fd488e9-960f-41f7-8a44-33375f7d5051.jpg\",\"img/0764/7f4ee8e3-9315-4a57-be7d-db8454b33766.jpg\"]","trial_type":"similarity","trial_index":116,"time_elapsed":604683,"internal_node_id":"0.0-6.0-110.0"},{"sim_score":1,"rt":3135,"stimulus":"[\"img/0894/1b3888e6-cf36-4c4a-a039-187aa5cb71ac.jpg\",\"img/0875/dbdd643e-6d0e-4a5c-ab57-b9c29b9c981a.jpg\"]","trial_type":"similarity","trial_index":117,"time_elapsed":608824,"internal_node_id":"0.0-6.0-111.0"},{"sim_score":5,"rt":2816,"stimulus":"[\"img/0868/fd307a36-9a3a-47d7-ab7c-f810d0b35040.jpg\",\"img/0874/bf14b896-e930-4fd9-9c05-2e83317a2773.jpg\"]","trial_type":"similarity","trial_index":118,"time_elapsed":612649,"internal_node_id":"0.0-6.0-112.0"},{"sim_score":5,"rt":2817,"stimulus":"[\"img/0904/65e2b70a-b184-4da3-b5c0-5038bdf9469a.jpg\",\"img/0898/881e2a85-d5c2-49be-a0c6-8a6ce2c4af08.jpg\"]","trial_type":"similarity","trial_index":119,"time_elapsed":619887,"internal_node_id":"0.0-6.0-113.0"},{"sim_score":1,"rt":2961,"stimulus":"[\"img/0860/8fdba999-b946-4c7d-9891-336018b563ef.jpg\",\"img/0766/db750ba0-ce04-46e1-b601-e1b80212bad2.jpg\"]","trial_type":"similarity","trial_index":120,"time_elapsed":623855,"internal_node_id":"0.0-6.0-114.0"},{"sim_score":2,"rt":3201,"stimulus":"[\"img/0894/10f22b96-040c-44f4-950b-a4963f3f506c.jpg\",\"img/0874/1016b306-087c-4afc-aa08-fa527b28dc76.jpg\"]","trial_type":"similarity","trial_index":121,"time_elapsed":628067,"internal_node_id":"0.0-6.0-115.0"},{"sim_score":5,"rt":5491,"stimulus":"[\"img/0899/8abe6c69-822c-436c-9bf2-96c818b49ba5.jpg\",\"img/0903/72197c2b-403e-4a26-b391-f1aa8dea4b76.jpg\"]","trial_type":"similarity","trial_index":122,"time_elapsed":634567,"internal_node_id":"0.0-6.0-116.0"},{"sim_score":2,"rt":3333,"stimulus":"[\"img/0881/c24f3051-eefa-42de-aba6-fccb56d93c70.jpg\",\"img/0764/fb7d4a20-a475-465e-a74f-aa39a0d33d16.jpg\"]","trial_type":"similarity","trial_index":123,"time_elapsed":638908,"internal_node_id":"0.0-6.0-117.0"},{"sim_score":5,"rt":3204,"stimulus":"[\"img/0903/8f7f9939-b8e6-433f-93dd-b362496c80a7.jpg\",\"img/0769/96556ef3-7fac-4c9d-8281-1cb0ea5081bc.jpg\"]","trial_type":"similarity","trial_index":124,"time_elapsed":643118,"internal_node_id":"0.0-6.0-118.0"},{"sim_score":5,"rt":3204,"stimulus":"[\"img/0901/d4d09bf5-093e-4050-838e-7c738be8e63c.jpg\",\"img/0904/2c98dc56-88d1-4fb5-a999-b6a7861f65f0.jpg\"]","trial_type":"similarity","trial_index":125,"time_elapsed":647327,"internal_node_id":"0.0-6.0-119.0"},{"sim_score":1,"rt":3155,"stimulus":"[\"img/0860/4c530c3c-6aab-492a-94d1-9c01797bde40.jpg\",\"img/0881/667e2147-d457-4f32-aa5f-6ab86e5848f1.jpg\"]","trial_type":"similarity","trial_index":126,"time_elapsed":651488,"internal_node_id":"0.0-6.0-120.0"},{"sim_score":3,"rt":3965,"stimulus":"[\"img/0758/6e95579b-5166-487c-b8cb-e417c6a218e3.jpg\",\"img/0874/adf9a8f1-c40b-402b-b95b-1e85a54a7b62.jpg\"]","trial_type":"similarity","trial_index":127,"time_elapsed":656458,"internal_node_id":"0.0-6.0-121.0"},{"sim_score":6,"rt":3663,"stimulus":"[\"img/0901/4ca4f962-40c0-4c59-b14a-3cd7b8c9029b.jpg\",\"img/0769/878531fd-e0e8-4ad1-b9ad-f018bb104ca0.jpg\"]","trial_type":"similarity","trial_index":128,"time_elapsed":661126,"internal_node_id":"0.0-6.0-122.0"},{"sim_score":6,"rt":3713,"stimulus":"[\"img/0902/6730b12a-f0a7-4587-8c10-a32fae16565b.jpg\",\"img/0904/1d10df11-b5c8-4370-9a6b-097a7f965895.jpg\"]","trial_type":"similarity","trial_index":129,"time_elapsed":665846,"internal_node_id":"0.0-6.0-123.0"},{"sim_score":3,"rt":3873,"stimulus":"[\"img/0899/7b7380d5-d2be-44e5-a09a-c1756f87ef71.jpg\",\"img/0864/1d15626a-2f7c-410f-819c-0fa2c967e95e.jpg\"]","trial_type":"similarity","trial_index":130,"time_elapsed":670727,"internal_node_id":"0.0-6.0-124.0"},{"sim_score":2,"rt":3271,"stimulus":"[\"img/0766/fd74fdbb-ea40-4f3a-a091-38d08dfd636e.jpg\",\"img/0868/8b0b8473-e2c0-4331-aa56-c3a5c29369da.jpg\"]","trial_type":"similarity","trial_index":131,"time_elapsed":675007,"internal_node_id":"0.0-6.0-125.0"},{"sim_score":1,"rt":3361,"stimulus":"[\"img/0764/ef0e64c6-d0dd-4dc6-87b6-ce5c0665f421.jpg\",\"img/0864/9b2490c5-a282-400a-9736-e1a0ecbf1cb7.jpg\"]","trial_type":"similarity","trial_index":132,"time_elapsed":679382,"internal_node_id":"0.0-6.0-126.0"},{"sim_score":1,"rt":3346,"stimulus":"[\"img/0899/7f9d45d0-b2c6-40d3-aa41-c207db2c411b.jpg\",\"img/0866/4a87911a-d5be-4d4e-ab8e-3d1f581bf507.jpg\"]","trial_type":"similarity","trial_index":133,"time_elapsed":683734,"internal_node_id":"0.0-6.0-127.0"},{"sim_score":2,"rt":2859,"stimulus":"[\"img/0901/effc03f6-8f9d-46db-a66c-16fc83891c5c.jpg\",\"img/0881/b549bc99-a61c-4450-bab5-9efc3a197bf0.jpg\"]","trial_type":"similarity","trial_index":134,"time_elapsed":687598,"internal_node_id":"0.0-6.0-128.0"},{"sim_score":6,"rt":3550,"stimulus":"[\"img/0898/b2732712-71c2-45d8-834f-2b2ed5504910.jpg\",\"img/0903/36e4ab1f-caa9-40b3-8616-faada076df94.jpg\"]","trial_type":"similarity","trial_index":135,"time_elapsed":692156,"internal_node_id":"0.0-6.0-129.0"},{"sim_score":1,"rt":3263,"stimulus":"[\"img/0894/a98416c0-51e2-4960-85da-d81d8688b9d5.jpg\",\"img/0867/aa05d113-fc19-4756-a8eb-7878f580bc92.jpg\"]","trial_type":"similarity","trial_index":136,"time_elapsed":696425,"internal_node_id":"0.0-6.0-130.0"},{"sim_score":1,"rt":3053,"stimulus":"[\"img/0874/85eb9b8a-c4c6-4e5a-b8e7-363a87a82054.jpg\",\"img/0903/b7e3723f-fd03-4f3d-8820-f19496463a34.jpg\"]","trial_type":"similarity","trial_index":137,"time_elapsed":700484,"internal_node_id":"0.0-6.0-131.0"},{"sim_score":6,"rt":3549,"stimulus":"[\"img/0899/00715b3f-851b-420b-a26b-d7f79f7759a9.jpg\",\"img/0898/79233891-305a-4a6a-8ddf-5c8604858203.jpg\"]","trial_type":"similarity","trial_index":138,"time_elapsed":705039,"internal_node_id":"0.0-6.0-132.0"},{"sim_score":1,"rt":3013,"stimulus":"[\"img/0867/cc72ed48-7704-422c-86d6-467a1145287a.jpg\",\"img/0764/b8e23f4f-ff19-4472-ad9b-2f85548ebca0.jpg\"]","trial_type":"similarity","trial_index":139,"time_elapsed":709060,"internal_node_id":"0.0-6.0-133.0"},{"sim_score":1,"rt":3059,"stimulus":"[\"img/0866/23a224f3-2012-4fc8-8e0f-3c36f8de27fd.jpg\",\"img/0769/022c7e3b-c3f2-4119-b4bc-f22fa7cae18c.jpg\"]","trial_type":"similarity","trial_index":140,"time_elapsed":713126,"internal_node_id":"0.0-6.0-134.0"},{"sim_score":2,"rt":3261,"stimulus":"[\"img/0860/5bff793e-cbd5-4d7e-b628-0ac2b0e30b64.jpg\",\"img/0898/a8f16b02-e19f-423b-86c3-a36562ae1f9b.jpg\"]","trial_type":"similarity","trial_index":141,"time_elapsed":717396,"internal_node_id":"0.0-6.0-135.0"},{"sim_score":2,"rt":3337,"stimulus":"[\"img/0881/344de456-b358-4887-bd0e-e4c3278af887.jpg\",\"img/0903/39365c8e-a733-4801-ac7d-b87e38c3784b.jpg\"]","trial_type":"similarity","trial_index":142,"time_elapsed":721738,"internal_node_id":"0.0-6.0-136.0"},{"sim_score":6,"rt":4536,"stimulus":"[\"img/0894/e5edf723-72a5-4673-8441-6c1734a8929b.jpg\",\"img/0766/a0270213-fa0e-4972-8b56-228c3e01ff90.jpg\"]","trial_type":"similarity","trial_index":143,"time_elapsed":727282,"internal_node_id":"0.0-6.0-137.0"},{"sim_score":1,"rt":2871,"stimulus":"[\"img/0860/94ef7afc-e0e6-4a15-98c6-0bfac82bc832.jpg\",\"img/0764/4eff630a-6426-4f8d-b2ba-b4d9842a0962.jpg\"]","trial_type":"similarity","trial_index":144,"time_elapsed":731158,"internal_node_id":"0.0-6.0-138.0"},{"sim_score":6,"rt":3470,"stimulus":"[\"img/0769/5bd04f55-d091-4f57-85db-38426f26bd1a.jpg\",\"img/0902/b76efc44-a50f-4dac-b997-ff0222376067.jpg\"]","trial_type":"similarity","trial_index":145,"time_elapsed":735634,"internal_node_id":"0.0-6.0-139.0"},{"sim_score":6,"rt":4170,"stimulus":"[\"img/0904/5cceabc9-de1d-4c67-989b-c28a4ef77e79.jpg\",\"img/0903/150cf64c-0bd2-4674-abbb-a1387cf1f3e9.jpg\"]","trial_type":"similarity","trial_index":146,"time_elapsed":740809,"internal_node_id":"0.0-6.0-140.0"},{"sim_score":5,"rt":3093,"stimulus":"[\"img/0764/bd2eaa3e-95a9-4a59-a78e-3f81c766eea9.jpg\",\"img/0769/38a88f69-28fd-4bbd-99f0-f4c02bfd3995.jpg\"]","trial_type":"similarity","trial_index":147,"time_elapsed":744908,"internal_node_id":"0.0-6.0-141.0"},{"sim_score":1,"rt":3103,"stimulus":"[\"img/0902/44cd9b7e-fdfb-4f78-90de-8d4c9d279365.jpg\",\"img/0881/f6bd3b96-dc40-4e99-8681-bc3a35cf896d.jpg\"]","trial_type":"similarity","trial_index":148,"time_elapsed":749018,"internal_node_id":"0.0-6.0-142.0"},{"sim_score":5,"rt":2871,"stimulus":"[\"img/0866/02f5e6b9-52b7-448c-9708-5b460d0c9a23.jpg\",\"img/0864/afcba0a3-7e27-4757-b254-e9f05fad27e2.jpg\"]","trial_type":"similarity","trial_index":149,"time_elapsed":752893,"internal_node_id":"0.0-6.0-143.0"},{"sim_score":7,"rt":3937,"stimulus":"[\"img/0902/7f1dcd35-237a-4995-9e42-7f63f3f434d4.jpg\",\"img/0898/01bfe666-3510-4fc7-964f-d00d28732dc8.jpg\"]","trial_type":"similarity","trial_index":150,"time_elapsed":757836,"internal_node_id":"0.0-6.0-144.0"},{"sim_score":5,"rt":3245,"stimulus":"[\"img/0862/f43ceabf-acc1-4107-b857-5d1849808f93.jpg\",\"img/0864/b3c4e378-28f0-4699-9338-2a257b4bca04.jpg\"]","trial_type":"similarity","trial_index":151,"time_elapsed":762088,"internal_node_id":"0.0-6.0-145.0"},{"sim_score":1,"rt":2951,"stimulus":"[\"img/0875/2c361b79-c3d1-4eda-812e-bf03192407bf.jpg\",\"img/0898/82231d4c-218b-4d0a-b50d-35a49b524e97.jpg\"]","trial_type":"similarity","trial_index":152,"time_elapsed":766045,"internal_node_id":"0.0-6.0-146.0"},{"sim_score":6,"rt":4537,"stimulus":"[\"img/0874/31e22c7c-99aa-40b1-bf03-dd73fa2df4d6.jpg\",\"img/0881/db77fe00-aeb0-4d1d-aa66-f3a96fd077e4.jpg\"]","trial_type":"similarity","trial_index":153,"time_elapsed":771587,"internal_node_id":"0.0-6.0-147.0"},{"sim_score":2,"rt":3866,"stimulus":"[\"img/0758/caa93da2-9edf-49fa-96b9-32dedd8f5078.jpg\",\"img/0894/38f5931f-926d-414e-b498-66b188978b7a.jpg\"]","trial_type":"similarity","trial_index":154,"time_elapsed":776459,"internal_node_id":"0.0-6.0-148.0"},{"sim_score":1,"rt":3030,"stimulus":"[\"img/0904/09934646-45d2-4147-8fec-64a22a5ac822.jpg\",\"img/0864/0116ca98-293d-4fa6-a93b-5a6144ef64cc.jpg\"]","trial_type":"similarity","trial_index":155,"time_elapsed":780497,"internal_node_id":"0.0-6.0-149.0"},{"sim_score":6,"rt":3490,"stimulus":"[\"img/0769/14d393ce-e5be-4ca1-86ce-cc27d4b6074c.jpg\",\"img/0899/d60714ae-98d7-4564-8c98-94dba1351135.jpg\"]","trial_type":"similarity","trial_index":156,"time_elapsed":784994,"internal_node_id":"0.0-6.0-150.0"},{"sim_score":6,"rt":3642,"stimulus":"[\"img/0764/6fbd1902-fa2a-48d8-bc11-705b8ab68d8f.jpg\",\"img/0903/5995f4a8-fa82-46f8-8760-fd7800a5ca34.jpg\"]","trial_type":"similarity","trial_index":157,"time_elapsed":792540,"internal_node_id":"0.0-6.0-151.0"},{"sim_score":1,"rt":2968,"stimulus":"[\"img/0903/c3cb4a01-2797-43ca-b216-88c67b323fbb.jpg\",\"img/0864/e02eddb5-f468-499c-91bf-f7be3ffe979b.jpg\"]","trial_type":"similarity","trial_index":158,"time_elapsed":796518,"internal_node_id":"0.0-6.0-152.0"},{"sim_score":1,"rt":3653,"stimulus":"[\"img/0894/492d2f29-d7b9-4422-8be8-47fd58bfaa8b.jpg\",\"img/0881/f4e3e181-b3c9-4af2-a5a4-fc135ab70d2e.jpg\"]","trial_type":"similarity","trial_index":159,"time_elapsed":801180,"internal_node_id":"0.0-6.0-153.0"},{"sim_score":5,"rt":3223,"stimulus":"[\"img/0875/a4935837-7d3c-4df6-88c1-36a94d4991ca.jpg\",\"img/0867/85a96c62-548f-4994-9553-819e03c3135a.jpg\"]","trial_type":"similarity","trial_index":160,"time_elapsed":805411,"internal_node_id":"0.0-6.0-154.0"},{"sim_score":5,"rt":2759,"stimulus":"[\"img/0867/a498eef3-9fa4-4ab2-9778-4ae82ac40dc5.jpg\",\"img/0758/a709631e-3705-4725-ac40-f0d916924f08.jpg\"]","trial_type":"similarity","trial_index":161,"time_elapsed":809175,"internal_node_id":"0.0-6.0-155.0"},{"sim_score":2,"rt":4111,"stimulus":"[\"img/0868/e0aff734-077f-40dd-9781-74821abd3621.jpg\",\"img/0901/deff6cfb-0072-4490-bc3e-206bbcd3e8bf.jpg\"]","trial_type":"similarity","trial_index":162,"time_elapsed":814292,"internal_node_id":"0.0-6.0-156.0"},{"sim_score":7,"rt":3583,"stimulus":"[\"img/0769/91acb237-65a3-4d0b-9748-af5c7b83d3c7.jpg\",\"img/0894/9b1333fd-3561-43bf-aee5-99b7b7ca3dc3.jpg\"]","trial_type":"similarity","trial_index":163,"time_elapsed":818880,"internal_node_id":"0.0-6.0-157.0"},{"sim_score":1,"rt":3865,"stimulus":"[\"img/0904/ba8e689e-9ca6-4608-a2a1-3b0940666ae6.jpg\",\"img/0758/dd559618-7f09-4a07-8018-d311c4a5ea29.jpg\"]","trial_type":"similarity","trial_index":164,"time_elapsed":823752,"internal_node_id":"0.0-6.0-158.0"},{"sim_score":2,"rt":3373,"stimulus":"[\"img/0874/2c9464dd-8a23-4baa-ac94-1ba3af5c15cc.jpg\",\"img/0904/06dacdc5-2206-4fb8-92b7-88042d22833c.jpg\"]","trial_type":"similarity","trial_index":165,"time_elapsed":828130,"internal_node_id":"0.0-6.0-159.0"},{"sim_score":1,"rt":4261,"stimulus":"[\"img/0864/e336a4c5-6648-4fd7-b2f6-93a3fb83f8c6.jpg\",\"img/0901/fb0a8e69-7f19-4e6e-a6bb-a48f97f9b4f3.jpg\"]","trial_type":"similarity","trial_index":166,"time_elapsed":833397,"internal_node_id":"0.0-6.0-160.0"},{"sim_score":1,"rt":2618,"stimulus":"[\"img/0898/0af304a2-6a7a-4082-ab7c-4450cd08cc58.jpg\",\"img/0866/9b38d691-1802-4959-ab3f-fc902f0e4ea6.jpg\"]","trial_type":"similarity","trial_index":167,"time_elapsed":837020,"internal_node_id":"0.0-6.0-161.0"},{"sim_score":6,"rt":3378,"stimulus":"[\"img/0766/d14acac4-7db1-4b07-8f8f-302437326fc0.jpg\",\"img/0903/b548d383-2a95-4575-8c13-647873751ff1.jpg\"]","trial_type":"similarity","trial_index":168,"time_elapsed":841403,"internal_node_id":"0.0-6.0-162.0"},{"sim_score":1,"rt":2690,"stimulus":"[\"img/0860/d9a0d117-6d1d-41c0-8fec-9aff0fd9e9f2.jpg\",\"img/0899/a05bea16-2bb4-4cb9-b8fb-4ff975db6971.jpg\"]","trial_type":"similarity","trial_index":169,"time_elapsed":845100,"internal_node_id":"0.0-6.0-163.0"},{"sim_score":1,"rt":2918,"stimulus":"[\"img/0766/ef3b15ce-abb7-4292-ad93-aec8e8b50520.jpg\",\"img/0862/ba89835a-408c-480b-8594-ed4ffa97eb5c.jpg\"]","trial_type":"similarity","trial_index":170,"time_elapsed":849025,"internal_node_id":"0.0-6.0-164.0"},{"sim_score":5,"rt":3593,"stimulus":"[\"img/0898/a114b375-cb89-44ba-9498-74213f1ecdee.jpg\",\"img/0894/e2446cf5-cd48-486a-badc-76498e087fbe.jpg\"]","trial_type":"similarity","trial_index":171,"time_elapsed":853624,"internal_node_id":"0.0-6.0-165.0"},{"sim_score":1,"rt":3162,"stimulus":"[\"img/0867/7d1c497b-c1b3-4ed8-abb5-d7f73306015f.jpg\",\"img/0766/0025de5e-f620-4079-8a0f-00326ff3a6b0.jpg\"]","trial_type":"similarity","trial_index":172,"time_elapsed":857793,"internal_node_id":"0.0-6.0-166.0"},{"sim_score":3,"rt":3459,"stimulus":"[\"img/0904/da170c1b-9651-4f08-b231-2bdd1d9a046f.jpg\",\"img/0862/92fcd8a4-8193-4a6a-ae09-dd4a6338b0df.jpg\"]","trial_type":"similarity","trial_index":173,"time_elapsed":862259,"internal_node_id":"0.0-6.0-167.0"},{"sim_score":5,"rt":3176,"stimulus":"[\"img/0866/bf14b5bd-fb55-47db-86b9-4f8aeb9a6dad.jpg\",\"img/0874/eba003b4-cdab-4eee-8bc3-f064c7d94165.jpg\"]","trial_type":"similarity","trial_index":174,"time_elapsed":866441,"internal_node_id":"0.0-6.0-168.0"},{"sim_score":3,"rt":3357,"stimulus":"[\"img/0903/005ad0de-4f52-433c-b515-dbe8d46184a3.jpg\",\"img/0868/d98ca254-b195-477f-b57e-5760a2717db8.jpg\"]","trial_type":"similarity","trial_index":175,"time_elapsed":870804,"internal_node_id":"0.0-6.0-169.0"},{"sim_score":6,"rt":3970,"stimulus":"[\"img/0769/180213e5-1e50-4b4e-87b6-add77ba04d39.jpg\",\"img/0904/9d30eff1-46ef-4453-b11e-124ef8145c00.jpg\"]","trial_type":"similarity","trial_index":176,"time_elapsed":875779,"internal_node_id":"0.0-6.0-170.0"},{"sim_score":1,"rt":2911,"stimulus":"[\"img/0875/e7e66b13-b573-431e-b85e-288ce04a35a3.jpg\",\"img/0764/c643e165-df19-459f-8c2b-8357bf432a17.jpg\"]","trial_type":"similarity","trial_index":177,"time_elapsed":879696,"internal_node_id":"0.0-6.0-171.0"},{"sim_score":2,"rt":3294,"stimulus":"[\"img/0860/c3379ff7-0763-48fe-a1ec-7ea3d611bc7a.jpg\",\"img/0903/8931c67c-a43d-47d3-a4c9-42aa2f81d344.jpg\"]","trial_type":"similarity","trial_index":178,"time_elapsed":883997,"internal_node_id":"0.0-6.0-172.0"},{"sim_score":5,"rt":2952,"stimulus":"[\"img/0864/0f537697-a314-47c3-a8cc-8df23b7e536c.jpg\",\"img/0867/bf560d4f-dee3-4f11-a385-705cc1aa5f3c.jpg\"]","trial_type":"similarity","trial_index":179,"time_elapsed":887956,"internal_node_id":"0.0-6.0-173.0"},{"sim_score":5,"rt":3378,"stimulus":"[\"img/0868/83b4350a-3b70-4cea-b7f5-b5b56f3050a8.jpg\",\"img/0864/a248adb3-c70b-4652-b7a3-776d2a1e904b.jpg\"]","trial_type":"similarity","trial_index":180,"time_elapsed":892339,"internal_node_id":"0.0-6.0-174.0"},{"sim_score":6,"rt":4152,"stimulus":"[\"img/0898/40f99fb2-64d2-4e72-8a7f-a1cf60741e69.jpg\",\"img/0769/04347740-f8f6-48bb-887a-f68babd0a0d4.jpg\"]","trial_type":"similarity","trial_index":181,"time_elapsed":897497,"internal_node_id":"0.0-6.0-175.0"},{"sim_score":5,"rt":2909,"stimulus":"[\"img/0766/79767d11-b612-4e8a-9e4b-a8ac95bb6a54.jpg\",\"img/0764/d7c215ab-ea9a-45be-8d5f-417d5b9a8a17.jpg\"]","trial_type":"similarity","trial_index":182,"time_elapsed":901414,"internal_node_id":"0.0-6.0-176.0"},{"sim_score":3,"rt":4192,"stimulus":"[\"img/0764/bc3865c9-9004-4582-88a7-048478673f97.jpg\",\"img/0866/386235d2-6857-41e7-88a8-25cfc3430025.jpg\"]","trial_type":"similarity","trial_index":183,"time_elapsed":906613,"internal_node_id":"0.0-6.0-177.0"},{"sim_score":2,"rt":4272,"stimulus":"[\"img/0902/eb3e7e71-8ff1-4b88-a6a7-47e2c1ce1683.jpg\",\"img/0875/5a7c4e35-6514-4e12-8879-d16071da4cd6.jpg\"]","trial_type":"similarity","trial_index":184,"time_elapsed":911892,"internal_node_id":"0.0-6.0-178.0"},{"sim_score":1,"rt":3093,"stimulus":"[\"img/0881/f037e3b0-09cb-4a83-b2d9-6a71fe474e63.jpg\",\"img/0904/0d25eb24-bb20-4e8d-9787-8b489558b4cb.jpg\"]","trial_type":"similarity","trial_index":185,"time_elapsed":915991,"internal_node_id":"0.0-6.0-179.0"},{"sim_score":5,"rt":2800,"stimulus":"[\"img/0874/7e4f2150-3b59-4a36-b5da-a4e0ba410531.jpg\",\"img/0860/31ff6436-98bf-4652-bed2-40f627229568.jpg\"]","trial_type":"similarity","trial_index":186,"time_elapsed":919798,"internal_node_id":"0.0-6.0-180.0"},{"sim_score":1,"rt":3103,"stimulus":"[\"img/0769/ebef2ddc-ba59-4e0e-97f8-927864eb5081.jpg\",\"img/0874/a82926a3-0b43-4add-803c-d5f9ea7798ee.jpg\"]","trial_type":"similarity","trial_index":187,"time_elapsed":923907,"internal_node_id":"0.0-6.0-181.0"},{"sim_score":5,"rt":3530,"stimulus":"[\"img/0904/e9423a8c-f946-43ad-ab7b-931acef870e2.jpg\",\"img/0766/d512b99c-a2dc-40d7-8e86-827323a0cbcf.jpg\"]","trial_type":"similarity","trial_index":188,"time_elapsed":928444,"internal_node_id":"0.0-6.0-182.0"},{"sim_score":6,"rt":4244,"stimulus":"[\"img/0902/27b84584-948a-485b-8749-cb09929ef631.jpg\",\"img/0764/50f1b062-d608-4bc0-ab25-b872dcf2ed93.jpg\"]","trial_type":"similarity","trial_index":189,"time_elapsed":933693,"internal_node_id":"0.0-6.0-183.0"},{"sim_score":1,"rt":2494,"stimulus":"[\"img/0769/75f7e514-0548-4329-b1e4-93c05e74f038.jpg\",\"img/0875/3ecb367d-e9eb-4826-8aaa-7aa72fb98019.jpg\"]","trial_type":"similarity","trial_index":190,"time_elapsed":937195,"internal_node_id":"0.0-6.0-184.0"},{"sim_score":1,"rt":2778,"stimulus":"[\"img/0867/ac1797e4-8afc-48fe-b252-86d1defb1cca.jpg\",\"img/0903/6a87dbad-9b8d-4ff5-9c41-03c9aa24f0c3.jpg\"]","trial_type":"similarity","trial_index":191,"time_elapsed":940977,"internal_node_id":"0.0-6.0-185.0"},{"sim_score":1,"rt":3350,"stimulus":"[\"img/0862/064818ee-13d5-4618-bb24-21c7368ea278.jpg\",\"img/0769/f2740c58-7c02-433f-920b-746b0b75435b.jpg\"]","trial_type":"similarity","trial_index":192,"time_elapsed":945333,"internal_node_id":"0.0-6.0-186.0"},{"sim_score":1,"rt":3684,"stimulus":"[\"img/0766/1bc0dccc-a5b5-4375-87fa-28360ca42b12.jpg\",\"img/0866/11a1d141-be5e-443c-98c1-a9d4d9e3dec0.jpg\"]","trial_type":"similarity","trial_index":193,"time_elapsed":950022,"internal_node_id":"0.0-6.0-187.0"},{"sim_score":1,"rt":2890,"stimulus":"[\"img/0769/8598a429-c671-4d2f-842c-32f681f5e412.jpg\",\"img/0860/5383b320-1518-4095-a58e-5cc1ae30b64c.jpg\"]","trial_type":"similarity","trial_index":194,"time_elapsed":953918,"internal_node_id":"0.0-6.0-188.0"},{"sim_score":5,"rt":2756,"stimulus":"[\"img/0881/84397291-bc14-4fbf-90e8-241e486ab0fe.jpg\",\"img/0868/09a9ef4d-d000-4cfa-a6aa-ebec7c2edeb4.jpg\"]","trial_type":"similarity","trial_index":195,"time_elapsed":961668,"internal_node_id":"0.0-6.0-189.0"},{"view_history":"[{\"page_index\":0,\"viewing_time\":5173}]","rt":5174,"trial_type":"instructions","trial_index":196,"time_elapsed":967843,"internal_node_id":"0.0-7.0"},{"rt":11164,"responses":"{\"Q0\":\"Nashville Warbler\"}","answer":["Nashville Warbler"],"trial_type":"image-multi-choice","trial_index":197,"time_elapsed":980035,"internal_node_id":"0.0-8.0-0.0"},{"rt":4825,"responses":"{\"Q0\":\"Black-and-white Warbler\"}","answer":["Black-and-white Warbler"],"trial_type":"image-multi-choice","trial_index":198,"time_elapsed":985879,"internal_node_id":"0.0-8.0-1.0"},{"rt":48247,"responses":"{\"Q0\":\"Townsend's Warbler\"}","answer":["Townsend's Warbler"],"trial_type":"image-multi-choice","trial_index":199,"time_elapsed":1035144,"internal_node_id":"0.0-8.0-2.0"},{"rt":4584,"responses":"{\"Q0\":\"Lark Sparrow\"}","answer":["Lark Sparrow"],"trial_type":"image-multi-choice","trial_index":200,"time_elapsed":1040741,"internal_node_id":"0.0-8.0-3.0"},{"rt":3260,"responses":"{\"Q0\":\"Yellow Warbler\"}","answer":["Yellow Warbler"],"trial_type":"image-multi-choice","trial_index":201,"time_elapsed":1045023,"internal_node_id":"0.0-8.0-4.0"},{"rt":11716,"responses":"{\"Q0\":\"Orange-crowned Warbler\"}","answer":["Orange-crowned Warbler"],"trial_type":"image-multi-choice","trial_index":202,"time_elapsed":1057758,"internal_node_id":"0.0-8.0-5.0"},{"rt":4202,"responses":"{\"Q0\":\"White-throated Sparrow\"}","answer":["White-throated Sparrow"],"trial_type":"image-multi-choice","trial_index":203,"time_elapsed":1062985,"internal_node_id":"0.0-8.0-6.0"},{"rt":3835,"responses":"{\"Q0\":\"Fox Sparrow\"}","answer":["Fox Sparrow"],"trial_type":"image-multi-choice","trial_index":204,"time_elapsed":1067841,"internal_node_id":"0.0-8.0-7.0"},{"rt":13207,"responses":"{\"Q0\":\"Vesper Sparrow\"}","answer":["Song Sparrow"],"trial_type":"image-multi-choice","trial_index":205,"time_elapsed":1082065,"internal_node_id":"0.0-8.0-8.0"},{"rt":32134,"responses":"{\"Q0\":\"Blackburnian Warbler\"}","answer":["Blackburnian Warbler"],"trial_type":"image-multi-choice","trial_index":206,"time_elapsed":1115216,"internal_node_id":"0.0-8.0-9.0"},{"rt":8519,"responses":"{\"Q0\":\"Lincoln's Sparrow\"}","answer":["Vesper Sparrow"],"trial_type":"image-multi-choice","trial_index":207,"time_elapsed":1124756,"internal_node_id":"0.0-8.0-10.0"},{"rt":4001,"responses":"{\"Q0\":\"White-crowned Sparrow\"}","answer":["White-crowned Sparrow"],"trial_type":"image-multi-choice","trial_index":208,"time_elapsed":1129769,"internal_node_id":"0.0-8.0-11.0"},{"rt":5384,"responses":"{\"Q0\":\"American Tree Sparrow\"}","answer":["American Tree Sparrow"],"trial_type":"image-multi-choice","trial_index":209,"time_elapsed":1136171,"internal_node_id":"0.0-8.0-12.0"},{"rt":3997,"responses":"{\"Q0\":\"Tennessee Warbler\"}","answer":["Tennessee Warbler"],"trial_type":"image-multi-choice","trial_index":210,"time_elapsed":1141186,"internal_node_id":"0.0-8.0-13.0"},{"rt":8158,"responses":"{\"Q0\":\"Magnolia Warbler\"}","answer":["Magnolia Warbler"],"trial_type":"image-multi-choice","trial_index":211,"time_elapsed":1150363,"internal_node_id":"0.0-8.0-14.0"},{"rt":4969,"responses":"{\"Q0\":\"Northern Waterthrush\"}","answer":["Northern Waterthrush"],"trial_type":"image-multi-choice","trial_index":212,"time_elapsed":1156356,"internal_node_id":"0.0-8.0-15.0"},{"rt":6428,"responses":"{\"Q0\":\"Chipping Sparrow\"}","answer":["Chipping Sparrow"],"trial_type":"image-multi-choice","trial_index":213,"time_elapsed":1163803,"internal_node_id":"0.0-8.0-16.0"},{"rt":9624,"responses":"{\"Q0\":\"Swamp Sparrow\"}","answer":["Swamp Sparrow"],"trial_type":"image-multi-choice","trial_index":214,"time_elapsed":1174445,"internal_node_id":"0.0-8.0-17.0"},{"rt":12418,"responses":"{\"Q0\":\"Lincoln's Sparrow\"}","answer":["Lincoln's Sparrow"],"trial_type":"image-multi-choice","trial_index":215,"time_elapsed":1187881,"internal_node_id":"0.0-8.0-18.0"},{"rt":3374,"responses":"{\"Q0\":\"Ovenbird\"}","answer":["Ovenbird"],"trial_type":"image-multi-choice","trial_index":216,"time_elapsed":1192275,"internal_node_id":"0.0-8.0-19.0"}]