"view_history","rt","trial_type","trial_index","time_elapsed","internal_node_id","sim_score","stimulus","responses","answer"
"[{""page_index"":0,""viewing_time"":20870}]","20871","instructions","0","20872","0.0-0.0","","","",""
"","5562","similarity_demo","1","27445","0.0-1.0","7","[""img/bluejay1.jpg"",""img/bluejay2.jpg""]","",""
"[{""page_index"":0,""viewing_time"":6590}]","6591","instructions","2","35037","0.0-2.0","","","",""
"","5737","similarity_demo","3","41781","0.0-3.0","3","[""img/bluejay1.jpg"",""img/cardinal1.jpg""]","",""
"[{""page_index"":0,""viewing_time"":6032}]","6033","instructions","4","48815","0.0-4.0","","","",""
"[{""page_index"":0,""viewing_time"":19467}]","19468","instructions","5","69284","0.0-5.0","","","",""
"","5591","similarity","6","75887","0.0-6.0-0.0","1","[""img/0868/77091fc7-a590-4ebb-b915-fdb2483a2399.jpg"",""img/0894/1a010553-d598-4b06-a772-81f1e7b3addb.jpg""]","",""
"","4136","similarity","7","81031","0.0-6.0-1.0","1","[""img/0898/ec565187-2e31-4fdd-9a5c-153d0c789ae0.jpg"",""img/0758/67c0be2f-9e91-48b3-8219-70ac0a1802fa.jpg""]","",""
"","4745","similarity","8","86788","0.0-6.0-2.0","5","[""img/0903/b0a3c45f-467e-412f-a183-c9c1827f2e63.jpg"",""img/0894/792c83e9-a747-4000-bc72-5663d2439edb.jpg""]","",""
"","4587","similarity","9","92380","0.0-6.0-3.0","1","[""img/0881/566f45f8-5fed-4479-a60f-26377e60a62d.jpg"",""img/0766/717fd72f-a281-499b-a5ba-5e2ecc4d4866.jpg""]","",""
"","4192","similarity","10","97579","0.0-6.0-4.0","5","[""img/0864/ea327690-500b-4137-bf91-451b309fe6a5.jpg"",""img/0860/4f695df5-afac-4da7-9875-fee39b0b24ad.jpg""]","",""
"","3946","similarity","11","102533","0.0-6.0-5.0","5","[""img/0902/d2c34af0-8c50-437d-8cc3-619195a3e8ba.jpg"",""img/0899/d8f2dd94-570e-4e8c-a087-d96090fb9e8c.jpg""]","",""
"","5206","similarity","12","108746","0.0-6.0-6.0","1","[""img/0868/0d3abd3a-b6c3-4584-a9f7-e2da63748b3d.jpg"",""img/0769/76eaa4a3-dfe9-4dc1-9efb-caebe86264e1.jpg""]","",""
"","3477","similarity","13","113230","0.0-6.0-7.0","5","[""img/0764/5d83b9db-3b2b-4dc8-9bd1-2b515b19c858.jpg"",""img/0901/00acf6c1-b66e-4060-bb04-4caf29b5a8b0.jpg""]","",""
"","4596","similarity","14","118835","0.0-6.0-8.0","5","[""img/0881/e6746727-7f89-47ec-b939-d98abe78372d.jpg"",""img/0866/07c9c966-3c8d-40e7-8128-92b2acbaed5d.jpg""]","",""
"","3659","similarity","15","123503","0.0-6.0-9.0","1","[""img/0867/2e1a0b58-cdb1-4107-a14e-452530d7b9b0.jpg"",""img/0899/57476fed-5962-4272-8fc9-b317bb777b54.jpg""]","",""
"","4040","similarity","16","128549","0.0-6.0-10.0","1","[""img/0875/527ced51-8e53-4aab-ab05-86df219104c0.jpg"",""img/0766/110832e5-2646-4bd0-a94e-5df8cc314269.jpg""]","",""
"","3620","similarity","17","133176","0.0-6.0-11.0","1","[""img/0901/0f670aef-ac36-496d-8142-ee5fdb21dd82.jpg"",""img/0875/03c3c331-738b-4446-af92-3d7386b08c2e.jpg""]","",""
"","3328","similarity","18","137509","0.0-6.0-12.0","1","[""img/0902/7499db23-3a41-41ea-ab5b-6ab4d4c3ed35.jpg"",""img/0860/8a92e21b-6a32-4e4a-a445-2d5a487ed0a4.jpg""]","",""
"","3960","similarity","19","142474","0.0-6.0-13.0","5","[""img/0874/c0378dac-9370-439a-8b79-db27c96fb390.jpg"",""img/0867/f8488a47-94ee-4166-952c-44e16cf172f6.jpg""]","",""
"","3853","similarity","20","147335","0.0-6.0-14.0","1","[""img/0904/96e503ea-6630-4996-85f2-0237688ce441.jpg"",""img/0866/6f2a90d7-14f1-4f1b-bd64-fc0af6b9fe44.jpg""]","",""
"","3621","similarity","21","151963","0.0-6.0-15.0","1","[""img/0758/7ee8bc8f-c40b-4b3a-84ec-3e83580622d4.jpg"",""img/0902/af40b98b-3d23-4d95-b401-49ba5783ce39.jpg""]","",""
"","3613","similarity","22","156583","0.0-6.0-16.0","5","[""img/0867/8ba0c5a7-c7e4-42cf-a80a-543763b90779.jpg"",""img/0898/e167334e-cc1d-4986-b3b1-c7bc7da64baa.jpg""]","",""
"","3233","similarity","23","160822","0.0-6.0-17.0","1","[""img/0904/fe746a3f-8458-48d0-8a13-8cba2a9df9f8.jpg"",""img/0868/3a62db2d-97e9-44a3-b8e3-a48c6f0e423b.jpg""]","",""
"","3906","similarity","24","165735","0.0-6.0-18.0","1","[""img/0766/5d1b8041-c5a1-4b02-b4fe-3453d98a0d72.jpg"",""img/0864/87c467d3-abca-482f-ad80-3766c21b1bb3.jpg""]","",""
"","3082","similarity","25","169823","0.0-6.0-19.0","5","[""img/0899/25ae6ec8-9565-49fe-a8bb-8d0666f52716.jpg"",""img/0766/69e486f7-dbef-456b-9d48-53d814248a28.jpg""]","",""
"","3276","similarity","26","174106","0.0-6.0-20.0","1","[""img/0764/974d52cc-6318-4e7a-b294-2f3e92ff800f.jpg"",""img/0758/20497cbe-ddae-489e-86e2-ab06985ed07c.jpg""]","",""
"","3076","similarity","27","178187","0.0-6.0-21.0","1","[""img/0901/3db47171-0139-4235-82cd-0b1787b6775f.jpg"",""img/0874/ca76a855-4e77-4f2f-872a-0a718153e7ed.jpg""]","",""
"","3343","similarity","28","182537","0.0-6.0-22.0","5","[""img/0875/8521fd58-3b1e-4dc5-97ae-804edfa6734a.jpg"",""img/0758/ddc336e9-a8b6-4bb9-937a-c7e25e0e9250.jpg""]","",""
"","3731","similarity","29","187276","0.0-6.0-23.0","5","[""img/0867/50a1b60e-3a29-44bf-b606-d4bd3746fea9.jpg"",""img/0881/405484ae-0d00-4b05-bc57-6420a36adfac.jpg""]","",""
"","2951","similarity","30","191232","0.0-6.0-24.0","1","[""img/0758/61d64021-9214-4951-bdf8-f871f9827cf9.jpg"",""img/0901/bc47e078-bda4-40ed-b89a-bbd819164b95.jpg""]","",""
"","3763","similarity","31","196002","0.0-6.0-25.0","5","[""img/0868/15dd6fd7-791e-4b53-b203-195d617521a4.jpg"",""img/0875/90da8d75-108a-44ad-b999-e21fee3860d3.jpg""]","",""
"","3927","similarity","32","200934","0.0-6.0-26.0","5","[""img/0903/43ffd882-077a-40dd-a264-e58d519420a1.jpg"",""img/0901/5657dd86-0ff9-4753-ba2b-9dfb223e5c89.jpg""]","",""
"","4407","similarity","33","206347","0.0-6.0-27.0","5","[""img/0894/2d2db7b3-e8a3-499b-b63a-14f51bf73882.jpg"",""img/0899/0adc0bc3-6fca-4078-be6f-d45ddf1653d5.jpg""]","",""
"","8086","similarity","34","215438","0.0-6.0-28.0","4","[""img/0862/7918ca67-5bd3-4606-a5ea-c39fb11a9297.jpg"",""img/0867/5e07b34d-b40f-4b1c-ac10-49975bace45f.jpg""]","",""
"","4344","similarity","35","220787","0.0-6.0-29.0","5","[""img/0864/65210d57-1153-4657-886a-32e758f49b4a.jpg"",""img/0875/2e13d160-eea1-416b-aff1-d37ab99ecc1d.jpg""]","",""
"","3552","similarity","36","225345","0.0-6.0-30.0","5","[""img/0862/ad593cc7-cabe-4bb7-8e14-8a447a0717b4.jpg"",""img/0874/3ce41e7c-40c8-4d58-a546-171114521796.jpg""]","",""
"","3396","similarity","37","229749","0.0-6.0-31.0","1","[""img/0903/5c6b1f57-b3a2-40f5-9fb1-82785e24b6a0.jpg"",""img/0758/b76ceca7-95ac-46e4-ac13-da02c8e93be9.jpg""]","",""
"","3550","similarity","38","234304","0.0-6.0-32.0","1","[""img/0866/be24ab58-230e-4db8-9f45-ff04c9aec6bb.jpg"",""img/0901/5b97abf9-f0c8-4fd1-b921-36d574779078.jpg""]","",""
"","3641","similarity","39","238951","0.0-6.0-33.0","1","[""img/0874/8cdb1c07-1c32-46d2-981c-3636560fa6e5.jpg"",""img/0899/93494f3b-d539-4075-b027-d82e344563da.jpg""]","",""
"","3173","similarity","40","243132","0.0-6.0-34.0","5","[""img/0903/776b74ee-a8ab-4ab8-a78d-097c0747538d.jpg"",""img/0902/d1083f2c-5520-44ec-81a8-3f856fbf0e80.jpg""]","",""
"","3284","similarity","41","247425","0.0-6.0-35.0","5","[""img/0758/d540bee6-b460-4c32-ac57-bc282742d7d4.jpg"",""img/0866/620cd1aa-0800-4414-8f6e-90342e7a99ad.jpg""]","",""
"","3680","similarity","42","252111","0.0-6.0-36.0","2","[""img/0875/34132396-d896-4c2d-8087-646dd867e769.jpg"",""img/0903/12bd8657-92e6-4c36-a06c-597e7a1d51f3.jpg""]","",""
"","4029","similarity","43","266614","0.0-6.0-37.0","2","[""img/0864/c22faebd-9c53-47bc-ada3-b9a30c688e75.jpg"",""img/0902/ca3160ba-ad5d-459f-a1b6-8b4f3c85ecd5.jpg""]","",""
"","3258","similarity","44","270877","0.0-6.0-38.0","2","[""img/0901/62315ff5-ed95-46b4-b099-92552079659b.jpg"",""img/0867/c71dc569-f49c-4397-8381-68b8d726736d.jpg""]","",""
"","2869","similarity","45","274753","0.0-6.0-39.0","1","[""img/0862/cdaed51d-9e2f-4807-801a-4663c40077e2.jpg"",""img/0860/e14d67c1-6d92-4f1e-9257-c8607159c19c.jpg""]","",""
"","3632","similarity","46","279392","0.0-6.0-40.0","7","[""img/0867/98d8cd96-1476-4fe0-a3a3-04f875500a1b.jpg"",""img/0868/d6d1f30d-4323-435a-b194-7892521bc57e.jpg""]","",""
"","3435","similarity","47","283835","0.0-6.0-41.0","5","[""img/0904/b5855d6a-7ef9-46ca-9215-6e9fa046e543.jpg"",""img/0899/b45c550b-96c3-4255-ad59-48a2b4db1c1e.jpg""]","",""
"","3072","similarity","48","287914","0.0-6.0-42.0","1","[""img/0862/57b6f83f-c763-4858-830d-102f97bfefbf.jpg"",""img/0894/151063aa-6472-4745-837b-36603aba5966.jpg""]","",""
"","3409","similarity","49","292328","0.0-6.0-43.0","1","[""img/0875/5a1e5100-0d94-4fec-bbe9-ca9894d2cf8e.jpg"",""img/0904/9dd5708f-3f8b-46a9-b49f-2f2fab87b357.jpg""]","",""
"","6102","similarity","50","299439","0.0-6.0-44.0","2","[""img/0874/29830da7-be5f-44e5-b141-652a0ccf7269.jpg"",""img/0898/81b08535-2020-4c15-9ce4-2f1e460755ae.jpg""]","",""
"","3268","similarity","51","303712","0.0-6.0-45.0","1","[""img/0898/08c72dac-f8ad-407a-9ce6-8c9a5d679c3a.jpg"",""img/0868/5fa7f9d0-f0e5-454c-8224-74d964818f56.jpg""]","",""
"","3216","similarity","52","307934","0.0-6.0-46.0","1","[""img/0901/b9141736-3041-4385-a586-b1fe911c76a5.jpg"",""img/0860/524b2e98-5767-4d53-942c-ebae6925659b.jpg""]","",""
"","3315","similarity","53","312258","0.0-6.0-47.0","5","[""img/0894/c505c65a-cde2-4f2c-8cde-f8676f7c894d.jpg"",""img/0902/94ee9c53-a9a2-4f95-b9b7-794a5fc62bb6.jpg""]","",""
"","3387","similarity","54","316651","0.0-6.0-48.0","1","[""img/0764/6ef77040-1fae-4afa-bfe7-eda98e6d0376.jpg"",""img/0862/24cdc752-c2e5-4a17-86a6-6f2045d8553b.jpg""]","",""
"","3775","similarity","55","321432","0.0-6.0-49.0","7","[""img/0881/4da99fdd-1f40-4bbb-8e21-8833eef313f5.jpg"",""img/0758/e38fd80d-18d0-42f3-b848-f930788e8bd7.jpg""]","",""
"","3521","similarity","56","325960","0.0-6.0-50.0","5","[""img/0766/f3276cc4-65de-4c2d-88d5-6cfebce14b8f.jpg"",""img/0769/1afb527f-9887-428c-bd26-a12c2f9efb68.jpg""]","",""
"","3021","similarity","57","329987","0.0-6.0-51.0","5","[""img/0875/f87b67d7-c33e-40d1-b281-248c4be1cb6e.jpg"",""img/0866/945c6710-d15b-4a5b-a8f6-69af0850357f.jpg""]","",""
"","3806","similarity","58","334798","0.0-6.0-52.0","6","[""img/0894/3adef67d-7676-4995-80b2-bb31b8aca3ef.jpg"",""img/0904/4d7d70a3-9477-4921-bda0-f9531d0a5c5b.jpg""]","",""
"","3182","similarity","59","338988","0.0-6.0-53.0","1","[""img/0758/53f35650-e455-4b53-8be4-c3c8271c6466.jpg"",""img/0769/f6396414-6788-4d59-9683-de153298d89c.jpg""]","",""
"","2728","similarity","60","342723","0.0-6.0-54.0","1","[""img/0902/962f645e-9b55-4628-9b50-c703422bfe1a.jpg"",""img/0874/767f289c-9814-4496-803f-745cc8913d1f.jpg""]","",""
"","2900","similarity","61","346628","0.0-6.0-55.0","1","[""img/0903/8635cf25-2648-4fe9-8c42-79d2598e999c.jpg"",""img/0862/e697469a-ec19-4414-b972-7b9f3564785b.jpg""]","",""
"","3003","similarity","62","350638","0.0-6.0-56.0","1","[""img/0866/d266fece-59b3-46fa-b69f-96f6efb81b59.jpg"",""img/0894/7dd6ff43-f8fc-408a-8a41-a2b261871820.jpg""]","",""
"","4914","similarity","63","356557","0.0-6.0-57.0","3","[""img/0867/f26f6b60-f772-4f4c-95a4-addc62cfd692.jpg"",""img/0904/696ebb60-8891-417a-91fd-c53218907a95.jpg""]","",""
"","3136","similarity","64","360697","0.0-6.0-58.0","5","[""img/0875/ebf7653f-ff45-4e9f-af58-2c042ab3cd2b.jpg"",""img/0881/7e822106-76f7-4b10-a805-14dc68b2cfaf.jpg""]","",""
"","4301","similarity","65","366007","0.0-6.0-59.0","5","[""img/0866/c446214b-a368-4c65-ae39-ea46894256ab.jpg"",""img/0860/29a21a9f-54bb-4093-ad3f-04823ceaa89f.jpg""]","",""
"","3326","similarity","66","370339","0.0-6.0-60.0","2","[""img/0903/14f179a2-8786-48a2-8377-88d1d404341b.jpg"",""img/0866/f756f7d1-9ad8-4a34-9ef6-7a443d705bfe.jpg""]","",""
"","3957","similarity","67","375302","0.0-6.0-61.0","6","[""img/0860/fd4662f9-4c03-4d79-8593-06735e55a64b.jpg"",""img/0875/42910c99-5463-450a-a0f8-d4d060a11455.jpg""]","",""
"","3164","similarity","68","379471","0.0-6.0-62.0","1","[""img/0898/04e39a7a-fcf6-4156-ab0e-f5871f335e1c.jpg"",""img/0862/00c06b00-3b73-44e9-bc1e-c5aafb438321.jpg""]","",""
"","3268","similarity","69","383746","0.0-6.0-63.0","5","[""img/0902/04a6ad4a-afc6-4871-8225-56b299af7b6b.jpg"",""img/0766/908bc45b-7c9e-4f95-806e-86b196ebcb2c.jpg""]","",""
"","4630","similarity","70","389381","0.0-6.0-64.0","5","[""img/0758/eabcd7a8-56ad-4fd2-bc24-90f6b7b33265.jpg"",""img/0864/5f33e097-23e3-4002-882d-76e8cb15f451.jpg""]","",""
"","2867","similarity","71","393255","0.0-6.0-65.0","1","[""img/0894/b422d5c6-3c5a-49ae-a53e-7e88ac993f49.jpg"",""img/0860/9593362c-9fe5-4d12-9735-6000a11f6aa5.jpg""]","",""
"","3204","similarity","72","397466","0.0-6.0-66.0","2","[""img/0899/fd9efb43-701f-4cd6-baaa-4c38315f4bdc.jpg"",""img/0868/4bd5105a-d2c3-4f82-8c80-57196106ba53.jpg""]","",""
"","3569","similarity","73","402044","0.0-6.0-67.0","5","[""img/0866/a04d37f0-99dd-478a-b6c6-58b215138f84.jpg"",""img/0862/847e5208-38ec-4f36-949c-296cdd7424ee.jpg""]","",""
"","3233","similarity","74","406286","0.0-6.0-68.0","6","[""img/0860/8277806e-b684-4474-8f7b-3fca946d7d4f.jpg"",""img/0758/6cd8c362-ae2a-41eb-80a3-3a4f7ace1530.jpg""]","",""
"","2779","similarity","75","410071","0.0-6.0-69.0","1","[""img/0902/07437a16-3d0f-4a5c-89ec-36d0efa4b3b8.jpg"",""img/0867/12264664-1860-46df-8c21-162b9817cdda.jpg""]","",""
"","3192","similarity","76","414268","0.0-6.0-70.0","1","[""img/0862/99a99e39-8355-44ec-b993-e7bcec111e1c.jpg"",""img/0901/c6df1a21-44ed-47c2-960e-7c52220e329e.jpg""]","",""
"","3176","similarity","77","418449","0.0-6.0-71.0","7","[""img/0867/c66898ba-b71b-4d50-84f9-f7f84853a98d.jpg"",""img/0866/d493a2c8-66eb-44b4-be02-2f327b700b7c.jpg""]","",""
"","3014","similarity","78","422470","0.0-6.0-72.0","1","[""img/0860/18dfed73-e36b-4487-a8bd-0b8cff8e3668.jpg"",""img/0904/09dac84f-3d1c-4445-a68e-d0389fdbf1e9.jpg""]","",""
"","2995","similarity","79","426474","0.0-6.0-73.0","1","[""img/0875/d59ff733-eaff-4ee2-9443-06954dd0bcb6.jpg"",""img/0899/4408c14d-c168-4a7d-96f6-bc87bfb58f83.jpg""]","",""
"","2878","similarity","80","430358","0.0-6.0-74.0","1","[""img/0899/9de5e857-aa9a-4e0c-8ba2-46d79bd069a4.jpg"",""img/0758/65d426d6-3ff6-415d-8654-a43b83ecc4fe.jpg""]","",""
"","5314","similarity","81","441506","0.0-6.0-75.0","3","[""img/0862/e0f1a4e9-e1b6-45f7-af67-89f334e6630d.jpg"",""img/0875/cff79b3a-a797-4393-9757-6275f999ec04.jpg""]","",""
"","3696","similarity","82","446207","0.0-6.0-76.0","5","[""img/0901/a9b9c0a0-8aed-4888-a78a-65fb7e764d13.jpg"",""img/0894/8cadb87a-7001-4e47-99fb-1867bebf1668.jpg""]","",""
"","2952","similarity","83","450164","0.0-6.0-77.0","1","[""img/0766/aaec5f42-7f0a-4a16-aeca-488d757acbcc.jpg"",""img/0758/f61ecdf8-a7d4-4db0-b84d-be46f7cfaffc.jpg""]","",""
"","3714","similarity","84","454884","0.0-6.0-78.0","5","[""img/0894/76c1201f-8524-4865-85e6-dda8cb4ac986.jpg"",""img/0764/f64dfa83-333d-494c-87b5-73e942f1766e.jpg""]","",""
"","2933","similarity","85","458822","0.0-6.0-79.0","5","[""img/0860/99c589b9-9140-4d17-90c0-b344323edcda.jpg"",""img/0867/de92135f-5b65-4ed9-b245-188292c7c2f8.jpg""]","",""
"","4689","similarity","86","464518","0.0-6.0-80.0","6","[""img/0898/8605a25b-6895-476d-8c13-df7a83f96093.jpg"",""img/0901/a6776381-91fe-43f8-ab73-261d318f95fd.jpg""]","",""
"","3207","similarity","87","468730","0.0-6.0-81.0","1","[""img/0874/995f0332-0439-4eb4-add3-957335dbf6d9.jpg"",""img/0764/e0788029-9d7f-414c-b747-46d2a99f7c86.jpg""]","",""
"","4323","similarity","88","474059","0.0-6.0-82.0","1","[""img/0899/565ccdd9-0933-4536-a625-3c0e25a713dd.jpg"",""img/0862/f23038d4-c366-4f70-979f-66b62362efa4.jpg""]","",""
"","4151","similarity","89","479216","0.0-6.0-83.0","6","[""img/0766/006035d8-c736-4daf-bbe4-a9e373af9da6.jpg"",""img/0901/d61f267a-c492-4db6-9bfb-61efd49cf072.jpg""]","",""
"","4682","similarity","90","484902","0.0-6.0-84.0","6","[""img/0881/633c6f40-56d9-4b48-bf1c-ecd83116eabb.jpg"",""img/0898/68476bbb-34a1-42d9-8bc1-deab783d4489.jpg""]","",""
"","4539","similarity","91","490447","0.0-6.0-85.0","6","[""img/0868/7b212364-ff5f-4e28-9241-7eb6ea00161b.jpg"",""img/0860/e8b8c51e-1834-4875-8b61-6c5bc9b178bd.jpg""]","",""
"","3480","similarity","92","494931","0.0-6.0-86.0","5","[""img/0758/e1ba5e53-addc-436a-b428-d34fc1b130dc.jpg"",""img/0868/6a28c3b0-3d76-498a-9fb7-ddafc665eca8.jpg""]","",""
"","3591","similarity","93","499529","0.0-6.0-87.0","2","[""img/0864/c3b63e8f-ea39-4d70-a1f2-b3fe4be8eb75.jpg"",""img/0894/86201968-6e78-4d68-9b3a-d1692e066210.jpg""]","",""
"","3112","similarity","94","503650","0.0-6.0-88.0","1","[""img/0866/0207e9a2-7dbb-40b5-9459-b472aaeceb2a.jpg"",""img/0902/511abb54-0094-4f4d-b6dc-3f2c97050521.jpg""]","",""
"","3195","similarity","95","507851","0.0-6.0-89.0","1","[""img/0769/47700831-0ca2-4fdd-a498-a3bc5a528f43.jpg"",""img/0867/075e0f95-856b-4cbb-acf5-092393aaf04e.jpg""]","",""
"","3766","similarity","96","512622","0.0-6.0-90.0","5","[""img/0874/ca23d307-fc00-4d7d-9106-584c6eb21b4d.jpg"",""img/0875/fb732ab5-013a-4366-9f65-27811ed157e9.jpg""]","",""
"","3399","similarity","97","517026","0.0-6.0-91.0","6","[""img/0864/3651d070-2fc5-4848-b6a6-088a2d9ac5c9.jpg"",""img/0874/a3bc679d-619f-4db6-bb68-116dcb757d9c.jpg""]","",""
"","3451","similarity","98","521482","0.0-6.0-92.0","6","[""img/0881/20af39f5-373d-4a55-a437-2dc4c0382c46.jpg"",""img/0862/e8cc3bdf-cc43-4565-bccf-492626c70953.jpg""]","",""
"","3234","similarity","99","525725","0.0-6.0-93.0","6","[""img/0864/5f74a653-3bdc-4308-8cca-ac667dc22e1f.jpg"",""img/0881/445edb15-bd7f-4af3-8bd5-c6ad9677bb31.jpg""]","",""
"","4029","similarity","100","530760","0.0-6.0-94.0","5","[""img/0899/06b0fc99-0581-461a-9913-d1a5a941ac61.jpg"",""img/0901/71e551a2-9ce2-409c-9c7c-dd556a0791e9.jpg""]","",""
"","3277","similarity","101","535043","0.0-6.0-95.0","1","[""img/0874/99f6563c-8a8d-4c1c-a41d-667b618c3fd5.jpg"",""img/0766/09f646c8-a69e-4ed3-879c-8d29b04ad7f9.jpg""]","",""
"","3388","similarity","102","539438","0.0-6.0-96.0","3","[""img/0881/d373cb9f-a719-4549-a2a4-82def79fb2a5.jpg"",""img/0899/0433d056-aa30-4f8a-9aa1-abbb951e4edd.jpg""]","",""
"","4466","similarity","103","544909","0.0-6.0-97.0","5","[""img/0862/d0ca4c78-fc35-46ed-bdcc-8e124283c53e.jpg"",""img/0902/3b243e54-0803-4c29-af42-4037c2118495.jpg""]","",""
"","4143","similarity","104","550056","0.0-6.0-98.0","6","[""img/0899/ddf96ade-692e-4602-bd22-dedbb46401bc.jpg"",""img/0764/c01e2d65-6586-441b-bef5-3c96fcd85380.jpg""]","",""
"","4907","similarity","105","555968","0.0-6.0-99.0","5","[""img/0758/2fa3e613-e676-4e6e-bd12-705327eeb3e1.jpg"",""img/0862/f188d4f0-76a4-4102-818c-a209969d73a5.jpg""]","",""
"","3898","similarity","106","560872","0.0-6.0-100.0","6","[""img/0764/d7f3ac54-318a-4dac-a06b-62bed34d01a4.jpg"",""img/0898/cd3aaa3f-efa9-4ab3-8d6f-a6a9273ddf42.jpg""]","",""
"","3794","similarity","107","565673","0.0-6.0-101.0","6","[""img/0901/04a53755-6da5-44d4-a7a6-48a6bc0a2280.jpg"",""img/0902/2db723b6-130f-454c-8c8d-88829edbcd65.jpg""]","",""
"","3293","similarity","108","569976","0.0-6.0-102.0","1","[""img/0764/0e7ed062-f798-4366-8a24-6f430926f919.jpg"",""img/0868/c8ac40c7-6904-4e13-8d61-c75d3052dc4e.jpg""]","",""
"","3156","similarity","109","574138","0.0-6.0-103.0","1","[""img/0769/bb8c4e53-6f32-4814-97ee-392d4decfb2e.jpg"",""img/0881/1407b85b-a1c6-45b1-9884-3b24203efadb.jpg""]","",""
"","3286","similarity","110","578430","0.0-6.0-104.0","3","[""img/0864/f92649a2-0590-4d31-9a7a-1bfb81666a2d.jpg"",""img/0769/3c1efec9-f8fd-487d-8955-4be88e48c832.jpg""]","",""
"","3267","similarity","111","582703","0.0-6.0-105.0","5","[""img/0866/a15b02be-11bb-43e3-b0e0-ecc3bd7dfc49.jpg"",""img/0868/4e626425-63c8-484a-8a1d-e66ee4e0bef8.jpg""]","",""
"","2988","similarity","112","586700","0.0-6.0-106.0","5","[""img/0868/179a5502-ab5c-478e-8263-5a1fbcc101d2.jpg"",""img/0862/eefa5588-9efd-4591-aa5f-a2e17c7d7bcc.jpg""]","",""
"","3625","similarity","113","591330","0.0-6.0-107.0","6","[""img/0766/d50d734f-285c-4840-bc7a-c8dd4aff391e.jpg"",""img/0898/6cd3830b-d44e-4915-be2b-88d31424b91c.jpg""]","",""
"","2969","similarity","114","595306","0.0-6.0-108.0","1","[""img/0898/f3a3f225-1248-4ac7-b93b-f0ff28485bf3.jpg"",""img/0864/300bb811-8b3c-4c42-8653-6097c3725197.jpg""]","",""
"","3144","similarity","115","599455","0.0-6.0-109.0","1","[""img/0868/293079b8-7e0c-4afd-a390-1e5d35fe3ded.jpg"",""img/0902/4e0baa32-988e-46f6-989d-f669225ab645.jpg""]","",""
"","4223","similarity","116","604683","0.0-6.0-110.0","6","[""img/0904/2fd488e9-960f-41f7-8a44-33375f7d5051.jpg"",""img/0764/7f4ee8e3-9315-4a57-be7d-db8454b33766.jpg""]","",""
"","3135","similarity","117","608824","0.0-6.0-111.0","1","[""img/0894/1b3888e6-cf36-4c4a-a039-187aa5cb71ac.jpg"",""img/0875/dbdd643e-6d0e-4a5c-ab57-b9c29b9c981a.jpg""]","",""
"","2816","similarity","118","612649","0.0-6.0-112.0","5","[""img/0868/fd307a36-9a3a-47d7-ab7c-f810d0b35040.jpg"",""img/0874/bf14b896-e930-4fd9-9c05-2e83317a2773.jpg""]","",""
"","2817","similarity","119","619887","0.0-6.0-113.0","5","[""img/0904/65e2b70a-b184-4da3-b5c0-5038bdf9469a.jpg"",""img/0898/881e2a85-d5c2-49be-a0c6-8a6ce2c4af08.jpg""]","",""
"","2961","similarity","120","623855","0.0-6.0-114.0","1","[""img/0860/8fdba999-b946-4c7d-9891-336018b563ef.jpg"",""img/0766/db750ba0-ce04-46e1-b601-e1b80212bad2.jpg""]","",""
"","3201","similarity","121","628067","0.0-6.0-115.0","2","[""img/0894/10f22b96-040c-44f4-950b-a4963f3f506c.jpg"",""img/0874/1016b306-087c-4afc-aa08-fa527b28dc76.jpg""]","",""
"","5491","similarity","122","634567","0.0-6.0-116.0","5","[""img/0899/8abe6c69-822c-436c-9bf2-96c818b49ba5.jpg"",""img/0903/72197c2b-403e-4a26-b391-f1aa8dea4b76.jpg""]","",""
"","3333","similarity","123","638908","0.0-6.0-117.0","2","[""img/0881/c24f3051-eefa-42de-aba6-fccb56d93c70.jpg"",""img/0764/fb7d4a20-a475-465e-a74f-aa39a0d33d16.jpg""]","",""
"","3204","similarity","124","643118","0.0-6.0-118.0","5","[""img/0903/8f7f9939-b8e6-433f-93dd-b362496c80a7.jpg"",""img/0769/96556ef3-7fac-4c9d-8281-1cb0ea5081bc.jpg""]","",""
"","3204","similarity","125","647327","0.0-6.0-119.0","5","[""img/0901/d4d09bf5-093e-4050-838e-7c738be8e63c.jpg"",""img/0904/2c98dc56-88d1-4fb5-a999-b6a7861f65f0.jpg""]","",""
"","3155","similarity","126","651488","0.0-6.0-120.0","1","[""img/0860/4c530c3c-6aab-492a-94d1-9c01797bde40.jpg"",""img/0881/667e2147-d457-4f32-aa5f-6ab86e5848f1.jpg""]","",""
"","3965","similarity","127","656458","0.0-6.0-121.0","3","[""img/0758/6e95579b-5166-487c-b8cb-e417c6a218e3.jpg"",""img/0874/adf9a8f1-c40b-402b-b95b-1e85a54a7b62.jpg""]","",""
"","3663","similarity","128","661126","0.0-6.0-122.0","6","[""img/0901/4ca4f962-40c0-4c59-b14a-3cd7b8c9029b.jpg"",""img/0769/878531fd-e0e8-4ad1-b9ad-f018bb104ca0.jpg""]","",""
"","3713","similarity","129","665846","0.0-6.0-123.0","6","[""img/0902/6730b12a-f0a7-4587-8c10-a32fae16565b.jpg"",""img/0904/1d10df11-b5c8-4370-9a6b-097a7f965895.jpg""]","",""
"","3873","similarity","130","670727","0.0-6.0-124.0","3","[""img/0899/7b7380d5-d2be-44e5-a09a-c1756f87ef71.jpg"",""img/0864/1d15626a-2f7c-410f-819c-0fa2c967e95e.jpg""]","",""
"","3271","similarity","131","675007","0.0-6.0-125.0","2","[""img/0766/fd74fdbb-ea40-4f3a-a091-38d08dfd636e.jpg"",""img/0868/8b0b8473-e2c0-4331-aa56-c3a5c29369da.jpg""]","",""
"","3361","similarity","132","679382","0.0-6.0-126.0","1","[""img/0764/ef0e64c6-d0dd-4dc6-87b6-ce5c0665f421.jpg"",""img/0864/9b2490c5-a282-400a-9736-e1a0ecbf1cb7.jpg""]","",""
"","3346","similarity","133","683734","0.0-6.0-127.0","1","[""img/0899/7f9d45d0-b2c6-40d3-aa41-c207db2c411b.jpg"",""img/0866/4a87911a-d5be-4d4e-ab8e-3d1f581bf507.jpg""]","",""
"","2859","similarity","134","687598","0.0-6.0-128.0","2","[""img/0901/effc03f6-8f9d-46db-a66c-16fc83891c5c.jpg"",""img/0881/b549bc99-a61c-4450-bab5-9efc3a197bf0.jpg""]","",""
"","3550","similarity","135","692156","0.0-6.0-129.0","6","[""img/0898/b2732712-71c2-45d8-834f-2b2ed5504910.jpg"",""img/0903/36e4ab1f-caa9-40b3-8616-faada076df94.jpg""]","",""
"","3263","similarity","136","696425","0.0-6.0-130.0","1","[""img/0894/a98416c0-51e2-4960-85da-d81d8688b9d5.jpg"",""img/0867/aa05d113-fc19-4756-a8eb-7878f580bc92.jpg""]","",""
"","3053","similarity","137","700484","0.0-6.0-131.0","1","[""img/0874/85eb9b8a-c4c6-4e5a-b8e7-363a87a82054.jpg"",""img/0903/b7e3723f-fd03-4f3d-8820-f19496463a34.jpg""]","",""
"","3549","similarity","138","705039","0.0-6.0-132.0","6","[""img/0899/00715b3f-851b-420b-a26b-d7f79f7759a9.jpg"",""img/0898/79233891-305a-4a6a-8ddf-5c8604858203.jpg""]","",""
"","3013","similarity","139","709060","0.0-6.0-133.0","1","[""img/0867/cc72ed48-7704-422c-86d6-467a1145287a.jpg"",""img/0764/b8e23f4f-ff19-4472-ad9b-2f85548ebca0.jpg""]","",""
"","3059","similarity","140","713126","0.0-6.0-134.0","1","[""img/0866/23a224f3-2012-4fc8-8e0f-3c36f8de27fd.jpg"",""img/0769/022c7e3b-c3f2-4119-b4bc-f22fa7cae18c.jpg""]","",""
"","3261","similarity","141","717396","0.0-6.0-135.0","2","[""img/0860/5bff793e-cbd5-4d7e-b628-0ac2b0e30b64.jpg"",""img/0898/a8f16b02-e19f-423b-86c3-a36562ae1f9b.jpg""]","",""
"","3337","similarity","142","721738","0.0-6.0-136.0","2","[""img/0881/344de456-b358-4887-bd0e-e4c3278af887.jpg"",""img/0903/39365c8e-a733-4801-ac7d-b87e38c3784b.jpg""]","",""
"","4536","similarity","143","727282","0.0-6.0-137.0","6","[""img/0894/e5edf723-72a5-4673-8441-6c1734a8929b.jpg"",""img/0766/a0270213-fa0e-4972-8b56-228c3e01ff90.jpg""]","",""
"","2871","similarity","144","731158","0.0-6.0-138.0","1","[""img/0860/94ef7afc-e0e6-4a15-98c6-0bfac82bc832.jpg"",""img/0764/4eff630a-6426-4f8d-b2ba-b4d9842a0962.jpg""]","",""
"","3470","similarity","145","735634","0.0-6.0-139.0","6","[""img/0769/5bd04f55-d091-4f57-85db-38426f26bd1a.jpg"",""img/0902/b76efc44-a50f-4dac-b997-ff0222376067.jpg""]","",""
"","4170","similarity","146","740809","0.0-6.0-140.0","6","[""img/0904/5cceabc9-de1d-4c67-989b-c28a4ef77e79.jpg"",""img/0903/150cf64c-0bd2-4674-abbb-a1387cf1f3e9.jpg""]","",""
"","3093","similarity","147","744908","0.0-6.0-141.0","5","[""img/0764/bd2eaa3e-95a9-4a59-a78e-3f81c766eea9.jpg"",""img/0769/38a88f69-28fd-4bbd-99f0-f4c02bfd3995.jpg""]","",""
"","3103","similarity","148","749018","0.0-6.0-142.0","1","[""img/0902/44cd9b7e-fdfb-4f78-90de-8d4c9d279365.jpg"",""img/0881/f6bd3b96-dc40-4e99-8681-bc3a35cf896d.jpg""]","",""
"","2871","similarity","149","752893","0.0-6.0-143.0","5","[""img/0866/02f5e6b9-52b7-448c-9708-5b460d0c9a23.jpg"",""img/0864/afcba0a3-7e27-4757-b254-e9f05fad27e2.jpg""]","",""
"","3937","similarity","150","757836","0.0-6.0-144.0","7","[""img/0902/7f1dcd35-237a-4995-9e42-7f63f3f434d4.jpg"",""img/0898/01bfe666-3510-4fc7-964f-d00d28732dc8.jpg""]","",""
"","3245","similarity","151","762088","0.0-6.0-145.0","5","[""img/0862/f43ceabf-acc1-4107-b857-5d1849808f93.jpg"",""img/0864/b3c4e378-28f0-4699-9338-2a257b4bca04.jpg""]","",""
"","2951","similarity","152","766045","0.0-6.0-146.0","1","[""img/0875/2c361b79-c3d1-4eda-812e-bf03192407bf.jpg"",""img/0898/82231d4c-218b-4d0a-b50d-35a49b524e97.jpg""]","",""
"","4537","similarity","153","771587","0.0-6.0-147.0","6","[""img/0874/31e22c7c-99aa-40b1-bf03-dd73fa2df4d6.jpg"",""img/0881/db77fe00-aeb0-4d1d-aa66-f3a96fd077e4.jpg""]","",""
"","3866","similarity","154","776459","0.0-6.0-148.0","2","[""img/0758/caa93da2-9edf-49fa-96b9-32dedd8f5078.jpg"",""img/0894/38f5931f-926d-414e-b498-66b188978b7a.jpg""]","",""
"","3030","similarity","155","780497","0.0-6.0-149.0","1","[""img/0904/09934646-45d2-4147-8fec-64a22a5ac822.jpg"",""img/0864/0116ca98-293d-4fa6-a93b-5a6144ef64cc.jpg""]","",""
"","3490","similarity","156","784994","0.0-6.0-150.0","6","[""img/0769/14d393ce-e5be-4ca1-86ce-cc27d4b6074c.jpg"",""img/0899/d60714ae-98d7-4564-8c98-94dba1351135.jpg""]","",""
"","3642","similarity","157","792540","0.0-6.0-151.0","6","[""img/0764/6fbd1902-fa2a-48d8-bc11-705b8ab68d8f.jpg"",""img/0903/5995f4a8-fa82-46f8-8760-fd7800a5ca34.jpg""]","",""
"","2968","similarity","158","796518","0.0-6.0-152.0","1","[""img/0903/c3cb4a01-2797-43ca-b216-88c67b323fbb.jpg"",""img/0864/e02eddb5-f468-499c-91bf-f7be3ffe979b.jpg""]","",""
"","3653","similarity","159","801180","0.0-6.0-153.0","1","[""img/0894/492d2f29-d7b9-4422-8be8-47fd58bfaa8b.jpg"",""img/0881/f4e3e181-b3c9-4af2-a5a4-fc135ab70d2e.jpg""]","",""
"","3223","similarity","160","805411","0.0-6.0-154.0","5","[""img/0875/a4935837-7d3c-4df6-88c1-36a94d4991ca.jpg"",""img/0867/85a96c62-548f-4994-9553-819e03c3135a.jpg""]","",""
"","2759","similarity","161","809175","0.0-6.0-155.0","5","[""img/0867/a498eef3-9fa4-4ab2-9778-4ae82ac40dc5.jpg"",""img/0758/a709631e-3705-4725-ac40-f0d916924f08.jpg""]","",""
"","4111","similarity","162","814292","0.0-6.0-156.0","2","[""img/0868/e0aff734-077f-40dd-9781-74821abd3621.jpg"",""img/0901/deff6cfb-0072-4490-bc3e-206bbcd3e8bf.jpg""]","",""
"","3583","similarity","163","818880","0.0-6.0-157.0","7","[""img/0769/91acb237-65a3-4d0b-9748-af5c7b83d3c7.jpg"",""img/0894/9b1333fd-3561-43bf-aee5-99b7b7ca3dc3.jpg""]","",""
"","3865","similarity","164","823752","0.0-6.0-158.0","1","[""img/0904/ba8e689e-9ca6-4608-a2a1-3b0940666ae6.jpg"",""img/0758/dd559618-7f09-4a07-8018-d311c4a5ea29.jpg""]","",""
"","3373","similarity","165","828130","0.0-6.0-159.0","2","[""img/0874/2c9464dd-8a23-4baa-ac94-1ba3af5c15cc.jpg"",""img/0904/06dacdc5-2206-4fb8-92b7-88042d22833c.jpg""]","",""
"","4261","similarity","166","833397","0.0-6.0-160.0","1","[""img/0864/e336a4c5-6648-4fd7-b2f6-93a3fb83f8c6.jpg"",""img/0901/fb0a8e69-7f19-4e6e-a6bb-a48f97f9b4f3.jpg""]","",""
"","2618","similarity","167","837020","0.0-6.0-161.0","1","[""img/0898/0af304a2-6a7a-4082-ab7c-4450cd08cc58.jpg"",""img/0866/9b38d691-1802-4959-ab3f-fc902f0e4ea6.jpg""]","",""
"","3378","similarity","168","841403","0.0-6.0-162.0","6","[""img/0766/d14acac4-7db1-4b07-8f8f-302437326fc0.jpg"",""img/0903/b548d383-2a95-4575-8c13-647873751ff1.jpg""]","",""
"","2690","similarity","169","845100","0.0-6.0-163.0","1","[""img/0860/d9a0d117-6d1d-41c0-8fec-9aff0fd9e9f2.jpg"",""img/0899/a05bea16-2bb4-4cb9-b8fb-4ff975db6971.jpg""]","",""
"","2918","similarity","170","849025","0.0-6.0-164.0","1","[""img/0766/ef3b15ce-abb7-4292-ad93-aec8e8b50520.jpg"",""img/0862/ba89835a-408c-480b-8594-ed4ffa97eb5c.jpg""]","",""
"","3593","similarity","171","853624","0.0-6.0-165.0","5","[""img/0898/a114b375-cb89-44ba-9498-74213f1ecdee.jpg"",""img/0894/e2446cf5-cd48-486a-badc-76498e087fbe.jpg""]","",""
"","3162","similarity","172","857793","0.0-6.0-166.0","1","[""img/0867/7d1c497b-c1b3-4ed8-abb5-d7f73306015f.jpg"",""img/0766/0025de5e-f620-4079-8a0f-00326ff3a6b0.jpg""]","",""
"","3459","similarity","173","862259","0.0-6.0-167.0","3","[""img/0904/da170c1b-9651-4f08-b231-2bdd1d9a046f.jpg"",""img/0862/92fcd8a4-8193-4a6a-ae09-dd4a6338b0df.jpg""]","",""
"","3176","similarity","174","866441","0.0-6.0-168.0","5","[""img/0866/bf14b5bd-fb55-47db-86b9-4f8aeb9a6dad.jpg"",""img/0874/eba003b4-cdab-4eee-8bc3-f064c7d94165.jpg""]","",""
"","3357","similarity","175","870804","0.0-6.0-169.0","3","[""img/0903/005ad0de-4f52-433c-b515-dbe8d46184a3.jpg"",""img/0868/d98ca254-b195-477f-b57e-5760a2717db8.jpg""]","",""
"","3970","similarity","176","875779","0.0-6.0-170.0","6","[""img/0769/180213e5-1e50-4b4e-87b6-add77ba04d39.jpg"",""img/0904/9d30eff1-46ef-4453-b11e-124ef8145c00.jpg""]","",""
"","2911","similarity","177","879696","0.0-6.0-171.0","1","[""img/0875/e7e66b13-b573-431e-b85e-288ce04a35a3.jpg"",""img/0764/c643e165-df19-459f-8c2b-8357bf432a17.jpg""]","",""
"","3294","similarity","178","883997","0.0-6.0-172.0","2","[""img/0860/c3379ff7-0763-48fe-a1ec-7ea3d611bc7a.jpg"",""img/0903/8931c67c-a43d-47d3-a4c9-42aa2f81d344.jpg""]","",""
"","2952","similarity","179","887956","0.0-6.0-173.0","5","[""img/0864/0f537697-a314-47c3-a8cc-8df23b7e536c.jpg"",""img/0867/bf560d4f-dee3-4f11-a385-705cc1aa5f3c.jpg""]","",""
"","3378","similarity","180","892339","0.0-6.0-174.0","5","[""img/0868/83b4350a-3b70-4cea-b7f5-b5b56f3050a8.jpg"",""img/0864/a248adb3-c70b-4652-b7a3-776d2a1e904b.jpg""]","",""
"","4152","similarity","181","897497","0.0-6.0-175.0","6","[""img/0898/40f99fb2-64d2-4e72-8a7f-a1cf60741e69.jpg"",""img/0769/04347740-f8f6-48bb-887a-f68babd0a0d4.jpg""]","",""
"","2909","similarity","182","901414","0.0-6.0-176.0","5","[""img/0766/79767d11-b612-4e8a-9e4b-a8ac95bb6a54.jpg"",""img/0764/d7c215ab-ea9a-45be-8d5f-417d5b9a8a17.jpg""]","",""
"","4192","similarity","183","906613","0.0-6.0-177.0","3","[""img/0764/bc3865c9-9004-4582-88a7-048478673f97.jpg"",""img/0866/386235d2-6857-41e7-88a8-25cfc3430025.jpg""]","",""
"","4272","similarity","184","911892","0.0-6.0-178.0","2","[""img/0902/eb3e7e71-8ff1-4b88-a6a7-47e2c1ce1683.jpg"",""img/0875/5a7c4e35-6514-4e12-8879-d16071da4cd6.jpg""]","",""
"","3093","similarity","185","915991","0.0-6.0-179.0","1","[""img/0881/f037e3b0-09cb-4a83-b2d9-6a71fe474e63.jpg"",""img/0904/0d25eb24-bb20-4e8d-9787-8b489558b4cb.jpg""]","",""
"","2800","similarity","186","919798","0.0-6.0-180.0","5","[""img/0874/7e4f2150-3b59-4a36-b5da-a4e0ba410531.jpg"",""img/0860/31ff6436-98bf-4652-bed2-40f627229568.jpg""]","",""
"","3103","similarity","187","923907","0.0-6.0-181.0","1","[""img/0769/ebef2ddc-ba59-4e0e-97f8-927864eb5081.jpg"",""img/0874/a82926a3-0b43-4add-803c-d5f9ea7798ee.jpg""]","",""
"","3530","similarity","188","928444","0.0-6.0-182.0","5","[""img/0904/e9423a8c-f946-43ad-ab7b-931acef870e2.jpg"",""img/0766/d512b99c-a2dc-40d7-8e86-827323a0cbcf.jpg""]","",""
"","4244","similarity","189","933693","0.0-6.0-183.0","6","[""img/0902/27b84584-948a-485b-8749-cb09929ef631.jpg"",""img/0764/50f1b062-d608-4bc0-ab25-b872dcf2ed93.jpg""]","",""
"","2494","similarity","190","937195","0.0-6.0-184.0","1","[""img/0769/75f7e514-0548-4329-b1e4-93c05e74f038.jpg"",""img/0875/3ecb367d-e9eb-4826-8aaa-7aa72fb98019.jpg""]","",""
"","2778","similarity","191","940977","0.0-6.0-185.0","1","[""img/0867/ac1797e4-8afc-48fe-b252-86d1defb1cca.jpg"",""img/0903/6a87dbad-9b8d-4ff5-9c41-03c9aa24f0c3.jpg""]","",""
"","3350","similarity","192","945333","0.0-6.0-186.0","1","[""img/0862/064818ee-13d5-4618-bb24-21c7368ea278.jpg"",""img/0769/f2740c58-7c02-433f-920b-746b0b75435b.jpg""]","",""
"","3684","similarity","193","950022","0.0-6.0-187.0","1","[""img/0766/1bc0dccc-a5b5-4375-87fa-28360ca42b12.jpg"",""img/0866/11a1d141-be5e-443c-98c1-a9d4d9e3dec0.jpg""]","",""
"","2890","similarity","194","953918","0.0-6.0-188.0","1","[""img/0769/8598a429-c671-4d2f-842c-32f681f5e412.jpg"",""img/0860/5383b320-1518-4095-a58e-5cc1ae30b64c.jpg""]","",""
"","2756","similarity","195","961668","0.0-6.0-189.0","5","[""img/0881/84397291-bc14-4fbf-90e8-241e486ab0fe.jpg"",""img/0868/09a9ef4d-d000-4cfa-a6aa-ebec7c2edeb4.jpg""]","",""
"[{""page_index"":0,""viewing_time"":5173}]","5174","instructions","196","967843","0.0-7.0","","","",""
"","11164","image-multi-choice","197","980035","0.0-8.0-0.0","","","{""Q0"":""Nashville Warbler""}","Nashville Warbler"
"","4825","image-multi-choice","198","985879","0.0-8.0-1.0","","","{""Q0"":""Black-and-white Warbler""}","Black-and-white Warbler"
"","48247","image-multi-choice","199","1035144","0.0-8.0-2.0","","","{""Q0"":""Townsend's Warbler""}","Townsend's Warbler"
"","4584","image-multi-choice","200","1040741","0.0-8.0-3.0","","","{""Q0"":""Lark Sparrow""}","Lark Sparrow"
"","3260","image-multi-choice","201","1045023","0.0-8.0-4.0","","","{""Q0"":""Yellow Warbler""}","Yellow Warbler"
"","11716","image-multi-choice","202","1057758","0.0-8.0-5.0","","","{""Q0"":""Orange-crowned Warbler""}","Orange-crowned Warbler"
"","4202","image-multi-choice","203","1062985","0.0-8.0-6.0","","","{""Q0"":""White-throated Sparrow""}","White-throated Sparrow"
"","3835","image-multi-choice","204","1067841","0.0-8.0-7.0","","","{""Q0"":""Fox Sparrow""}","Fox Sparrow"
"","13207","image-multi-choice","205","1082065","0.0-8.0-8.0","","","{""Q0"":""Vesper Sparrow""}","Song Sparrow"
"","32134","image-multi-choice","206","1115216","0.0-8.0-9.0","","","{""Q0"":""Blackburnian Warbler""}","Blackburnian Warbler"
"","8519","image-multi-choice","207","1124756","0.0-8.0-10.0","","","{""Q0"":""Lincoln's Sparrow""}","Vesper Sparrow"
"","4001","image-multi-choice","208","1129769","0.0-8.0-11.0","","","{""Q0"":""White-crowned Sparrow""}","White-crowned Sparrow"
"","5384","image-multi-choice","209","1136171","0.0-8.0-12.0","","","{""Q0"":""American Tree Sparrow""}","American Tree Sparrow"
"","3997","image-multi-choice","210","1141186","0.0-8.0-13.0","","","{""Q0"":""Tennessee Warbler""}","Tennessee Warbler"
"","8158","image-multi-choice","211","1150363","0.0-8.0-14.0","","","{""Q0"":""Magnolia Warbler""}","Magnolia Warbler"
"","4969","image-multi-choice","212","1156356","0.0-8.0-15.0","","","{""Q0"":""Northern Waterthrush""}","Northern Waterthrush"
"","6428","image-multi-choice","213","1163803","0.0-8.0-16.0","","","{""Q0"":""Chipping Sparrow""}","Chipping Sparrow"
"","9624","image-multi-choice","214","1174445","0.0-8.0-17.0","","","{""Q0"":""Swamp Sparrow""}","Swamp Sparrow"
"","12418","image-multi-choice","215","1187881","0.0-8.0-18.0","","","{""Q0"":""Lincoln's Sparrow""}","Lincoln's Sparrow"
"","3374","image-multi-choice","216","1192275","0.0-8.0-19.0","","","{""Q0"":""Ovenbird""}","Ovenbird"
