[{"view_history":"[{\"page_index\":0,\"viewing_time\":18308}]","rt":18309,"trial_type":"instructions","trial_index":0,"time_elapsed":18309,"internal_node_id":"0.0-0.0"},{"sim_score":7,"rt":4306,"stimulus":"[\"img/bluejay1.jpg\",\"img/bluejay2.jpg\"]","trial_type":"similarity_demo","trial_index":1,"time_elapsed":23619,"internal_node_id":"0.0-1.0"},{"view_history":"[{\"page_index\":0,\"viewing_time\":9148}]","rt":9149,"trial_type":"instructions","trial_index":2,"time_elapsed":33768,"internal_node_id":"0.0-2.0"},{"sim_score":5,"rt":5686,"stimulus":"[\"img/bluejay1.jpg\",\"img/cardinal1.jpg\"]","trial_type":"similarity_demo","trial_index":3,"time_elapsed":40457,"internal_node_id":"0.0-3.0"},{"view_history":"[{\"page_index\":0,\"viewing_time\":4438}]","rt":4439,"trial_type":"instructions","trial_index":4,"time_elapsed":45896,"internal_node_id":"0.0-4.0"},{"view_history":"[{\"page_index\":0,\"viewing_time\":18248}]","rt":18248,"trial_type":"instructions","trial_index":5,"time_elapsed":65144,"internal_node_id":"0.0-5.0"},{"sim_score":3,"rt":4139,"stimulus":"[\"img/0868/d6d1f30d-4323-435a-b194-7892521bc57e.jpg\",\"img/0894/38cf335f-f76f-4349-8d65-e20cd6859565.jpg\"]","trial_type":"similarity","trial_index":6,"time_elapsed":70290,"internal_node_id":"0.0-6.0-0.0"},{"sim_score":3,"rt":4458,"stimulus":"[\"img/0898/224c1572-56b9-4f16-a9e4-6f3bc9c114bd.jpg\",\"img/0758/a709631e-3705-4725-ac40-f0d916924f08.jpg\"]","trial_type":"similarity","trial_index":7,"time_elapsed":75753,"internal_node_id":"0.0-6.0-1.0"},{"sim_score":4,"rt":3737,"stimulus":"[\"img/0903/9b60ef5b-234f-4239-892b-3d4c412accc2.jpg\",\"img/0894/e2446cf5-cd48-486a-badc-76498e087fbe.jpg\"]","trial_type":"similarity","trial_index":8,"time_elapsed":80495,"internal_node_id":"0.0-6.0-2.0"},{"sim_score":3,"rt":3879,"stimulus":"[\"img/0881/ed4c971f-0873-4fc8-b6d6-e8bbd82f0bcc.jpg\",\"img/0766/ae0fce93-fe8d-4aa1-87ca-4c3e4b889f2f.jpg\"]","trial_type":"similarity","trial_index":9,"time_elapsed":85381,"internal_node_id":"0.0-6.0-3.0"},{"sim_score":1,"rt":4046,"stimulus":"[\"img/0864/5f33e097-23e3-4002-882d-76e8cb15f451.jpg\",\"img/0860/5bff793e-cbd5-4d7e-b628-0ac2b0e30b64.jpg\"]","trial_type":"similarity","trial_index":10,"time_elapsed":90430,"internal_node_id":"0.0-6.0-4.0"},{"sim_score":4,"rt":4492,"stimulus":"[\"img/0902/511abb54-0094-4f4d-b6dc-3f2c97050521.jpg\",\"img/0899/57476fed-5962-4272-8fc9-b317bb777b54.jpg\"]","trial_type":"similarity","trial_index":11,"time_elapsed":95926,"internal_node_id":"0.0-6.0-5.0"},{"sim_score":2,"rt":7700,"stimulus":"[\"img/0868/83b4350a-3b70-4cea-b7f5-b5b56f3050a8.jpg\",\"img/0769/bb8c4e53-6f32-4814-97ee-392d4decfb2e.jpg\"]","trial_type":"similarity","trial_index":12,"time_elapsed":104630,"internal_node_id":"0.0-6.0-6.0"},{"sim_score":3,"rt":4397,"stimulus":"[\"img/0764/958b8576-3a3b-4acc-96dc-06b74de69f37.jpg\",\"img/0901/effc03f6-8f9d-46db-a66c-16fc83891c5c.jpg\"]","trial_type":"similarity","trial_index":13,"time_elapsed":110030,"internal_node_id":"0.0-6.0-7.0"},{"sim_score":3,"rt":3636,"stimulus":"[\"img/0881/14236cf2-6b95-48b8-9368-78af09d2d27f.jpg\",\"img/0866/11a1d141-be5e-443c-98c1-a9d4d9e3dec0.jpg\"]","trial_type":"similarity","trial_index":14,"time_elapsed":114670,"internal_node_id":"0.0-6.0-8.0"},{"sim_score":2,"rt":3581,"stimulus":"[\"img/0867/a498eef3-9fa4-4ab2-9778-4ae82ac40dc5.jpg\",\"img/0899/a048912c-b12c-40e3-90af-46b69b0cc4fe.jpg\"]","trial_type":"similarity","trial_index":15,"time_elapsed":119254,"internal_node_id":"0.0-6.0-9.0"},{"sim_score":3,"rt":3790,"stimulus":"[\"img/0875/03c3c331-738b-4446-af92-3d7386b08c2e.jpg\",\"img/0766/e8052e17-9dae-4139-802b-6e590cb2d526.jpg\"]","trial_type":"similarity","trial_index":16,"time_elapsed":124046,"internal_node_id":"0.0-6.0-10.0"},{"sim_score":1,"rt":3685,"stimulus":"[\"img/0901/a0d65c84-3f20-476a-92d1-0c01e8019cf4.jpg\",\"img/0875/42910c99-5463-450a-a0f8-d4d060a11455.jpg\"]","trial_type":"similarity","trial_index":17,"time_elapsed":128734,"internal_node_id":"0.0-6.0-11.0"},{"sim_score":5,"rt":3604,"stimulus":"[\"img/0902/b76efc44-a50f-4dac-b997-ff0222376067.jpg\",\"img/0860/e14d67c1-6d92-4f1e-9257-c8607159c19c.jpg\"]","trial_type":"similarity","trial_index":18,"time_elapsed":133342,"internal_node_id":"0.0-6.0-12.0"},{"sim_score":1,"rt":3245,"stimulus":"[\"img/0874/a82926a3-0b43-4add-803c-d5f9ea7798ee.jpg\",\"img/0867/2e1a0b58-cdb1-4107-a14e-452530d7b9b0.jpg\"]","trial_type":"similarity","trial_index":19,"time_elapsed":137589,"internal_node_id":"0.0-6.0-13.0"},{"sim_score":5,"rt":4785,"stimulus":"[\"img/0904/0d17b811-063e-416e-a23c-3b3cfa4fcce5.jpg\",\"img/0866/02f5e6b9-52b7-448c-9708-5b460d0c9a23.jpg\"]","trial_type":"similarity","trial_index":20,"time_elapsed":143378,"internal_node_id":"0.0-6.0-14.0"},{"sim_score":3,"rt":4493,"stimulus":"[\"img/0758/ddc336e9-a8b6-4bb9-937a-c7e25e0e9250.jpg\",\"img/0902/7f1dcd35-237a-4995-9e42-7f63f3f434d4.jpg\"]","trial_type":"similarity","trial_index":21,"time_elapsed":148874,"internal_node_id":"0.0-6.0-15.0"},{"sim_score":3,"rt":3900,"stimulus":"[\"img/0867/aa05d113-fc19-4756-a8eb-7878f580bc92.jpg\",\"img/0898/68476bbb-34a1-42d9-8bc1-deab783d4489.jpg\"]","trial_type":"similarity","trial_index":22,"time_elapsed":153778,"internal_node_id":"0.0-6.0-16.0"},{"sim_score":4,"rt":4006,"stimulus":"[\"img/0904/60d1a521-edf7-4696-9263-f21ac0e62a01.jpg\",\"img/0868/4bd5105a-d2c3-4f82-8c80-57196106ba53.jpg\"]","trial_type":"similarity","trial_index":23,"time_elapsed":158786,"internal_node_id":"0.0-6.0-17.0"},{"sim_score":5,"rt":4165,"stimulus":"[\"img/0766/a1ed3f0f-e338-4a26-8fe4-4370f0c9fa6e.jpg\",\"img/0864/b3c4e378-28f0-4699-9338-2a257b4bca04.jpg\"]","trial_type":"similarity","trial_index":24,"time_elapsed":163954,"internal_node_id":"0.0-6.0-18.0"},{"sim_score":6,"rt":5309,"stimulus":"[\"img/0899/ddf96ade-692e-4602-bd22-dedbb46401bc.jpg\",\"img/0766/f011ef45-fb48-44b8-8224-867ed2ccf786.jpg\"]","trial_type":"similarity","trial_index":25,"time_elapsed":170267,"internal_node_id":"0.0-6.0-19.0"},{"sim_score":5,"rt":3276,"stimulus":"[\"img/0764/1f95ab5f-fb65-4d70-b5db-d6bd6351a8aa.jpg\",\"img/0758/53f35650-e455-4b53-8be4-c3c8271c6466.jpg\"]","trial_type":"similarity","trial_index":26,"time_elapsed":174545,"internal_node_id":"0.0-6.0-20.0"},{"sim_score":2,"rt":3271,"stimulus":"[\"img/0901/2a953e50-d237-405c-a38d-5ed21494c968.jpg\",\"img/0874/a3bc679d-619f-4db6-bb68-116dcb757d9c.jpg\"]","trial_type":"similarity","trial_index":27,"time_elapsed":178818,"internal_node_id":"0.0-6.0-21.0"},{"sim_score":2,"rt":4094,"stimulus":"[\"img/0875/5a716432-c6ca-4b1c-955a-2b8ac25198ee.jpg\",\"img/0758/caa93da2-9edf-49fa-96b9-32dedd8f5078.jpg\"]","trial_type":"similarity","trial_index":28,"time_elapsed":183914,"internal_node_id":"0.0-6.0-22.0"},{"sim_score":2,"rt":2749,"stimulus":"[\"img/0867/50a1b60e-3a29-44bf-b606-d4bd3746fea9.jpg\",\"img/0881/f4e3e181-b3c9-4af2-a5a4-fc135ab70d2e.jpg\"]","trial_type":"similarity","trial_index":29,"time_elapsed":187665,"internal_node_id":"0.0-6.0-23.0"},{"sim_score":5,"rt":6295,"stimulus":"[\"img/0758/335851a0-a55b-46d8-ab05-8463eda48349.jpg\",\"img/0901/31c032fd-3c3d-4882-a226-da9a80198937.jpg\"]","trial_type":"similarity","trial_index":30,"time_elapsed":194962,"internal_node_id":"0.0-6.0-24.0"},{"sim_score":4,"rt":4204,"stimulus":"[\"img/0868/293079b8-7e0c-4afd-a390-1e5d35fe3ded.jpg\",\"img/0875/8521fd58-3b1e-4dc5-97ae-804edfa6734a.jpg\"]","trial_type":"similarity","trial_index":31,"time_elapsed":200170,"internal_node_id":"0.0-6.0-25.0"},{"sim_score":6,"rt":3938,"stimulus":"[\"img/0903/72197c2b-403e-4a26-b391-f1aa8dea4b76.jpg\",\"img/0901/4f9cffe0-c0be-4d7f-bacd-9d51efd19b4a.jpg\"]","trial_type":"similarity","trial_index":32,"time_elapsed":205112,"internal_node_id":"0.0-6.0-26.0"},{"sim_score":6,"rt":3819,"stimulus":"[\"img/0894/43216a7f-27bc-4b5a-8841-d122a30da9d9.jpg\",\"img/0899/fd9efb43-701f-4cd6-baaa-4c38315f4bdc.jpg\"]","trial_type":"similarity","trial_index":33,"time_elapsed":209934,"internal_node_id":"0.0-6.0-27.0"},{"sim_score":3,"rt":5637,"stimulus":"[\"img/0862/7918ca67-5bd3-4606-a5ea-c39fb11a9297.jpg\",\"img/0867/8ba0c5a7-c7e4-42cf-a80a-543763b90779.jpg\"]","trial_type":"similarity","trial_index":34,"time_elapsed":216575,"internal_node_id":"0.0-6.0-28.0"},{"sim_score":4,"rt":4085,"stimulus":"[\"img/0864/8ddd2e30-a1d0-479f-9cbe-591213023893.jpg\",\"img/0875/2c361b79-c3d1-4eda-812e-bf03192407bf.jpg\"]","trial_type":"similarity","trial_index":35,"time_elapsed":221663,"internal_node_id":"0.0-6.0-29.0"},{"sim_score":6,"rt":3773,"stimulus":"[\"img/0862/5d887e9f-89e2-4ebc-80a0-6d46fe6480db.jpg\",\"img/0874/c0378dac-9370-439a-8b79-db27c96fb390.jpg\"]","trial_type":"similarity","trial_index":36,"time_elapsed":226438,"internal_node_id":"0.0-6.0-30.0"},{"sim_score":4,"rt":2662,"stimulus":"[\"img/0903/81368973-de81-46f4-844f-b901f3bfd66d.jpg\",\"img/0758/61d64021-9214-4951-bdf8-f871f9827cf9.jpg\"]","trial_type":"similarity","trial_index":37,"time_elapsed":230103,"internal_node_id":"0.0-6.0-31.0"},{"sim_score":1,"rt":3733,"stimulus":"[\"img/0866/23a224f3-2012-4fc8-8e0f-3c36f8de27fd.jpg\",\"img/0901/1ede21d9-384f-4150-86b5-e1c57b5dc1d4.jpg\"]","trial_type":"similarity","trial_index":38,"time_elapsed":234839,"internal_node_id":"0.0-6.0-32.0"},{"sim_score":4,"rt":3509,"stimulus":"[\"img/0874/767f289c-9814-4496-803f-745cc8913d1f.jpg\",\"img/0899/fef567a2-c121-4481-9af0-ff108d199bbf.jpg\"]","trial_type":"similarity","trial_index":39,"time_elapsed":239351,"internal_node_id":"0.0-6.0-33.0"},{"sim_score":6,"rt":3717,"stimulus":"[\"img/0903/31b5a5f4-b695-4af1-bad2-a19650a05498.jpg\",\"img/0902/1a120fb9-dbd6-443e-ba91-b4aceab963da.jpg\"]","trial_type":"similarity","trial_index":40,"time_elapsed":244070,"internal_node_id":"0.0-6.0-34.0"},{"sim_score":4,"rt":2967,"stimulus":"[\"img/0758/67c0be2f-9e91-48b3-8219-70ac0a1802fa.jpg\",\"img/0866/d493a2c8-66eb-44b4-be02-2f327b700b7c.jpg\"]","trial_type":"similarity","trial_index":41,"time_elapsed":248039,"internal_node_id":"0.0-6.0-35.0"},{"sim_score":4,"rt":3493,"stimulus":"[\"img/0875/ebf7653f-ff45-4e9f-af58-2c042ab3cd2b.jpg\",\"img/0903/8fcafe03-43df-4c45-9da5-0df3a1eeccc5.jpg\"]","trial_type":"similarity","trial_index":42,"time_elapsed":252535,"internal_node_id":"0.0-6.0-36.0"},{"sim_score":5,"rt":4429,"stimulus":"[\"img/0864/afcba0a3-7e27-4757-b254-e9f05fad27e2.jpg\",\"img/0902/c018bd7a-d91a-4192-aea4-7259cfcdb6c4.jpg\"]","trial_type":"similarity","trial_index":43,"time_elapsed":265986,"internal_node_id":"0.0-6.0-37.0"},{"sim_score":4,"rt":3725,"stimulus":"[\"img/0901/168eb52c-c415-43f1-b5c8-e76e1a1ec247.jpg\",\"img/0867/bf560d4f-dee3-4f11-a385-705cc1aa5f3c.jpg\"]","trial_type":"similarity","trial_index":44,"time_elapsed":270717,"internal_node_id":"0.0-6.0-38.0"},{"sim_score":5,"rt":3219,"stimulus":"[\"img/0862/a0a3a7ba-7798-46a3-b4ca-05e1f6e581d0.jpg\",\"img/0860/8a92e21b-6a32-4e4a-a445-2d5a487ed0a4.jpg\"]","trial_type":"similarity","trial_index":45,"time_elapsed":274939,"internal_node_id":"0.0-6.0-39.0"},{"sim_score":6,"rt":3580,"stimulus":"[\"img/0867/5e07b34d-b40f-4b1c-ac10-49975bace45f.jpg\",\"img/0868/d98ca254-b195-477f-b57e-5760a2717db8.jpg\"]","trial_type":"similarity","trial_index":46,"time_elapsed":279522,"internal_node_id":"0.0-6.0-40.0"},{"sim_score":6,"rt":4444,"stimulus":"[\"img/0904/4d7d70a3-9477-4921-bda0-f9531d0a5c5b.jpg\",\"img/0899/1b3457ea-87d4-4946-a01c-aac1863ed46c.jpg\"]","trial_type":"similarity","trial_index":47,"time_elapsed":284971,"internal_node_id":"0.0-6.0-41.0"},{"sim_score":4,"rt":3020,"stimulus":"[\"img/0862/92fcd8a4-8193-4a6a-ae09-dd4a6338b0df.jpg\",\"img/0894/e5edf723-72a5-4673-8441-6c1734a8929b.jpg\"]","trial_type":"similarity","trial_index":48,"time_elapsed":288995,"internal_node_id":"0.0-6.0-42.0"},{"sim_score":4,"rt":2749,"stimulus":"[\"img/0875/d59ff733-eaff-4ee2-9443-06954dd0bcb6.jpg\",\"img/0904/25365108-e038-4021-aac9-797f2063b337.jpg\"]","trial_type":"similarity","trial_index":49,"time_elapsed":292747,"internal_node_id":"0.0-6.0-43.0"},{"sim_score":3,"rt":4606,"stimulus":"[\"img/0874/ca76a855-4e77-4f2f-872a-0a718153e7ed.jpg\",\"img/0898/4184e5a2-84ea-4f36-9b42-ae58646f6f87.jpg\"]","trial_type":"similarity","trial_index":50,"time_elapsed":298355,"internal_node_id":"0.0-6.0-44.0"},{"sim_score":2,"rt":3742,"stimulus":"[\"img/0898/79233891-305a-4a6a-8ddf-5c8604858203.jpg\",\"img/0868/0d3abd3a-b6c3-4584-a9f7-e2da63748b3d.jpg\"]","trial_type":"similarity","trial_index":51,"time_elapsed":303099,"internal_node_id":"0.0-6.0-45.0"},{"sim_score":5,"rt":5788,"stimulus":"[\"img/0901/4ca4f962-40c0-4c59-b14a-3cd7b8c9029b.jpg\",\"img/0860/d9a0d117-6d1d-41c0-8fec-9aff0fd9e9f2.jpg\"]","trial_type":"similarity","trial_index":52,"time_elapsed":309890,"internal_node_id":"0.0-6.0-46.0"},{"sim_score":5,"rt":4078,"stimulus":"[\"img/0894/05161000-f476-499b-a878-c13c7f347fd9.jpg\",\"img/0902/6c2c243a-f663-45db-baf5-038d3d58c589.jpg\"]","trial_type":"similarity","trial_index":53,"time_elapsed":314970,"internal_node_id":"0.0-6.0-47.0"},{"sim_score":4,"rt":4365,"stimulus":"[\"img/0764/d0bef2e0-e16b-4c82-9451-c1d16265eb67.jpg\",\"img/0862/f43ceabf-acc1-4107-b857-5d1849808f93.jpg\"]","trial_type":"similarity","trial_index":54,"time_elapsed":320339,"internal_node_id":"0.0-6.0-48.0"},{"sim_score":6,"rt":4133,"stimulus":"[\"img/0881/adc02f34-ce97-4aef-850f-00519df06fd7.jpg\",\"img/0758/e1ba5e53-addc-436a-b428-d34fc1b130dc.jpg\"]","trial_type":"similarity","trial_index":55,"time_elapsed":325474,"internal_node_id":"0.0-6.0-49.0"},{"sim_score":5,"rt":4157,"stimulus":"[\"img/0766/d5d38751-8fa5-476f-93e9-86ed2d9045ef.jpg\",\"img/0769/f73c5138-2f4c-4354-981c-129dff9cc734.jpg\"]","trial_type":"similarity","trial_index":56,"time_elapsed":330631,"internal_node_id":"0.0-6.0-50.0"},{"sim_score":5,"rt":3694,"stimulus":"[\"img/0875/5a1e5100-0d94-4fec-bbe9-ca9894d2cf8e.jpg\",\"img/0866/d266fece-59b3-46fa-b69f-96f6efb81b59.jpg\"]","trial_type":"similarity","trial_index":57,"time_elapsed":335328,"internal_node_id":"0.0-6.0-51.0"},{"sim_score":6,"rt":3733,"stimulus":"[\"img/0894/a98416c0-51e2-4960-85da-d81d8688b9d5.jpg\",\"img/0904/0d25eb24-bb20-4e8d-9787-8b489558b4cb.jpg\"]","trial_type":"similarity","trial_index":58,"time_elapsed":340064,"internal_node_id":"0.0-6.0-52.0"},{"sim_score":3,"rt":3869,"stimulus":"[\"img/0758/d57c2592-a317-4f63-91be-91a3a9afd222.jpg\",\"img/0769/c7cfacc3-7f07-46ff-9f5d-8073f4c4679b.jpg\"]","trial_type":"similarity","trial_index":59,"time_elapsed":344936,"internal_node_id":"0.0-6.0-53.0"},{"sim_score":5,"rt":3405,"stimulus":"[\"img/0902/f3cfec34-482c-4bdb-9c92-19ea6cfce183.jpg\",\"img/0874/adf9a8f1-c40b-402b-b95b-1e85a54a7b62.jpg\"]","trial_type":"similarity","trial_index":60,"time_elapsed":349344,"internal_node_id":"0.0-6.0-54.0"},{"sim_score":5,"rt":3238,"stimulus":"[\"img/0903/b7e3723f-fd03-4f3d-8820-f19496463a34.jpg\",\"img/0862/064818ee-13d5-4618-bb24-21c7368ea278.jpg\"]","trial_type":"similarity","trial_index":61,"time_elapsed":353584,"internal_node_id":"0.0-6.0-55.0"},{"sim_score":4,"rt":3077,"stimulus":"[\"img/0866/8efcaa46-83ab-4dee-a35f-850402aa21ae.jpg\",\"img/0894/2d2db7b3-e8a3-499b-b63a-14f51bf73882.jpg\"]","trial_type":"similarity","trial_index":62,"time_elapsed":357664,"internal_node_id":"0.0-6.0-56.0"},{"sim_score":3,"rt":4885,"stimulus":"[\"img/0867/f8159067-056c-41f1-a136-c529fe5e970a.jpg\",\"img/0904/2fd488e9-960f-41f7-8a44-33375f7d5051.jpg\"]","trial_type":"similarity","trial_index":63,"time_elapsed":363552,"internal_node_id":"0.0-6.0-57.0"},{"sim_score":5,"rt":5078,"stimulus":"[\"img/0875/527ced51-8e53-4aab-ab05-86df219104c0.jpg\",\"img/0881/d373cb9f-a719-4549-a2a4-82def79fb2a5.jpg\"]","trial_type":"similarity","trial_index":64,"time_elapsed":369632,"internal_node_id":"0.0-6.0-58.0"},{"sim_score":2,"rt":3338,"stimulus":"[\"img/0866/386235d2-6857-41e7-88a8-25cfc3430025.jpg\",\"img/0860/4a022222-056d-461c-ab02-39fac9647552.jpg\"]","trial_type":"similarity","trial_index":65,"time_elapsed":373976,"internal_node_id":"0.0-6.0-59.0"},{"sim_score":2,"rt":3068,"stimulus":"[\"img/0903/a0673b55-6040-47fe-9040-24bca27ca3c9.jpg\",\"img/0866/c446214b-a368-4c65-ae39-ea46894256ab.jpg\"]","trial_type":"similarity","trial_index":66,"time_elapsed":378048,"internal_node_id":"0.0-6.0-60.0"},{"sim_score":5,"rt":3421,"stimulus":"[\"img/0860/29a21a9f-54bb-4093-ad3f-04823ceaa89f.jpg\",\"img/0875/dbdd643e-6d0e-4a5c-ab57-b9c29b9c981a.jpg\"]","trial_type":"similarity","trial_index":67,"time_elapsed":382471,"internal_node_id":"0.0-6.0-61.0"},{"sim_score":5,"rt":3331,"stimulus":"[\"img/0898/08c72dac-f8ad-407a-9ce6-8c9a5d679c3a.jpg\",\"img/0862/ee3b7bff-4a70-4e84-9bea-4a565e456acb.jpg\"]","trial_type":"similarity","trial_index":68,"time_elapsed":386804,"internal_node_id":"0.0-6.0-62.0"},{"sim_score":4,"rt":4173,"stimulus":"[\"img/0902/d3e55000-c839-4bf9-9b9b-4af0a9925af1.jpg\",\"img/0766/ef3b15ce-abb7-4292-ad93-aec8e8b50520.jpg\"]","trial_type":"similarity","trial_index":69,"time_elapsed":391980,"internal_node_id":"0.0-6.0-63.0"},{"sim_score":5,"rt":2956,"stimulus":"[\"img/0758/20497cbe-ddae-489e-86e2-ab06985ed07c.jpg\",\"img/0864/c22faebd-9c53-47bc-ada3-b9a30c688e75.jpg\"]","trial_type":"similarity","trial_index":70,"time_elapsed":395940,"internal_node_id":"0.0-6.0-64.0"},{"sim_score":3,"rt":4477,"stimulus":"[\"img/0894/2217bdcd-23a7-42d3-823b-23f2488d7e87.jpg\",\"img/0860/e8b8c51e-1834-4875-8b61-6c5bc9b178bd.jpg\"]","trial_type":"similarity","trial_index":71,"time_elapsed":401420,"internal_node_id":"0.0-6.0-65.0"},{"sim_score":3,"rt":4756,"stimulus":"[\"img/0899/25ae6ec8-9565-49fe-a8bb-8d0666f52716.jpg\",\"img/0868/7b212364-ff5f-4e28-9241-7eb6ea00161b.jpg\"]","trial_type":"similarity","trial_index":72,"time_elapsed":407180,"internal_node_id":"0.0-6.0-66.0"},{"sim_score":3,"rt":3317,"stimulus":"[\"img/0866/4a87911a-d5be-4d4e-ab8e-3d1f581bf507.jpg\",\"img/0862/fb26cb07-d5a9-4653-813c-f41609f26cd5.jpg\"]","trial_type":"similarity","trial_index":73,"time_elapsed":411500,"internal_node_id":"0.0-6.0-67.0"},{"sim_score":5,"rt":2741,"stimulus":"[\"img/0860/94ef7afc-e0e6-4a15-98c6-0bfac82bc832.jpg\",\"img/0758/3ddd05d3-557e-4ee7-8b78-9d2d681d8ae2.jpg\"]","trial_type":"similarity","trial_index":74,"time_elapsed":415244,"internal_node_id":"0.0-6.0-68.0"},{"sim_score":2,"rt":2973,"stimulus":"[\"img/0902/3b243e54-0803-4c29-af42-4037c2118495.jpg\",\"img/0867/a749dddb-69f0-44a6-acdc-2bf295cf6dcc.jpg\"]","trial_type":"similarity","trial_index":75,"time_elapsed":419219,"internal_node_id":"0.0-6.0-69.0"},{"sim_score":3,"rt":3702,"stimulus":"[\"img/0862/d0ca4c78-fc35-46ed-bdcc-8e124283c53e.jpg\",\"img/0901/b453df0b-4c39-49bb-8ced-6127efffa898.jpg\"]","trial_type":"similarity","trial_index":76,"time_elapsed":423924,"internal_node_id":"0.0-6.0-70.0"},{"sim_score":5,"rt":4445,"stimulus":"[\"img/0867/26611f4e-d694-4460-b7e2-43c62753ddc3.jpg\",\"img/0866/f756f7d1-9ad8-4a34-9ef6-7a443d705bfe.jpg\"]","trial_type":"similarity","trial_index":77,"time_elapsed":429372,"internal_node_id":"0.0-6.0-71.0"},{"sim_score":5,"rt":5157,"stimulus":"[\"img/0860/8fdba999-b946-4c7d-9891-336018b563ef.jpg\",\"img/0904/b5855d6a-7ef9-46ca-9215-6e9fa046e543.jpg\"]","trial_type":"similarity","trial_index":78,"time_elapsed":435531,"internal_node_id":"0.0-6.0-72.0"},{"sim_score":3,"rt":3343,"stimulus":"[\"img/0875/f87b67d7-c33e-40d1-b281-248c4be1cb6e.jpg\",\"img/0899/4408c14d-c168-4a7d-96f6-bc87bfb58f83.jpg\"]","trial_type":"similarity","trial_index":79,"time_elapsed":439876,"internal_node_id":"0.0-6.0-73.0"},{"sim_score":3,"rt":3325,"stimulus":"[\"img/0899/565ccdd9-0933-4536-a625-3c0e25a713dd.jpg\",\"img/0758/eabcd7a8-56ad-4fd2-bc24-90f6b7b33265.jpg\"]","trial_type":"similarity","trial_index":80,"time_elapsed":444204,"internal_node_id":"0.0-6.0-74.0"},{"sim_score":5,"rt":3290,"stimulus":"[\"img/0862/ad593cc7-cabe-4bb7-8e14-8a447a0717b4.jpg\",\"img/0875/3ecb367d-e9eb-4826-8aaa-7aa72fb98019.jpg\"]","trial_type":"similarity","trial_index":81,"time_elapsed":451208,"internal_node_id":"0.0-6.0-75.0"},{"sim_score":2,"rt":6119,"stimulus":"[\"img/0901/d61f267a-c492-4db6-9bfb-61efd49cf072.jpg\",\"img/0894/11674fa4-285d-44e2-939f-2228c6a64080.jpg\"]","trial_type":"similarity","trial_index":82,"time_elapsed":458329,"internal_node_id":"0.0-6.0-76.0"},{"sim_score":4,"rt":2773,"stimulus":"[\"img/0766/535849cc-ff5d-4df9-8f31-0ce94a97d571.jpg\",\"img/0758/6e95579b-5166-487c-b8cb-e417c6a218e3.jpg\"]","trial_type":"similarity","trial_index":83,"time_elapsed":462105,"internal_node_id":"0.0-6.0-77.0"},{"sim_score":5,"rt":3565,"stimulus":"[\"img/0894/76c1201f-8524-4865-85e6-dda8cb4ac986.jpg\",\"img/0764/03c07b98-3f18-4b71-bb70-ecff564a78d1.jpg\"]","trial_type":"similarity","trial_index":84,"time_elapsed":466673,"internal_node_id":"0.0-6.0-78.0"},{"sim_score":4,"rt":4909,"stimulus":"[\"img/0860/71e1aad0-2cdf-43bb-94a4-a8c016997c30.jpg\",\"img/0867/7d1c497b-c1b3-4ed8-abb5-d7f73306015f.jpg\"]","trial_type":"similarity","trial_index":85,"time_elapsed":472584,"internal_node_id":"0.0-6.0-79.0"},{"sim_score":5,"rt":3063,"stimulus":"[\"img/0898/a8f16b02-e19f-423b-86c3-a36562ae1f9b.jpg\",\"img/0901/77087ed2-6e12-4329-b2a5-605bca6d972d.jpg\"]","trial_type":"similarity","trial_index":86,"time_elapsed":476649,"internal_node_id":"0.0-6.0-80.0"},{"sim_score":4,"rt":4389,"stimulus":"[\"img/0874/1016b306-087c-4afc-aa08-fa527b28dc76.jpg\",\"img/0764/e0788029-9d7f-414c-b747-46d2a99f7c86.jpg\"]","trial_type":"similarity","trial_index":87,"time_elapsed":482041,"internal_node_id":"0.0-6.0-81.0"},{"sim_score":4,"rt":6725,"stimulus":"[\"img/0899/d60714ae-98d7-4564-8c98-94dba1351135.jpg\",\"img/0862/53a9cf7c-93c4-41b9-952f-07d17f7a17b2.jpg\"]","trial_type":"similarity","trial_index":88,"time_elapsed":489772,"internal_node_id":"0.0-6.0-82.0"},{"sim_score":3,"rt":2769,"stimulus":"[\"img/0766/2da002a4-05c9-4f5c-9ed7-433b4183e273.jpg\",\"img/0901/12da1841-e611-435c-9719-109413d536a8.jpg\"]","trial_type":"similarity","trial_index":89,"time_elapsed":493545,"internal_node_id":"0.0-6.0-83.0"},{"sim_score":5,"rt":5540,"stimulus":"[\"img/0881/d1982897-8d8d-4704-a940-1ee5d07a1f15.jpg\",\"img/0898/cd3aaa3f-efa9-4ab3-8d6f-a6a9273ddf42.jpg\"]","trial_type":"similarity","trial_index":90,"time_elapsed":500089,"internal_node_id":"0.0-6.0-84.0"},{"sim_score":3,"rt":4245,"stimulus":"[\"img/0868/e0aff734-077f-40dd-9781-74821abd3621.jpg\",\"img/0860/15b24a61-25be-4356-9eac-5ce95d0cb4a4.jpg\"]","trial_type":"similarity","trial_index":91,"time_elapsed":505336,"internal_node_id":"0.0-6.0-85.0"},{"sim_score":2,"rt":3907,"stimulus":"[\"img/0758/a085b443-b5d7-4cb2-9ad4-b9dab0fc23f1.jpg\",\"img/0868/4e626425-63c8-484a-8a1d-e66ee4e0bef8.jpg\"]","trial_type":"similarity","trial_index":92,"time_elapsed":510245,"internal_node_id":"0.0-6.0-86.0"},{"sim_score":4,"rt":5069,"stimulus":"[\"img/0864/1ebbc554-99fa-49f9-8799-317375a79820.jpg\",\"img/0894/7f2f31fd-6618-41c6-b65a-0fd8b2851bc9.jpg\"]","trial_type":"similarity","trial_index":93,"time_elapsed":516317,"internal_node_id":"0.0-6.0-87.0"},{"sim_score":3,"rt":2565,"stimulus":"[\"img/0866/be24ab58-230e-4db8-9f45-ff04c9aec6bb.jpg\",\"img/0902/d2c34af0-8c50-437d-8cc3-619195a3e8ba.jpg\"]","trial_type":"similarity","trial_index":94,"time_elapsed":519884,"internal_node_id":"0.0-6.0-88.0"},{"sim_score":3,"rt":3221,"stimulus":"[\"img/0769/b664b502-a86c-46c1-ad6f-5ebffc2e1bd3.jpg\",\"img/0867/1719a35d-f085-48c0-9099-16c94fe418b4.jpg\"]","trial_type":"similarity","trial_index":95,"time_elapsed":524108,"internal_node_id":"0.0-6.0-89.0"},{"sim_score":5,"rt":3175,"stimulus":"[\"img/0874/99f6563c-8a8d-4c1c-a41d-667b618c3fd5.jpg\",\"img/0875/a4935837-7d3c-4df6-88c1-36a94d4991ca.jpg\"]","trial_type":"similarity","trial_index":96,"time_elapsed":528285,"internal_node_id":"0.0-6.0-90.0"},{"sim_score":5,"rt":3173,"stimulus":"[\"img/0864/87c467d3-abca-482f-ad80-3766c21b1bb3.jpg\",\"img/0874/3ce41e7c-40c8-4d58-a546-171114521796.jpg\"]","trial_type":"similarity","trial_index":97,"time_elapsed":532461,"internal_node_id":"0.0-6.0-91.0"},{"sim_score":4,"rt":4069,"stimulus":"[\"img/0881/54ea8e77-c7e5-4197-b7fa-00b7020849a7.jpg\",\"img/0862/99a99e39-8355-44ec-b993-e7bcec111e1c.jpg\"]","trial_type":"similarity","trial_index":98,"time_elapsed":537533,"internal_node_id":"0.0-6.0-92.0"},{"sim_score":5,"rt":3252,"stimulus":"[\"img/0864/efcfbb1b-8197-44c9-b723-40d6c608dd3c.jpg\",\"img/0881/609a5e93-38b5-4940-8627-2bf8fad7f802.jpg\"]","trial_type":"similarity","trial_index":99,"time_elapsed":541788,"internal_node_id":"0.0-6.0-93.0"},{"sim_score":3,"rt":4343,"stimulus":"[\"img/0899/4f7bc593-8ddd-4da3-a0b9-84da730d3370.jpg\",\"img/0901/d6d15b1c-4a30-4f74-a3fd-d4c8ee4169ca.jpg\"]","trial_type":"similarity","trial_index":100,"time_elapsed":547133,"internal_node_id":"0.0-6.0-94.0"},{"sim_score":3,"rt":3901,"stimulus":"[\"img/0874/8cdb1c07-1c32-46d2-981c-3636560fa6e5.jpg\",\"img/0766/d8221e53-2300-4d99-ae1b-0bfb0eabe579.jpg\"]","trial_type":"similarity","trial_index":101,"time_elapsed":552037,"internal_node_id":"0.0-6.0-95.0"},{"sim_score":4,"rt":3173,"stimulus":"[\"img/0881/633c6f40-56d9-4b48-bf1c-ecd83116eabb.jpg\",\"img/0899/7f9d45d0-b2c6-40d3-aa41-c207db2c411b.jpg\"]","trial_type":"similarity","trial_index":102,"time_elapsed":556213,"internal_node_id":"0.0-6.0-96.0"},{"sim_score":5,"rt":2901,"stimulus":"[\"img/0862/eefa5588-9efd-4591-aa5f-a2e17c7d7bcc.jpg\",\"img/0902/40d0b6ec-3907-4573-b227-e7d8e9cad1c3.jpg\"]","trial_type":"similarity","trial_index":103,"time_elapsed":560116,"internal_node_id":"0.0-6.0-97.0"},{"sim_score":5,"rt":3959,"stimulus":"[\"img/0899/06b0fc99-0581-461a-9913-d1a5a941ac61.jpg\",\"img/0764/978aede9-4590-4ad0-b234-135c83e5d669.jpg\"]","trial_type":"similarity","trial_index":104,"time_elapsed":565077,"internal_node_id":"0.0-6.0-98.0"},{"sim_score":5,"rt":2665,"stimulus":"[\"img/0758/d41c06bf-ebaf-454b-91c6-1a17f917b659.jpg\",\"img/0862/cdaed51d-9e2f-4807-801a-4663c40077e2.jpg\"]","trial_type":"similarity","trial_index":105,"time_elapsed":568746,"internal_node_id":"0.0-6.0-99.0"},{"sim_score":4,"rt":4549,"stimulus":"[\"img/0764/e48e6c6f-9e28-420f-836a-8043b2319bb4.jpg\",\"img/0898/04e39a7a-fcf6-4156-ab0e-f5871f335e1c.jpg\"]","trial_type":"similarity","trial_index":106,"time_elapsed":574297,"internal_node_id":"0.0-6.0-100.0"},{"sim_score":5,"rt":3287,"stimulus":"[\"img/0901/04a53755-6da5-44d4-a7a6-48a6bc0a2280.jpg\",\"img/0902/62f11694-7ed7-4cb7-8a73-9e95c43824e7.jpg\"]","trial_type":"similarity","trial_index":107,"time_elapsed":578586,"internal_node_id":"0.0-6.0-101.0"},{"sim_score":2,"rt":4037,"stimulus":"[\"img/0764/8389e74f-e0e0-435d-945f-da1f4c92ccb6.jpg\",\"img/0868/1a62b2b2-18f5-466e-b564-5176a57c565e.jpg\"]","trial_type":"similarity","trial_index":108,"time_elapsed":583627,"internal_node_id":"0.0-6.0-102.0"},{"sim_score":5,"rt":4331,"stimulus":"[\"img/0769/688d0c52-ad73-4065-a5eb-f8c10d076bff.jpg\",\"img/0881/62a64f90-7a72-4aee-a1a1-0c548ac9bdda.jpg\"]","trial_type":"similarity","trial_index":109,"time_elapsed":588962,"internal_node_id":"0.0-6.0-103.0"},{"sim_score":3,"rt":3901,"stimulus":"[\"img/0864/65210d57-1153-4657-886a-32e758f49b4a.jpg\",\"img/0769/7c50e5f5-cc38-4d48-b009-fbe17bcea61c.jpg\"]","trial_type":"similarity","trial_index":110,"time_elapsed":593865,"internal_node_id":"0.0-6.0-104.0"},{"sim_score":6,"rt":2798,"stimulus":"[\"img/0866/0207e9a2-7dbb-40b5-9459-b472aaeceb2a.jpg\",\"img/0868/179a5502-ab5c-478e-8263-5a1fbcc101d2.jpg\"]","trial_type":"similarity","trial_index":111,"time_elapsed":597667,"internal_node_id":"0.0-6.0-105.0"},{"sim_score":3,"rt":3099,"stimulus":"[\"img/0868/c8ac40c7-6904-4e13-8d61-c75d3052dc4e.jpg\",\"img/0862/57b6f83f-c763-4858-830d-102f97bfefbf.jpg\"]","trial_type":"similarity","trial_index":112,"time_elapsed":601770,"internal_node_id":"0.0-6.0-106.0"},{"sim_score":5,"rt":4013,"stimulus":"[\"img/0766/33519c22-aaa4-49d7-8d49-ab551db1945e.jpg\",\"img/0898/5f699581-3853-4547-856c-12f419ba5af7.jpg\"]","trial_type":"similarity","trial_index":113,"time_elapsed":606785,"internal_node_id":"0.0-6.0-107.0"},{"sim_score":4,"rt":2981,"stimulus":"[\"img/0898/661621d4-a14e-487c-8c74-354134a29710.jpg\",\"img/0864/e8bd659f-aa43-4748-877e-3118e8b4e189.jpg\"]","trial_type":"similarity","trial_index":114,"time_elapsed":610769,"internal_node_id":"0.0-6.0-108.0"},{"sim_score":2,"rt":2823,"stimulus":"[\"img/0868/6a28c3b0-3d76-498a-9fb7-ddafc665eca8.jpg\",\"img/0902/2a7ac123-414a-476a-9a96-4757b924baef.jpg\"]","trial_type":"similarity","trial_index":115,"time_elapsed":614594,"internal_node_id":"0.0-6.0-109.0"},{"sim_score":5,"rt":3117,"stimulus":"[\"img/0904/2c98dc56-88d1-4fb5-a999-b6a7861f65f0.jpg\",\"img/0764/974d52cc-6318-4e7a-b294-2f3e92ff800f.jpg\"]","trial_type":"similarity","trial_index":116,"time_elapsed":618714,"internal_node_id":"0.0-6.0-110.0"},{"sim_score":3,"rt":3333,"stimulus":"[\"img/0894/b2d2f66e-e480-46da-a02a-6d0c6b285d78.jpg\",\"img/0875/fb732ab5-013a-4366-9f65-27811ed157e9.jpg\"]","trial_type":"similarity","trial_index":117,"time_elapsed":623050,"internal_node_id":"0.0-6.0-111.0"},{"sim_score":2,"rt":2461,"stimulus":"[\"img/0868/4a8a45ed-2c4f-421b-9564-409a33ecd26c.jpg\",\"img/0874/995f0332-0439-4eb4-add3-957335dbf6d9.jpg\"]","trial_type":"similarity","trial_index":118,"time_elapsed":626514,"internal_node_id":"0.0-6.0-112.0"},{"sim_score":6,"rt":2939,"stimulus":"[\"img/0904/06dacdc5-2206-4fb8-92b7-88042d22833c.jpg\",\"img/0898/c3cecf20-f7fd-45fa-97d0-dc0a63e8d6c0.jpg\"]","trial_type":"similarity","trial_index":119,"time_elapsed":634926,"internal_node_id":"0.0-6.0-113.0"},{"sim_score":3,"rt":4254,"stimulus":"[\"img/0860/524b2e98-5767-4d53-942c-ebae6925659b.jpg\",\"img/0766/00891401-e4c9-4ce1-bc19-f70740d174bc.jpg\"]","trial_type":"similarity","trial_index":120,"time_elapsed":640183,"internal_node_id":"0.0-6.0-114.0"},{"sim_score":4,"rt":3093,"stimulus":"[\"img/0894/3664e04c-c6d3-4c9b-afb6-25d89974b174.jpg\",\"img/0874/31e22c7c-99aa-40b1-bf03-dd73fa2df4d6.jpg\"]","trial_type":"similarity","trial_index":121,"time_elapsed":644278,"internal_node_id":"0.0-6.0-115.0"},{"sim_score":5,"rt":3510,"stimulus":"[\"img/0899/0adc0bc3-6fca-4078-be6f-d45ddf1653d5.jpg\",\"img/0903/f1fa0f8d-e62b-4b4a-a174-31a0fabfe61b.jpg\"]","trial_type":"similarity","trial_index":122,"time_elapsed":648791,"internal_node_id":"0.0-6.0-116.0"},{"sim_score":4,"rt":3110,"stimulus":"[\"img/0881/445edb15-bd7f-4af3-8bd5-c6ad9677bb31.jpg\",\"img/0764/50f1b062-d608-4bc0-ab25-b872dcf2ed93.jpg\"]","trial_type":"similarity","trial_index":123,"time_elapsed":652903,"internal_node_id":"0.0-6.0-117.0"},{"sim_score":3,"rt":3829,"stimulus":"[\"img/0903/5995f4a8-fa82-46f8-8760-fd7800a5ca34.jpg\",\"img/0769/db94b61b-a5a7-4861-9d32-7b02ad194fb0.jpg\"]","trial_type":"similarity","trial_index":124,"time_elapsed":657734,"internal_node_id":"0.0-6.0-118.0"},{"sim_score":3,"rt":3093,"stimulus":"[\"img/0901/d4d09bf5-093e-4050-838e-7c738be8e63c.jpg\",\"img/0904/56e73f28-7e64-489b-a161-e6b1a063878d.jpg\"]","trial_type":"similarity","trial_index":125,"time_elapsed":661830,"internal_node_id":"0.0-6.0-119.0"},{"sim_score":4,"rt":4447,"stimulus":"[\"img/0860/b03b963d-949b-4d8d-b19c-4950c89eeca2.jpg\",\"img/0881/f037e3b0-09cb-4a83-b2d9-6a71fe474e63.jpg\"]","trial_type":"similarity","trial_index":126,"time_elapsed":667282,"internal_node_id":"0.0-6.0-120.0"},{"sim_score":5,"rt":2753,"stimulus":"[\"img/0758/f61ecdf8-a7d4-4db0-b84d-be46f7cfaffc.jpg\",\"img/0874/29830da7-be5f-44e5-b141-652a0ccf7269.jpg\"]","trial_type":"similarity","trial_index":127,"time_elapsed":671039,"internal_node_id":"0.0-6.0-121.0"},{"sim_score":3,"rt":3189,"stimulus":"[\"img/0901/a6776381-91fe-43f8-ab73-261d318f95fd.jpg\",\"img/0769/1afb527f-9887-428c-bd26-a12c2f9efb68.jpg\"]","trial_type":"similarity","trial_index":128,"time_elapsed":675231,"internal_node_id":"0.0-6.0-122.0"},{"sim_score":5,"rt":4957,"stimulus":"[\"img/0902/44cd9b7e-fdfb-4f78-90de-8d4c9d279365.jpg\",\"img/0904/b7c2a2c8-df33-4473-b3d4-ff7147c60db3.jpg\"]","trial_type":"similarity","trial_index":129,"time_elapsed":681190,"internal_node_id":"0.0-6.0-123.0"},{"sim_score":3,"rt":4846,"stimulus":"[\"img/0899/a05bea16-2bb4-4cb9-b8fb-4ff975db6971.jpg\",\"img/0864/a248adb3-c70b-4652-b7a3-776d2a1e904b.jpg\"]","trial_type":"similarity","trial_index":130,"time_elapsed":687039,"internal_node_id":"0.0-6.0-124.0"},{"sim_score":2,"rt":2841,"stimulus":"[\"img/0766/3c526a07-9e0a-4ae2-8142-00085f0127da.jpg\",\"img/0868/15dd6fd7-791e-4b53-b203-195d617521a4.jpg\"]","trial_type":"similarity","trial_index":131,"time_elapsed":690883,"internal_node_id":"0.0-6.0-125.0"},{"sim_score":3,"rt":4260,"stimulus":"[\"img/0764/438c0217-036f-43c9-9b87-f43144e46011.jpg\",\"img/0864/1d15626a-2f7c-410f-819c-0fa2c967e95e.jpg\"]","trial_type":"similarity","trial_index":132,"time_elapsed":696146,"internal_node_id":"0.0-6.0-126.0"},{"sim_score":2,"rt":5054,"stimulus":"[\"img/0899/8abe6c69-822c-436c-9bf2-96c818b49ba5.jpg\",\"img/0866/bf14b5bd-fb55-47db-86b9-4f8aeb9a6dad.jpg\"]","trial_type":"similarity","trial_index":133,"time_elapsed":702203,"internal_node_id":"0.0-6.0-127.0"},{"sim_score":1,"rt":4597,"stimulus":"[\"img/0901/c6df1a21-44ed-47c2-960e-7c52220e329e.jpg\",\"img/0881/4da99fdd-1f40-4bbb-8e21-8833eef313f5.jpg\"]","trial_type":"similarity","trial_index":134,"time_elapsed":707803,"internal_node_id":"0.0-6.0-128.0"},{"sim_score":6,"rt":2917,"stimulus":"[\"img/0898/e167334e-cc1d-4986-b3b1-c7bc7da64baa.jpg\",\"img/0903/776b74ee-a8ab-4ab8-a78d-097c0747538d.jpg\"]","trial_type":"similarity","trial_index":135,"time_elapsed":711725,"internal_node_id":"0.0-6.0-129.0"},{"sim_score":3,"rt":2875,"stimulus":"[\"img/0894/6aa5545f-fa7d-4286-bbaa-aaf34dc7ec96.jpg\",\"img/0867/cc72ed48-7704-422c-86d6-467a1145287a.jpg\"]","trial_type":"similarity","trial_index":136,"time_elapsed":715602,"internal_node_id":"0.0-6.0-130.0"},{"sim_score":5,"rt":4855,"stimulus":"[\"img/0874/ca23d307-fc00-4d7d-9106-584c6eb21b4d.jpg\",\"img/0903/365f176c-25a4-4973-bd3c-279bf1b39476.jpg\"]","trial_type":"similarity","trial_index":137,"time_elapsed":721459,"internal_node_id":"0.0-6.0-131.0"},{"sim_score":3,"rt":2861,"stimulus":"[\"img/0899/56a605c3-d0a2-4215-89e1-779279d85a7c.jpg\",\"img/0898/f3a3f225-1248-4ac7-b93b-f0ff28485bf3.jpg\"]","trial_type":"similarity","trial_index":138,"time_elapsed":725323,"internal_node_id":"0.0-6.0-132.0"},{"sim_score":3,"rt":3492,"stimulus":"[\"img/0867/6e19c858-b606-45b2-a4c6-910a73f1d82c.jpg\",\"img/0764/b887d7c6-aa81-4637-af8e-05135757ac59.jpg\"]","trial_type":"similarity","trial_index":139,"time_elapsed":729819,"internal_node_id":"0.0-6.0-133.0"},{"sim_score":3,"rt":3693,"stimulus":"[\"img/0866/620cd1aa-0800-4414-8f6e-90342e7a99ad.jpg\",\"img/0769/662ab839-88d1-4ebf-af05-9b2980cad943.jpg\"]","trial_type":"similarity","trial_index":140,"time_elapsed":734514,"internal_node_id":"0.0-6.0-134.0"},{"sim_score":5,"rt":2701,"stimulus":"[\"img/0860/18dfed73-e36b-4487-a8bd-0b8cff8e3668.jpg\",\"img/0898/ec565187-2e31-4fdd-9a5c-153d0c789ae0.jpg\"]","trial_type":"similarity","trial_index":141,"time_elapsed":738220,"internal_node_id":"0.0-6.0-135.0"},{"sim_score":3,"rt":5460,"stimulus":"[\"img/0881/566f45f8-5fed-4479-a60f-26377e60a62d.jpg\",\"img/0903/24477210-856c-4550-9de0-9f85a32762eb.jpg\"]","trial_type":"similarity","trial_index":142,"time_elapsed":744683,"internal_node_id":"0.0-6.0-136.0"},{"sim_score":5,"rt":2660,"stimulus":"[\"img/0894/bd34223a-2f66-4e16-9d18-193a746b69ff.jpg\",\"img/0766/ba35c0fc-4d5b-490d-959e-c94b279cdd02.jpg\"]","trial_type":"similarity","trial_index":143,"time_elapsed":748346,"internal_node_id":"0.0-6.0-137.0"},{"sim_score":3,"rt":5155,"stimulus":"[\"img/0860/9593362c-9fe5-4d12-9735-6000a11f6aa5.jpg\",\"img/0764/39a9fc7e-b863-432c-9374-de43983f31a5.jpg\"]","trial_type":"similarity","trial_index":144,"time_elapsed":754503,"internal_node_id":"0.0-6.0-138.0"},{"sim_score":4,"rt":4164,"stimulus":"[\"img/0769/965c3c44-d9e5-47c5-b61a-2bbdf4215d9a.jpg\",\"img/0902/1f4a4c62-68c1-4993-b213-05652a173ed1.jpg\"]","trial_type":"similarity","trial_index":145,"time_elapsed":759671,"internal_node_id":"0.0-6.0-139.0"},{"sim_score":5,"rt":3547,"stimulus":"[\"img/0904/4b8daf2a-13a9-4ea9-9e0b-b265b6e933e7.jpg\",\"img/0903/8c358e9e-a4f4-466e-8b93-7aec0d2358e8.jpg\"]","trial_type":"similarity","trial_index":146,"time_elapsed":764223,"internal_node_id":"0.0-6.0-140.0"},{"sim_score":5,"rt":2988,"stimulus":"[\"img/0764/fb7d4a20-a475-465e-a74f-aa39a0d33d16.jpg\",\"img/0769/14d393ce-e5be-4ca1-86ce-cc27d4b6074c.jpg\"]","trial_type":"similarity","trial_index":147,"time_elapsed":768215,"internal_node_id":"0.0-6.0-141.0"},{"sim_score":5,"rt":3492,"stimulus":"[\"img/0902/9f543501-3cf1-45a7-a2f1-eeca87cc15b9.jpg\",\"img/0881/db77fe00-aeb0-4d1d-aa66-f3a96fd077e4.jpg\"]","trial_type":"similarity","trial_index":148,"time_elapsed":772711,"internal_node_id":"0.0-6.0-142.0"},{"sim_score":2,"rt":3349,"stimulus":"[\"img/0866/a04d37f0-99dd-478a-b6c6-58b215138f84.jpg\",\"img/0864/ef9cbca0-4be8-435d-ad49-977259e80409.jpg\"]","trial_type":"similarity","trial_index":149,"time_elapsed":777063,"internal_node_id":"0.0-6.0-143.0"},{"sim_score":6,"rt":2948,"stimulus":"[\"img/0902/8065aa6b-4aef-4368-afa2-02c6465ca582.jpg\",\"img/0898/40f99fb2-64d2-4e72-8a7f-a1cf60741e69.jpg\"]","trial_type":"similarity","trial_index":150,"time_elapsed":781015,"internal_node_id":"0.0-6.0-144.0"},{"sim_score":5,"rt":2923,"stimulus":"[\"img/0862/de9ad88c-b522-430a-8ee9-eb06a9f85df5.jpg\",\"img/0864/66091c27-e588-4476-8af9-265dc6be4156.jpg\"]","trial_type":"similarity","trial_index":151,"time_elapsed":784944,"internal_node_id":"0.0-6.0-145.0"},{"sim_score":3,"rt":2892,"stimulus":"[\"img/0875/34132396-d896-4c2d-8087-646dd867e769.jpg\",\"img/0898/26c41340-15bd-4ead-8fe4-c0d0ddca09c2.jpg\"]","trial_type":"similarity","trial_index":152,"time_elapsed":788840,"internal_node_id":"0.0-6.0-146.0"},{"sim_score":7,"rt":4331,"stimulus":"[\"img/0874/eba003b4-cdab-4eee-8bc3-f064c7d94165.jpg\",\"img/0881/b1a136f7-8511-4d3a-a0f6-3879acf1e1a1.jpg\"]","trial_type":"similarity","trial_index":153,"time_elapsed":794177,"internal_node_id":"0.0-6.0-147.0"},{"sim_score":4,"rt":4942,"stimulus":"[\"img/0758/7ffbc76b-1fc1-432c-8f7e-9ec8d1b3f643.jpg\",\"img/0894/c505c65a-cde2-4f2c-8cde-f8676f7c894d.jpg\"]","trial_type":"similarity","trial_index":154,"time_elapsed":800127,"internal_node_id":"0.0-6.0-148.0"},{"sim_score":3,"rt":3172,"stimulus":"[\"img/0904/5cceabc9-de1d-4c67-989b-c28a4ef77e79.jpg\",\"img/0864/da39ad34-04e0-40d4-a724-c08d53e0ea09.jpg\"]","trial_type":"similarity","trial_index":155,"time_elapsed":804304,"internal_node_id":"0.0-6.0-149.0"},{"sim_score":5,"rt":3274,"stimulus":"[\"img/0769/1d8734c4-77ab-4165-9e71-5cfe672ff01c.jpg\",\"img/0899/f95cbdb4-f804-4f5d-ad76-373ad343e658.jpg\"]","trial_type":"similarity","trial_index":156,"time_elapsed":808585,"internal_node_id":"0.0-6.0-150.0"},{"sim_score":4,"rt":2979,"stimulus":"[\"img/0764/b8e23f4f-ff19-4472-ad9b-2f85548ebca0.jpg\",\"img/0903/97a42b34-5462-4665-88c7-83c014b33d24.jpg\"]","trial_type":"similarity","trial_index":157,"time_elapsed":816988,"internal_node_id":"0.0-6.0-151.0"},{"sim_score":3,"rt":2876,"stimulus":"[\"img/0903/59defeb8-98bd-4570-a2f8-9bd189e68ef4.jpg\",\"img/0864/e336a4c5-6648-4fd7-b2f6-93a3fb83f8c6.jpg\"]","trial_type":"similarity","trial_index":158,"time_elapsed":820869,"internal_node_id":"0.0-6.0-152.0"},{"sim_score":4,"rt":4109,"stimulus":"[\"img/0894/10f22b96-040c-44f4-950b-a4963f3f506c.jpg\",\"img/0881/ee44e27f-d662-4608-b265-e7ffa19b216f.jpg\"]","trial_type":"similarity","trial_index":159,"time_elapsed":825983,"internal_node_id":"0.0-6.0-153.0"},{"sim_score":5,"rt":2770,"stimulus":"[\"img/0875/5a7c4e35-6514-4e12-8879-d16071da4cd6.jpg\",\"img/0867/075e0f95-856b-4cbb-acf5-092393aaf04e.jpg\"]","trial_type":"similarity","trial_index":160,"time_elapsed":829759,"internal_node_id":"0.0-6.0-154.0"},{"sim_score":3,"rt":2690,"stimulus":"[\"img/0867/85a96c62-548f-4994-9553-819e03c3135a.jpg\",\"img/0758/dd559618-7f09-4a07-8018-d311c4a5ea29.jpg\"]","trial_type":"similarity","trial_index":161,"time_elapsed":833454,"internal_node_id":"0.0-6.0-155.0"},{"sim_score":1,"rt":3177,"stimulus":"[\"img/0868/09a9ef4d-d000-4cfa-a6aa-ebec7c2edeb4.jpg\",\"img/0901/5657dd86-0ff9-4753-ba2b-9dfb223e5c89.jpg\"]","trial_type":"similarity","trial_index":162,"time_elapsed":837638,"internal_node_id":"0.0-6.0-156.0"},{"sim_score":6,"rt":3188,"stimulus":"[\"img/0769/76eaa4a3-dfe9-4dc1-9efb-caebe86264e1.jpg\",\"img/0894/e6385e52-6c35-43bd-b0af-bc803d107b11.jpg\"]","trial_type":"similarity","trial_index":163,"time_elapsed":841831,"internal_node_id":"0.0-6.0-157.0"},{"sim_score":3,"rt":4449,"stimulus":"[\"img/0904/65e2b70a-b184-4da3-b5c0-5038bdf9469a.jpg\",\"img/0758/e38fd80d-18d0-42f3-b848-f930788e8bd7.jpg\"]","trial_type":"similarity","trial_index":164,"time_elapsed":847286,"internal_node_id":"0.0-6.0-158.0"},{"sim_score":3,"rt":3003,"stimulus":"[\"img/0874/7e4f2150-3b59-4a36-b5da-a4e0ba410531.jpg\",\"img/0904/2f88ce53-02d0-4f95-a082-182c56a0eeb4.jpg\"]","trial_type":"similarity","trial_index":165,"time_elapsed":851295,"internal_node_id":"0.0-6.0-159.0"},{"sim_score":3,"rt":3649,"stimulus":"[\"img/0864/e02eddb5-f468-499c-91bf-f7be3ffe979b.jpg\",\"img/0901/fb0a8e69-7f19-4e6e-a6bb-a48f97f9b4f3.jpg\"]","trial_type":"similarity","trial_index":166,"time_elapsed":855950,"internal_node_id":"0.0-6.0-160.0"},{"sim_score":3,"rt":4292,"stimulus":"[\"img/0898/8605a25b-6895-476d-8c13-df7a83f96093.jpg\",\"img/0866/a15b02be-11bb-43e3-b0e0-ecc3bd7dfc49.jpg\"]","trial_type":"similarity","trial_index":167,"time_elapsed":861246,"internal_node_id":"0.0-6.0-161.0"},{"sim_score":3,"rt":2675,"stimulus":"[\"img/0766/a0270213-fa0e-4972-8b56-228c3e01ff90.jpg\",\"img/0903/ea75f240-fb62-4edb-a709-83e858b202c0.jpg\"]","trial_type":"similarity","trial_index":168,"time_elapsed":864927,"internal_node_id":"0.0-6.0-162.0"},{"sim_score":4,"rt":4570,"stimulus":"[\"img/0860/99c589b9-9140-4d17-90c0-b344323edcda.jpg\",\"img/0899/51a7a498-98c7-42d7-bca8-bc2d8f0b5831.jpg\"]","trial_type":"similarity","trial_index":169,"time_elapsed":870502,"internal_node_id":"0.0-6.0-163.0"},{"sim_score":3,"rt":2939,"stimulus":"[\"img/0766/27f54113-8561-4568-9ffe-0a1650ae65ec.jpg\",\"img/0862/4f0a3b4c-afbf-486e-b248-1d54982f54b4.jpg\"]","trial_type":"similarity","trial_index":170,"time_elapsed":874446,"internal_node_id":"0.0-6.0-164.0"},{"sim_score":5,"rt":3222,"stimulus":"[\"img/0898/881e2a85-d5c2-49be-a0c6-8a6ce2c4af08.jpg\",\"img/0894/9b1333fd-3561-43bf-aee5-99b7b7ca3dc3.jpg\"]","trial_type":"similarity","trial_index":171,"time_elapsed":878674,"internal_node_id":"0.0-6.0-165.0"},{"sim_score":3,"rt":3889,"stimulus":"[\"img/0867/98d8cd96-1476-4fe0-a3a3-04f875500a1b.jpg\",\"img/0766/a754e4b6-5019-4cf4-8f58-34c20547a1f5.jpg\"]","trial_type":"similarity","trial_index":172,"time_elapsed":883569,"internal_node_id":"0.0-6.0-166.0"},{"sim_score":5,"rt":3195,"stimulus":"[\"img/0904/9dd5708f-3f8b-46a9-b49f-2f2fab87b357.jpg\",\"img/0862/00c06b00-3b73-44e9-bc1e-c5aafb438321.jpg\"]","trial_type":"similarity","trial_index":173,"time_elapsed":887769,"internal_node_id":"0.0-6.0-167.0"},{"sim_score":3,"rt":2883,"stimulus":"[\"img/0866/6f2a90d7-14f1-4f1b-bd64-fc0af6b9fe44.jpg\",\"img/0874/85eb9b8a-c4c6-4e5a-b8e7-363a87a82054.jpg\"]","trial_type":"similarity","trial_index":174,"time_elapsed":891657,"internal_node_id":"0.0-6.0-168.0"},{"sim_score":3,"rt":3330,"stimulus":"[\"img/0903/3e9ee8a5-eb66-47f5-8973-8a5af1ddc87e.jpg\",\"img/0868/fd307a36-9a3a-47d7-ab7c-f810d0b35040.jpg\"]","trial_type":"similarity","trial_index":175,"time_elapsed":895994,"internal_node_id":"0.0-6.0-169.0"},{"sim_score":5,"rt":3146,"stimulus":"[\"img/0769/8c7cf147-1780-4d5c-8ddf-5ea23ff03ac9.jpg\",\"img/0904/696ebb60-8891-417a-91fd-c53218907a95.jpg\"]","trial_type":"similarity","trial_index":176,"time_elapsed":900146,"internal_node_id":"0.0-6.0-170.0"},{"sim_score":2,"rt":4146,"stimulus":"[\"img/0875/99698b4d-b4a1-44bc-8c83-8ea755bbbf61.jpg\",\"img/0764/ba0c0955-acbb-457d-b1c2-f006b88121d5.jpg\"]","trial_type":"similarity","trial_index":177,"time_elapsed":905297,"internal_node_id":"0.0-6.0-171.0"},{"sim_score":5,"rt":3515,"stimulus":"[\"img/0860/c5ccd1a4-4bb7-48e1-9b25-72cfaf06909b.jpg\",\"img/0903/2a9c8033-3e70-47fa-816d-97ee1813a3a3.jpg\"]","trial_type":"similarity","trial_index":178,"time_elapsed":909817,"internal_node_id":"0.0-6.0-172.0"},{"sim_score":1,"rt":3540,"stimulus":"[\"img/0864/3651d070-2fc5-4848-b6a6-088a2d9ac5c9.jpg\",\"img/0867/db7e032f-162b-46f5-ae67-2b29679adee4.jpg\"]","trial_type":"similarity","trial_index":179,"time_elapsed":914361,"internal_node_id":"0.0-6.0-173.0"},{"sim_score":2,"rt":3811,"stimulus":"[\"img/0868/8b0b8473-e2c0-4331-aa56-c3a5c29369da.jpg\",\"img/0864/49150900-7f25-4ce8-8d10-9b47a71d1997.jpg\"]","trial_type":"similarity","trial_index":180,"time_elapsed":919177,"internal_node_id":"0.0-6.0-174.0"},{"sim_score":3,"rt":3603,"stimulus":"[\"img/0898/01bfe666-3510-4fc7-964f-d00d28732dc8.jpg\",\"img/0769/75f7e514-0548-4329-b1e4-93c05e74f038.jpg\"]","trial_type":"similarity","trial_index":181,"time_elapsed":923784,"internal_node_id":"0.0-6.0-175.0"},{"sim_score":7,"rt":3572,"stimulus":"[\"img/0766/5d6e0d1d-4369-41f0-a64c-91f3503055c7.jpg\",\"img/0764/5d6fa3ce-9083-410c-bbdb-336a49b94cfc.jpg\"]","trial_type":"similarity","trial_index":182,"time_elapsed":928361,"internal_node_id":"0.0-6.0-176.0"},{"sim_score":3,"rt":4468,"stimulus":"[\"img/0764/713cc27e-2338-4486-bfe9-5f5725fbd7a0.jpg\",\"img/0866/9b38d691-1802-4959-ab3f-fc902f0e4ea6.jpg\"]","trial_type":"similarity","trial_index":183,"time_elapsed":933832,"internal_node_id":"0.0-6.0-177.0"},{"sim_score":3,"rt":3266,"stimulus":"[\"img/0902/b03129ba-b087-4558-af37-e8399d6217d6.jpg\",\"img/0875/2e13d160-eea1-416b-aff1-d37ab99ecc1d.jpg\"]","trial_type":"similarity","trial_index":184,"time_elapsed":938101,"internal_node_id":"0.0-6.0-178.0"},{"sim_score":5,"rt":3677,"stimulus":"[\"img/0881/0c7068da-d0d9-4103-bda1-74ef7a2b32c3.jpg\",\"img/0904/9b3568cc-3cf7-42be-9df3-fdafde7a58b8.jpg\"]","trial_type":"similarity","trial_index":185,"time_elapsed":942780,"internal_node_id":"0.0-6.0-179.0"},{"sim_score":3,"rt":2927,"stimulus":"[\"img/0874/93d1f8dc-acf2-4f03-bd8d-8ec35df276ed.jpg\",\"img/0860/31ff6436-98bf-4652-bed2-40f627229568.jpg\"]","trial_type":"similarity","trial_index":186,"time_elapsed":946709,"internal_node_id":"0.0-6.0-180.0"},{"sim_score":5,"rt":4092,"stimulus":"[\"img/0769/8598a429-c671-4d2f-842c-32f681f5e412.jpg\",\"img/0874/2c9464dd-8a23-4baa-ac94-1ba3af5c15cc.jpg\"]","trial_type":"similarity","trial_index":187,"time_elapsed":951805,"internal_node_id":"0.0-6.0-181.0"},{"sim_score":6,"rt":3165,"stimulus":"[\"img/0904/9d30eff1-46ef-4453-b11e-124ef8145c00.jpg\",\"img/0766/989c5c7f-1aff-4442-ac63-9d46acf4a891.jpg\"]","trial_type":"similarity","trial_index":188,"time_elapsed":955973,"internal_node_id":"0.0-6.0-182.0"},{"sim_score":5,"rt":3381,"stimulus":"[\"img/0902/eb3e7e71-8ff1-4b88-a6a7-47e2c1ce1683.jpg\",\"img/0764/23ea9375-f801-4a96-9925-7d453da887c7.jpg\"]","trial_type":"similarity","trial_index":189,"time_elapsed":960356,"internal_node_id":"0.0-6.0-183.0"},{"sim_score":3,"rt":3111,"stimulus":"[\"img/0769/8056889f-2b14-4782-bb25-b4e8896ab65b.jpg\",\"img/0875/90da8d75-108a-44ad-b999-e21fee3860d3.jpg\"]","trial_type":"similarity","trial_index":190,"time_elapsed":964469,"internal_node_id":"0.0-6.0-184.0"},{"sim_score":3,"rt":3741,"stimulus":"[\"img/0867/f8488a47-94ee-4166-952c-44e16cf172f6.jpg\",\"img/0903/005ad0de-4f52-433c-b515-dbe8d46184a3.jpg\"]","trial_type":"similarity","trial_index":191,"time_elapsed":969213,"internal_node_id":"0.0-6.0-185.0"},{"sim_score":5,"rt":3549,"stimulus":"[\"img/0862/ba89835a-408c-480b-8594-ed4ffa97eb5c.jpg\",\"img/0769/0fe124d3-bcad-45f6-b64d-8f6eb8ee5251.jpg\"]","trial_type":"similarity","trial_index":192,"time_elapsed":973764,"internal_node_id":"0.0-6.0-186.0"},{"sim_score":3,"rt":3734,"stimulus":"[\"img/0766/fd74fdbb-ea40-4f3a-a091-38d08dfd636e.jpg\",\"img/0866/07c9c966-3c8d-40e7-8128-92b2acbaed5d.jpg\"]","trial_type":"similarity","trial_index":193,"time_elapsed":978500,"internal_node_id":"0.0-6.0-187.0"},{"sim_score":5,"rt":3983,"stimulus":"[\"img/0769/f2740c58-7c02-433f-920b-746b0b75435b.jpg\",\"img/0860/61fb959d-d4d9-4de4-9e4e-4fa62b4cfcd5.jpg\"]","trial_type":"similarity","trial_index":194,"time_elapsed":983485,"internal_node_id":"0.0-6.0-188.0"},{"sim_score":2,"rt":4205,"stimulus":"[\"img/0881/6b1189e6-232d-4042-8885-16dc7b10e0d4.jpg\",\"img/0868/5fa7f9d0-f0e5-454c-8224-74d964818f56.jpg\"]","trial_type":"similarity","trial_index":195,"time_elapsed":992636,"internal_node_id":"0.0-6.0-189.0"},{"view_history":"[{\"page_index\":0,\"viewing_time\":6492}]","rt":6492,"trial_type":"instructions","trial_index":196,"time_elapsed":1000128,"internal_node_id":"0.0-7.0"},{"rt":5828,"responses":"{\"Q0\":\"Nashville Warbler\"}","answer":["Nashville Warbler"],"trial_type":"image-multi-choice","trial_index":197,"time_elapsed":1006969,"internal_node_id":"0.0-8.0-0.0"},{"rt":2893,"responses":"{\"Q0\":\"Black-and-white Warbler\"}","answer":["Black-and-white Warbler"],"trial_type":"image-multi-choice","trial_index":198,"time_elapsed":1010873,"internal_node_id":"0.0-8.0-1.0"},{"rt":3925,"responses":"{\"Q0\":\"Blackburnian Warbler\"}","answer":["Townsend's Warbler"],"trial_type":"image-multi-choice","trial_index":199,"time_elapsed":1015809,"internal_node_id":"0.0-8.0-2.0"},{"rt":7614,"responses":"{\"Q0\":\"Lark Sparrow\"}","answer":["Lark Sparrow"],"trial_type":"image-multi-choice","trial_index":200,"time_elapsed":1024433,"internal_node_id":"0.0-8.0-3.0"},{"rt":2806,"responses":"{\"Q0\":\"Yellow Warbler\"}","answer":["Yellow Warbler"],"trial_type":"image-multi-choice","trial_index":201,"time_elapsed":1028248,"internal_node_id":"0.0-8.0-4.0"},{"rt":4848,"responses":"{\"Q0\":\"Orange-crowned Warbler\"}","answer":["Orange-crowned Warbler"],"trial_type":"image-multi-choice","trial_index":202,"time_elapsed":1034105,"internal_node_id":"0.0-8.0-5.0"},{"rt":3549,"responses":"{\"Q0\":\"White-throated Sparrow\"}","answer":["White-throated Sparrow"],"trial_type":"image-multi-choice","trial_index":203,"time_elapsed":1038665,"internal_node_id":"0.0-8.0-6.0"},{"rt":3525,"responses":"{\"Q0\":\"Fox Sparrow\"}","answer":["Fox Sparrow"],"trial_type":"image-multi-choice","trial_index":204,"time_elapsed":1043200,"internal_node_id":"0.0-8.0-7.0"},{"rt":11807,"responses":"{\"Q0\":\"Vesper Sparrow\"}","answer":["Song Sparrow"],"trial_type":"image-multi-choice","trial_index":205,"time_elapsed":1056017,"internal_node_id":"0.0-8.0-8.0"},{"rt":5467,"responses":"{\"Q0\":\"Blackburnian Warbler\"}","answer":["Blackburnian Warbler"],"trial_type":"image-multi-choice","trial_index":206,"time_elapsed":1062493,"internal_node_id":"0.0-8.0-9.0"},{"rt":10359,"responses":"{\"Q0\":\"Lincoln's Sparrow\"}","answer":["Vesper Sparrow"],"trial_type":"image-multi-choice","trial_index":207,"time_elapsed":1073862,"internal_node_id":"0.0-8.0-10.0"},{"rt":2710,"responses":"{\"Q0\":\"White-crowned Sparrow\"}","answer":["White-crowned Sparrow"],"trial_type":"image-multi-choice","trial_index":208,"time_elapsed":1077582,"internal_node_id":"0.0-8.0-11.0"},{"rt":4718,"responses":"{\"Q0\":\"Chipping Sparrow\"}","answer":["American Tree Sparrow"],"trial_type":"image-multi-choice","trial_index":209,"time_elapsed":1083309,"internal_node_id":"0.0-8.0-12.0"},{"rt":4265,"responses":"{\"Q0\":\"Tennessee Warbler\"}","answer":["Tennessee Warbler"],"trial_type":"image-multi-choice","trial_index":210,"time_elapsed":1088582,"internal_node_id":"0.0-8.0-13.0"},{"rt":4126,"responses":"{\"Q0\":\"Magnolia Warbler\"}","answer":["Magnolia Warbler"],"trial_type":"image-multi-choice","trial_index":211,"time_elapsed":1093718,"internal_node_id":"0.0-8.0-14.0"},{"rt":3294,"responses":"{\"Q0\":\"Northern Waterthrush\"}","answer":["Northern Waterthrush"],"trial_type":"image-multi-choice","trial_index":212,"time_elapsed":1098021,"internal_node_id":"0.0-8.0-15.0"},{"rt":11726,"responses":"{\"Q0\":\"American Tree Sparrow\"}","answer":["Chipping Sparrow"],"trial_type":"image-multi-choice","trial_index":213,"time_elapsed":1110758,"internal_node_id":"0.0-8.0-16.0"},{"rt":7311,"responses":"{\"Q0\":\"Swamp Sparrow\"}","answer":["Swamp Sparrow"],"trial_type":"image-multi-choice","trial_index":214,"time_elapsed":1119077,"internal_node_id":"0.0-8.0-17.0"},{"rt":4330,"responses":"{\"Q0\":\"Lincoln's Sparrow\"}","answer":["Lincoln's Sparrow"],"trial_type":"image-multi-choice","trial_index":215,"time_elapsed":1124418,"internal_node_id":"0.0-8.0-18.0"},{"rt":2806,"responses":"{\"Q0\":\"Ovenbird\"}","answer":["Ovenbird"],"trial_type":"image-multi-choice","trial_index":216,"time_elapsed":1128234,"internal_node_id":"0.0-8.0-19.0"}]