"view_history","rt","trial_type","trial_index","time_elapsed","internal_node_id","sim_score","stimulus","responses","answer"
"[{""page_index"":0,""viewing_time"":18308}]","18309","instructions","0","18309","0.0-0.0","","","",""
"","4306","similarity_demo","1","23619","0.0-1.0","7","[""img/bluejay1.jpg"",""img/bluejay2.jpg""]","",""
"[{""page_index"":0,""viewing_time"":9148}]","9149","instructions","2","33768","0.0-2.0","","","",""
"","5686","similarity_demo","3","40457","0.0-3.0","5","[""img/bluejay1.jpg"",""img/cardinal1.jpg""]","",""
"[{""page_index"":0,""viewing_time"":4438}]","4439","instructions","4","45896","0.0-4.0","","","",""
"[{""page_index"":0,""viewing_time"":18248}]","18248","instructions","5","65144","0.0-5.0","","","",""
"","4139","similarity","6","70290","0.0-6.0-0.0","3","[""img/0868/d6d1f30d-4323-435a-b194-7892521bc57e.jpg"",""img/0894/38cf335f-f76f-4349-8d65-e20cd6859565.jpg""]","",""
"","4458","similarity","7","75753","0.0-6.0-1.0","3","[""img/0898/224c1572-56b9-4f16-a9e4-6f3bc9c114bd.jpg"",""img/0758/a709631e-3705-4725-ac40-f0d916924f08.jpg""]","",""
"","3737","similarity","8","80495","0.0-6.0-2.0","4","[""img/0903/9b60ef5b-234f-4239-892b-3d4c412accc2.jpg"",""img/0894/e2446cf5-cd48-486a-badc-76498e087fbe.jpg""]","",""
"","3879","similarity","9","85381","0.0-6.0-3.0","3","[""img/0881/ed4c971f-0873-4fc8-b6d6-e8bbd82f0bcc.jpg"",""img/0766/ae0fce93-fe8d-4aa1-87ca-4c3e4b889f2f.jpg""]","",""
"","4046","similarity","10","90430","0.0-6.0-4.0","1","[""img/0864/5f33e097-23e3-4002-882d-76e8cb15f451.jpg"",""img/0860/5bff793e-cbd5-4d7e-b628-0ac2b0e30b64.jpg""]","",""
"","4492","similarity","11","95926","0.0-6.0-5.0","4","[""img/0902/511abb54-0094-4f4d-b6dc-3f2c97050521.jpg"",""img/0899/57476fed-5962-4272-8fc9-b317bb777b54.jpg""]","",""
"","7700","similarity","12","104630","0.0-6.0-6.0","2","[""img/0868/83b4350a-3b70-4cea-b7f5-b5b56f3050a8.jpg"",""img/0769/bb8c4e53-6f32-4814-97ee-392d4decfb2e.jpg""]","",""
"","4397","similarity","13","110030","0.0-6.0-7.0","3","[""img/0764/958b8576-3a3b-4acc-96dc-06b74de69f37.jpg"",""img/0901/effc03f6-8f9d-46db-a66c-16fc83891c5c.jpg""]","",""
"","3636","similarity","14","114670","0.0-6.0-8.0","3","[""img/0881/14236cf2-6b95-48b8-9368-78af09d2d27f.jpg"",""img/0866/11a1d141-be5e-443c-98c1-a9d4d9e3dec0.jpg""]","",""
"","3581","similarity","15","119254","0.0-6.0-9.0","2","[""img/0867/a498eef3-9fa4-4ab2-9778-4ae82ac40dc5.jpg"",""img/0899/a048912c-b12c-40e3-90af-46b69b0cc4fe.jpg""]","",""
"","3790","similarity","16","124046","0.0-6.0-10.0","3","[""img/0875/03c3c331-738b-4446-af92-3d7386b08c2e.jpg"",""img/0766/e8052e17-9dae-4139-802b-6e590cb2d526.jpg""]","",""
"","3685","similarity","17","128734","0.0-6.0-11.0","1","[""img/0901/a0d65c84-3f20-476a-92d1-0c01e8019cf4.jpg"",""img/0875/42910c99-5463-450a-a0f8-d4d060a11455.jpg""]","",""
"","3604","similarity","18","133342","0.0-6.0-12.0","5","[""img/0902/b76efc44-a50f-4dac-b997-ff0222376067.jpg"",""img/0860/e14d67c1-6d92-4f1e-9257-c8607159c19c.jpg""]","",""
"","3245","similarity","19","137589","0.0-6.0-13.0","1","[""img/0874/a82926a3-0b43-4add-803c-d5f9ea7798ee.jpg"",""img/0867/2e1a0b58-cdb1-4107-a14e-452530d7b9b0.jpg""]","",""
"","4785","similarity","20","143378","0.0-6.0-14.0","5","[""img/0904/0d17b811-063e-416e-a23c-3b3cfa4fcce5.jpg"",""img/0866/02f5e6b9-52b7-448c-9708-5b460d0c9a23.jpg""]","",""
"","4493","similarity","21","148874","0.0-6.0-15.0","3","[""img/0758/ddc336e9-a8b6-4bb9-937a-c7e25e0e9250.jpg"",""img/0902/7f1dcd35-237a-4995-9e42-7f63f3f434d4.jpg""]","",""
"","3900","similarity","22","153778","0.0-6.0-16.0","3","[""img/0867/aa05d113-fc19-4756-a8eb-7878f580bc92.jpg"",""img/0898/68476bbb-34a1-42d9-8bc1-deab783d4489.jpg""]","",""
"","4006","similarity","23","158786","0.0-6.0-17.0","4","[""img/0904/60d1a521-edf7-4696-9263-f21ac0e62a01.jpg"",""img/0868/4bd5105a-d2c3-4f82-8c80-57196106ba53.jpg""]","",""
"","4165","similarity","24","163954","0.0-6.0-18.0","5","[""img/0766/a1ed3f0f-e338-4a26-8fe4-4370f0c9fa6e.jpg"",""img/0864/b3c4e378-28f0-4699-9338-2a257b4bca04.jpg""]","",""
"","5309","similarity","25","170267","0.0-6.0-19.0","6","[""img/0899/ddf96ade-692e-4602-bd22-dedbb46401bc.jpg"",""img/0766/f011ef45-fb48-44b8-8224-867ed2ccf786.jpg""]","",""
"","3276","similarity","26","174545","0.0-6.0-20.0","5","[""img/0764/1f95ab5f-fb65-4d70-b5db-d6bd6351a8aa.jpg"",""img/0758/53f35650-e455-4b53-8be4-c3c8271c6466.jpg""]","",""
"","3271","similarity","27","178818","0.0-6.0-21.0","2","[""img/0901/2a953e50-d237-405c-a38d-5ed21494c968.jpg"",""img/0874/a3bc679d-619f-4db6-bb68-116dcb757d9c.jpg""]","",""
"","4094","similarity","28","183914","0.0-6.0-22.0","2","[""img/0875/5a716432-c6ca-4b1c-955a-2b8ac25198ee.jpg"",""img/0758/caa93da2-9edf-49fa-96b9-32dedd8f5078.jpg""]","",""
"","2749","similarity","29","187665","0.0-6.0-23.0","2","[""img/0867/50a1b60e-3a29-44bf-b606-d4bd3746fea9.jpg"",""img/0881/f4e3e181-b3c9-4af2-a5a4-fc135ab70d2e.jpg""]","",""
"","6295","similarity","30","194962","0.0-6.0-24.0","5","[""img/0758/335851a0-a55b-46d8-ab05-8463eda48349.jpg"",""img/0901/31c032fd-3c3d-4882-a226-da9a80198937.jpg""]","",""
"","4204","similarity","31","200170","0.0-6.0-25.0","4","[""img/0868/293079b8-7e0c-4afd-a390-1e5d35fe3ded.jpg"",""img/0875/8521fd58-3b1e-4dc5-97ae-804edfa6734a.jpg""]","",""
"","3938","similarity","32","205112","0.0-6.0-26.0","6","[""img/0903/72197c2b-403e-4a26-b391-f1aa8dea4b76.jpg"",""img/0901/4f9cffe0-c0be-4d7f-bacd-9d51efd19b4a.jpg""]","",""
"","3819","similarity","33","209934","0.0-6.0-27.0","6","[""img/0894/43216a7f-27bc-4b5a-8841-d122a30da9d9.jpg"",""img/0899/fd9efb43-701f-4cd6-baaa-4c38315f4bdc.jpg""]","",""
"","5637","similarity","34","216575","0.0-6.0-28.0","3","[""img/0862/7918ca67-5bd3-4606-a5ea-c39fb11a9297.jpg"",""img/0867/8ba0c5a7-c7e4-42cf-a80a-543763b90779.jpg""]","",""
"","4085","similarity","35","221663","0.0-6.0-29.0","4","[""img/0864/8ddd2e30-a1d0-479f-9cbe-591213023893.jpg"",""img/0875/2c361b79-c3d1-4eda-812e-bf03192407bf.jpg""]","",""
"","3773","similarity","36","226438","0.0-6.0-30.0","6","[""img/0862/5d887e9f-89e2-4ebc-80a0-6d46fe6480db.jpg"",""img/0874/c0378dac-9370-439a-8b79-db27c96fb390.jpg""]","",""
"","2662","similarity","37","230103","0.0-6.0-31.0","4","[""img/0903/81368973-de81-46f4-844f-b901f3bfd66d.jpg"",""img/0758/61d64021-9214-4951-bdf8-f871f9827cf9.jpg""]","",""
"","3733","similarity","38","234839","0.0-6.0-32.0","1","[""img/0866/23a224f3-2012-4fc8-8e0f-3c36f8de27fd.jpg"",""img/0901/1ede21d9-384f-4150-86b5-e1c57b5dc1d4.jpg""]","",""
"","3509","similarity","39","239351","0.0-6.0-33.0","4","[""img/0874/767f289c-9814-4496-803f-745cc8913d1f.jpg"",""img/0899/fef567a2-c121-4481-9af0-ff108d199bbf.jpg""]","",""
"","3717","similarity","40","244070","0.0-6.0-34.0","6","[""img/0903/31b5a5f4-b695-4af1-bad2-a19650a05498.jpg"",""img/0902/1a120fb9-dbd6-443e-ba91-b4aceab963da.jpg""]","",""
"","2967","similarity","41","248039","0.0-6.0-35.0","4","[""img/0758/67c0be2f-9e91-48b3-8219-70ac0a1802fa.jpg"",""img/0866/d493a2c8-66eb-44b4-be02-2f327b700b7c.jpg""]","",""
"","3493","similarity","42","252535","0.0-6.0-36.0","4","[""img/0875/ebf7653f-ff45-4e9f-af58-2c042ab3cd2b.jpg"",""img/0903/8fcafe03-43df-4c45-9da5-0df3a1eeccc5.jpg""]","",""
"","4429","similarity","43","265986","0.0-6.0-37.0","5","[""img/0864/afcba0a3-7e27-4757-b254-e9f05fad27e2.jpg"",""img/0902/c018bd7a-d91a-4192-aea4-7259cfcdb6c4.jpg""]","",""
"","3725","similarity","44","270717","0.0-6.0-38.0","4","[""img/0901/168eb52c-c415-43f1-b5c8-e76e1a1ec247.jpg"",""img/0867/bf560d4f-dee3-4f11-a385-705cc1aa5f3c.jpg""]","",""
"","3219","similarity","45","274939","0.0-6.0-39.0","5","[""img/0862/a0a3a7ba-7798-46a3-b4ca-05e1f6e581d0.jpg"",""img/0860/8a92e21b-6a32-4e4a-a445-2d5a487ed0a4.jpg""]","",""
"","3580","similarity","46","279522","0.0-6.0-40.0","6","[""img/0867/5e07b34d-b40f-4b1c-ac10-49975bace45f.jpg"",""img/0868/d98ca254-b195-477f-b57e-5760a2717db8.jpg""]","",""
"","4444","similarity","47","284971","0.0-6.0-41.0","6","[""img/0904/4d7d70a3-9477-4921-bda0-f9531d0a5c5b.jpg"",""img/0899/1b3457ea-87d4-4946-a01c-aac1863ed46c.jpg""]","",""
"","3020","similarity","48","288995","0.0-6.0-42.0","4","[""img/0862/92fcd8a4-8193-4a6a-ae09-dd4a6338b0df.jpg"",""img/0894/e5edf723-72a5-4673-8441-6c1734a8929b.jpg""]","",""
"","2749","similarity","49","292747","0.0-6.0-43.0","4","[""img/0875/d59ff733-eaff-4ee2-9443-06954dd0bcb6.jpg"",""img/0904/25365108-e038-4021-aac9-797f2063b337.jpg""]","",""
"","4606","similarity","50","298355","0.0-6.0-44.0","3","[""img/0874/ca76a855-4e77-4f2f-872a-0a718153e7ed.jpg"",""img/0898/4184e5a2-84ea-4f36-9b42-ae58646f6f87.jpg""]","",""
"","3742","similarity","51","303099","0.0-6.0-45.0","2","[""img/0898/79233891-305a-4a6a-8ddf-5c8604858203.jpg"",""img/0868/0d3abd3a-b6c3-4584-a9f7-e2da63748b3d.jpg""]","",""
"","5788","similarity","52","309890","0.0-6.0-46.0","5","[""img/0901/4ca4f962-40c0-4c59-b14a-3cd7b8c9029b.jpg"",""img/0860/d9a0d117-6d1d-41c0-8fec-9aff0fd9e9f2.jpg""]","",""
"","4078","similarity","53","314970","0.0-6.0-47.0","5","[""img/0894/05161000-f476-499b-a878-c13c7f347fd9.jpg"",""img/0902/6c2c243a-f663-45db-baf5-038d3d58c589.jpg""]","",""
"","4365","similarity","54","320339","0.0-6.0-48.0","4","[""img/0764/d0bef2e0-e16b-4c82-9451-c1d16265eb67.jpg"",""img/0862/f43ceabf-acc1-4107-b857-5d1849808f93.jpg""]","",""
"","4133","similarity","55","325474","0.0-6.0-49.0","6","[""img/0881/adc02f34-ce97-4aef-850f-00519df06fd7.jpg"",""img/0758/e1ba5e53-addc-436a-b428-d34fc1b130dc.jpg""]","",""
"","4157","similarity","56","330631","0.0-6.0-50.0","5","[""img/0766/d5d38751-8fa5-476f-93e9-86ed2d9045ef.jpg"",""img/0769/f73c5138-2f4c-4354-981c-129dff9cc734.jpg""]","",""
"","3694","similarity","57","335328","0.0-6.0-51.0","5","[""img/0875/5a1e5100-0d94-4fec-bbe9-ca9894d2cf8e.jpg"",""img/0866/d266fece-59b3-46fa-b69f-96f6efb81b59.jpg""]","",""
"","3733","similarity","58","340064","0.0-6.0-52.0","6","[""img/0894/a98416c0-51e2-4960-85da-d81d8688b9d5.jpg"",""img/0904/0d25eb24-bb20-4e8d-9787-8b489558b4cb.jpg""]","",""
"","3869","similarity","59","344936","0.0-6.0-53.0","3","[""img/0758/d57c2592-a317-4f63-91be-91a3a9afd222.jpg"",""img/0769/c7cfacc3-7f07-46ff-9f5d-8073f4c4679b.jpg""]","",""
"","3405","similarity","60","349344","0.0-6.0-54.0","5","[""img/0902/f3cfec34-482c-4bdb-9c92-19ea6cfce183.jpg"",""img/0874/adf9a8f1-c40b-402b-b95b-1e85a54a7b62.jpg""]","",""
"","3238","similarity","61","353584","0.0-6.0-55.0","5","[""img/0903/b7e3723f-fd03-4f3d-8820-f19496463a34.jpg"",""img/0862/064818ee-13d5-4618-bb24-21c7368ea278.jpg""]","",""
"","3077","similarity","62","357664","0.0-6.0-56.0","4","[""img/0866/8efcaa46-83ab-4dee-a35f-850402aa21ae.jpg"",""img/0894/2d2db7b3-e8a3-499b-b63a-14f51bf73882.jpg""]","",""
"","4885","similarity","63","363552","0.0-6.0-57.0","3","[""img/0867/f8159067-056c-41f1-a136-c529fe5e970a.jpg"",""img/0904/2fd488e9-960f-41f7-8a44-33375f7d5051.jpg""]","",""
"","5078","similarity","64","369632","0.0-6.0-58.0","5","[""img/0875/527ced51-8e53-4aab-ab05-86df219104c0.jpg"",""img/0881/d373cb9f-a719-4549-a2a4-82def79fb2a5.jpg""]","",""
"","3338","similarity","65","373976","0.0-6.0-59.0","2","[""img/0866/386235d2-6857-41e7-88a8-25cfc3430025.jpg"",""img/0860/4a022222-056d-461c-ab02-39fac9647552.jpg""]","",""
"","3068","similarity","66","378048","0.0-6.0-60.0","2","[""img/0903/a0673b55-6040-47fe-9040-24bca27ca3c9.jpg"",""img/0866/c446214b-a368-4c65-ae39-ea46894256ab.jpg""]","",""
"","3421","similarity","67","382471","0.0-6.0-61.0","5","[""img/0860/29a21a9f-54bb-4093-ad3f-04823ceaa89f.jpg"",""img/0875/dbdd643e-6d0e-4a5c-ab57-b9c29b9c981a.jpg""]","",""
"","3331","similarity","68","386804","0.0-6.0-62.0","5","[""img/0898/08c72dac-f8ad-407a-9ce6-8c9a5d679c3a.jpg"",""img/0862/ee3b7bff-4a70-4e84-9bea-4a565e456acb.jpg""]","",""
"","4173","similarity","69","391980","0.0-6.0-63.0","4","[""img/0902/d3e55000-c839-4bf9-9b9b-4af0a9925af1.jpg"",""img/0766/ef3b15ce-abb7-4292-ad93-aec8e8b50520.jpg""]","",""
"","2956","similarity","70","395940","0.0-6.0-64.0","5","[""img/0758/20497cbe-ddae-489e-86e2-ab06985ed07c.jpg"",""img/0864/c22faebd-9c53-47bc-ada3-b9a30c688e75.jpg""]","",""
"","4477","similarity","71","401420","0.0-6.0-65.0","3","[""img/0894/2217bdcd-23a7-42d3-823b-23f2488d7e87.jpg"",""img/0860/e8b8c51e-1834-4875-8b61-6c5bc9b178bd.jpg""]","",""
"","4756","similarity","72","407180","0.0-6.0-66.0","3","[""img/0899/25ae6ec8-9565-49fe-a8bb-8d0666f52716.jpg"",""img/0868/7b212364-ff5f-4e28-9241-7eb6ea00161b.jpg""]","",""
"","3317","similarity","73","411500","0.0-6.0-67.0","3","[""img/0866/4a87911a-d5be-4d4e-ab8e-3d1f581bf507.jpg"",""img/0862/fb26cb07-d5a9-4653-813c-f41609f26cd5.jpg""]","",""
"","2741","similarity","74","415244","0.0-6.0-68.0","5","[""img/0860/94ef7afc-e0e6-4a15-98c6-0bfac82bc832.jpg"",""img/0758/3ddd05d3-557e-4ee7-8b78-9d2d681d8ae2.jpg""]","",""
"","2973","similarity","75","419219","0.0-6.0-69.0","2","[""img/0902/3b243e54-0803-4c29-af42-4037c2118495.jpg"",""img/0867/a749dddb-69f0-44a6-acdc-2bf295cf6dcc.jpg""]","",""
"","3702","similarity","76","423924","0.0-6.0-70.0","3","[""img/0862/d0ca4c78-fc35-46ed-bdcc-8e124283c53e.jpg"",""img/0901/b453df0b-4c39-49bb-8ced-6127efffa898.jpg""]","",""
"","4445","similarity","77","429372","0.0-6.0-71.0","5","[""img/0867/26611f4e-d694-4460-b7e2-43c62753ddc3.jpg"",""img/0866/f756f7d1-9ad8-4a34-9ef6-7a443d705bfe.jpg""]","",""
"","5157","similarity","78","435531","0.0-6.0-72.0","5","[""img/0860/8fdba999-b946-4c7d-9891-336018b563ef.jpg"",""img/0904/b5855d6a-7ef9-46ca-9215-6e9fa046e543.jpg""]","",""
"","3343","similarity","79","439876","0.0-6.0-73.0","3","[""img/0875/f87b67d7-c33e-40d1-b281-248c4be1cb6e.jpg"",""img/0899/4408c14d-c168-4a7d-96f6-bc87bfb58f83.jpg""]","",""
"","3325","similarity","80","444204","0.0-6.0-74.0","3","[""img/0899/565ccdd9-0933-4536-a625-3c0e25a713dd.jpg"",""img/0758/eabcd7a8-56ad-4fd2-bc24-90f6b7b33265.jpg""]","",""
"","3290","similarity","81","451208","0.0-6.0-75.0","5","[""img/0862/ad593cc7-cabe-4bb7-8e14-8a447a0717b4.jpg"",""img/0875/3ecb367d-e9eb-4826-8aaa-7aa72fb98019.jpg""]","",""
"","6119","similarity","82","458329","0.0-6.0-76.0","2","[""img/0901/d61f267a-c492-4db6-9bfb-61efd49cf072.jpg"",""img/0894/11674fa4-285d-44e2-939f-2228c6a64080.jpg""]","",""
"","2773","similarity","83","462105","0.0-6.0-77.0","4","[""img/0766/535849cc-ff5d-4df9-8f31-0ce94a97d571.jpg"",""img/0758/6e95579b-5166-487c-b8cb-e417c6a218e3.jpg""]","",""
"","3565","similarity","84","466673","0.0-6.0-78.0","5","[""img/0894/76c1201f-8524-4865-85e6-dda8cb4ac986.jpg"",""img/0764/03c07b98-3f18-4b71-bb70-ecff564a78d1.jpg""]","",""
"","4909","similarity","85","472584","0.0-6.0-79.0","4","[""img/0860/71e1aad0-2cdf-43bb-94a4-a8c016997c30.jpg"",""img/0867/7d1c497b-c1b3-4ed8-abb5-d7f73306015f.jpg""]","",""
"","3063","similarity","86","476649","0.0-6.0-80.0","5","[""img/0898/a8f16b02-e19f-423b-86c3-a36562ae1f9b.jpg"",""img/0901/77087ed2-6e12-4329-b2a5-605bca6d972d.jpg""]","",""
"","4389","similarity","87","482041","0.0-6.0-81.0","4","[""img/0874/1016b306-087c-4afc-aa08-fa527b28dc76.jpg"",""img/0764/e0788029-9d7f-414c-b747-46d2a99f7c86.jpg""]","",""
"","6725","similarity","88","489772","0.0-6.0-82.0","4","[""img/0899/d60714ae-98d7-4564-8c98-94dba1351135.jpg"",""img/0862/53a9cf7c-93c4-41b9-952f-07d17f7a17b2.jpg""]","",""
"","2769","similarity","89","493545","0.0-6.0-83.0","3","[""img/0766/2da002a4-05c9-4f5c-9ed7-433b4183e273.jpg"",""img/0901/12da1841-e611-435c-9719-109413d536a8.jpg""]","",""
"","5540","similarity","90","500089","0.0-6.0-84.0","5","[""img/0881/d1982897-8d8d-4704-a940-1ee5d07a1f15.jpg"",""img/0898/cd3aaa3f-efa9-4ab3-8d6f-a6a9273ddf42.jpg""]","",""
"","4245","similarity","91","505336","0.0-6.0-85.0","3","[""img/0868/e0aff734-077f-40dd-9781-74821abd3621.jpg"",""img/0860/15b24a61-25be-4356-9eac-5ce95d0cb4a4.jpg""]","",""
"","3907","similarity","92","510245","0.0-6.0-86.0","2","[""img/0758/a085b443-b5d7-4cb2-9ad4-b9dab0fc23f1.jpg"",""img/0868/4e626425-63c8-484a-8a1d-e66ee4e0bef8.jpg""]","",""
"","5069","similarity","93","516317","0.0-6.0-87.0","4","[""img/0864/1ebbc554-99fa-49f9-8799-317375a79820.jpg"",""img/0894/7f2f31fd-6618-41c6-b65a-0fd8b2851bc9.jpg""]","",""
"","2565","similarity","94","519884","0.0-6.0-88.0","3","[""img/0866/be24ab58-230e-4db8-9f45-ff04c9aec6bb.jpg"",""img/0902/d2c34af0-8c50-437d-8cc3-619195a3e8ba.jpg""]","",""
"","3221","similarity","95","524108","0.0-6.0-89.0","3","[""img/0769/b664b502-a86c-46c1-ad6f-5ebffc2e1bd3.jpg"",""img/0867/1719a35d-f085-48c0-9099-16c94fe418b4.jpg""]","",""
"","3175","similarity","96","528285","0.0-6.0-90.0","5","[""img/0874/99f6563c-8a8d-4c1c-a41d-667b618c3fd5.jpg"",""img/0875/a4935837-7d3c-4df6-88c1-36a94d4991ca.jpg""]","",""
"","3173","similarity","97","532461","0.0-6.0-91.0","5","[""img/0864/87c467d3-abca-482f-ad80-3766c21b1bb3.jpg"",""img/0874/3ce41e7c-40c8-4d58-a546-171114521796.jpg""]","",""
"","4069","similarity","98","537533","0.0-6.0-92.0","4","[""img/0881/54ea8e77-c7e5-4197-b7fa-00b7020849a7.jpg"",""img/0862/99a99e39-8355-44ec-b993-e7bcec111e1c.jpg""]","",""
"","3252","similarity","99","541788","0.0-6.0-93.0","5","[""img/0864/efcfbb1b-8197-44c9-b723-40d6c608dd3c.jpg"",""img/0881/609a5e93-38b5-4940-8627-2bf8fad7f802.jpg""]","",""
"","4343","similarity","100","547133","0.0-6.0-94.0","3","[""img/0899/4f7bc593-8ddd-4da3-a0b9-84da730d3370.jpg"",""img/0901/d6d15b1c-4a30-4f74-a3fd-d4c8ee4169ca.jpg""]","",""
"","3901","similarity","101","552037","0.0-6.0-95.0","3","[""img/0874/8cdb1c07-1c32-46d2-981c-3636560fa6e5.jpg"",""img/0766/d8221e53-2300-4d99-ae1b-0bfb0eabe579.jpg""]","",""
"","3173","similarity","102","556213","0.0-6.0-96.0","4","[""img/0881/633c6f40-56d9-4b48-bf1c-ecd83116eabb.jpg"",""img/0899/7f9d45d0-b2c6-40d3-aa41-c207db2c411b.jpg""]","",""
"","2901","similarity","103","560116","0.0-6.0-97.0","5","[""img/0862/eefa5588-9efd-4591-aa5f-a2e17c7d7bcc.jpg"",""img/0902/40d0b6ec-3907-4573-b227-e7d8e9cad1c3.jpg""]","",""
"","3959","similarity","104","565077","0.0-6.0-98.0","5","[""img/0899/06b0fc99-0581-461a-9913-d1a5a941ac61.jpg"",""img/0764/978aede9-4590-4ad0-b234-135c83e5d669.jpg""]","",""
"","2665","similarity","105","568746","0.0-6.0-99.0","5","[""img/0758/d41c06bf-ebaf-454b-91c6-1a17f917b659.jpg"",""img/0862/cdaed51d-9e2f-4807-801a-4663c40077e2.jpg""]","",""
"","4549","similarity","106","574297","0.0-6.0-100.0","4","[""img/0764/e48e6c6f-9e28-420f-836a-8043b2319bb4.jpg"",""img/0898/04e39a7a-fcf6-4156-ab0e-f5871f335e1c.jpg""]","",""
"","3287","similarity","107","578586","0.0-6.0-101.0","5","[""img/0901/04a53755-6da5-44d4-a7a6-48a6bc0a2280.jpg"",""img/0902/62f11694-7ed7-4cb7-8a73-9e95c43824e7.jpg""]","",""
"","4037","similarity","108","583627","0.0-6.0-102.0","2","[""img/0764/8389e74f-e0e0-435d-945f-da1f4c92ccb6.jpg"",""img/0868/1a62b2b2-18f5-466e-b564-5176a57c565e.jpg""]","",""
"","4331","similarity","109","588962","0.0-6.0-103.0","5","[""img/0769/688d0c52-ad73-4065-a5eb-f8c10d076bff.jpg"",""img/0881/62a64f90-7a72-4aee-a1a1-0c548ac9bdda.jpg""]","",""
"","3901","similarity","110","593865","0.0-6.0-104.0","3","[""img/0864/65210d57-1153-4657-886a-32e758f49b4a.jpg"",""img/0769/7c50e5f5-cc38-4d48-b009-fbe17bcea61c.jpg""]","",""
"","2798","similarity","111","597667","0.0-6.0-105.0","6","[""img/0866/0207e9a2-7dbb-40b5-9459-b472aaeceb2a.jpg"",""img/0868/179a5502-ab5c-478e-8263-5a1fbcc101d2.jpg""]","",""
"","3099","similarity","112","601770","0.0-6.0-106.0","3","[""img/0868/c8ac40c7-6904-4e13-8d61-c75d3052dc4e.jpg"",""img/0862/57b6f83f-c763-4858-830d-102f97bfefbf.jpg""]","",""
"","4013","similarity","113","606785","0.0-6.0-107.0","5","[""img/0766/33519c22-aaa4-49d7-8d49-ab551db1945e.jpg"",""img/0898/5f699581-3853-4547-856c-12f419ba5af7.jpg""]","",""
"","2981","similarity","114","610769","0.0-6.0-108.0","4","[""img/0898/661621d4-a14e-487c-8c74-354134a29710.jpg"",""img/0864/e8bd659f-aa43-4748-877e-3118e8b4e189.jpg""]","",""
"","2823","similarity","115","614594","0.0-6.0-109.0","2","[""img/0868/6a28c3b0-3d76-498a-9fb7-ddafc665eca8.jpg"",""img/0902/2a7ac123-414a-476a-9a96-4757b924baef.jpg""]","",""
"","3117","similarity","116","618714","0.0-6.0-110.0","5","[""img/0904/2c98dc56-88d1-4fb5-a999-b6a7861f65f0.jpg"",""img/0764/974d52cc-6318-4e7a-b294-2f3e92ff800f.jpg""]","",""
"","3333","similarity","117","623050","0.0-6.0-111.0","3","[""img/0894/b2d2f66e-e480-46da-a02a-6d0c6b285d78.jpg"",""img/0875/fb732ab5-013a-4366-9f65-27811ed157e9.jpg""]","",""
"","2461","similarity","118","626514","0.0-6.0-112.0","2","[""img/0868/4a8a45ed-2c4f-421b-9564-409a33ecd26c.jpg"",""img/0874/995f0332-0439-4eb4-add3-957335dbf6d9.jpg""]","",""
"","2939","similarity","119","634926","0.0-6.0-113.0","6","[""img/0904/06dacdc5-2206-4fb8-92b7-88042d22833c.jpg"",""img/0898/c3cecf20-f7fd-45fa-97d0-dc0a63e8d6c0.jpg""]","",""
"","4254","similarity","120","640183","0.0-6.0-114.0","3","[""img/0860/524b2e98-5767-4d53-942c-ebae6925659b.jpg"",""img/0766/00891401-e4c9-4ce1-bc19-f70740d174bc.jpg""]","",""
"","3093","similarity","121","644278","0.0-6.0-115.0","4","[""img/0894/3664e04c-c6d3-4c9b-afb6-25d89974b174.jpg"",""img/0874/31e22c7c-99aa-40b1-bf03-dd73fa2df4d6.jpg""]","",""
"","3510","similarity","122","648791","0.0-6.0-116.0","5","[""img/0899/0adc0bc3-6fca-4078-be6f-d45ddf1653d5.jpg"",""img/0903/f1fa0f8d-e62b-4b4a-a174-31a0fabfe61b.jpg""]","",""
"","3110","similarity","123","652903","0.0-6.0-117.0","4","[""img/0881/445edb15-bd7f-4af3-8bd5-c6ad9677bb31.jpg"",""img/0764/50f1b062-d608-4bc0-ab25-b872dcf2ed93.jpg""]","",""
"","3829","similarity","124","657734","0.0-6.0-118.0","3","[""img/0903/5995f4a8-fa82-46f8-8760-fd7800a5ca34.jpg"",""img/0769/db94b61b-a5a7-4861-9d32-7b02ad194fb0.jpg""]","",""
"","3093","similarity","125","661830","0.0-6.0-119.0","3","[""img/0901/d4d09bf5-093e-4050-838e-7c738be8e63c.jpg"",""img/0904/56e73f28-7e64-489b-a161-e6b1a063878d.jpg""]","",""
"","4447","similarity","126","667282","0.0-6.0-120.0","4","[""img/0860/b03b963d-949b-4d8d-b19c-4950c89eeca2.jpg"",""img/0881/f037e3b0-09cb-4a83-b2d9-6a71fe474e63.jpg""]","",""
"","2753","similarity","127","671039","0.0-6.0-121.0","5","[""img/0758/f61ecdf8-a7d4-4db0-b84d-be46f7cfaffc.jpg"",""img/0874/29830da7-be5f-44e5-b141-652a0ccf7269.jpg""]","",""
"","3189","similarity","128","675231","0.0-6.0-122.0","3","[""img/0901/a6776381-91fe-43f8-ab73-261d318f95fd.jpg"",""img/0769/1afb527f-9887-428c-bd26-a12c2f9efb68.jpg""]","",""
"","4957","similarity","129","681190","0.0-6.0-123.0","5","[""img/0902/44cd9b7e-fdfb-4f78-90de-8d4c9d279365.jpg"",""img/0904/b7c2a2c8-df33-4473-b3d4-ff7147c60db3.jpg""]","",""
"","4846","similarity","130","687039","0.0-6.0-124.0","3","[""img/0899/a05bea16-2bb4-4cb9-b8fb-4ff975db6971.jpg"",""img/0864/a248adb3-c70b-4652-b7a3-776d2a1e904b.jpg""]","",""
"","2841","similarity","131","690883","0.0-6.0-125.0","2","[""img/0766/3c526a07-9e0a-4ae2-8142-00085f0127da.jpg"",""img/0868/15dd6fd7-791e-4b53-b203-195d617521a4.jpg""]","",""
"","4260","similarity","132","696146","0.0-6.0-126.0","3","[""img/0764/438c0217-036f-43c9-9b87-f43144e46011.jpg"",""img/0864/1d15626a-2f7c-410f-819c-0fa2c967e95e.jpg""]","",""
"","5054","similarity","133","702203","0.0-6.0-127.0","2","[""img/0899/8abe6c69-822c-436c-9bf2-96c818b49ba5.jpg"",""img/0866/bf14b5bd-fb55-47db-86b9-4f8aeb9a6dad.jpg""]","",""
"","4597","similarity","134","707803","0.0-6.0-128.0","1","[""img/0901/c6df1a21-44ed-47c2-960e-7c52220e329e.jpg"",""img/0881/4da99fdd-1f40-4bbb-8e21-8833eef313f5.jpg""]","",""
"","2917","similarity","135","711725","0.0-6.0-129.0","6","[""img/0898/e167334e-cc1d-4986-b3b1-c7bc7da64baa.jpg"",""img/0903/776b74ee-a8ab-4ab8-a78d-097c0747538d.jpg""]","",""
"","2875","similarity","136","715602","0.0-6.0-130.0","3","[""img/0894/6aa5545f-fa7d-4286-bbaa-aaf34dc7ec96.jpg"",""img/0867/cc72ed48-7704-422c-86d6-467a1145287a.jpg""]","",""
"","4855","similarity","137","721459","0.0-6.0-131.0","5","[""img/0874/ca23d307-fc00-4d7d-9106-584c6eb21b4d.jpg"",""img/0903/365f176c-25a4-4973-bd3c-279bf1b39476.jpg""]","",""
"","2861","similarity","138","725323","0.0-6.0-132.0","3","[""img/0899/56a605c3-d0a2-4215-89e1-779279d85a7c.jpg"",""img/0898/f3a3f225-1248-4ac7-b93b-f0ff28485bf3.jpg""]","",""
"","3492","similarity","139","729819","0.0-6.0-133.0","3","[""img/0867/6e19c858-b606-45b2-a4c6-910a73f1d82c.jpg"",""img/0764/b887d7c6-aa81-4637-af8e-05135757ac59.jpg""]","",""
"","3693","similarity","140","734514","0.0-6.0-134.0","3","[""img/0866/620cd1aa-0800-4414-8f6e-90342e7a99ad.jpg"",""img/0769/662ab839-88d1-4ebf-af05-9b2980cad943.jpg""]","",""
"","2701","similarity","141","738220","0.0-6.0-135.0","5","[""img/0860/18dfed73-e36b-4487-a8bd-0b8cff8e3668.jpg"",""img/0898/ec565187-2e31-4fdd-9a5c-153d0c789ae0.jpg""]","",""
"","5460","similarity","142","744683","0.0-6.0-136.0","3","[""img/0881/566f45f8-5fed-4479-a60f-26377e60a62d.jpg"",""img/0903/24477210-856c-4550-9de0-9f85a32762eb.jpg""]","",""
"","2660","similarity","143","748346","0.0-6.0-137.0","5","[""img/0894/bd34223a-2f66-4e16-9d18-193a746b69ff.jpg"",""img/0766/ba35c0fc-4d5b-490d-959e-c94b279cdd02.jpg""]","",""
"","5155","similarity","144","754503","0.0-6.0-138.0","3","[""img/0860/9593362c-9fe5-4d12-9735-6000a11f6aa5.jpg"",""img/0764/39a9fc7e-b863-432c-9374-de43983f31a5.jpg""]","",""
"","4164","similarity","145","759671","0.0-6.0-139.0","4","[""img/0769/965c3c44-d9e5-47c5-b61a-2bbdf4215d9a.jpg"",""img/0902/1f4a4c62-68c1-4993-b213-05652a173ed1.jpg""]","",""
"","3547","similarity","146","764223","0.0-6.0-140.0","5","[""img/0904/4b8daf2a-13a9-4ea9-9e0b-b265b6e933e7.jpg"",""img/0903/8c358e9e-a4f4-466e-8b93-7aec0d2358e8.jpg""]","",""
"","2988","similarity","147","768215","0.0-6.0-141.0","5","[""img/0764/fb7d4a20-a475-465e-a74f-aa39a0d33d16.jpg"",""img/0769/14d393ce-e5be-4ca1-86ce-cc27d4b6074c.jpg""]","",""
"","3492","similarity","148","772711","0.0-6.0-142.0","5","[""img/0902/9f543501-3cf1-45a7-a2f1-eeca87cc15b9.jpg"",""img/0881/db77fe00-aeb0-4d1d-aa66-f3a96fd077e4.jpg""]","",""
"","3349","similarity","149","777063","0.0-6.0-143.0","2","[""img/0866/a04d37f0-99dd-478a-b6c6-58b215138f84.jpg"",""img/0864/ef9cbca0-4be8-435d-ad49-977259e80409.jpg""]","",""
"","2948","similarity","150","781015","0.0-6.0-144.0","6","[""img/0902/8065aa6b-4aef-4368-afa2-02c6465ca582.jpg"",""img/0898/40f99fb2-64d2-4e72-8a7f-a1cf60741e69.jpg""]","",""
"","2923","similarity","151","784944","0.0-6.0-145.0","5","[""img/0862/de9ad88c-b522-430a-8ee9-eb06a9f85df5.jpg"",""img/0864/66091c27-e588-4476-8af9-265dc6be4156.jpg""]","",""
"","2892","similarity","152","788840","0.0-6.0-146.0","3","[""img/0875/34132396-d896-4c2d-8087-646dd867e769.jpg"",""img/0898/26c41340-15bd-4ead-8fe4-c0d0ddca09c2.jpg""]","",""
"","4331","similarity","153","794177","0.0-6.0-147.0","7","[""img/0874/eba003b4-cdab-4eee-8bc3-f064c7d94165.jpg"",""img/0881/b1a136f7-8511-4d3a-a0f6-3879acf1e1a1.jpg""]","",""
"","4942","similarity","154","800127","0.0-6.0-148.0","4","[""img/0758/7ffbc76b-1fc1-432c-8f7e-9ec8d1b3f643.jpg"",""img/0894/c505c65a-cde2-4f2c-8cde-f8676f7c894d.jpg""]","",""
"","3172","similarity","155","804304","0.0-6.0-149.0","3","[""img/0904/5cceabc9-de1d-4c67-989b-c28a4ef77e79.jpg"",""img/0864/da39ad34-04e0-40d4-a724-c08d53e0ea09.jpg""]","",""
"","3274","similarity","156","808585","0.0-6.0-150.0","5","[""img/0769/1d8734c4-77ab-4165-9e71-5cfe672ff01c.jpg"",""img/0899/f95cbdb4-f804-4f5d-ad76-373ad343e658.jpg""]","",""
"","2979","similarity","157","816988","0.0-6.0-151.0","4","[""img/0764/b8e23f4f-ff19-4472-ad9b-2f85548ebca0.jpg"",""img/0903/97a42b34-5462-4665-88c7-83c014b33d24.jpg""]","",""
"","2876","similarity","158","820869","0.0-6.0-152.0","3","[""img/0903/59defeb8-98bd-4570-a2f8-9bd189e68ef4.jpg"",""img/0864/e336a4c5-6648-4fd7-b2f6-93a3fb83f8c6.jpg""]","",""
"","4109","similarity","159","825983","0.0-6.0-153.0","4","[""img/0894/10f22b96-040c-44f4-950b-a4963f3f506c.jpg"",""img/0881/ee44e27f-d662-4608-b265-e7ffa19b216f.jpg""]","",""
"","2770","similarity","160","829759","0.0-6.0-154.0","5","[""img/0875/5a7c4e35-6514-4e12-8879-d16071da4cd6.jpg"",""img/0867/075e0f95-856b-4cbb-acf5-092393aaf04e.jpg""]","",""
"","2690","similarity","161","833454","0.0-6.0-155.0","3","[""img/0867/85a96c62-548f-4994-9553-819e03c3135a.jpg"",""img/0758/dd559618-7f09-4a07-8018-d311c4a5ea29.jpg""]","",""
"","3177","similarity","162","837638","0.0-6.0-156.0","1","[""img/0868/09a9ef4d-d000-4cfa-a6aa-ebec7c2edeb4.jpg"",""img/0901/5657dd86-0ff9-4753-ba2b-9dfb223e5c89.jpg""]","",""
"","3188","similarity","163","841831","0.0-6.0-157.0","6","[""img/0769/76eaa4a3-dfe9-4dc1-9efb-caebe86264e1.jpg"",""img/0894/e6385e52-6c35-43bd-b0af-bc803d107b11.jpg""]","",""
"","4449","similarity","164","847286","0.0-6.0-158.0","3","[""img/0904/65e2b70a-b184-4da3-b5c0-5038bdf9469a.jpg"",""img/0758/e38fd80d-18d0-42f3-b848-f930788e8bd7.jpg""]","",""
"","3003","similarity","165","851295","0.0-6.0-159.0","3","[""img/0874/7e4f2150-3b59-4a36-b5da-a4e0ba410531.jpg"",""img/0904/2f88ce53-02d0-4f95-a082-182c56a0eeb4.jpg""]","",""
"","3649","similarity","166","855950","0.0-6.0-160.0","3","[""img/0864/e02eddb5-f468-499c-91bf-f7be3ffe979b.jpg"",""img/0901/fb0a8e69-7f19-4e6e-a6bb-a48f97f9b4f3.jpg""]","",""
"","4292","similarity","167","861246","0.0-6.0-161.0","3","[""img/0898/8605a25b-6895-476d-8c13-df7a83f96093.jpg"",""img/0866/a15b02be-11bb-43e3-b0e0-ecc3bd7dfc49.jpg""]","",""
"","2675","similarity","168","864927","0.0-6.0-162.0","3","[""img/0766/a0270213-fa0e-4972-8b56-228c3e01ff90.jpg"",""img/0903/ea75f240-fb62-4edb-a709-83e858b202c0.jpg""]","",""
"","4570","similarity","169","870502","0.0-6.0-163.0","4","[""img/0860/99c589b9-9140-4d17-90c0-b344323edcda.jpg"",""img/0899/51a7a498-98c7-42d7-bca8-bc2d8f0b5831.jpg""]","",""
"","2939","similarity","170","874446","0.0-6.0-164.0","3","[""img/0766/27f54113-8561-4568-9ffe-0a1650ae65ec.jpg"",""img/0862/4f0a3b4c-afbf-486e-b248-1d54982f54b4.jpg""]","",""
"","3222","similarity","171","878674","0.0-6.0-165.0","5","[""img/0898/881e2a85-d5c2-49be-a0c6-8a6ce2c4af08.jpg"",""img/0894/9b1333fd-3561-43bf-aee5-99b7b7ca3dc3.jpg""]","",""
"","3889","similarity","172","883569","0.0-6.0-166.0","3","[""img/0867/98d8cd96-1476-4fe0-a3a3-04f875500a1b.jpg"",""img/0766/a754e4b6-5019-4cf4-8f58-34c20547a1f5.jpg""]","",""
"","3195","similarity","173","887769","0.0-6.0-167.0","5","[""img/0904/9dd5708f-3f8b-46a9-b49f-2f2fab87b357.jpg"",""img/0862/00c06b00-3b73-44e9-bc1e-c5aafb438321.jpg""]","",""
"","2883","similarity","174","891657","0.0-6.0-168.0","3","[""img/0866/6f2a90d7-14f1-4f1b-bd64-fc0af6b9fe44.jpg"",""img/0874/85eb9b8a-c4c6-4e5a-b8e7-363a87a82054.jpg""]","",""
"","3330","similarity","175","895994","0.0-6.0-169.0","3","[""img/0903/3e9ee8a5-eb66-47f5-8973-8a5af1ddc87e.jpg"",""img/0868/fd307a36-9a3a-47d7-ab7c-f810d0b35040.jpg""]","",""
"","3146","similarity","176","900146","0.0-6.0-170.0","5","[""img/0769/8c7cf147-1780-4d5c-8ddf-5ea23ff03ac9.jpg"",""img/0904/696ebb60-8891-417a-91fd-c53218907a95.jpg""]","",""
"","4146","similarity","177","905297","0.0-6.0-171.0","2","[""img/0875/99698b4d-b4a1-44bc-8c83-8ea755bbbf61.jpg"",""img/0764/ba0c0955-acbb-457d-b1c2-f006b88121d5.jpg""]","",""
"","3515","similarity","178","909817","0.0-6.0-172.0","5","[""img/0860/c5ccd1a4-4bb7-48e1-9b25-72cfaf06909b.jpg"",""img/0903/2a9c8033-3e70-47fa-816d-97ee1813a3a3.jpg""]","",""
"","3540","similarity","179","914361","0.0-6.0-173.0","1","[""img/0864/3651d070-2fc5-4848-b6a6-088a2d9ac5c9.jpg"",""img/0867/db7e032f-162b-46f5-ae67-2b29679adee4.jpg""]","",""
"","3811","similarity","180","919177","0.0-6.0-174.0","2","[""img/0868/8b0b8473-e2c0-4331-aa56-c3a5c29369da.jpg"",""img/0864/49150900-7f25-4ce8-8d10-9b47a71d1997.jpg""]","",""
"","3603","similarity","181","923784","0.0-6.0-175.0","3","[""img/0898/01bfe666-3510-4fc7-964f-d00d28732dc8.jpg"",""img/0769/75f7e514-0548-4329-b1e4-93c05e74f038.jpg""]","",""
"","3572","similarity","182","928361","0.0-6.0-176.0","7","[""img/0766/5d6e0d1d-4369-41f0-a64c-91f3503055c7.jpg"",""img/0764/5d6fa3ce-9083-410c-bbdb-336a49b94cfc.jpg""]","",""
"","4468","similarity","183","933832","0.0-6.0-177.0","3","[""img/0764/713cc27e-2338-4486-bfe9-5f5725fbd7a0.jpg"",""img/0866/9b38d691-1802-4959-ab3f-fc902f0e4ea6.jpg""]","",""
"","3266","similarity","184","938101","0.0-6.0-178.0","3","[""img/0902/b03129ba-b087-4558-af37-e8399d6217d6.jpg"",""img/0875/2e13d160-eea1-416b-aff1-d37ab99ecc1d.jpg""]","",""
"","3677","similarity","185","942780","0.0-6.0-179.0","5","[""img/0881/0c7068da-d0d9-4103-bda1-74ef7a2b32c3.jpg"",""img/0904/9b3568cc-3cf7-42be-9df3-fdafde7a58b8.jpg""]","",""
"","2927","similarity","186","946709","0.0-6.0-180.0","3","[""img/0874/93d1f8dc-acf2-4f03-bd8d-8ec35df276ed.jpg"",""img/0860/31ff6436-98bf-4652-bed2-40f627229568.jpg""]","",""
"","4092","similarity","187","951805","0.0-6.0-181.0","5","[""img/0769/8598a429-c671-4d2f-842c-32f681f5e412.jpg"",""img/0874/2c9464dd-8a23-4baa-ac94-1ba3af5c15cc.jpg""]","",""
"","3165","similarity","188","955973","0.0-6.0-182.0","6","[""img/0904/9d30eff1-46ef-4453-b11e-124ef8145c00.jpg"",""img/0766/989c5c7f-1aff-4442-ac63-9d46acf4a891.jpg""]","",""
"","3381","similarity","189","960356","0.0-6.0-183.0","5","[""img/0902/eb3e7e71-8ff1-4b88-a6a7-47e2c1ce1683.jpg"",""img/0764/23ea9375-f801-4a96-9925-7d453da887c7.jpg""]","",""
"","3111","similarity","190","964469","0.0-6.0-184.0","3","[""img/0769/8056889f-2b14-4782-bb25-b4e8896ab65b.jpg"",""img/0875/90da8d75-108a-44ad-b999-e21fee3860d3.jpg""]","",""
"","3741","similarity","191","969213","0.0-6.0-185.0","3","[""img/0867/f8488a47-94ee-4166-952c-44e16cf172f6.jpg"",""img/0903/005ad0de-4f52-433c-b515-dbe8d46184a3.jpg""]","",""
"","3549","similarity","192","973764","0.0-6.0-186.0","5","[""img/0862/ba89835a-408c-480b-8594-ed4ffa97eb5c.jpg"",""img/0769/0fe124d3-bcad-45f6-b64d-8f6eb8ee5251.jpg""]","",""
"","3734","similarity","193","978500","0.0-6.0-187.0","3","[""img/0766/fd74fdbb-ea40-4f3a-a091-38d08dfd636e.jpg"",""img/0866/07c9c966-3c8d-40e7-8128-92b2acbaed5d.jpg""]","",""
"","3983","similarity","194","983485","0.0-6.0-188.0","5","[""img/0769/f2740c58-7c02-433f-920b-746b0b75435b.jpg"",""img/0860/61fb959d-d4d9-4de4-9e4e-4fa62b4cfcd5.jpg""]","",""
"","4205","similarity","195","992636","0.0-6.0-189.0","2","[""img/0881/6b1189e6-232d-4042-8885-16dc7b10e0d4.jpg"",""img/0868/5fa7f9d0-f0e5-454c-8224-74d964818f56.jpg""]","",""
"[{""page_index"":0,""viewing_time"":6492}]","6492","instructions","196","1000128","0.0-7.0","","","",""
"","5828","image-multi-choice","197","1006969","0.0-8.0-0.0","","","{""Q0"":""Nashville Warbler""}","Nashville Warbler"
"","2893","image-multi-choice","198","1010873","0.0-8.0-1.0","","","{""Q0"":""Black-and-white Warbler""}","Black-and-white Warbler"
"","3925","image-multi-choice","199","1015809","0.0-8.0-2.0","","","{""Q0"":""Blackburnian Warbler""}","Townsend's Warbler"
"","7614","image-multi-choice","200","1024433","0.0-8.0-3.0","","","{""Q0"":""Lark Sparrow""}","Lark Sparrow"
"","2806","image-multi-choice","201","1028248","0.0-8.0-4.0","","","{""Q0"":""Yellow Warbler""}","Yellow Warbler"
"","4848","image-multi-choice","202","1034105","0.0-8.0-5.0","","","{""Q0"":""Orange-crowned Warbler""}","Orange-crowned Warbler"
"","3549","image-multi-choice","203","1038665","0.0-8.0-6.0","","","{""Q0"":""White-throated Sparrow""}","White-throated Sparrow"
"","3525","image-multi-choice","204","1043200","0.0-8.0-7.0","","","{""Q0"":""Fox Sparrow""}","Fox Sparrow"
"","11807","image-multi-choice","205","1056017","0.0-8.0-8.0","","","{""Q0"":""Vesper Sparrow""}","Song Sparrow"
"","5467","image-multi-choice","206","1062493","0.0-8.0-9.0","","","{""Q0"":""Blackburnian Warbler""}","Blackburnian Warbler"
"","10359","image-multi-choice","207","1073862","0.0-8.0-10.0","","","{""Q0"":""Lincoln's Sparrow""}","Vesper Sparrow"
"","2710","image-multi-choice","208","1077582","0.0-8.0-11.0","","","{""Q0"":""White-crowned Sparrow""}","White-crowned Sparrow"
"","4718","image-multi-choice","209","1083309","0.0-8.0-12.0","","","{""Q0"":""Chipping Sparrow""}","American Tree Sparrow"
"","4265","image-multi-choice","210","1088582","0.0-8.0-13.0","","","{""Q0"":""Tennessee Warbler""}","Tennessee Warbler"
"","4126","image-multi-choice","211","1093718","0.0-8.0-14.0","","","{""Q0"":""Magnolia Warbler""}","Magnolia Warbler"
"","3294","image-multi-choice","212","1098021","0.0-8.0-15.0","","","{""Q0"":""Northern Waterthrush""}","Northern Waterthrush"
"","11726","image-multi-choice","213","1110758","0.0-8.0-16.0","","","{""Q0"":""American Tree Sparrow""}","Chipping Sparrow"
"","7311","image-multi-choice","214","1119077","0.0-8.0-17.0","","","{""Q0"":""Swamp Sparrow""}","Swamp Sparrow"
"","4330","image-multi-choice","215","1124418","0.0-8.0-18.0","","","{""Q0"":""Lincoln's Sparrow""}","Lincoln's Sparrow"
"","2806","image-multi-choice","216","1128234","0.0-8.0-19.0","","","{""Q0"":""Ovenbird""}","Ovenbird"
