[{"view_history":"[{\"page_index\":0,\"viewing_time\":18272}]","rt":18275,"trial_type":"instructions","trial_index":0,"time_elapsed":18277,"internal_node_id":"0.0-0.0"},{"sim_score":7,"rt":7667,"stimulus":"[\"img/bluejay1.jpg\",\"img/bluejay2.jpg\"]","trial_type":"similarity_demo","trial_index":1,"time_elapsed":26964,"internal_node_id":"0.0-1.0"},{"view_history":"[{\"page_index\":0,\"viewing_time\":5246}]","rt":5247,"trial_type":"instructions","trial_index":2,"time_elapsed":33212,"internal_node_id":"0.0-2.0"},{"sim_score":1,"rt":5698,"stimulus":"[\"img/bluejay1.jpg\",\"img/cardinal1.jpg\"]","trial_type":"similarity_demo","trial_index":3,"time_elapsed":39919,"internal_node_id":"0.0-3.0"},{"view_history":"[{\"page_index\":0,\"viewing_time\":3602}]","rt":3603,"trial_type":"instructions","trial_index":4,"time_elapsed":44524,"internal_node_id":"0.0-4.0"},{"view_history":"[{\"page_index\":0,\"viewing_time\":26690}]","rt":26692,"trial_type":"instructions","trial_index":5,"time_elapsed":72217,"internal_node_id":"0.0-5.0"},{"sim_score":1,"rt":6214,"stimulus":"[\"img/0868/3a62db2d-97e9-44a3-b8e3-a48c6f0e423b.jpg\",\"img/0894/e5edf723-72a5-4673-8441-6c1734a8929b.jpg\"]","trial_type":"similarity","trial_index":6,"time_elapsed":79443,"internal_node_id":"0.0-6.0-0.0"},{"sim_score":1,"rt":6646,"stimulus":"[\"img/0898/68476bbb-34a1-42d9-8bc1-deab783d4489.jpg\",\"img/0758/3ddd05d3-557e-4ee7-8b78-9d2d681d8ae2.jpg\"]","trial_type":"similarity","trial_index":7,"time_elapsed":87097,"internal_node_id":"0.0-6.0-1.0"},{"sim_score":5,"rt":6004,"stimulus":"[\"img/0903/43ffd882-077a-40dd-a264-e58d519420a1.jpg\",\"img/0894/bd34223a-2f66-4e16-9d18-193a746b69ff.jpg\"]","trial_type":"similarity","trial_index":8,"time_elapsed":94114,"internal_node_id":"0.0-6.0-2.0"},{"sim_score":3,"rt":5521,"stimulus":"[\"img/0881/dea58fad-b4f1-41d9-bd3f-916eff19a3fd.jpg\",\"img/0766/6d32752d-aa05-40dc-9541-640b6e9d6fa1.jpg\"]","trial_type":"similarity","trial_index":9,"time_elapsed":100642,"internal_node_id":"0.0-6.0-3.0"},{"sim_score":5,"rt":6160,"stimulus":"[\"img/0864/1d15626a-2f7c-410f-819c-0fa2c967e95e.jpg\",\"img/0860/17b44a7d-c5ca-479f-9e87-f65a64f5c80e.jpg\"]","trial_type":"similarity","trial_index":10,"time_elapsed":107810,"internal_node_id":"0.0-6.0-4.0"},{"sim_score":4,"rt":6528,"stimulus":"[\"img/0902/d5e25767-e8ec-45f3-ac0a-7b4a6f7a9edc.jpg\",\"img/0899/5b56dd3e-3f49-47cc-af84-16da6457753b.jpg\"]","trial_type":"similarity","trial_index":11,"time_elapsed":115345,"internal_node_id":"0.0-6.0-5.0"},{"sim_score":3,"rt":7178,"stimulus":"[\"img/0868/15dd6fd7-791e-4b53-b203-195d617521a4.jpg\",\"img/0769/a1ce8d07-ba37-40de-bade-2778805521e0.jpg\"]","trial_type":"similarity","trial_index":12,"time_elapsed":123531,"internal_node_id":"0.0-6.0-6.0"},{"sim_score":3,"rt":5838,"stimulus":"[\"img/0764/83c93cce-18d1-4aa7-9e23-2c268afe0a46.jpg\",\"img/0901/a9b9c0a0-8aed-4888-a78a-65fb7e764d13.jpg\"]","trial_type":"similarity","trial_index":13,"time_elapsed":130380,"internal_node_id":"0.0-6.0-7.0"},{"sim_score":5,"rt":4218,"stimulus":"[\"img/0881/667e2147-d457-4f32-aa5f-6ab86e5848f1.jpg\",\"img/0866/d493a2c8-66eb-44b4-be02-2f327b700b7c.jpg\"]","trial_type":"similarity","trial_index":14,"time_elapsed":135606,"internal_node_id":"0.0-6.0-8.0"},{"sim_score":1,"rt":4345,"stimulus":"[\"img/0867/5e07b34d-b40f-4b1c-ac10-49975bace45f.jpg\",\"img/0899/25ae6ec8-9565-49fe-a8bb-8d0666f52716.jpg\"]","trial_type":"similarity","trial_index":15,"time_elapsed":140967,"internal_node_id":"0.0-6.0-9.0"},{"sim_score":1,"rt":4657,"stimulus":"[\"img/0875/34132396-d896-4c2d-8087-646dd867e769.jpg\",\"img/0766/b84598d0-5b41-4841-88b0-b441b48289f5.jpg\"]","trial_type":"similarity","trial_index":16,"time_elapsed":146630,"internal_node_id":"0.0-6.0-10.0"},{"sim_score":1,"rt":4666,"stimulus":"[\"img/0901/a0d65c84-3f20-476a-92d1-0c01e8019cf4.jpg\",\"img/0875/42910c99-5463-450a-a0f8-d4d060a11455.jpg\"]","trial_type":"similarity","trial_index":17,"time_elapsed":152302,"internal_node_id":"0.0-6.0-11.0"},{"sim_score":1,"rt":4280,"stimulus":"[\"img/0902/31abfa33-7cdb-44ad-968e-9f7b324d577a.jpg\",\"img/0860/29a21a9f-54bb-4093-ad3f-04823ceaa89f.jpg\"]","trial_type":"similarity","trial_index":18,"time_elapsed":157590,"internal_node_id":"0.0-6.0-12.0"},{"sim_score":4,"rt":7114,"stimulus":"[\"img/0874/3ce41e7c-40c8-4d58-a546-171114521796.jpg\",\"img/0867/1719a35d-f085-48c0-9099-16c94fe418b4.jpg\"]","trial_type":"similarity","trial_index":19,"time_elapsed":165711,"internal_node_id":"0.0-6.0-13.0"},{"sim_score":1,"rt":3689,"stimulus":"[\"img/0904/2c98dc56-88d1-4fb5-a999-b6a7861f65f0.jpg\",\"img/0866/a04d37f0-99dd-478a-b6c6-58b215138f84.jpg\"]","trial_type":"similarity","trial_index":20,"time_elapsed":170406,"internal_node_id":"0.0-6.0-14.0"},{"sim_score":1,"rt":4355,"stimulus":"[\"img/0758/7ee8bc8f-c40b-4b3a-84ec-3e83580622d4.jpg\",\"img/0902/51493fab-2a10-4385-aa88-bee3db441626.jpg\"]","trial_type":"similarity","trial_index":21,"time_elapsed":175767,"internal_node_id":"0.0-6.0-15.0"},{"sim_score":1,"rt":3152,"stimulus":"[\"img/0867/c71dc569-f49c-4397-8381-68b8d726736d.jpg\",\"img/0898/0c7dde4f-efce-4b7a-9387-6921635b7890.jpg\"]","trial_type":"similarity","trial_index":22,"time_elapsed":179928,"internal_node_id":"0.0-6.0-16.0"},{"sim_score":2,"rt":5398,"stimulus":"[\"img/0904/96e503ea-6630-4996-85f2-0237688ce441.jpg\",\"img/0868/fd307a36-9a3a-47d7-ab7c-f810d0b35040.jpg\"]","trial_type":"similarity","trial_index":23,"time_elapsed":186334,"internal_node_id":"0.0-6.0-17.0"},{"sim_score":2,"rt":5626,"stimulus":"[\"img/0766/51d3aab4-3d09-4dda-b99d-3dc7aaabc6f2.jpg\",\"img/0864/b3c4e378-28f0-4699-9338-2a257b4bca04.jpg\"]","trial_type":"similarity","trial_index":24,"time_elapsed":192967,"internal_node_id":"0.0-6.0-18.0"},{"sim_score":5,"rt":4428,"stimulus":"[\"img/0899/4408c14d-c168-4a7d-96f6-bc87bfb58f83.jpg\",\"img/0766/717fd72f-a281-499b-a5ba-5e2ecc4d4866.jpg\"]","trial_type":"similarity","trial_index":25,"time_elapsed":198403,"internal_node_id":"0.0-6.0-19.0"},{"sim_score":3,"rt":4304,"stimulus":"[\"img/0764/952d7adc-dc40-4aee-acce-18c2a1d02ea1.jpg\",\"img/0758/d41c06bf-ebaf-454b-91c6-1a17f917b659.jpg\"]","trial_type":"similarity","trial_index":26,"time_elapsed":203714,"internal_node_id":"0.0-6.0-20.0"},{"sim_score":2,"rt":4706,"stimulus":"[\"img/0901/bc47e078-bda4-40ed-b89a-bbd819164b95.jpg\",\"img/0874/a82926a3-0b43-4add-803c-d5f9ea7798ee.jpg\"]","trial_type":"similarity","trial_index":27,"time_elapsed":209427,"internal_node_id":"0.0-6.0-21.0"},{"sim_score":5,"rt":6104,"stimulus":"[\"img/0875/5a7c4e35-6514-4e12-8879-d16071da4cd6.jpg\",\"img/0758/53f35650-e455-4b53-8be4-c3c8271c6466.jpg\"]","trial_type":"similarity","trial_index":28,"time_elapsed":216538,"internal_node_id":"0.0-6.0-22.0"},{"sim_score":4,"rt":5489,"stimulus":"[\"img/0867/aa05d113-fc19-4756-a8eb-7878f580bc92.jpg\",\"img/0881/609a5e93-38b5-4940-8627-2bf8fad7f802.jpg\"]","trial_type":"similarity","trial_index":29,"time_elapsed":223034,"internal_node_id":"0.0-6.0-23.0"},{"sim_score":1,"rt":6323,"stimulus":"[\"img/0758/67c0be2f-9e91-48b3-8219-70ac0a1802fa.jpg\",\"img/0901/2a953e50-d237-405c-a38d-5ed21494c968.jpg\"]","trial_type":"similarity","trial_index":30,"time_elapsed":230363,"internal_node_id":"0.0-6.0-24.0"},{"sim_score":5,"rt":7039,"stimulus":"[\"img/0868/1a62b2b2-18f5-466e-b564-5176a57c565e.jpg\",\"img/0875/ebf7653f-ff45-4e9f-af58-2c042ab3cd2b.jpg\"]","trial_type":"similarity","trial_index":31,"time_elapsed":238411,"internal_node_id":"0.0-6.0-25.0"},{"sim_score":3,"rt":5570,"stimulus":"[\"img/0903/0e5c2854-42aa-48c0-9c3d-6e1ad2a400bd.jpg\",\"img/0901/a6c90438-fa7c-4418-ac7c-16c2e772dd98.jpg\"]","trial_type":"similarity","trial_index":32,"time_elapsed":244988,"internal_node_id":"0.0-6.0-26.0"},{"sim_score":4,"rt":5439,"stimulus":"[\"img/0894/b422d5c6-3c5a-49ae-a53e-7e88ac993f49.jpg\",\"img/0899/66bf4113-ee12-426c-84d2-ea410b6c803e.jpg\"]","trial_type":"similarity","trial_index":33,"time_elapsed":251434,"internal_node_id":"0.0-6.0-27.0"},{"sim_score":3,"rt":4474,"stimulus":"[\"img/0862/e8cc3bdf-cc43-4565-bccf-492626c70953.jpg\",\"img/0867/db7e032f-162b-46f5-ae67-2b29679adee4.jpg\"]","trial_type":"similarity","trial_index":34,"time_elapsed":256914,"internal_node_id":"0.0-6.0-28.0"},{"sim_score":4,"rt":6163,"stimulus":"[\"img/0864/afcba0a3-7e27-4757-b254-e9f05fad27e2.jpg\",\"img/0875/90da8d75-108a-44ad-b999-e21fee3860d3.jpg\"]","trial_type":"similarity","trial_index":35,"time_elapsed":264081,"internal_node_id":"0.0-6.0-29.0"},{"sim_score":4,"rt":5241,"stimulus":"[\"img/0862/00c06b00-3b73-44e9-bc1e-c5aafb438321.jpg\",\"img/0874/995f0332-0439-4eb4-add3-957335dbf6d9.jpg\"]","trial_type":"similarity","trial_index":36,"time_elapsed":270327,"internal_node_id":"0.0-6.0-30.0"},{"sim_score":2,"rt":4657,"stimulus":"[\"img/0903/8f7f9939-b8e6-433f-93dd-b362496c80a7.jpg\",\"img/0758/e38fd80d-18d0-42f3-b848-f930788e8bd7.jpg\"]","trial_type":"similarity","trial_index":37,"time_elapsed":275991,"internal_node_id":"0.0-6.0-31.0"},{"sim_score":1,"rt":3307,"stimulus":"[\"img/0866/07c9c966-3c8d-40e7-8128-92b2acbaed5d.jpg\",\"img/0901/3db47171-0139-4235-82cd-0b1787b6775f.jpg\"]","trial_type":"similarity","trial_index":38,"time_elapsed":280304,"internal_node_id":"0.0-6.0-32.0"},{"sim_score":2,"rt":5431,"stimulus":"[\"img/0874/ca23d307-fc00-4d7d-9106-584c6eb21b4d.jpg\",\"img/0899/1b3457ea-87d4-4946-a01c-aac1863ed46c.jpg\"]","trial_type":"similarity","trial_index":39,"time_elapsed":286744,"internal_node_id":"0.0-6.0-33.0"},{"sim_score":2,"rt":4474,"stimulus":"[\"img/0903/470acfd5-5571-4a7b-b3a4-28d87e098138.jpg\",\"img/0902/1f4a4c62-68c1-4993-b213-05652a173ed1.jpg\"]","trial_type":"similarity","trial_index":40,"time_elapsed":292223,"internal_node_id":"0.0-6.0-34.0"},{"sim_score":3,"rt":5443,"stimulus":"[\"img/0758/9fb5b2fe-3f00-4fe6-973c-1ce10d5f4cd5.jpg\",\"img/0866/9b38d691-1802-4959-ab3f-fc902f0e4ea6.jpg\"]","trial_type":"similarity","trial_index":41,"time_elapsed":298672,"internal_node_id":"0.0-6.0-35.0"},{"sim_score":2,"rt":5385,"stimulus":"[\"img/0875/3ecb367d-e9eb-4826-8aaa-7aa72fb98019.jpg\",\"img/0903/f10e9eb5-0c21-4a6a-944c-5f10a6d0fa4d.jpg\"]","trial_type":"similarity","trial_index":42,"time_elapsed":305063,"internal_node_id":"0.0-6.0-36.0"},{"sim_score":1,"rt":5177,"stimulus":"[\"img/0864/5f74a653-3bdc-4308-8cca-ac667dc22e1f.jpg\",\"img/0902/22ed3536-288b-452e-9777-0fa0ab94deb0.jpg\"]","trial_type":"similarity","trial_index":43,"time_elapsed":322546,"internal_node_id":"0.0-6.0-37.0"},{"sim_score":3,"rt":4633,"stimulus":"[\"img/0901/62315ff5-ed95-46b4-b099-92552079659b.jpg\",\"img/0867/bf560d4f-dee3-4f11-a385-705cc1aa5f3c.jpg\"]","trial_type":"similarity","trial_index":44,"time_elapsed":328187,"internal_node_id":"0.0-6.0-38.0"},{"sim_score":5,"rt":5128,"stimulus":"[\"img/0862/de9ad88c-b522-430a-8ee9-eb06a9f85df5.jpg\",\"img/0860/c5ccd1a4-4bb7-48e1-9b25-72cfaf06909b.jpg\"]","trial_type":"similarity","trial_index":45,"time_elapsed":334323,"internal_node_id":"0.0-6.0-39.0"},{"sim_score":5,"rt":5177,"stimulus":"[\"img/0867/179ab87a-8eac-4c52-a41f-2e48e3120f09.jpg\",\"img/0868/7b212364-ff5f-4e28-9241-7eb6ea00161b.jpg\"]","trial_type":"similarity","trial_index":46,"time_elapsed":340507,"internal_node_id":"0.0-6.0-40.0"},{"sim_score":5,"rt":4750,"stimulus":"[\"img/0904/4b8daf2a-13a9-4ea9-9e0b-b265b6e933e7.jpg\",\"img/0899/a048912c-b12c-40e3-90af-46b69b0cc4fe.jpg\"]","trial_type":"similarity","trial_index":47,"time_elapsed":346267,"internal_node_id":"0.0-6.0-41.0"},{"sim_score":1,"rt":5356,"stimulus":"[\"img/0862/fad1d7c1-8187-43c3-942a-0fc12183e48e.jpg\",\"img/0894/0130a973-d993-41f8-874a-fee23d9ac11f.jpg\"]","trial_type":"similarity","trial_index":48,"time_elapsed":352629,"internal_node_id":"0.0-6.0-42.0"},{"sim_score":1,"rt":4247,"stimulus":"[\"img/0875/5a1e5100-0d94-4fec-bbe9-ca9894d2cf8e.jpg\",\"img/0904/d23dd7be-7fe8-4435-82f7-bd592c01e6a1.jpg\"]","trial_type":"similarity","trial_index":49,"time_elapsed":357883,"internal_node_id":"0.0-6.0-43.0"},{"sim_score":1,"rt":4488,"stimulus":"[\"img/0874/93d1f8dc-acf2-4f03-bd8d-8ec35df276ed.jpg\",\"img/0898/26c41340-15bd-4ead-8fe4-c0d0ddca09c2.jpg\"]","trial_type":"similarity","trial_index":50,"time_elapsed":363379,"internal_node_id":"0.0-6.0-44.0"},{"sim_score":1,"rt":4864,"stimulus":"[\"img/0898/4184e5a2-84ea-4f36-9b42-ae58646f6f87.jpg\",\"img/0868/179a5502-ab5c-478e-8263-5a1fbcc101d2.jpg\"]","trial_type":"similarity","trial_index":51,"time_elapsed":369249,"internal_node_id":"0.0-6.0-45.0"},{"sim_score":1,"rt":4605,"stimulus":"[\"img/0901/deff6cfb-0072-4490-bc3e-206bbcd3e8bf.jpg\",\"img/0860/5383b320-1518-4095-a58e-5cc1ae30b64c.jpg\"]","trial_type":"similarity","trial_index":52,"time_elapsed":374859,"internal_node_id":"0.0-6.0-46.0"},{"sim_score":4,"rt":5657,"stimulus":"[\"img/0894/2d2db7b3-e8a3-499b-b63a-14f51bf73882.jpg\",\"img/0902/94ee9c53-a9a2-4f95-b9b7-794a5fc62bb6.jpg\"]","trial_type":"similarity","trial_index":53,"time_elapsed":381522,"internal_node_id":"0.0-6.0-47.0"},{"sim_score":1,"rt":3487,"stimulus":"[\"img/0764/17b088f8-3053-4140-b544-d15654cc79ef.jpg\",\"img/0862/e697469a-ec19-4414-b972-7b9f3564785b.jpg\"]","trial_type":"similarity","trial_index":54,"time_elapsed":386015,"internal_node_id":"0.0-6.0-48.0"},{"sim_score":3,"rt":4602,"stimulus":"[\"img/0881/633c6f40-56d9-4b48-bf1c-ecd83116eabb.jpg\",\"img/0758/e1ba5e53-addc-436a-b428-d34fc1b130dc.jpg\"]","trial_type":"similarity","trial_index":55,"time_elapsed":391624,"internal_node_id":"0.0-6.0-49.0"},{"sim_score":5,"rt":4136,"stimulus":"[\"img/0766/db750ba0-ce04-46e1-b601-e1b80212bad2.jpg\",\"img/0769/50985283-d353-4abc-9abe-14a91d56ebe6.jpg\"]","trial_type":"similarity","trial_index":56,"time_elapsed":396767,"internal_node_id":"0.0-6.0-50.0"},{"sim_score":5,"rt":3538,"stimulus":"[\"img/0875/8521fd58-3b1e-4dc5-97ae-804edfa6734a.jpg\",\"img/0866/f756f7d1-9ad8-4a34-9ef6-7a443d705bfe.jpg\"]","trial_type":"similarity","trial_index":57,"time_elapsed":401313,"internal_node_id":"0.0-6.0-51.0"},{"sim_score":4,"rt":5062,"stimulus":"[\"img/0894/a98416c0-51e2-4960-85da-d81d8688b9d5.jpg\",\"img/0904/09934646-45d2-4147-8fec-64a22a5ac822.jpg\"]","trial_type":"similarity","trial_index":58,"time_elapsed":407384,"internal_node_id":"0.0-6.0-52.0"},{"sim_score":1,"rt":4905,"stimulus":"[\"img/0758/6cd8c362-ae2a-41eb-80a3-3a4f7ace1530.jpg\",\"img/0769/b664b502-a86c-46c1-ad6f-5ebffc2e1bd3.jpg\"]","trial_type":"similarity","trial_index":59,"time_elapsed":413295,"internal_node_id":"0.0-6.0-53.0"},{"sim_score":3,"rt":4730,"stimulus":"[\"img/0902/417d8b4a-3c72-4adc-ac78-820e833316f2.jpg\",\"img/0874/eba003b4-cdab-4eee-8bc3-f064c7d94165.jpg\"]","trial_type":"similarity","trial_index":60,"time_elapsed":419032,"internal_node_id":"0.0-6.0-54.0"},{"sim_score":1,"rt":3513,"stimulus":"[\"img/0903/8635cf25-2648-4fe9-8c42-79d2598e999c.jpg\",\"img/0862/ee3b7bff-4a70-4e84-9bea-4a565e456acb.jpg\"]","trial_type":"similarity","trial_index":61,"time_elapsed":423552,"internal_node_id":"0.0-6.0-55.0"},{"sim_score":1,"rt":3785,"stimulus":"[\"img/0866/4a87911a-d5be-4d4e-ab8e-3d1f581bf507.jpg\",\"img/0894/133a1636-d123-4893-873c-1718050f832a.jpg\"]","trial_type":"similarity","trial_index":62,"time_elapsed":428343,"internal_node_id":"0.0-6.0-56.0"},{"sim_score":1,"rt":3371,"stimulus":"[\"img/0867/2e1a0b58-cdb1-4107-a14e-452530d7b9b0.jpg\",\"img/0904/5aec2708-cf14-4a58-aa30-9a8a61c1be0e.jpg\"]","trial_type":"similarity","trial_index":63,"time_elapsed":432720,"internal_node_id":"0.0-6.0-57.0"},{"sim_score":5,"rt":3898,"stimulus":"[\"img/0875/2c361b79-c3d1-4eda-812e-bf03192407bf.jpg\",\"img/0881/566f45f8-5fed-4479-a60f-26377e60a62d.jpg\"]","trial_type":"similarity","trial_index":64,"time_elapsed":437625,"internal_node_id":"0.0-6.0-58.0"},{"sim_score":4,"rt":5001,"stimulus":"[\"img/0866/bf14b5bd-fb55-47db-86b9-4f8aeb9a6dad.jpg\",\"img/0860/5bff793e-cbd5-4d7e-b628-0ac2b0e30b64.jpg\"]","trial_type":"similarity","trial_index":65,"time_elapsed":443631,"internal_node_id":"0.0-6.0-59.0"},{"sim_score":1,"rt":3927,"stimulus":"[\"img/0903/97a42b34-5462-4665-88c7-83c014b33d24.jpg\",\"img/0866/be24ab58-230e-4db8-9f45-ff04c9aec6bb.jpg\"]","trial_type":"similarity","trial_index":66,"time_elapsed":448564,"internal_node_id":"0.0-6.0-60.0"},{"sim_score":5,"rt":3746,"stimulus":"[\"img/0860/702bd09d-df3a-40aa-a267-5f04474305b5.jpg\",\"img/0875/cff79b3a-a797-4393-9757-6275f999ec04.jpg\"]","trial_type":"similarity","trial_index":67,"time_elapsed":453316,"internal_node_id":"0.0-6.0-61.0"},{"sim_score":1,"rt":3377,"stimulus":"[\"img/0898/224c1572-56b9-4f16-a9e4-6f3bc9c114bd.jpg\",\"img/0862/eefa5588-9efd-4591-aa5f-a2e17c7d7bcc.jpg\"]","trial_type":"similarity","trial_index":68,"time_elapsed":457701,"internal_node_id":"0.0-6.0-62.0"},{"sim_score":6,"rt":4344,"stimulus":"[\"img/0902/12452bb1-b8c0-4e4d-ad4d-47e279e5933c.jpg\",\"img/0766/79767d11-b612-4e8a-9e4b-a8ac95bb6a54.jpg\"]","trial_type":"similarity","trial_index":69,"time_elapsed":463053,"internal_node_id":"0.0-6.0-63.0"},{"sim_score":6,"rt":4409,"stimulus":"[\"img/0758/caa93da2-9edf-49fa-96b9-32dedd8f5078.jpg\",\"img/0864/65210d57-1153-4657-886a-32e758f49b4a.jpg\"]","trial_type":"similarity","trial_index":70,"time_elapsed":468469,"internal_node_id":"0.0-6.0-64.0"},{"sim_score":2,"rt":5690,"stimulus":"[\"img/0894/492d2f29-d7b9-4422-8be8-47fd58bfaa8b.jpg\",\"img/0860/61fb959d-d4d9-4de4-9e4e-4fa62b4cfcd5.jpg\"]","trial_type":"similarity","trial_index":71,"time_elapsed":475165,"internal_node_id":"0.0-6.0-65.0"},{"sim_score":1,"rt":3842,"stimulus":"[\"img/0899/a05bea16-2bb4-4cb9-b8fb-4ff975db6971.jpg\",\"img/0868/0d3abd3a-b6c3-4584-a9f7-e2da63748b3d.jpg\"]","trial_type":"similarity","trial_index":72,"time_elapsed":480012,"internal_node_id":"0.0-6.0-66.0"},{"sim_score":4,"rt":4622,"stimulus":"[\"img/0866/6f2a90d7-14f1-4f1b-bd64-fc0af6b9fe44.jpg\",\"img/0862/92fcd8a4-8193-4a6a-ae09-dd4a6338b0df.jpg\"]","trial_type":"similarity","trial_index":73,"time_elapsed":485644,"internal_node_id":"0.0-6.0-67.0"},{"sim_score":6,"rt":4187,"stimulus":"[\"img/0860/524b2e98-5767-4d53-942c-ebae6925659b.jpg\",\"img/0758/a085b443-b5d7-4cb2-9ad4-b9dab0fc23f1.jpg\"]","trial_type":"similarity","trial_index":74,"time_elapsed":490837,"internal_node_id":"0.0-6.0-68.0"},{"sim_score":1,"rt":4923,"stimulus":"[\"img/0902/40d0b6ec-3907-4573-b227-e7d8e9cad1c3.jpg\",\"img/0867/de92135f-5b65-4ed9-b245-188292c7c2f8.jpg\"]","trial_type":"similarity","trial_index":75,"time_elapsed":496769,"internal_node_id":"0.0-6.0-69.0"},{"sim_score":1,"rt":6341,"stimulus":"[\"img/0862/47ed5efd-4ec9-4b74-bb4e-a5f5cf0c3e7d.jpg\",\"img/0901/d6d15b1c-4a30-4f74-a3fd-d4c8ee4169ca.jpg\"]","trial_type":"similarity","trial_index":76,"time_elapsed":504116,"internal_node_id":"0.0-6.0-70.0"},{"sim_score":4,"rt":5310,"stimulus":"[\"img/0867/ac1797e4-8afc-48fe-b252-86d1defb1cca.jpg\",\"img/0866/a15b02be-11bb-43e3-b0e0-ecc3bd7dfc49.jpg\"]","trial_type":"similarity","trial_index":77,"time_elapsed":510433,"internal_node_id":"0.0-6.0-71.0"},{"sim_score":6,"rt":4809,"stimulus":"[\"img/0860/94ef7afc-e0e6-4a15-98c6-0bfac82bc832.jpg\",\"img/0904/25365108-e038-4021-aac9-797f2063b337.jpg\"]","trial_type":"similarity","trial_index":78,"time_elapsed":516249,"internal_node_id":"0.0-6.0-72.0"},{"sim_score":1,"rt":3526,"stimulus":"[\"img/0875/fb732ab5-013a-4366-9f65-27811ed157e9.jpg\",\"img/0899/f58b8d2f-b19d-4b59-8b94-8834be92e4ba.jpg\"]","trial_type":"similarity","trial_index":79,"time_elapsed":520792,"internal_node_id":"0.0-6.0-73.0"},{"sim_score":1,"rt":4227,"stimulus":"[\"img/0899/56a605c3-d0a2-4215-89e1-779279d85a7c.jpg\",\"img/0758/65d426d6-3ff6-415d-8654-a43b83ecc4fe.jpg\"]","trial_type":"similarity","trial_index":80,"time_elapsed":526025,"internal_node_id":"0.0-6.0-74.0"},{"sim_score":4,"rt":4841,"stimulus":"[\"img/0862/847e5208-38ec-4f36-949c-296cdd7424ee.jpg\",\"img/0875/dbdd643e-6d0e-4a5c-ab57-b9c29b9c981a.jpg\"]","trial_type":"similarity","trial_index":81,"time_elapsed":540374,"internal_node_id":"0.0-6.0-75.0"},{"sim_score":5,"rt":6316,"stimulus":"[\"img/0901/da4fe30f-d12a-491e-96a2-5ab8ebaadd09.jpg\",\"img/0894/e6385e52-6c35-43bd-b0af-bc803d107b11.jpg\"]","trial_type":"similarity","trial_index":82,"time_elapsed":547697,"internal_node_id":"0.0-6.0-76.0"},{"sim_score":2,"rt":4776,"stimulus":"[\"img/0766/2e1cf445-9aef-40e7-92f4-5facf48b64c5.jpg\",\"img/0758/b76ceca7-95ac-46e4-ac13-da02c8e93be9.jpg\"]","trial_type":"similarity","trial_index":83,"time_elapsed":553482,"internal_node_id":"0.0-6.0-77.0"},{"sim_score":4,"rt":5270,"stimulus":"[\"img/0894/7fb082e0-ce79-485c-9109-04367fb32275.jpg\",\"img/0764/438c0217-036f-43c9-9b87-f43144e46011.jpg\"]","trial_type":"similarity","trial_index":84,"time_elapsed":559759,"internal_node_id":"0.0-6.0-78.0"},{"sim_score":5,"rt":5025,"stimulus":"[\"img/0860/4a022222-056d-461c-ab02-39fac9647552.jpg\",\"img/0867/8ba0c5a7-c7e4-42cf-a80a-543763b90779.jpg\"]","trial_type":"similarity","trial_index":85,"time_elapsed":565791,"internal_node_id":"0.0-6.0-79.0"},{"sim_score":4,"rt":6307,"stimulus":"[\"img/0898/5f699581-3853-4547-856c-12f419ba5af7.jpg\",\"img/0901/5b97abf9-f0c8-4fd1-b921-36d574779078.jpg\"]","trial_type":"similarity","trial_index":86,"time_elapsed":573103,"internal_node_id":"0.0-6.0-80.0"},{"sim_score":1,"rt":3759,"stimulus":"[\"img/0874/ca76a855-4e77-4f2f-872a-0a718153e7ed.jpg\",\"img/0764/974d52cc-6318-4e7a-b294-2f3e92ff800f.jpg\"]","trial_type":"similarity","trial_index":87,"time_elapsed":577868,"internal_node_id":"0.0-6.0-81.0"},{"sim_score":1,"rt":3844,"stimulus":"[\"img/0899/ddf96ade-692e-4602-bd22-dedbb46401bc.jpg\",\"img/0862/f23038d4-c366-4f70-979f-66b62362efa4.jpg\"]","trial_type":"similarity","trial_index":88,"time_elapsed":582718,"internal_node_id":"0.0-6.0-82.0"},{"sim_score":2,"rt":4906,"stimulus":"[\"img/0766/908bc45b-7c9e-4f95-806e-86b196ebcb2c.jpg\",\"img/0901/c6df1a21-44ed-47c2-960e-7c52220e329e.jpg\"]","trial_type":"similarity","trial_index":89,"time_elapsed":588630,"internal_node_id":"0.0-6.0-83.0"},{"sim_score":1,"rt":4548,"stimulus":"[\"img/0881/7e31e5dc-2240-4b1b-b5a0-3acd980099ef.jpg\",\"img/0898/a114b375-cb89-44ba-9498-74213f1ecdee.jpg\"]","trial_type":"similarity","trial_index":90,"time_elapsed":594183,"internal_node_id":"0.0-6.0-84.0"},{"sim_score":3,"rt":4338,"stimulus":"[\"img/0868/4a8a45ed-2c4f-421b-9564-409a33ecd26c.jpg\",\"img/0860/8277806e-b684-4474-8f7b-3fca946d7d4f.jpg\"]","trial_type":"similarity","trial_index":91,"time_elapsed":599526,"internal_node_id":"0.0-6.0-85.0"},{"sim_score":1,"rt":5211,"stimulus":"[\"img/0758/20497cbe-ddae-489e-86e2-ab06985ed07c.jpg\",\"img/0868/4e626425-63c8-484a-8a1d-e66ee4e0bef8.jpg\"]","trial_type":"similarity","trial_index":92,"time_elapsed":605743,"internal_node_id":"0.0-6.0-86.0"},{"sim_score":2,"rt":4920,"stimulus":"[\"img/0864/49150900-7f25-4ce8-8d10-9b47a71d1997.jpg\",\"img/0894/38cf335f-f76f-4349-8d65-e20cd6859565.jpg\"]","trial_type":"similarity","trial_index":93,"time_elapsed":611671,"internal_node_id":"0.0-6.0-87.0"},{"sim_score":1,"rt":3874,"stimulus":"[\"img/0866/620cd1aa-0800-4414-8f6e-90342e7a99ad.jpg\",\"img/0902/8065aa6b-4aef-4368-afa2-02c6465ca582.jpg\"]","trial_type":"similarity","trial_index":94,"time_elapsed":616551,"internal_node_id":"0.0-6.0-88.0"},{"sim_score":2,"rt":5521,"stimulus":"[\"img/0769/1d8734c4-77ab-4165-9e71-5cfe672ff01c.jpg\",\"img/0867/a749dddb-69f0-44a6-acdc-2bf295cf6dcc.jpg\"]","trial_type":"similarity","trial_index":95,"time_elapsed":623079,"internal_node_id":"0.0-6.0-89.0"},{"sim_score":6,"rt":3689,"stimulus":"[\"img/0874/a3bc679d-619f-4db6-bb68-116dcb757d9c.jpg\",\"img/0875/5a716432-c6ca-4b1c-955a-2b8ac25198ee.jpg\"]","trial_type":"similarity","trial_index":96,"time_elapsed":627774,"internal_node_id":"0.0-6.0-90.0"},{"sim_score":6,"rt":4693,"stimulus":"[\"img/0864/6e846d43-94a6-4b37-a268-65eda979f052.jpg\",\"img/0874/adf9a8f1-c40b-402b-b95b-1e85a54a7b62.jpg\"]","trial_type":"similarity","trial_index":97,"time_elapsed":633476,"internal_node_id":"0.0-6.0-91.0"},{"sim_score":5,"rt":5023,"stimulus":"[\"img/0881/c843e210-bdfe-4a7c-8bbe-fcea1f90fe1c.jpg\",\"img/0862/7918ca67-5bd3-4606-a5ea-c39fb11a9297.jpg\"]","trial_type":"similarity","trial_index":98,"time_elapsed":639505,"internal_node_id":"0.0-6.0-92.0"},{"sim_score":5,"rt":5313,"stimulus":"[\"img/0864/3d4de670-b290-4285-9c3d-12a0e3af44e9.jpg\",\"img/0881/84397291-bc14-4fbf-90e8-241e486ab0fe.jpg\"]","trial_type":"similarity","trial_index":99,"time_elapsed":645823,"internal_node_id":"0.0-6.0-93.0"},{"sim_score":4,"rt":4996,"stimulus":"[\"img/0899/d60714ae-98d7-4564-8c98-94dba1351135.jpg\",\"img/0901/b13fa50f-dbe0-4d0f-8647-6ac0fd8f40bd.jpg\"]","trial_type":"similarity","trial_index":100,"time_elapsed":651825,"internal_node_id":"0.0-6.0-94.0"},{"sim_score":1,"rt":3986,"stimulus":"[\"img/0874/c0378dac-9370-439a-8b79-db27c96fb390.jpg\",\"img/0766/d14acac4-7db1-4b07-8f8f-302437326fc0.jpg\"]","trial_type":"similarity","trial_index":101,"time_elapsed":656819,"internal_node_id":"0.0-6.0-95.0"},{"sim_score":4,"rt":6262,"stimulus":"[\"img/0881/f037e3b0-09cb-4a83-b2d9-6a71fe474e63.jpg\",\"img/0899/9de5e857-aa9a-4e0c-8ba2-46d79bd069a4.jpg\"]","trial_type":"similarity","trial_index":102,"time_elapsed":664088,"internal_node_id":"0.0-6.0-96.0"},{"sim_score":5,"rt":6612,"stimulus":"[\"img/0862/064818ee-13d5-4618-bb24-21c7368ea278.jpg\",\"img/0902/af40b98b-3d23-4d95-b401-49ba5783ce39.jpg\"]","trial_type":"similarity","trial_index":103,"time_elapsed":671705,"internal_node_id":"0.0-6.0-97.0"},{"sim_score":5,"rt":7298,"stimulus":"[\"img/0899/565ccdd9-0933-4536-a625-3c0e25a713dd.jpg\",\"img/0764/b8e23f4f-ff19-4472-ad9b-2f85548ebca0.jpg\"]","trial_type":"similarity","trial_index":104,"time_elapsed":680009,"internal_node_id":"0.0-6.0-98.0"},{"sim_score":5,"rt":5651,"stimulus":"[\"img/0758/f61ecdf8-a7d4-4db0-b84d-be46f7cfaffc.jpg\",\"img/0862/d0ca4c78-fc35-46ed-bdcc-8e124283c53e.jpg\"]","trial_type":"similarity","trial_index":105,"time_elapsed":686666,"internal_node_id":"0.0-6.0-99.0"},{"sim_score":6,"rt":4570,"stimulus":"[\"img/0764/cbdc4f20-3a9a-4211-9b40-090699e0abcc.jpg\",\"img/0898/6cd3830b-d44e-4915-be2b-88d31424b91c.jpg\"]","trial_type":"similarity","trial_index":106,"time_elapsed":692242,"internal_node_id":"0.0-6.0-100.0"},{"sim_score":6,"rt":4513,"stimulus":"[\"img/0901/effc03f6-8f9d-46db-a66c-16fc83891c5c.jpg\",\"img/0902/71c03003-03ef-4b0f-8229-e0c857150a5d.jpg\"]","trial_type":"similarity","trial_index":107,"time_elapsed":697783,"internal_node_id":"0.0-6.0-101.0"},{"sim_score":1,"rt":5010,"stimulus":"[\"img/0764/23ea9375-f801-4a96-9925-7d453da887c7.jpg\",\"img/0868/83b4350a-3b70-4cea-b7f5-b5b56f3050a8.jpg\"]","trial_type":"similarity","trial_index":108,"time_elapsed":703800,"internal_node_id":"0.0-6.0-102.0"},{"sim_score":5,"rt":4881,"stimulus":"[\"img/0769/91acb237-65a3-4d0b-9748-af5c7b83d3c7.jpg\",\"img/0881/f62bdcd1-a4b7-4d48-83da-d9c9e01c8727.jpg\"]","trial_type":"similarity","trial_index":109,"time_elapsed":709687,"internal_node_id":"0.0-6.0-103.0"},{"sim_score":4,"rt":5002,"stimulus":"[\"img/0864/da39ad34-04e0-40d4-a724-c08d53e0ea09.jpg\",\"img/0769/0fe124d3-bcad-45f6-b64d-8f6eb8ee5251.jpg\"]","trial_type":"similarity","trial_index":110,"time_elapsed":715695,"internal_node_id":"0.0-6.0-104.0"},{"sim_score":5,"rt":4914,"stimulus":"[\"img/0866/23a224f3-2012-4fc8-8e0f-3c36f8de27fd.jpg\",\"img/0868/293079b8-7e0c-4afd-a390-1e5d35fe3ded.jpg\"]","trial_type":"similarity","trial_index":111,"time_elapsed":721615,"internal_node_id":"0.0-6.0-105.0"},{"sim_score":3,"rt":5538,"stimulus":"[\"img/0868/e0aff734-077f-40dd-9781-74821abd3621.jpg\",\"img/0862/ba89835a-408c-480b-8594-ed4ffa97eb5c.jpg\"]","trial_type":"similarity","trial_index":112,"time_elapsed":728160,"internal_node_id":"0.0-6.0-106.0"},{"sim_score":5,"rt":4794,"stimulus":"[\"img/0766/33519c22-aaa4-49d7-8d49-ab551db1945e.jpg\",\"img/0898/40f99fb2-64d2-4e72-8a7f-a1cf60741e69.jpg\"]","trial_type":"similarity","trial_index":113,"time_elapsed":733960,"internal_node_id":"0.0-6.0-107.0"},{"sim_score":1,"rt":4106,"stimulus":"[\"img/0898/01bfe666-3510-4fc7-964f-d00d28732dc8.jpg\",\"img/0864/5f33e097-23e3-4002-882d-76e8cb15f451.jpg\"]","trial_type":"similarity","trial_index":114,"time_elapsed":739072,"internal_node_id":"0.0-6.0-108.0"},{"sim_score":2,"rt":5776,"stimulus":"[\"img/0868/d6d1f30d-4323-435a-b194-7892521bc57e.jpg\",\"img/0902/0eb85fbc-27c8-41df-9d0b-a5f9efd417d1.jpg\"]","trial_type":"similarity","trial_index":115,"time_elapsed":745855,"internal_node_id":"0.0-6.0-109.0"},{"sim_score":3,"rt":4379,"stimulus":"[\"img/0904/da170c1b-9651-4f08-b231-2bdd1d9a046f.jpg\",\"img/0764/c643e165-df19-459f-8c2b-8357bf432a17.jpg\"]","trial_type":"similarity","trial_index":116,"time_elapsed":751240,"internal_node_id":"0.0-6.0-110.0"},{"sim_score":6,"rt":4743,"stimulus":"[\"img/0894/792c83e9-a747-4000-bc72-5663d2439edb.jpg\",\"img/0875/2e13d160-eea1-416b-aff1-d37ab99ecc1d.jpg\"]","trial_type":"similarity","trial_index":117,"time_elapsed":756989,"internal_node_id":"0.0-6.0-111.0"},{"sim_score":6,"rt":4136,"stimulus":"[\"img/0868/4bd5105a-d2c3-4f82-8c80-57196106ba53.jpg\",\"img/0874/29830da7-be5f-44e5-b141-652a0ccf7269.jpg\"]","trial_type":"similarity","trial_index":118,"time_elapsed":762132,"internal_node_id":"0.0-6.0-112.0"},{"sim_score":6,"rt":4794,"stimulus":"[\"img/0904/e9423a8c-f946-43ad-ab7b-931acef870e2.jpg\",\"img/0898/c3cecf20-f7fd-45fa-97d0-dc0a63e8d6c0.jpg\"]","trial_type":"similarity","trial_index":119,"time_elapsed":774859,"internal_node_id":"0.0-6.0-113.0"},{"sim_score":1,"rt":5028,"stimulus":"[\"img/0860/c7047cd2-7cc1-41b6-8a34-c0986774975f.jpg\",\"img/0766/27f54113-8561-4568-9ffe-0a1650ae65ec.jpg\"]","trial_type":"similarity","trial_index":120,"time_elapsed":780892,"internal_node_id":"0.0-6.0-114.0"},{"sim_score":3,"rt":4459,"stimulus":"[\"img/0894/2217bdcd-23a7-42d3-823b-23f2488d7e87.jpg\",\"img/0874/767f289c-9814-4496-803f-745cc8913d1f.jpg\"]","trial_type":"similarity","trial_index":121,"time_elapsed":786357,"internal_node_id":"0.0-6.0-115.0"},{"sim_score":5,"rt":6026,"stimulus":"[\"img/0899/0adc0bc3-6fca-4078-be6f-d45ddf1653d5.jpg\",\"img/0903/8fcafe03-43df-4c45-9da5-0df3a1eeccc5.jpg\"]","trial_type":"similarity","trial_index":122,"time_elapsed":793388,"internal_node_id":"0.0-6.0-116.0"},{"sim_score":2,"rt":4203,"stimulus":"[\"img/0881/5fe04dd0-5c74-47b7-99c8-b068db9ca26a.jpg\",\"img/0764/ca9829fe-aaf8-45b8-b98a-6bae751c63dd.jpg\"]","trial_type":"similarity","trial_index":123,"time_elapsed":798596,"internal_node_id":"0.0-6.0-117.0"},{"sim_score":3,"rt":6211,"stimulus":"[\"img/0903/b4a0f61e-a964-4b79-a9a7-f767a8f92f34.jpg\",\"img/0769/8c7cf147-1780-4d5c-8ddf-5ea23ff03ac9.jpg\"]","trial_type":"similarity","trial_index":124,"time_elapsed":805815,"internal_node_id":"0.0-6.0-118.0"},{"sim_score":2,"rt":4672,"stimulus":"[\"img/0901/00acf6c1-b66e-4060-bb04-4caf29b5a8b0.jpg\",\"img/0904/0d25eb24-bb20-4e8d-9787-8b489558b4cb.jpg\"]","trial_type":"similarity","trial_index":125,"time_elapsed":811493,"internal_node_id":"0.0-6.0-119.0"},{"sim_score":5,"rt":5814,"stimulus":"[\"img/0860/8fdba999-b946-4c7d-9891-336018b563ef.jpg\",\"img/0881/0c7068da-d0d9-4103-bda1-74ef7a2b32c3.jpg\"]","trial_type":"similarity","trial_index":126,"time_elapsed":818313,"internal_node_id":"0.0-6.0-120.0"},{"sim_score":6,"rt":4643,"stimulus":"[\"img/0758/61d64021-9214-4951-bdf8-f871f9827cf9.jpg\",\"img/0874/8cdb1c07-1c32-46d2-981c-3636560fa6e5.jpg\"]","trial_type":"similarity","trial_index":127,"time_elapsed":823962,"internal_node_id":"0.0-6.0-121.0"},{"sim_score":2,"rt":4570,"stimulus":"[\"img/0901/1e23ffbd-19de-4c4f-aa23-c54aaa3319a3.jpg\",\"img/0769/022c7e3b-c3f2-4119-b4bc-f22fa7cae18c.jpg\"]","trial_type":"similarity","trial_index":128,"time_elapsed":829537,"internal_node_id":"0.0-6.0-122.0"},{"sim_score":6,"rt":3378,"stimulus":"[\"img/0902/1a120fb9-dbd6-443e-ba91-b4aceab963da.jpg\",\"img/0904/9d30eff1-46ef-4453-b11e-124ef8145c00.jpg\"]","trial_type":"similarity","trial_index":129,"time_elapsed":833921,"internal_node_id":"0.0-6.0-123.0"},{"sim_score":1,"rt":4076,"stimulus":"[\"img/0899/76ad07e2-ca25-45eb-84f2-8d80b8ca3e26.jpg\",\"img/0864/0116ca98-293d-4fa6-a93b-5a6144ef64cc.jpg\"]","trial_type":"similarity","trial_index":130,"time_elapsed":839002,"internal_node_id":"0.0-6.0-124.0"},{"sim_score":1,"rt":3225,"stimulus":"[\"img/0766/f5f78e4e-d88f-4866-951a-118ba9fec4d0.jpg\",\"img/0868/77091fc7-a590-4ebb-b915-fdb2483a2399.jpg\"]","trial_type":"similarity","trial_index":131,"time_elapsed":843235,"internal_node_id":"0.0-6.0-125.0"},{"sim_score":1,"rt":3552,"stimulus":"[\"img/0764/f990b2e8-ecee-481e-be7c-0239fce350e2.jpg\",\"img/0864/87c467d3-abca-482f-ad80-3766c21b1bb3.jpg\"]","trial_type":"similarity","trial_index":132,"time_elapsed":847794,"internal_node_id":"0.0-6.0-126.0"},{"sim_score":1,"rt":3280,"stimulus":"[\"img/0899/00715b3f-851b-420b-a26b-d7f79f7759a9.jpg\",\"img/0866/0207e9a2-7dbb-40b5-9459-b472aaeceb2a.jpg\"]","trial_type":"similarity","trial_index":133,"time_elapsed":852081,"internal_node_id":"0.0-6.0-127.0"},{"sim_score":2,"rt":5373,"stimulus":"[\"img/0901/5657dd86-0ff9-4753-ba2b-9dfb223e5c89.jpg\",\"img/0881/c24f3051-eefa-42de-aba6-fccb56d93c70.jpg\"]","trial_type":"similarity","trial_index":134,"time_elapsed":858460,"internal_node_id":"0.0-6.0-128.0"},{"sim_score":3,"rt":5350,"stimulus":"[\"img/0898/8605a25b-6895-476d-8c13-df7a83f96093.jpg\",\"img/0903/81368973-de81-46f4-844f-b901f3bfd66d.jpg\"]","trial_type":"similarity","trial_index":135,"time_elapsed":864821,"internal_node_id":"0.0-6.0-129.0"},{"sim_score":6,"rt":3422,"stimulus":"[\"img/0894/c505c65a-cde2-4f2c-8cde-f8676f7c894d.jpg\",\"img/0867/075e0f95-856b-4cbb-acf5-092393aaf04e.jpg\"]","trial_type":"similarity","trial_index":136,"time_elapsed":869249,"internal_node_id":"0.0-6.0-130.0"},{"sim_score":5,"rt":5066,"stimulus":"[\"img/0874/bf14b896-e930-4fd9-9c05-2e83317a2773.jpg\",\"img/0903/8c358e9e-a4f4-466e-8b93-7aec0d2358e8.jpg\"]","trial_type":"similarity","trial_index":137,"time_elapsed":875322,"internal_node_id":"0.0-6.0-131.0"},{"sim_score":1,"rt":5342,"stimulus":"[\"img/0899/57476fed-5962-4272-8fc9-b317bb777b54.jpg\",\"img/0898/ec565187-2e31-4fdd-9a5c-153d0c789ae0.jpg\"]","trial_type":"similarity","trial_index":138,"time_elapsed":881669,"internal_node_id":"0.0-6.0-132.0"},{"sim_score":1,"rt":5369,"stimulus":"[\"img/0867/f8488a47-94ee-4166-952c-44e16cf172f6.jpg\",\"img/0764/bc3865c9-9004-4582-88a7-048478673f97.jpg\"]","trial_type":"similarity","trial_index":139,"time_elapsed":888043,"internal_node_id":"0.0-6.0-133.0"},{"sim_score":4,"rt":5051,"stimulus":"[\"img/0866/93a27239-8317-4e08-98ca-d8b1ff298e07.jpg\",\"img/0769/76eaa4a3-dfe9-4dc1-9efb-caebe86264e1.jpg\"]","trial_type":"similarity","trial_index":140,"time_elapsed":894102,"internal_node_id":"0.0-6.0-134.0"},{"sim_score":5,"rt":7793,"stimulus":"[\"img/0860/f44ba3fb-03a2-42f0-8509-2c1ded493086.jpg\",\"img/0898/f3a3f225-1248-4ac7-b93b-f0ff28485bf3.jpg\"]","trial_type":"similarity","trial_index":141,"time_elapsed":902902,"internal_node_id":"0.0-6.0-135.0"},{"sim_score":5,"rt":6130,"stimulus":"[\"img/0881/f8bd891e-aa09-4782-89db-33e7cb2b0cf1.jpg\",\"img/0903/12bd8657-92e6-4c36-a06c-597e7a1d51f3.jpg\"]","trial_type":"similarity","trial_index":142,"time_elapsed":910038,"internal_node_id":"0.0-6.0-136.0"},{"sim_score":4,"rt":4618,"stimulus":"[\"img/0894/05161000-f476-499b-a878-c13c7f347fd9.jpg\",\"img/0766/91fc8c4d-862f-4d2b-b1a1-2db8d729b6b7.jpg\"]","trial_type":"similarity","trial_index":143,"time_elapsed":915663,"internal_node_id":"0.0-6.0-137.0"},{"sim_score":2,"rt":4272,"stimulus":"[\"img/0860/18dfed73-e36b-4487-a8bd-0b8cff8e3668.jpg\",\"img/0764/a86eed5b-d0af-4c3f-8c7a-26e98e98cf1a.jpg\"]","trial_type":"similarity","trial_index":144,"time_elapsed":920941,"internal_node_id":"0.0-6.0-138.0"},{"sim_score":2,"rt":4850,"stimulus":"[\"img/0769/057eb0a0-aa5b-40c7-9852-21444f68d767.jpg\",\"img/0902/04a6ad4a-afc6-4871-8225-56b299af7b6b.jpg\"]","trial_type":"similarity","trial_index":145,"time_elapsed":926798,"internal_node_id":"0.0-6.0-139.0"},{"sim_score":4,"rt":4258,"stimulus":"[\"img/0904/4e58005d-a2ec-4aaa-b199-445343561396.jpg\",\"img/0903/b0df4094-a3be-4b5b-81bd-8d260f13f61b.jpg\"]","trial_type":"similarity","trial_index":146,"time_elapsed":932062,"internal_node_id":"0.0-6.0-140.0"},{"sim_score":5,"rt":5218,"stimulus":"[\"img/0764/f2f23359-8e82-41d3-8900-5b9f4433991d.jpg\",\"img/0769/965c3c44-d9e5-47c5-b61a-2bbdf4215d9a.jpg\"]","trial_type":"similarity","trial_index":147,"time_elapsed":938285,"internal_node_id":"0.0-6.0-141.0"},{"sim_score":4,"rt":5058,"stimulus":"[\"img/0902/01b41522-de46-4c3a-b0af-a61b2682b40e.jpg\",\"img/0881/e6746727-7f89-47ec-b939-d98abe78372d.jpg\"]","trial_type":"similarity","trial_index":148,"time_elapsed":944350,"internal_node_id":"0.0-6.0-142.0"},{"sim_score":3,"rt":5819,"stimulus":"[\"img/0866/8efcaa46-83ab-4dee-a35f-850402aa21ae.jpg\",\"img/0864/0f537697-a314-47c3-a8cc-8df23b7e536c.jpg\"]","trial_type":"similarity","trial_index":149,"time_elapsed":951174,"internal_node_id":"0.0-6.0-143.0"},{"sim_score":3,"rt":5754,"stimulus":"[\"img/0902/cf9dee9c-2bdf-4d64-9302-97f1660fe52c.jpg\",\"img/0898/993d8f2d-bef7-4251-a193-0f93a32b7763.jpg\"]","trial_type":"similarity","trial_index":150,"time_elapsed":957934,"internal_node_id":"0.0-6.0-144.0"},{"sim_score":5,"rt":6177,"stimulus":"[\"img/0862/cdaed51d-9e2f-4807-801a-4663c40077e2.jpg\",\"img/0864/f92649a2-0590-4d31-9a7a-1bfb81666a2d.jpg\"]","trial_type":"similarity","trial_index":151,"time_elapsed":965118,"internal_node_id":"0.0-6.0-145.0"},{"sim_score":3,"rt":5170,"stimulus":"[\"img/0875/03c3c331-738b-4446-af92-3d7386b08c2e.jpg\",\"img/0898/661621d4-a14e-487c-8c74-354134a29710.jpg\"]","trial_type":"similarity","trial_index":152,"time_elapsed":971294,"internal_node_id":"0.0-6.0-146.0"},{"sim_score":7,"rt":4074,"stimulus":"[\"img/0874/31e22c7c-99aa-40b1-bf03-dd73fa2df4d6.jpg\",\"img/0881/48ed65a5-471f-41af-86ec-3793805c116d.jpg\"]","trial_type":"similarity","trial_index":153,"time_elapsed":976374,"internal_node_id":"0.0-6.0-147.0"},{"sim_score":4,"rt":4915,"stimulus":"[\"img/0758/821c68d3-5cb0-4eae-8659-30e6263fca39.jpg\",\"img/0894/3664e04c-c6d3-4c9b-afb6-25d89974b174.jpg\"]","trial_type":"similarity","trial_index":154,"time_elapsed":982294,"internal_node_id":"0.0-6.0-148.0"},{"sim_score":6,"rt":5210,"stimulus":"[\"img/0904/5cceabc9-de1d-4c67-989b-c28a4ef77e79.jpg\",\"img/0864/6f631579-acf1-415c-a42c-1207f62a8d99.jpg\"]","trial_type":"similarity","trial_index":155,"time_elapsed":988509,"internal_node_id":"0.0-6.0-149.0"},{"sim_score":3,"rt":5842,"stimulus":"[\"img/0769/ecda2fb3-556b-43ba-8a67-e87dd75ff2b4.jpg\",\"img/0899/06b0fc99-0581-461a-9913-d1a5a941ac61.jpg\"]","trial_type":"similarity","trial_index":156,"time_elapsed":995359,"internal_node_id":"0.0-6.0-150.0"},{"sim_score":4,"rt":5605,"stimulus":"[\"img/0764/39a9fc7e-b863-432c-9374-de43983f31a5.jpg\",\"img/0903/ea75f240-fb62-4edb-a709-83e858b202c0.jpg\"]","trial_type":"similarity","trial_index":157,"time_elapsed":1005399,"internal_node_id":"0.0-6.0-151.0"},{"sim_score":5,"rt":7538,"stimulus":"[\"img/0903/2c7b4aed-6038-4aac-958a-e3e58341c313.jpg\",\"img/0864/3651d070-2fc5-4848-b6a6-088a2d9ac5c9.jpg\"]","trial_type":"similarity","trial_index":158,"time_elapsed":1013944,"internal_node_id":"0.0-6.0-152.0"},{"sim_score":5,"rt":5058,"stimulus":"[\"img/0894/11674fa4-285d-44e2-939f-2228c6a64080.jpg\",\"img/0881/20af39f5-373d-4a55-a437-2dc4c0382c46.jpg\"]","trial_type":"similarity","trial_index":159,"time_elapsed":1020008,"internal_node_id":"0.0-6.0-153.0"},{"sim_score":2,"rt":6202,"stimulus":"[\"img/0875/99698b4d-b4a1-44bc-8c83-8ea755bbbf61.jpg\",\"img/0867/c66898ba-b71b-4d50-84f9-f7f84853a98d.jpg\"]","trial_type":"similarity","trial_index":160,"time_elapsed":1027216,"internal_node_id":"0.0-6.0-154.0"},{"sim_score":5,"rt":4434,"stimulus":"[\"img/0867/6e19c858-b606-45b2-a4c6-910a73f1d82c.jpg\",\"img/0758/6e95579b-5166-487c-b8cb-e417c6a218e3.jpg\"]","trial_type":"similarity","trial_index":161,"time_elapsed":1032656,"internal_node_id":"0.0-6.0-155.0"},{"sim_score":4,"rt":5946,"stimulus":"[\"img/0868/8b0b8473-e2c0-4331-aa56-c3a5c29369da.jpg\",\"img/0901/148b747a-7392-437e-8823-33053c5dff3f.jpg\"]","trial_type":"similarity","trial_index":162,"time_elapsed":1039607,"internal_node_id":"0.0-6.0-156.0"},{"sim_score":5,"rt":4810,"stimulus":"[\"img/0769/5bd04f55-d091-4f57-85db-38426f26bd1a.jpg\",\"img/0894/1b3888e6-cf36-4c4a-a039-187aa5cb71ac.jpg\"]","trial_type":"similarity","trial_index":163,"time_elapsed":1045424,"internal_node_id":"0.0-6.0-157.0"},{"sim_score":6,"rt":5442,"stimulus":"[\"img/0904/65e2b70a-b184-4da3-b5c0-5038bdf9469a.jpg\",\"img/0758/ddc336e9-a8b6-4bb9-937a-c7e25e0e9250.jpg\"]","trial_type":"similarity","trial_index":164,"time_elapsed":1051872,"internal_node_id":"0.0-6.0-158.0"},{"sim_score":1,"rt":4794,"stimulus":"[\"img/0874/99f6563c-8a8d-4c1c-a41d-667b618c3fd5.jpg\",\"img/0904/b7c2a2c8-df33-4473-b3d4-ff7147c60db3.jpg\"]","trial_type":"similarity","trial_index":165,"time_elapsed":1057672,"internal_node_id":"0.0-6.0-159.0"},{"sim_score":4,"rt":3962,"stimulus":"[\"img/0864/66091c27-e588-4476-8af9-265dc6be4156.jpg\",\"img/0901/04a53755-6da5-44d4-a7a6-48a6bc0a2280.jpg\"]","trial_type":"similarity","trial_index":166,"time_elapsed":1062639,"internal_node_id":"0.0-6.0-160.0"},{"sim_score":2,"rt":4610,"stimulus":"[\"img/0898/a8f16b02-e19f-423b-86c3-a36562ae1f9b.jpg\",\"img/0866/02f5e6b9-52b7-448c-9708-5b460d0c9a23.jpg\"]","trial_type":"similarity","trial_index":167,"time_elapsed":1068256,"internal_node_id":"0.0-6.0-161.0"},{"sim_score":5,"rt":5643,"stimulus":"[\"img/0766/d512b99c-a2dc-40d7-8e86-827323a0cbcf.jpg\",\"img/0903/6138142e-c84e-45fc-9487-c974f3d4968a.jpg\"]","trial_type":"similarity","trial_index":168,"time_elapsed":1074904,"internal_node_id":"0.0-6.0-162.0"},{"sim_score":4,"rt":6986,"stimulus":"[\"img/0860/8a92e21b-6a32-4e4a-a445-2d5a487ed0a4.jpg\",\"img/0899/b45c550b-96c3-4255-ad59-48a2b4db1c1e.jpg\"]","trial_type":"similarity","trial_index":169,"time_elapsed":1082896,"internal_node_id":"0.0-6.0-163.0"},{"sim_score":2,"rt":4321,"stimulus":"[\"img/0766/a1ed3f0f-e338-4a26-8fe4-4370f0c9fa6e.jpg\",\"img/0862/5d887e9f-89e2-4ebc-80a0-6d46fe6480db.jpg\"]","trial_type":"similarity","trial_index":170,"time_elapsed":1088224,"internal_node_id":"0.0-6.0-164.0"},{"sim_score":5,"rt":5722,"stimulus":"[\"img/0898/04e39a7a-fcf6-4156-ab0e-f5871f335e1c.jpg\",\"img/0894/b2d2f66e-e480-46da-a02a-6d0c6b285d78.jpg\"]","trial_type":"similarity","trial_index":171,"time_elapsed":1094952,"internal_node_id":"0.0-6.0-165.0"},{"sim_score":2,"rt":5170,"stimulus":"[\"img/0867/f26f6b60-f772-4f4c-95a4-addc62cfd692.jpg\",\"img/0766/3c526a07-9e0a-4ae2-8142-00085f0127da.jpg\"]","trial_type":"similarity","trial_index":172,"time_elapsed":1101128,"internal_node_id":"0.0-6.0-166.0"},{"sim_score":1,"rt":4905,"stimulus":"[\"img/0904/73920552-103b-4c9c-9ece-e0b8376b4504.jpg\",\"img/0862/f188d4f0-76a4-4102-818c-a209969d73a5.jpg\"]","trial_type":"similarity","trial_index":173,"time_elapsed":1107040,"internal_node_id":"0.0-6.0-167.0"},{"sim_score":5,"rt":5642,"stimulus":"[\"img/0866/945c6710-d15b-4a5b-a8f6-69af0850357f.jpg\",\"img/0874/3f471690-9788-4d03-90c7-f615aecef149.jpg\"]","trial_type":"similarity","trial_index":174,"time_elapsed":1113688,"internal_node_id":"0.0-6.0-168.0"},{"sim_score":4,"rt":5066,"stimulus":"[\"img/0903/365f176c-25a4-4973-bd3c-279bf1b39476.jpg\",\"img/0868/09a9ef4d-d000-4cfa-a6aa-ebec7c2edeb4.jpg\"]","trial_type":"similarity","trial_index":175,"time_elapsed":1119760,"internal_node_id":"0.0-6.0-169.0"},{"sim_score":5,"rt":5490,"stimulus":"[\"img/0769/c7cfacc3-7f07-46ff-9f5d-8073f4c4679b.jpg\",\"img/0904/fe746a3f-8458-48d0-8a13-8cba2a9df9f8.jpg\"]","trial_type":"similarity","trial_index":176,"time_elapsed":1126255,"internal_node_id":"0.0-6.0-170.0"},{"sim_score":2,"rt":5345,"stimulus":"[\"img/0875/527ced51-8e53-4aab-ab05-86df219104c0.jpg\",\"img/0764/fb7d4a20-a475-465e-a74f-aa39a0d33d16.jpg\"]","trial_type":"similarity","trial_index":177,"time_elapsed":1132609,"internal_node_id":"0.0-6.0-171.0"},{"sim_score":2,"rt":5323,"stimulus":"[\"img/0860/4c530c3c-6aab-492a-94d1-9c01797bde40.jpg\",\"img/0903/c3cb4a01-2797-43ca-b216-88c67b323fbb.jpg\"]","trial_type":"similarity","trial_index":178,"time_elapsed":1138936,"internal_node_id":"0.0-6.0-172.0"},{"sim_score":4,"rt":4636,"stimulus":"[\"img/0864/ef9cbca0-4be8-435d-ad49-977259e80409.jpg\",\"img/0867/26611f4e-d694-4460-b7e2-43c62753ddc3.jpg\"]","trial_type":"similarity","trial_index":179,"time_elapsed":1144578,"internal_node_id":"0.0-6.0-173.0"},{"sim_score":4,"rt":4578,"stimulus":"[\"img/0868/d98ca254-b195-477f-b57e-5760a2717db8.jpg\",\"img/0864/9b2490c5-a282-400a-9736-e1a0ecbf1cb7.jpg\"]","trial_type":"similarity","trial_index":180,"time_elapsed":1150162,"internal_node_id":"0.0-6.0-174.0"},{"sim_score":5,"rt":4546,"stimulus":"[\"img/0898/b3290bf9-215b-4b45-b21a-65bdf73f142f.jpg\",\"img/0769/96556ef3-7fac-4c9d-8281-1cb0ea5081bc.jpg\"]","trial_type":"similarity","trial_index":181,"time_elapsed":1155714,"internal_node_id":"0.0-6.0-175.0"},{"sim_score":5,"rt":6370,"stimulus":"[\"img/0766/fd064894-7147-4af5-97e9-2089d5472656.jpg\",\"img/0764/3297a811-ea8b-4d74-9547-59cecab7293a.jpg\"]","trial_type":"similarity","trial_index":182,"time_elapsed":1163090,"internal_node_id":"0.0-6.0-176.0"},{"sim_score":1,"rt":4498,"stimulus":"[\"img/0764/d7f3ac54-318a-4dac-a06b-62bed34d01a4.jpg\",\"img/0866/d266fece-59b3-46fa-b69f-96f6efb81b59.jpg\"]","trial_type":"similarity","trial_index":183,"time_elapsed":1168593,"internal_node_id":"0.0-6.0-177.0"},{"sim_score":1,"rt":5188,"stimulus":"[\"img/0902/27b84584-948a-485b-8749-cb09929ef631.jpg\",\"img/0875/e7e66b13-b573-431e-b85e-288ce04a35a3.jpg\"]","trial_type":"similarity","trial_index":184,"time_elapsed":1174786,"internal_node_id":"0.0-6.0-178.0"},{"sim_score":5,"rt":4466,"stimulus":"[\"img/0881/6b1189e6-232d-4042-8885-16dc7b10e0d4.jpg\",\"img/0904/56e73f28-7e64-489b-a161-e6b1a063878d.jpg\"]","trial_type":"similarity","trial_index":185,"time_elapsed":1180258,"internal_node_id":"0.0-6.0-179.0"},{"sim_score":5,"rt":3572,"stimulus":"[\"img/0874/7e4f2150-3b59-4a36-b5da-a4e0ba410531.jpg\",\"img/0860/e14d67c1-6d92-4f1e-9257-c8607159c19c.jpg\"]","trial_type":"similarity","trial_index":186,"time_elapsed":1184842,"internal_node_id":"0.0-6.0-180.0"},{"sim_score":4,"rt":4947,"stimulus":"[\"img/0769/1ca58b80-2365-446d-9616-6c1719e6c46f.jpg\",\"img/0874/2c9464dd-8a23-4baa-ac94-1ba3af5c15cc.jpg\"]","trial_type":"similarity","trial_index":187,"time_elapsed":1190794,"internal_node_id":"0.0-6.0-181.0"},{"sim_score":6,"rt":4826,"stimulus":"[\"img/0904/60d1a521-edf7-4696-9263-f21ac0e62a01.jpg\",\"img/0766/989c5c7f-1aff-4442-ac63-9d46acf4a891.jpg\"]","trial_type":"similarity","trial_index":188,"time_elapsed":1196628,"internal_node_id":"0.0-6.0-182.0"},{"sim_score":4,"rt":4881,"stimulus":"[\"img/0902/c920f0e1-1c81-480f-a164-c77f2dc6ce9a.jpg\",\"img/0764/4eff630a-6426-4f8d-b2ba-b4d9842a0962.jpg\"]","trial_type":"similarity","trial_index":189,"time_elapsed":1202516,"internal_node_id":"0.0-6.0-183.0"},{"sim_score":2,"rt":4577,"stimulus":"[\"img/0769/f73c5138-2f4c-4354-981c-129dff9cc734.jpg\",\"img/0875/f87b67d7-c33e-40d1-b281-248c4be1cb6e.jpg\"]","trial_type":"similarity","trial_index":190,"time_elapsed":1208100,"internal_node_id":"0.0-6.0-184.0"},{"sim_score":4,"rt":5434,"stimulus":"[\"img/0867/12264664-1860-46df-8c21-162b9817cdda.jpg\",\"img/0903/0a92ec52-4e87-410a-857a-4455cde56a70.jpg\"]","trial_type":"similarity","trial_index":191,"time_elapsed":1214540,"internal_node_id":"0.0-6.0-185.0"},{"sim_score":3,"rt":5217,"stimulus":"[\"img/0862/ad593cc7-cabe-4bb7-8e14-8a447a0717b4.jpg\",\"img/0769/7c50e5f5-cc38-4d48-b009-fbe17bcea61c.jpg\"]","trial_type":"similarity","trial_index":192,"time_elapsed":1220764,"internal_node_id":"0.0-6.0-186.0"},{"sim_score":2,"rt":4338,"stimulus":"[\"img/0766/214866ee-423d-4629-9bb9-41572bdc7dac.jpg\",\"img/0866/c446214b-a368-4c65-ae39-ea46894256ab.jpg\"]","trial_type":"similarity","trial_index":193,"time_elapsed":1226108,"internal_node_id":"0.0-6.0-187.0"},{"sim_score":2,"rt":4425,"stimulus":"[\"img/0769/82ab9db6-4578-4e79-874f-f09100439f09.jpg\",\"img/0860/15b24a61-25be-4356-9eac-5ce95d0cb4a4.jpg\"]","trial_type":"similarity","trial_index":194,"time_elapsed":1231540,"internal_node_id":"0.0-6.0-188.0"},{"sim_score":3,"rt":4802,"stimulus":"[\"img/0881/f7a8cc63-8842-40a4-9ff8-fe530310d62c.jpg\",\"img/0868/6a28c3b0-3d76-498a-9fb7-ddafc665eca8.jpg\"]","trial_type":"similarity","trial_index":195,"time_elapsed":1241955,"internal_node_id":"0.0-6.0-189.0"},{"view_history":"[{\"page_index\":0,\"viewing_time\":6678}]","rt":6679,"trial_type":"instructions","trial_index":196,"time_elapsed":1249635,"internal_node_id":"0.0-7.0"},{"rt":40757,"responses":"{\"Q0\":\"Townsend's Warbler\"}","answer":["Nashville Warbler"],"trial_type":"image-multi-choice","trial_index":197,"time_elapsed":1291429,"internal_node_id":"0.0-8.0-0.0"},{"rt":5489,"responses":"{\"Q0\":\"Black-and-white Warbler\"}","answer":["Black-and-white Warbler"],"trial_type":"image-multi-choice","trial_index":198,"time_elapsed":1297938,"internal_node_id":"0.0-8.0-1.0"},{"rt":35310,"responses":"{\"Q0\":\"Magnolia Warbler\"}","answer":["Townsend's Warbler"],"trial_type":"image-multi-choice","trial_index":199,"time_elapsed":1334267,"internal_node_id":"0.0-8.0-2.0"},{"rt":24029,"responses":"{\"Q0\":\"American Tree Sparrow\"}","answer":["Lark Sparrow"],"trial_type":"image-multi-choice","trial_index":200,"time_elapsed":1359317,"internal_node_id":"0.0-8.0-3.0"},{"rt":5019,"responses":"{\"Q0\":\"Yellow Warbler\"}","answer":["Yellow Warbler"],"trial_type":"image-multi-choice","trial_index":201,"time_elapsed":1365357,"internal_node_id":"0.0-8.0-4.0"},{"rt":18420,"responses":"{\"Q0\":\"Nashville Warbler\"}","answer":["Orange-crowned Warbler"],"trial_type":"image-multi-choice","trial_index":202,"time_elapsed":1384797,"internal_node_id":"0.0-8.0-5.0"},{"rt":5403,"responses":"{\"Q0\":\"White-throated Sparrow\"}","answer":["White-throated Sparrow"],"trial_type":"image-multi-choice","trial_index":203,"time_elapsed":1391221,"internal_node_id":"0.0-8.0-6.0"},{"rt":6178,"responses":"{\"Q0\":\"Fox Sparrow\"}","answer":["Fox Sparrow"],"trial_type":"image-multi-choice","trial_index":204,"time_elapsed":1398422,"internal_node_id":"0.0-8.0-7.0"},{"rt":12289,"responses":"{\"Q0\":\"Swamp Sparrow\"}","answer":["Song Sparrow"],"trial_type":"image-multi-choice","trial_index":205,"time_elapsed":1411732,"internal_node_id":"0.0-8.0-8.0"},{"rt":35777,"responses":"{\"Q0\":\"Magnolia Warbler\"}","answer":["Blackburnian Warbler"],"trial_type":"image-multi-choice","trial_index":206,"time_elapsed":1448520,"internal_node_id":"0.0-8.0-9.0"},{"rt":15272,"responses":"{\"Q0\":\"Ovenbird\"}","answer":["Vesper Sparrow"],"trial_type":"image-multi-choice","trial_index":207,"time_elapsed":1464813,"internal_node_id":"0.0-8.0-10.0"},{"rt":6696,"responses":"{\"Q0\":\"White-crowned Sparrow\"}","answer":["White-crowned Sparrow"],"trial_type":"image-multi-choice","trial_index":208,"time_elapsed":1472530,"internal_node_id":"0.0-8.0-11.0"},{"rt":14569,"responses":"{\"Q0\":\"Lark Sparrow\"}","answer":["American Tree Sparrow"],"trial_type":"image-multi-choice","trial_index":209,"time_elapsed":1488121,"internal_node_id":"0.0-8.0-12.0"},{"rt":25565,"responses":"{\"Q0\":\"Magnolia Warbler\"}","answer":["Tennessee Warbler"],"trial_type":"image-multi-choice","trial_index":210,"time_elapsed":1514708,"internal_node_id":"0.0-8.0-13.0"},{"rt":13819,"responses":"{\"Q0\":\"Townsend's Warbler\"}","answer":["Magnolia Warbler"],"trial_type":"image-multi-choice","trial_index":211,"time_elapsed":1529548,"internal_node_id":"0.0-8.0-14.0"},{"rt":7075,"responses":"{\"Q0\":\"Ovenbird\"}","answer":["Northern Waterthrush"],"trial_type":"image-multi-choice","trial_index":212,"time_elapsed":1537642,"internal_node_id":"0.0-8.0-15.0"},{"rt":5147,"responses":"{\"Q0\":\"Vesper Sparrow\"}","answer":["Chipping Sparrow"],"trial_type":"image-multi-choice","trial_index":213,"time_elapsed":1543810,"internal_node_id":"0.0-8.0-16.0"},{"rt":6955,"responses":"{\"Q0\":\"Song Sparrow\"}","answer":["Swamp Sparrow"],"trial_type":"image-multi-choice","trial_index":214,"time_elapsed":1551787,"internal_node_id":"0.0-8.0-17.0"},{"rt":12300,"responses":"{\"Q0\":\"Chipping Sparrow\"}","answer":["Lincoln's Sparrow"],"trial_type":"image-multi-choice","trial_index":215,"time_elapsed":1565109,"internal_node_id":"0.0-8.0-18.0"},{"rt":4591,"responses":"{\"Q0\":\"Ovenbird\"}","answer":["Ovenbird"],"trial_type":"image-multi-choice","trial_index":216,"time_elapsed":1570722,"internal_node_id":"0.0-8.0-19.0"}]