"view_history","rt","trial_type","trial_index","time_elapsed","internal_node_id","sim_score","stimulus","responses","answer"
"[{""page_index"":0,""viewing_time"":17673}]","17673","instructions","0","17674","0.0-0.0","","","",""
"","6168","similarity_demo","1","24849","0.0-1.0","7","[""img/bluejay1.jpg"",""img/bluejay2.jpg""]","",""
"[{""page_index"":0,""viewing_time"":5889}]","5889","instructions","2","31754","0.0-2.0","","","",""
"","8569","similarity_demo","3","41342","0.0-3.0","4","[""img/bluejay1.jpg"",""img/cardinal1.jpg""]","",""
"[{""page_index"":0,""viewing_time"":9542}]","9542","instructions","4","51894","0.0-4.0","","","",""
"[{""page_index"":0,""viewing_time"":37113}]","37113","instructions","5","90019","0.0-5.0","","","",""
"","5367","similarity","6","96404","0.0-6.0-0.0","4","[""img/0868/e0aff734-077f-40dd-9781-74821abd3621.jpg"",""img/0894/9b1333fd-3561-43bf-aee5-99b7b7ca3dc3.jpg""]","",""
"","4445","similarity","7","101853","0.0-6.0-1.0","4","[""img/0898/f3a3f225-1248-4ac7-b93b-f0ff28485bf3.jpg"",""img/0758/65d426d6-3ff6-415d-8654-a43b83ecc4fe.jpg""]","",""
"","3277","similarity","8","106145","0.0-6.0-2.0","5","[""img/0903/647ce311-8c71-479a-8361-961db1457139.jpg"",""img/0894/661b9f9f-4bde-487a-b1ed-87085fde6948.jpg""]","",""
"","3262","similarity","9","110418","0.0-6.0-3.0","5","[""img/0881/48ed65a5-471f-41af-86ec-3793805c116d.jpg"",""img/0766/0025de5e-f620-4079-8a0f-00326ff3a6b0.jpg""]","",""
"","4389","similarity","10","115830","0.0-6.0-4.0","3","[""img/0864/ef9cbca0-4be8-435d-ad49-977259e80409.jpg"",""img/0860/18dfed73-e36b-4487-a8bd-0b8cff8e3668.jpg""]","",""
"","3179","similarity","11","120016","0.0-6.0-5.0","5","[""img/0902/cdec1bc6-7f90-4f72-9e01-f5a4111bac1d.jpg"",""img/0899/b45c550b-96c3-4255-ad59-48a2b4db1c1e.jpg""]","",""
"","4647","similarity","12","125688","0.0-6.0-6.0","3","[""img/0868/15dd6fd7-791e-4b53-b203-195d617521a4.jpg"",""img/0769/91acb237-65a3-4d0b-9748-af5c7b83d3c7.jpg""]","",""
"","3247","similarity","13","129957","0.0-6.0-7.0","5","[""img/0764/f64dfa83-333d-494c-87b5-73e942f1766e.jpg"",""img/0901/1ede21d9-384f-4150-86b5-e1c57b5dc1d4.jpg""]","",""
"","3287","similarity","14","134250","0.0-6.0-8.0","2","[""img/0881/4da99fdd-1f40-4bbb-8e21-8833eef313f5.jpg"",""img/0866/bf14b5bd-fb55-47db-86b9-4f8aeb9a6dad.jpg""]","",""
"","3815","similarity","15","139085","0.0-6.0-9.0","3","[""img/0867/aa05d113-fc19-4756-a8eb-7878f580bc92.jpg"",""img/0899/7f9d45d0-b2c6-40d3-aa41-c207db2c411b.jpg""]","",""
"","4615","similarity","16","144707","0.0-6.0-10.0","2","[""img/0875/5a7c4e35-6514-4e12-8879-d16071da4cd6.jpg"",""img/0766/2e1cf445-9aef-40e7-92f4-5facf48b64c5.jpg""]","",""
"","4252","similarity","17","149976","0.0-6.0-11.0","2","[""img/0901/1e23ffbd-19de-4c4f-aa23-c54aaa3319a3.jpg"",""img/0875/5a1e5100-0d94-4fec-bbe9-ca9894d2cf8e.jpg""]","",""
"","3691","similarity","18","154669","0.0-6.0-12.0","5","[""img/0902/bd89a85f-3853-4786-acd6-98818ee29f1c.jpg"",""img/0860/8a92e21b-6a32-4e4a-a445-2d5a487ed0a4.jpg""]","",""
"","4512","similarity","19","160184","0.0-6.0-13.0","3","[""img/0874/bf14b896-e930-4fd9-9c05-2e83317a2773.jpg"",""img/0867/db7e032f-162b-46f5-ae67-2b29679adee4.jpg""]","",""
"","3957","similarity","20","165154","0.0-6.0-14.0","5","[""img/0904/9dd5708f-3f8b-46a9-b49f-2f2fab87b357.jpg"",""img/0866/620cd1aa-0800-4414-8f6e-90342e7a99ad.jpg""]","",""
"","2782","similarity","21","168947","0.0-6.0-15.0","5","[""img/0758/7ffbc76b-1fc1-432c-8f7e-9ec8d1b3f643.jpg"",""img/0902/1f4a4c62-68c1-4993-b213-05652a173ed1.jpg""]","",""
"","3590","similarity","22","173553","0.0-6.0-16.0","3","[""img/0867/1719a35d-f085-48c0-9099-16c94fe418b4.jpg"",""img/0898/b2732712-71c2-45d8-834f-2b2ed5504910.jpg""]","",""
"","2923","similarity","23","177482","0.0-6.0-17.0","2","[""img/0904/1d10df11-b5c8-4370-9a6b-097a7f965895.jpg"",""img/0868/293079b8-7e0c-4afd-a390-1e5d35fe3ded.jpg""]","",""
"","3543","similarity","24","182037","0.0-6.0-18.0","3","[""img/0766/af3be95e-e52e-4fae-899b-0ff02ec340aa.jpg"",""img/0864/b3c4e378-28f0-4699-9338-2a257b4bca04.jpg""]","",""
"","4112","similarity","25","187163","0.0-6.0-19.0","6","[""img/0899/1b3457ea-87d4-4946-a01c-aac1863ed46c.jpg"",""img/0766/908bc45b-7c9e-4f95-806e-86b196ebcb2c.jpg""]","",""
"","2853","similarity","26","191019","0.0-6.0-20.0","4","[""img/0764/39a9fc7e-b863-432c-9374-de43983f31a5.jpg"",""img/0758/61d64021-9214-4951-bdf8-f871f9827cf9.jpg""]","",""
"","2806","similarity","27","194838","0.0-6.0-21.0","1","[""img/0901/5657dd86-0ff9-4753-ba2b-9dfb223e5c89.jpg"",""img/0874/eba003b4-cdab-4eee-8bc3-f064c7d94165.jpg""]","",""
"","3589","similarity","28","199444","0.0-6.0-22.0","5","[""img/0875/5a716432-c6ca-4b1c-955a-2b8ac25198ee.jpg"",""img/0758/ddc336e9-a8b6-4bb9-937a-c7e25e0e9250.jpg""]","",""
"","4191","similarity","29","204643","0.0-6.0-23.0","3","[""img/0867/12264664-1860-46df-8c21-162b9817cdda.jpg"",""img/0881/19e82c47-8e4b-45d2-a6c8-74181eb4155e.jpg""]","",""
"","2934","similarity","30","208585","0.0-6.0-24.0","1","[""img/0758/a085b443-b5d7-4cb2-9ad4-b9dab0fc23f1.jpg"",""img/0901/77087ed2-6e12-4329-b2a5-605bca6d972d.jpg""]","",""
"","2643","similarity","31","212241","0.0-6.0-25.0","5","[""img/0868/1a62b2b2-18f5-466e-b564-5176a57c565e.jpg"",""img/0875/42910c99-5463-450a-a0f8-d4d060a11455.jpg""]","",""
"","3020","similarity","32","216273","0.0-6.0-26.0","6","[""img/0903/f67c4ab9-f8c2-4fcd-848a-a54a7b031002.jpg"",""img/0901/d61f267a-c492-4db6-9bfb-61efd49cf072.jpg""]","",""
"","3538","similarity","33","220825","0.0-6.0-27.0","5","[""img/0894/7fb082e0-ce79-485c-9109-04367fb32275.jpg"",""img/0899/d60714ae-98d7-4564-8c98-94dba1351135.jpg""]","",""
"","2250","similarity","34","224085","0.0-6.0-28.0","1","[""img/0862/cdaed51d-9e2f-4807-801a-4663c40077e2.jpg"",""img/0867/5e07b34d-b40f-4b1c-ac10-49975bace45f.jpg""]","",""
"","2591","similarity","35","227691","0.0-6.0-29.0","5","[""img/0864/65210d57-1153-4657-886a-32e758f49b4a.jpg"",""img/0875/f87b67d7-c33e-40d1-b281-248c4be1cb6e.jpg""]","",""
"","2626","similarity","36","231324","0.0-6.0-30.0","5","[""img/0862/f23038d4-c366-4f70-979f-66b62362efa4.jpg"",""img/0874/a3bc679d-619f-4db6-bb68-116dcb757d9c.jpg""]","",""
"","2753","similarity","37","235086","0.0-6.0-31.0","5","[""img/0903/0fb24af7-9a26-4e9d-aadc-959a36f683e2.jpg"",""img/0758/3ddd05d3-557e-4ee7-8b78-9d2d681d8ae2.jpg""]","",""
"","2566","similarity","38","238662","0.0-6.0-32.0","2","[""img/0866/23a224f3-2012-4fc8-8e0f-3c36f8de27fd.jpg"",""img/0901/c6df1a21-44ed-47c2-960e-7c52220e329e.jpg""]","",""
"","2773","similarity","39","242445","0.0-6.0-33.0","5","[""img/0874/7e4f2150-3b59-4a36-b5da-a4e0ba410531.jpg"",""img/0899/f95cbdb4-f804-4f5d-ad76-373ad343e658.jpg""]","",""
"","3262","similarity","40","246720","0.0-6.0-34.0","7","[""img/0903/5ea5bbe0-f238-4724-abe7-9ed8dee8c0ba.jpg"",""img/0902/3f0eeac5-c996-4026-a376-563ce8f28521.jpg""]","",""
"","3763","similarity","41","251490","0.0-6.0-35.0","2","[""img/0758/a709631e-3705-4725-ac40-f0d916924f08.jpg"",""img/0866/c446214b-a368-4c65-ae39-ea46894256ab.jpg""]","",""
"","3318","similarity","42","255819","0.0-6.0-36.0","2","[""img/0875/3ecb367d-e9eb-4826-8aaa-7aa72fb98019.jpg"",""img/0903/47e39de8-6959-469f-8be9-6999a6db207c.jpg""]","",""
"","2603","similarity","43","263241","0.0-6.0-37.0","5","[""img/0864/87c467d3-abca-482f-ad80-3766c21b1bb3.jpg"",""img/0902/9f543501-3cf1-45a7-a2f1-eeca87cc15b9.jpg""]","",""
"","7066","similarity","44","271309","0.0-6.0-38.0","5","[""img/0901/2a953e50-d237-405c-a38d-5ed21494c968.jpg"",""img/0867/26611f4e-d694-4460-b7e2-43c62753ddc3.jpg""]","",""
"","4209","similarity","45","276524","0.0-6.0-39.0","6","[""img/0862/00c06b00-3b73-44e9-bc1e-c5aafb438321.jpg"",""img/0860/f44ba3fb-03a2-42f0-8509-2c1ded493086.jpg""]","",""
"","2902","similarity","46","280433","0.0-6.0-40.0","7","[""img/0867/50a1b60e-3a29-44bf-b606-d4bd3746fea9.jpg"",""img/0868/5fa7f9d0-f0e5-454c-8224-74d964818f56.jpg""]","",""
"","3566","similarity","47","285006","0.0-6.0-41.0","5","[""img/0904/96e503ea-6630-4996-85f2-0237688ce441.jpg"",""img/0899/8de08897-b430-42fe-9d42-840670b80f94.jpg""]","",""
"","3979","similarity","48","289991","0.0-6.0-42.0","5","[""img/0862/4f0a3b4c-afbf-486e-b248-1d54982f54b4.jpg"",""img/0894/151063aa-6472-4745-837b-36603aba5966.jpg""]","",""
"","3143","similarity","49","294144","0.0-6.0-43.0","4","[""img/0875/2e13d160-eea1-416b-aff1-d37ab99ecc1d.jpg"",""img/0904/5cceabc9-de1d-4c67-989b-c28a4ef77e79.jpg""]","",""
"","3084","similarity","50","298244","0.0-6.0-44.0","2","[""img/0874/995f0332-0439-4eb4-add3-957335dbf6d9.jpg"",""img/0898/79233891-305a-4a6a-8ddf-5c8604858203.jpg""]","",""
"","2773","similarity","51","302027","0.0-6.0-45.0","2","[""img/0898/08c72dac-f8ad-407a-9ce6-8c9a5d679c3a.jpg"",""img/0868/4a8a45ed-2c4f-421b-9564-409a33ecd26c.jpg""]","",""
"","2687","similarity","52","305726","0.0-6.0-46.0","3","[""img/0901/875dedb9-24c9-4443-9f8c-85e97d70ee5a.jpg"",""img/0860/524b2e98-5767-4d53-942c-ebae6925659b.jpg""]","",""
"","3181","similarity","53","309925","0.0-6.0-47.0","5","[""img/0894/5c7677b0-a4f1-479e-b274-7822c415175a.jpg"",""img/0902/8065aa6b-4aef-4368-afa2-02c6465ca582.jpg""]","",""
"","2465","similarity","54","313397","0.0-6.0-48.0","4","[""img/0764/ca957454-126a-4bd3-b29c-7174a24c25dc.jpg"",""img/0862/f188d4f0-76a4-4102-818c-a209969d73a5.jpg""]","",""
"","2763","similarity","55","317167","0.0-6.0-49.0","6","[""img/0881/1407b85b-a1c6-45b1-9884-3b24203efadb.jpg"",""img/0758/caa93da2-9edf-49fa-96b9-32dedd8f5078.jpg""]","",""
"","3896","similarity","56","322076","0.0-6.0-50.0","5","[""img/0766/79767d11-b612-4e8a-9e4b-a8ac95bb6a54.jpg"",""img/0769/e31b3bd8-efcb-413e-aa8c-75fac2b8f2ac.jpg""]","",""
"","4102","similarity","57","327195","0.0-6.0-51.0","3","[""img/0875/cff79b3a-a797-4393-9757-6275f999ec04.jpg"",""img/0866/945c6710-d15b-4a5b-a8f6-69af0850357f.jpg""]","",""
"","2369","similarity","58","330577","0.0-6.0-52.0","6","[""img/0894/a3d4170b-b7d8-40e3-955f-87e76ed745fc.jpg"",""img/0904/2f88ce53-02d0-4f95-a082-182c56a0eeb4.jpg""]","",""
"","2782","similarity","59","334369","0.0-6.0-53.0","5","[""img/0758/d540bee6-b460-4c32-ac57-bc282742d7d4.jpg"",""img/0769/4680bcc3-8fbc-4643-8f9a-12aa0e780b64.jpg""]","",""
"","3916","similarity","60","339291","0.0-6.0-54.0","6","[""img/0902/794606a0-d8a8-4e58-8bf8-9d114ed5a548.jpg"",""img/0874/ca23d307-fc00-4d7d-9106-584c6eb21b4d.jpg""]","",""
"","3383","similarity","61","343687","0.0-6.0-55.0","5","[""img/0903/5995f4a8-fa82-46f8-8760-fd7800a5ca34.jpg"",""img/0862/47ed5efd-4ec9-4b74-bb4e-a5f5cf0c3e7d.jpg""]","",""
"","2749","similarity","62","347439","0.0-6.0-56.0","2","[""img/0866/4a87911a-d5be-4d4e-ab8e-3d1f581bf507.jpg"",""img/0894/76c1201f-8524-4865-85e6-dda8cb4ac986.jpg""]","",""
"","4589","similarity","63","353038","0.0-6.0-57.0","4","[""img/0867/85a96c62-548f-4994-9553-819e03c3135a.jpg"",""img/0904/4d7d70a3-9477-4921-bda0-f9531d0a5c5b.jpg""]","",""
"","3026","similarity","64","357076","0.0-6.0-58.0","5","[""img/0875/99698b4d-b4a1-44bc-8c83-8ea755bbbf61.jpg"",""img/0881/20af39f5-373d-4a55-a437-2dc4c0382c46.jpg""]","",""
"","3257","similarity","65","361353","0.0-6.0-59.0","5","[""img/0866/93a27239-8317-4e08-98ca-d8b1ff298e07.jpg"",""img/0860/4c530c3c-6aab-492a-94d1-9c01797bde40.jpg""]","",""
"","2723","similarity","66","365082","0.0-6.0-60.0","3","[""img/0903/776b74ee-a8ab-4ab8-a78d-097c0747538d.jpg"",""img/0866/8efcaa46-83ab-4dee-a35f-850402aa21ae.jpg""]","",""
"","3116","similarity","67","369215","0.0-6.0-61.0","5","[""img/0860/c3379ff7-0763-48fe-a1ec-7ea3d611bc7a.jpg"",""img/0875/e7e66b13-b573-431e-b85e-288ce04a35a3.jpg""]","",""
"","2555","similarity","68","372787","0.0-6.0-62.0","5","[""img/0898/661621d4-a14e-487c-8c74-354134a29710.jpg"",""img/0862/7918ca67-5bd3-4606-a5ea-c39fb11a9297.jpg""]","",""
"","2856","similarity","69","376657","0.0-6.0-63.0","5","[""img/0902/af40b98b-3d23-4d95-b401-49ba5783ce39.jpg"",""img/0766/b84598d0-5b41-4841-88b0-b441b48289f5.jpg""]","",""
"","2796","similarity","70","380463","0.0-6.0-64.0","6","[""img/0758/7fba58df-2a7a-4b76-8a8f-62739f97f271.jpg"",""img/0864/4bd81bc6-c13d-46df-95a9-485886dc7c1b.jpg""]","",""
"","3246","similarity","71","384722","0.0-6.0-65.0","3","[""img/0894/6aa5545f-fa7d-4286-bbaa-aaf34dc7ec96.jpg"",""img/0860/e14d67c1-6d92-4f1e-9257-c8607159c19c.jpg""]","",""
"","3899","similarity","72","389631","0.0-6.0-66.0","1","[""img/0899/f58b8d2f-b19d-4b59-8b94-8834be92e4ba.jpg"",""img/0868/7b212364-ff5f-4e28-9241-7eb6ea00161b.jpg""]","",""
"","2882","similarity","73","393533","0.0-6.0-67.0","4","[""img/0866/07c9c966-3c8d-40e7-8128-92b2acbaed5d.jpg"",""img/0862/99a99e39-8355-44ec-b993-e7bcec111e1c.jpg""]","",""
"","4134","similarity","74","398680","0.0-6.0-68.0","5","[""img/0860/fd4662f9-4c03-4d79-8593-06735e55a64b.jpg"",""img/0758/821c68d3-5cb0-4eae-8659-30e6263fca39.jpg""]","",""
"","3945","similarity","75","403635","0.0-6.0-69.0","3","[""img/0902/7499db23-3a41-41ea-ab5b-6ab4d4c3ed35.jpg"",""img/0867/6e19c858-b606-45b2-a4c6-910a73f1d82c.jpg""]","",""
"","2860","similarity","76","407505","0.0-6.0-70.0","2","[""img/0862/1c20f772-3a51-4a80-aac0-f57dc9f86c28.jpg"",""img/0901/b453df0b-4c39-49bb-8ced-6127efffa898.jpg""]","",""
"","4272","similarity","77","412793","0.0-6.0-71.0","5","[""img/0867/a498eef3-9fa4-4ab2-9778-4ae82ac40dc5.jpg"",""img/0866/386235d2-6857-41e7-88a8-25cfc3430025.jpg""]","",""
"","3926","similarity","78","417739","0.0-6.0-72.0","3","[""img/0860/8fdba999-b946-4c7d-9891-336018b563ef.jpg"",""img/0904/09934646-45d2-4147-8fec-64a22a5ac822.jpg""]","",""
"","3496","similarity","79","422248","0.0-6.0-73.0","2","[""img/0875/fb732ab5-013a-4366-9f65-27811ed157e9.jpg"",""img/0899/8abe6c69-822c-436c-9bf2-96c818b49ba5.jpg""]","",""
"","3689","similarity","80","426951","0.0-6.0-74.0","3","[""img/0899/7b7380d5-d2be-44e5-a09a-c1756f87ef71.jpg"",""img/0758/20497cbe-ddae-489e-86e2-ab06985ed07c.jpg""]","",""
"","4208","similarity","81","434219","0.0-6.0-75.0","6","[""img/0862/ee3b7bff-4a70-4e84-9bea-4a565e456acb.jpg"",""img/0875/a4935837-7d3c-4df6-88c1-36a94d4991ca.jpg""]","",""
"","3139","similarity","82","438381","0.0-6.0-76.0","2","[""img/0901/04a53755-6da5-44d4-a7a6-48a6bc0a2280.jpg"",""img/0894/86201968-6e78-4d68-9b3a-d1692e066210.jpg""]","",""
"","3193","similarity","83","442581","0.0-6.0-77.0","2","[""img/0766/51d3aab4-3d09-4dda-b99d-3dc7aaabc6f2.jpg"",""img/0758/e38fd80d-18d0-42f3-b848-f930788e8bd7.jpg""]","",""
"","3103","similarity","84","446700","0.0-6.0-78.0","5","[""img/0894/5a49e858-2850-4892-9a06-e9f0efb5f94d.jpg"",""img/0764/fb92924f-5cfe-4b89-b130-0cce8cc5636b.jpg""]","",""
"","3699","similarity","85","451415","0.0-6.0-79.0","3","[""img/0860/c7047cd2-7cc1-41b6-8a34-c0986774975f.jpg"",""img/0867/7d1c497b-c1b3-4ed8-abb5-d7f73306015f.jpg""]","",""
"","3106","similarity","86","455525","0.0-6.0-80.0","4","[""img/0898/40f99fb2-64d2-4e72-8a7f-a1cf60741e69.jpg"",""img/0901/443f2e59-199b-4f7b-9de9-c44ad97326a5.jpg""]","",""
"","3681","similarity","87","460216","0.0-6.0-81.0","3","[""img/0874/3f471690-9788-4d03-90c7-f615aecef149.jpg"",""img/0764/0e7ed062-f798-4366-8a24-6f430926f919.jpg""]","",""
"","3767","similarity","88","464994","0.0-6.0-82.0","3","[""img/0899/fd9efb43-701f-4cd6-baaa-4c38315f4bdc.jpg"",""img/0862/92f0146c-20c4-482e-aef5-adb693790338.jpg""]","",""
"","3261","similarity","89","469263","0.0-6.0-83.0","5","[""img/0766/d5d38751-8fa5-476f-93e9-86ed2d9045ef.jpg"",""img/0901/1b86f2fc-7a1d-4aa8-9252-114f92edef3b.jpg""]","",""
"","4514","similarity","90","474782","0.0-6.0-84.0","2","[""img/0881/6b1189e6-232d-4042-8885-16dc7b10e0d4.jpg"",""img/0898/26c41340-15bd-4ead-8fe4-c0d0ddca09c2.jpg""]","",""
"","2589","similarity","91","478397","0.0-6.0-85.0","3","[""img/0868/09a9ef4d-d000-4cfa-a6aa-ebec7c2edeb4.jpg"",""img/0860/c5ccd1a4-4bb7-48e1-9b25-72cfaf06909b.jpg""]","",""
"","4099","similarity","92","483506","0.0-6.0-86.0","3","[""img/0758/9fb5b2fe-3f00-4fe6-973c-1ce10d5f4cd5.jpg"",""img/0868/83b4350a-3b70-4cea-b7f5-b5b56f3050a8.jpg""]","",""
"","3756","similarity","93","488269","0.0-6.0-87.0","3","[""img/0864/afcba0a3-7e27-4757-b254-e9f05fad27e2.jpg"",""img/0894/c505c65a-cde2-4f2c-8cde-f8676f7c894d.jpg""]","",""
"","3499","similarity","94","492778","0.0-6.0-88.0","2","[""img/0866/be24ab58-230e-4db8-9f45-ff04c9aec6bb.jpg"",""img/0902/d1083f2c-5520-44ec-81a8-3f856fbf0e80.jpg""]","",""
"","5439","similarity","95","499230","0.0-6.0-89.0","3","[""img/0769/3adfa417-3b90-4aab-b437-5eaa474189cb.jpg"",""img/0867/179ab87a-8eac-4c52-a41f-2e48e3120f09.jpg""]","",""
"","2994","similarity","96","503251","0.0-6.0-90.0","5","[""img/0874/31e22c7c-99aa-40b1-bf03-dd73fa2df4d6.jpg"",""img/0875/ebf7653f-ff45-4e9f-af58-2c042ab3cd2b.jpg""]","",""
"","3172","similarity","97","507431","0.0-6.0-91.0","7","[""img/0864/da39ad34-04e0-40d4-a724-c08d53e0ea09.jpg"",""img/0874/767f289c-9814-4496-803f-745cc8913d1f.jpg""]","",""
"","2599","similarity","98","511040","0.0-6.0-92.0","5","[""img/0881/445edb15-bd7f-4af3-8bd5-c6ad9677bb31.jpg"",""img/0862/24cdc752-c2e5-4a17-86a6-6f2045d8553b.jpg""]","",""
"","3893","similarity","99","515960","0.0-6.0-93.0","6","[""img/0864/0f537697-a314-47c3-a8cc-8df23b7e536c.jpg"",""img/0881/f4e3e181-b3c9-4af2-a5a4-fc135ab70d2e.jpg""]","",""
"","3363","similarity","100","520329","0.0-6.0-94.0","5","[""img/0899/0e1d936a-dbe2-4afc-9f19-7b7a1ae6c9ed.jpg"",""img/0901/c6c877e0-dd63-4e00-9657-33af29d55aab.jpg""]","",""
"","4998","similarity","101","526337","0.0-6.0-95.0","6","[""img/0874/c0378dac-9370-439a-8b79-db27c96fb390.jpg"",""img/0766/1bc0dccc-a5b5-4375-87fa-28360ca42b12.jpg""]","",""
"","3486","similarity","102","530833","0.0-6.0-96.0","5","[""img/0881/e046471a-35b4-4159-bbf7-3cfd201bef66.jpg"",""img/0899/4408c14d-c168-4a7d-96f6-bc87bfb58f83.jpg""]","",""
"","3964","similarity","103","535809","0.0-6.0-97.0","4","[""img/0862/e8cc3bdf-cc43-4565-bccf-492626c70953.jpg"",""img/0902/fbef27fa-ac83-4936-ab78-9d1c20a383e1.jpg""]","",""
"","3984","similarity","104","540803","0.0-6.0-98.0","6","[""img/0899/5b56dd3e-3f49-47cc-af84-16da6457753b.jpg"",""img/0764/ba0c0955-acbb-457d-b1c2-f006b88121d5.jpg""]","",""
"","3472","similarity","105","545280","0.0-6.0-99.0","5","[""img/0758/6cd8c362-ae2a-41eb-80a3-3a4f7ace1530.jpg"",""img/0862/fb26cb07-d5a9-4653-813c-f41609f26cd5.jpg""]","",""
"","4613","similarity","106","550906","0.0-6.0-100.0","7","[""img/0764/cbdc4f20-3a9a-4211-9b40-090699e0abcc.jpg"",""img/0898/6cd3830b-d44e-4915-be2b-88d31424b91c.jpg""]","",""
"","5095","similarity","107","557011","0.0-6.0-101.0","6","[""img/0901/7d4a3388-488d-4e9b-9d32-9d0def7aae8d.jpg"",""img/0902/94ee9c53-a9a2-4f95-b9b7-794a5fc62bb6.jpg""]","",""
"","3678","similarity","108","561700","0.0-6.0-102.0","3","[""img/0764/958b8576-3a3b-4acc-96dc-06b74de69f37.jpg"",""img/0868/d98ca254-b195-477f-b57e-5760a2717db8.jpg""]","",""
"","3731","similarity","109","566446","0.0-6.0-103.0","3","[""img/0769/b664b502-a86c-46c1-ad6f-5ebffc2e1bd3.jpg"",""img/0881/f6bd3b96-dc40-4e99-8681-bc3a35cf896d.jpg""]","",""
"","4634","similarity","110","572090","0.0-6.0-104.0","2","[""img/0864/e336a4c5-6648-4fd7-b2f6-93a3fb83f8c6.jpg"",""img/0769/965c3c44-d9e5-47c5-b61a-2bbdf4215d9a.jpg""]","",""
"","3889","similarity","111","576994","0.0-6.0-105.0","5","[""img/0866/6f2a90d7-14f1-4f1b-bd64-fc0af6b9fe44.jpg"",""img/0868/fd307a36-9a3a-47d7-ab7c-f810d0b35040.jpg""]","",""
"","3031","similarity","112","581037","0.0-6.0-106.0","4","[""img/0868/3a62db2d-97e9-44a3-b8e3-a48c6f0e423b.jpg"",""img/0862/fad1d7c1-8187-43c3-942a-0fc12183e48e.jpg""]","",""
"","2460","similarity","113","584505","0.0-6.0-107.0","6","[""img/0766/a1ed3f0f-e338-4a26-8fe4-4370f0c9fa6e.jpg"",""img/0898/e167334e-cc1d-4986-b3b1-c7bc7da64baa.jpg""]","",""
"","3729","similarity","114","589261","0.0-6.0-108.0","3","[""img/0898/b3290bf9-215b-4b45-b21a-65bdf73f142f.jpg"",""img/0864/3d4de670-b290-4285-9c3d-12a0e3af44e9.jpg""]","",""
"","4240","similarity","115","594503","0.0-6.0-109.0","5","[""img/0868/4e626425-63c8-484a-8a1d-e66ee4e0bef8.jpg"",""img/0902/6730b12a-f0a7-4587-8c10-a32fae16565b.jpg""]","",""
"","3349","similarity","116","598856","0.0-6.0-110.0","6","[""img/0904/4b8daf2a-13a9-4ea9-9e0b-b265b6e933e7.jpg"",""img/0764/d7f3ac54-318a-4dac-a06b-62bed34d01a4.jpg""]","",""
"","2676","similarity","117","602552","0.0-6.0-111.0","3","[""img/0894/133a1636-d123-4893-873c-1718050f832a.jpg"",""img/0875/90da8d75-108a-44ad-b999-e21fee3860d3.jpg""]","",""
"","3071","similarity","118","606641","0.0-6.0-112.0","5","[""img/0868/6a28c3b0-3d76-498a-9fb7-ddafc665eca8.jpg"",""img/0874/2c9464dd-8a23-4baa-ac94-1ba3af5c15cc.jpg""]","",""
"","3449","similarity","119","612583","0.0-6.0-113.0","6","[""img/0904/a8c3c7d2-9bcf-4347-9e03-8203adfc1fc5.jpg"",""img/0898/82231d4c-218b-4d0a-b50d-35a49b524e97.jpg""]","",""
"","3496","similarity","120","617092","0.0-6.0-114.0","4","[""img/0860/5383b320-1518-4095-a58e-5cc1ae30b64c.jpg"",""img/0766/2746b119-4bba-463e-acf0-88136dc6600c.jpg""]","",""
"","2779","similarity","121","620881","0.0-6.0-115.0","6","[""img/0894/7f2f31fd-6618-41c6-b65a-0fd8b2851bc9.jpg"",""img/0874/93d1f8dc-acf2-4f03-bd8d-8ec35df276ed.jpg""]","",""
"","3561","similarity","122","625455","0.0-6.0-116.0","5","[""img/0899/66ab3178-c3fe-4455-ad17-d5952b08e018.jpg"",""img/0903/e2e55a9e-0397-4dc0-8adf-4a54cfefe1fe.jpg""]","",""
"","4767","similarity","123","631233","0.0-6.0-117.0","5","[""img/0881/d373cb9f-a719-4549-a2a4-82def79fb2a5.jpg"",""img/0764/e0788029-9d7f-414c-b747-46d2a99f7c86.jpg""]","",""
"","5373","similarity","124","637616","0.0-6.0-118.0","4","[""img/0903/97a42b34-5462-4665-88c7-83c014b33d24.jpg"",""img/0769/35364db7-e0d5-40ef-93dc-faf9dfb95136.jpg""]","",""
"","3149","similarity","125","641773","0.0-6.0-119.0","5","[""img/0901/fb0a8e69-7f19-4e6e-a6bb-a48f97f9b4f3.jpg"",""img/0904/da170c1b-9651-4f08-b231-2bdd1d9a046f.jpg""]","",""
"","4002","similarity","126","646782","0.0-6.0-120.0","6","[""img/0860/4f695df5-afac-4da7-9875-fee39b0b24ad.jpg"",""img/0881/344de456-b358-4887-bd0e-e4c3278af887.jpg""]","",""
"","2795","similarity","127","650594","0.0-6.0-121.0","7","[""img/0758/b76ceca7-95ac-46e4-ac13-da02c8e93be9.jpg"",""img/0874/3ce41e7c-40c8-4d58-a546-171114521796.jpg""]","",""
"","2329","similarity","128","653944","0.0-6.0-122.0","5","[""img/0901/148b747a-7392-437e-8823-33053c5dff3f.jpg"",""img/0769/a1ce8d07-ba37-40de-bade-2778805521e0.jpg""]","",""
"","3049","similarity","129","658003","0.0-6.0-123.0","5","[""img/0902/8af4182a-9af9-4212-a436-9195555112d6.jpg"",""img/0904/b5855d6a-7ef9-46ca-9215-6e9fa046e543.jpg""]","",""
"","3876","similarity","130","662906","0.0-6.0-124.0","2","[""img/0899/0adc0bc3-6fca-4078-be6f-d45ddf1653d5.jpg"",""img/0864/a248adb3-c70b-4652-b7a3-776d2a1e904b.jpg""]","",""
"","3686","similarity","131","667598","0.0-6.0-125.0","1","[""img/0766/0bf3793e-c353-45e5-ac6f-753f5f484e10.jpg"",""img/0868/8b0b8473-e2c0-4331-aa56-c3a5c29369da.jpg""]","",""
"","3056","similarity","132","671658","0.0-6.0-126.0","5","[""img/0764/ca9829fe-aaf8-45b8-b98a-6bae751c63dd.jpg"",""img/0864/9b2490c5-a282-400a-9736-e1a0ecbf1cb7.jpg""]","",""
"","3339","similarity","133","676006","0.0-6.0-127.0","3","[""img/0899/93494f3b-d539-4075-b027-d82e344563da.jpg"",""img/0866/02f5e6b9-52b7-448c-9708-5b460d0c9a23.jpg""]","",""
"","2716","similarity","134","679742","0.0-6.0-128.0","2","[""img/0901/58978a6d-a3e2-4c59-8d62-f60693ecc0f6.jpg"",""img/0881/db77fe00-aeb0-4d1d-aa66-f3a96fd077e4.jpg""]","",""
"","5235","similarity","135","685978","0.0-6.0-129.0","6","[""img/0898/5f699581-3853-4547-856c-12f419ba5af7.jpg"",""img/0903/9b60ef5b-234f-4239-892b-3d4c412accc2.jpg""]","",""
"","2622","similarity","136","689606","0.0-6.0-130.0","3","[""img/0894/0130a973-d993-41f8-874a-fee23d9ac11f.jpg"",""img/0867/de92135f-5b65-4ed9-b245-188292c7c2f8.jpg""]","",""
"","4048","similarity","137","694661","0.0-6.0-131.0","4","[""img/0874/85eb9b8a-c4c6-4e5a-b8e7-363a87a82054.jpg"",""img/0903/14f179a2-8786-48a2-8377-88d1d404341b.jpg""]","",""
"","2964","similarity","138","698636","0.0-6.0-132.0","5","[""img/0899/25ae6ec8-9565-49fe-a8bb-8d0666f52716.jpg"",""img/0898/ec565187-2e31-4fdd-9a5c-153d0c789ae0.jpg""]","",""
"","3067","similarity","139","702715","0.0-6.0-133.0","3","[""img/0867/2e1a0b58-cdb1-4107-a14e-452530d7b9b0.jpg"",""img/0764/6fbd1902-fa2a-48d8-bc11-705b8ab68d8f.jpg""]","",""
"","3217","similarity","140","706944","0.0-6.0-134.0","5","[""img/0866/0207e9a2-7dbb-40b5-9459-b472aaeceb2a.jpg"",""img/0769/f6396414-6788-4d59-9683-de153298d89c.jpg""]","",""
"","4355","similarity","141","712306","0.0-6.0-135.0","5","[""img/0860/e8b8c51e-1834-4875-8b61-6c5bc9b178bd.jpg"",""img/0898/993d8f2d-bef7-4251-a193-0f93a32b7763.jpg""]","",""
"","3183","similarity","142","716506","0.0-6.0-136.0","3","[""img/0881/54ea8e77-c7e5-4197-b7fa-00b7020849a7.jpg"",""img/0903/005ad0de-4f52-433c-b515-dbe8d46184a3.jpg""]","",""
"","4847","similarity","143","722364","0.0-6.0-137.0","6","[""img/0894/bd34223a-2f66-4e16-9d18-193a746b69ff.jpg"",""img/0766/dd3e18d0-0c98-4d05-b850-69976ee8cd75.jpg""]","",""
"","3169","similarity","144","726543","0.0-6.0-138.0","2","[""img/0860/15b24a61-25be-4356-9eac-5ce95d0cb4a4.jpg"",""img/0764/c01e2d65-6586-441b-bef5-3c96fcd85380.jpg""]","",""
"","2686","similarity","145","730243","0.0-6.0-139.0","5","[""img/0769/9ea27d61-3d55-418c-8d14-82e90f656f01.jpg"",""img/0902/b03fee99-d5ca-4bf8-871c-a4a743a39842.jpg""]","",""
"","2353","similarity","146","733609","0.0-6.0-140.0","7","[""img/0904/06dacdc5-2206-4fb8-92b7-88042d22833c.jpg"",""img/0903/5248eedd-7e6a-4d39-91b0-06ec227f3ed0.jpg""]","",""
"","2796","similarity","147","737418","0.0-6.0-141.0","5","[""img/0764/d7c215ab-ea9a-45be-8d5f-417d5b9a8a17.jpg"",""img/0769/458d9c77-b844-40b5-bb1b-1e3bbd4da64e.jpg""]","",""
"","2905","similarity","148","741343","0.0-6.0-142.0","3","[""img/0902/0eb85fbc-27c8-41df-9d0b-a5f9efd417d1.jpg"",""img/0881/405484ae-0d00-4b05-bc57-6420a36adfac.jpg""]","",""
"","2959","similarity","149","745303","0.0-6.0-143.0","5","[""img/0866/d493a2c8-66eb-44b4-be02-2f327b700b7c.jpg"",""img/0864/f92649a2-0590-4d31-9a7a-1bfb81666a2d.jpg""]","",""
"","4062","similarity","150","750382","0.0-6.0-144.0","6","[""img/0902/97022122-01e4-46c3-a34f-c6260ad28428.jpg"",""img/0898/8605a25b-6895-476d-8c13-df7a83f96093.jpg""]","",""
"","3988","similarity","151","755371","0.0-6.0-145.0","3","[""img/0862/de9ad88c-b522-430a-8ee9-eb06a9f85df5.jpg"",""img/0864/efcfbb1b-8197-44c9-b723-40d6c608dd3c.jpg""]","",""
"","3073","similarity","152","759456","0.0-6.0-146.0","3","[""img/0875/03c3c331-738b-4446-af92-3d7386b08c2e.jpg"",""img/0898/881e2a85-d5c2-49be-a0c6-8a6ce2c4af08.jpg""]","",""
"","5792","similarity","153","766249","0.0-6.0-147.0","6","[""img/0874/99f6563c-8a8d-4c1c-a41d-667b618c3fd5.jpg"",""img/0881/c24f3051-eefa-42de-aba6-fccb56d93c70.jpg""]","",""
"","3457","similarity","154","770712","0.0-6.0-148.0","4","[""img/0758/d57c2592-a317-4f63-91be-91a3a9afd222.jpg"",""img/0894/492d2f29-d7b9-4422-8be8-47fd58bfaa8b.jpg""]","",""
"","2719","similarity","155","774443","0.0-6.0-149.0","3","[""img/0904/6291eb43-c10c-4810-a36a-101d09868b04.jpg"",""img/0864/c3b63e8f-ea39-4d70-a1f2-b3fe4be8eb75.jpg""]","",""
"","2946","similarity","156","778399","0.0-6.0-150.0","5","[""img/0769/022c7e3b-c3f2-4119-b4bc-f22fa7cae18c.jpg"",""img/0899/0433d056-aa30-4f8a-9aa1-abbb951e4edd.jpg""]","",""
"","2769","similarity","157","787685","0.0-6.0-151.0","6","[""img/0764/da207710-e7e4-4f42-b2e6-99b5f357f433.jpg"",""img/0903/5c6b1f57-b3a2-40f5-9fb1-82785e24b6a0.jpg""]","",""
"","3606","similarity","158","792304","0.0-6.0-152.0","3","[""img/0903/b548d383-2a95-4575-8c13-647873751ff1.jpg"",""img/0864/3651d070-2fc5-4848-b6a6-088a2d9ac5c9.jpg""]","",""
"","4162","similarity","159","797476","0.0-6.0-153.0","4","[""img/0894/a98416c0-51e2-4960-85da-d81d8688b9d5.jpg"",""img/0881/2a8413be-fec2-4de6-88ad-614dd4cccc9d.jpg""]","",""
"","3482","similarity","160","801965","0.0-6.0-154.0","5","[""img/0875/dbdd643e-6d0e-4a5c-ab57-b9c29b9c981a.jpg"",""img/0867/f8159067-056c-41f1-a136-c529fe5e970a.jpg""]","",""
"","5256","similarity","161","808241","0.0-6.0-155.0","5","[""img/0867/bf560d4f-dee3-4f11-a385-705cc1aa5f3c.jpg"",""img/0758/d41c06bf-ebaf-454b-91c6-1a17f917b659.jpg""]","",""
"","2532","similarity","162","811780","0.0-6.0-156.0","2","[""img/0868/0d3abd3a-b6c3-4584-a9f7-e2da63748b3d.jpg"",""img/0901/4d1bed7e-3c4e-4f6c-ada9-4beb66ba9e39.jpg""]","",""
"","2968","similarity","163","815756","0.0-6.0-157.0","7","[""img/0769/48a1144d-fbda-4809-991b-fc8424a32ee4.jpg"",""img/0894/38f5931f-926d-414e-b498-66b188978b7a.jpg""]","",""
"","3191","similarity","164","819964","0.0-6.0-158.0","3","[""img/0904/63dd06dd-dccb-47ba-9740-eb33239e18a7.jpg"",""img/0758/335851a0-a55b-46d8-ab05-8463eda48349.jpg""]","",""
"","3032","similarity","165","823998","0.0-6.0-159.0","4","[""img/0874/a82926a3-0b43-4add-803c-d5f9ea7798ee.jpg"",""img/0904/09dac84f-3d1c-4445-a68e-d0389fdbf1e9.jpg""]","",""
"","4238","similarity","166","829243","0.0-6.0-160.0","1","[""img/0864/1ebbc554-99fa-49f9-8799-317375a79820.jpg"",""img/0901/62315ff5-ed95-46b4-b099-92552079659b.jpg""]","",""
"","3912","similarity","167","834171","0.0-6.0-161.0","4","[""img/0898/0af304a2-6a7a-4082-ab7c-4450cd08cc58.jpg"",""img/0866/a04d37f0-99dd-478a-b6c6-58b215138f84.jpg""]","",""
"","2956","similarity","168","838140","0.0-6.0-162.0","5","[""img/0766/ea09dd5a-d24d-4e97-a099-7da3db1baef1.jpg"",""img/0903/2a9c8033-3e70-47fa-816d-97ee1813a3a3.jpg""]","",""
"","3597","similarity","169","842749","0.0-6.0-163.0","4","[""img/0860/4a022222-056d-461c-ab02-39fac9647552.jpg"",""img/0899/06b0fc99-0581-461a-9913-d1a5a941ac61.jpg""]","",""
"","3972","similarity","170","847722","0.0-6.0-164.0","4","[""img/0766/75c3d627-4f3b-40d5-9d9c-10c8a62db644.jpg"",""img/0862/e697469a-ec19-4414-b972-7b9f3564785b.jpg""]","",""
"","3075","similarity","171","851807","0.0-6.0-165.0","6","[""img/0898/cd3aaa3f-efa9-4ab3-8d6f-a6a9273ddf42.jpg"",""img/0894/1b3888e6-cf36-4c4a-a039-187aa5cb71ac.jpg""]","",""
"","4396","similarity","172","857210","0.0-6.0-166.0","3","[""img/0867/8ba0c5a7-c7e4-42cf-a80a-543763b90779.jpg"",""img/0766/33519c22-aaa4-49d7-8d49-ab551db1945e.jpg""]","",""
"","3006","similarity","173","861236","0.0-6.0-167.0","7","[""img/0904/65e2b70a-b184-4da3-b5c0-5038bdf9469a.jpg"",""img/0862/ba89835a-408c-480b-8594-ed4ffa97eb5c.jpg""]","",""
"","3539","similarity","174","865781","0.0-6.0-168.0","5","[""img/0866/f756f7d1-9ad8-4a34-9ef6-7a443d705bfe.jpg"",""img/0874/ca76a855-4e77-4f2f-872a-0a718153e7ed.jpg""]","",""
"","2472","similarity","175","869257","0.0-6.0-169.0","3","[""img/0903/36e4ab1f-caa9-40b3-8616-faada076df94.jpg"",""img/0868/179a5502-ab5c-478e-8263-5a1fbcc101d2.jpg""]","",""
"","3729","similarity","176","873996","0.0-6.0-170.0","5","[""img/0769/ebef2ddc-ba59-4e0e-97f8-927864eb5081.jpg"",""img/0904/73920552-103b-4c9c-9ece-e0b8376b4504.jpg""]","",""
"","2493","similarity","177","877492","0.0-6.0-171.0","3","[""img/0875/527ced51-8e53-4aab-ab05-86df219104c0.jpg"",""img/0764/23ea9375-f801-4a96-9925-7d453da887c7.jpg""]","",""
"","3103","similarity","178","881612","0.0-6.0-172.0","4","[""img/0860/d9a0d117-6d1d-41c0-8fec-9aff0fd9e9f2.jpg"",""img/0903/6378ee1e-3d2b-48d2-87be-bebda32c8268.jpg""]","",""
"","2947","similarity","179","885575","0.0-6.0-173.0","5","[""img/0864/300bb811-8b3c-4c42-8653-6097c3725197.jpg"",""img/0867/a749dddb-69f0-44a6-acdc-2bf295cf6dcc.jpg""]","",""
"","3220","similarity","180","889804","0.0-6.0-174.0","5","[""img/0868/c8ac40c7-6904-4e13-8d61-c75d3052dc4e.jpg"",""img/0864/49150900-7f25-4ce8-8d10-9b47a71d1997.jpg""]","",""
"","3659","similarity","181","894473","0.0-6.0-175.0","6","[""img/0898/4184e5a2-84ea-4f36-9b42-ae58646f6f87.jpg"",""img/0769/c34b7763-8ff2-46d5-9e92-f1d8f3bedbd8.jpg""]","",""
"","3985","similarity","182","899475","0.0-6.0-176.0","7","[""img/0766/d14acac4-7db1-4b07-8f8f-302437326fc0.jpg"",""img/0764/952d7adc-dc40-4aee-acce-18c2a1d02ea1.jpg""]","",""
"","2959","similarity","183","903444","0.0-6.0-177.0","2","[""img/0764/83c93cce-18d1-4aa7-9e23-2c268afe0a46.jpg"",""img/0866/a15b02be-11bb-43e3-b0e0-ecc3bd7dfc49.jpg""]","",""
"","2776","similarity","184","907234","0.0-6.0-178.0","3","[""img/0902/40d0b6ec-3907-4573-b227-e7d8e9cad1c3.jpg"",""img/0875/8521fd58-3b1e-4dc5-97ae-804edfa6734a.jpg""]","",""
"","3805","similarity","185","912056","0.0-6.0-179.0","3","[""img/0881/b1a136f7-8511-4d3a-a0f6-3879acf1e1a1.jpg"",""img/0904/d23dd7be-7fe8-4435-82f7-bd592c01e6a1.jpg""]","",""
"","3793","similarity","186","916862","0.0-6.0-180.0","5","[""img/0874/29830da7-be5f-44e5-b141-652a0ccf7269.jpg"",""img/0860/94ef7afc-e0e6-4a15-98c6-0bfac82bc832.jpg""]","",""
"","3217","similarity","187","921094","0.0-6.0-181.0","3","[""img/0769/c7cfacc3-7f07-46ff-9f5d-8073f4c4679b.jpg"",""img/0874/1016b306-087c-4afc-aa08-fa527b28dc76.jpg""]","",""
"","2926","similarity","188","925027","0.0-6.0-182.0","5","[""img/0904/9b3568cc-3cf7-42be-9df3-fdafde7a58b8.jpg"",""img/0766/a0270213-fa0e-4972-8b56-228c3e01ff90.jpg""]","",""
"","4470","similarity","189","930505","0.0-6.0-183.0","6","[""img/0902/d2c34af0-8c50-437d-8cc3-619195a3e8ba.jpg"",""img/0764/6ef77040-1fae-4afa-bfe7-eda98e6d0376.jpg""]","",""
"","3271","similarity","190","934781","0.0-6.0-184.0","5","[""img/0769/d1be2815-fa79-46e8-b5c3-7d81caaca490.jpg"",""img/0875/2c361b79-c3d1-4eda-812e-bf03192407bf.jpg""]","",""
"","3159","similarity","191","938947","0.0-6.0-185.0","3","[""img/0867/f8488a47-94ee-4166-952c-44e16cf172f6.jpg"",""img/0903/71dbc325-b588-4297-a5cf-7f268a722ad9.jpg""]","",""
"","2716","similarity","192","942679","0.0-6.0-186.0","4","[""img/0862/847e5208-38ec-4f36-949c-296cdd7424ee.jpg"",""img/0769/da36e3f7-2337-434f-ab57-11822dd7eed7.jpg""]","",""
"","2943","similarity","193","946629","0.0-6.0-187.0","2","[""img/0766/d50d734f-285c-4840-bc7a-c8dd4aff391e.jpg"",""img/0866/9b38d691-1802-4959-ab3f-fc902f0e4ea6.jpg""]","",""
"","3770","similarity","194","951405","0.0-6.0-188.0","5","[""img/0769/6c0bac4c-5f59-43c7-898c-3ca93cf55cfe.jpg"",""img/0860/b03b963d-949b-4d8d-b19c-4950c89eeca2.jpg""]","",""
"","4324","similarity","195","960017","0.0-6.0-189.0","4","[""img/0881/633c6f40-56d9-4b48-bf1c-ecd83116eabb.jpg"",""img/0868/77091fc7-a590-4ebb-b915-fdb2483a2399.jpg""]","",""
"[{""page_index"":0,""viewing_time"":6224}]","6224","instructions","196","967244","0.0-7.0","","","",""
"","21432","image-multi-choice","197","989701","0.0-8.0-0.0","","","{""Q0"":""Orange-crowned Warbler""}","Nashville Warbler"
"","3339","image-multi-choice","198","994070","0.0-8.0-1.0","","","{""Q0"":""Black-and-white Warbler""}","Black-and-white Warbler"
"","3666","image-multi-choice","199","998739","0.0-8.0-2.0","","","{""Q0"":""Blackburnian Warbler""}","Townsend's Warbler"
"","3034","image-multi-choice","200","1002788","0.0-8.0-3.0","","","{""Q0"":""Lark Sparrow""}","Lark Sparrow"
"","2763","image-multi-choice","201","1006554","0.0-8.0-4.0","","","{""Q0"":""Yellow Warbler""}","Yellow Warbler"
"","9648","image-multi-choice","202","1017228","0.0-8.0-5.0","","","{""Q0"":""Tennessee Warbler""}","Orange-crowned Warbler"
"","7185","image-multi-choice","203","1025433","0.0-8.0-6.0","","","{""Q0"":""White-throated Sparrow""}","White-throated Sparrow"
"","3702","image-multi-choice","204","1030152","0.0-8.0-7.0","","","{""Q0"":""Fox Sparrow""}","Fox Sparrow"
"","12517","image-multi-choice","205","1043689","0.0-8.0-8.0","","","{""Q0"":""Lincoln's Sparrow""}","Song Sparrow"
"","4661","image-multi-choice","206","1049351","0.0-8.0-9.0","","","{""Q0"":""Magnolia Warbler""}","Blackburnian Warbler"
"","13510","image-multi-choice","207","1063875","0.0-8.0-10.0","","","{""Q0"":""Swamp Sparrow""}","Vesper Sparrow"
"","3347","image-multi-choice","208","1068235","0.0-8.0-11.0","","","{""Q0"":""White-crowned Sparrow""}","White-crowned Sparrow"
"","12367","image-multi-choice","209","1081612","0.0-8.0-12.0","","","{""Q0"":""Vesper Sparrow""}","American Tree Sparrow"
"","11180","image-multi-choice","210","1093806","0.0-8.0-13.0","","","{""Q0"":""Tennessee Warbler""}","Tennessee Warbler"
"","14781","image-multi-choice","211","1109606","0.0-8.0-14.0","","","{""Q0"":""Townsend's Warbler""}","Magnolia Warbler"
"","5758","image-multi-choice","212","1116378","0.0-8.0-15.0","","","{""Q0"":""Northern Waterthrush""}","Northern Waterthrush"
"","4326","image-multi-choice","213","1121714","0.0-8.0-16.0","","","{""Q0"":""American Tree Sparrow""}","Chipping Sparrow"
"","20569","image-multi-choice","214","1143296","0.0-8.0-17.0","","","{""Q0"":""Swamp Sparrow""}","Swamp Sparrow"
"","5202","image-multi-choice","215","1149525","0.0-8.0-18.0","","","{""Q0"":""Song Sparrow""}","Lincoln's Sparrow"
"","2839","image-multi-choice","216","1153374","0.0-8.0-19.0","","","{""Q0"":""Ovenbird""}","Ovenbird"
