[{"view_history":"[{\"page_index\":0,\"viewing_time\":17673}]","rt":17673,"trial_type":"instructions","trial_index":0,"time_elapsed":17674,"internal_node_id":"0.0-0.0"},{"sim_score":7,"rt":6168,"stimulus":"[\"img/bluejay1.jpg\",\"img/bluejay2.jpg\"]","trial_type":"similarity_demo","trial_index":1,"time_elapsed":24849,"internal_node_id":"0.0-1.0"},{"view_history":"[{\"page_index\":0,\"viewing_time\":5889}]","rt":5889,"trial_type":"instructions","trial_index":2,"time_elapsed":31754,"internal_node_id":"0.0-2.0"},{"sim_score":4,"rt":8569,"stimulus":"[\"img/bluejay1.jpg\",\"img/cardinal1.jpg\"]","trial_type":"similarity_demo","trial_index":3,"time_elapsed":41342,"internal_node_id":"0.0-3.0"},{"view_history":"[{\"page_index\":0,\"viewing_time\":9542}]","rt":9542,"trial_type":"instructions","trial_index":4,"time_elapsed":51894,"internal_node_id":"0.0-4.0"},{"view_history":"[{\"page_index\":0,\"viewing_time\":37113}]","rt":37113,"trial_type":"instructions","trial_index":5,"time_elapsed":90019,"internal_node_id":"0.0-5.0"},{"sim_score":4,"rt":5367,"stimulus":"[\"img/0868/e0aff734-077f-40dd-9781-74821abd3621.jpg\",\"img/0894/9b1333fd-3561-43bf-aee5-99b7b7ca3dc3.jpg\"]","trial_type":"similarity","trial_index":6,"time_elapsed":96404,"internal_node_id":"0.0-6.0-0.0"},{"sim_score":4,"rt":4445,"stimulus":"[\"img/0898/f3a3f225-1248-4ac7-b93b-f0ff28485bf3.jpg\",\"img/0758/65d426d6-3ff6-415d-8654-a43b83ecc4fe.jpg\"]","trial_type":"similarity","trial_index":7,"time_elapsed":101853,"internal_node_id":"0.0-6.0-1.0"},{"sim_score":5,"rt":3277,"stimulus":"[\"img/0903/647ce311-8c71-479a-8361-961db1457139.jpg\",\"img/0894/661b9f9f-4bde-487a-b1ed-87085fde6948.jpg\"]","trial_type":"similarity","trial_index":8,"time_elapsed":106145,"internal_node_id":"0.0-6.0-2.0"},{"sim_score":5,"rt":3262,"stimulus":"[\"img/0881/48ed65a5-471f-41af-86ec-3793805c116d.jpg\",\"img/0766/0025de5e-f620-4079-8a0f-00326ff3a6b0.jpg\"]","trial_type":"similarity","trial_index":9,"time_elapsed":110418,"internal_node_id":"0.0-6.0-3.0"},{"sim_score":3,"rt":4389,"stimulus":"[\"img/0864/ef9cbca0-4be8-435d-ad49-977259e80409.jpg\",\"img/0860/18dfed73-e36b-4487-a8bd-0b8cff8e3668.jpg\"]","trial_type":"similarity","trial_index":10,"time_elapsed":115830,"internal_node_id":"0.0-6.0-4.0"},{"sim_score":5,"rt":3179,"stimulus":"[\"img/0902/cdec1bc6-7f90-4f72-9e01-f5a4111bac1d.jpg\",\"img/0899/b45c550b-96c3-4255-ad59-48a2b4db1c1e.jpg\"]","trial_type":"similarity","trial_index":11,"time_elapsed":120016,"internal_node_id":"0.0-6.0-5.0"},{"sim_score":3,"rt":4647,"stimulus":"[\"img/0868/15dd6fd7-791e-4b53-b203-195d617521a4.jpg\",\"img/0769/91acb237-65a3-4d0b-9748-af5c7b83d3c7.jpg\"]","trial_type":"similarity","trial_index":12,"time_elapsed":125688,"internal_node_id":"0.0-6.0-6.0"},{"sim_score":5,"rt":3247,"stimulus":"[\"img/0764/f64dfa83-333d-494c-87b5-73e942f1766e.jpg\",\"img/0901/1ede21d9-384f-4150-86b5-e1c57b5dc1d4.jpg\"]","trial_type":"similarity","trial_index":13,"time_elapsed":129957,"internal_node_id":"0.0-6.0-7.0"},{"sim_score":2,"rt":3287,"stimulus":"[\"img/0881/4da99fdd-1f40-4bbb-8e21-8833eef313f5.jpg\",\"img/0866/bf14b5bd-fb55-47db-86b9-4f8aeb9a6dad.jpg\"]","trial_type":"similarity","trial_index":14,"time_elapsed":134250,"internal_node_id":"0.0-6.0-8.0"},{"sim_score":3,"rt":3815,"stimulus":"[\"img/0867/aa05d113-fc19-4756-a8eb-7878f580bc92.jpg\",\"img/0899/7f9d45d0-b2c6-40d3-aa41-c207db2c411b.jpg\"]","trial_type":"similarity","trial_index":15,"time_elapsed":139085,"internal_node_id":"0.0-6.0-9.0"},{"sim_score":2,"rt":4615,"stimulus":"[\"img/0875/5a7c4e35-6514-4e12-8879-d16071da4cd6.jpg\",\"img/0766/2e1cf445-9aef-40e7-92f4-5facf48b64c5.jpg\"]","trial_type":"similarity","trial_index":16,"time_elapsed":144707,"internal_node_id":"0.0-6.0-10.0"},{"sim_score":2,"rt":4252,"stimulus":"[\"img/0901/1e23ffbd-19de-4c4f-aa23-c54aaa3319a3.jpg\",\"img/0875/5a1e5100-0d94-4fec-bbe9-ca9894d2cf8e.jpg\"]","trial_type":"similarity","trial_index":17,"time_elapsed":149976,"internal_node_id":"0.0-6.0-11.0"},{"sim_score":5,"rt":3691,"stimulus":"[\"img/0902/bd89a85f-3853-4786-acd6-98818ee29f1c.jpg\",\"img/0860/8a92e21b-6a32-4e4a-a445-2d5a487ed0a4.jpg\"]","trial_type":"similarity","trial_index":18,"time_elapsed":154669,"internal_node_id":"0.0-6.0-12.0"},{"sim_score":3,"rt":4512,"stimulus":"[\"img/0874/bf14b896-e930-4fd9-9c05-2e83317a2773.jpg\",\"img/0867/db7e032f-162b-46f5-ae67-2b29679adee4.jpg\"]","trial_type":"similarity","trial_index":19,"time_elapsed":160184,"internal_node_id":"0.0-6.0-13.0"},{"sim_score":5,"rt":3957,"stimulus":"[\"img/0904/9dd5708f-3f8b-46a9-b49f-2f2fab87b357.jpg\",\"img/0866/620cd1aa-0800-4414-8f6e-90342e7a99ad.jpg\"]","trial_type":"similarity","trial_index":20,"time_elapsed":165154,"internal_node_id":"0.0-6.0-14.0"},{"sim_score":5,"rt":2782,"stimulus":"[\"img/0758/7ffbc76b-1fc1-432c-8f7e-9ec8d1b3f643.jpg\",\"img/0902/1f4a4c62-68c1-4993-b213-05652a173ed1.jpg\"]","trial_type":"similarity","trial_index":21,"time_elapsed":168947,"internal_node_id":"0.0-6.0-15.0"},{"sim_score":3,"rt":3590,"stimulus":"[\"img/0867/1719a35d-f085-48c0-9099-16c94fe418b4.jpg\",\"img/0898/b2732712-71c2-45d8-834f-2b2ed5504910.jpg\"]","trial_type":"similarity","trial_index":22,"time_elapsed":173553,"internal_node_id":"0.0-6.0-16.0"},{"sim_score":2,"rt":2923,"stimulus":"[\"img/0904/1d10df11-b5c8-4370-9a6b-097a7f965895.jpg\",\"img/0868/293079b8-7e0c-4afd-a390-1e5d35fe3ded.jpg\"]","trial_type":"similarity","trial_index":23,"time_elapsed":177482,"internal_node_id":"0.0-6.0-17.0"},{"sim_score":3,"rt":3543,"stimulus":"[\"img/0766/af3be95e-e52e-4fae-899b-0ff02ec340aa.jpg\",\"img/0864/b3c4e378-28f0-4699-9338-2a257b4bca04.jpg\"]","trial_type":"similarity","trial_index":24,"time_elapsed":182037,"internal_node_id":"0.0-6.0-18.0"},{"sim_score":6,"rt":4112,"stimulus":"[\"img/0899/1b3457ea-87d4-4946-a01c-aac1863ed46c.jpg\",\"img/0766/908bc45b-7c9e-4f95-806e-86b196ebcb2c.jpg\"]","trial_type":"similarity","trial_index":25,"time_elapsed":187163,"internal_node_id":"0.0-6.0-19.0"},{"sim_score":4,"rt":2853,"stimulus":"[\"img/0764/39a9fc7e-b863-432c-9374-de43983f31a5.jpg\",\"img/0758/61d64021-9214-4951-bdf8-f871f9827cf9.jpg\"]","trial_type":"similarity","trial_index":26,"time_elapsed":191019,"internal_node_id":"0.0-6.0-20.0"},{"sim_score":1,"rt":2806,"stimulus":"[\"img/0901/5657dd86-0ff9-4753-ba2b-9dfb223e5c89.jpg\",\"img/0874/eba003b4-cdab-4eee-8bc3-f064c7d94165.jpg\"]","trial_type":"similarity","trial_index":27,"time_elapsed":194838,"internal_node_id":"0.0-6.0-21.0"},{"sim_score":5,"rt":3589,"stimulus":"[\"img/0875/5a716432-c6ca-4b1c-955a-2b8ac25198ee.jpg\",\"img/0758/ddc336e9-a8b6-4bb9-937a-c7e25e0e9250.jpg\"]","trial_type":"similarity","trial_index":28,"time_elapsed":199444,"internal_node_id":"0.0-6.0-22.0"},{"sim_score":3,"rt":4191,"stimulus":"[\"img/0867/12264664-1860-46df-8c21-162b9817cdda.jpg\",\"img/0881/19e82c47-8e4b-45d2-a6c8-74181eb4155e.jpg\"]","trial_type":"similarity","trial_index":29,"time_elapsed":204643,"internal_node_id":"0.0-6.0-23.0"},{"sim_score":1,"rt":2934,"stimulus":"[\"img/0758/a085b443-b5d7-4cb2-9ad4-b9dab0fc23f1.jpg\",\"img/0901/77087ed2-6e12-4329-b2a5-605bca6d972d.jpg\"]","trial_type":"similarity","trial_index":30,"time_elapsed":208585,"internal_node_id":"0.0-6.0-24.0"},{"sim_score":5,"rt":2643,"stimulus":"[\"img/0868/1a62b2b2-18f5-466e-b564-5176a57c565e.jpg\",\"img/0875/42910c99-5463-450a-a0f8-d4d060a11455.jpg\"]","trial_type":"similarity","trial_index":31,"time_elapsed":212241,"internal_node_id":"0.0-6.0-25.0"},{"sim_score":6,"rt":3020,"stimulus":"[\"img/0903/f67c4ab9-f8c2-4fcd-848a-a54a7b031002.jpg\",\"img/0901/d61f267a-c492-4db6-9bfb-61efd49cf072.jpg\"]","trial_type":"similarity","trial_index":32,"time_elapsed":216273,"internal_node_id":"0.0-6.0-26.0"},{"sim_score":5,"rt":3538,"stimulus":"[\"img/0894/7fb082e0-ce79-485c-9109-04367fb32275.jpg\",\"img/0899/d60714ae-98d7-4564-8c98-94dba1351135.jpg\"]","trial_type":"similarity","trial_index":33,"time_elapsed":220825,"internal_node_id":"0.0-6.0-27.0"},{"sim_score":1,"rt":2250,"stimulus":"[\"img/0862/cdaed51d-9e2f-4807-801a-4663c40077e2.jpg\",\"img/0867/5e07b34d-b40f-4b1c-ac10-49975bace45f.jpg\"]","trial_type":"similarity","trial_index":34,"time_elapsed":224085,"internal_node_id":"0.0-6.0-28.0"},{"sim_score":5,"rt":2591,"stimulus":"[\"img/0864/65210d57-1153-4657-886a-32e758f49b4a.jpg\",\"img/0875/f87b67d7-c33e-40d1-b281-248c4be1cb6e.jpg\"]","trial_type":"similarity","trial_index":35,"time_elapsed":227691,"internal_node_id":"0.0-6.0-29.0"},{"sim_score":5,"rt":2626,"stimulus":"[\"img/0862/f23038d4-c366-4f70-979f-66b62362efa4.jpg\",\"img/0874/a3bc679d-619f-4db6-bb68-116dcb757d9c.jpg\"]","trial_type":"similarity","trial_index":36,"time_elapsed":231324,"internal_node_id":"0.0-6.0-30.0"},{"sim_score":5,"rt":2753,"stimulus":"[\"img/0903/0fb24af7-9a26-4e9d-aadc-959a36f683e2.jpg\",\"img/0758/3ddd05d3-557e-4ee7-8b78-9d2d681d8ae2.jpg\"]","trial_type":"similarity","trial_index":37,"time_elapsed":235086,"internal_node_id":"0.0-6.0-31.0"},{"sim_score":2,"rt":2566,"stimulus":"[\"img/0866/23a224f3-2012-4fc8-8e0f-3c36f8de27fd.jpg\",\"img/0901/c6df1a21-44ed-47c2-960e-7c52220e329e.jpg\"]","trial_type":"similarity","trial_index":38,"time_elapsed":238662,"internal_node_id":"0.0-6.0-32.0"},{"sim_score":5,"rt":2773,"stimulus":"[\"img/0874/7e4f2150-3b59-4a36-b5da-a4e0ba410531.jpg\",\"img/0899/f95cbdb4-f804-4f5d-ad76-373ad343e658.jpg\"]","trial_type":"similarity","trial_index":39,"time_elapsed":242445,"internal_node_id":"0.0-6.0-33.0"},{"sim_score":7,"rt":3262,"stimulus":"[\"img/0903/5ea5bbe0-f238-4724-abe7-9ed8dee8c0ba.jpg\",\"img/0902/3f0eeac5-c996-4026-a376-563ce8f28521.jpg\"]","trial_type":"similarity","trial_index":40,"time_elapsed":246720,"internal_node_id":"0.0-6.0-34.0"},{"sim_score":2,"rt":3763,"stimulus":"[\"img/0758/a709631e-3705-4725-ac40-f0d916924f08.jpg\",\"img/0866/c446214b-a368-4c65-ae39-ea46894256ab.jpg\"]","trial_type":"similarity","trial_index":41,"time_elapsed":251490,"internal_node_id":"0.0-6.0-35.0"},{"sim_score":2,"rt":3318,"stimulus":"[\"img/0875/3ecb367d-e9eb-4826-8aaa-7aa72fb98019.jpg\",\"img/0903/47e39de8-6959-469f-8be9-6999a6db207c.jpg\"]","trial_type":"similarity","trial_index":42,"time_elapsed":255819,"internal_node_id":"0.0-6.0-36.0"},{"sim_score":5,"rt":2603,"stimulus":"[\"img/0864/87c467d3-abca-482f-ad80-3766c21b1bb3.jpg\",\"img/0902/9f543501-3cf1-45a7-a2f1-eeca87cc15b9.jpg\"]","trial_type":"similarity","trial_index":43,"time_elapsed":263241,"internal_node_id":"0.0-6.0-37.0"},{"sim_score":5,"rt":7066,"stimulus":"[\"img/0901/2a953e50-d237-405c-a38d-5ed21494c968.jpg\",\"img/0867/26611f4e-d694-4460-b7e2-43c62753ddc3.jpg\"]","trial_type":"similarity","trial_index":44,"time_elapsed":271309,"internal_node_id":"0.0-6.0-38.0"},{"sim_score":6,"rt":4209,"stimulus":"[\"img/0862/00c06b00-3b73-44e9-bc1e-c5aafb438321.jpg\",\"img/0860/f44ba3fb-03a2-42f0-8509-2c1ded493086.jpg\"]","trial_type":"similarity","trial_index":45,"time_elapsed":276524,"internal_node_id":"0.0-6.0-39.0"},{"sim_score":7,"rt":2902,"stimulus":"[\"img/0867/50a1b60e-3a29-44bf-b606-d4bd3746fea9.jpg\",\"img/0868/5fa7f9d0-f0e5-454c-8224-74d964818f56.jpg\"]","trial_type":"similarity","trial_index":46,"time_elapsed":280433,"internal_node_id":"0.0-6.0-40.0"},{"sim_score":5,"rt":3566,"stimulus":"[\"img/0904/96e503ea-6630-4996-85f2-0237688ce441.jpg\",\"img/0899/8de08897-b430-42fe-9d42-840670b80f94.jpg\"]","trial_type":"similarity","trial_index":47,"time_elapsed":285006,"internal_node_id":"0.0-6.0-41.0"},{"sim_score":5,"rt":3979,"stimulus":"[\"img/0862/4f0a3b4c-afbf-486e-b248-1d54982f54b4.jpg\",\"img/0894/151063aa-6472-4745-837b-36603aba5966.jpg\"]","trial_type":"similarity","trial_index":48,"time_elapsed":289991,"internal_node_id":"0.0-6.0-42.0"},{"sim_score":4,"rt":3143,"stimulus":"[\"img/0875/2e13d160-eea1-416b-aff1-d37ab99ecc1d.jpg\",\"img/0904/5cceabc9-de1d-4c67-989b-c28a4ef77e79.jpg\"]","trial_type":"similarity","trial_index":49,"time_elapsed":294144,"internal_node_id":"0.0-6.0-43.0"},{"sim_score":2,"rt":3084,"stimulus":"[\"img/0874/995f0332-0439-4eb4-add3-957335dbf6d9.jpg\",\"img/0898/79233891-305a-4a6a-8ddf-5c8604858203.jpg\"]","trial_type":"similarity","trial_index":50,"time_elapsed":298244,"internal_node_id":"0.0-6.0-44.0"},{"sim_score":2,"rt":2773,"stimulus":"[\"img/0898/08c72dac-f8ad-407a-9ce6-8c9a5d679c3a.jpg\",\"img/0868/4a8a45ed-2c4f-421b-9564-409a33ecd26c.jpg\"]","trial_type":"similarity","trial_index":51,"time_elapsed":302027,"internal_node_id":"0.0-6.0-45.0"},{"sim_score":3,"rt":2687,"stimulus":"[\"img/0901/875dedb9-24c9-4443-9f8c-85e97d70ee5a.jpg\",\"img/0860/524b2e98-5767-4d53-942c-ebae6925659b.jpg\"]","trial_type":"similarity","trial_index":52,"time_elapsed":305726,"internal_node_id":"0.0-6.0-46.0"},{"sim_score":5,"rt":3181,"stimulus":"[\"img/0894/5c7677b0-a4f1-479e-b274-7822c415175a.jpg\",\"img/0902/8065aa6b-4aef-4368-afa2-02c6465ca582.jpg\"]","trial_type":"similarity","trial_index":53,"time_elapsed":309925,"internal_node_id":"0.0-6.0-47.0"},{"sim_score":4,"rt":2465,"stimulus":"[\"img/0764/ca957454-126a-4bd3-b29c-7174a24c25dc.jpg\",\"img/0862/f188d4f0-76a4-4102-818c-a209969d73a5.jpg\"]","trial_type":"similarity","trial_index":54,"time_elapsed":313397,"internal_node_id":"0.0-6.0-48.0"},{"sim_score":6,"rt":2763,"stimulus":"[\"img/0881/1407b85b-a1c6-45b1-9884-3b24203efadb.jpg\",\"img/0758/caa93da2-9edf-49fa-96b9-32dedd8f5078.jpg\"]","trial_type":"similarity","trial_index":55,"time_elapsed":317167,"internal_node_id":"0.0-6.0-49.0"},{"sim_score":5,"rt":3896,"stimulus":"[\"img/0766/79767d11-b612-4e8a-9e4b-a8ac95bb6a54.jpg\",\"img/0769/e31b3bd8-efcb-413e-aa8c-75fac2b8f2ac.jpg\"]","trial_type":"similarity","trial_index":56,"time_elapsed":322076,"internal_node_id":"0.0-6.0-50.0"},{"sim_score":3,"rt":4102,"stimulus":"[\"img/0875/cff79b3a-a797-4393-9757-6275f999ec04.jpg\",\"img/0866/945c6710-d15b-4a5b-a8f6-69af0850357f.jpg\"]","trial_type":"similarity","trial_index":57,"time_elapsed":327195,"internal_node_id":"0.0-6.0-51.0"},{"sim_score":6,"rt":2369,"stimulus":"[\"img/0894/a3d4170b-b7d8-40e3-955f-87e76ed745fc.jpg\",\"img/0904/2f88ce53-02d0-4f95-a082-182c56a0eeb4.jpg\"]","trial_type":"similarity","trial_index":58,"time_elapsed":330577,"internal_node_id":"0.0-6.0-52.0"},{"sim_score":5,"rt":2782,"stimulus":"[\"img/0758/d540bee6-b460-4c32-ac57-bc282742d7d4.jpg\",\"img/0769/4680bcc3-8fbc-4643-8f9a-12aa0e780b64.jpg\"]","trial_type":"similarity","trial_index":59,"time_elapsed":334369,"internal_node_id":"0.0-6.0-53.0"},{"sim_score":6,"rt":3916,"stimulus":"[\"img/0902/794606a0-d8a8-4e58-8bf8-9d114ed5a548.jpg\",\"img/0874/ca23d307-fc00-4d7d-9106-584c6eb21b4d.jpg\"]","trial_type":"similarity","trial_index":60,"time_elapsed":339291,"internal_node_id":"0.0-6.0-54.0"},{"sim_score":5,"rt":3383,"stimulus":"[\"img/0903/5995f4a8-fa82-46f8-8760-fd7800a5ca34.jpg\",\"img/0862/47ed5efd-4ec9-4b74-bb4e-a5f5cf0c3e7d.jpg\"]","trial_type":"similarity","trial_index":61,"time_elapsed":343687,"internal_node_id":"0.0-6.0-55.0"},{"sim_score":2,"rt":2749,"stimulus":"[\"img/0866/4a87911a-d5be-4d4e-ab8e-3d1f581bf507.jpg\",\"img/0894/76c1201f-8524-4865-85e6-dda8cb4ac986.jpg\"]","trial_type":"similarity","trial_index":62,"time_elapsed":347439,"internal_node_id":"0.0-6.0-56.0"},{"sim_score":4,"rt":4589,"stimulus":"[\"img/0867/85a96c62-548f-4994-9553-819e03c3135a.jpg\",\"img/0904/4d7d70a3-9477-4921-bda0-f9531d0a5c5b.jpg\"]","trial_type":"similarity","trial_index":63,"time_elapsed":353038,"internal_node_id":"0.0-6.0-57.0"},{"sim_score":5,"rt":3026,"stimulus":"[\"img/0875/99698b4d-b4a1-44bc-8c83-8ea755bbbf61.jpg\",\"img/0881/20af39f5-373d-4a55-a437-2dc4c0382c46.jpg\"]","trial_type":"similarity","trial_index":64,"time_elapsed":357076,"internal_node_id":"0.0-6.0-58.0"},{"sim_score":5,"rt":3257,"stimulus":"[\"img/0866/93a27239-8317-4e08-98ca-d8b1ff298e07.jpg\",\"img/0860/4c530c3c-6aab-492a-94d1-9c01797bde40.jpg\"]","trial_type":"similarity","trial_index":65,"time_elapsed":361353,"internal_node_id":"0.0-6.0-59.0"},{"sim_score":3,"rt":2723,"stimulus":"[\"img/0903/776b74ee-a8ab-4ab8-a78d-097c0747538d.jpg\",\"img/0866/8efcaa46-83ab-4dee-a35f-850402aa21ae.jpg\"]","trial_type":"similarity","trial_index":66,"time_elapsed":365082,"internal_node_id":"0.0-6.0-60.0"},{"sim_score":5,"rt":3116,"stimulus":"[\"img/0860/c3379ff7-0763-48fe-a1ec-7ea3d611bc7a.jpg\",\"img/0875/e7e66b13-b573-431e-b85e-288ce04a35a3.jpg\"]","trial_type":"similarity","trial_index":67,"time_elapsed":369215,"internal_node_id":"0.0-6.0-61.0"},{"sim_score":5,"rt":2555,"stimulus":"[\"img/0898/661621d4-a14e-487c-8c74-354134a29710.jpg\",\"img/0862/7918ca67-5bd3-4606-a5ea-c39fb11a9297.jpg\"]","trial_type":"similarity","trial_index":68,"time_elapsed":372787,"internal_node_id":"0.0-6.0-62.0"},{"sim_score":5,"rt":2856,"stimulus":"[\"img/0902/af40b98b-3d23-4d95-b401-49ba5783ce39.jpg\",\"img/0766/b84598d0-5b41-4841-88b0-b441b48289f5.jpg\"]","trial_type":"similarity","trial_index":69,"time_elapsed":376657,"internal_node_id":"0.0-6.0-63.0"},{"sim_score":6,"rt":2796,"stimulus":"[\"img/0758/7fba58df-2a7a-4b76-8a8f-62739f97f271.jpg\",\"img/0864/4bd81bc6-c13d-46df-95a9-485886dc7c1b.jpg\"]","trial_type":"similarity","trial_index":70,"time_elapsed":380463,"internal_node_id":"0.0-6.0-64.0"},{"sim_score":3,"rt":3246,"stimulus":"[\"img/0894/6aa5545f-fa7d-4286-bbaa-aaf34dc7ec96.jpg\",\"img/0860/e14d67c1-6d92-4f1e-9257-c8607159c19c.jpg\"]","trial_type":"similarity","trial_index":71,"time_elapsed":384722,"internal_node_id":"0.0-6.0-65.0"},{"sim_score":1,"rt":3899,"stimulus":"[\"img/0899/f58b8d2f-b19d-4b59-8b94-8834be92e4ba.jpg\",\"img/0868/7b212364-ff5f-4e28-9241-7eb6ea00161b.jpg\"]","trial_type":"similarity","trial_index":72,"time_elapsed":389631,"internal_node_id":"0.0-6.0-66.0"},{"sim_score":4,"rt":2882,"stimulus":"[\"img/0866/07c9c966-3c8d-40e7-8128-92b2acbaed5d.jpg\",\"img/0862/99a99e39-8355-44ec-b993-e7bcec111e1c.jpg\"]","trial_type":"similarity","trial_index":73,"time_elapsed":393533,"internal_node_id":"0.0-6.0-67.0"},{"sim_score":5,"rt":4134,"stimulus":"[\"img/0860/fd4662f9-4c03-4d79-8593-06735e55a64b.jpg\",\"img/0758/821c68d3-5cb0-4eae-8659-30e6263fca39.jpg\"]","trial_type":"similarity","trial_index":74,"time_elapsed":398680,"internal_node_id":"0.0-6.0-68.0"},{"sim_score":3,"rt":3945,"stimulus":"[\"img/0902/7499db23-3a41-41ea-ab5b-6ab4d4c3ed35.jpg\",\"img/0867/6e19c858-b606-45b2-a4c6-910a73f1d82c.jpg\"]","trial_type":"similarity","trial_index":75,"time_elapsed":403635,"internal_node_id":"0.0-6.0-69.0"},{"sim_score":2,"rt":2860,"stimulus":"[\"img/0862/1c20f772-3a51-4a80-aac0-f57dc9f86c28.jpg\",\"img/0901/b453df0b-4c39-49bb-8ced-6127efffa898.jpg\"]","trial_type":"similarity","trial_index":76,"time_elapsed":407505,"internal_node_id":"0.0-6.0-70.0"},{"sim_score":5,"rt":4272,"stimulus":"[\"img/0867/a498eef3-9fa4-4ab2-9778-4ae82ac40dc5.jpg\",\"img/0866/386235d2-6857-41e7-88a8-25cfc3430025.jpg\"]","trial_type":"similarity","trial_index":77,"time_elapsed":412793,"internal_node_id":"0.0-6.0-71.0"},{"sim_score":3,"rt":3926,"stimulus":"[\"img/0860/8fdba999-b946-4c7d-9891-336018b563ef.jpg\",\"img/0904/09934646-45d2-4147-8fec-64a22a5ac822.jpg\"]","trial_type":"similarity","trial_index":78,"time_elapsed":417739,"internal_node_id":"0.0-6.0-72.0"},{"sim_score":2,"rt":3496,"stimulus":"[\"img/0875/fb732ab5-013a-4366-9f65-27811ed157e9.jpg\",\"img/0899/8abe6c69-822c-436c-9bf2-96c818b49ba5.jpg\"]","trial_type":"similarity","trial_index":79,"time_elapsed":422248,"internal_node_id":"0.0-6.0-73.0"},{"sim_score":3,"rt":3689,"stimulus":"[\"img/0899/7b7380d5-d2be-44e5-a09a-c1756f87ef71.jpg\",\"img/0758/20497cbe-ddae-489e-86e2-ab06985ed07c.jpg\"]","trial_type":"similarity","trial_index":80,"time_elapsed":426951,"internal_node_id":"0.0-6.0-74.0"},{"sim_score":6,"rt":4208,"stimulus":"[\"img/0862/ee3b7bff-4a70-4e84-9bea-4a565e456acb.jpg\",\"img/0875/a4935837-7d3c-4df6-88c1-36a94d4991ca.jpg\"]","trial_type":"similarity","trial_index":81,"time_elapsed":434219,"internal_node_id":"0.0-6.0-75.0"},{"sim_score":2,"rt":3139,"stimulus":"[\"img/0901/04a53755-6da5-44d4-a7a6-48a6bc0a2280.jpg\",\"img/0894/86201968-6e78-4d68-9b3a-d1692e066210.jpg\"]","trial_type":"similarity","trial_index":82,"time_elapsed":438381,"internal_node_id":"0.0-6.0-76.0"},{"sim_score":2,"rt":3193,"stimulus":"[\"img/0766/51d3aab4-3d09-4dda-b99d-3dc7aaabc6f2.jpg\",\"img/0758/e38fd80d-18d0-42f3-b848-f930788e8bd7.jpg\"]","trial_type":"similarity","trial_index":83,"time_elapsed":442581,"internal_node_id":"0.0-6.0-77.0"},{"sim_score":5,"rt":3103,"stimulus":"[\"img/0894/5a49e858-2850-4892-9a06-e9f0efb5f94d.jpg\",\"img/0764/fb92924f-5cfe-4b89-b130-0cce8cc5636b.jpg\"]","trial_type":"similarity","trial_index":84,"time_elapsed":446700,"internal_node_id":"0.0-6.0-78.0"},{"sim_score":3,"rt":3699,"stimulus":"[\"img/0860/c7047cd2-7cc1-41b6-8a34-c0986774975f.jpg\",\"img/0867/7d1c497b-c1b3-4ed8-abb5-d7f73306015f.jpg\"]","trial_type":"similarity","trial_index":85,"time_elapsed":451415,"internal_node_id":"0.0-6.0-79.0"},{"sim_score":4,"rt":3106,"stimulus":"[\"img/0898/40f99fb2-64d2-4e72-8a7f-a1cf60741e69.jpg\",\"img/0901/443f2e59-199b-4f7b-9de9-c44ad97326a5.jpg\"]","trial_type":"similarity","trial_index":86,"time_elapsed":455525,"internal_node_id":"0.0-6.0-80.0"},{"sim_score":3,"rt":3681,"stimulus":"[\"img/0874/3f471690-9788-4d03-90c7-f615aecef149.jpg\",\"img/0764/0e7ed062-f798-4366-8a24-6f430926f919.jpg\"]","trial_type":"similarity","trial_index":87,"time_elapsed":460216,"internal_node_id":"0.0-6.0-81.0"},{"sim_score":3,"rt":3767,"stimulus":"[\"img/0899/fd9efb43-701f-4cd6-baaa-4c38315f4bdc.jpg\",\"img/0862/92f0146c-20c4-482e-aef5-adb693790338.jpg\"]","trial_type":"similarity","trial_index":88,"time_elapsed":464994,"internal_node_id":"0.0-6.0-82.0"},{"sim_score":5,"rt":3261,"stimulus":"[\"img/0766/d5d38751-8fa5-476f-93e9-86ed2d9045ef.jpg\",\"img/0901/1b86f2fc-7a1d-4aa8-9252-114f92edef3b.jpg\"]","trial_type":"similarity","trial_index":89,"time_elapsed":469263,"internal_node_id":"0.0-6.0-83.0"},{"sim_score":2,"rt":4514,"stimulus":"[\"img/0881/6b1189e6-232d-4042-8885-16dc7b10e0d4.jpg\",\"img/0898/26c41340-15bd-4ead-8fe4-c0d0ddca09c2.jpg\"]","trial_type":"similarity","trial_index":90,"time_elapsed":474782,"internal_node_id":"0.0-6.0-84.0"},{"sim_score":3,"rt":2589,"stimulus":"[\"img/0868/09a9ef4d-d000-4cfa-a6aa-ebec7c2edeb4.jpg\",\"img/0860/c5ccd1a4-4bb7-48e1-9b25-72cfaf06909b.jpg\"]","trial_type":"similarity","trial_index":91,"time_elapsed":478397,"internal_node_id":"0.0-6.0-85.0"},{"sim_score":3,"rt":4099,"stimulus":"[\"img/0758/9fb5b2fe-3f00-4fe6-973c-1ce10d5f4cd5.jpg\",\"img/0868/83b4350a-3b70-4cea-b7f5-b5b56f3050a8.jpg\"]","trial_type":"similarity","trial_index":92,"time_elapsed":483506,"internal_node_id":"0.0-6.0-86.0"},{"sim_score":3,"rt":3756,"stimulus":"[\"img/0864/afcba0a3-7e27-4757-b254-e9f05fad27e2.jpg\",\"img/0894/c505c65a-cde2-4f2c-8cde-f8676f7c894d.jpg\"]","trial_type":"similarity","trial_index":93,"time_elapsed":488269,"internal_node_id":"0.0-6.0-87.0"},{"sim_score":2,"rt":3499,"stimulus":"[\"img/0866/be24ab58-230e-4db8-9f45-ff04c9aec6bb.jpg\",\"img/0902/d1083f2c-5520-44ec-81a8-3f856fbf0e80.jpg\"]","trial_type":"similarity","trial_index":94,"time_elapsed":492778,"internal_node_id":"0.0-6.0-88.0"},{"sim_score":3,"rt":5439,"stimulus":"[\"img/0769/3adfa417-3b90-4aab-b437-5eaa474189cb.jpg\",\"img/0867/179ab87a-8eac-4c52-a41f-2e48e3120f09.jpg\"]","trial_type":"similarity","trial_index":95,"time_elapsed":499230,"internal_node_id":"0.0-6.0-89.0"},{"sim_score":5,"rt":2994,"stimulus":"[\"img/0874/31e22c7c-99aa-40b1-bf03-dd73fa2df4d6.jpg\",\"img/0875/ebf7653f-ff45-4e9f-af58-2c042ab3cd2b.jpg\"]","trial_type":"similarity","trial_index":96,"time_elapsed":503251,"internal_node_id":"0.0-6.0-90.0"},{"sim_score":7,"rt":3172,"stimulus":"[\"img/0864/da39ad34-04e0-40d4-a724-c08d53e0ea09.jpg\",\"img/0874/767f289c-9814-4496-803f-745cc8913d1f.jpg\"]","trial_type":"similarity","trial_index":97,"time_elapsed":507431,"internal_node_id":"0.0-6.0-91.0"},{"sim_score":5,"rt":2599,"stimulus":"[\"img/0881/445edb15-bd7f-4af3-8bd5-c6ad9677bb31.jpg\",\"img/0862/24cdc752-c2e5-4a17-86a6-6f2045d8553b.jpg\"]","trial_type":"similarity","trial_index":98,"time_elapsed":511040,"internal_node_id":"0.0-6.0-92.0"},{"sim_score":6,"rt":3893,"stimulus":"[\"img/0864/0f537697-a314-47c3-a8cc-8df23b7e536c.jpg\",\"img/0881/f4e3e181-b3c9-4af2-a5a4-fc135ab70d2e.jpg\"]","trial_type":"similarity","trial_index":99,"time_elapsed":515960,"internal_node_id":"0.0-6.0-93.0"},{"sim_score":5,"rt":3363,"stimulus":"[\"img/0899/0e1d936a-dbe2-4afc-9f19-7b7a1ae6c9ed.jpg\",\"img/0901/c6c877e0-dd63-4e00-9657-33af29d55aab.jpg\"]","trial_type":"similarity","trial_index":100,"time_elapsed":520329,"internal_node_id":"0.0-6.0-94.0"},{"sim_score":6,"rt":4998,"stimulus":"[\"img/0874/c0378dac-9370-439a-8b79-db27c96fb390.jpg\",\"img/0766/1bc0dccc-a5b5-4375-87fa-28360ca42b12.jpg\"]","trial_type":"similarity","trial_index":101,"time_elapsed":526337,"internal_node_id":"0.0-6.0-95.0"},{"sim_score":5,"rt":3486,"stimulus":"[\"img/0881/e046471a-35b4-4159-bbf7-3cfd201bef66.jpg\",\"img/0899/4408c14d-c168-4a7d-96f6-bc87bfb58f83.jpg\"]","trial_type":"similarity","trial_index":102,"time_elapsed":530833,"internal_node_id":"0.0-6.0-96.0"},{"sim_score":4,"rt":3964,"stimulus":"[\"img/0862/e8cc3bdf-cc43-4565-bccf-492626c70953.jpg\",\"img/0902/fbef27fa-ac83-4936-ab78-9d1c20a383e1.jpg\"]","trial_type":"similarity","trial_index":103,"time_elapsed":535809,"internal_node_id":"0.0-6.0-97.0"},{"sim_score":6,"rt":3984,"stimulus":"[\"img/0899/5b56dd3e-3f49-47cc-af84-16da6457753b.jpg\",\"img/0764/ba0c0955-acbb-457d-b1c2-f006b88121d5.jpg\"]","trial_type":"similarity","trial_index":104,"time_elapsed":540803,"internal_node_id":"0.0-6.0-98.0"},{"sim_score":5,"rt":3472,"stimulus":"[\"img/0758/6cd8c362-ae2a-41eb-80a3-3a4f7ace1530.jpg\",\"img/0862/fb26cb07-d5a9-4653-813c-f41609f26cd5.jpg\"]","trial_type":"similarity","trial_index":105,"time_elapsed":545280,"internal_node_id":"0.0-6.0-99.0"},{"sim_score":7,"rt":4613,"stimulus":"[\"img/0764/cbdc4f20-3a9a-4211-9b40-090699e0abcc.jpg\",\"img/0898/6cd3830b-d44e-4915-be2b-88d31424b91c.jpg\"]","trial_type":"similarity","trial_index":106,"time_elapsed":550906,"internal_node_id":"0.0-6.0-100.0"},{"sim_score":6,"rt":5095,"stimulus":"[\"img/0901/7d4a3388-488d-4e9b-9d32-9d0def7aae8d.jpg\",\"img/0902/94ee9c53-a9a2-4f95-b9b7-794a5fc62bb6.jpg\"]","trial_type":"similarity","trial_index":107,"time_elapsed":557011,"internal_node_id":"0.0-6.0-101.0"},{"sim_score":3,"rt":3678,"stimulus":"[\"img/0764/958b8576-3a3b-4acc-96dc-06b74de69f37.jpg\",\"img/0868/d98ca254-b195-477f-b57e-5760a2717db8.jpg\"]","trial_type":"similarity","trial_index":108,"time_elapsed":561700,"internal_node_id":"0.0-6.0-102.0"},{"sim_score":3,"rt":3731,"stimulus":"[\"img/0769/b664b502-a86c-46c1-ad6f-5ebffc2e1bd3.jpg\",\"img/0881/f6bd3b96-dc40-4e99-8681-bc3a35cf896d.jpg\"]","trial_type":"similarity","trial_index":109,"time_elapsed":566446,"internal_node_id":"0.0-6.0-103.0"},{"sim_score":2,"rt":4634,"stimulus":"[\"img/0864/e336a4c5-6648-4fd7-b2f6-93a3fb83f8c6.jpg\",\"img/0769/965c3c44-d9e5-47c5-b61a-2bbdf4215d9a.jpg\"]","trial_type":"similarity","trial_index":110,"time_elapsed":572090,"internal_node_id":"0.0-6.0-104.0"},{"sim_score":5,"rt":3889,"stimulus":"[\"img/0866/6f2a90d7-14f1-4f1b-bd64-fc0af6b9fe44.jpg\",\"img/0868/fd307a36-9a3a-47d7-ab7c-f810d0b35040.jpg\"]","trial_type":"similarity","trial_index":111,"time_elapsed":576994,"internal_node_id":"0.0-6.0-105.0"},{"sim_score":4,"rt":3031,"stimulus":"[\"img/0868/3a62db2d-97e9-44a3-b8e3-a48c6f0e423b.jpg\",\"img/0862/fad1d7c1-8187-43c3-942a-0fc12183e48e.jpg\"]","trial_type":"similarity","trial_index":112,"time_elapsed":581037,"internal_node_id":"0.0-6.0-106.0"},{"sim_score":6,"rt":2460,"stimulus":"[\"img/0766/a1ed3f0f-e338-4a26-8fe4-4370f0c9fa6e.jpg\",\"img/0898/e167334e-cc1d-4986-b3b1-c7bc7da64baa.jpg\"]","trial_type":"similarity","trial_index":113,"time_elapsed":584505,"internal_node_id":"0.0-6.0-107.0"},{"sim_score":3,"rt":3729,"stimulus":"[\"img/0898/b3290bf9-215b-4b45-b21a-65bdf73f142f.jpg\",\"img/0864/3d4de670-b290-4285-9c3d-12a0e3af44e9.jpg\"]","trial_type":"similarity","trial_index":114,"time_elapsed":589261,"internal_node_id":"0.0-6.0-108.0"},{"sim_score":5,"rt":4240,"stimulus":"[\"img/0868/4e626425-63c8-484a-8a1d-e66ee4e0bef8.jpg\",\"img/0902/6730b12a-f0a7-4587-8c10-a32fae16565b.jpg\"]","trial_type":"similarity","trial_index":115,"time_elapsed":594503,"internal_node_id":"0.0-6.0-109.0"},{"sim_score":6,"rt":3349,"stimulus":"[\"img/0904/4b8daf2a-13a9-4ea9-9e0b-b265b6e933e7.jpg\",\"img/0764/d7f3ac54-318a-4dac-a06b-62bed34d01a4.jpg\"]","trial_type":"similarity","trial_index":116,"time_elapsed":598856,"internal_node_id":"0.0-6.0-110.0"},{"sim_score":3,"rt":2676,"stimulus":"[\"img/0894/133a1636-d123-4893-873c-1718050f832a.jpg\",\"img/0875/90da8d75-108a-44ad-b999-e21fee3860d3.jpg\"]","trial_type":"similarity","trial_index":117,"time_elapsed":602552,"internal_node_id":"0.0-6.0-111.0"},{"sim_score":5,"rt":3071,"stimulus":"[\"img/0868/6a28c3b0-3d76-498a-9fb7-ddafc665eca8.jpg\",\"img/0874/2c9464dd-8a23-4baa-ac94-1ba3af5c15cc.jpg\"]","trial_type":"similarity","trial_index":118,"time_elapsed":606641,"internal_node_id":"0.0-6.0-112.0"},{"sim_score":6,"rt":3449,"stimulus":"[\"img/0904/a8c3c7d2-9bcf-4347-9e03-8203adfc1fc5.jpg\",\"img/0898/82231d4c-218b-4d0a-b50d-35a49b524e97.jpg\"]","trial_type":"similarity","trial_index":119,"time_elapsed":612583,"internal_node_id":"0.0-6.0-113.0"},{"sim_score":4,"rt":3496,"stimulus":"[\"img/0860/5383b320-1518-4095-a58e-5cc1ae30b64c.jpg\",\"img/0766/2746b119-4bba-463e-acf0-88136dc6600c.jpg\"]","trial_type":"similarity","trial_index":120,"time_elapsed":617092,"internal_node_id":"0.0-6.0-114.0"},{"sim_score":6,"rt":2779,"stimulus":"[\"img/0894/7f2f31fd-6618-41c6-b65a-0fd8b2851bc9.jpg\",\"img/0874/93d1f8dc-acf2-4f03-bd8d-8ec35df276ed.jpg\"]","trial_type":"similarity","trial_index":121,"time_elapsed":620881,"internal_node_id":"0.0-6.0-115.0"},{"sim_score":5,"rt":3561,"stimulus":"[\"img/0899/66ab3178-c3fe-4455-ad17-d5952b08e018.jpg\",\"img/0903/e2e55a9e-0397-4dc0-8adf-4a54cfefe1fe.jpg\"]","trial_type":"similarity","trial_index":122,"time_elapsed":625455,"internal_node_id":"0.0-6.0-116.0"},{"sim_score":5,"rt":4767,"stimulus":"[\"img/0881/d373cb9f-a719-4549-a2a4-82def79fb2a5.jpg\",\"img/0764/e0788029-9d7f-414c-b747-46d2a99f7c86.jpg\"]","trial_type":"similarity","trial_index":123,"time_elapsed":631233,"internal_node_id":"0.0-6.0-117.0"},{"sim_score":4,"rt":5373,"stimulus":"[\"img/0903/97a42b34-5462-4665-88c7-83c014b33d24.jpg\",\"img/0769/35364db7-e0d5-40ef-93dc-faf9dfb95136.jpg\"]","trial_type":"similarity","trial_index":124,"time_elapsed":637616,"internal_node_id":"0.0-6.0-118.0"},{"sim_score":5,"rt":3149,"stimulus":"[\"img/0901/fb0a8e69-7f19-4e6e-a6bb-a48f97f9b4f3.jpg\",\"img/0904/da170c1b-9651-4f08-b231-2bdd1d9a046f.jpg\"]","trial_type":"similarity","trial_index":125,"time_elapsed":641773,"internal_node_id":"0.0-6.0-119.0"},{"sim_score":6,"rt":4002,"stimulus":"[\"img/0860/4f695df5-afac-4da7-9875-fee39b0b24ad.jpg\",\"img/0881/344de456-b358-4887-bd0e-e4c3278af887.jpg\"]","trial_type":"similarity","trial_index":126,"time_elapsed":646782,"internal_node_id":"0.0-6.0-120.0"},{"sim_score":7,"rt":2795,"stimulus":"[\"img/0758/b76ceca7-95ac-46e4-ac13-da02c8e93be9.jpg\",\"img/0874/3ce41e7c-40c8-4d58-a546-171114521796.jpg\"]","trial_type":"similarity","trial_index":127,"time_elapsed":650594,"internal_node_id":"0.0-6.0-121.0"},{"sim_score":5,"rt":2329,"stimulus":"[\"img/0901/148b747a-7392-437e-8823-33053c5dff3f.jpg\",\"img/0769/a1ce8d07-ba37-40de-bade-2778805521e0.jpg\"]","trial_type":"similarity","trial_index":128,"time_elapsed":653944,"internal_node_id":"0.0-6.0-122.0"},{"sim_score":5,"rt":3049,"stimulus":"[\"img/0902/8af4182a-9af9-4212-a436-9195555112d6.jpg\",\"img/0904/b5855d6a-7ef9-46ca-9215-6e9fa046e543.jpg\"]","trial_type":"similarity","trial_index":129,"time_elapsed":658003,"internal_node_id":"0.0-6.0-123.0"},{"sim_score":2,"rt":3876,"stimulus":"[\"img/0899/0adc0bc3-6fca-4078-be6f-d45ddf1653d5.jpg\",\"img/0864/a248adb3-c70b-4652-b7a3-776d2a1e904b.jpg\"]","trial_type":"similarity","trial_index":130,"time_elapsed":662906,"internal_node_id":"0.0-6.0-124.0"},{"sim_score":1,"rt":3686,"stimulus":"[\"img/0766/0bf3793e-c353-45e5-ac6f-753f5f484e10.jpg\",\"img/0868/8b0b8473-e2c0-4331-aa56-c3a5c29369da.jpg\"]","trial_type":"similarity","trial_index":131,"time_elapsed":667598,"internal_node_id":"0.0-6.0-125.0"},{"sim_score":5,"rt":3056,"stimulus":"[\"img/0764/ca9829fe-aaf8-45b8-b98a-6bae751c63dd.jpg\",\"img/0864/9b2490c5-a282-400a-9736-e1a0ecbf1cb7.jpg\"]","trial_type":"similarity","trial_index":132,"time_elapsed":671658,"internal_node_id":"0.0-6.0-126.0"},{"sim_score":3,"rt":3339,"stimulus":"[\"img/0899/93494f3b-d539-4075-b027-d82e344563da.jpg\",\"img/0866/02f5e6b9-52b7-448c-9708-5b460d0c9a23.jpg\"]","trial_type":"similarity","trial_index":133,"time_elapsed":676006,"internal_node_id":"0.0-6.0-127.0"},{"sim_score":2,"rt":2716,"stimulus":"[\"img/0901/58978a6d-a3e2-4c59-8d62-f60693ecc0f6.jpg\",\"img/0881/db77fe00-aeb0-4d1d-aa66-f3a96fd077e4.jpg\"]","trial_type":"similarity","trial_index":134,"time_elapsed":679742,"internal_node_id":"0.0-6.0-128.0"},{"sim_score":6,"rt":5235,"stimulus":"[\"img/0898/5f699581-3853-4547-856c-12f419ba5af7.jpg\",\"img/0903/9b60ef5b-234f-4239-892b-3d4c412accc2.jpg\"]","trial_type":"similarity","trial_index":135,"time_elapsed":685978,"internal_node_id":"0.0-6.0-129.0"},{"sim_score":3,"rt":2622,"stimulus":"[\"img/0894/0130a973-d993-41f8-874a-fee23d9ac11f.jpg\",\"img/0867/de92135f-5b65-4ed9-b245-188292c7c2f8.jpg\"]","trial_type":"similarity","trial_index":136,"time_elapsed":689606,"internal_node_id":"0.0-6.0-130.0"},{"sim_score":4,"rt":4048,"stimulus":"[\"img/0874/85eb9b8a-c4c6-4e5a-b8e7-363a87a82054.jpg\",\"img/0903/14f179a2-8786-48a2-8377-88d1d404341b.jpg\"]","trial_type":"similarity","trial_index":137,"time_elapsed":694661,"internal_node_id":"0.0-6.0-131.0"},{"sim_score":5,"rt":2964,"stimulus":"[\"img/0899/25ae6ec8-9565-49fe-a8bb-8d0666f52716.jpg\",\"img/0898/ec565187-2e31-4fdd-9a5c-153d0c789ae0.jpg\"]","trial_type":"similarity","trial_index":138,"time_elapsed":698636,"internal_node_id":"0.0-6.0-132.0"},{"sim_score":3,"rt":3067,"stimulus":"[\"img/0867/2e1a0b58-cdb1-4107-a14e-452530d7b9b0.jpg\",\"img/0764/6fbd1902-fa2a-48d8-bc11-705b8ab68d8f.jpg\"]","trial_type":"similarity","trial_index":139,"time_elapsed":702715,"internal_node_id":"0.0-6.0-133.0"},{"sim_score":5,"rt":3217,"stimulus":"[\"img/0866/0207e9a2-7dbb-40b5-9459-b472aaeceb2a.jpg\",\"img/0769/f6396414-6788-4d59-9683-de153298d89c.jpg\"]","trial_type":"similarity","trial_index":140,"time_elapsed":706944,"internal_node_id":"0.0-6.0-134.0"},{"sim_score":5,"rt":4355,"stimulus":"[\"img/0860/e8b8c51e-1834-4875-8b61-6c5bc9b178bd.jpg\",\"img/0898/993d8f2d-bef7-4251-a193-0f93a32b7763.jpg\"]","trial_type":"similarity","trial_index":141,"time_elapsed":712306,"internal_node_id":"0.0-6.0-135.0"},{"sim_score":3,"rt":3183,"stimulus":"[\"img/0881/54ea8e77-c7e5-4197-b7fa-00b7020849a7.jpg\",\"img/0903/005ad0de-4f52-433c-b515-dbe8d46184a3.jpg\"]","trial_type":"similarity","trial_index":142,"time_elapsed":716506,"internal_node_id":"0.0-6.0-136.0"},{"sim_score":6,"rt":4847,"stimulus":"[\"img/0894/bd34223a-2f66-4e16-9d18-193a746b69ff.jpg\",\"img/0766/dd3e18d0-0c98-4d05-b850-69976ee8cd75.jpg\"]","trial_type":"similarity","trial_index":143,"time_elapsed":722364,"internal_node_id":"0.0-6.0-137.0"},{"sim_score":2,"rt":3169,"stimulus":"[\"img/0860/15b24a61-25be-4356-9eac-5ce95d0cb4a4.jpg\",\"img/0764/c01e2d65-6586-441b-bef5-3c96fcd85380.jpg\"]","trial_type":"similarity","trial_index":144,"time_elapsed":726543,"internal_node_id":"0.0-6.0-138.0"},{"sim_score":5,"rt":2686,"stimulus":"[\"img/0769/9ea27d61-3d55-418c-8d14-82e90f656f01.jpg\",\"img/0902/b03fee99-d5ca-4bf8-871c-a4a743a39842.jpg\"]","trial_type":"similarity","trial_index":145,"time_elapsed":730243,"internal_node_id":"0.0-6.0-139.0"},{"sim_score":7,"rt":2353,"stimulus":"[\"img/0904/06dacdc5-2206-4fb8-92b7-88042d22833c.jpg\",\"img/0903/5248eedd-7e6a-4d39-91b0-06ec227f3ed0.jpg\"]","trial_type":"similarity","trial_index":146,"time_elapsed":733609,"internal_node_id":"0.0-6.0-140.0"},{"sim_score":5,"rt":2796,"stimulus":"[\"img/0764/d7c215ab-ea9a-45be-8d5f-417d5b9a8a17.jpg\",\"img/0769/458d9c77-b844-40b5-bb1b-1e3bbd4da64e.jpg\"]","trial_type":"similarity","trial_index":147,"time_elapsed":737418,"internal_node_id":"0.0-6.0-141.0"},{"sim_score":3,"rt":2905,"stimulus":"[\"img/0902/0eb85fbc-27c8-41df-9d0b-a5f9efd417d1.jpg\",\"img/0881/405484ae-0d00-4b05-bc57-6420a36adfac.jpg\"]","trial_type":"similarity","trial_index":148,"time_elapsed":741343,"internal_node_id":"0.0-6.0-142.0"},{"sim_score":5,"rt":2959,"stimulus":"[\"img/0866/d493a2c8-66eb-44b4-be02-2f327b700b7c.jpg\",\"img/0864/f92649a2-0590-4d31-9a7a-1bfb81666a2d.jpg\"]","trial_type":"similarity","trial_index":149,"time_elapsed":745303,"internal_node_id":"0.0-6.0-143.0"},{"sim_score":6,"rt":4062,"stimulus":"[\"img/0902/97022122-01e4-46c3-a34f-c6260ad28428.jpg\",\"img/0898/8605a25b-6895-476d-8c13-df7a83f96093.jpg\"]","trial_type":"similarity","trial_index":150,"time_elapsed":750382,"internal_node_id":"0.0-6.0-144.0"},{"sim_score":3,"rt":3988,"stimulus":"[\"img/0862/de9ad88c-b522-430a-8ee9-eb06a9f85df5.jpg\",\"img/0864/efcfbb1b-8197-44c9-b723-40d6c608dd3c.jpg\"]","trial_type":"similarity","trial_index":151,"time_elapsed":755371,"internal_node_id":"0.0-6.0-145.0"},{"sim_score":3,"rt":3073,"stimulus":"[\"img/0875/03c3c331-738b-4446-af92-3d7386b08c2e.jpg\",\"img/0898/881e2a85-d5c2-49be-a0c6-8a6ce2c4af08.jpg\"]","trial_type":"similarity","trial_index":152,"time_elapsed":759456,"internal_node_id":"0.0-6.0-146.0"},{"sim_score":6,"rt":5792,"stimulus":"[\"img/0874/99f6563c-8a8d-4c1c-a41d-667b618c3fd5.jpg\",\"img/0881/c24f3051-eefa-42de-aba6-fccb56d93c70.jpg\"]","trial_type":"similarity","trial_index":153,"time_elapsed":766249,"internal_node_id":"0.0-6.0-147.0"},{"sim_score":4,"rt":3457,"stimulus":"[\"img/0758/d57c2592-a317-4f63-91be-91a3a9afd222.jpg\",\"img/0894/492d2f29-d7b9-4422-8be8-47fd58bfaa8b.jpg\"]","trial_type":"similarity","trial_index":154,"time_elapsed":770712,"internal_node_id":"0.0-6.0-148.0"},{"sim_score":3,"rt":2719,"stimulus":"[\"img/0904/6291eb43-c10c-4810-a36a-101d09868b04.jpg\",\"img/0864/c3b63e8f-ea39-4d70-a1f2-b3fe4be8eb75.jpg\"]","trial_type":"similarity","trial_index":155,"time_elapsed":774443,"internal_node_id":"0.0-6.0-149.0"},{"sim_score":5,"rt":2946,"stimulus":"[\"img/0769/022c7e3b-c3f2-4119-b4bc-f22fa7cae18c.jpg\",\"img/0899/0433d056-aa30-4f8a-9aa1-abbb951e4edd.jpg\"]","trial_type":"similarity","trial_index":156,"time_elapsed":778399,"internal_node_id":"0.0-6.0-150.0"},{"sim_score":6,"rt":2769,"stimulus":"[\"img/0764/da207710-e7e4-4f42-b2e6-99b5f357f433.jpg\",\"img/0903/5c6b1f57-b3a2-40f5-9fb1-82785e24b6a0.jpg\"]","trial_type":"similarity","trial_index":157,"time_elapsed":787685,"internal_node_id":"0.0-6.0-151.0"},{"sim_score":3,"rt":3606,"stimulus":"[\"img/0903/b548d383-2a95-4575-8c13-647873751ff1.jpg\",\"img/0864/3651d070-2fc5-4848-b6a6-088a2d9ac5c9.jpg\"]","trial_type":"similarity","trial_index":158,"time_elapsed":792304,"internal_node_id":"0.0-6.0-152.0"},{"sim_score":4,"rt":4162,"stimulus":"[\"img/0894/a98416c0-51e2-4960-85da-d81d8688b9d5.jpg\",\"img/0881/2a8413be-fec2-4de6-88ad-614dd4cccc9d.jpg\"]","trial_type":"similarity","trial_index":159,"time_elapsed":797476,"internal_node_id":"0.0-6.0-153.0"},{"sim_score":5,"rt":3482,"stimulus":"[\"img/0875/dbdd643e-6d0e-4a5c-ab57-b9c29b9c981a.jpg\",\"img/0867/f8159067-056c-41f1-a136-c529fe5e970a.jpg\"]","trial_type":"similarity","trial_index":160,"time_elapsed":801965,"internal_node_id":"0.0-6.0-154.0"},{"sim_score":5,"rt":5256,"stimulus":"[\"img/0867/bf560d4f-dee3-4f11-a385-705cc1aa5f3c.jpg\",\"img/0758/d41c06bf-ebaf-454b-91c6-1a17f917b659.jpg\"]","trial_type":"similarity","trial_index":161,"time_elapsed":808241,"internal_node_id":"0.0-6.0-155.0"},{"sim_score":2,"rt":2532,"stimulus":"[\"img/0868/0d3abd3a-b6c3-4584-a9f7-e2da63748b3d.jpg\",\"img/0901/4d1bed7e-3c4e-4f6c-ada9-4beb66ba9e39.jpg\"]","trial_type":"similarity","trial_index":162,"time_elapsed":811780,"internal_node_id":"0.0-6.0-156.0"},{"sim_score":7,"rt":2968,"stimulus":"[\"img/0769/48a1144d-fbda-4809-991b-fc8424a32ee4.jpg\",\"img/0894/38f5931f-926d-414e-b498-66b188978b7a.jpg\"]","trial_type":"similarity","trial_index":163,"time_elapsed":815756,"internal_node_id":"0.0-6.0-157.0"},{"sim_score":3,"rt":3191,"stimulus":"[\"img/0904/63dd06dd-dccb-47ba-9740-eb33239e18a7.jpg\",\"img/0758/335851a0-a55b-46d8-ab05-8463eda48349.jpg\"]","trial_type":"similarity","trial_index":164,"time_elapsed":819964,"internal_node_id":"0.0-6.0-158.0"},{"sim_score":4,"rt":3032,"stimulus":"[\"img/0874/a82926a3-0b43-4add-803c-d5f9ea7798ee.jpg\",\"img/0904/09dac84f-3d1c-4445-a68e-d0389fdbf1e9.jpg\"]","trial_type":"similarity","trial_index":165,"time_elapsed":823998,"internal_node_id":"0.0-6.0-159.0"},{"sim_score":1,"rt":4238,"stimulus":"[\"img/0864/1ebbc554-99fa-49f9-8799-317375a79820.jpg\",\"img/0901/62315ff5-ed95-46b4-b099-92552079659b.jpg\"]","trial_type":"similarity","trial_index":166,"time_elapsed":829243,"internal_node_id":"0.0-6.0-160.0"},{"sim_score":4,"rt":3912,"stimulus":"[\"img/0898/0af304a2-6a7a-4082-ab7c-4450cd08cc58.jpg\",\"img/0866/a04d37f0-99dd-478a-b6c6-58b215138f84.jpg\"]","trial_type":"similarity","trial_index":167,"time_elapsed":834171,"internal_node_id":"0.0-6.0-161.0"},{"sim_score":5,"rt":2956,"stimulus":"[\"img/0766/ea09dd5a-d24d-4e97-a099-7da3db1baef1.jpg\",\"img/0903/2a9c8033-3e70-47fa-816d-97ee1813a3a3.jpg\"]","trial_type":"similarity","trial_index":168,"time_elapsed":838140,"internal_node_id":"0.0-6.0-162.0"},{"sim_score":4,"rt":3597,"stimulus":"[\"img/0860/4a022222-056d-461c-ab02-39fac9647552.jpg\",\"img/0899/06b0fc99-0581-461a-9913-d1a5a941ac61.jpg\"]","trial_type":"similarity","trial_index":169,"time_elapsed":842749,"internal_node_id":"0.0-6.0-163.0"},{"sim_score":4,"rt":3972,"stimulus":"[\"img/0766/75c3d627-4f3b-40d5-9d9c-10c8a62db644.jpg\",\"img/0862/e697469a-ec19-4414-b972-7b9f3564785b.jpg\"]","trial_type":"similarity","trial_index":170,"time_elapsed":847722,"internal_node_id":"0.0-6.0-164.0"},{"sim_score":6,"rt":3075,"stimulus":"[\"img/0898/cd3aaa3f-efa9-4ab3-8d6f-a6a9273ddf42.jpg\",\"img/0894/1b3888e6-cf36-4c4a-a039-187aa5cb71ac.jpg\"]","trial_type":"similarity","trial_index":171,"time_elapsed":851807,"internal_node_id":"0.0-6.0-165.0"},{"sim_score":3,"rt":4396,"stimulus":"[\"img/0867/8ba0c5a7-c7e4-42cf-a80a-543763b90779.jpg\",\"img/0766/33519c22-aaa4-49d7-8d49-ab551db1945e.jpg\"]","trial_type":"similarity","trial_index":172,"time_elapsed":857210,"internal_node_id":"0.0-6.0-166.0"},{"sim_score":7,"rt":3006,"stimulus":"[\"img/0904/65e2b70a-b184-4da3-b5c0-5038bdf9469a.jpg\",\"img/0862/ba89835a-408c-480b-8594-ed4ffa97eb5c.jpg\"]","trial_type":"similarity","trial_index":173,"time_elapsed":861236,"internal_node_id":"0.0-6.0-167.0"},{"sim_score":5,"rt":3539,"stimulus":"[\"img/0866/f756f7d1-9ad8-4a34-9ef6-7a443d705bfe.jpg\",\"img/0874/ca76a855-4e77-4f2f-872a-0a718153e7ed.jpg\"]","trial_type":"similarity","trial_index":174,"time_elapsed":865781,"internal_node_id":"0.0-6.0-168.0"},{"sim_score":3,"rt":2472,"stimulus":"[\"img/0903/36e4ab1f-caa9-40b3-8616-faada076df94.jpg\",\"img/0868/179a5502-ab5c-478e-8263-5a1fbcc101d2.jpg\"]","trial_type":"similarity","trial_index":175,"time_elapsed":869257,"internal_node_id":"0.0-6.0-169.0"},{"sim_score":5,"rt":3729,"stimulus":"[\"img/0769/ebef2ddc-ba59-4e0e-97f8-927864eb5081.jpg\",\"img/0904/73920552-103b-4c9c-9ece-e0b8376b4504.jpg\"]","trial_type":"similarity","trial_index":176,"time_elapsed":873996,"internal_node_id":"0.0-6.0-170.0"},{"sim_score":3,"rt":2493,"stimulus":"[\"img/0875/527ced51-8e53-4aab-ab05-86df219104c0.jpg\",\"img/0764/23ea9375-f801-4a96-9925-7d453da887c7.jpg\"]","trial_type":"similarity","trial_index":177,"time_elapsed":877492,"internal_node_id":"0.0-6.0-171.0"},{"sim_score":4,"rt":3103,"stimulus":"[\"img/0860/d9a0d117-6d1d-41c0-8fec-9aff0fd9e9f2.jpg\",\"img/0903/6378ee1e-3d2b-48d2-87be-bebda32c8268.jpg\"]","trial_type":"similarity","trial_index":178,"time_elapsed":881612,"internal_node_id":"0.0-6.0-172.0"},{"sim_score":5,"rt":2947,"stimulus":"[\"img/0864/300bb811-8b3c-4c42-8653-6097c3725197.jpg\",\"img/0867/a749dddb-69f0-44a6-acdc-2bf295cf6dcc.jpg\"]","trial_type":"similarity","trial_index":179,"time_elapsed":885575,"internal_node_id":"0.0-6.0-173.0"},{"sim_score":5,"rt":3220,"stimulus":"[\"img/0868/c8ac40c7-6904-4e13-8d61-c75d3052dc4e.jpg\",\"img/0864/49150900-7f25-4ce8-8d10-9b47a71d1997.jpg\"]","trial_type":"similarity","trial_index":180,"time_elapsed":889804,"internal_node_id":"0.0-6.0-174.0"},{"sim_score":6,"rt":3659,"stimulus":"[\"img/0898/4184e5a2-84ea-4f36-9b42-ae58646f6f87.jpg\",\"img/0769/c34b7763-8ff2-46d5-9e92-f1d8f3bedbd8.jpg\"]","trial_type":"similarity","trial_index":181,"time_elapsed":894473,"internal_node_id":"0.0-6.0-175.0"},{"sim_score":7,"rt":3985,"stimulus":"[\"img/0766/d14acac4-7db1-4b07-8f8f-302437326fc0.jpg\",\"img/0764/952d7adc-dc40-4aee-acce-18c2a1d02ea1.jpg\"]","trial_type":"similarity","trial_index":182,"time_elapsed":899475,"internal_node_id":"0.0-6.0-176.0"},{"sim_score":2,"rt":2959,"stimulus":"[\"img/0764/83c93cce-18d1-4aa7-9e23-2c268afe0a46.jpg\",\"img/0866/a15b02be-11bb-43e3-b0e0-ecc3bd7dfc49.jpg\"]","trial_type":"similarity","trial_index":183,"time_elapsed":903444,"internal_node_id":"0.0-6.0-177.0"},{"sim_score":3,"rt":2776,"stimulus":"[\"img/0902/40d0b6ec-3907-4573-b227-e7d8e9cad1c3.jpg\",\"img/0875/8521fd58-3b1e-4dc5-97ae-804edfa6734a.jpg\"]","trial_type":"similarity","trial_index":184,"time_elapsed":907234,"internal_node_id":"0.0-6.0-178.0"},{"sim_score":3,"rt":3805,"stimulus":"[\"img/0881/b1a136f7-8511-4d3a-a0f6-3879acf1e1a1.jpg\",\"img/0904/d23dd7be-7fe8-4435-82f7-bd592c01e6a1.jpg\"]","trial_type":"similarity","trial_index":185,"time_elapsed":912056,"internal_node_id":"0.0-6.0-179.0"},{"sim_score":5,"rt":3793,"stimulus":"[\"img/0874/29830da7-be5f-44e5-b141-652a0ccf7269.jpg\",\"img/0860/94ef7afc-e0e6-4a15-98c6-0bfac82bc832.jpg\"]","trial_type":"similarity","trial_index":186,"time_elapsed":916862,"internal_node_id":"0.0-6.0-180.0"},{"sim_score":3,"rt":3217,"stimulus":"[\"img/0769/c7cfacc3-7f07-46ff-9f5d-8073f4c4679b.jpg\",\"img/0874/1016b306-087c-4afc-aa08-fa527b28dc76.jpg\"]","trial_type":"similarity","trial_index":187,"time_elapsed":921094,"internal_node_id":"0.0-6.0-181.0"},{"sim_score":5,"rt":2926,"stimulus":"[\"img/0904/9b3568cc-3cf7-42be-9df3-fdafde7a58b8.jpg\",\"img/0766/a0270213-fa0e-4972-8b56-228c3e01ff90.jpg\"]","trial_type":"similarity","trial_index":188,"time_elapsed":925027,"internal_node_id":"0.0-6.0-182.0"},{"sim_score":6,"rt":4470,"stimulus":"[\"img/0902/d2c34af0-8c50-437d-8cc3-619195a3e8ba.jpg\",\"img/0764/6ef77040-1fae-4afa-bfe7-eda98e6d0376.jpg\"]","trial_type":"similarity","trial_index":189,"time_elapsed":930505,"internal_node_id":"0.0-6.0-183.0"},{"sim_score":5,"rt":3271,"stimulus":"[\"img/0769/d1be2815-fa79-46e8-b5c3-7d81caaca490.jpg\",\"img/0875/2c361b79-c3d1-4eda-812e-bf03192407bf.jpg\"]","trial_type":"similarity","trial_index":190,"time_elapsed":934781,"internal_node_id":"0.0-6.0-184.0"},{"sim_score":3,"rt":3159,"stimulus":"[\"img/0867/f8488a47-94ee-4166-952c-44e16cf172f6.jpg\",\"img/0903/71dbc325-b588-4297-a5cf-7f268a722ad9.jpg\"]","trial_type":"similarity","trial_index":191,"time_elapsed":938947,"internal_node_id":"0.0-6.0-185.0"},{"sim_score":4,"rt":2716,"stimulus":"[\"img/0862/847e5208-38ec-4f36-949c-296cdd7424ee.jpg\",\"img/0769/da36e3f7-2337-434f-ab57-11822dd7eed7.jpg\"]","trial_type":"similarity","trial_index":192,"time_elapsed":942679,"internal_node_id":"0.0-6.0-186.0"},{"sim_score":2,"rt":2943,"stimulus":"[\"img/0766/d50d734f-285c-4840-bc7a-c8dd4aff391e.jpg\",\"img/0866/9b38d691-1802-4959-ab3f-fc902f0e4ea6.jpg\"]","trial_type":"similarity","trial_index":193,"time_elapsed":946629,"internal_node_id":"0.0-6.0-187.0"},{"sim_score":5,"rt":3770,"stimulus":"[\"img/0769/6c0bac4c-5f59-43c7-898c-3ca93cf55cfe.jpg\",\"img/0860/b03b963d-949b-4d8d-b19c-4950c89eeca2.jpg\"]","trial_type":"similarity","trial_index":194,"time_elapsed":951405,"internal_node_id":"0.0-6.0-188.0"},{"sim_score":4,"rt":4324,"stimulus":"[\"img/0881/633c6f40-56d9-4b48-bf1c-ecd83116eabb.jpg\",\"img/0868/77091fc7-a590-4ebb-b915-fdb2483a2399.jpg\"]","trial_type":"similarity","trial_index":195,"time_elapsed":960017,"internal_node_id":"0.0-6.0-189.0"},{"view_history":"[{\"page_index\":0,\"viewing_time\":6224}]","rt":6224,"trial_type":"instructions","trial_index":196,"time_elapsed":967244,"internal_node_id":"0.0-7.0"},{"rt":21432,"responses":"{\"Q0\":\"Orange-crowned Warbler\"}","answer":["Nashville Warbler"],"trial_type":"image-multi-choice","trial_index":197,"time_elapsed":989701,"internal_node_id":"0.0-8.0-0.0"},{"rt":3339,"responses":"{\"Q0\":\"Black-and-white Warbler\"}","answer":["Black-and-white Warbler"],"trial_type":"image-multi-choice","trial_index":198,"time_elapsed":994070,"internal_node_id":"0.0-8.0-1.0"},{"rt":3666,"responses":"{\"Q0\":\"Blackburnian Warbler\"}","answer":["Townsend's Warbler"],"trial_type":"image-multi-choice","trial_index":199,"time_elapsed":998739,"internal_node_id":"0.0-8.0-2.0"},{"rt":3034,"responses":"{\"Q0\":\"Lark Sparrow\"}","answer":["Lark Sparrow"],"trial_type":"image-multi-choice","trial_index":200,"time_elapsed":1002788,"internal_node_id":"0.0-8.0-3.0"},{"rt":2763,"responses":"{\"Q0\":\"Yellow Warbler\"}","answer":["Yellow Warbler"],"trial_type":"image-multi-choice","trial_index":201,"time_elapsed":1006554,"internal_node_id":"0.0-8.0-4.0"},{"rt":9648,"responses":"{\"Q0\":\"Tennessee Warbler\"}","answer":["Orange-crowned Warbler"],"trial_type":"image-multi-choice","trial_index":202,"time_elapsed":1017228,"internal_node_id":"0.0-8.0-5.0"},{"rt":7185,"responses":"{\"Q0\":\"White-throated Sparrow\"}","answer":["White-throated Sparrow"],"trial_type":"image-multi-choice","trial_index":203,"time_elapsed":1025433,"internal_node_id":"0.0-8.0-6.0"},{"rt":3702,"responses":"{\"Q0\":\"Fox Sparrow\"}","answer":["Fox Sparrow"],"trial_type":"image-multi-choice","trial_index":204,"time_elapsed":1030152,"internal_node_id":"0.0-8.0-7.0"},{"rt":12517,"responses":"{\"Q0\":\"Lincoln's Sparrow\"}","answer":["Song Sparrow"],"trial_type":"image-multi-choice","trial_index":205,"time_elapsed":1043689,"internal_node_id":"0.0-8.0-8.0"},{"rt":4661,"responses":"{\"Q0\":\"Magnolia Warbler\"}","answer":["Blackburnian Warbler"],"trial_type":"image-multi-choice","trial_index":206,"time_elapsed":1049351,"internal_node_id":"0.0-8.0-9.0"},{"rt":13510,"responses":"{\"Q0\":\"Swamp Sparrow\"}","answer":["Vesper Sparrow"],"trial_type":"image-multi-choice","trial_index":207,"time_elapsed":1063875,"internal_node_id":"0.0-8.0-10.0"},{"rt":3347,"responses":"{\"Q0\":\"White-crowned Sparrow\"}","answer":["White-crowned Sparrow"],"trial_type":"image-multi-choice","trial_index":208,"time_elapsed":1068235,"internal_node_id":"0.0-8.0-11.0"},{"rt":12367,"responses":"{\"Q0\":\"Vesper Sparrow\"}","answer":["American Tree Sparrow"],"trial_type":"image-multi-choice","trial_index":209,"time_elapsed":1081612,"internal_node_id":"0.0-8.0-12.0"},{"rt":11180,"responses":"{\"Q0\":\"Tennessee Warbler\"}","answer":["Tennessee Warbler"],"trial_type":"image-multi-choice","trial_index":210,"time_elapsed":1093806,"internal_node_id":"0.0-8.0-13.0"},{"rt":14781,"responses":"{\"Q0\":\"Townsend's Warbler\"}","answer":["Magnolia Warbler"],"trial_type":"image-multi-choice","trial_index":211,"time_elapsed":1109606,"internal_node_id":"0.0-8.0-14.0"},{"rt":5758,"responses":"{\"Q0\":\"Northern Waterthrush\"}","answer":["Northern Waterthrush"],"trial_type":"image-multi-choice","trial_index":212,"time_elapsed":1116378,"internal_node_id":"0.0-8.0-15.0"},{"rt":4326,"responses":"{\"Q0\":\"American Tree Sparrow\"}","answer":["Chipping Sparrow"],"trial_type":"image-multi-choice","trial_index":213,"time_elapsed":1121714,"internal_node_id":"0.0-8.0-16.0"},{"rt":20569,"responses":"{\"Q0\":\"Swamp Sparrow\"}","answer":["Swamp Sparrow"],"trial_type":"image-multi-choice","trial_index":214,"time_elapsed":1143296,"internal_node_id":"0.0-8.0-17.0"},{"rt":5202,"responses":"{\"Q0\":\"Song Sparrow\"}","answer":["Lincoln's Sparrow"],"trial_type":"image-multi-choice","trial_index":215,"time_elapsed":1149525,"internal_node_id":"0.0-8.0-18.0"},{"rt":2839,"responses":"{\"Q0\":\"Ovenbird\"}","answer":["Ovenbird"],"trial_type":"image-multi-choice","trial_index":216,"time_elapsed":1153374,"internal_node_id":"0.0-8.0-19.0"}]