"view_history","rt","trial_type","trial_index","time_elapsed","internal_node_id","sim_score","stimulus","responses","answer"
"[{""page_index"":0,""viewing_time"":25439}]","25440","instructions","0","25442","0.0-0.0","","","",""
"","13178","similarity_demo","1","39630","0.0-1.0","6","[""img/bluejay1.jpg"",""img/bluejay2.jpg""]","",""
"[{""page_index"":0,""viewing_time"":16986}]","16987","instructions","2","57618","0.0-2.0","","","",""
"","7206","similarity_demo","3","65830","0.0-3.0","2","[""img/bluejay1.jpg"",""img/cardinal1.jpg""]","",""
"[{""page_index"":0,""viewing_time"":7666}]","7666","instructions","4","74497","0.0-4.0","","","",""
"[{""page_index"":0,""viewing_time"":27173}]","27173","instructions","5","102671","0.0-5.0","","","",""
"","7004","similarity","6","110684","0.0-6.0-0.0","2","[""img/0868/fd307a36-9a3a-47d7-ab7c-f810d0b35040.jpg"",""img/0894/43216a7f-27bc-4b5a-8841-d122a30da9d9.jpg""]","",""
"","6146","similarity","7","117835","0.0-6.0-1.0","2","[""img/0898/881e2a85-d5c2-49be-a0c6-8a6ce2c4af08.jpg"",""img/0758/3ddd05d3-557e-4ee7-8b78-9d2d681d8ae2.jpg""]","",""
"","6076","similarity","8","124915","0.0-6.0-2.0","3","[""img/0903/b0df4094-a3be-4b5b-81bd-8d260f13f61b.jpg"",""img/0894/bd34223a-2f66-4e16-9d18-193a746b69ff.jpg""]","",""
"","5795","similarity","9","131714","0.0-6.0-3.0","4","[""img/0881/48ed65a5-471f-41af-86ec-3793805c116d.jpg"",""img/0766/fd064894-7147-4af5-97e9-2089d5472656.jpg""]","",""
"","6476","similarity","10","139194","0.0-6.0-4.0","2","[""img/0864/0116ca98-293d-4fa6-a93b-5a6144ef64cc.jpg"",""img/0860/5bff793e-cbd5-4d7e-b628-0ac2b0e30b64.jpg""]","",""
"","5120","similarity","11","145319","0.0-6.0-5.0","5","[""img/0902/6c2c243a-f663-45db-baf5-038d3d58c589.jpg"",""img/0899/d8f2dd94-570e-4e8c-a087-d96090fb9e8c.jpg""]","",""
"","4217","similarity","12","150541","0.0-6.0-6.0","2","[""img/0868/293079b8-7e0c-4afd-a390-1e5d35fe3ded.jpg"",""img/0769/35364db7-e0d5-40ef-93dc-faf9dfb95136.jpg""]","",""
"","5153","similarity","13","156698","0.0-6.0-7.0","4","[""img/0764/5d6fa3ce-9083-410c-bbdb-336a49b94cfc.jpg"",""img/0901/a6776381-91fe-43f8-ab73-261d318f95fd.jpg""]","",""
"","3914","similarity","14","161616","0.0-6.0-8.0","2","[""img/0881/b1a136f7-8511-4d3a-a0f6-3879acf1e1a1.jpg"",""img/0866/9b38d691-1802-4959-ab3f-fc902f0e4ea6.jpg""]","",""
"","4579","similarity","15","167199","0.0-6.0-9.0","3","[""img/0867/f8488a47-94ee-4166-952c-44e16cf172f6.jpg"",""img/0899/00715b3f-851b-420b-a26b-d7f79f7759a9.jpg""]","",""
"","5190","similarity","16","173393","0.0-6.0-10.0","2","[""img/0875/90da8d75-108a-44ad-b999-e21fee3860d3.jpg"",""img/0766/0b48f9e0-7d37-4161-8adb-4e3f5b6b7583.jpg""]","",""
"","7475","similarity","17","181872","0.0-6.0-11.0","2","[""img/0901/4d1bed7e-3c4e-4f6c-ada9-4beb66ba9e39.jpg"",""img/0875/e7e66b13-b573-431e-b85e-288ce04a35a3.jpg""]","",""
"","4146","similarity","18","187022","0.0-6.0-12.0","5","[""img/0902/27b84584-948a-485b-8749-cb09929ef631.jpg"",""img/0860/8277806e-b684-4474-8f7b-3fca946d7d4f.jpg""]","",""
"","4998","similarity","19","193026","0.0-6.0-13.0","3","[""img/0874/ca23d307-fc00-4d7d-9106-584c6eb21b4d.jpg"",""img/0867/179ab87a-8eac-4c52-a41f-2e48e3120f09.jpg""]","",""
"","4053","similarity","20","198083","0.0-6.0-14.0","3","[""img/0904/fe746a3f-8458-48d0-8a13-8cba2a9df9f8.jpg"",""img/0866/c446214b-a368-4c65-ae39-ea46894256ab.jpg""]","",""
"","4307","similarity","21","203395","0.0-6.0-15.0","3","[""img/0758/61d64021-9214-4951-bdf8-f871f9827cf9.jpg"",""img/0902/9f543501-3cf1-45a7-a2f1-eeca87cc15b9.jpg""]","",""
"","5030","similarity","22","209429","0.0-6.0-16.0","2","[""img/0867/db7e032f-162b-46f5-ae67-2b29679adee4.jpg"",""img/0898/b2732712-71c2-45d8-834f-2b2ed5504910.jpg""]","",""
"","4543","similarity","23","214976","0.0-6.0-17.0","3","[""img/0904/5aec2708-cf14-4a58-aa30-9a8a61c1be0e.jpg"",""img/0868/4bd5105a-d2c3-4f82-8c80-57196106ba53.jpg""]","",""
"","4775","similarity","24","220755","0.0-6.0-18.0","3","[""img/0766/2746b119-4bba-463e-acf0-88136dc6600c.jpg"",""img/0864/ea327690-500b-4137-bf91-451b309fe6a5.jpg""]","",""
"","4170","similarity","25","225930","0.0-6.0-19.0","4","[""img/0899/51a7a498-98c7-42d7-bca8-bc2d8f0b5831.jpg"",""img/0766/989c5c7f-1aff-4442-ac63-9d46acf4a891.jpg""]","",""
"","4896","similarity","26","231831","0.0-6.0-20.0","4","[""img/0764/e48e6c6f-9e28-420f-836a-8043b2319bb4.jpg"",""img/0758/7ee8bc8f-c40b-4b3a-84ec-3e83580622d4.jpg""]","",""
"","4670","similarity","27","237506","0.0-6.0-21.0","3","[""img/0901/7c16dd9c-44ad-4d5b-990c-6a0b9b48b1b1.jpg"",""img/0874/995f0332-0439-4eb4-add3-957335dbf6d9.jpg""]","",""
"","4870","similarity","28","243380","0.0-6.0-22.0","3","[""img/0875/99698b4d-b4a1-44bc-8c83-8ea755bbbf61.jpg"",""img/0758/65d426d6-3ff6-415d-8654-a43b83ecc4fe.jpg""]","",""
"","4711","similarity","29","249097","0.0-6.0-23.0","3","[""img/0867/a749dddb-69f0-44a6-acdc-2bf295cf6dcc.jpg"",""img/0881/d1982897-8d8d-4704-a940-1ee5d07a1f15.jpg""]","",""
"","4789","similarity","30","254890","0.0-6.0-24.0","2","[""img/0758/9fb5b2fe-3f00-4fe6-973c-1ce10d5f4cd5.jpg"",""img/0901/f1116359-1ff1-4638-b3b3-700918d36d18.jpg""]","",""
"","4656","similarity","31","260551","0.0-6.0-25.0","4","[""img/0868/c8ac40c7-6904-4e13-8d61-c75d3052dc4e.jpg"",""img/0875/ebf7653f-ff45-4e9f-af58-2c042ab3cd2b.jpg""]","",""
"","4912","similarity","32","266467","0.0-6.0-26.0","5","[""img/0903/36e4ab1f-caa9-40b3-8616-faada076df94.jpg"",""img/0901/08d6d1d1-c043-43c4-bb08-d45e062822b9.jpg""]","",""
"","6075","similarity","33","273547","0.0-6.0-27.0","5","[""img/0894/b2d2f66e-e480-46da-a02a-6d0c6b285d78.jpg"",""img/0899/ddf96ade-692e-4602-bd22-dedbb46401bc.jpg""]","",""
"","4343","similarity","34","278895","0.0-6.0-28.0","3","[""img/0862/00c06b00-3b73-44e9-bc1e-c5aafb438321.jpg"",""img/0867/a498eef3-9fa4-4ab2-9778-4ae82ac40dc5.jpg""]","",""
"","4217","similarity","35","284118","0.0-6.0-29.0","3","[""img/0864/e336a4c5-6648-4fd7-b2f6-93a3fb83f8c6.jpg"",""img/0875/2c361b79-c3d1-4eda-812e-bf03192407bf.jpg""]","",""
"","4294","similarity","36","289417","0.0-6.0-30.0","3","[""img/0862/53a9cf7c-93c4-41b9-952f-07d17f7a17b2.jpg"",""img/0874/ca76a855-4e77-4f2f-872a-0a718153e7ed.jpg""]","",""
"","5145","similarity","37","295567","0.0-6.0-31.0","5","[""img/0903/5995f4a8-fa82-46f8-8760-fd7800a5ca34.jpg"",""img/0758/6e95579b-5166-487c-b8cb-e417c6a218e3.jpg""]","",""
"","6009","similarity","38","302581","0.0-6.0-32.0","3","[""img/0866/4a87911a-d5be-4d4e-ab8e-3d1f581bf507.jpg"",""img/0901/a373612d-67e2-4fec-9764-21d3d6ef6359.jpg""]","",""
"","4663","similarity","39","308249","0.0-6.0-33.0","3","[""img/0874/3f471690-9788-4d03-90c7-f615aecef149.jpg"",""img/0899/8de08897-b430-42fe-9d42-840670b80f94.jpg""]","",""
"","5130","similarity","40","314384","0.0-6.0-34.0","6","[""img/0903/5248eedd-7e6a-4d39-91b0-06ec227f3ed0.jpg"",""img/0902/d2c34af0-8c50-437d-8cc3-619195a3e8ba.jpg""]","",""
"","6471","similarity","41","321859","0.0-6.0-35.0","5","[""img/0758/53f35650-e455-4b53-8be4-c3c8271c6466.jpg"",""img/0866/93a27239-8317-4e08-98ca-d8b1ff298e07.jpg""]","",""
"","5354","similarity","42","328217","0.0-6.0-36.0","4","[""img/0875/fb732ab5-013a-4366-9f65-27811ed157e9.jpg"",""img/0903/f67c4ab9-f8c2-4fcd-848a-a54a7b031002.jpg""]","",""
"","4553","similarity","43","341432","0.0-6.0-37.0","3","[""img/0864/5f74a653-3bdc-4308-8cca-ac667dc22e1f.jpg"",""img/0902/22ed3536-288b-452e-9777-0fa0ab94deb0.jpg""]","",""
"","7838","similarity","44","350275","0.0-6.0-38.0","3","[""img/0901/d6d15b1c-4a30-4f74-a3fd-d4c8ee4169ca.jpg"",""img/0867/aa05d113-fc19-4756-a8eb-7878f580bc92.jpg""]","",""
"","4532","similarity","45","355811","0.0-6.0-39.0","5","[""img/0862/e8cc3bdf-cc43-4565-bccf-492626c70953.jpg"",""img/0860/8a92e21b-6a32-4e4a-a445-2d5a487ed0a4.jpg""]","",""
"","5561","similarity","46","362376","0.0-6.0-40.0","6","[""img/0867/98d8cd96-1476-4fe0-a3a3-04f875500a1b.jpg"",""img/0868/5fa7f9d0-f0e5-454c-8224-74d964818f56.jpg""]","",""
"","4660","similarity","47","368040","0.0-6.0-41.0","4","[""img/0904/4b8daf2a-13a9-4ea9-9e0b-b265b6e933e7.jpg"",""img/0899/0e1d936a-dbe2-4afc-9f19-7b7a1ae6c9ed.jpg""]","",""
"","3713","similarity","48","372757","0.0-6.0-42.0","3","[""img/0862/de9ad88c-b522-430a-8ee9-eb06a9f85df5.jpg"",""img/0894/c505c65a-cde2-4f2c-8cde-f8676f7c894d.jpg""]","",""
"","4727","similarity","49","378489","0.0-6.0-43.0","3","[""img/0875/d59ff733-eaff-4ee2-9443-06954dd0bcb6.jpg"",""img/0904/9d30eff1-46ef-4453-b11e-124ef8145c00.jpg""]","",""
"","6678","similarity","50","386172","0.0-6.0-44.0","5","[""img/0874/bf14b896-e930-4fd9-9c05-2e83317a2773.jpg"",""img/0898/b3290bf9-215b-4b45-b21a-65bdf73f142f.jpg""]","",""
"","4432","similarity","51","391609","0.0-6.0-45.0","3","[""img/0898/0c7dde4f-efce-4b7a-9387-6921635b7890.jpg"",""img/0868/4e626425-63c8-484a-8a1d-e66ee4e0bef8.jpg""]","",""
"","4463","similarity","52","397076","0.0-6.0-46.0","3","[""img/0901/b13fa50f-dbe0-4d0f-8647-6ac0fd8f40bd.jpg"",""img/0860/17b44a7d-c5ca-479f-9e87-f65a64f5c80e.jpg""]","",""
"","4543","similarity","53","402624","0.0-6.0-47.0","6","[""img/0894/1a010553-d598-4b06-a772-81f1e7b3addb.jpg"",""img/0902/7499db23-3a41-41ea-ab5b-6ab4d4c3ed35.jpg""]","",""
"","7108","similarity","54","410737","0.0-6.0-48.0","3","[""img/0764/958b8576-3a3b-4acc-96dc-06b74de69f37.jpg"",""img/0862/a0a3a7ba-7798-46a3-b4ca-05e1f6e581d0.jpg""]","",""
"","5610","similarity","55","417352","0.0-6.0-49.0","4","[""img/0881/ed4c971f-0873-4fc8-b6d6-e8bbd82f0bcc.jpg"",""img/0758/e38fd80d-18d0-42f3-b848-f930788e8bd7.jpg""]","",""
"","4111","similarity","56","422466","0.0-6.0-50.0","5","[""img/0766/e8052e17-9dae-4139-802b-6e590cb2d526.jpg"",""img/0769/878531fd-e0e8-4ad1-b9ad-f018bb104ca0.jpg""]","",""
"","4227","similarity","57","427697","0.0-6.0-51.0","4","[""img/0875/34132396-d896-4c2d-8087-646dd867e769.jpg"",""img/0866/d266fece-59b3-46fa-b69f-96f6efb81b59.jpg""]","",""
"","4704","similarity","58","433405","0.0-6.0-52.0","5","[""img/0894/661b9f9f-4bde-487a-b1ed-87085fde6948.jpg"",""img/0904/b5855d6a-7ef9-46ca-9215-6e9fa046e543.jpg""]","",""
"","4841","similarity","59","439250","0.0-6.0-53.0","4","[""img/0758/821c68d3-5cb0-4eae-8659-30e6263fca39.jpg"",""img/0769/f2740c58-7c02-433f-920b-746b0b75435b.jpg""]","",""
"","4942","similarity","60","445197","0.0-6.0-54.0","3","[""img/0902/44cd9b7e-fdfb-4f78-90de-8d4c9d279365.jpg"",""img/0874/8cdb1c07-1c32-46d2-981c-3636560fa6e5.jpg""]","",""
"","4461","similarity","61","450663","0.0-6.0-55.0","3","[""img/0903/07b445ee-0cdb-4d2c-a23b-d727613f4059.jpg"",""img/0862/ba89835a-408c-480b-8594-ed4ffa97eb5c.jpg""]","",""
"","5617","similarity","62","457285","0.0-6.0-56.0","3","[""img/0866/a04d37f0-99dd-478a-b6c6-58b215138f84.jpg"",""img/0894/5f15154e-e72e-4ce5-aafb-bce6f0564006.jpg""]","",""
"","5611","similarity","63","463900","0.0-6.0-57.0","3","[""img/0867/12264664-1860-46df-8c21-162b9817cdda.jpg"",""img/0904/9b3568cc-3cf7-42be-9df3-fdafde7a58b8.jpg""]","",""
"","5982","similarity","64","470885","0.0-6.0-58.0","3","[""img/0875/5a1e5100-0d94-4fec-bbe9-ca9894d2cf8e.jpg"",""img/0881/20af39f5-373d-4a55-a437-2dc4c0382c46.jpg""]","",""
"","5121","similarity","65","477010","0.0-6.0-59.0","2","[""img/0866/0207e9a2-7dbb-40b5-9459-b472aaeceb2a.jpg"",""img/0860/29a21a9f-54bb-4093-ad3f-04823ceaa89f.jpg""]","",""
"","5586","similarity","66","483601","0.0-6.0-60.0","2","[""img/0903/f45a103c-9bfe-49fd-ad96-bdd8d2589195.jpg"",""img/0866/23a224f3-2012-4fc8-8e0f-3c36f8de27fd.jpg""]","",""
"","6857","similarity","67","491462","0.0-6.0-61.0","5","[""img/0860/9593362c-9fe5-4d12-9735-6000a11f6aa5.jpg"",""img/0875/a4935837-7d3c-4df6-88c1-36a94d4991ca.jpg""]","",""
"","4970","similarity","68","497436","0.0-6.0-62.0","5","[""img/0898/8605a25b-6895-476d-8c13-df7a83f96093.jpg"",""img/0862/7918ca67-5bd3-4606-a5ea-c39fb11a9297.jpg""]","",""
"","5577","similarity","69","504017","0.0-6.0-63.0","4","[""img/0902/0c760cc9-10ac-429e-8957-a7d51fc99683.jpg"",""img/0766/b84598d0-5b41-4841-88b0-b441b48289f5.jpg""]","",""
"","3975","similarity","70","508996","0.0-6.0-64.0","5","[""img/0758/b76ceca7-95ac-46e4-ac13-da02c8e93be9.jpg"",""img/0864/f92649a2-0590-4d31-9a7a-1bfb81666a2d.jpg""]","",""
"","5636","similarity","71","515636","0.0-6.0-65.0","3","[""img/0894/133a1636-d123-4893-873c-1718050f832a.jpg"",""img/0860/31ff6436-98bf-4652-bed2-40f627229568.jpg""]","",""
"","4479","similarity","72","521120","0.0-6.0-66.0","2","[""img/0899/9de5e857-aa9a-4e0c-8ba2-46d79bd069a4.jpg"",""img/0868/0d3abd3a-b6c3-4584-a9f7-e2da63748b3d.jpg""]","",""
"","7636","similarity","73","529760","0.0-6.0-67.0","2","[""img/0866/02f5e6b9-52b7-448c-9708-5b460d0c9a23.jpg"",""img/0862/fb26cb07-d5a9-4653-813c-f41609f26cd5.jpg""]","",""
"","5611","similarity","74","536375","0.0-6.0-68.0","3","[""img/0860/fd4662f9-4c03-4d79-8593-06735e55a64b.jpg"",""img/0758/a709631e-3705-4725-ac40-f0d916924f08.jpg""]","",""
"","4973","similarity","75","542352","0.0-6.0-69.0","3","[""img/0902/3b243e54-0803-4c29-af42-4037c2118495.jpg"",""img/0867/7d1c497b-c1b3-4ed8-abb5-d7f73306015f.jpg""]","",""
"","5706","similarity","76","549063","0.0-6.0-70.0","3","[""img/0862/ee3b7bff-4a70-4e84-9bea-4a565e456acb.jpg"",""img/0901/2a953e50-d237-405c-a38d-5ed21494c968.jpg""]","",""
"","6574","similarity","77","556641","0.0-6.0-71.0","5","[""img/0867/c66898ba-b71b-4d50-84f9-f7f84853a98d.jpg"",""img/0866/8efcaa46-83ab-4dee-a35f-850402aa21ae.jpg""]","",""
"","4742","similarity","78","562387","0.0-6.0-72.0","3","[""img/0860/4c530c3c-6aab-492a-94d1-9c01797bde40.jpg"",""img/0904/09dac84f-3d1c-4445-a68e-d0389fdbf1e9.jpg""]","",""
"","4551","similarity","79","567942","0.0-6.0-73.0","2","[""img/0875/cff79b3a-a797-4393-9757-6275f999ec04.jpg"",""img/0899/fef567a2-c121-4481-9af0-ff108d199bbf.jpg""]","",""
"","5548","similarity","80","574494","0.0-6.0-74.0","2","[""img/0899/25ae6ec8-9565-49fe-a8bb-8d0666f52716.jpg"",""img/0758/eabcd7a8-56ad-4fd2-bc24-90f6b7b33265.jpg""]","",""
"","4265","similarity","81","585607","0.0-6.0-75.0","2","[""img/0862/f23038d4-c366-4f70-979f-66b62362efa4.jpg"",""img/0875/42910c99-5463-450a-a0f8-d4d060a11455.jpg""]","",""
"","4845","similarity","82","591456","0.0-6.0-76.0","3","[""img/0901/fb0a8e69-7f19-4e6e-a6bb-a48f97f9b4f3.jpg"",""img/0894/792c83e9-a747-4000-bc72-5663d2439edb.jpg""]","",""
"","5327","similarity","83","597788","0.0-6.0-77.0","2","[""img/0766/717fd72f-a281-499b-a5ba-5e2ecc4d4866.jpg"",""img/0758/e1ba5e53-addc-436a-b428-d34fc1b130dc.jpg""]","",""
"","4932","similarity","84","603724","0.0-6.0-78.0","3","[""img/0894/11674fa4-285d-44e2-939f-2228c6a64080.jpg"",""img/0764/62fafeea-6274-48ce-976f-35d3d3484c65.jpg""]","",""
"","4379","similarity","85","609107","0.0-6.0-79.0","2","[""img/0860/15b24a61-25be-4356-9eac-5ce95d0cb4a4.jpg"",""img/0867/85a96c62-548f-4994-9553-819e03c3135a.jpg""]","",""
"","5056","similarity","86","615167","0.0-6.0-80.0","4","[""img/0898/c3cecf20-f7fd-45fa-97d0-dc0a63e8d6c0.jpg"",""img/0901/a9b9c0a0-8aed-4888-a78a-65fb7e764d13.jpg""]","",""
"","5265","similarity","87","621436","0.0-6.0-81.0","3","[""img/0874/a3bc679d-619f-4db6-bb68-116dcb757d9c.jpg"",""img/0764/b328441c-f81c-486c-9eae-b947c70ba7cd.jpg""]","",""
"","4663","similarity","88","627103","0.0-6.0-82.0","2","[""img/0899/93494f3b-d539-4075-b027-d82e344563da.jpg"",""img/0862/847e5208-38ec-4f36-949c-296cdd7424ee.jpg""]","",""
"","5014","similarity","89","633123","0.0-6.0-83.0","3","[""img/0766/00891401-e4c9-4ce1-bc19-f70740d174bc.jpg"",""img/0901/31c032fd-3c3d-4882-a226-da9a80198937.jpg""]","",""
"","5307","similarity","90","639434","0.0-6.0-84.0","4","[""img/0881/e046471a-35b4-4159-bbf7-3cfd201bef66.jpg"",""img/0898/08c72dac-f8ad-407a-9ce6-8c9a5d679c3a.jpg""]","",""
"","4284","similarity","91","644722","0.0-6.0-85.0","3","[""img/0868/8b0b8473-e2c0-4331-aa56-c3a5c29369da.jpg"",""img/0860/c7047cd2-7cc1-41b6-8a34-c0986774975f.jpg""]","",""
"","3997","similarity","92","649722","0.0-6.0-86.0","2","[""img/0758/6cd8c362-ae2a-41eb-80a3-3a4f7ace1530.jpg"",""img/0868/d98ca254-b195-477f-b57e-5760a2717db8.jpg""]","",""
"","5921","similarity","93","656648","0.0-6.0-87.0","2","[""img/0864/c3b63e8f-ea39-4d70-a1f2-b3fe4be8eb75.jpg"",""img/0894/2217bdcd-23a7-42d3-823b-23f2488d7e87.jpg""]","",""
"","4167","similarity","94","661819","0.0-6.0-88.0","2","[""img/0866/386235d2-6857-41e7-88a8-25cfc3430025.jpg"",""img/0902/418b716e-63e5-4c77-93e9-95b1f5a3ddf0.jpg""]","",""
"","4522","similarity","95","667345","0.0-6.0-89.0","2","[""img/0769/a3cfbdeb-acb3-4eac-87fb-4b117f42d4f8.jpg"",""img/0867/1719a35d-f085-48c0-9099-16c94fe418b4.jpg""]","",""
"","4921","similarity","96","673270","0.0-6.0-90.0","3","[""img/0874/c0378dac-9370-439a-8b79-db27c96fb390.jpg"",""img/0875/f87b67d7-c33e-40d1-b281-248c4be1cb6e.jpg""]","",""
"","4571","similarity","97","678846","0.0-6.0-91.0","5","[""img/0864/e02eddb5-f468-499c-91bf-f7be3ffe979b.jpg"",""img/0874/93d1f8dc-acf2-4f03-bd8d-8ec35df276ed.jpg""]","",""
"","6082","similarity","98","685932","0.0-6.0-92.0","5","[""img/0881/f4e3e181-b3c9-4af2-a5a4-fc135ab70d2e.jpg"",""img/0862/ad593cc7-cabe-4bb7-8e14-8a447a0717b4.jpg""]","",""
"","5079","similarity","99","692016","0.0-6.0-93.0","4","[""img/0864/ef9cbca0-4be8-435d-ad49-977259e80409.jpg"",""img/0881/f62bdcd1-a4b7-4d48-83da-d9c9e01c8727.jpg""]","",""
"","6514","similarity","100","699533","0.0-6.0-94.0","2","[""img/0899/a05bea16-2bb4-4cb9-b8fb-4ff975db6971.jpg"",""img/0901/effc03f6-8f9d-46db-a66c-16fc83891c5c.jpg""]","",""
"","4298","similarity","101","704836","0.0-6.0-95.0","2","[""img/0874/29830da7-be5f-44e5-b141-652a0ccf7269.jpg"",""img/0766/fd74fdbb-ea40-4f3a-a091-38d08dfd636e.jpg""]","",""
"","5625","similarity","102","711465","0.0-6.0-96.0","3","[""img/0881/2a8413be-fec2-4de6-88ad-614dd4cccc9d.jpg"",""img/0899/0adc0bc3-6fca-4078-be6f-d45ddf1653d5.jpg""]","",""
"","9468","similarity","103","721938","0.0-6.0-97.0","4","[""img/0862/cdaed51d-9e2f-4807-801a-4663c40077e2.jpg"",""img/0902/8af4182a-9af9-4212-a436-9195555112d6.jpg""]","",""
"","4486","similarity","104","727428","0.0-6.0-98.0","4","[""img/0899/06b0fc99-0581-461a-9913-d1a5a941ac61.jpg"",""img/0764/978aede9-4590-4ad0-b234-135c83e5d669.jpg""]","",""
"","7696","similarity","105","736127","0.0-6.0-99.0","3","[""img/0758/d41c06bf-ebaf-454b-91c6-1a17f917b659.jpg"",""img/0862/f188d4f0-76a4-4102-818c-a209969d73a5.jpg""]","",""
"","4669","similarity","106","741800","0.0-6.0-100.0","4","[""img/0764/952d7adc-dc40-4aee-acce-18c2a1d02ea1.jpg"",""img/0898/6cd3830b-d44e-4915-be2b-88d31424b91c.jpg""]","",""
"","5276","similarity","107","748080","0.0-6.0-101.0","5","[""img/0901/5657dd86-0ff9-4753-ba2b-9dfb223e5c89.jpg"",""img/0902/511abb54-0094-4f4d-b6dc-3f2c97050521.jpg""]","",""
"","5232","similarity","108","754317","0.0-6.0-102.0","3","[""img/0764/7f4ee8e3-9315-4a57-be7d-db8454b33766.jpg"",""img/0868/1a62b2b2-18f5-466e-b564-5176a57c565e.jpg""]","",""
"","6790","similarity","109","762110","0.0-6.0-103.0","3","[""img/0769/aad494cc-674d-4a08-9bfa-24a88ebe3c79.jpg"",""img/0881/adc02f34-ce97-4aef-850f-00519df06fd7.jpg""]","",""
"","4407","similarity","110","767521","0.0-6.0-104.0","2","[""img/0864/66091c27-e588-4476-8af9-265dc6be4156.jpg"",""img/0769/9ea27d61-3d55-418c-8d14-82e90f656f01.jpg""]","",""
"","7020","similarity","111","775545","0.0-6.0-105.0","5","[""img/0866/6f2a90d7-14f1-4f1b-bd64-fc0af6b9fe44.jpg"",""img/0868/e0aff734-077f-40dd-9781-74821abd3621.jpg""]","",""
"","4527","similarity","112","781075","0.0-6.0-106.0","2","[""img/0868/7b212364-ff5f-4e28-9241-7eb6ea00161b.jpg"",""img/0862/fad1d7c1-8187-43c3-942a-0fc12183e48e.jpg""]","",""
"","4298","similarity","113","786377","0.0-6.0-107.0","2","[""img/0766/c23b5a20-e50f-4d85-841f-cf89212a4348.jpg"",""img/0898/26c41340-15bd-4ead-8fe4-c0d0ddca09c2.jpg""]","",""
"","5537","similarity","114","792919","0.0-6.0-108.0","3","[""img/0898/a8f16b02-e19f-423b-86c3-a36562ae1f9b.jpg"",""img/0864/49150900-7f25-4ce8-8d10-9b47a71d1997.jpg""]","",""
"","3881","similarity","115","797802","0.0-6.0-109.0","2","[""img/0868/6a28c3b0-3d76-498a-9fb7-ddafc665eca8.jpg"",""img/0902/cdec1bc6-7f90-4f72-9e01-f5a4111bac1d.jpg""]","",""
"","4920","similarity","116","803728","0.0-6.0-110.0","4","[""img/0904/a8c3c7d2-9bcf-4347-9e03-8203adfc1fc5.jpg"",""img/0764/ba0c0955-acbb-457d-b1c2-f006b88121d5.jpg""]","",""
"","6210","similarity","117","810942","0.0-6.0-111.0","2","[""img/0894/5a49e858-2850-4892-9a06-e9f0efb5f94d.jpg"",""img/0875/3ecb367d-e9eb-4826-8aaa-7aa72fb98019.jpg""]","",""
"","5858","similarity","118","817804","0.0-6.0-112.0","2","[""img/0868/83b4350a-3b70-4cea-b7f5-b5b56f3050a8.jpg"",""img/0874/31e22c7c-99aa-40b1-bf03-dd73fa2df4d6.jpg""]","",""
"","5813","similarity","119","828857","0.0-6.0-113.0","4","[""img/0904/65e2b70a-b184-4da3-b5c0-5038bdf9469a.jpg"",""img/0898/224c1572-56b9-4f16-a9e4-6f3bc9c114bd.jpg""]","",""
"","5133","similarity","120","834994","0.0-6.0-114.0","3","[""img/0860/87039971-2210-4aab-93c0-8e9b5f1655b2.jpg"",""img/0766/ef3b15ce-abb7-4292-ad93-aec8e8b50520.jpg""]","",""
"","4829","similarity","121","840827","0.0-6.0-115.0","3","[""img/0894/8cadb87a-7001-4e47-99fb-1867bebf1668.jpg"",""img/0874/2c9464dd-8a23-4baa-ac94-1ba3af5c15cc.jpg""]","",""
"","4448","similarity","122","846279","0.0-6.0-116.0","4","[""img/0899/56a605c3-d0a2-4215-89e1-779279d85a7c.jpg"",""img/0903/72197c2b-403e-4a26-b391-f1aa8dea4b76.jpg""]","",""
"","5740","similarity","123","853023","0.0-6.0-117.0","3","[""img/0881/ee44e27f-d662-4608-b265-e7ffa19b216f.jpg"",""img/0764/f713847b-4832-42d1-8fb3-e17e37fd745c.jpg""]","",""
"","4453","similarity","124","858480","0.0-6.0-118.0","4","[""img/0903/6a87dbad-9b8d-4ff5-9c41-03c9aa24f0c3.jpg"",""img/0769/da36e3f7-2337-434f-ab57-11822dd7eed7.jpg""]","",""
"","6167","similarity","125","865652","0.0-6.0-119.0","4","[""img/0901/0f670aef-ac36-496d-8142-ee5fdb21dd82.jpg"",""img/0904/73920552-103b-4c9c-9ece-e0b8376b4504.jpg""]","",""
"","3736","similarity","126","870392","0.0-6.0-120.0","3","[""img/0860/18dfed73-e36b-4487-a8bd-0b8cff8e3668.jpg"",""img/0881/445edb15-bd7f-4af3-8bd5-c6ad9677bb31.jpg""]","",""
"","6564","similarity","127","877961","0.0-6.0-121.0","5","[""img/0758/2fa3e613-e676-4e6e-bd12-705327eeb3e1.jpg"",""img/0874/7e4f2150-3b59-4a36-b5da-a4e0ba410531.jpg""]","",""
"","4896","similarity","128","883860","0.0-6.0-122.0","3","[""img/0901/233a6948-48eb-4b67-8259-222b916b2322.jpg"",""img/0769/76eaa4a3-dfe9-4dc1-9efb-caebe86264e1.jpg""]","",""
"","6002","similarity","129","890866","0.0-6.0-123.0","3","[""img/0902/af45fe42-178c-4c1a-99ef-256e87e3b092.jpg"",""img/0904/96e503ea-6630-4996-85f2-0237688ce441.jpg""]","",""
"","4736","similarity","130","896608","0.0-6.0-124.0","3","[""img/0899/0433d056-aa30-4f8a-9aa1-abbb951e4edd.jpg"",""img/0864/65210d57-1153-4657-886a-32e758f49b4a.jpg""]","",""
"","4352","similarity","131","901963","0.0-6.0-125.0","3","[""img/0766/75c3d627-4f3b-40d5-9d9c-10c8a62db644.jpg"",""img/0868/179a5502-ab5c-478e-8263-5a1fbcc101d2.jpg""]","",""
"","5188","similarity","132","908155","0.0-6.0-126.0","2","[""img/0764/4952d0a0-c9be-471a-8ec7-94a37bf4051d.jpg"",""img/0864/c22faebd-9c53-47bc-ada3-b9a30c688e75.jpg""]","",""
"","4616","similarity","133","913774","0.0-6.0-127.0","2","[""img/0899/7b7380d5-d2be-44e5-a09a-c1756f87ef71.jpg"",""img/0866/a15b02be-11bb-43e3-b0e0-ecc3bd7dfc49.jpg""]","",""
"","4353","similarity","134","919131","0.0-6.0-128.0","2","[""img/0901/b453df0b-4c39-49bb-8ced-6127efffa898.jpg"",""img/0881/f6bd3b96-dc40-4e99-8681-bc3a35cf896d.jpg""]","",""
"","4146","similarity","135","924282","0.0-6.0-129.0","4","[""img/0898/cd3aaa3f-efa9-4ab3-8d6f-a6a9273ddf42.jpg"",""img/0903/aa842abe-6fa3-448a-bf71-88d3ad28663b.jpg""]","",""
"","5583","similarity","136","930870","0.0-6.0-130.0","4","[""img/0894/76c1201f-8524-4865-85e6-dda8cb4ac986.jpg"",""img/0867/2e1a0b58-cdb1-4107-a14e-452530d7b9b0.jpg""]","",""
"","5474","similarity","137","937347","0.0-6.0-131.0","2","[""img/0874/767f289c-9814-4496-803f-745cc8913d1f.jpg"",""img/0903/6f343da5-00d9-4d50-89d1-2ed24cdb8319.jpg""]","",""
"","7767","similarity","138","946119","0.0-6.0-132.0","3","[""img/0899/a048912c-b12c-40e3-90af-46b69b0cc4fe.jpg"",""img/0898/5f699581-3853-4547-856c-12f419ba5af7.jpg""]","",""
"","3785","similarity","139","950908","0.0-6.0-133.0","2","[""img/0867/50a1b60e-3a29-44bf-b606-d4bd3746fea9.jpg"",""img/0764/b8e23f4f-ff19-4472-ad9b-2f85548ebca0.jpg""]","",""
"","4535","similarity","140","956449","0.0-6.0-134.0","3","[""img/0866/11a1d141-be5e-443c-98c1-a9d4d9e3dec0.jpg"",""img/0769/47700831-0ca2-4fdd-a498-a3bc5a528f43.jpg""]","",""
"","4349","similarity","141","961802","0.0-6.0-135.0","3","[""img/0860/d9a0d117-6d1d-41c0-8fec-9aff0fd9e9f2.jpg"",""img/0898/68476bbb-34a1-42d9-8bc1-deab783d4489.jpg""]","",""
"","4636","similarity","142","967442","0.0-6.0-136.0","3","[""img/0881/667e2147-d457-4f32-aa5f-6ab86e5848f1.jpg"",""img/0903/4cbdc464-e562-4ec2-9bb6-15f894fdf528.jpg""]","",""
"","4761","similarity","143","973207","0.0-6.0-137.0","3","[""img/0894/e5edf723-72a5-4673-8441-6c1734a8929b.jpg"",""img/0766/214866ee-423d-4629-9bb9-41572bdc7dac.jpg""]","",""
"","5569","similarity","144","979781","0.0-6.0-138.0","3","[""img/0860/5383b320-1518-4095-a58e-5cc1ae30b64c.jpg"",""img/0764/5c8fbafc-e62e-43ed-9b37-f73e8e45147d.jpg""]","",""
"","5429","similarity","145","986215","0.0-6.0-139.0","5","[""img/0769/db94b61b-a5a7-4861-9d32-7b02ad194fb0.jpg"",""img/0902/eb3e7e71-8ff1-4b88-a6a7-47e2c1ce1683.jpg""]","",""
"","5915","similarity","146","993134","0.0-6.0-140.0","5","[""img/0904/06dacdc5-2206-4fb8-92b7-88042d22833c.jpg"",""img/0903/97a42b34-5462-4665-88c7-83c014b33d24.jpg""]","",""
"","4867","similarity","147","999006","0.0-6.0-141.0","5","[""img/0764/c643e165-df19-459f-8c2b-8357bf432a17.jpg"",""img/0769/9ea9ceb6-049e-4ad9-be8f-00645cd35803.jpg""]","",""
"","4737","similarity","148","1004746","0.0-6.0-142.0","4","[""img/0902/b56db912-c3c0-4fc2-b325-d640acd7cb58.jpg"",""img/0881/7e822106-76f7-4b10-a805-14dc68b2cfaf.jpg""]","",""
"","4303","similarity","149","1010053","0.0-6.0-143.0","3","[""img/0866/be24ab58-230e-4db8-9f45-ff04c9aec6bb.jpg"",""img/0864/9b2490c5-a282-400a-9736-e1a0ecbf1cb7.jpg""]","",""
"","4828","similarity","150","1015887","0.0-6.0-144.0","5","[""img/0902/a323b62d-2fd5-4ac8-acc6-35b768f3c3f2.jpg"",""img/0898/993d8f2d-bef7-4251-a193-0f93a32b7763.jpg""]","",""
"","6236","similarity","151","1023126","0.0-6.0-145.0","4","[""img/0862/57b6f83f-c763-4858-830d-102f97bfefbf.jpg"",""img/0864/3d4de670-b290-4285-9c3d-12a0e3af44e9.jpg""]","",""
"","5820","similarity","152","1029951","0.0-6.0-146.0","3","[""img/0875/527ced51-8e53-4aab-ab05-86df219104c0.jpg"",""img/0898/79233891-305a-4a6a-8ddf-5c8604858203.jpg""]","",""
"","5257","similarity","153","1036211","0.0-6.0-147.0","4","[""img/0874/adf9a8f1-c40b-402b-b95b-1e85a54a7b62.jpg"",""img/0881/dea58fad-b4f1-41d9-bd3f-916eff19a3fd.jpg""]","",""
"","4464","similarity","154","1041679","0.0-6.0-148.0","3","[""img/0758/f61ecdf8-a7d4-4db0-b84d-be46f7cfaffc.jpg"",""img/0894/3664e04c-c6d3-4c9b-afb6-25d89974b174.jpg""]","",""
"","5897","similarity","155","1048581","0.0-6.0-149.0","3","[""img/0904/da170c1b-9651-4f08-b231-2bdd1d9a046f.jpg"",""img/0864/1d15626a-2f7c-410f-819c-0fa2c967e95e.jpg""]","",""
"","6116","similarity","156","1055702","0.0-6.0-150.0","5","[""img/0769/662ab839-88d1-4ebf-af05-9b2980cad943.jpg"",""img/0899/7f9d45d0-b2c6-40d3-aa41-c207db2c411b.jpg""]","",""
"","4968","similarity","157","1069658","0.0-6.0-151.0","5","[""img/0764/c0b03adb-bd0a-4b96-a915-a827c2fd5211.jpg"",""img/0903/6138142e-c84e-45fc-9487-c974f3d4968a.jpg""]","",""
"","6086","similarity","158","1076750","0.0-6.0-152.0","3","[""img/0903/8c358e9e-a4f4-466e-8b93-7aec0d2358e8.jpg"",""img/0864/a248adb3-c70b-4652-b7a3-776d2a1e904b.jpg""]","",""
"","5148","similarity","159","1082903","0.0-6.0-153.0","4","[""img/0894/5ff3c4f6-52e2-4075-8679-be0312e59703.jpg"",""img/0881/62a64f90-7a72-4aee-a1a1-0c548ac9bdda.jpg""]","",""
"","4703","similarity","160","1088610","0.0-6.0-154.0","5","[""img/0875/5a716432-c6ca-4b1c-955a-2b8ac25198ee.jpg"",""img/0867/6e19c858-b606-45b2-a4c6-910a73f1d82c.jpg""]","",""
"","6292","similarity","161","1095906","0.0-6.0-155.0","4","[""img/0867/bf560d4f-dee3-4f11-a385-705cc1aa5f3c.jpg"",""img/0758/335851a0-a55b-46d8-ab05-8463eda48349.jpg""]","",""
"","5200","similarity","162","1102109","0.0-6.0-156.0","2","[""img/0868/09a9ef4d-d000-4cfa-a6aa-ebec7c2edeb4.jpg"",""img/0901/77087ed2-6e12-4329-b2a5-605bca6d972d.jpg""]","",""
"","5552","similarity","163","1108666","0.0-6.0-157.0","2","[""img/0769/48a1144d-fbda-4809-991b-fc8424a32ee4.jpg"",""img/0894/151063aa-6472-4745-837b-36603aba5966.jpg""]","",""
"","5167","similarity","164","1114837","0.0-6.0-158.0","2","[""img/0904/6291eb43-c10c-4810-a36a-101d09868b04.jpg"",""img/0758/d57c2592-a317-4f63-91be-91a3a9afd222.jpg""]","",""
"","5777","similarity","165","1121618","0.0-6.0-159.0","2","[""img/0874/eba003b4-cdab-4eee-8bc3-f064c7d94165.jpg"",""img/0904/2c98dc56-88d1-4fb5-a999-b6a7861f65f0.jpg""]","",""
"","4082","similarity","166","1126704","0.0-6.0-160.0","2","[""img/0864/87c467d3-abca-482f-ad80-3766c21b1bb3.jpg"",""img/0901/148b747a-7392-437e-8823-33053c5dff3f.jpg""]","",""
"","3991","similarity","167","1131701","0.0-6.0-161.0","2","[""img/0898/82231d4c-218b-4d0a-b50d-35a49b524e97.jpg"",""img/0866/07c9c966-3c8d-40e7-8128-92b2acbaed5d.jpg""]","",""
"","4584","similarity","168","1137290","0.0-6.0-162.0","4","[""img/0766/5d1b8041-c5a1-4b02-b4fe-3453d98a0d72.jpg"",""img/0903/6378ee1e-3d2b-48d2-87be-bebda32c8268.jpg""]","",""
"","4954","similarity","169","1143248","0.0-6.0-163.0","2","[""img/0860/71e1aad0-2cdf-43bb-94a4-a8c016997c30.jpg"",""img/0899/f58b8d2f-b19d-4b59-8b94-8834be92e4ba.jpg""]","",""
"","3989","similarity","170","1148242","0.0-6.0-164.0","2","[""img/0766/a1ed3f0f-e338-4a26-8fe4-4370f0c9fa6e.jpg"",""img/0862/47ed5efd-4ec9-4b74-bb4e-a5f5cf0c3e7d.jpg""]","",""
"","5897","similarity","171","1155143","0.0-6.0-165.0","3","[""img/0898/661621d4-a14e-487c-8c74-354134a29710.jpg"",""img/0894/1b3888e6-cf36-4c4a-a039-187aa5cb71ac.jpg""]","",""
"","5502","similarity","172","1161649","0.0-6.0-166.0","2","[""img/0867/f26f6b60-f772-4f4c-95a4-addc62cfd692.jpg"",""img/0766/1865bfc9-2410-4765-a804-3ae4ba2393d0.jpg""]","",""
"","5369","similarity","173","1168022","0.0-6.0-167.0","2","[""img/0904/09934646-45d2-4147-8fec-64a22a5ac822.jpg"",""img/0862/e697469a-ec19-4414-b972-7b9f3564785b.jpg""]","",""
"","4752","similarity","174","1173778","0.0-6.0-168.0","2","[""img/0866/f756f7d1-9ad8-4a34-9ef6-7a443d705bfe.jpg"",""img/0874/3ce41e7c-40c8-4d58-a546-171114521796.jpg""]","",""
"","4515","similarity","175","1179296","0.0-6.0-169.0","3","[""img/0903/5ea5bbe0-f238-4724-abe7-9ed8dee8c0ba.jpg"",""img/0868/d6d1f30d-4323-435a-b194-7892521bc57e.jpg""]","",""
"","5273","similarity","176","1185574","0.0-6.0-170.0","4","[""img/0769/6c0bac4c-5f59-43c7-898c-3ca93cf55cfe.jpg"",""img/0904/24fc38fe-842c-4831-ad8a-b1de5c25c0a8.jpg""]","",""
"","6605","similarity","177","1193182","0.0-6.0-171.0","3","[""img/0875/03c3c331-738b-4446-af92-3d7386b08c2e.jpg"",""img/0764/d7f3ac54-318a-4dac-a06b-62bed34d01a4.jpg""]","",""
"","3806","similarity","178","1197992","0.0-6.0-172.0","3","[""img/0860/94ef7afc-e0e6-4a15-98c6-0bfac82bc832.jpg"",""img/0903/8635cf25-2648-4fe9-8c42-79d2598e999c.jpg""]","",""
"","5320","similarity","179","1204316","0.0-6.0-173.0","2","[""img/0864/b3c4e378-28f0-4699-9338-2a257b4bca04.jpg"",""img/0867/5e07b34d-b40f-4b1c-ac10-49975bace45f.jpg""]","",""
"","3927","similarity","180","1209247","0.0-6.0-174.0","2","[""img/0868/77091fc7-a590-4ebb-b915-fdb2483a2399.jpg"",""img/0864/300bb811-8b3c-4c42-8653-6097c3725197.jpg""]","",""
"","6096","similarity","181","1216348","0.0-6.0-175.0","3","[""img/0898/81b08535-2020-4c15-9ce4-2f1e460755ae.jpg"",""img/0769/11518cb3-13ea-4dd0-890c-30cfab728ade.jpg""]","",""
"","4526","similarity","182","1221879","0.0-6.0-176.0","3","[""img/0766/db750ba0-ce04-46e1-b601-e1b80212bad2.jpg"",""img/0764/0e7ed062-f798-4366-8a24-6f430926f919.jpg""]","",""
"","5483","similarity","183","1228365","0.0-6.0-177.0","2","[""img/0764/1def7b22-b054-4ec2-860b-73d25691823b.jpg"",""img/0866/620cd1aa-0800-4414-8f6e-90342e7a99ad.jpg""]","",""
"","4191","similarity","184","1233560","0.0-6.0-178.0","2","[""img/0902/c9c74d2d-9b82-42d7-a9d0-3b8ff67ff81e.jpg"",""img/0875/dbdd643e-6d0e-4a5c-ab57-b9c29b9c981a.jpg""]","",""
"","5786","similarity","185","1240352","0.0-6.0-179.0","2","[""img/0881/5fe04dd0-5c74-47b7-99c8-b068db9ca26a.jpg"",""img/0904/b7c2a2c8-df33-4473-b3d4-ff7147c60db3.jpg""]","",""
"","4380","similarity","186","1245736","0.0-6.0-180.0","2","[""img/0874/1016b306-087c-4afc-aa08-fa527b28dc76.jpg"",""img/0860/f44ba3fb-03a2-42f0-8509-2c1ded493086.jpg""]","",""
"","5279","similarity","187","1252020","0.0-6.0-181.0","2","[""img/0769/387a9744-d6a7-42b8-bab8-33007ec434aa.jpg"",""img/0874/85eb9b8a-c4c6-4e5a-b8e7-363a87a82054.jpg""]","",""
"","3908","similarity","188","1256932","0.0-6.0-182.0","3","[""img/0904/d23dd7be-7fe8-4435-82f7-bd592c01e6a1.jpg"",""img/0766/1bc0dccc-a5b5-4375-87fa-28360ca42b12.jpg""]","",""
"","5289","similarity","189","1263225","0.0-6.0-183.0","4","[""img/0902/6730b12a-f0a7-4587-8c10-a32fae16565b.jpg"",""img/0764/cbdc4f20-3a9a-4211-9b40-090699e0abcc.jpg""]","",""
"","4126","similarity","190","1268354","0.0-6.0-184.0","2","[""img/0769/91acb237-65a3-4d0b-9748-af5c7b83d3c7.jpg"",""img/0875/8521fd58-3b1e-4dc5-97ae-804edfa6734a.jpg""]","",""
"","5053","similarity","191","1274411","0.0-6.0-185.0","2","[""img/0867/f8159067-056c-41f1-a136-c529fe5e970a.jpg"",""img/0903/2a9c8033-3e70-47fa-816d-97ee1813a3a3.jpg""]","",""
"","4335","similarity","192","1279750","0.0-6.0-186.0","2","[""img/0862/eefa5588-9efd-4591-aa5f-a2e17c7d7bcc.jpg"",""img/0769/e8ed913b-8a88-44f6-9327-d34afec3116b.jpg""]","",""
"","5587","similarity","193","1286341","0.0-6.0-187.0","2","[""img/0766/79767d11-b612-4e8a-9e4b-a8ac95bb6a54.jpg"",""img/0866/d493a2c8-66eb-44b4-be02-2f327b700b7c.jpg""]","",""
"","3453","similarity","194","1290799","0.0-6.0-188.0","2","[""img/0769/8598a429-c671-4d2f-842c-32f681f5e412.jpg"",""img/0860/702bd09d-df3a-40aa-a267-5f04474305b5.jpg""]","",""
"","5346","similarity","195","1303329","0.0-6.0-189.0","3","[""img/0881/d373cb9f-a719-4549-a2a4-82def79fb2a5.jpg"",""img/0868/3a62db2d-97e9-44a3-b8e3-a48c6f0e423b.jpg""]","",""
"[{""page_index"":0,""viewing_time"":11575}]","11575","instructions","196","1315906","0.0-7.0","","","",""
"","53857","image-multi-choice","197","1370778","0.0-8.0-0.0","","","{""Q0"":""Orange-crowned Warbler""}","Nashville Warbler"
"","13721","image-multi-choice","198","1385511","0.0-8.0-1.0","","","{""Q0"":""Black-and-white Warbler""}","Black-and-white Warbler"
"","29673","image-multi-choice","199","1416193","0.0-8.0-2.0","","","{""Q0"":""Blackburnian Warbler""}","Townsend's Warbler"
"","115166","image-multi-choice","200","1532370","0.0-8.0-3.0","","","{""Q0"":""Lark Sparrow""}","Lark Sparrow"
"","11321","image-multi-choice","201","1544703","0.0-8.0-4.0","","","{""Q0"":""Yellow Warbler""}","Yellow Warbler"
"","126044","image-multi-choice","202","1671757","0.0-8.0-5.0","","","{""Q0"":""Nashville Warbler""}","Orange-crowned Warbler"
"","9140","image-multi-choice","203","1681909","0.0-8.0-6.0","","","{""Q0"":""White-throated Sparrow""}","White-throated Sparrow"
"","18304","image-multi-choice","204","1701222","0.0-8.0-7.0","","","{""Q0"":""Song Sparrow""}","Fox Sparrow"
"","27777","image-multi-choice","205","1730008","0.0-8.0-8.0","","","{""Q0"":""Song Sparrow""}","Song Sparrow"
"","57872","image-multi-choice","206","1788890","0.0-8.0-9.0","","","{""Q0"":""Blackburnian Warbler""}","Blackburnian Warbler"
"","78193","image-multi-choice","207","1868094","0.0-8.0-10.0","","","{""Q0"":""Swamp Sparrow""}","Vesper Sparrow"
"","8450","image-multi-choice","208","1877554","0.0-8.0-11.0","","","{""Q0"":""White-crowned Sparrow""}","White-crowned Sparrow"
"","30099","image-multi-choice","209","1908663","0.0-8.0-12.0","","","{""Q0"":""American Tree Sparrow""}","American Tree Sparrow"
"","45669","image-multi-choice","210","1955341","0.0-8.0-13.0","","","{""Q0"":""Tennessee Warbler""}","Tennessee Warbler"
"","75739","image-multi-choice","211","2032090","0.0-8.0-14.0","","","{""Q0"":""Magnolia Warbler""}","Magnolia Warbler"
"","15401","image-multi-choice","212","2048503","0.0-8.0-15.0","","","{""Q0"":""Northern Waterthrush""}","Northern Waterthrush"
"","131624","image-multi-choice","213","2181136","0.0-8.0-16.0","","","{""Q0"":""Swamp Sparrow""}","Chipping Sparrow"
"","100023","image-multi-choice","214","2282171","0.0-8.0-17.0","","","{""Q0"":""Swamp Sparrow""}","Swamp Sparrow"
"","34325","image-multi-choice","215","2317506","0.0-8.0-18.0","","","{""Q0"":""Lincoln's Sparrow""}","Lincoln's Sparrow"
"","33757","image-multi-choice","216","2352273","0.0-8.0-19.0","","","{""Q0"":""Ovenbird""}","Ovenbird"
