"view_history","rt","trial_type","trial_index","time_elapsed","internal_node_id","sim_score","stimulus","responses","answer"
"[{""page_index"":0,""viewing_time"":273408}]","273410","instructions","0","273410","0.0-0.0","","","",""
"","8598","similarity_demo","1","283025","0.0-1.0","7","[""img/bluejay1.jpg"",""img/bluejay2.jpg""]","",""
"[{""page_index"":0,""viewing_time"":29874}]","29875","instructions","2","313901","0.0-2.0","","","",""
"","7922","similarity_demo","3","322837","0.0-3.0","1","[""img/bluejay1.jpg"",""img/cardinal1.jpg""]","",""
"[{""page_index"":0,""viewing_time"":17388}]","17388","instructions","4","341226","0.0-4.0","","","",""
"[{""page_index"":0,""viewing_time"":100983}]","100984","instructions","5","443211","0.0-5.0","","","",""
"","13763","similarity","6","457986","0.0-6.0-0.0","3","[""img/0868/7b212364-ff5f-4e28-9241-7eb6ea00161b.jpg"",""img/0894/b422d5c6-3c5a-49ae-a53e-7e88ac993f49.jpg""]","",""
"","7564","similarity","7","466561","0.0-6.0-1.0","1","[""img/0898/8605a25b-6895-476d-8c13-df7a83f96093.jpg"",""img/0758/53f35650-e455-4b53-8be4-c3c8271c6466.jpg""]","",""
"","12243","similarity","8","479818","0.0-6.0-2.0","6","[""img/0903/8f7f9939-b8e6-433f-93dd-b362496c80a7.jpg"",""img/0894/86201968-6e78-4d68-9b3a-d1692e066210.jpg""]","",""
"","7577","similarity","9","488405","0.0-6.0-3.0","5","[""img/0881/667e2147-d457-4f32-aa5f-6ab86e5848f1.jpg"",""img/0766/535849cc-ff5d-4df9-8f31-0ce94a97d571.jpg""]","",""
"","8563","similarity","10","497980","0.0-6.0-4.0","1","[""img/0864/ea327690-500b-4137-bf91-451b309fe6a5.jpg"",""img/0860/524b2e98-5767-4d53-942c-ebae6925659b.jpg""]","",""
"","8592","similarity","11","507604","0.0-6.0-5.0","5","[""img/0902/1a120fb9-dbd6-443e-ba91-b4aceab963da.jpg"",""img/0899/a048912c-b12c-40e3-90af-46b69b0cc4fe.jpg""]","",""
"","17421","similarity","12","526036","0.0-6.0-6.0","3","[""img/0868/c8ac40c7-6904-4e13-8d61-c75d3052dc4e.jpg"",""img/0769/47700831-0ca2-4fdd-a498-a3bc5a528f43.jpg""]","",""
"","6651","similarity","13","533699","0.0-6.0-7.0","1","[""img/0764/06ea144f-f4f3-4a14-ba47-f20f35c561e0.jpg"",""img/0901/168eb52c-c415-43f1-b5c8-e76e1a1ec247.jpg""]","",""
"","8544","similarity","14","543252","0.0-6.0-8.0","2","[""img/0881/48ed65a5-471f-41af-86ec-3793805c116d.jpg"",""img/0866/d493a2c8-66eb-44b4-be02-2f327b700b7c.jpg""]","",""
"","7622","similarity","15","551890","0.0-6.0-9.0","1","[""img/0867/12264664-1860-46df-8c21-162b9817cdda.jpg"",""img/0899/ddf96ade-692e-4602-bd22-dedbb46401bc.jpg""]","",""
"","12305","similarity","16","565209","0.0-6.0-10.0","1","[""img/0875/cff79b3a-a797-4393-9757-6275f999ec04.jpg"",""img/0766/110832e5-2646-4bd0-a94e-5df8cc314269.jpg""]","",""
"","9259","similarity","17","575483","0.0-6.0-11.0","2","[""img/0901/c6c877e0-dd63-4e00-9657-33af29d55aab.jpg"",""img/0875/2e13d160-eea1-416b-aff1-d37ab99ecc1d.jpg""]","",""
"","7140","similarity","18","583631","0.0-6.0-12.0","2","[""img/0902/40d0b6ec-3907-4573-b227-e7d8e9cad1c3.jpg"",""img/0860/e8b8c51e-1834-4875-8b61-6c5bc9b178bd.jpg""]","",""
"","7499","similarity","19","592140","0.0-6.0-13.0","1","[""img/0874/1016b306-087c-4afc-aa08-fa527b28dc76.jpg"",""img/0867/8ba0c5a7-c7e4-42cf-a80a-543763b90779.jpg""]","",""
"","9798","similarity","20","602944","0.0-6.0-14.0","3","[""img/0904/a8c3c7d2-9bcf-4347-9e03-8203adfc1fc5.jpg"",""img/0866/6f2a90d7-14f1-4f1b-bd64-fc0af6b9fe44.jpg""]","",""
"","11444","similarity","21","615398","0.0-6.0-15.0","3","[""img/0758/7ee8bc8f-c40b-4b3a-84ec-3e83580622d4.jpg"",""img/0902/10d99c89-71f7-4c81-a31e-dfc7c59f5232.jpg""]","",""
"","5952","similarity","22","622362","0.0-6.0-16.0","3","[""img/0867/98d8cd96-1476-4fe0-a3a3-04f875500a1b.jpg"",""img/0898/0c7dde4f-efce-4b7a-9387-6921635b7890.jpg""]","",""
"","9510","similarity","23","632884","0.0-6.0-17.0","2","[""img/0904/5cceabc9-de1d-4c67-989b-c28a4ef77e79.jpg"",""img/0868/0d3abd3a-b6c3-4584-a9f7-e2da63748b3d.jpg""]","",""
"","6058","similarity","24","639954","0.0-6.0-18.0","3","[""img/0766/51d3aab4-3d09-4dda-b99d-3dc7aaabc6f2.jpg"",""img/0864/c22faebd-9c53-47bc-ada3-b9a30c688e75.jpg""]","",""
"","17965","similarity","25","658931","0.0-6.0-19.0","6","[""img/0899/56a605c3-d0a2-4215-89e1-779279d85a7c.jpg"",""img/0766/2e1cf445-9aef-40e7-92f4-5facf48b64c5.jpg""]","",""
"","6934","similarity","26","666877","0.0-6.0-20.0","2","[""img/0764/da207710-e7e4-4f42-b2e6-99b5f357f433.jpg"",""img/0758/b76ceca7-95ac-46e4-ac13-da02c8e93be9.jpg""]","",""
"","5228","similarity","27","673115","0.0-6.0-21.0","1","[""img/0901/0adb3bd6-d758-4ba7-9723-3ad6cac05bd5.jpg"",""img/0874/eba003b4-cdab-4eee-8bc3-f064c7d94165.jpg""]","",""
"","11079","similarity","28","685204","0.0-6.0-22.0","2","[""img/0875/8521fd58-3b1e-4dc5-97ae-804edfa6734a.jpg"",""img/0758/d41c06bf-ebaf-454b-91c6-1a17f917b659.jpg""]","",""
"","7585","similarity","29","693802","0.0-6.0-23.0","2","[""img/0867/6e19c858-b606-45b2-a4c6-910a73f1d82c.jpg"",""img/0881/e046471a-35b4-4159-bbf7-3cfd201bef66.jpg""]","",""
"","10395","similarity","30","705205","0.0-6.0-24.0","2","[""img/0758/7fba58df-2a7a-4b76-8a8f-62739f97f271.jpg"",""img/0901/a9b9c0a0-8aed-4888-a78a-65fb7e764d13.jpg""]","",""
"","4986","similarity","31","711202","0.0-6.0-25.0","1","[""img/0868/83b4350a-3b70-4cea-b7f5-b5b56f3050a8.jpg"",""img/0875/2c361b79-c3d1-4eda-812e-bf03192407bf.jpg""]","",""
"","8787","similarity","32","720996","0.0-6.0-26.0","5","[""img/0903/a0673b55-6040-47fe-9040-24bca27ca3c9.jpg"",""img/0901/a373612d-67e2-4fec-9764-21d3d6ef6359.jpg""]","",""
"","12384","similarity","33","734388","0.0-6.0-27.0","7","[""img/0894/38f5931f-926d-414e-b498-66b188978b7a.jpg"",""img/0899/0adc0bc3-6fca-4078-be6f-d45ddf1653d5.jpg""]","",""
"","5727","similarity","34","741125","0.0-6.0-28.0","2","[""img/0862/47ed5efd-4ec9-4b74-bb4e-a5f5cf0c3e7d.jpg"",""img/0867/2e1a0b58-cdb1-4107-a14e-452530d7b9b0.jpg""]","",""
"","6423","similarity","35","748558","0.0-6.0-29.0","2","[""img/0864/da39ad34-04e0-40d4-a724-c08d53e0ea09.jpg"",""img/0875/ebf7653f-ff45-4e9f-af58-2c042ab3cd2b.jpg""]","",""
"","6041","similarity","36","755610","0.0-6.0-30.0","2","[""img/0862/fb26cb07-d5a9-4653-813c-f41609f26cd5.jpg"",""img/0874/3ce41e7c-40c8-4d58-a546-171114521796.jpg""]","",""
"","7944","similarity","37","764564","0.0-6.0-31.0","3","[""img/0903/43ffd882-077a-40dd-a264-e58d519420a1.jpg"",""img/0758/e38fd80d-18d0-42f3-b848-f930788e8bd7.jpg""]","",""
"","5746","similarity","38","771319","0.0-6.0-32.0","2","[""img/0866/945c6710-d15b-4a5b-a8f6-69af0850357f.jpg"",""img/0901/f1116359-1ff1-4638-b3b3-700918d36d18.jpg""]","",""
"","8427","similarity","39","780756","0.0-6.0-33.0","5","[""img/0874/a82926a3-0b43-4add-803c-d5f9ea7798ee.jpg"",""img/0899/93494f3b-d539-4075-b027-d82e344563da.jpg""]","",""
"","6750","similarity","40","788515","0.0-6.0-34.0","5","[""img/0903/12bd8657-92e6-4c36-a06c-597e7a1d51f3.jpg"",""img/0902/30c420f5-c714-4681-ae5a-c0ba8f636a26.jpg""]","",""
"","17821","similarity","41","807349","0.0-6.0-35.0","3","[""img/0758/6e95579b-5166-487c-b8cb-e417c6a218e3.jpg"",""img/0866/620cd1aa-0800-4414-8f6e-90342e7a99ad.jpg""]","",""
"","8537","similarity","42","816896","0.0-6.0-36.0","5","[""img/0875/fb732ab5-013a-4366-9f65-27811ed157e9.jpg"",""img/0903/0a92ec52-4e87-410a-857a-4455cde56a70.jpg""]","",""
"","10136","similarity","43","847214","0.0-6.0-37.0","5","[""img/0864/0f537697-a314-47c3-a8cc-8df23b7e536c.jpg"",""img/0902/3f0eeac5-c996-4026-a376-563ce8f28521.jpg""]","",""
"","7275","similarity","44","855502","0.0-6.0-38.0","2","[""img/0901/58978a6d-a3e2-4c59-8d62-f60693ecc0f6.jpg"",""img/0867/7d1c497b-c1b3-4ed8-abb5-d7f73306015f.jpg""]","",""
"","6411","similarity","45","862923","0.0-6.0-39.0","6","[""img/0862/92fcd8a4-8193-4a6a-ae09-dd4a6338b0df.jpg"",""img/0860/4a022222-056d-461c-ab02-39fac9647552.jpg""]","",""
"","8330","similarity","46","872265","0.0-6.0-40.0","7","[""img/0867/50a1b60e-3a29-44bf-b606-d4bd3746fea9.jpg"",""img/0868/15dd6fd7-791e-4b53-b203-195d617521a4.jpg""]","",""
"","6751","similarity","47","880028","0.0-6.0-41.0","7","[""img/0904/06dacdc5-2206-4fb8-92b7-88042d22833c.jpg"",""img/0899/f95cbdb4-f804-4f5d-ad76-373ad343e658.jpg""]","",""
"","5813","similarity","48","886854","0.0-6.0-42.0","1","[""img/0862/eefa5588-9efd-4591-aa5f-a2e17c7d7bcc.jpg"",""img/0894/2217bdcd-23a7-42d3-823b-23f2488d7e87.jpg""]","",""
"","7863","similarity","49","895724","0.0-6.0-43.0","3","[""img/0875/3ecb367d-e9eb-4826-8aaa-7aa72fb98019.jpg"",""img/0904/b7c2a2c8-df33-4473-b3d4-ff7147c60db3.jpg""]","",""
"","5244","similarity","50","901980","0.0-6.0-44.0","1","[""img/0874/ca76a855-4e77-4f2f-872a-0a718153e7ed.jpg"",""img/0898/881e2a85-d5c2-49be-a0c6-8a6ce2c4af08.jpg""]","",""
"","8620","similarity","51","911611","0.0-6.0-45.0","3","[""img/0898/ec565187-2e31-4fdd-9a5c-153d0c789ae0.jpg"",""img/0868/8b0b8473-e2c0-4331-aa56-c3a5c29369da.jpg""]","",""
"","5078","similarity","52","917701","0.0-6.0-46.0","7","[""img/0901/a6c90438-fa7c-4418-ac7c-16c2e772dd98.jpg"",""img/0860/71e1aad0-2cdf-43bb-94a4-a8c016997c30.jpg""]","",""
"","6103","similarity","53","924815","0.0-6.0-47.0","5","[""img/0894/38cf335f-f76f-4349-8d65-e20cd6859565.jpg"",""img/0902/01b41522-de46-4c3a-b0af-a61b2682b40e.jpg""]","",""
"","7044","similarity","54","932869","0.0-6.0-48.0","5","[""img/0764/5d6fa3ce-9083-410c-bbdb-336a49b94cfc.jpg"",""img/0862/5d887e9f-89e2-4ebc-80a0-6d46fe6480db.jpg""]","",""
"","11364","similarity","55","945243","0.0-6.0-49.0","5","[""img/0881/54ea8e77-c7e5-4197-b7fa-00b7020849a7.jpg"",""img/0758/2fa3e613-e676-4e6e-bd12-705327eeb3e1.jpg""]","",""
"","6524","similarity","56","952778","0.0-6.0-50.0","6","[""img/0766/60033a74-9919-47e5-913c-71d0d483e7e5.jpg"",""img/0769/8598a429-c671-4d2f-842c-32f681f5e412.jpg""]","",""
"","13674","similarity","57","967461","0.0-6.0-51.0","5","[""img/0875/42910c99-5463-450a-a0f8-d4d060a11455.jpg"",""img/0866/a04d37f0-99dd-478a-b6c6-58b215138f84.jpg""]","",""
"","6509","similarity","58","974979","0.0-6.0-52.0","6","[""img/0894/a3d4170b-b7d8-40e3-955f-87e76ed745fc.jpg"",""img/0904/6291eb43-c10c-4810-a36a-101d09868b04.jpg""]","",""
"","12793","similarity","59","988784","0.0-6.0-53.0","3","[""img/0758/caa93da2-9edf-49fa-96b9-32dedd8f5078.jpg"",""img/0769/878531fd-e0e8-4ad1-b9ad-f018bb104ca0.jpg""]","",""
"","6802","similarity","60","996595","0.0-6.0-54.0","5","[""img/0902/a6fb6dd5-696c-47ec-be7d-d7b88f1544f1.jpg"",""img/0874/ca23d307-fc00-4d7d-9106-584c6eb21b4d.jpg""]","",""
"","14595","similarity","61","1012205","0.0-6.0-55.0","2","[""img/0903/9b60ef5b-234f-4239-892b-3d4c412accc2.jpg"",""img/0862/57b6f83f-c763-4858-830d-102f97bfefbf.jpg""]","",""
"","6773","similarity","62","1019986","0.0-6.0-56.0","2","[""img/0866/11a1d141-be5e-443c-98c1-a9d4d9e3dec0.jpg"",""img/0894/4739e06d-c31e-4bf1-bf91-c97fa9afb456.jpg""]","",""
"","6132","similarity","63","1027129","0.0-6.0-57.0","2","[""img/0867/f8159067-056c-41f1-a136-c529fe5e970a.jpg"",""img/0904/fe746a3f-8458-48d0-8a13-8cba2a9df9f8.jpg""]","",""
"","8957","similarity","64","1037093","0.0-6.0-58.0","2","[""img/0875/527ced51-8e53-4aab-ab05-86df219104c0.jpg"",""img/0881/c843e210-bdfe-4a7c-8bbe-fcea1f90fe1c.jpg""]","",""
"","8563","similarity","65","1046667","0.0-6.0-59.0","5","[""img/0866/4a87911a-d5be-4d4e-ab8e-3d1f581bf507.jpg"",""img/0860/8fdba999-b946-4c7d-9891-336018b563ef.jpg""]","",""
"","11349","similarity","66","1059028","0.0-6.0-60.0","3","[""img/0903/5995f4a8-fa82-46f8-8760-fd7800a5ca34.jpg"",""img/0866/02f5e6b9-52b7-448c-9708-5b460d0c9a23.jpg""]","",""
"","6723","similarity","67","1066758","0.0-6.0-61.0","1","[""img/0860/61fb959d-d4d9-4de4-9e4e-4fa62b4cfcd5.jpg"",""img/0875/90da8d75-108a-44ad-b999-e21fee3860d3.jpg""]","",""
"","7748","similarity","68","1075519","0.0-6.0-62.0","3","[""img/0898/01bfe666-3510-4fc7-964f-d00d28732dc8.jpg"",""img/0862/d0ca4c78-fc35-46ed-bdcc-8e124283c53e.jpg""]","",""
"","5737","similarity","69","1082268","0.0-6.0-63.0","6","[""img/0902/27b84584-948a-485b-8749-cb09929ef631.jpg"",""img/0766/a1ed3f0f-e338-4a26-8fe4-4370f0c9fa6e.jpg""]","",""
"","5236","similarity","70","1088514","0.0-6.0-64.0","5","[""img/0758/6cd8c362-ae2a-41eb-80a3-3a4f7ace1530.jpg"",""img/0864/1d15626a-2f7c-410f-819c-0fa2c967e95e.jpg""]","",""
"","11582","similarity","71","1101107","0.0-6.0-65.0","1","[""img/0894/05161000-f476-499b-a878-c13c7f347fd9.jpg"",""img/0860/4c530c3c-6aab-492a-94d1-9c01797bde40.jpg""]","",""
"","6012","similarity","72","1108130","0.0-6.0-66.0","1","[""img/0899/66ab3178-c3fe-4455-ad17-d5952b08e018.jpg"",""img/0868/4a8a45ed-2c4f-421b-9564-409a33ecd26c.jpg""]","",""
"","5622","similarity","73","1114761","0.0-6.0-67.0","2","[""img/0866/0207e9a2-7dbb-40b5-9459-b472aaeceb2a.jpg"",""img/0862/cdaed51d-9e2f-4807-801a-4663c40077e2.jpg""]","",""
"","6017","similarity","74","1121787","0.0-6.0-68.0","2","[""img/0860/c47fdead-eb02-4989-b078-26f4852f44fe.jpg"",""img/0758/e1ba5e53-addc-436a-b428-d34fc1b130dc.jpg""]","",""
"","8136","similarity","75","1130934","0.0-6.0-69.0","2","[""img/0902/d2c34af0-8c50-437d-8cc3-619195a3e8ba.jpg"",""img/0867/075e0f95-856b-4cbb-acf5-092393aaf04e.jpg""]","",""
"","6395","similarity","76","1138339","0.0-6.0-70.0","7","[""img/0862/99a99e39-8355-44ec-b993-e7bcec111e1c.jpg"",""img/0901/04a53755-6da5-44d4-a7a6-48a6bc0a2280.jpg""]","",""
"","6502","similarity","77","1145851","0.0-6.0-71.0","7","[""img/0867/26611f4e-d694-4460-b7e2-43c62753ddc3.jpg"",""img/0866/8efcaa46-83ab-4dee-a35f-850402aa21ae.jpg""]","",""
"","6832","similarity","78","1153694","0.0-6.0-72.0","4","[""img/0860/18dfed73-e36b-4487-a8bd-0b8cff8e3668.jpg"",""img/0904/25365108-e038-4021-aac9-797f2063b337.jpg""]","",""
"","9737","similarity","79","1164440","0.0-6.0-73.0","2","[""img/0875/5a716432-c6ca-4b1c-955a-2b8ac25198ee.jpg"",""img/0899/00715b3f-851b-420b-a26b-d7f79f7759a9.jpg""]","",""
"","17660","similarity","80","1183110","0.0-6.0-74.0","5","[""img/0899/66bf4113-ee12-426c-84d2-ea410b6c803e.jpg"",""img/0758/dd559618-7f09-4a07-8018-d311c4a5ea29.jpg""]","",""
"","22157","similarity","81","1217185","0.0-6.0-75.0","2","[""img/0862/f23038d4-c366-4f70-979f-66b62362efa4.jpg"",""img/0875/e7e66b13-b573-431e-b85e-288ce04a35a3.jpg""]","",""
"","8190","similarity","82","1226385","0.0-6.0-76.0","1","[""img/0901/d61f267a-c492-4db6-9bfb-61efd49cf072.jpg"",""img/0894/c505c65a-cde2-4f2c-8cde-f8676f7c894d.jpg""]","",""
"","7230","similarity","83","1234626","0.0-6.0-77.0","3","[""img/0766/75c3d627-4f3b-40d5-9d9c-10c8a62db644.jpg"",""img/0758/20497cbe-ddae-489e-86e2-ab06985ed07c.jpg""]","",""
"","8701","similarity","84","1244335","0.0-6.0-78.0","6","[""img/0894/43216a7f-27bc-4b5a-8841-d122a30da9d9.jpg"",""img/0764/ca957454-126a-4bd3-b29c-7174a24c25dc.jpg""]","",""
"","14071","similarity","85","1259417","0.0-6.0-79.0","2","[""img/0860/e14d67c1-6d92-4f1e-9257-c8607159c19c.jpg"",""img/0867/bf560d4f-dee3-4f11-a385-705cc1aa5f3c.jpg""]","",""
"","6646","similarity","86","1267074","0.0-6.0-80.0","6","[""img/0898/224c1572-56b9-4f16-a9e4-6f3bc9c114bd.jpg"",""img/0901/1ede21d9-384f-4150-86b5-e1c57b5dc1d4.jpg""]","",""
"","11791","similarity","87","1279872","0.0-6.0-81.0","3","[""img/0874/bf14b896-e930-4fd9-9c05-2e83317a2773.jpg"",""img/0764/62fafeea-6274-48ce-976f-35d3d3484c65.jpg""]","",""
"","6944","similarity","88","1287826","0.0-6.0-82.0","2","[""img/0899/4f7bc593-8ddd-4da3-a0b9-84da730d3370.jpg"",""img/0862/f43ceabf-acc1-4107-b857-5d1849808f93.jpg""]","",""
"","10973","similarity","89","1299810","0.0-6.0-83.0","3","[""img/0766/fd064894-7147-4af5-97e9-2089d5472656.jpg"",""img/0901/31c032fd-3c3d-4882-a226-da9a80198937.jpg""]","",""
"","6562","similarity","90","1307386","0.0-6.0-84.0","4","[""img/0881/b549bc99-a61c-4450-bab5-9efc3a197bf0.jpg"",""img/0898/0af304a2-6a7a-4082-ab7c-4450cd08cc58.jpg""]","",""
"","8266","similarity","91","1316657","0.0-6.0-85.0","5","[""img/0868/d6d1f30d-4323-435a-b194-7892521bc57e.jpg"",""img/0860/31ff6436-98bf-4652-bed2-40f627229568.jpg""]","",""
"","8512","similarity","92","1326179","0.0-6.0-86.0","5","[""img/0758/335851a0-a55b-46d8-ab05-8463eda48349.jpg"",""img/0868/293079b8-7e0c-4afd-a390-1e5d35fe3ded.jpg""]","",""
"","12408","similarity","93","1339598","0.0-6.0-87.0","3","[""img/0864/4bd81bc6-c13d-46df-95a9-485886dc7c1b.jpg"",""img/0894/7dd6ff43-f8fc-408a-8a41-a2b261871820.jpg""]","",""
"","9191","similarity","94","1349800","0.0-6.0-88.0","2","[""img/0866/23a224f3-2012-4fc8-8e0f-3c36f8de27fd.jpg"",""img/0902/95a36b6b-9601-4fa5-8fd9-606ea62f9425.jpg""]","",""
"","7105","similarity","95","1357909","0.0-6.0-89.0","3","[""img/0769/35364db7-e0d5-40ef-93dc-faf9dfb95136.jpg"",""img/0867/c71dc569-f49c-4397-8381-68b8d726736d.jpg""]","",""
"","8061","similarity","96","1366974","0.0-6.0-90.0","5","[""img/0874/85eb9b8a-c4c6-4e5a-b8e7-363a87a82054.jpg"",""img/0875/a4935837-7d3c-4df6-88c1-36a94d4991ca.jpg""]","",""
"","9467","similarity","97","1377448","0.0-6.0-91.0","6","[""img/0864/9b2490c5-a282-400a-9736-e1a0ecbf1cb7.jpg"",""img/0874/3f471690-9788-4d03-90c7-f615aecef149.jpg""]","",""
"","5628","similarity","98","1384083","0.0-6.0-92.0","1","[""img/0881/62a64f90-7a72-4aee-a1a1-0c548ac9bdda.jpg"",""img/0862/53a9cf7c-93c4-41b9-952f-07d17f7a17b2.jpg""]","",""
"","8667","similarity","99","1393761","0.0-6.0-93.0","6","[""img/0864/1ebbc554-99fa-49f9-8799-317375a79820.jpg"",""img/0881/e6746727-7f89-47ec-b939-d98abe78372d.jpg""]","",""
"","7664","similarity","100","1402434","0.0-6.0-94.0","2","[""img/0899/51a7a498-98c7-42d7-bca8-bc2d8f0b5831.jpg"",""img/0901/a0d65c84-3f20-476a-92d1-0c01e8019cf4.jpg""]","",""
"","11876","similarity","101","1415317","0.0-6.0-95.0","2","[""img/0874/99f6563c-8a8d-4c1c-a41d-667b618c3fd5.jpg"",""img/0766/d5d38751-8fa5-476f-93e9-86ed2d9045ef.jpg""]","",""
"","9634","similarity","102","1425960","0.0-6.0-96.0","6","[""img/0881/2a8413be-fec2-4de6-88ad-614dd4cccc9d.jpg"",""img/0899/76ad07e2-ca25-45eb-84f2-8d80b8ca3e26.jpg""]","",""
"","11396","similarity","103","1438367","0.0-6.0-97.0","2","[""img/0862/92f0146c-20c4-482e-aef5-adb693790338.jpg"",""img/0902/d3e55000-c839-4bf9-9b9b-4af0a9925af1.jpg""]","",""
"","10596","similarity","104","1449974","0.0-6.0-98.0","7","[""img/0899/b45c550b-96c3-4255-ad59-48a2b4db1c1e.jpg"",""img/0764/c80b3e06-2ee3-4326-9678-340607eb5348.jpg""]","",""
"","5589","similarity","105","1456574","0.0-6.0-99.0","4","[""img/0758/61d64021-9214-4951-bdf8-f871f9827cf9.jpg"",""img/0862/e8cc3bdf-cc43-4565-bccf-492626c70953.jpg""]","",""
"","6564","similarity","106","1464144","0.0-6.0-100.0","5","[""img/0764/6fbd1902-fa2a-48d8-bc11-705b8ab68d8f.jpg"",""img/0898/68476bbb-34a1-42d9-8bc1-deab783d4489.jpg""]","",""
"","9802","similarity","107","1474957","0.0-6.0-101.0","5","[""img/0901/233a6948-48eb-4b67-8259-222b916b2322.jpg"",""img/0902/eb3e7e71-8ff1-4b88-a6a7-47e2c1ce1683.jpg""]","",""
"","13543","similarity","108","1489508","0.0-6.0-102.0","2","[""img/0764/6ef77040-1fae-4afa-bfe7-eda98e6d0376.jpg"",""img/0868/6a28c3b0-3d76-498a-9fb7-ddafc665eca8.jpg""]","",""
"","11595","similarity","109","1502110","0.0-6.0-103.0","7","[""img/0769/da36e3f7-2337-434f-ab57-11822dd7eed7.jpg"",""img/0881/609a5e93-38b5-4940-8627-2bf8fad7f802.jpg""]","",""
"","9133","similarity","110","1512263","0.0-6.0-104.0","6","[""img/0864/afcba0a3-7e27-4757-b254-e9f05fad27e2.jpg"",""img/0769/7c50e5f5-cc38-4d48-b009-fbe17bcea61c.jpg""]","",""
"","6971","similarity","111","1520246","0.0-6.0-105.0","6","[""img/0866/9b38d691-1802-4959-ab3f-fc902f0e4ea6.jpg"",""img/0868/4e626425-63c8-484a-8a1d-e66ee4e0bef8.jpg""]","",""
"","7245","similarity","112","1528508","0.0-6.0-106.0","2","[""img/0868/fd307a36-9a3a-47d7-ab7c-f810d0b35040.jpg"",""img/0862/a0a3a7ba-7798-46a3-b4ca-05e1f6e581d0.jpg""]","",""
"","6641","similarity","113","1536156","0.0-6.0-107.0","6","[""img/0766/00891401-e4c9-4ce1-bc19-f70740d174bc.jpg"",""img/0898/f3a3f225-1248-4ac7-b93b-f0ff28485bf3.jpg""]","",""
"","11157","similarity","114","1548321","0.0-6.0-108.0","2","[""img/0898/5f699581-3853-4547-856c-12f419ba5af7.jpg"",""img/0864/b3c4e378-28f0-4699-9338-2a257b4bca04.jpg""]","",""
"","8084","similarity","115","1557413","0.0-6.0-109.0","5","[""img/0868/e0aff734-077f-40dd-9781-74821abd3621.jpg"",""img/0902/b03129ba-b087-4558-af37-e8399d6217d6.jpg""]","",""
"","6906","similarity","116","1565330","0.0-6.0-110.0","7","[""img/0904/0d17b811-063e-416e-a23c-3b3cfa4fcce5.jpg"",""img/0764/29072395-f595-4e3c-83d3-ff87010039fa.jpg""]","",""
"","5951","similarity","117","1572290","0.0-6.0-111.0","5","[""img/0894/7fb082e0-ce79-485c-9109-04367fb32275.jpg"",""img/0875/d59ff733-eaff-4ee2-9443-06954dd0bcb6.jpg""]","",""
"","7631","similarity","118","1580930","0.0-6.0-112.0","2","[""img/0868/77091fc7-a590-4ebb-b915-fdb2483a2399.jpg"",""img/0874/7e4f2150-3b59-4a36-b5da-a4e0ba410531.jpg""]","",""
"","8992","similarity","119","1597155","0.0-6.0-113.0","7","[""img/0904/4b8daf2a-13a9-4ea9-9e0b-b265b6e933e7.jpg"",""img/0898/b3290bf9-215b-4b45-b21a-65bdf73f142f.jpg""]","",""
"","6735","similarity","120","1604900","0.0-6.0-114.0","1","[""img/0860/b03b963d-949b-4d8d-b19c-4950c89eeca2.jpg"",""img/0766/989c5c7f-1aff-4442-ac63-9d46acf4a891.jpg""]","",""
"","10021","similarity","121","1615930","0.0-6.0-115.0","5","[""img/0894/b2d2f66e-e480-46da-a02a-6d0c6b285d78.jpg"",""img/0874/995f0332-0439-4eb4-add3-957335dbf6d9.jpg""]","",""
"","6815","similarity","122","1623752","0.0-6.0-116.0","6","[""img/0899/06b0fc99-0581-461a-9913-d1a5a941ac61.jpg"",""img/0903/39365c8e-a733-4801-ac7d-b87e38c3784b.jpg""]","",""
"","6246","similarity","123","1631008","0.0-6.0-117.0","7","[""img/0881/d373cb9f-a719-4549-a2a4-82def79fb2a5.jpg"",""img/0764/713cc27e-2338-4486-bfe9-5f5725fbd7a0.jpg""]","",""
"","6155","similarity","124","1638173","0.0-6.0-118.0","7","[""img/0903/d987e220-f3e6-4b6d-a270-fe6757041f6d.jpg"",""img/0769/662ab839-88d1-4ebf-af05-9b2980cad943.jpg""]","",""
"","6165","similarity","125","1645344","0.0-6.0-119.0","1","[""img/0901/b453df0b-4c39-49bb-8ced-6127efffa898.jpg"",""img/0904/2f88ce53-02d0-4f95-a082-182c56a0eeb4.jpg""]","",""
"","6631","similarity","126","1652985","0.0-6.0-120.0","2","[""img/0860/99c589b9-9140-4d17-90c0-b344323edcda.jpg"",""img/0881/f037e3b0-09cb-4a83-b2d9-6a71fe474e63.jpg""]","",""
"","7694","similarity","127","1661690","0.0-6.0-121.0","6","[""img/0758/ddc336e9-a8b6-4bb9-937a-c7e25e0e9250.jpg"",""img/0874/8cdb1c07-1c32-46d2-981c-3636560fa6e5.jpg""]","",""
"","6376","similarity","128","1669075","0.0-6.0-122.0","1","[""img/0901/deff6cfb-0072-4490-bc3e-206bbcd3e8bf.jpg"",""img/0769/76eaa4a3-dfe9-4dc1-9efb-caebe86264e1.jpg""]","",""
"","6966","similarity","129","1677052","0.0-6.0-123.0","6","[""img/0902/0db94c50-f1fb-4091-953c-29ca0466bee2.jpg"",""img/0904/2fd488e9-960f-41f7-8a44-33375f7d5051.jpg""]","",""
"","8622","similarity","130","1686682","0.0-6.0-124.0","5","[""img/0899/57476fed-5962-4272-8fc9-b317bb777b54.jpg"",""img/0864/66091c27-e588-4476-8af9-265dc6be4156.jpg""]","",""
"","6035","similarity","131","1693725","0.0-6.0-125.0","2","[""img/0766/e8052e17-9dae-4139-802b-6e590cb2d526.jpg"",""img/0868/09a9ef4d-d000-4cfa-a6aa-ebec7c2edeb4.jpg""]","",""
"","5884","similarity","132","1700619","0.0-6.0-126.0","5","[""img/0764/6c7fe363-2d37-418f-9e5e-a3273af5d4fb.jpg"",""img/0864/300bb811-8b3c-4c42-8653-6097c3725197.jpg""]","",""
"","5806","similarity","133","1707435","0.0-6.0-127.0","1","[""img/0899/0433d056-aa30-4f8a-9aa1-abbb951e4edd.jpg"",""img/0866/c446214b-a368-4c65-ae39-ea46894256ab.jpg""]","",""
"","7804","similarity","134","1716249","0.0-6.0-128.0","2","[""img/0901/33b51a81-06d9-46d9-9d4f-5a2d6d6b8058.jpg"",""img/0881/633c6f40-56d9-4b48-bf1c-ecd83116eabb.jpg""]","",""
"","7146","similarity","135","1724406","0.0-6.0-129.0","7","[""img/0898/81b08535-2020-4c15-9ce4-2f1e460755ae.jpg"",""img/0903/6f343da5-00d9-4d50-89d1-2ed24cdb8319.jpg""]","",""
"","4047","similarity","136","1729461","0.0-6.0-130.0","4","[""img/0894/e6385e52-6c35-43bd-b0af-bc803d107b11.jpg"",""img/0867/c66898ba-b71b-4d50-84f9-f7f84853a98d.jpg""]","",""
"","7443","similarity","137","1737912","0.0-6.0-131.0","5","[""img/0874/31e22c7c-99aa-40b1-bf03-dd73fa2df4d6.jpg"",""img/0903/f45a103c-9bfe-49fd-ad96-bdd8d2589195.jpg""]","",""
"","6355","similarity","138","1745279","0.0-6.0-132.0","7","[""img/0899/7f9d45d0-b2c6-40d3-aa41-c207db2c411b.jpg"",""img/0898/b2732712-71c2-45d8-834f-2b2ed5504910.jpg""]","",""
"","7509","similarity","139","1753797","0.0-6.0-133.0","5","[""img/0867/de92135f-5b65-4ed9-b245-188292c7c2f8.jpg"",""img/0764/fb92924f-5cfe-4b89-b130-0cce8cc5636b.jpg""]","",""
"","9491","similarity","140","1764299","0.0-6.0-134.0","5","[""img/0866/386235d2-6857-41e7-88a8-25cfc3430025.jpg"",""img/0769/f229321f-04dd-42d7-b14a-ffad6b509862.jpg""]","",""
"","6295","similarity","141","1771604","0.0-6.0-135.0","3","[""img/0860/29a21a9f-54bb-4093-ad3f-04823ceaa89f.jpg"",""img/0898/cd3aaa3f-efa9-4ab3-8d6f-a6a9273ddf42.jpg""]","",""
"","11089","similarity","142","1783700","0.0-6.0-136.0","5","[""img/0881/f62bdcd1-a4b7-4d48-83da-d9c9e01c8727.jpg"",""img/0903/5248eedd-7e6a-4d39-91b0-06ec227f3ed0.jpg""]","",""
"","6932","similarity","143","1791641","0.0-6.0-137.0","5","[""img/0894/1a010553-d598-4b06-a772-81f1e7b3addb.jpg"",""img/0766/b84598d0-5b41-4841-88b0-b441b48289f5.jpg""]","",""
"","7090","similarity","144","1799742","0.0-6.0-138.0","1","[""img/0860/702bd09d-df3a-40aa-a267-5f04474305b5.jpg"",""img/0764/cffc80b0-4a90-4acb-a530-6f480f3ca303.jpg""]","",""
"","9507","similarity","145","1810260","0.0-6.0-139.0","5","[""img/0769/965c3c44-d9e5-47c5-b61a-2bbdf4215d9a.jpg"",""img/0902/82d20e8c-2162-47a6-925b-52906558c046.jpg""]","",""
"","6485","similarity","146","1817755","0.0-6.0-140.0","7","[""img/0904/1d10df11-b5c8-4370-9a6b-097a7f965895.jpg"",""img/0903/2a9c8033-3e70-47fa-816d-97ee1813a3a3.jpg""]","",""
"","8875","similarity","147","1827641","0.0-6.0-141.0","7","[""img/0764/d0bef2e0-e16b-4c82-9451-c1d16265eb67.jpg"",""img/0769/c34b7763-8ff2-46d5-9e92-f1d8f3bedbd8.jpg""]","",""
"","11155","similarity","148","1839802","0.0-6.0-142.0","6","[""img/0902/c9c74d2d-9b82-42d7-a9d0-3b8ff67ff81e.jpg"",""img/0881/20af39f5-373d-4a55-a437-2dc4c0382c46.jpg""]","",""
"","8881","similarity","149","1849693","0.0-6.0-143.0","2","[""img/0866/be24ab58-230e-4db8-9f45-ff04c9aec6bb.jpg"",""img/0864/87c467d3-abca-482f-ad80-3766c21b1bb3.jpg""]","",""
"","16475","similarity","150","1867177","0.0-6.0-144.0","7","[""img/0902/4e0baa32-988e-46f6-989d-f669225ab645.jpg"",""img/0898/993d8f2d-bef7-4251-a193-0f93a32b7763.jpg""]","",""
"","7246","similarity","151","1875430","0.0-6.0-145.0","5","[""img/0862/1c20f772-3a51-4a80-aac0-f57dc9f86c28.jpg"",""img/0864/e02eddb5-f468-499c-91bf-f7be3ffe979b.jpg""]","",""
"","6037","similarity","152","1882477","0.0-6.0-146.0","2","[""img/0875/dbdd643e-6d0e-4a5c-ab57-b9c29b9c981a.jpg"",""img/0898/6cd3830b-d44e-4915-be2b-88d31424b91c.jpg""]","",""
"","6435","similarity","153","1889920","0.0-6.0-147.0","6","[""img/0874/767f289c-9814-4496-803f-745cc8913d1f.jpg"",""img/0881/f4e3e181-b3c9-4af2-a5a4-fc135ab70d2e.jpg""]","",""
"","7227","similarity","154","1898152","0.0-6.0-148.0","3","[""img/0758/d540bee6-b460-4c32-ac57-bc282742d7d4.jpg"",""img/0894/151063aa-6472-4745-837b-36603aba5966.jpg""]","",""
"","7611","similarity","155","1906773","0.0-6.0-149.0","7","[""img/0904/65e2b70a-b184-4da3-b5c0-5038bdf9469a.jpg"",""img/0864/49150900-7f25-4ce8-8d10-9b47a71d1997.jpg""]","",""
"","6744","similarity","156","1914524","0.0-6.0-150.0","6","[""img/0769/f73c5138-2f4c-4354-981c-129dff9cc734.jpg"",""img/0899/d60714ae-98d7-4564-8c98-94dba1351135.jpg""]","",""
"","6787","similarity","157","1926324","0.0-6.0-151.0","6","[""img/0764/958b8576-3a3b-4acc-96dc-06b74de69f37.jpg"",""img/0903/150cf64c-0bd2-4674-abbb-a1387cf1f3e9.jpg""]","",""
"","6354","similarity","158","1933689","0.0-6.0-152.0","5","[""img/0903/6a87dbad-9b8d-4ff5-9c41-03c9aa24f0c3.jpg"",""img/0864/c3b63e8f-ea39-4d70-a1f2-b3fe4be8eb75.jpg""]","",""
"","4926","similarity","159","1939630","0.0-6.0-153.0","5","[""img/0894/76c1201f-8524-4865-85e6-dda8cb4ac986.jpg"",""img/0881/84397291-bc14-4fbf-90e8-241e486ab0fe.jpg""]","",""
"","6156","similarity","160","1946795","0.0-6.0-154.0","6","[""img/0875/5a7c4e35-6514-4e12-8879-d16071da4cd6.jpg"",""img/0867/db7e032f-162b-46f5-ae67-2b29679adee4.jpg""]","",""
"","5706","similarity","161","1953510","0.0-6.0-155.0","4","[""img/0867/5e07b34d-b40f-4b1c-ac10-49975bace45f.jpg"",""img/0758/a085b443-b5d7-4cb2-9ad4-b9dab0fc23f1.jpg""]","",""
"","12746","similarity","162","1967267","0.0-6.0-156.0","5","[""img/0868/1a62b2b2-18f5-466e-b564-5176a57c565e.jpg"",""img/0901/a2d7b2f6-396b-4d91-8403-de5361c74af7.jpg""]","",""
"","8721","similarity","163","1976997","0.0-6.0-157.0","7","[""img/0769/057eb0a0-aa5b-40c7-9852-21444f68d767.jpg"",""img/0894/133a1636-d123-4893-873c-1718050f832a.jpg""]","",""
"","6670","similarity","164","1984678","0.0-6.0-158.0","6","[""img/0904/4d7d70a3-9477-4921-bda0-f9531d0a5c5b.jpg"",""img/0758/a709631e-3705-4725-ac40-f0d916924f08.jpg""]","",""
"","12355","similarity","165","1998043","0.0-6.0-159.0","5","[""img/0874/2c9464dd-8a23-4baa-ac94-1ba3af5c15cc.jpg"",""img/0904/da170c1b-9651-4f08-b231-2bdd1d9a046f.jpg""]","",""
"","5337","similarity","166","2004390","0.0-6.0-160.0","2","[""img/0864/e8bd659f-aa43-4748-877e-3118e8b4e189.jpg"",""img/0901/b123d109-47b4-4f9a-80c9-9bb16da42efa.jpg""]","",""
"","8303","similarity","167","2013703","0.0-6.0-161.0","5","[""img/0898/c3cecf20-f7fd-45fa-97d0-dc0a63e8d6c0.jpg"",""img/0866/07c9c966-3c8d-40e7-8128-92b2acbaed5d.jpg""]","",""
"","7241","similarity","168","2021955","0.0-6.0-162.0","6","[""img/0766/5d6e0d1d-4369-41f0-a64c-91f3503055c7.jpg"",""img/0903/680ed18e-b311-4ecf-9b00-7dea32128334.jpg""]","",""
"","10434","similarity","169","2033398","0.0-6.0-163.0","5","[""img/0860/d9a0d117-6d1d-41c0-8fec-9aff0fd9e9f2.jpg"",""img/0899/f58b8d2f-b19d-4b59-8b94-8834be92e4ba.jpg""]","",""
"","8003","similarity","170","2042412","0.0-6.0-164.0","3","[""img/0766/09f646c8-a69e-4ed3-879c-8d29b04ad7f9.jpg"",""img/0862/ad593cc7-cabe-4bb7-8e14-8a447a0717b4.jpg""]","",""
"","6056","similarity","171","2049480","0.0-6.0-165.0","5","[""img/0898/04e39a7a-fcf6-4156-ab0e-f5871f335e1c.jpg"",""img/0894/492d2f29-d7b9-4422-8be8-47fd58bfaa8b.jpg""]","",""
"","13325","similarity","172","2063814","0.0-6.0-166.0","3","[""img/0867/f26f6b60-f772-4f4c-95a4-addc62cfd692.jpg"",""img/0766/79767d11-b612-4e8a-9e4b-a8ac95bb6a54.jpg""]","",""
"","6812","similarity","173","2071632","0.0-6.0-167.0","5","[""img/0904/e9423a8c-f946-43ad-ab7b-931acef870e2.jpg"",""img/0862/ba89835a-408c-480b-8594-ed4ffa97eb5c.jpg""]","",""
"","19524","similarity","174","2092165","0.0-6.0-168.0","3","[""img/0866/a15b02be-11bb-43e3-b0e0-ecc3bd7dfc49.jpg"",""img/0874/c0378dac-9370-439a-8b79-db27c96fb390.jpg""]","",""
"","17611","similarity","175","2110787","0.0-6.0-169.0","4","[""img/0903/45e2d600-57ff-4d69-b22c-0c7896cd38f0.jpg"",""img/0868/179a5502-ab5c-478e-8263-5a1fbcc101d2.jpg""]","",""
"","6801","similarity","176","2118599","0.0-6.0-170.0","5","[""img/0769/3c1203c5-2ce7-466e-957a-8d77b5905460.jpg"",""img/0904/73920552-103b-4c9c-9ece-e0b8376b4504.jpg""]","",""
"","7800","similarity","177","2127409","0.0-6.0-171.0","1","[""img/0875/5a1e5100-0d94-4fec-bbe9-ca9894d2cf8e.jpg"",""img/0764/21e3292f-01ad-4238-828b-61b817857d16.jpg""]","",""
"","6450","similarity","178","2134869","0.0-6.0-172.0","6","[""img/0860/94ef7afc-e0e6-4a15-98c6-0bfac82bc832.jpg"",""img/0903/bf0a7d60-eca5-44b0-bafd-baf21db9904b.jpg""]","",""
"","8680","similarity","179","2144555","0.0-6.0-173.0","5","[""img/0864/6f631579-acf1-415c-a42c-1207f62a8d99.jpg"",""img/0867/aa05d113-fc19-4756-a8eb-7878f580bc92.jpg""]","",""
"","5939","similarity","180","2151503","0.0-6.0-174.0","2","[""img/0868/3a62db2d-97e9-44a3-b8e3-a48c6f0e423b.jpg"",""img/0864/f92649a2-0590-4d31-9a7a-1bfb81666a2d.jpg""]","",""
"","7967","similarity","181","2160477","0.0-6.0-175.0","6","[""img/0898/a114b375-cb89-44ba-9498-74213f1ecdee.jpg"",""img/0769/bb8c4e53-6f32-4814-97ee-392d4decfb2e.jpg""]","",""
"","6655","similarity","182","2168140","0.0-6.0-176.0","7","[""img/0766/69e486f7-dbef-456b-9d48-53d814248a28.jpg"",""img/0764/cbdc4f20-3a9a-4211-9b40-090699e0abcc.jpg""]","",""
"","7820","similarity","183","2176970","0.0-6.0-177.0","6","[""img/0764/c643e165-df19-459f-8c2b-8357bf432a17.jpg"",""img/0866/93a27239-8317-4e08-98ca-d8b1ff298e07.jpg""]","",""
"","8284","similarity","184","2186263","0.0-6.0-178.0","5","[""img/0902/24d10fe7-314f-4d5a-8c7b-b43121bba0a4.jpg"",""img/0875/03c3c331-738b-4446-af92-3d7386b08c2e.jpg""]","",""
"","7515","similarity","185","2194789","0.0-6.0-179.0","5","[""img/0881/33d65d80-8a8e-4ecf-852d-0ad7725c17a2.jpg"",""img/0904/09dac84f-3d1c-4445-a68e-d0389fdbf1e9.jpg""]","",""
"","17407","similarity","186","2213206","0.0-6.0-180.0","5","[""img/0874/a3bc679d-619f-4db6-bb68-116dcb757d9c.jpg"",""img/0860/5383b320-1518-4095-a58e-5cc1ae30b64c.jpg""]","",""
"","10479","similarity","187","2224694","0.0-6.0-181.0","6","[""img/0769/f2740c58-7c02-433f-920b-746b0b75435b.jpg"",""img/0874/93d1f8dc-acf2-4f03-bd8d-8ec35df276ed.jpg""]","",""
"","5287","similarity","188","2231003","0.0-6.0-182.0","7","[""img/0904/0d25eb24-bb20-4e8d-9787-8b489558b4cb.jpg"",""img/0766/0b48f9e0-7d37-4161-8adb-4e3f5b6b7583.jpg""]","",""
"","6597","similarity","189","2238613","0.0-6.0-183.0","7","[""img/0902/12452bb1-b8c0-4e4d-ad4d-47e279e5933c.jpg"",""img/0764/f64dfa83-333d-494c-87b5-73e942f1766e.jpg""]","",""
"","7014","similarity","190","2246638","0.0-6.0-184.0","3","[""img/0769/1ca58b80-2365-446d-9616-6c1719e6c46f.jpg"",""img/0875/f87b67d7-c33e-40d1-b281-248c4be1cb6e.jpg""]","",""
"","8556","similarity","191","2256212","0.0-6.0-185.0","5","[""img/0867/85a96c62-548f-4994-9553-819e03c3135a.jpg"",""img/0903/f1fa0f8d-e62b-4b4a-a174-31a0fabfe61b.jpg""]","",""
"","7999","similarity","192","2265223","0.0-6.0-186.0","4","[""img/0862/847e5208-38ec-4f36-949c-296cdd7424ee.jpg"",""img/0769/e31b3bd8-efcb-413e-aa8c-75fac2b8f2ac.jpg""]","",""
"","10637","similarity","193","2276873","0.0-6.0-187.0","3","[""img/0766/f011ef45-fb48-44b8-8224-867ed2ccf786.jpg"",""img/0866/f756f7d1-9ad8-4a34-9ef6-7a443d705bfe.jpg""]","",""
"","5892","similarity","194","2283781","0.0-6.0-188.0","5","[""img/0769/a1ce8d07-ba37-40de-bade-2778805521e0.jpg"",""img/0860/5bff793e-cbd5-4d7e-b628-0ac2b0e30b64.jpg""]","",""
"","6073","similarity","195","2294125","0.0-6.0-189.0","2","[""img/0881/566f45f8-5fed-4479-a60f-26377e60a62d.jpg"",""img/0868/5fa7f9d0-f0e5-454c-8224-74d964818f56.jpg""]","",""
"[{""page_index"":0,""viewing_time"":10991}]","10992","instructions","196","2306120","0.0-7.0","","","",""
"","123656","image-multi-choice","197","2430809","0.0-8.0-0.0","","","{""Q0"":""Yellow Warbler""}","Nashville Warbler"
"","15543","image-multi-choice","198","2447390","0.0-8.0-1.0","","","{""Q0"":""Black-and-white Warbler""}","Black-and-white Warbler"
"","13210","image-multi-choice","199","2461625","0.0-8.0-2.0","","","{""Q0"":""Blackburnian Warbler""}","Townsend's Warbler"
"","15397","image-multi-choice","200","2478046","0.0-8.0-3.0","","","{""Q0"":""Fox Sparrow""}","Lark Sparrow"
"","36390","image-multi-choice","201","2515467","0.0-8.0-4.0","","","{""Q0"":""Magnolia Warbler""}","Yellow Warbler"
"","22010","image-multi-choice","202","2538503","0.0-8.0-5.0","","","{""Q0"":""Orange-crowned Warbler""}","Orange-crowned Warbler"
"","16539","image-multi-choice","203","2556062","0.0-8.0-6.0","","","{""Q0"":""White-throated Sparrow""}","White-throated Sparrow"
"","9859","image-multi-choice","204","2566941","0.0-8.0-7.0","","","{""Q0"":""Ovenbird""}","Fox Sparrow"
"","15103","image-multi-choice","205","2583058","0.0-8.0-8.0","","","{""Q0"":""American Tree Sparrow""}","Song Sparrow"
"","8826","image-multi-choice","206","2592907","0.0-8.0-9.0","","","{""Q0"":""Blackburnian Warbler""}","Blackburnian Warbler"
"","26422","image-multi-choice","207","2620346","0.0-8.0-10.0","","","{""Q0"":""Lark Sparrow""}","Vesper Sparrow"
"","8920","image-multi-choice","208","2630291","0.0-8.0-11.0","","","{""Q0"":""White-crowned Sparrow""}","White-crowned Sparrow"
"","8658","image-multi-choice","209","2639966","0.0-8.0-12.0","","","{""Q0"":""Vesper Sparrow""}","American Tree Sparrow"
"","14688","image-multi-choice","210","2655680","0.0-8.0-13.0","","","{""Q0"":""Nashville Warbler""}","Tennessee Warbler"
"","21255","image-multi-choice","211","2677951","0.0-8.0-14.0","","","{""Q0"":""Townsend's Warbler""}","Magnolia Warbler"
"","18750","image-multi-choice","212","2697720","0.0-8.0-15.0","","","{""Q0"":""Northern Waterthrush""}","Northern Waterthrush"
"","10048","image-multi-choice","213","2708786","0.0-8.0-16.0","","","{""Q0"":""Chipping Sparrow""}","Chipping Sparrow"
"","27161","image-multi-choice","214","2736967","0.0-8.0-17.0","","","{""Q0"":""Lincoln's Sparrow""}","Swamp Sparrow"
"","20927","image-multi-choice","215","2758907","0.0-8.0-18.0","","","{""Q0"":""Song Sparrow""}","Lincoln's Sparrow"
"","20058","image-multi-choice","216","2779985","0.0-8.0-19.0","","","{""Q0"":""Ovenbird""}","Ovenbird"
