[{"view_history":"[{\"page_index\":0,\"viewing_time\":53485}]","rt":53487,"trial_type":"instructions","trial_index":0,"time_elapsed":53489,"internal_node_id":"0.0-0.0"},{"sim_score":6,"rt":10787,"stimulus":"[\"img/bluejay1.jpg\",\"img/bluejay2.jpg\"]","trial_type":"similarity_demo","trial_index":1,"time_elapsed":65311,"internal_node_id":"0.0-1.0"},{"view_history":"[{\"page_index\":0,\"viewing_time\":10377}]","rt":10378,"trial_type":"instructions","trial_index":2,"time_elapsed":76697,"internal_node_id":"0.0-2.0"},{"sim_score":1,"rt":5288,"stimulus":"[\"img/bluejay1.jpg\",\"img/cardinal1.jpg\"]","trial_type":"similarity_demo","trial_index":3,"time_elapsed":83018,"internal_node_id":"0.0-3.0"},{"view_history":"[{\"page_index\":0,\"viewing_time\":10412}]","rt":10412,"trial_type":"instructions","trial_index":4,"time_elapsed":94431,"internal_node_id":"0.0-4.0"},{"view_history":"[{\"page_index\":0,\"viewing_time\":46260}]","rt":46261,"trial_type":"instructions","trial_index":5,"time_elapsed":141698,"internal_node_id":"0.0-5.0"},{"sim_score":3,"rt":20433,"stimulus":"[\"img/0868/8b0b8473-e2c0-4331-aa56-c3a5c29369da.jpg\",\"img/0894/767a0eec-1064-46b1-b1aa-dfa02b0cd74e.jpg\"]","trial_type":"similarity","trial_index":6,"time_elapsed":163159,"internal_node_id":"0.0-6.0-0.0"},{"sim_score":2,"rt":7971,"stimulus":"[\"img/0898/4184e5a2-84ea-4f36-9b42-ae58646f6f87.jpg\",\"img/0758/7ffbc76b-1fc1-432c-8f7e-9ec8d1b3f643.jpg\"]","trial_type":"similarity","trial_index":7,"time_elapsed":172144,"internal_node_id":"0.0-6.0-1.0"},{"sim_score":6,"rt":7330,"stimulus":"[\"img/0903/c708d08f-a108-4e04-8288-c3fcf6375db4.jpg\",\"img/0894/e6385e52-6c35-43bd-b0af-bc803d107b11.jpg\"]","trial_type":"similarity","trial_index":8,"time_elapsed":180488,"internal_node_id":"0.0-6.0-2.0"},{"sim_score":3,"rt":5944,"stimulus":"[\"img/0881/db77fe00-aeb0-4d1d-aa66-f3a96fd077e4.jpg\",\"img/0766/69e486f7-dbef-456b-9d48-53d814248a28.jpg\"]","trial_type":"similarity","trial_index":9,"time_elapsed":187449,"internal_node_id":"0.0-6.0-3.0"},{"sim_score":2,"rt":7577,"stimulus":"[\"img/0864/a248adb3-c70b-4652-b7a3-776d2a1e904b.jpg\",\"img/0860/c5ccd1a4-4bb7-48e1-9b25-72cfaf06909b.jpg\"]","trial_type":"similarity","trial_index":10,"time_elapsed":196042,"internal_node_id":"0.0-6.0-4.0"},{"sim_score":3,"rt":6480,"stimulus":"[\"img/0902/2a7ac123-414a-476a-9a96-4757b924baef.jpg\",\"img/0899/4f7bc593-8ddd-4da3-a0b9-84da730d3370.jpg\"]","trial_type":"similarity","trial_index":11,"time_elapsed":203541,"internal_node_id":"0.0-6.0-5.0"},{"sim_score":2,"rt":9404,"stimulus":"[\"img/0868/fd307a36-9a3a-47d7-ab7c-f810d0b35040.jpg\",\"img/0769/9ea27d61-3d55-418c-8d14-82e90f656f01.jpg\"]","trial_type":"similarity","trial_index":12,"time_elapsed":213965,"internal_node_id":"0.0-6.0-6.0"},{"sim_score":2,"rt":6815,"stimulus":"[\"img/0764/5d83b9db-3b2b-4dc8-9bd1-2b515b19c858.jpg\",\"img/0901/3db47171-0139-4235-82cd-0b1787b6775f.jpg\"]","trial_type":"similarity","trial_index":13,"time_elapsed":221824,"internal_node_id":"0.0-6.0-7.0"},{"sim_score":1,"rt":5112,"stimulus":"[\"img/0881/0c7068da-d0d9-4103-bda1-74ef7a2b32c3.jpg\",\"img/0866/d493a2c8-66eb-44b4-be02-2f327b700b7c.jpg\"]","trial_type":"similarity","trial_index":14,"time_elapsed":227951,"internal_node_id":"0.0-6.0-8.0"},{"sim_score":1,"rt":4136,"stimulus":"[\"img/0867/aa05d113-fc19-4756-a8eb-7878f580bc92.jpg\",\"img/0899/ddf96ade-692e-4602-bd22-dedbb46401bc.jpg\"]","trial_type":"similarity","trial_index":15,"time_elapsed":233104,"internal_node_id":"0.0-6.0-9.0"},{"sim_score":1,"rt":5744,"stimulus":"[\"img/0875/cff79b3a-a797-4393-9757-6275f999ec04.jpg\",\"img/0766/2e1cf445-9aef-40e7-92f4-5facf48b64c5.jpg\"]","trial_type":"similarity","trial_index":16,"time_elapsed":239863,"internal_node_id":"0.0-6.0-10.0"},{"sim_score":1,"rt":7604,"stimulus":"[\"img/0901/00acf6c1-b66e-4060-bb04-4caf29b5a8b0.jpg\",\"img/0875/5a716432-c6ca-4b1c-955a-2b8ac25198ee.jpg\"]","trial_type":"similarity","trial_index":17,"time_elapsed":248481,"internal_node_id":"0.0-6.0-11.0"},{"sim_score":2,"rt":7947,"stimulus":"[\"img/0902/6c2c243a-f663-45db-baf5-038d3d58c589.jpg\",\"img/0860/87039971-2210-4aab-93c0-8e9b5f1655b2.jpg\"]","trial_type":"similarity","trial_index":18,"time_elapsed":257457,"internal_node_id":"0.0-6.0-12.0"},{"sim_score":4,"rt":8811,"stimulus":"[\"img/0874/ca23d307-fc00-4d7d-9106-584c6eb21b4d.jpg\",\"img/0867/c71dc569-f49c-4397-8381-68b8d726736d.jpg\"]","trial_type":"similarity","trial_index":19,"time_elapsed":267284,"internal_node_id":"0.0-6.0-13.0"},{"sim_score":2,"rt":4984,"stimulus":"[\"img/0904/96e503ea-6630-4996-85f2-0237688ce441.jpg\",\"img/0866/bf14b5bd-fb55-47db-86b9-4f8aeb9a6dad.jpg\"]","trial_type":"similarity","trial_index":20,"time_elapsed":273294,"internal_node_id":"0.0-6.0-14.0"},{"sim_score":2,"rt":6517,"stimulus":"[\"img/0758/6e95579b-5166-487c-b8cb-e417c6a218e3.jpg\",\"img/0902/27b84584-948a-485b-8749-cb09929ef631.jpg\"]","trial_type":"similarity","trial_index":21,"time_elapsed":280823,"internal_node_id":"0.0-6.0-15.0"},{"sim_score":1,"rt":5758,"stimulus":"[\"img/0867/a749dddb-69f0-44a6-acdc-2bf295cf6dcc.jpg\",\"img/0898/08c72dac-f8ad-407a-9ce6-8c9a5d679c3a.jpg\"]","trial_type":"similarity","trial_index":22,"time_elapsed":287598,"internal_node_id":"0.0-6.0-16.0"},{"sim_score":2,"rt":8452,"stimulus":"[\"img/0904/ba8e689e-9ca6-4608-a2a1-3b0940666ae6.jpg\",\"img/0868/e0aff734-077f-40dd-9781-74821abd3621.jpg\"]","trial_type":"similarity","trial_index":23,"time_elapsed":297071,"internal_node_id":"0.0-6.0-17.0"},{"sim_score":5,"rt":5621,"stimulus":"[\"img/0766/e8052e17-9dae-4139-802b-6e590cb2d526.jpg\",\"img/0864/da39ad34-04e0-40d4-a724-c08d53e0ea09.jpg\"]","trial_type":"similarity","trial_index":24,"time_elapsed":303713,"internal_node_id":"0.0-6.0-18.0"},{"sim_score":3,"rt":5982,"stimulus":"[\"img/0899/7b7380d5-d2be-44e5-a09a-c1756f87ef71.jpg\",\"img/0766/09f646c8-a69e-4ed3-879c-8d29b04ad7f9.jpg\"]","trial_type":"similarity","trial_index":25,"time_elapsed":310707,"internal_node_id":"0.0-6.0-19.0"},{"sim_score":2,"rt":6624,"stimulus":"[\"img/0764/c01e2d65-6586-441b-bef5-3c96fcd85380.jpg\",\"img/0758/7ee8bc8f-c40b-4b3a-84ec-3e83580622d4.jpg\"]","trial_type":"similarity","trial_index":26,"time_elapsed":318347,"internal_node_id":"0.0-6.0-20.0"},{"sim_score":1,"rt":12000,"stimulus":"[\"img/0901/12da1841-e611-435c-9719-109413d536a8.jpg\",\"img/0874/2c9464dd-8a23-4baa-ac94-1ba3af5c15cc.jpg\"]","trial_type":"similarity","trial_index":27,"time_elapsed":331356,"internal_node_id":"0.0-6.0-21.0"},{"sim_score":5,"rt":7024,"stimulus":"[\"img/0875/a4935837-7d3c-4df6-88c1-36a94d4991ca.jpg\",\"img/0758/20497cbe-ddae-489e-86e2-ab06985ed07c.jpg\"]","trial_type":"similarity","trial_index":28,"time_elapsed":339397,"internal_node_id":"0.0-6.0-22.0"},{"sim_score":2,"rt":6921,"stimulus":"[\"img/0867/179ab87a-8eac-4c52-a41f-2e48e3120f09.jpg\",\"img/0881/dea58fad-b4f1-41d9-bd3f-916eff19a3fd.jpg\"]","trial_type":"similarity","trial_index":29,"time_elapsed":347343,"internal_node_id":"0.0-6.0-23.0"},{"sim_score":1,"rt":8323,"stimulus":"[\"img/0758/2fa3e613-e676-4e6e-bd12-705327eeb3e1.jpg\",\"img/0901/77087ed2-6e12-4329-b2a5-605bca6d972d.jpg\"]","trial_type":"similarity","trial_index":30,"time_elapsed":356689,"internal_node_id":"0.0-6.0-24.0"},{"sim_score":6,"rt":6025,"stimulus":"[\"img/0868/77091fc7-a590-4ebb-b915-fdb2483a2399.jpg\",\"img/0875/ebf7653f-ff45-4e9f-af58-2c042ab3cd2b.jpg\"]","trial_type":"similarity","trial_index":31,"time_elapsed":363729,"internal_node_id":"0.0-6.0-25.0"},{"sim_score":4,"rt":5493,"stimulus":"[\"img/0903/5c6b1f57-b3a2-40f5-9fb1-82785e24b6a0.jpg\",\"img/0901/71e551a2-9ce2-409c-9c7c-dd556a0791e9.jpg\"]","trial_type":"similarity","trial_index":32,"time_elapsed":370233,"internal_node_id":"0.0-6.0-26.0"},{"sim_score":4,"rt":9982,"stimulus":"[\"img/0894/43216a7f-27bc-4b5a-8841-d122a30da9d9.jpg\",\"img/0899/0adc0bc3-6fca-4078-be6f-d45ddf1653d5.jpg\"]","trial_type":"similarity","trial_index":33,"time_elapsed":381235,"internal_node_id":"0.0-6.0-27.0"},{"sim_score":2,"rt":6013,"stimulus":"[\"img/0862/064818ee-13d5-4618-bb24-21c7368ea278.jpg\",\"img/0867/2e1a0b58-cdb1-4107-a14e-452530d7b9b0.jpg\"]","trial_type":"similarity","trial_index":34,"time_elapsed":388259,"internal_node_id":"0.0-6.0-28.0"},{"sim_score":1,"rt":6391,"stimulus":"[\"img/0864/300bb811-8b3c-4c42-8653-6097c3725197.jpg\",\"img/0875/d59ff733-eaff-4ee2-9443-06954dd0bcb6.jpg\"]","trial_type":"similarity","trial_index":35,"time_elapsed":395661,"internal_node_id":"0.0-6.0-29.0"},{"sim_score":4,"rt":8140,"stimulus":"[\"img/0862/5d887e9f-89e2-4ebc-80a0-6d46fe6480db.jpg\",\"img/0874/adf9a8f1-c40b-402b-b95b-1e85a54a7b62.jpg\"]","trial_type":"similarity","trial_index":36,"time_elapsed":404813,"internal_node_id":"0.0-6.0-30.0"},{"sim_score":1,"rt":6030,"stimulus":"[\"img/0903/70d764d9-1f35-4da7-a35d-4cc39834d270.jpg\",\"img/0758/eabcd7a8-56ad-4fd2-bc24-90f6b7b33265.jpg\"]","trial_type":"similarity","trial_index":37,"time_elapsed":411862,"internal_node_id":"0.0-6.0-31.0"},{"sim_score":2,"rt":6550,"stimulus":"[\"img/0866/6f2a90d7-14f1-4f1b-bd64-fc0af6b9fe44.jpg\",\"img/0901/04a53755-6da5-44d4-a7a6-48a6bc0a2280.jpg\"]","trial_type":"similarity","trial_index":38,"time_elapsed":419431,"internal_node_id":"0.0-6.0-32.0"},{"sim_score":3,"rt":10567,"stimulus":"[\"img/0874/eba003b4-cdab-4eee-8bc3-f064c7d94165.jpg\",\"img/0899/4408c14d-c168-4a7d-96f6-bc87bfb58f83.jpg\"]","trial_type":"similarity","trial_index":39,"time_elapsed":431008,"internal_node_id":"0.0-6.0-33.0"},{"sim_score":5,"rt":7308,"stimulus":"[\"img/0903/f1fa0f8d-e62b-4b4a-a174-31a0fabfe61b.jpg\",\"img/0902/511abb54-0094-4f4d-b6dc-3f2c97050521.jpg\"]","trial_type":"similarity","trial_index":40,"time_elapsed":439330,"internal_node_id":"0.0-6.0-34.0"},{"sim_score":1,"rt":4795,"stimulus":"[\"img/0758/53f35650-e455-4b53-8be4-c3c8271c6466.jpg\",\"img/0866/f756f7d1-9ad8-4a34-9ef6-7a443d705bfe.jpg\"]","trial_type":"similarity","trial_index":41,"time_elapsed":445145,"internal_node_id":"0.0-6.0-35.0"},{"sim_score":2,"rt":6149,"stimulus":"[\"img/0875/34132396-d896-4c2d-8087-646dd867e769.jpg\",\"img/0903/b7e3723f-fd03-4f3d-8820-f19496463a34.jpg\"]","trial_type":"similarity","trial_index":42,"time_elapsed":452308,"internal_node_id":"0.0-6.0-36.0"},{"sim_score":6,"rt":7689,"stimulus":"[\"img/0864/9b2490c5-a282-400a-9736-e1a0ecbf1cb7.jpg\",\"img/0902/bd89a85f-3853-4786-acd6-98818ee29f1c.jpg\"]","trial_type":"similarity","trial_index":43,"time_elapsed":503742,"internal_node_id":"0.0-6.0-37.0"},{"sim_score":2,"rt":6085,"stimulus":"[\"img/0901/a373612d-67e2-4fec-9764-21d3d6ef6359.jpg\",\"img/0867/f8159067-056c-41f1-a136-c529fe5e970a.jpg\"]","trial_type":"similarity","trial_index":44,"time_elapsed":510840,"internal_node_id":"0.0-6.0-38.0"},{"sim_score":3,"rt":6486,"stimulus":"[\"img/0862/cdaed51d-9e2f-4807-801a-4663c40077e2.jpg\",\"img/0860/524b2e98-5767-4d53-942c-ebae6925659b.jpg\"]","trial_type":"similarity","trial_index":45,"time_elapsed":518338,"internal_node_id":"0.0-6.0-39.0"},{"sim_score":6,"rt":6366,"stimulus":"[\"img/0867/50a1b60e-3a29-44bf-b606-d4bd3746fea9.jpg\",\"img/0868/3a62db2d-97e9-44a3-b8e3-a48c6f0e423b.jpg\"]","trial_type":"similarity","trial_index":46,"time_elapsed":525714,"internal_node_id":"0.0-6.0-40.0"},{"sim_score":3,"rt":7051,"stimulus":"[\"img/0904/b5855d6a-7ef9-46ca-9215-6e9fa046e543.jpg\",\"img/0899/7f9d45d0-b2c6-40d3-aa41-c207db2c411b.jpg\"]","trial_type":"similarity","trial_index":47,"time_elapsed":533779,"internal_node_id":"0.0-6.0-41.0"},{"sim_score":2,"rt":12223,"stimulus":"[\"img/0862/a0a3a7ba-7798-46a3-b4ca-05e1f6e581d0.jpg\",\"img/0894/6aa5545f-fa7d-4286-bbaa-aaf34dc7ec96.jpg\"]","trial_type":"similarity","trial_index":48,"time_elapsed":547021,"internal_node_id":"0.0-6.0-42.0"},{"sim_score":1,"rt":6588,"stimulus":"[\"img/0875/5a1e5100-0d94-4fec-bbe9-ca9894d2cf8e.jpg\",\"img/0904/09dac84f-3d1c-4445-a68e-d0389fdbf1e9.jpg\"]","trial_type":"similarity","trial_index":49,"time_elapsed":554622,"internal_node_id":"0.0-6.0-43.0"},{"sim_score":2,"rt":8431,"stimulus":"[\"img/0874/3ce41e7c-40c8-4d58-a546-171114521796.jpg\",\"img/0898/79233891-305a-4a6a-8ddf-5c8604858203.jpg\"]","trial_type":"similarity","trial_index":50,"time_elapsed":564079,"internal_node_id":"0.0-6.0-44.0"},{"sim_score":5,"rt":6356,"stimulus":"[\"img/0898/8605a25b-6895-476d-8c13-df7a83f96093.jpg\",\"img/0868/6a28c3b0-3d76-498a-9fb7-ddafc665eca8.jpg\"]","trial_type":"similarity","trial_index":51,"time_elapsed":571463,"internal_node_id":"0.0-6.0-45.0"},{"sim_score":6,"rt":5312,"stimulus":"[\"img/0901/2a953e50-d237-405c-a38d-5ed21494c968.jpg\",\"img/0860/f44ba3fb-03a2-42f0-8509-2c1ded493086.jpg\"]","trial_type":"similarity","trial_index":52,"time_elapsed":577785,"internal_node_id":"0.0-6.0-46.0"},{"sim_score":5,"rt":16634,"stimulus":"[\"img/0894/792c83e9-a747-4000-bc72-5663d2439edb.jpg\",\"img/0902/04a6ad4a-afc6-4871-8225-56b299af7b6b.jpg\"]","trial_type":"similarity","trial_index":53,"time_elapsed":595435,"internal_node_id":"0.0-6.0-47.0"},{"sim_score":6,"rt":8115,"stimulus":"[\"img/0764/b887d7c6-aa81-4637-af8e-05135757ac59.jpg\",\"img/0862/ad593cc7-cabe-4bb7-8e14-8a447a0717b4.jpg\"]","trial_type":"similarity","trial_index":54,"time_elapsed":604573,"internal_node_id":"0.0-6.0-48.0"},{"sim_score":5,"rt":5313,"stimulus":"[\"img/0881/292e9b4b-fca0-4ba8-87f1-4048f9e37b7d.jpg\",\"img/0758/821c68d3-5cb0-4eae-8659-30e6263fca39.jpg\"]","trial_type":"similarity","trial_index":55,"time_elapsed":610902,"internal_node_id":"0.0-6.0-49.0"},{"sim_score":4,"rt":6424,"stimulus":"[\"img/0766/a0270213-fa0e-4972-8b56-228c3e01ff90.jpg\",\"img/0769/7c50e5f5-cc38-4d48-b009-fbe17bcea61c.jpg\"]","trial_type":"similarity","trial_index":56,"time_elapsed":618350,"internal_node_id":"0.0-6.0-50.0"},{"sim_score":4,"rt":12000,"stimulus":"[\"img/0875/5a7c4e35-6514-4e12-8879-d16071da4cd6.jpg\",\"img/0866/02f5e6b9-52b7-448c-9708-5b460d0c9a23.jpg\"]","trial_type":"similarity","trial_index":57,"time_elapsed":631360,"internal_node_id":"0.0-6.0-51.0"},{"sim_score":5,"rt":8948,"stimulus":"[\"img/0894/c505c65a-cde2-4f2c-8cde-f8676f7c894d.jpg\",\"img/0904/73920552-103b-4c9c-9ece-e0b8376b4504.jpg\"]","trial_type":"similarity","trial_index":58,"time_elapsed":641323,"internal_node_id":"0.0-6.0-52.0"},{"sim_score":4,"rt":13958,"stimulus":"[\"img/0758/b76ceca7-95ac-46e4-ac13-da02c8e93be9.jpg\",\"img/0769/50985283-d353-4abc-9abe-14a91d56ebe6.jpg\"]","trial_type":"similarity","trial_index":59,"time_elapsed":656299,"internal_node_id":"0.0-6.0-53.0"},{"sim_score":2,"rt":5411,"stimulus":"[\"img/0902/418b716e-63e5-4c77-93e9-95b1f5a3ddf0.jpg\",\"img/0874/99f6563c-8a8d-4c1c-a41d-667b618c3fd5.jpg\"]","trial_type":"similarity","trial_index":60,"time_elapsed":662724,"internal_node_id":"0.0-6.0-54.0"},{"sim_score":2,"rt":8117,"stimulus":"[\"img/0903/c3cb4a01-2797-43ca-b216-88c67b323fbb.jpg\",\"img/0862/de9ad88c-b522-430a-8ee9-eb06a9f85df5.jpg\"]","trial_type":"similarity","trial_index":61,"time_elapsed":671854,"internal_node_id":"0.0-6.0-55.0"},{"sim_score":6,"rt":9342,"stimulus":"[\"img/0866/be24ab58-230e-4db8-9f45-ff04c9aec6bb.jpg\",\"img/0894/11674fa4-285d-44e2-939f-2228c6a64080.jpg\"]","trial_type":"similarity","trial_index":62,"time_elapsed":682214,"internal_node_id":"0.0-6.0-56.0"},{"sim_score":2,"rt":6670,"stimulus":"[\"img/0867/c66898ba-b71b-4d50-84f9-f7f84853a98d.jpg\",\"img/0904/63dd06dd-dccb-47ba-9740-eb33239e18a7.jpg\"]","trial_type":"similarity","trial_index":63,"time_elapsed":689896,"internal_node_id":"0.0-6.0-57.0"},{"sim_score":2,"rt":6497,"stimulus":"[\"img/0875/f87b67d7-c33e-40d1-b281-248c4be1cb6e.jpg\",\"img/0881/44e09805-5a25-4f17-a716-4ad4a331b174.jpg\"]","trial_type":"similarity","trial_index":64,"time_elapsed":697417,"internal_node_id":"0.0-6.0-58.0"},{"sim_score":1,"rt":7046,"stimulus":"[\"img/0866/93a27239-8317-4e08-98ca-d8b1ff298e07.jpg\",\"img/0860/e14d67c1-6d92-4f1e-9257-c8607159c19c.jpg\"]","trial_type":"similarity","trial_index":65,"time_elapsed":705474,"internal_node_id":"0.0-6.0-59.0"},{"sim_score":2,"rt":14318,"stimulus":"[\"img/0903/24477210-856c-4550-9de0-9f85a32762eb.jpg\",\"img/0866/d266fece-59b3-46fa-b69f-96f6efb81b59.jpg\"]","trial_type":"similarity","trial_index":66,"time_elapsed":720803,"internal_node_id":"0.0-6.0-60.0"},{"sim_score":4,"rt":6900,"stimulus":"[\"img/0860/8a92e21b-6a32-4e4a-a445-2d5a487ed0a4.jpg\",\"img/0875/e7e66b13-b573-431e-b85e-288ce04a35a3.jpg\"]","trial_type":"similarity","trial_index":67,"time_elapsed":728718,"internal_node_id":"0.0-6.0-61.0"},{"sim_score":5,"rt":9261,"stimulus":"[\"img/0898/26c41340-15bd-4ead-8fe4-c0d0ddca09c2.jpg\",\"img/0862/00c06b00-3b73-44e9-bc1e-c5aafb438321.jpg\"]","trial_type":"similarity","trial_index":68,"time_elapsed":738990,"internal_node_id":"0.0-6.0-62.0"},{"sim_score":3,"rt":8212,"stimulus":"[\"img/0902/9f543501-3cf1-45a7-a2f1-eeca87cc15b9.jpg\",\"img/0766/d919cedb-f9b7-4f30-83bb-3e9c65001ceb.jpg\"]","trial_type":"similarity","trial_index":69,"time_elapsed":748215,"internal_node_id":"0.0-6.0-63.0"},{"sim_score":4,"rt":6414,"stimulus":"[\"img/0758/d57c2592-a317-4f63-91be-91a3a9afd222.jpg\",\"img/0864/6e846d43-94a6-4b37-a268-65eda979f052.jpg\"]","trial_type":"similarity","trial_index":70,"time_elapsed":755648,"internal_node_id":"0.0-6.0-64.0"},{"sim_score":3,"rt":8446,"stimulus":"[\"img/0894/e5edf723-72a5-4673-8441-6c1734a8929b.jpg\",\"img/0860/702bd09d-df3a-40aa-a267-5f04474305b5.jpg\"]","trial_type":"similarity","trial_index":71,"time_elapsed":765105,"internal_node_id":"0.0-6.0-65.0"},{"sim_score":2,"rt":7547,"stimulus":"[\"img/0899/66ab3178-c3fe-4455-ad17-d5952b08e018.jpg\",\"img/0868/4bd5105a-d2c3-4f82-8c80-57196106ba53.jpg\"]","trial_type":"similarity","trial_index":72,"time_elapsed":773666,"internal_node_id":"0.0-6.0-66.0"},{"sim_score":2,"rt":9480,"stimulus":"[\"img/0866/945c6710-d15b-4a5b-a8f6-69af0850357f.jpg\",\"img/0862/1c20f772-3a51-4a80-aac0-f57dc9f86c28.jpg\"]","trial_type":"similarity","trial_index":73,"time_elapsed":784155,"internal_node_id":"0.0-6.0-67.0"},{"sim_score":1,"rt":7952,"stimulus":"[\"img/0860/18dfed73-e36b-4487-a8bd-0b8cff8e3668.jpg\",\"img/0758/335851a0-a55b-46d8-ab05-8463eda48349.jpg\"]","trial_type":"similarity","trial_index":74,"time_elapsed":793117,"internal_node_id":"0.0-6.0-68.0"},{"sim_score":1,"rt":7960,"stimulus":"[\"img/0902/7f1dcd35-237a-4995-9e42-7f63f3f434d4.jpg\",\"img/0867/98d8cd96-1476-4fe0-a3a3-04f875500a1b.jpg\"]","trial_type":"similarity","trial_index":75,"time_elapsed":802087,"internal_node_id":"0.0-6.0-69.0"},{"sim_score":1,"rt":6643,"stimulus":"[\"img/0862/53a9cf7c-93c4-41b9-952f-07d17f7a17b2.jpg\",\"img/0901/62315ff5-ed95-46b4-b099-92552079659b.jpg\"]","trial_type":"similarity","trial_index":76,"time_elapsed":809751,"internal_node_id":"0.0-6.0-70.0"},{"sim_score":6,"rt":5640,"stimulus":"[\"img/0867/85a96c62-548f-4994-9553-819e03c3135a.jpg\",\"img/0866/620cd1aa-0800-4414-8f6e-90342e7a99ad.jpg\"]","trial_type":"similarity","trial_index":77,"time_elapsed":816401,"internal_node_id":"0.0-6.0-71.0"},{"sim_score":3,"rt":7296,"stimulus":"[\"img/0860/e8b8c51e-1834-4875-8b61-6c5bc9b178bd.jpg\",\"img/0904/06dacdc5-2206-4fb8-92b7-88042d22833c.jpg\"]","trial_type":"similarity","trial_index":78,"time_elapsed":824713,"internal_node_id":"0.0-6.0-72.0"},{"sim_score":1,"rt":4555,"stimulus":"[\"img/0875/90da8d75-108a-44ad-b999-e21fee3860d3.jpg\",\"img/0899/a05bea16-2bb4-4cb9-b8fb-4ff975db6971.jpg\"]","trial_type":"similarity","trial_index":79,"time_elapsed":830281,"internal_node_id":"0.0-6.0-73.0"},{"sim_score":2,"rt":7290,"stimulus":"[\"img/0899/d8f2dd94-570e-4e8c-a087-d96090fb9e8c.jpg\",\"img/0758/9fb5b2fe-3f00-4fe6-973c-1ce10d5f4cd5.jpg\"]","trial_type":"similarity","trial_index":80,"time_elapsed":838586,"internal_node_id":"0.0-6.0-74.0"},{"sim_score":2,"rt":7409,"stimulus":"[\"img/0862/47ed5efd-4ec9-4b74-bb4e-a5f5cf0c3e7d.jpg\",\"img/0875/2c361b79-c3d1-4eda-812e-bf03192407bf.jpg\"]","trial_type":"similarity","trial_index":81,"time_elapsed":1467437,"internal_node_id":"0.0-6.0-75.0"},{"sim_score":3,"rt":6055,"stimulus":"[\"img/0901/b123d109-47b4-4f9a-80c9-9bb16da42efa.jpg\",\"img/0894/133a1636-d123-4893-873c-1718050f832a.jpg\"]","trial_type":"similarity","trial_index":82,"time_elapsed":1474525,"internal_node_id":"0.0-6.0-76.0"},{"sim_score":2,"rt":5696,"stimulus":"[\"img/0766/1bc0dccc-a5b5-4375-87fa-28360ca42b12.jpg\",\"img/0758/6cd8c362-ae2a-41eb-80a3-3a4f7ace1530.jpg\"]","trial_type":"similarity","trial_index":83,"time_elapsed":1481239,"internal_node_id":"0.0-6.0-77.0"},{"sim_score":4,"rt":3758,"stimulus":"[\"img/0894/5a49e858-2850-4892-9a06-e9f0efb5f94d.jpg\",\"img/0764/bd2eaa3e-95a9-4a59-a78e-3f81c766eea9.jpg\"]","trial_type":"similarity","trial_index":84,"time_elapsed":1486022,"internal_node_id":"0.0-6.0-78.0"},{"sim_score":2,"rt":6592,"stimulus":"[\"img/0860/71e1aad0-2cdf-43bb-94a4-a8c016997c30.jpg\",\"img/0867/26611f4e-d694-4460-b7e2-43c62753ddc3.jpg\"]","trial_type":"similarity","trial_index":85,"time_elapsed":1493632,"internal_node_id":"0.0-6.0-79.0"},{"sim_score":2,"rt":8243,"stimulus":"[\"img/0898/0c7dde4f-efce-4b7a-9387-6921635b7890.jpg\",\"img/0901/b13fa50f-dbe0-4d0f-8647-6ac0fd8f40bd.jpg\"]","trial_type":"similarity","trial_index":86,"time_elapsed":1502882,"internal_node_id":"0.0-6.0-80.0"},{"sim_score":4,"rt":6766,"stimulus":"[\"img/0874/767f289c-9814-4496-803f-745cc8913d1f.jpg\",\"img/0764/e42c1dc9-7831-4995-be19-7ca7b4d141fc.jpg\"]","trial_type":"similarity","trial_index":87,"time_elapsed":1510666,"internal_node_id":"0.0-6.0-81.0"},{"sim_score":4,"rt":8310,"stimulus":"[\"img/0899/f95cbdb4-f804-4f5d-ad76-373ad343e658.jpg\",\"img/0862/d0ca4c78-fc35-46ed-bdcc-8e124283c53e.jpg\"]","trial_type":"similarity","trial_index":88,"time_elapsed":1520003,"internal_node_id":"0.0-6.0-82.0"},{"sim_score":1,"rt":6208,"stimulus":"[\"img/0766/5d1b8041-c5a1-4b02-b4fe-3453d98a0d72.jpg\",\"img/0901/50e1d53e-a49f-4806-8610-be6dec5a2475.jpg\"]","trial_type":"similarity","trial_index":89,"time_elapsed":1527229,"internal_node_id":"0.0-6.0-83.0"},{"sim_score":2,"rt":6487,"stimulus":"[\"img/0881/c843e210-bdfe-4a7c-8bbe-fcea1f90fe1c.jpg\",\"img/0898/661621d4-a14e-487c-8c74-354134a29710.jpg\"]","trial_type":"similarity","trial_index":90,"time_elapsed":1534733,"internal_node_id":"0.0-6.0-84.0"},{"sim_score":2,"rt":11604,"stimulus":"[\"img/0868/293079b8-7e0c-4afd-a390-1e5d35fe3ded.jpg\",\"img/0860/8277806e-b684-4474-8f7b-3fca946d7d4f.jpg\"]","trial_type":"similarity","trial_index":91,"time_elapsed":1547372,"internal_node_id":"0.0-6.0-85.0"},{"sim_score":1,"rt":7299,"stimulus":"[\"img/0758/dd559618-7f09-4a07-8018-d311c4a5ea29.jpg\",\"img/0868/4e626425-63c8-484a-8a1d-e66ee4e0bef8.jpg\"]","trial_type":"similarity","trial_index":92,"time_elapsed":1555688,"internal_node_id":"0.0-6.0-86.0"},{"sim_score":1,"rt":9350,"stimulus":"[\"img/0864/ef9cbca0-4be8-435d-ad49-977259e80409.jpg\",\"img/0894/10f22b96-040c-44f4-950b-a4963f3f506c.jpg\"]","trial_type":"similarity","trial_index":93,"time_elapsed":1566056,"internal_node_id":"0.0-6.0-87.0"},{"sim_score":4,"rt":12714,"stimulus":"[\"img/0866/a15b02be-11bb-43e3-b0e0-ecc3bd7dfc49.jpg\",\"img/0902/c920f0e1-1c81-480f-a164-c77f2dc6ce9a.jpg\"]","trial_type":"similarity","trial_index":94,"time_elapsed":1579787,"internal_node_id":"0.0-6.0-88.0"},{"sim_score":2,"rt":5339,"stimulus":"[\"img/0769/022c7e3b-c3f2-4119-b4bc-f22fa7cae18c.jpg\",\"img/0867/bf560d4f-dee3-4f11-a385-705cc1aa5f3c.jpg\"]","trial_type":"similarity","trial_index":95,"time_elapsed":1586139,"internal_node_id":"0.0-6.0-89.0"},{"sim_score":1,"rt":3674,"stimulus":"[\"img/0874/8cdb1c07-1c32-46d2-981c-3636560fa6e5.jpg\",\"img/0875/99698b4d-b4a1-44bc-8c83-8ea755bbbf61.jpg\"]","trial_type":"similarity","trial_index":96,"time_elapsed":1590831,"internal_node_id":"0.0-6.0-90.0"},{"sim_score":6,"rt":7090,"stimulus":"[\"img/0864/4bd81bc6-c13d-46df-95a9-485886dc7c1b.jpg\",\"img/0874/31e22c7c-99aa-40b1-bf03-dd73fa2df4d6.jpg\"]","trial_type":"similarity","trial_index":97,"time_elapsed":1598932,"internal_node_id":"0.0-6.0-91.0"},{"sim_score":1,"rt":7566,"stimulus":"[\"img/0881/20af39f5-373d-4a55-a437-2dc4c0382c46.jpg\",\"img/0862/fad1d7c1-8187-43c3-942a-0fc12183e48e.jpg\"]","trial_type":"similarity","trial_index":98,"time_elapsed":1607509,"internal_node_id":"0.0-6.0-92.0"},{"sim_score":5,"rt":6578,"stimulus":"[\"img/0864/1d15626a-2f7c-410f-819c-0fa2c967e95e.jpg\",\"img/0881/4da99fdd-1f40-4bbb-8e21-8833eef313f5.jpg\"]","trial_type":"similarity","trial_index":99,"time_elapsed":1615104,"internal_node_id":"0.0-6.0-93.0"},{"sim_score":2,"rt":4544,"stimulus":"[\"img/0899/565ccdd9-0933-4536-a625-3c0e25a713dd.jpg\",\"img/0901/0f670aef-ac36-496d-8142-ee5fdb21dd82.jpg\"]","trial_type":"similarity","trial_index":100,"time_elapsed":1620655,"internal_node_id":"0.0-6.0-94.0"},{"sim_score":3,"rt":10333,"stimulus":"[\"img/0874/85eb9b8a-c4c6-4e5a-b8e7-363a87a82054.jpg\",\"img/0766/006035d8-c736-4daf-bbe4-a9e373af9da6.jpg\"]","trial_type":"similarity","trial_index":101,"time_elapsed":1631994,"internal_node_id":"0.0-6.0-95.0"},{"sim_score":6,"rt":12900,"stimulus":"[\"img/0881/633c6f40-56d9-4b48-bf1c-ecd83116eabb.jpg\",\"img/0899/5b56dd3e-3f49-47cc-af84-16da6457753b.jpg\"]","trial_type":"similarity","trial_index":102,"time_elapsed":1645915,"internal_node_id":"0.0-6.0-96.0"},{"sim_score":7,"rt":7428,"stimulus":"[\"img/0862/99a99e39-8355-44ec-b993-e7bcec111e1c.jpg\",\"img/0902/2db723b6-130f-454c-8c8d-88829edbcd65.jpg\"]","trial_type":"similarity","trial_index":103,"time_elapsed":1654357,"internal_node_id":"0.0-6.0-97.0"},{"sim_score":7,"rt":7688,"stimulus":"[\"img/0899/56a605c3-d0a2-4215-89e1-779279d85a7c.jpg\",\"img/0764/55b3fab1-b809-4d38-a461-3f40ce062f52.jpg\"]","trial_type":"similarity","trial_index":104,"time_elapsed":1663055,"internal_node_id":"0.0-6.0-98.0"},{"sim_score":3,"rt":5509,"stimulus":"[\"img/0758/d41c06bf-ebaf-454b-91c6-1a17f917b659.jpg\",\"img/0862/f23038d4-c366-4f70-979f-66b62362efa4.jpg\"]","trial_type":"similarity","trial_index":105,"time_elapsed":1669575,"internal_node_id":"0.0-6.0-99.0"},{"sim_score":2,"rt":8318,"stimulus":"[\"img/0764/da207710-e7e4-4f42-b2e6-99b5f357f433.jpg\",\"img/0898/c3cecf20-f7fd-45fa-97d0-dc0a63e8d6c0.jpg\"]","trial_type":"similarity","trial_index":106,"time_elapsed":1678903,"internal_node_id":"0.0-6.0-100.0"},{"sim_score":1,"rt":6663,"stimulus":"[\"img/0901/effc03f6-8f9d-46db-a66c-16fc83891c5c.jpg\",\"img/0902/24d10fe7-314f-4d5a-8c7b-b43121bba0a4.jpg\"]","trial_type":"similarity","trial_index":107,"time_elapsed":1686577,"internal_node_id":"0.0-6.0-101.0"},{"sim_score":2,"rt":15324,"stimulus":"[\"img/0764/1f95ab5f-fb65-4d70-b5db-d6bd6351a8aa.jpg\",\"img/0868/09a9ef4d-d000-4cfa-a6aa-ebec7c2edeb4.jpg\"]","trial_type":"similarity","trial_index":108,"time_elapsed":1702924,"internal_node_id":"0.0-6.0-102.0"},{"sim_score":2,"rt":16858,"stimulus":"[\"img/0769/387a9744-d6a7-42b8-bab8-33007ec434aa.jpg\",\"img/0881/84397291-bc14-4fbf-90e8-241e486ab0fe.jpg\"]","trial_type":"similarity","trial_index":109,"time_elapsed":1720797,"internal_node_id":"0.0-6.0-103.0"},{"sim_score":2,"rt":8357,"stimulus":"[\"img/0864/b3c4e378-28f0-4699-9338-2a257b4bca04.jpg\",\"img/0769/35f2dd39-40aa-498e-b401-9f1ef2622d00.jpg\"]","trial_type":"similarity","trial_index":110,"time_elapsed":1730174,"internal_node_id":"0.0-6.0-104.0"},{"sim_score":7,"rt":8751,"stimulus":"[\"img/0866/23a224f3-2012-4fc8-8e0f-3c36f8de27fd.jpg\",\"img/0868/7b212364-ff5f-4e28-9241-7eb6ea00161b.jpg\"]","trial_type":"similarity","trial_index":111,"time_elapsed":1739935,"internal_node_id":"0.0-6.0-105.0"},{"sim_score":2,"rt":6818,"stimulus":"[\"img/0868/15dd6fd7-791e-4b53-b203-195d617521a4.jpg\",\"img/0862/24cdc752-c2e5-4a17-86a6-6f2045d8553b.jpg\"]","trial_type":"similarity","trial_index":112,"time_elapsed":1747760,"internal_node_id":"0.0-6.0-106.0"},{"sim_score":2,"rt":8253,"stimulus":"[\"img/0766/db750ba0-ce04-46e1-b601-e1b80212bad2.jpg\",\"img/0898/b2732712-71c2-45d8-834f-2b2ed5504910.jpg\"]","trial_type":"similarity","trial_index":113,"time_elapsed":1757026,"internal_node_id":"0.0-6.0-107.0"},{"sim_score":2,"rt":6474,"stimulus":"[\"img/0898/b3290bf9-215b-4b45-b21a-65bdf73f142f.jpg\",\"img/0864/e8bd659f-aa43-4748-877e-3118e8b4e189.jpg\"]","trial_type":"similarity","trial_index":114,"time_elapsed":1764524,"internal_node_id":"0.0-6.0-108.0"},{"sim_score":1,"rt":5713,"stimulus":"[\"img/0868/0d3abd3a-b6c3-4584-a9f7-e2da63748b3d.jpg\",\"img/0902/a6fb6dd5-696c-47ec-be7d-d7b88f1544f1.jpg\"]","trial_type":"similarity","trial_index":115,"time_elapsed":1771244,"internal_node_id":"0.0-6.0-109.0"},{"sim_score":5,"rt":10088,"stimulus":"[\"img/0904/2f88ce53-02d0-4f95-a082-182c56a0eeb4.jpg\",\"img/0764/ec2dd087-c471-4370-b570-95a542506a96.jpg\"]","trial_type":"similarity","trial_index":116,"time_elapsed":1782349,"internal_node_id":"0.0-6.0-110.0"},{"sim_score":2,"rt":8015,"stimulus":"[\"img/0894/2217bdcd-23a7-42d3-823b-23f2488d7e87.jpg\",\"img/0875/dbdd643e-6d0e-4a5c-ab57-b9c29b9c981a.jpg\"]","trial_type":"similarity","trial_index":117,"time_elapsed":1791374,"internal_node_id":"0.0-6.0-111.0"},{"sim_score":2,"rt":5295,"stimulus":"[\"img/0868/179a5502-ab5c-478e-8263-5a1fbcc101d2.jpg\",\"img/0874/a3bc679d-619f-4db6-bb68-116dcb757d9c.jpg\"]","trial_type":"similarity","trial_index":118,"time_elapsed":1797686,"internal_node_id":"0.0-6.0-112.0"},{"sim_score":3,"rt":6492,"stimulus":"[\"img/0904/b7c2a2c8-df33-4473-b3d4-ff7147c60db3.jpg\",\"img/0898/881e2a85-d5c2-49be-a0c6-8a6ce2c4af08.jpg\"]","trial_type":"similarity","trial_index":119,"time_elapsed":1840059,"internal_node_id":"0.0-6.0-113.0"},{"sim_score":4,"rt":5974,"stimulus":"[\"img/0860/5383b320-1518-4095-a58e-5cc1ae30b64c.jpg\",\"img/0766/b84598d0-5b41-4841-88b0-b441b48289f5.jpg\"]","trial_type":"similarity","trial_index":120,"time_elapsed":1847053,"internal_node_id":"0.0-6.0-114.0"},{"sim_score":3,"rt":6668,"stimulus":"[\"img/0894/661b9f9f-4bde-487a-b1ed-87085fde6948.jpg\",\"img/0874/c0378dac-9370-439a-8b79-db27c96fb390.jpg\"]","trial_type":"similarity","trial_index":121,"time_elapsed":1854734,"internal_node_id":"0.0-6.0-115.0"},{"sim_score":1,"rt":6046,"stimulus":"[\"img/0899/a048912c-b12c-40e3-90af-46b69b0cc4fe.jpg\",\"img/0903/6b5dcc60-3ad3-4962-93e5-e6cf768477af.jpg\"]","trial_type":"similarity","trial_index":122,"time_elapsed":1861790,"internal_node_id":"0.0-6.0-116.0"},{"sim_score":1,"rt":8673,"stimulus":"[\"img/0881/f62bdcd1-a4b7-4d48-83da-d9c9e01c8727.jpg\",\"img/0764/83c93cce-18d1-4aa7-9e23-2c268afe0a46.jpg\"]","trial_type":"similarity","trial_index":123,"time_elapsed":1871480,"internal_node_id":"0.0-6.0-117.0"},{"sim_score":6,"rt":6035,"stimulus":"[\"img/0903/97a42b34-5462-4665-88c7-83c014b33d24.jpg\",\"img/0769/f229321f-04dd-42d7-b14a-ffad6b509862.jpg\"]","trial_type":"similarity","trial_index":124,"time_elapsed":1878529,"internal_node_id":"0.0-6.0-118.0"},{"sim_score":5,"rt":8179,"stimulus":"[\"img/0901/693e0535-ef7e-4d60-af9d-fac2f38e8307.jpg\",\"img/0904/5aec2708-cf14-4a58-aa30-9a8a61c1be0e.jpg\"]","trial_type":"similarity","trial_index":125,"time_elapsed":1887723,"internal_node_id":"0.0-6.0-119.0"},{"sim_score":2,"rt":10290,"stimulus":"[\"img/0860/99c589b9-9140-4d17-90c0-b344323edcda.jpg\",\"img/0881/48ed65a5-471f-41af-86ec-3793805c116d.jpg\"]","trial_type":"similarity","trial_index":126,"time_elapsed":1899020,"internal_node_id":"0.0-6.0-120.0"},{"sim_score":6,"rt":8785,"stimulus":"[\"img/0758/7fba58df-2a7a-4b76-8a8f-62739f97f271.jpg\",\"img/0874/a82926a3-0b43-4add-803c-d5f9ea7798ee.jpg\"]","trial_type":"similarity","trial_index":127,"time_elapsed":1908814,"internal_node_id":"0.0-6.0-121.0"},{"sim_score":2,"rt":6467,"stimulus":"[\"img/0901/d61f267a-c492-4db6-9bfb-61efd49cf072.jpg\",\"img/0769/057eb0a0-aa5b-40c7-9852-21444f68d767.jpg\"]","trial_type":"similarity","trial_index":128,"time_elapsed":1916303,"internal_node_id":"0.0-6.0-122.0"},{"sim_score":7,"rt":8243,"stimulus":"[\"img/0902/3f0eeac5-c996-4026-a376-563ce8f28521.jpg\",\"img/0904/5cceabc9-de1d-4c67-989b-c28a4ef77e79.jpg\"]","trial_type":"similarity","trial_index":129,"time_elapsed":1925559,"internal_node_id":"0.0-6.0-123.0"},{"sim_score":5,"rt":5901,"stimulus":"[\"img/0899/f58b8d2f-b19d-4b59-8b94-8834be92e4ba.jpg\",\"img/0864/3651d070-2fc5-4848-b6a6-088a2d9ac5c9.jpg\"]","trial_type":"similarity","trial_index":130,"time_elapsed":1932465,"internal_node_id":"0.0-6.0-124.0"},{"sim_score":2,"rt":6988,"stimulus":"[\"img/0766/fd064894-7147-4af5-97e9-2089d5472656.jpg\",\"img/0868/4a8a45ed-2c4f-421b-9564-409a33ecd26c.jpg\"]","trial_type":"similarity","trial_index":131,"time_elapsed":1940474,"internal_node_id":"0.0-6.0-125.0"},{"sim_score":4,"rt":80644,"stimulus":"[\"img/0764/6fbd1902-fa2a-48d8-bc11-705b8ab68d8f.jpg\",\"img/0864/66091c27-e588-4476-8af9-265dc6be4156.jpg\"]","trial_type":"similarity","trial_index":132,"time_elapsed":2022133,"internal_node_id":"0.0-6.0-126.0"},{"sim_score":1,"rt":5829,"stimulus":"[\"img/0899/b45c550b-96c3-4255-ad59-48a2b4db1c1e.jpg\",\"img/0866/0207e9a2-7dbb-40b5-9459-b472aaeceb2a.jpg\"]","trial_type":"similarity","trial_index":133,"time_elapsed":2029002,"internal_node_id":"0.0-6.0-127.0"},{"sim_score":1,"rt":5673,"stimulus":"[\"img/0901/4ca4f962-40c0-4c59-b14a-3cd7b8c9029b.jpg\",\"img/0881/2a8413be-fec2-4de6-88ad-614dd4cccc9d.jpg\"]","trial_type":"similarity","trial_index":134,"time_elapsed":2035690,"internal_node_id":"0.0-6.0-128.0"},{"sim_score":5,"rt":5978,"stimulus":"[\"img/0898/81b08535-2020-4c15-9ce4-2f1e460755ae.jpg\",\"img/0903/005ad0de-4f52-433c-b515-dbe8d46184a3.jpg\"]","trial_type":"similarity","trial_index":135,"time_elapsed":2042684,"internal_node_id":"0.0-6.0-129.0"},{"sim_score":3,"rt":5532,"stimulus":"[\"img/0894/3adef67d-7676-4995-80b2-bb31b8aca3ef.jpg\",\"img/0867/f8488a47-94ee-4166-952c-44e16cf172f6.jpg\"]","trial_type":"similarity","trial_index":136,"time_elapsed":2049230,"internal_node_id":"0.0-6.0-130.0"},{"sim_score":2,"rt":6072,"stimulus":"[\"img/0874/995f0332-0439-4eb4-add3-957335dbf6d9.jpg\",\"img/0903/365f176c-25a4-4973-bd3c-279bf1b39476.jpg\"]","trial_type":"similarity","trial_index":137,"time_elapsed":2056323,"internal_node_id":"0.0-6.0-131.0"},{"sim_score":2,"rt":6300,"stimulus":"[\"img/0899/51a7a498-98c7-42d7-bca8-bc2d8f0b5831.jpg\",\"img/0898/224c1572-56b9-4f16-a9e4-6f3bc9c114bd.jpg\"]","trial_type":"similarity","trial_index":138,"time_elapsed":2063638,"internal_node_id":"0.0-6.0-132.0"},{"sim_score":1,"rt":6126,"stimulus":"[\"img/0867/5e07b34d-b40f-4b1c-ac10-49975bace45f.jpg\",\"img/0764/cffc80b0-4a90-4acb-a530-6f480f3ca303.jpg\"]","trial_type":"similarity","trial_index":139,"time_elapsed":2070782,"internal_node_id":"0.0-6.0-133.0"},{"sim_score":3,"rt":6825,"stimulus":"[\"img/0866/4a87911a-d5be-4d4e-ab8e-3d1f581bf507.jpg\",\"img/0769/da36e3f7-2337-434f-ab57-11822dd7eed7.jpg\"]","trial_type":"similarity","trial_index":140,"time_elapsed":2078624,"internal_node_id":"0.0-6.0-134.0"},{"sim_score":3,"rt":5585,"stimulus":"[\"img/0860/b03b963d-949b-4d8d-b19c-4950c89eeca2.jpg\",\"img/0898/5f699581-3853-4547-856c-12f419ba5af7.jpg\"]","trial_type":"similarity","trial_index":141,"time_elapsed":2085238,"internal_node_id":"0.0-6.0-135.0"},{"sim_score":2,"rt":3860,"stimulus":"[\"img/0881/b1a136f7-8511-4d3a-a0f6-3879acf1e1a1.jpg\",\"img/0903/8f7f9939-b8e6-433f-93dd-b362496c80a7.jpg\"]","trial_type":"similarity","trial_index":142,"time_elapsed":2090114,"internal_node_id":"0.0-6.0-136.0"},{"sim_score":2,"rt":5804,"stimulus":"[\"img/0894/3664e04c-c6d3-4c9b-afb6-25d89974b174.jpg\",\"img/0766/33519c22-aaa4-49d7-8d49-ab551db1945e.jpg\"]","trial_type":"similarity","trial_index":143,"time_elapsed":2096937,"internal_node_id":"0.0-6.0-137.0"},{"sim_score":1,"rt":5565,"stimulus":"[\"img/0860/fd4662f9-4c03-4d79-8593-06735e55a64b.jpg\",\"img/0764/d0bef2e0-e16b-4c82-9451-c1d16265eb67.jpg\"]","trial_type":"similarity","trial_index":144,"time_elapsed":2103515,"internal_node_id":"0.0-6.0-138.0"},{"sim_score":2,"rt":6118,"stimulus":"[\"img/0769/14d393ce-e5be-4ca1-86ce-cc27d4b6074c.jpg\",\"img/0902/62f11694-7ed7-4cb7-8a73-9e95c43824e7.jpg\"]","trial_type":"similarity","trial_index":145,"time_elapsed":2110654,"internal_node_id":"0.0-6.0-139.0"},{"sim_score":6,"rt":5779,"stimulus":"[\"img/0904/24fc38fe-842c-4831-ad8a-b1de5c25c0a8.jpg\",\"img/0903/45e2d600-57ff-4d69-b22c-0c7896cd38f0.jpg\"]","trial_type":"similarity","trial_index":146,"time_elapsed":2117443,"internal_node_id":"0.0-6.0-140.0"},{"sim_score":6,"rt":6394,"stimulus":"[\"img/0764/4eff630a-6426-4f8d-b2ba-b4d9842a0962.jpg\",\"img/0769/aad494cc-674d-4a08-9bfa-24a88ebe3c79.jpg\"]","trial_type":"similarity","trial_index":147,"time_elapsed":2124852,"internal_node_id":"0.0-6.0-141.0"},{"sim_score":2,"rt":8471,"stimulus":"[\"img/0902/c018bd7a-d91a-4192-aea4-7259cfcdb6c4.jpg\",\"img/0881/ee44e27f-d662-4608-b265-e7ffa19b216f.jpg\"]","trial_type":"similarity","trial_index":148,"time_elapsed":2134342,"internal_node_id":"0.0-6.0-142.0"},{"sim_score":2,"rt":6347,"stimulus":"[\"img/0866/386235d2-6857-41e7-88a8-25cfc3430025.jpg\",\"img/0864/f92649a2-0590-4d31-9a7a-1bfb81666a2d.jpg\"]","trial_type":"similarity","trial_index":149,"time_elapsed":2141718,"internal_node_id":"0.0-6.0-143.0"},{"sim_score":6,"rt":10345,"stimulus":"[\"img/0902/6730b12a-f0a7-4587-8c10-a32fae16565b.jpg\",\"img/0898/40f99fb2-64d2-4e72-8a7f-a1cf60741e69.jpg\"]","trial_type":"similarity","trial_index":150,"time_elapsed":2153080,"internal_node_id":"0.0-6.0-144.0"},{"sim_score":5,"rt":7066,"stimulus":"[\"img/0862/92f0146c-20c4-482e-aef5-adb693790338.jpg\",\"img/0864/c3b63e8f-ea39-4d70-a1f2-b3fe4be8eb75.jpg\"]","trial_type":"similarity","trial_index":151,"time_elapsed":2161162,"internal_node_id":"0.0-6.0-145.0"},{"sim_score":2,"rt":14424,"stimulus":"[\"img/0875/03c3c331-738b-4446-af92-3d7386b08c2e.jpg\",\"img/0898/01bfe666-3510-4fc7-964f-d00d28732dc8.jpg\"]","trial_type":"similarity","trial_index":152,"time_elapsed":2176597,"internal_node_id":"0.0-6.0-146.0"},{"sim_score":5,"rt":5061,"stimulus":"[\"img/0874/93d1f8dc-acf2-4f03-bd8d-8ec35df276ed.jpg\",\"img/0881/f6bd3b96-dc40-4e99-8681-bc3a35cf896d.jpg\"]","trial_type":"similarity","trial_index":153,"time_elapsed":2182668,"internal_node_id":"0.0-6.0-147.0"},{"sim_score":2,"rt":6294,"stimulus":"[\"img/0758/ddc336e9-a8b6-4bb9-937a-c7e25e0e9250.jpg\",\"img/0894/86201968-6e78-4d68-9b3a-d1692e066210.jpg\"]","trial_type":"similarity","trial_index":154,"time_elapsed":2190038,"internal_node_id":"0.0-6.0-148.0"},{"sim_score":6,"rt":6472,"stimulus":"[\"img/0904/25365108-e038-4021-aac9-797f2063b337.jpg\",\"img/0864/6f631579-acf1-415c-a42c-1207f62a8d99.jpg\"]","trial_type":"similarity","trial_index":155,"time_elapsed":2197519,"internal_node_id":"0.0-6.0-149.0"},{"sim_score":3,"rt":9190,"stimulus":"[\"img/0769/965c3c44-d9e5-47c5-b61a-2bbdf4215d9a.jpg\",\"img/0899/0e1d936a-dbe2-4afc-9f19-7b7a1ae6c9ed.jpg\"]","trial_type":"similarity","trial_index":156,"time_elapsed":2207720,"internal_node_id":"0.0-6.0-150.0"},{"sim_score":4,"rt":22626,"stimulus":"[\"img/0764/a86eed5b-d0af-4c3f-8c7a-26e98e98cf1a.jpg\",\"img/0903/150cf64c-0bd2-4674-abbb-a1387cf1f3e9.jpg\"]","trial_type":"similarity","trial_index":157,"time_elapsed":2239452,"internal_node_id":"0.0-6.0-151.0"},{"sim_score":2,"rt":5000,"stimulus":"[\"img/0903/d987e220-f3e6-4b6d-a270-fe6757041f6d.jpg\",\"img/0864/c22faebd-9c53-47bc-ada3-b9a30c688e75.jpg\"]","trial_type":"similarity","trial_index":158,"time_elapsed":2245469,"internal_node_id":"0.0-6.0-152.0"},{"sim_score":2,"rt":4529,"stimulus":"[\"img/0894/9b1333fd-3561-43bf-aee5-99b7b7ca3dc3.jpg\",\"img/0881/6b1189e6-232d-4042-8885-16dc7b10e0d4.jpg\"]","trial_type":"similarity","trial_index":159,"time_elapsed":2251025,"internal_node_id":"0.0-6.0-153.0"},{"sim_score":5,"rt":8429,"stimulus":"[\"img/0875/2e13d160-eea1-416b-aff1-d37ab99ecc1d.jpg\",\"img/0867/8ba0c5a7-c7e4-42cf-a80a-543763b90779.jpg\"]","trial_type":"similarity","trial_index":160,"time_elapsed":2260470,"internal_node_id":"0.0-6.0-154.0"},{"sim_score":2,"rt":6028,"stimulus":"[\"img/0867/db7e032f-162b-46f5-ae67-2b29679adee4.jpg\",\"img/0758/a709631e-3705-4725-ac40-f0d916924f08.jpg\"]","trial_type":"similarity","trial_index":161,"time_elapsed":2267512,"internal_node_id":"0.0-6.0-155.0"},{"sim_score":2,"rt":4534,"stimulus":"[\"img/0868/83b4350a-3b70-4cea-b7f5-b5b56f3050a8.jpg\",\"img/0901/7d4a3388-488d-4e9b-9d32-9d0def7aae8d.jpg\"]","trial_type":"similarity","trial_index":162,"time_elapsed":2273073,"internal_node_id":"0.0-6.0-156.0"},{"sim_score":2,"rt":7595,"stimulus":"[\"img/0769/3c1203c5-2ce7-466e-957a-8d77b5905460.jpg\",\"img/0894/a98416c0-51e2-4960-85da-d81d8688b9d5.jpg\"]","trial_type":"similarity","trial_index":163,"time_elapsed":2281681,"internal_node_id":"0.0-6.0-157.0"},{"sim_score":2,"rt":6662,"stimulus":"[\"img/0904/d23dd7be-7fe8-4435-82f7-bd592c01e6a1.jpg\",\"img/0758/e38fd80d-18d0-42f3-b848-f930788e8bd7.jpg\"]","trial_type":"similarity","trial_index":164,"time_elapsed":2289363,"internal_node_id":"0.0-6.0-158.0"},{"sim_score":2,"rt":6720,"stimulus":"[\"img/0874/3f471690-9788-4d03-90c7-f615aecef149.jpg\",\"img/0904/e9423a8c-f946-43ad-ab7b-931acef870e2.jpg\"]","trial_type":"similarity","trial_index":165,"time_elapsed":2297099,"internal_node_id":"0.0-6.0-159.0"},{"sim_score":1,"rt":7336,"stimulus":"[\"img/0864/5f74a653-3bdc-4308-8cca-ac667dc22e1f.jpg\",\"img/0901/31c032fd-3c3d-4882-a226-da9a80198937.jpg\"]","trial_type":"similarity","trial_index":166,"time_elapsed":2305444,"internal_node_id":"0.0-6.0-160.0"},{"sim_score":2,"rt":9182,"stimulus":"[\"img/0898/f3a3f225-1248-4ac7-b93b-f0ff28485bf3.jpg\",\"img/0866/c446214b-a368-4c65-ae39-ea46894256ab.jpg\"]","trial_type":"similarity","trial_index":167,"time_elapsed":2315639,"internal_node_id":"0.0-6.0-161.0"},{"sim_score":4,"rt":5779,"stimulus":"[\"img/0766/d50d734f-285c-4840-bc7a-c8dd4aff391e.jpg\",\"img/0903/12bd8657-92e6-4c36-a06c-597e7a1d51f3.jpg\"]","trial_type":"similarity","trial_index":168,"time_elapsed":2322431,"internal_node_id":"0.0-6.0-162.0"},{"sim_score":2,"rt":4757,"stimulus":"[\"img/0860/17b44a7d-c5ca-479f-9e87-f65a64f5c80e.jpg\",\"img/0899/76ad07e2-ca25-45eb-84f2-8d80b8ca3e26.jpg\"]","trial_type":"similarity","trial_index":169,"time_elapsed":2328207,"internal_node_id":"0.0-6.0-163.0"},{"sim_score":1,"rt":9647,"stimulus":"[\"img/0766/27f54113-8561-4568-9ffe-0a1650ae65ec.jpg\",\"img/0862/f188d4f0-76a4-4102-818c-a209969d73a5.jpg\"]","trial_type":"similarity","trial_index":170,"time_elapsed":2338865,"internal_node_id":"0.0-6.0-164.0"},{"sim_score":3,"rt":7083,"stimulus":"[\"img/0898/82231d4c-218b-4d0a-b50d-35a49b524e97.jpg\",\"img/0894/2d2db7b3-e8a3-499b-b63a-14f51bf73882.jpg\"]","trial_type":"similarity","trial_index":171,"time_elapsed":2346955,"internal_node_id":"0.0-6.0-165.0"},{"sim_score":1,"rt":7085,"stimulus":"[\"img/0867/12264664-1860-46df-8c21-162b9817cdda.jpg\",\"img/0766/0b48f9e0-7d37-4161-8adb-4e3f5b6b7583.jpg\"]","trial_type":"similarity","trial_index":172,"time_elapsed":2355051,"internal_node_id":"0.0-6.0-166.0"},{"sim_score":5,"rt":5873,"stimulus":"[\"img/0904/fe746a3f-8458-48d0-8a13-8cba2a9df9f8.jpg\",\"img/0862/57b6f83f-c763-4858-830d-102f97bfefbf.jpg\"]","trial_type":"similarity","trial_index":173,"time_elapsed":2361931,"internal_node_id":"0.0-6.0-167.0"},{"sim_score":2,"rt":5934,"stimulus":"[\"img/0866/8efcaa46-83ab-4dee-a35f-850402aa21ae.jpg\",\"img/0874/1016b306-087c-4afc-aa08-fa527b28dc76.jpg\"]","trial_type":"similarity","trial_index":174,"time_elapsed":2368884,"internal_node_id":"0.0-6.0-168.0"},{"sim_score":1,"rt":5244,"stimulus":"[\"img/0903/bf0a7d60-eca5-44b0-bafd-baf21db9904b.jpg\",\"img/0868/c8ac40c7-6904-4e13-8d61-c75d3052dc4e.jpg\"]","trial_type":"similarity","trial_index":175,"time_elapsed":2375141,"internal_node_id":"0.0-6.0-169.0"},{"sim_score":5,"rt":5690,"stimulus":"[\"img/0769/f6396414-6788-4d59-9683-de153298d89c.jpg\",\"img/0904/da170c1b-9651-4f08-b231-2bdd1d9a046f.jpg\"]","trial_type":"similarity","trial_index":176,"time_elapsed":2381838,"internal_node_id":"0.0-6.0-170.0"},{"sim_score":1,"rt":4579,"stimulus":"[\"img/0875/527ced51-8e53-4aab-ab05-86df219104c0.jpg\",\"img/0764/a3226bc4-dcc3-4608-bde8-1414d685ce5c.jpg\"]","trial_type":"similarity","trial_index":177,"time_elapsed":2387424,"internal_node_id":"0.0-6.0-171.0"},{"sim_score":7,"rt":6973,"stimulus":"[\"img/0860/31ff6436-98bf-4652-bed2-40f627229568.jpg\",\"img/0903/f10e9eb5-0c21-4a6a-944c-5f10a6d0fa4d.jpg\"]","trial_type":"similarity","trial_index":178,"time_elapsed":2395409,"internal_node_id":"0.0-6.0-172.0"},{"sim_score":4,"rt":15531,"stimulus":"[\"img/0864/afcba0a3-7e27-4757-b254-e9f05fad27e2.jpg\",\"img/0867/7d1c497b-c1b3-4ed8-abb5-d7f73306015f.jpg\"]","trial_type":"similarity","trial_index":179,"time_elapsed":2411954,"internal_node_id":"0.0-6.0-173.0"},{"sim_score":2,"rt":4970,"stimulus":"[\"img/0868/5fa7f9d0-f0e5-454c-8224-74d964818f56.jpg\",\"img/0864/87c467d3-abca-482f-ad80-3766c21b1bb3.jpg\"]","trial_type":"similarity","trial_index":180,"time_elapsed":2417939,"internal_node_id":"0.0-6.0-174.0"},{"sim_score":2,"rt":6829,"stimulus":"[\"img/0898/e167334e-cc1d-4986-b3b1-c7bc7da64baa.jpg\",\"img/0769/ecda2fb3-556b-43ba-8a67-e87dd75ff2b4.jpg\"]","trial_type":"similarity","trial_index":181,"time_elapsed":2425782,"internal_node_id":"0.0-6.0-175.0"},{"sim_score":4,"rt":7329,"stimulus":"[\"img/0766/d5d38751-8fa5-476f-93e9-86ed2d9045ef.jpg\",\"img/0764/17b088f8-3053-4140-b544-d15654cc79ef.jpg\"]","trial_type":"similarity","trial_index":182,"time_elapsed":2434134,"internal_node_id":"0.0-6.0-176.0"},{"sim_score":2,"rt":10713,"stimulus":"[\"img/0764/ca9829fe-aaf8-45b8-b98a-6bae751c63dd.jpg\",\"img/0866/07c9c966-3c8d-40e7-8128-92b2acbaed5d.jpg\"]","trial_type":"similarity","trial_index":183,"time_elapsed":2445855,"internal_node_id":"0.0-6.0-177.0"},{"sim_score":2,"rt":7134,"stimulus":"[\"img/0902/01b41522-de46-4c3a-b0af-a61b2682b40e.jpg\",\"img/0875/fb732ab5-013a-4366-9f65-27811ed157e9.jpg\"]","trial_type":"similarity","trial_index":184,"time_elapsed":2453992,"internal_node_id":"0.0-6.0-178.0"},{"sim_score":2,"rt":5845,"stimulus":"[\"img/0881/609a5e93-38b5-4940-8627-2bf8fad7f802.jpg\",\"img/0904/9b3568cc-3cf7-42be-9df3-fdafde7a58b8.jpg\"]","trial_type":"similarity","trial_index":185,"time_elapsed":2460849,"internal_node_id":"0.0-6.0-179.0"},{"sim_score":1,"rt":8227,"stimulus":"[\"img/0874/ca76a855-4e77-4f2f-872a-0a718153e7ed.jpg\",\"img/0860/4f695df5-afac-4da7-9875-fee39b0b24ad.jpg\"]","trial_type":"similarity","trial_index":186,"time_elapsed":2470090,"internal_node_id":"0.0-6.0-180.0"},{"sim_score":1,"rt":4930,"stimulus":"[\"img/0769/3adfa417-3b90-4aab-b437-5eaa474189cb.jpg\",\"img/0874/7e4f2150-3b59-4a36-b5da-a4e0ba410531.jpg\"]","trial_type":"similarity","trial_index":187,"time_elapsed":2476026,"internal_node_id":"0.0-6.0-181.0"},{"sim_score":5,"rt":6051,"stimulus":"[\"img/0904/9d30eff1-46ef-4453-b11e-124ef8145c00.jpg\",\"img/0766/aaec5f42-7f0a-4a16-aeca-488d757acbcc.jpg\"]","trial_type":"similarity","trial_index":188,"time_elapsed":2483084,"internal_node_id":"0.0-6.0-182.0"},{"sim_score":1,"rt":8979,"stimulus":"[\"img/0902/962f645e-9b55-4628-9b50-c703422bfe1a.jpg\",\"img/0764/6c7fe363-2d37-418f-9e5e-a3273af5d4fb.jpg\"]","trial_type":"similarity","trial_index":189,"time_elapsed":2493077,"internal_node_id":"0.0-6.0-183.0"},{"sim_score":1,"rt":4716,"stimulus":"[\"img/0769/f73c5138-2f4c-4354-981c-129dff9cc734.jpg\",\"img/0875/3ecb367d-e9eb-4826-8aaa-7aa72fb98019.jpg\"]","trial_type":"similarity","trial_index":190,"time_elapsed":2498799,"internal_node_id":"0.0-6.0-184.0"},{"sim_score":2,"rt":4382,"stimulus":"[\"img/0867/1719a35d-f085-48c0-9099-16c94fe418b4.jpg\",\"img/0903/0fb24af7-9a26-4e9d-aadc-959a36f683e2.jpg\"]","trial_type":"similarity","trial_index":191,"time_elapsed":2504198,"internal_node_id":"0.0-6.0-185.0"},{"sim_score":2,"rt":5348,"stimulus":"[\"img/0862/e697469a-ec19-4414-b972-7b9f3564785b.jpg\",\"img/0769/ebef2ddc-ba59-4e0e-97f8-927864eb5081.jpg\"]","trial_type":"similarity","trial_index":192,"time_elapsed":2510560,"internal_node_id":"0.0-6.0-186.0"},{"sim_score":1,"rt":6498,"stimulus":"[\"img/0766/535849cc-ff5d-4df9-8f31-0ce94a97d571.jpg\",\"img/0866/9b38d691-1802-4959-ab3f-fc902f0e4ea6.jpg\"]","trial_type":"similarity","trial_index":193,"time_elapsed":2518064,"internal_node_id":"0.0-6.0-187.0"},{"sim_score":2,"rt":3857,"stimulus":"[\"img/0769/11518cb3-13ea-4dd0-890c-30cfab728ade.jpg\",\"img/0860/d9a0d117-6d1d-41c0-8fec-9aff0fd9e9f2.jpg\"]","trial_type":"similarity","trial_index":194,"time_elapsed":2522930,"internal_node_id":"0.0-6.0-188.0"},{"sim_score":2,"rt":8219,"stimulus":"[\"img/0881/e046471a-35b4-4159-bbf7-3cfd201bef66.jpg\",\"img/0868/d6d1f30d-4323-435a-b194-7892521bc57e.jpg\"]","trial_type":"similarity","trial_index":195,"time_elapsed":2535586,"internal_node_id":"0.0-6.0-189.0"},{"view_history":"[{\"page_index\":0,\"viewing_time\":5525}]","rt":5525,"trial_type":"instructions","trial_index":196,"time_elapsed":2542124,"internal_node_id":"0.0-7.0"},{"rt":106366,"responses":"{\"Q0\":\"Nashville Warbler\"}","answer":["Nashville Warbler"],"trial_type":"image-multi-choice","trial_index":197,"time_elapsed":2649543,"internal_node_id":"0.0-8.0-0.0"},{"rt":4286,"responses":"{\"Q0\":\"Black-and-white Warbler\"}","answer":["Black-and-white Warbler"],"trial_type":"image-multi-choice","trial_index":198,"time_elapsed":2654869,"internal_node_id":"0.0-8.0-1.0"},{"rt":18776,"responses":"{\"Q0\":\"Magnolia Warbler\"}","answer":["Townsend's Warbler"],"trial_type":"image-multi-choice","trial_index":199,"time_elapsed":2674699,"internal_node_id":"0.0-8.0-2.0"},{"rt":8052,"responses":"{\"Q0\":\"Lark Sparrow\"}","answer":["Lark Sparrow"],"trial_type":"image-multi-choice","trial_index":200,"time_elapsed":2683796,"internal_node_id":"0.0-8.0-3.0"},{"rt":8436,"responses":"{\"Q0\":\"Yellow Warbler\"}","answer":["Yellow Warbler"],"trial_type":"image-multi-choice","trial_index":201,"time_elapsed":2693293,"internal_node_id":"0.0-8.0-4.0"},{"rt":24525,"responses":"{\"Q0\":\"Tennessee Warbler\"}","answer":["Orange-crowned Warbler"],"trial_type":"image-multi-choice","trial_index":202,"time_elapsed":2718864,"internal_node_id":"0.0-8.0-5.0"},{"rt":9236,"responses":"{\"Q0\":\"White-throated Sparrow\"}","answer":["White-throated Sparrow"],"trial_type":"image-multi-choice","trial_index":203,"time_elapsed":2729136,"internal_node_id":"0.0-8.0-6.0"},{"rt":43281,"responses":"{\"Q0\":\"Fox Sparrow\"}","answer":["Fox Sparrow"],"trial_type":"image-multi-choice","trial_index":204,"time_elapsed":2773463,"internal_node_id":"0.0-8.0-7.0"},{"rt":27838,"responses":"{\"Q0\":\"American Tree Sparrow\"}","answer":["Song Sparrow"],"trial_type":"image-multi-choice","trial_index":205,"time_elapsed":2802347,"internal_node_id":"0.0-8.0-8.0"},{"rt":7674,"responses":"{\"Q0\":\"Blackburnian Warbler\"}","answer":["Blackburnian Warbler"],"trial_type":"image-multi-choice","trial_index":206,"time_elapsed":2811060,"internal_node_id":"0.0-8.0-9.0"},{"rt":19056,"responses":"{\"Q0\":\"Vesper Sparrow\"}","answer":["Vesper Sparrow"],"trial_type":"image-multi-choice","trial_index":207,"time_elapsed":2831162,"internal_node_id":"0.0-8.0-10.0"},{"rt":4492,"responses":"{\"Q0\":\"White-crowned Sparrow\"}","answer":["White-crowned Sparrow"],"trial_type":"image-multi-choice","trial_index":208,"time_elapsed":2836687,"internal_node_id":"0.0-8.0-11.0"},{"rt":9855,"responses":"{\"Q0\":\"American Tree Sparrow\"}","answer":["American Tree Sparrow"],"trial_type":"image-multi-choice","trial_index":209,"time_elapsed":2847562,"internal_node_id":"0.0-8.0-12.0"},{"rt":13200,"responses":"{\"Q0\":\"Northern Waterthrush\"}","answer":["Tennessee Warbler"],"trial_type":"image-multi-choice","trial_index":210,"time_elapsed":2861803,"internal_node_id":"0.0-8.0-13.0"},{"rt":14518,"responses":"{\"Q0\":\"Magnolia Warbler\"}","answer":["Magnolia Warbler"],"trial_type":"image-multi-choice","trial_index":211,"time_elapsed":2877358,"internal_node_id":"0.0-8.0-14.0"},{"rt":57065,"responses":"{\"Q0\":\"Northern Waterthrush\"}","answer":["Northern Waterthrush"],"trial_type":"image-multi-choice","trial_index":212,"time_elapsed":2935457,"internal_node_id":"0.0-8.0-15.0"},{"rt":49028,"responses":"{\"Q0\":\"Vesper Sparrow\"}","answer":["Chipping Sparrow"],"trial_type":"image-multi-choice","trial_index":213,"time_elapsed":2985527,"internal_node_id":"0.0-8.0-16.0"},{"rt":22742,"responses":"{\"Q0\":\"Lincoln's Sparrow\"}","answer":["Swamp Sparrow"],"trial_type":"image-multi-choice","trial_index":214,"time_elapsed":3009311,"internal_node_id":"0.0-8.0-17.0"},{"rt":24788,"responses":"{\"Q0\":\"Song Sparrow\"}","answer":["Lincoln's Sparrow"],"trial_type":"image-multi-choice","trial_index":215,"time_elapsed":3035146,"internal_node_id":"0.0-8.0-18.0"},{"rt":12152,"responses":"{\"Q0\":\"Northern Waterthrush\"}","answer":["Ovenbird"],"trial_type":"image-multi-choice","trial_index":216,"time_elapsed":3048340,"internal_node_id":"0.0-8.0-19.0"}]