"view_history","rt","trial_type","trial_index","time_elapsed","internal_node_id","sim_score","stimulus","responses","answer"
"[{""page_index"":0,""viewing_time"":10009}]","10010","instructions","0","10014","0.0-0.0","","","",""
"","1930","similarity_demo","1","12962","0.0-1.0","4","[""img/bluejay1.jpg"",""img/bluejay2.jpg""]","",""
"[{""page_index"":0,""viewing_time"":1945}]","1946","instructions","2","15912","0.0-2.0","","","",""
"","1751","similarity_demo","3","18674","0.0-3.0","4","[""img/bluejay1.jpg"",""img/cardinal1.jpg""]","",""
"[{""page_index"":0,""viewing_time"":1094}]","1094","instructions","4","20771","0.0-4.0","","","",""
"[{""page_index"":0,""viewing_time"":1794}]","1795","instructions","5","23569","0.0-5.0","","","",""
"","4126","similarity","6","28712","0.0-6.0-0.0","3","[""img/0868/fd307a36-9a3a-47d7-ab7c-f810d0b35040.jpg"",""img/0894/7dd6ff43-f8fc-408a-8a41-a2b261871820.jpg""]","",""
"","3068","similarity","7","32798","0.0-6.0-1.0","3","[""img/0898/cd3aaa3f-efa9-4ab3-8d6f-a6a9273ddf42.jpg"",""img/0758/d41c06bf-ebaf-454b-91c6-1a17f917b659.jpg""]","",""
"","3800","similarity","8","37612","0.0-6.0-2.0","6","[""img/0903/680ed18e-b311-4ecf-9b00-7dea32128334.jpg"",""img/0894/7fb082e0-ce79-485c-9109-04367fb32275.jpg""]","",""
"","3128","similarity","9","41758","0.0-6.0-3.0","3","[""img/0881/292e9b4b-fca0-4ba8-87f1-4048f9e37b7d.jpg"",""img/0766/33519c22-aaa4-49d7-8d49-ab551db1945e.jpg""]","",""
"","4179","similarity","10","46947","0.0-6.0-4.0","5","[""img/0864/0f537697-a314-47c3-a8cc-8df23b7e536c.jpg"",""img/0860/e8b8c51e-1834-4875-8b61-6c5bc9b178bd.jpg""]","",""
"","4623","similarity","11","52582","0.0-6.0-5.0","6","[""img/0902/27b84584-948a-485b-8749-cb09929ef631.jpg"",""img/0899/06b0fc99-0581-461a-9913-d1a5a941ac61.jpg""]","",""
"","3964","similarity","12","57567","0.0-6.0-6.0","3","[""img/0868/7b212364-ff5f-4e28-9241-7eb6ea00161b.jpg"",""img/0769/35364db7-e0d5-40ef-93dc-faf9dfb95136.jpg""]","",""
"","4158","similarity","13","62738","0.0-6.0-7.0","5","[""img/0764/7f4ee8e3-9315-4a57-be7d-db8454b33766.jpg"",""img/0901/875dedb9-24c9-4443-9f8c-85e97d70ee5a.jpg""]","",""
"","3847","similarity","14","67605","0.0-6.0-8.0","4","[""img/0881/e6746727-7f89-47ec-b939-d98abe78372d.jpg"",""img/0866/23a224f3-2012-4fc8-8e0f-3c36f8de27fd.jpg""]","",""
"","4193","similarity","15","72818","0.0-6.0-9.0","3","[""img/0867/a749dddb-69f0-44a6-acdc-2bf295cf6dcc.jpg"",""img/0899/4408c14d-c168-4a7d-96f6-bc87bfb58f83.jpg""]","",""
"","2345","similarity","16","76174","0.0-6.0-10.0","3","[""img/0875/527ced51-8e53-4aab-ab05-86df219104c0.jpg"",""img/0766/f5f78e4e-d88f-4866-951a-118ba9fec4d0.jpg""]","",""
"","4279","similarity","17","81461","0.0-6.0-11.0","2","[""img/0901/f1116359-1ff1-4638-b3b3-700918d36d18.jpg"",""img/0875/8521fd58-3b1e-4dc5-97ae-804edfa6734a.jpg""]","",""
"","3221","similarity","18","85693","0.0-6.0-12.0","3","[""img/0902/bd89a85f-3853-4786-acd6-98818ee29f1c.jpg"",""img/0860/15b24a61-25be-4356-9eac-5ce95d0cb4a4.jpg""]","",""
"","3843","similarity","19","90546","0.0-6.0-13.0","5","[""img/0874/995f0332-0439-4eb4-add3-957335dbf6d9.jpg"",""img/0867/c71dc569-f49c-4397-8381-68b8d726736d.jpg""]","",""
"","4021","similarity","20","95577","0.0-6.0-14.0","2","[""img/0904/4b8daf2a-13a9-4ea9-9e0b-b265b6e933e7.jpg"",""img/0866/a15b02be-11bb-43e3-b0e0-ecc3bd7dfc49.jpg""]","",""
"","5192","similarity","21","101787","0.0-6.0-15.0","2","[""img/0758/3ddd05d3-557e-4ee7-8b78-9d2d681d8ae2.jpg"",""img/0902/aa6fca32-82b0-4414-b20a-8f6f8aa5a2d2.jpg""]","",""
"","5242","similarity","22","108035","0.0-6.0-16.0","3","[""img/0867/7d1c497b-c1b3-4ed8-abb5-d7f73306015f.jpg"",""img/0898/a8f16b02-e19f-423b-86c3-a36562ae1f9b.jpg""]","",""
"","3398","similarity","23","112447","0.0-6.0-17.0","2","[""img/0904/4e58005d-a2ec-4aaa-b199-445343561396.jpg"",""img/0868/179a5502-ab5c-478e-8263-5a1fbcc101d2.jpg""]","",""
"","5132","similarity","24","118585","0.0-6.0-18.0","3","[""img/0766/0025de5e-f620-4079-8a0f-00326ff3a6b0.jpg"",""img/0864/afcba0a3-7e27-4757-b254-e9f05fad27e2.jpg""]","",""
"","4425","similarity","25","124029","0.0-6.0-19.0","5","[""img/0899/0adc0bc3-6fca-4078-be6f-d45ddf1653d5.jpg"",""img/0766/ae0fce93-fe8d-4aa1-87ca-4c3e4b889f2f.jpg""]","",""
"","3699","similarity","26","128749","0.0-6.0-20.0","3","[""img/0764/83c93cce-18d1-4aa7-9e23-2c268afe0a46.jpg"",""img/0758/61d64021-9214-4951-bdf8-f871f9827cf9.jpg""]","",""
"","3300","similarity","27","133068","0.0-6.0-21.0","2","[""img/0901/bc47e078-bda4-40ed-b89a-bbd819164b95.jpg"",""img/0874/bf14b896-e930-4fd9-9c05-2e83317a2773.jpg""]","",""
"","3783","similarity","28","137860","0.0-6.0-22.0","4","[""img/0875/34132396-d896-4c2d-8087-646dd867e769.jpg"",""img/0758/a085b443-b5d7-4cb2-9ad4-b9dab0fc23f1.jpg""]","",""
"","3444","similarity","29","142316","0.0-6.0-23.0","5","[""img/0867/5e07b34d-b40f-4b1c-ac10-49975bace45f.jpg"",""img/0881/d1982897-8d8d-4704-a940-1ee5d07a1f15.jpg""]","",""
"","3219","similarity","30","146550","0.0-6.0-24.0","2","[""img/0758/a709631e-3705-4725-ac40-f0d916924f08.jpg"",""img/0901/5657dd86-0ff9-4753-ba2b-9dfb223e5c89.jpg""]","",""
"","2973","similarity","31","150534","0.0-6.0-25.0","6","[""img/0868/6a28c3b0-3d76-498a-9fb7-ddafc665eca8.jpg"",""img/0875/99698b4d-b4a1-44bc-8c83-8ea755bbbf61.jpg""]","",""
"","3279","similarity","32","154827","0.0-6.0-26.0","5","[""img/0903/3e9ee8a5-eb66-47f5-8973-8a5af1ddc87e.jpg"",""img/0901/50e1d53e-a49f-4806-8610-be6dec5a2475.jpg""]","",""
"","4024","similarity","33","159860","0.0-6.0-27.0","6","[""img/0894/a3d4170b-b7d8-40e3-955f-87e76ed745fc.jpg"",""img/0899/7f9d45d0-b2c6-40d3-aa41-c207db2c411b.jpg""]","",""
"","3432","similarity","34","164308","0.0-6.0-28.0","5","[""img/0862/fad1d7c1-8187-43c3-942a-0fc12183e48e.jpg"",""img/0867/a498eef3-9fa4-4ab2-9778-4ae82ac40dc5.jpg""]","",""
"","3085","similarity","35","168401","0.0-6.0-29.0","5","[""img/0864/4bd81bc6-c13d-46df-95a9-485886dc7c1b.jpg"",""img/0875/ebf7653f-ff45-4e9f-af58-2c042ab3cd2b.jpg""]","",""
"","3974","similarity","36","173387","0.0-6.0-30.0","5","[""img/0862/47ed5efd-4ec9-4b74-bb4e-a5f5cf0c3e7d.jpg"",""img/0874/ca23d307-fc00-4d7d-9106-584c6eb21b4d.jpg""]","",""
"","2729","similarity","37","177131","0.0-6.0-31.0","3","[""img/0903/b7e3723f-fd03-4f3d-8820-f19496463a34.jpg"",""img/0758/20497cbe-ddae-489e-86e2-ab06985ed07c.jpg""]","",""
"","2923","similarity","38","181069","0.0-6.0-32.0","2","[""img/0866/945c6710-d15b-4a5b-a8f6-69af0850357f.jpg"",""img/0901/5b97abf9-f0c8-4fd1-b921-36d574779078.jpg""]","",""
"","3860","similarity","39","185945","0.0-6.0-33.0","4","[""img/0874/1016b306-087c-4afc-aa08-fa527b28dc76.jpg"",""img/0899/56a605c3-d0a2-4215-89e1-779279d85a7c.jpg""]","",""
"","4707","similarity","40","191663","0.0-6.0-34.0","5","[""img/0903/97a42b34-5462-4665-88c7-83c014b33d24.jpg"",""img/0902/95a36b6b-9601-4fa5-8fd9-606ea62f9425.jpg""]","",""
"","2446","similarity","41","195126","0.0-6.0-35.0","5","[""img/0758/d540bee6-b460-4c32-ac57-bc282742d7d4.jpg"",""img/0866/be24ab58-230e-4db8-9f45-ff04c9aec6bb.jpg""]","",""
"","3626","similarity","42","199776","0.0-6.0-36.0","2","[""img/0875/2e13d160-eea1-416b-aff1-d37ab99ecc1d.jpg"",""img/0903/5ea5bbe0-f238-4724-abe7-9ed8dee8c0ba.jpg""]","",""
"","4419","similarity","43","213526","0.0-6.0-37.0","3","[""img/0864/6e846d43-94a6-4b37-a268-65eda979f052.jpg"",""img/0902/44cd9b7e-fdfb-4f78-90de-8d4c9d279365.jpg""]","",""
"","3781","similarity","44","218318","0.0-6.0-38.0","2","[""img/0901/a6776381-91fe-43f8-ab73-261d318f95fd.jpg"",""img/0867/aa05d113-fc19-4756-a8eb-7878f580bc92.jpg""]","",""
"","4240","similarity","45","223583","0.0-6.0-39.0","6","[""img/0862/e8cc3bdf-cc43-4565-bccf-492626c70953.jpg"",""img/0860/b03b963d-949b-4d8d-b19c-4950c89eeca2.jpg""]","",""
"","2812","similarity","46","227418","0.0-6.0-40.0","7","[""img/0867/6e19c858-b606-45b2-a4c6-910a73f1d82c.jpg"",""img/0868/3a62db2d-97e9-44a3-b8e3-a48c6f0e423b.jpg""]","",""
"","3067","similarity","47","231504","0.0-6.0-41.0","6","[""img/0904/25365108-e038-4021-aac9-797f2063b337.jpg"",""img/0899/f95cbdb4-f804-4f5d-ad76-373ad343e658.jpg""]","",""
"","3194","similarity","48","235712","0.0-6.0-42.0","3","[""img/0862/f43ceabf-acc1-4107-b857-5d1849808f93.jpg"",""img/0894/492d2f29-d7b9-4422-8be8-47fd58bfaa8b.jpg""]","",""
"","3218","similarity","49","239951","0.0-6.0-43.0","1","[""img/0875/2c361b79-c3d1-4eda-812e-bf03192407bf.jpg"",""img/0904/0d17b811-063e-416e-a23c-3b3cfa4fcce5.jpg""]","",""
"","3522","similarity","50","244495","0.0-6.0-44.0","3","[""img/0874/3ce41e7c-40c8-4d58-a546-171114521796.jpg"",""img/0898/08c72dac-f8ad-407a-9ce6-8c9a5d679c3a.jpg""]","",""
"","4152","similarity","51","249657","0.0-6.0-45.0","1","[""img/0898/a114b375-cb89-44ba-9498-74213f1ecdee.jpg"",""img/0868/4a8a45ed-2c4f-421b-9564-409a33ecd26c.jpg""]","",""
"","4376","similarity","52","255046","0.0-6.0-46.0","3","[""img/0901/c6df1a21-44ed-47c2-960e-7c52220e329e.jpg"",""img/0860/4f695df5-afac-4da7-9875-fee39b0b24ad.jpg""]","",""
"","5386","similarity","53","261440","0.0-6.0-47.0","5","[""img/0894/b422d5c6-3c5a-49ae-a53e-7e88ac993f49.jpg"",""img/0902/24d10fe7-314f-4d5a-8c7b-b43121bba0a4.jpg""]","",""
"","3608","similarity","54","266060","0.0-6.0-48.0","2","[""img/0764/6c7fe363-2d37-418f-9e5e-a3273af5d4fb.jpg"",""img/0862/e0f1a4e9-e1b6-45f7-af67-89f334e6630d.jpg""]","",""
"","4744","similarity","55","271820","0.0-6.0-49.0","6","[""img/0881/4bd34581-94d8-4e88-8c89-5cef864ca3be.jpg"",""img/0758/caa93da2-9edf-49fa-96b9-32dedd8f5078.jpg""]","",""
"","3450","similarity","56","276276","0.0-6.0-50.0","6","[""img/0766/989c5c7f-1aff-4442-ac63-9d46acf4a891.jpg"",""img/0769/0fe124d3-bcad-45f6-b64d-8f6eb8ee5251.jpg""]","",""
"","3825","similarity","57","281114","0.0-6.0-51.0","4","[""img/0875/3ecb367d-e9eb-4826-8aaa-7aa72fb98019.jpg"",""img/0866/02f5e6b9-52b7-448c-9708-5b460d0c9a23.jpg""]","",""
"","4192","similarity","58","286324","0.0-6.0-52.0","5","[""img/0894/c505c65a-cde2-4f2c-8cde-f8676f7c894d.jpg"",""img/0904/60d1a521-edf7-4696-9263-f21ac0e62a01.jpg""]","",""
"","5019","similarity","59","292354","0.0-6.0-53.0","3","[""img/0758/65d426d6-3ff6-415d-8654-a43b83ecc4fe.jpg"",""img/0769/35f2dd39-40aa-498e-b401-9f1ef2622d00.jpg""]","",""
"","5369","similarity","60","298742","0.0-6.0-54.0","3","[""img/0902/c018bd7a-d91a-4192-aea4-7259cfcdb6c4.jpg"",""img/0874/29830da7-be5f-44e5-b141-652a0ccf7269.jpg""]","",""
"","3512","similarity","61","303261","0.0-6.0-55.0","3","[""img/0903/b548d383-2a95-4575-8c13-647873751ff1.jpg"",""img/0862/eefa5588-9efd-4591-aa5f-a2e17c7d7bcc.jpg""]","",""
"","5618","similarity","62","309888","0.0-6.0-56.0","4","[""img/0866/07c9c966-3c8d-40e7-8128-92b2acbaed5d.jpg"",""img/0894/2d2db7b3-e8a3-499b-b63a-14f51bf73882.jpg""]","",""
"","4147","similarity","63","315051","0.0-6.0-57.0","2","[""img/0867/c66898ba-b71b-4d50-84f9-f7f84853a98d.jpg"",""img/0904/d23dd7be-7fe8-4435-82f7-bd592c01e6a1.jpg""]","",""
"","3989","similarity","64","320056","0.0-6.0-58.0","5","[""img/0875/d59ff733-eaff-4ee2-9443-06954dd0bcb6.jpg"",""img/0881/33d65d80-8a8e-4ecf-852d-0ad7725c17a2.jpg""]","",""
"","5569","similarity","65","326639","0.0-6.0-59.0","2","[""img/0866/620cd1aa-0800-4414-8f6e-90342e7a99ad.jpg"",""img/0860/94ef7afc-e0e6-4a15-98c6-0bfac82bc832.jpg""]","",""
"","4172","similarity","66","331830","0.0-6.0-60.0","2","[""img/0903/2a9c8033-3e70-47fa-816d-97ee1813a3a3.jpg"",""img/0866/bf14b5bd-fb55-47db-86b9-4f8aeb9a6dad.jpg""]","",""
"","4120","similarity","67","336970","0.0-6.0-61.0","5","[""img/0860/c7047cd2-7cc1-41b6-8a34-c0986774975f.jpg"",""img/0875/5a7c4e35-6514-4e12-8879-d16071da4cd6.jpg""]","",""
"","4296","similarity","68","342280","0.0-6.0-62.0","2","[""img/0898/68476bbb-34a1-42d9-8bc1-deab783d4489.jpg"",""img/0862/5d887e9f-89e2-4ebc-80a0-6d46fe6480db.jpg""]","",""
"","4874","similarity","69","348162","0.0-6.0-63.0","3","[""img/0902/af45fe42-178c-4c1a-99ef-256e87e3b092.jpg"",""img/0766/71b81ebd-0937-4d7f-b8bf-c4e46a4728fd.jpg""]","",""
"","2777","similarity","70","351954","0.0-6.0-64.0","6","[""img/0758/821c68d3-5cb0-4eae-8659-30e6263fca39.jpg"",""img/0864/8ddd2e30-a1d0-479f-9cbe-591213023893.jpg""]","",""
"","3374","similarity","71","356340","0.0-6.0-65.0","2","[""img/0894/5f15154e-e72e-4ce5-aafb-bce6f0564006.jpg"",""img/0860/9593362c-9fe5-4d12-9735-6000a11f6aa5.jpg""]","",""
"","2531","similarity","72","359891","0.0-6.0-66.0","1","[""img/0899/a05bea16-2bb4-4cb9-b8fb-4ff975db6971.jpg"",""img/0868/8b0b8473-e2c0-4331-aa56-c3a5c29369da.jpg""]","",""
"","2795","similarity","73","363703","0.0-6.0-67.0","5","[""img/0866/9b38d691-1802-4959-ab3f-fc902f0e4ea6.jpg"",""img/0862/fb26cb07-d5a9-4653-813c-f41609f26cd5.jpg""]","",""
"","3957","similarity","74","368672","0.0-6.0-68.0","4","[""img/0860/71e1aad0-2cdf-43bb-94a4-a8c016997c30.jpg"",""img/0758/7fba58df-2a7a-4b76-8a8f-62739f97f271.jpg""]","",""
"","3719","similarity","75","373407","0.0-6.0-69.0","1","[""img/0902/0eb85fbc-27c8-41df-9d0b-a5f9efd417d1.jpg"",""img/0867/2e1a0b58-cdb1-4107-a14e-452530d7b9b0.jpg""]","",""
"","4710","similarity","76","379137","0.0-6.0-70.0","4","[""img/0862/1c20f772-3a51-4a80-aac0-f57dc9f86c28.jpg"",""img/0901/4f9cffe0-c0be-4d7f-bacd-9d51efd19b4a.jpg""]","",""
"","3536","similarity","77","383696","0.0-6.0-71.0","6","[""img/0867/8ba0c5a7-c7e4-42cf-a80a-543763b90779.jpg"",""img/0866/f756f7d1-9ad8-4a34-9ef6-7a443d705bfe.jpg""]","",""
"","3580","similarity","78","388284","0.0-6.0-72.0","3","[""img/0860/524b2e98-5767-4d53-942c-ebae6925659b.jpg"",""img/0904/2c98dc56-88d1-4fb5-a999-b6a7861f65f0.jpg""]","",""
"","2414","similarity","79","391710","0.0-6.0-73.0","1","[""img/0875/5a1e5100-0d94-4fec-bbe9-ca9894d2cf8e.jpg"",""img/0899/fef567a2-c121-4481-9af0-ff108d199bbf.jpg""]","",""
"","3665","similarity","80","396383","0.0-6.0-74.0","2","[""img/0899/b45c550b-96c3-4255-ad59-48a2b4db1c1e.jpg"",""img/0758/7ee8bc8f-c40b-4b3a-84ec-3e83580622d4.jpg""]","",""
"","5771","similarity","81","12161569","0.0-6.0-75.0","6","[""img/0862/53a9cf7c-93c4-41b9-952f-07d17f7a17b2.jpg"",""img/0875/fb732ab5-013a-4366-9f65-27811ed157e9.jpg""]","",""
"","3698","similarity","82","12166285","0.0-6.0-76.0","6","[""img/0901/a0d65c84-3f20-476a-92d1-0c01e8019cf4.jpg"",""img/0894/151063aa-6472-4745-837b-36603aba5966.jpg""]","",""
"","3349","similarity","83","12170650","0.0-6.0-77.0","3","[""img/0766/27f54113-8561-4568-9ffe-0a1650ae65ec.jpg"",""img/0758/ddc336e9-a8b6-4bb9-937a-c7e25e0e9250.jpg""]","",""
"","2793","similarity","84","12174453","0.0-6.0-78.0","5","[""img/0894/2217bdcd-23a7-42d3-823b-23f2488d7e87.jpg"",""img/0764/5d6fa3ce-9083-410c-bbdb-336a49b94cfc.jpg""]","",""
"","4817","similarity","85","12180284","0.0-6.0-79.0","4","[""img/0860/61fb959d-d4d9-4de4-9e4e-4fa62b4cfcd5.jpg"",""img/0867/85a96c62-548f-4994-9553-819e03c3135a.jpg""]","",""
"","4440","similarity","86","12185744","0.0-6.0-80.0","5","[""img/0898/c3cecf20-f7fd-45fa-97d0-dc0a63e8d6c0.jpg"",""img/0901/fb0a8e69-7f19-4e6e-a6bb-a48f97f9b4f3.jpg""]","",""
"","3474","similarity","87","12190228","0.0-6.0-81.0","3","[""img/0874/7e4f2150-3b59-4a36-b5da-a4e0ba410531.jpg"",""img/0764/e0788029-9d7f-414c-b747-46d2a99f7c86.jpg""]","",""
"","4130","similarity","88","12195378","0.0-6.0-82.0","2","[""img/0899/565ccdd9-0933-4536-a625-3c0e25a713dd.jpg"",""img/0862/847e5208-38ec-4f36-949c-296cdd7424ee.jpg""]","",""
"","5155","similarity","89","12201552","0.0-6.0-83.0","5","[""img/0766/f3276cc4-65de-4c2d-88d5-6cfebce14b8f.jpg"",""img/0901/58978a6d-a3e2-4c59-8d62-f60693ecc0f6.jpg""]","",""
"","4378","similarity","90","12206950","0.0-6.0-84.0","3","[""img/0881/e046471a-35b4-4159-bbf7-3cfd201bef66.jpg"",""img/0898/8605a25b-6895-476d-8c13-df7a83f96093.jpg""]","",""
"","3720","similarity","91","12211682","0.0-6.0-85.0","4","[""img/0868/77091fc7-a590-4ebb-b915-fdb2483a2399.jpg"",""img/0860/fd4662f9-4c03-4d79-8593-06735e55a64b.jpg""]","",""
"","5369","similarity","92","12218069","0.0-6.0-86.0","3","[""img/0758/b76ceca7-95ac-46e4-ac13-da02c8e93be9.jpg"",""img/0868/4bd5105a-d2c3-4f82-8c80-57196106ba53.jpg""]","",""
"","4081","similarity","93","12223167","0.0-6.0-87.0","1","[""img/0864/e02eddb5-f468-499c-91bf-f7be3ffe979b.jpg"",""img/0894/10f22b96-040c-44f4-950b-a4963f3f506c.jpg""]","",""
"","4042","similarity","94","12228223","0.0-6.0-88.0","1","[""img/0866/d266fece-59b3-46fa-b69f-96f6efb81b59.jpg"",""img/0902/a323b62d-2fd5-4ac8-acc6-35b768f3c3f2.jpg""]","",""
"","3703","similarity","95","12232935","0.0-6.0-89.0","1","[""img/0769/5bd04f55-d091-4f57-85db-38426f26bd1a.jpg"",""img/0867/26611f4e-d694-4460-b7e2-43c62753ddc3.jpg""]","",""
"","4904","similarity","96","12238857","0.0-6.0-90.0","5","[""img/0874/ca76a855-4e77-4f2f-872a-0a718153e7ed.jpg"",""img/0875/03c3c331-738b-4446-af92-3d7386b08c2e.jpg""]","",""
"","4706","similarity","97","12244574","0.0-6.0-91.0","6","[""img/0864/c22faebd-9c53-47bc-ada3-b9a30c688e75.jpg"",""img/0874/99f6563c-8a8d-4c1c-a41d-667b618c3fd5.jpg""]","",""
"","4519","similarity","98","12250103","0.0-6.0-92.0","6","[""img/0881/84397291-bc14-4fbf-90e8-241e486ab0fe.jpg"",""img/0862/f23038d4-c366-4f70-979f-66b62362efa4.jpg""]","",""
"","5245","similarity","99","12256361","0.0-6.0-93.0","6","[""img/0864/87c467d3-abca-482f-ad80-3766c21b1bb3.jpg"",""img/0881/14236cf2-6b95-48b8-9368-78af09d2d27f.jpg""]","",""
"","3532","similarity","100","12260915","0.0-6.0-94.0","5","[""img/0899/8de08897-b430-42fe-9d42-840670b80f94.jpg"",""img/0901/2a953e50-d237-405c-a38d-5ed21494c968.jpg""]","",""
"","4157","similarity","101","12266081","0.0-6.0-95.0","2","[""img/0874/eba003b4-cdab-4eee-8bc3-f064c7d94165.jpg"",""img/0766/a1ed3f0f-e338-4a26-8fe4-4370f0c9fa6e.jpg""]","",""
"","3670","similarity","102","12270765","0.0-6.0-96.0","3","[""img/0881/6b1189e6-232d-4042-8885-16dc7b10e0d4.jpg"",""img/0899/25ae6ec8-9565-49fe-a8bb-8d0666f52716.jpg""]","",""
"","3559","similarity","103","12275341","0.0-6.0-97.0","3","[""img/0862/99a99e39-8355-44ec-b993-e7bcec111e1c.jpg"",""img/0902/0db94c50-f1fb-4091-953c-29ca0466bee2.jpg""]","",""
"","5531","similarity","104","12281885","0.0-6.0-98.0","6","[""img/0899/93494f3b-d539-4075-b027-d82e344563da.jpg"",""img/0764/f9f890e6-3c2f-40cd-84e9-85e0b54cb28e.jpg""]","",""
"","5012","similarity","105","12287916","0.0-6.0-99.0","4","[""img/0758/7ffbc76b-1fc1-432c-8f7e-9ec8d1b3f643.jpg"",""img/0862/92f0146c-20c4-482e-aef5-adb693790338.jpg""]","",""
"","3385","similarity","106","12292319","0.0-6.0-100.0","3","[""img/0764/c643e165-df19-459f-8c2b-8357bf432a17.jpg"",""img/0898/f3a3f225-1248-4ac7-b93b-f0ff28485bf3.jpg""]","",""
"","3013","similarity","107","12296353","0.0-6.0-101.0","3","[""img/0901/b123d109-47b4-4f9a-80c9-9bb16da42efa.jpg"",""img/0902/d5e25767-e8ec-45f3-ac0a-7b4a6f7a9edc.jpg""]","",""
"","3249","similarity","108","12300619","0.0-6.0-102.0","2","[""img/0764/c80b3e06-2ee3-4326-9678-340607eb5348.jpg"",""img/0868/293079b8-7e0c-4afd-a390-1e5d35fe3ded.jpg""]","",""
"","2579","similarity","109","12304212","0.0-6.0-103.0","4","[""img/0769/3c1203c5-2ce7-466e-957a-8d77b5905460.jpg"",""img/0881/445edb15-bd7f-4af3-8bd5-c6ad9677bb31.jpg""]","",""
"","3950","similarity","110","12309170","0.0-6.0-104.0","2","[""img/0864/1ebbc554-99fa-49f9-8799-317375a79820.jpg"",""img/0769/48a1144d-fbda-4809-991b-fc8424a32ee4.jpg""]","",""
"","4496","similarity","111","12314684","0.0-6.0-105.0","7","[""img/0866/6f2a90d7-14f1-4f1b-bd64-fc0af6b9fe44.jpg"",""img/0868/d98ca254-b195-477f-b57e-5760a2717db8.jpg""]","",""
"","4654","similarity","112","12320352","0.0-6.0-106.0","3","[""img/0868/c8ac40c7-6904-4e13-8d61-c75d3052dc4e.jpg"",""img/0862/de9ad88c-b522-430a-8ee9-eb06a9f85df5.jpg""]","",""
"","3800","similarity","113","12325170","0.0-6.0-107.0","4","[""img/0766/51d3aab4-3d09-4dda-b99d-3dc7aaabc6f2.jpg"",""img/0898/ec565187-2e31-4fdd-9a5c-153d0c789ae0.jpg""]","",""
"","3171","similarity","114","12329366","0.0-6.0-108.0","2","[""img/0898/5f699581-3853-4547-856c-12f419ba5af7.jpg"",""img/0864/5f33e097-23e3-4002-882d-76e8cb15f451.jpg""]","",""
"","4051","similarity","115","12334422","0.0-6.0-109.0","1","[""img/0868/d6d1f30d-4323-435a-b194-7892521bc57e.jpg"",""img/0902/8af4182a-9af9-4212-a436-9195555112d6.jpg""]","",""
"","2806","similarity","116","12338234","0.0-6.0-110.0","6","[""img/0904/24fc38fe-842c-4831-ad8a-b1de5c25c0a8.jpg"",""img/0764/b328441c-f81c-486c-9eae-b947c70ba7cd.jpg""]","",""
"","3818","similarity","117","12343059","0.0-6.0-111.0","2","[""img/0894/6b2e9509-8699-42b7-9582-7741df0ba2d7.jpg"",""img/0875/f87b67d7-c33e-40d1-b281-248c4be1cb6e.jpg""]","",""
"","4222","similarity","118","12348295","0.0-6.0-112.0","1","[""img/0868/09a9ef4d-d000-4cfa-a6aa-ebec7c2edeb4.jpg"",""img/0874/85eb9b8a-c4c6-4e5a-b8e7-363a87a82054.jpg""]","",""
"","3587","similarity","119","21407464","0.0-6.0-113.0","3","[""img/0904/06dacdc5-2206-4fb8-92b7-88042d22833c.jpg"",""img/0898/40f99fb2-64d2-4e72-8a7f-a1cf60741e69.jpg""]","",""
"","3976","similarity","120","21412469","0.0-6.0-114.0","2","[""img/0860/87039971-2210-4aab-93c0-8e9b5f1655b2.jpg"",""img/0766/79767d11-b612-4e8a-9e4b-a8ac95bb6a54.jpg""]","",""
"","3750","similarity","121","21417224","0.0-6.0-115.0","2","[""img/0894/5c7677b0-a4f1-479e-b274-7822c415175a.jpg"",""img/0874/2c9464dd-8a23-4baa-ac94-1ba3af5c15cc.jpg""]","",""
"","4411","similarity","122","21422643","0.0-6.0-116.0","5","[""img/0899/7b7380d5-d2be-44e5-a09a-c1756f87ef71.jpg"",""img/0903/47e39de8-6959-469f-8be9-6999a6db207c.jpg""]","",""
"","7051","similarity","123","21430702","0.0-6.0-117.0","4","[""img/0881/f62bdcd1-a4b7-4d48-83da-d9c9e01c8727.jpg"",""img/0764/55b3fab1-b809-4d38-a461-3f40ce062f52.jpg""]","",""
"","4052","similarity","124","21435770","0.0-6.0-118.0","5","[""img/0903/24477210-856c-4550-9de0-9f85a32762eb.jpg"",""img/0769/75f7e514-0548-4329-b1e4-93c05e74f038.jpg""]","",""
"","4613","similarity","125","21441405","0.0-6.0-119.0","5","[""img/0901/1ede21d9-384f-4150-86b5-e1c57b5dc1d4.jpg"",""img/0904/6291eb43-c10c-4810-a36a-101d09868b04.jpg""]","",""
"","4550","similarity","126","21446962","0.0-6.0-120.0","4","[""img/0860/17b44a7d-c5ca-479f-9e87-f65a64f5c80e.jpg"",""img/0881/adc02f34-ce97-4aef-850f-00519df06fd7.jpg""]","",""
"","3889","similarity","127","21451860","0.0-6.0-121.0","6","[""img/0758/e1ba5e53-addc-436a-b428-d34fc1b130dc.jpg"",""img/0874/767f289c-9814-4496-803f-745cc8913d1f.jpg""]","",""
"","4188","similarity","128","21457058","0.0-6.0-122.0","5","[""img/0901/da4fe30f-d12a-491e-96a2-5ab8ebaadd09.jpg"",""img/0769/f73c5138-2f4c-4354-981c-129dff9cc734.jpg""]","",""
"","2605","similarity","129","21460670","0.0-6.0-123.0","6","[""img/0902/2db723b6-130f-454c-8c8d-88829edbcd65.jpg"",""img/0904/696ebb60-8891-417a-91fd-c53218907a95.jpg""]","",""
"","3297","similarity","130","21464986","0.0-6.0-124.0","3","[""img/0899/d60714ae-98d7-4564-8c98-94dba1351135.jpg"",""img/0864/e336a4c5-6648-4fd7-b2f6-93a3fb83f8c6.jpg""]","",""
"","3006","similarity","131","21469011","0.0-6.0-125.0","1","[""img/0766/1bc0dccc-a5b5-4375-87fa-28360ca42b12.jpg"",""img/0868/15dd6fd7-791e-4b53-b203-195d617521a4.jpg""]","",""
"","2964","similarity","132","21472982","0.0-6.0-126.0","3","[""img/0764/c01e2d65-6586-441b-bef5-3c96fcd85380.jpg"",""img/0864/66091c27-e588-4476-8af9-265dc6be4156.jpg""]","",""
"","5396","similarity","133","21479393","0.0-6.0-127.0","2","[""img/0899/fd9efb43-701f-4cd6-baaa-4c38315f4bdc.jpg"",""img/0866/8efcaa46-83ab-4dee-a35f-850402aa21ae.jpg""]","",""
"","3795","similarity","134","21484206","0.0-6.0-128.0","2","[""img/0901/148b747a-7392-437e-8823-33053c5dff3f.jpg"",""img/0881/566f45f8-5fed-4479-a60f-26377e60a62d.jpg""]","",""
"","4987","similarity","135","21490214","0.0-6.0-129.0","7","[""img/0898/4184e5a2-84ea-4f36-9b42-ae58646f6f87.jpg"",""img/0903/5995f4a8-fa82-46f8-8760-fd7800a5ca34.jpg""]","",""
"","7119","similarity","136","21498346","0.0-6.0-130.0","1","[""img/0894/b2d2f66e-e480-46da-a02a-6d0c6b285d78.jpg"",""img/0867/075e0f95-856b-4cbb-acf5-092393aaf04e.jpg""]","",""
"","4588","similarity","137","21503956","0.0-6.0-131.0","3","[""img/0874/adf9a8f1-c40b-402b-b95b-1e85a54a7b62.jpg"",""img/0903/71dbc325-b588-4297-a5cf-7f268a722ad9.jpg""]","",""
"","4587","similarity","138","21509560","0.0-6.0-132.0","5","[""img/0899/0e1d936a-dbe2-4afc-9f19-7b7a1ae6c9ed.jpg"",""img/0898/0af304a2-6a7a-4082-ab7c-4450cd08cc58.jpg""]","",""
"","4038","similarity","139","21514618","0.0-6.0-133.0","1","[""img/0867/f26f6b60-f772-4f4c-95a4-addc62cfd692.jpg"",""img/0764/438c0217-036f-43c9-9b87-f43144e46011.jpg""]","",""
"","6212","similarity","140","21521842","0.0-6.0-134.0","3","[""img/0866/386235d2-6857-41e7-88a8-25cfc3430025.jpg"",""img/0769/688d0c52-ad73-4065-a5eb-f8c10d076bff.jpg""]","",""
"","4004","similarity","141","21526866","0.0-6.0-135.0","3","[""img/0860/18dfed73-e36b-4487-a8bd-0b8cff8e3668.jpg"",""img/0898/81b08535-2020-4c15-9ce4-2f1e460755ae.jpg""]","",""
"","4525","similarity","142","21532406","0.0-6.0-136.0","1","[""img/0881/f6bd3b96-dc40-4e99-8681-bc3a35cf896d.jpg"",""img/0903/647ce311-8c71-479a-8361-961db1457139.jpg""]","",""
"","4532","similarity","143","21537946","0.0-6.0-137.0","6","[""img/0894/4739e06d-c31e-4bf1-bf91-c97fa9afb456.jpg"",""img/0766/09f646c8-a69e-4ed3-879c-8d29b04ad7f9.jpg""]","",""
"","5463","similarity","144","21544425","0.0-6.0-138.0","1","[""img/0860/8fdba999-b946-4c7d-9891-336018b563ef.jpg"",""img/0764/8389e74f-e0e0-435d-945f-da1f4c92ccb6.jpg""]","",""
"","3790","similarity","145","21549222","0.0-6.0-139.0","5","[""img/0769/f6396414-6788-4d59-9683-de153298d89c.jpg"",""img/0902/1a120fb9-dbd6-443e-ba91-b4aceab963da.jpg""]","",""
"","3764","similarity","146","21554004","0.0-6.0-140.0","5","[""img/0904/5cceabc9-de1d-4c67-989b-c28a4ef77e79.jpg"",""img/0903/b0df4094-a3be-4b5b-81bd-8d260f13f61b.jpg""]","",""
"","3214","similarity","147","21558234","0.0-6.0-141.0","6","[""img/0764/fb7d4a20-a475-465e-a74f-aa39a0d33d16.jpg"",""img/0769/04347740-f8f6-48bb-887a-f68babd0a0d4.jpg""]","",""
"","5441","similarity","148","21564698","0.0-6.0-142.0","2","[""img/0902/b56db912-c3c0-4fc2-b325-d640acd7cb58.jpg"",""img/0881/f037e3b0-09cb-4a83-b2d9-6a71fe474e63.jpg""]","",""
"","5368","similarity","149","21571082","0.0-6.0-143.0","1","[""img/0866/11a1d141-be5e-443c-98c1-a9d4d9e3dec0.jpg"",""img/0864/ef9cbca0-4be8-435d-ad49-977259e80409.jpg""]","",""
"","4421","similarity","150","21576514","0.0-6.0-144.0","6","[""img/0902/6730b12a-f0a7-4587-8c10-a32fae16565b.jpg"",""img/0898/e167334e-cc1d-4986-b3b1-c7bc7da64baa.jpg""]","",""
"","4130","similarity","151","21581652","0.0-6.0-145.0","5","[""img/0862/cdaed51d-9e2f-4807-801a-4663c40077e2.jpg"",""img/0864/c3b63e8f-ea39-4d70-a1f2-b3fe4be8eb75.jpg""]","",""
"","3846","similarity","152","21586518","0.0-6.0-146.0","2","[""img/0875/cff79b3a-a797-4393-9757-6275f999ec04.jpg"",""img/0898/82231d4c-218b-4d0a-b50d-35a49b524e97.jpg""]","",""
"","4771","similarity","153","21592300","0.0-6.0-147.0","6","[""img/0874/a3bc679d-619f-4db6-bb68-116dcb757d9c.jpg"",""img/0881/4da99fdd-1f40-4bbb-8e21-8833eef313f5.jpg""]","",""
"","2958","similarity","154","21596270","0.0-6.0-148.0","1","[""img/0758/2fa3e613-e676-4e6e-bd12-705327eeb3e1.jpg"",""img/0894/1b3888e6-cf36-4c4a-a039-187aa5cb71ac.jpg""]","",""
"","4996","similarity","155","21602288","0.0-6.0-149.0","3","[""img/0904/9b3568cc-3cf7-42be-9df3-fdafde7a58b8.jpg"",""img/0864/a248adb3-c70b-4652-b7a3-776d2a1e904b.jpg""]","",""
"","4432","similarity","156","21607743","0.0-6.0-150.0","5","[""img/0769/e8ed913b-8a88-44f6-9327-d34afec3116b.jpg"",""img/0899/9de5e857-aa9a-4e0c-8ba2-46d79bd069a4.jpg""]","",""
"","4498","similarity","157","21616684","0.0-6.0-151.0","5","[""img/0764/4eff630a-6426-4f8d-b2ba-b4d9842a0962.jpg"",""img/0903/8fcafe03-43df-4c45-9da5-0df3a1eeccc5.jpg""]","",""
"","4104","similarity","158","21621808","0.0-6.0-152.0","2","[""img/0903/c3cb4a01-2797-43ca-b216-88c67b323fbb.jpg"",""img/0864/6f631579-acf1-415c-a42c-1207f62a8d99.jpg""]","",""
"","4934","similarity","159","21627752","0.0-6.0-153.0","1","[""img/0894/0130a973-d993-41f8-874a-fee23d9ac11f.jpg"",""img/0881/44e09805-5a25-4f17-a716-4ad4a331b174.jpg""]","",""
"","4576","similarity","160","21633346","0.0-6.0-154.0","6","[""img/0875/5a716432-c6ca-4b1c-955a-2b8ac25198ee.jpg"",""img/0867/bf560d4f-dee3-4f11-a385-705cc1aa5f3c.jpg""]","",""
"","2649","similarity","161","21637004","0.0-6.0-155.0","5","[""img/0867/cc72ed48-7704-422c-86d6-467a1145287a.jpg"",""img/0758/d57c2592-a317-4f63-91be-91a3a9afd222.jpg""]","",""
"","3014","similarity","162","21641040","0.0-6.0-156.0","2","[""img/0868/83b4350a-3b70-4cea-b7f5-b5b56f3050a8.jpg"",""img/0901/12da1841-e611-435c-9719-109413d536a8.jpg""]","",""
"","4888","similarity","163","21646935","0.0-6.0-157.0","6","[""img/0769/8598a429-c671-4d2f-842c-32f681f5e412.jpg"",""img/0894/661b9f9f-4bde-487a-b1ed-87085fde6948.jpg""]","",""
"","3594","similarity","164","21651545","0.0-6.0-158.0","1","[""img/0904/b5855d6a-7ef9-46ca-9215-6e9fa046e543.jpg"",""img/0758/6cd8c362-ae2a-41eb-80a3-3a4f7ace1530.jpg""]","",""
"","6499","similarity","165","21659061","0.0-6.0-159.0","2","[""img/0874/8cdb1c07-1c32-46d2-981c-3636560fa6e5.jpg"",""img/0904/56e73f28-7e64-489b-a161-e6b1a063878d.jpg""]","",""
"","2204","similarity","166","21662278","0.0-6.0-160.0","1","[""img/0864/ea327690-500b-4137-bf91-451b309fe6a5.jpg"",""img/0901/4ca4f962-40c0-4c59-b14a-3cd7b8c9029b.jpg""]","",""
"","4626","similarity","167","21667918","0.0-6.0-161.0","2","[""img/0898/881e2a85-d5c2-49be-a0c6-8a6ce2c4af08.jpg"",""img/0866/a04d37f0-99dd-478a-b6c6-58b215138f84.jpg""]","",""
"","4162","similarity","168","21673094","0.0-6.0-162.0","5","[""img/0766/a0270213-fa0e-4972-8b56-228c3e01ff90.jpg"",""img/0903/81368973-de81-46f4-844f-b901f3bfd66d.jpg""]","",""
"","5629","similarity","169","21679735","0.0-6.0-163.0","3","[""img/0860/f44ba3fb-03a2-42f0-8509-2c1ded493086.jpg"",""img/0899/a048912c-b12c-40e3-90af-46b69b0cc4fe.jpg""]","",""
"","2988","similarity","170","21683733","0.0-6.0-164.0","2","[""img/0766/717fd72f-a281-499b-a5ba-5e2ecc4d4866.jpg"",""img/0862/57b6f83f-c763-4858-830d-102f97bfefbf.jpg""]","",""
"","4038","similarity","171","21688777","0.0-6.0-165.0","6","[""img/0898/0c7dde4f-efce-4b7a-9387-6921635b7890.jpg"",""img/0894/7f2f31fd-6618-41c6-b65a-0fd8b2851bc9.jpg""]","",""
"","4316","similarity","172","21694101","0.0-6.0-166.0","1","[""img/0867/f8488a47-94ee-4166-952c-44e16cf172f6.jpg"",""img/0766/5d6e0d1d-4369-41f0-a64c-91f3503055c7.jpg""]","",""
"","4315","similarity","173","21699431","0.0-6.0-167.0","2","[""img/0904/e9423a8c-f946-43ad-ab7b-931acef870e2.jpg"",""img/0862/7918ca67-5bd3-4606-a5ea-c39fb11a9297.jpg""]","",""
"","2899","similarity","174","21703351","0.0-6.0-168.0","1","[""img/0866/c446214b-a368-4c65-ae39-ea46894256ab.jpg"",""img/0874/c0378dac-9370-439a-8b79-db27c96fb390.jpg""]","",""
"","3754","similarity","175","21708116","0.0-6.0-169.0","2","[""img/0903/2c7b4aed-6038-4aac-958a-e3e58341c313.jpg"",""img/0868/4e626425-63c8-484a-8a1d-e66ee4e0bef8.jpg""]","",""
"","4918","similarity","176","21714051","0.0-6.0-170.0","6","[""img/0769/da36e3f7-2337-434f-ab57-11822dd7eed7.jpg"",""img/0904/b7c2a2c8-df33-4473-b3d4-ff7147c60db3.jpg""]","",""
"","5132","similarity","177","21720196","0.0-6.0-171.0","1","[""img/0875/a4935837-7d3c-4df6-88c1-36a94d4991ca.jpg"",""img/0764/1def7b22-b054-4ec2-860b-73d25691823b.jpg""]","",""
"","5569","similarity","178","21726774","0.0-6.0-172.0","3","[""img/0860/4a022222-056d-461c-ab02-39fac9647552.jpg"",""img/0903/bf0a7d60-eca5-44b0-bafd-baf21db9904b.jpg""]","",""
"","2102","similarity","179","21729887","0.0-6.0-173.0","1","[""img/0864/0116ca98-293d-4fa6-a93b-5a6144ef64cc.jpg"",""img/0867/179ab87a-8eac-4c52-a41f-2e48e3120f09.jpg""]","",""
"","6288","similarity","180","21737195","0.0-6.0-174.0","3","[""img/0868/0d3abd3a-b6c3-4584-a9f7-e2da63748b3d.jpg"",""img/0864/3651d070-2fc5-4848-b6a6-088a2d9ac5c9.jpg""]","",""
"","3113","similarity","181","21741323","0.0-6.0-175.0","5","[""img/0898/04e39a7a-fcf6-4156-ab0e-f5871f335e1c.jpg"",""img/0769/82ab9db6-4578-4e79-874f-f09100439f09.jpg""]","",""
"","3857","similarity","182","21746197","0.0-6.0-176.0","6","[""img/0766/535849cc-ff5d-4df9-8f31-0ce94a97d571.jpg"",""img/0764/8740679b-b56f-4292-aece-14063457113a.jpg""]","",""
"","3609","similarity","183","21750823","0.0-6.0-177.0","2","[""img/0764/ca957454-126a-4bd3-b29c-7174a24c25dc.jpg"",""img/0866/0207e9a2-7dbb-40b5-9459-b472aaeceb2a.jpg""]","",""
"","3592","similarity","184","21755426","0.0-6.0-178.0","2","[""img/0902/d3e55000-c839-4bf9-9b9b-4af0a9925af1.jpg"",""img/0875/e7e66b13-b573-431e-b85e-288ce04a35a3.jpg""]","",""
"","5074","similarity","185","21761507","0.0-6.0-179.0","2","[""img/0881/b549bc99-a61c-4450-bab5-9efc3a197bf0.jpg"",""img/0904/9dd5708f-3f8b-46a9-b49f-2f2fab87b357.jpg""]","",""
"","4025","similarity","186","21766543","0.0-6.0-180.0","3","[""img/0874/31e22c7c-99aa-40b1-bf03-dd73fa2df4d6.jpg"",""img/0860/5bff793e-cbd5-4d7e-b628-0ac2b0e30b64.jpg""]","",""
"","3647","similarity","187","21771211","0.0-6.0-181.0","1","[""img/0769/50985283-d353-4abc-9abe-14a91d56ebe6.jpg"",""img/0874/a82926a3-0b43-4add-803c-d5f9ea7798ee.jpg""]","",""
"","4171","similarity","188","21776393","0.0-6.0-182.0","5","[""img/0904/ba8e689e-9ca6-4608-a2a1-3b0940666ae6.jpg"",""img/0766/33aa9ebb-c9f5-418f-8c8b-c77861889568.jpg""]","",""
"","2885","similarity","189","21780298","0.0-6.0-183.0","5","[""img/0902/6c2c243a-f663-45db-baf5-038d3d58c589.jpg"",""img/0764/5c8fbafc-e62e-43ed-9b37-f73e8e45147d.jpg""]","",""
"","3411","similarity","190","21784723","0.0-6.0-184.0","2","[""img/0769/bb8c4e53-6f32-4814-97ee-392d4decfb2e.jpg"",""img/0875/90da8d75-108a-44ad-b999-e21fee3860d3.jpg""]","",""
"","5579","similarity","191","21791317","0.0-6.0-185.0","3","[""img/0867/1719a35d-f085-48c0-9099-16c94fe418b4.jpg"",""img/0903/4cbdc464-e562-4ec2-9bb6-15f894fdf528.jpg""]","",""
"","3519","similarity","192","21795857","0.0-6.0-186.0","3","[""img/0862/ad593cc7-cabe-4bb7-8e14-8a447a0717b4.jpg"",""img/0769/d1be2815-fa79-46e8-b5c3-7d81caaca490.jpg""]","",""
"","3073","similarity","193","21799939","0.0-6.0-187.0","2","[""img/0766/69e486f7-dbef-456b-9d48-53d814248a28.jpg"",""img/0866/93a27239-8317-4e08-98ca-d8b1ff298e07.jpg""]","",""
"","4590","similarity","194","21805541","0.0-6.0-188.0","3","[""img/0769/6c0bac4c-5f59-43c7-898c-3ca93cf55cfe.jpg"",""img/0860/c3379ff7-0763-48fe-a1ec-7ea3d611bc7a.jpg""]","",""
"","5314","similarity","195","21816333","0.0-6.0-189.0","2","[""img/0881/ed4c971f-0873-4fc8-b6d6-e8bbd82f0bcc.jpg"",""img/0868/e0aff734-077f-40dd-9781-74821abd3621.jpg""]","",""
"[{""page_index"":0,""viewing_time"":4851}]","4852","instructions","196","21822192","0.0-7.0","","","",""
"","10585","image-multi-choice","197","21833811","0.0-8.0-0.0","","","{""Q0"":""Orange-crowned Warbler""}","Nashville Warbler"
"","7720","image-multi-choice","198","21842557","0.0-8.0-1.0","","","{""Q0"":""Black-and-white Warbler""}","Black-and-white Warbler"
"","13776","image-multi-choice","199","21857362","0.0-8.0-2.0","","","{""Q0"":""Townsend's Warbler""}","Townsend's Warbler"
"","4110","image-multi-choice","200","21862500","0.0-8.0-3.0","","","{""Q0"":""Lark Sparrow""}","Lark Sparrow"
"","3997","image-multi-choice","201","21867524","0.0-8.0-4.0","","","{""Q0"":""Yellow Warbler""}","Yellow Warbler"
"","19750","image-multi-choice","202","21888295","0.0-8.0-5.0","","","{""Q0"":""Nashville Warbler""}","Orange-crowned Warbler"
"","5192","image-multi-choice","203","21894516","0.0-8.0-6.0","","","{""Q0"":""White-throated Sparrow""}","White-throated Sparrow"
"","5807","image-multi-choice","204","21901349","0.0-8.0-7.0","","","{""Q0"":""Fox Sparrow""}","Fox Sparrow"
"","11813","image-multi-choice","205","21914194","0.0-8.0-8.0","","","{""Q0"":""Vesper Sparrow""}","Song Sparrow"
"","14046","image-multi-choice","206","21929263","0.0-8.0-9.0","","","{""Q0"":""Blackburnian Warbler""}","Blackburnian Warbler"
"","14025","image-multi-choice","207","21944317","0.0-8.0-10.0","","","{""Q0"":""American Tree Sparrow""}","Vesper Sparrow"
"","3373","image-multi-choice","208","21948709","0.0-8.0-11.0","","","{""Q0"":""White-crowned Sparrow""}","White-crowned Sparrow"
"","6746","image-multi-choice","209","21956491","0.0-8.0-12.0","","","{""Q0"":""American Tree Sparrow""}","American Tree Sparrow"
"","20555","image-multi-choice","210","21978079","0.0-8.0-13.0","","","{""Q0"":""Orange-crowned Warbler""}","Tennessee Warbler"
"","24332","image-multi-choice","211","22003444","0.0-8.0-14.0","","","{""Q0"":""Magnolia Warbler""}","Magnolia Warbler"
"","3761","image-multi-choice","212","22008241","0.0-8.0-15.0","","","{""Q0"":""Northern Waterthrush""}","Northern Waterthrush"
"","12106","image-multi-choice","213","22021366","0.0-8.0-16.0","","","{""Q0"":""Swamp Sparrow""}","Chipping Sparrow"
"","3540","image-multi-choice","214","22025929","0.0-8.0-17.0","","","{""Q0"":""Lincoln's Sparrow""}","Swamp Sparrow"
"","5039","image-multi-choice","215","22031987","0.0-8.0-18.0","","","{""Q0"":""Song Sparrow""}","Lincoln's Sparrow"
"","11629","image-multi-choice","216","22044645","0.0-8.0-19.0","","","{""Q0"":""Ovenbird""}","Ovenbird"
