[{"view_history":"[{\"page_index\":0,\"viewing_time\":15901}]","rt":15902,"trial_type":"instructions","trial_index":0,"time_elapsed":15903,"internal_node_id":"0.0-0.0"},{"sim_score":7,"rt":5529,"stimulus":"[\"img/bluejay1.jpg\",\"img/bluejay2.jpg\"]","trial_type":"similarity_demo","trial_index":1,"time_elapsed":22448,"internal_node_id":"0.0-1.0"},{"view_history":"[{\"page_index\":0,\"viewing_time\":10183}]","rt":10184,"trial_type":"instructions","trial_index":2,"time_elapsed":33647,"internal_node_id":"0.0-2.0"},{"sim_score":3,"rt":7417,"stimulus":"[\"img/bluejay1.jpg\",\"img/cardinal1.jpg\"]","trial_type":"similarity_demo","trial_index":3,"time_elapsed":42086,"internal_node_id":"0.0-3.0"},{"view_history":"[{\"page_index\":0,\"viewing_time\":5482}]","rt":5483,"trial_type":"instructions","trial_index":4,"time_elapsed":48571,"internal_node_id":"0.0-4.0"},{"view_history":"[{\"page_index\":0,\"viewing_time\":18213}]","rt":18214,"trial_type":"instructions","trial_index":5,"time_elapsed":67787,"internal_node_id":"0.0-5.0"},{"sim_score":3,"rt":5836,"stimulus":"[\"img/0868/4a8a45ed-2c4f-421b-9564-409a33ecd26c.jpg\",\"img/0894/1a010553-d598-4b06-a772-81f1e7b3addb.jpg\"]","trial_type":"similarity","trial_index":6,"time_elapsed":74639,"internal_node_id":"0.0-6.0-0.0"},{"sim_score":4,"rt":7377,"stimulus":"[\"img/0898/a8f16b02-e19f-423b-86c3-a36562ae1f9b.jpg\",\"img/0758/20497cbe-ddae-489e-86e2-ab06985ed07c.jpg\"]","trial_type":"similarity","trial_index":7,"time_elapsed":83030,"internal_node_id":"0.0-6.0-1.0"},{"sim_score":5,"rt":7784,"stimulus":"[\"img/0903/b7e3723f-fd03-4f3d-8820-f19496463a34.jpg\",\"img/0894/10f22b96-040c-44f4-950b-a4963f3f506c.jpg\"]","trial_type":"similarity","trial_index":8,"time_elapsed":91830,"internal_node_id":"0.0-6.0-2.0"},{"sim_score":3,"rt":4260,"stimulus":"[\"img/0881/445edb15-bd7f-4af3-8bd5-c6ad9677bb31.jpg\",\"img/0766/33aa9ebb-c9f5-418f-8c8b-c77861889568.jpg\"]","trial_type":"similarity","trial_index":9,"time_elapsed":97104,"internal_node_id":"0.0-6.0-3.0"},{"sim_score":3,"rt":3258,"stimulus":"[\"img/0864/da39ad34-04e0-40d4-a724-c08d53e0ea09.jpg\",\"img/0860/4f695df5-afac-4da7-9875-fee39b0b24ad.jpg\"]","trial_type":"similarity","trial_index":10,"time_elapsed":101374,"internal_node_id":"0.0-6.0-4.0"},{"sim_score":5,"rt":3806,"stimulus":"[\"img/0902/d3e55000-c839-4bf9-9b9b-4af0a9925af1.jpg\",\"img/0899/fef567a2-c121-4481-9af0-ff108d199bbf.jpg\"]","trial_type":"similarity","trial_index":11,"time_elapsed":106195,"internal_node_id":"0.0-6.0-5.0"},{"sim_score":2,"rt":3146,"stimulus":"[\"img/0868/6a28c3b0-3d76-498a-9fb7-ddafc665eca8.jpg\",\"img/0769/057eb0a0-aa5b-40c7-9852-21444f68d767.jpg\"]","trial_type":"similarity","trial_index":12,"time_elapsed":110350,"internal_node_id":"0.0-6.0-6.0"},{"sim_score":5,"rt":3869,"stimulus":"[\"img/0764/c0b03adb-bd0a-4b96-a915-a827c2fd5211.jpg\",\"img/0901/693e0535-ef7e-4d60-af9d-fac2f38e8307.jpg\"]","trial_type":"similarity","trial_index":13,"time_elapsed":115239,"internal_node_id":"0.0-6.0-7.0"},{"sim_score":1,"rt":2859,"stimulus":"[\"img/0881/44e09805-5a25-4f17-a716-4ad4a331b174.jpg\",\"img/0866/a15b02be-11bb-43e3-b0e0-ecc3bd7dfc49.jpg\"]","trial_type":"similarity","trial_index":14,"time_elapsed":119109,"internal_node_id":"0.0-6.0-8.0"},{"sim_score":3,"rt":4303,"stimulus":"[\"img/0867/c66898ba-b71b-4d50-84f9-f7f84853a98d.jpg\",\"img/0899/51a7a498-98c7-42d7-bca8-bc2d8f0b5831.jpg\"]","trial_type":"similarity","trial_index":15,"time_elapsed":124430,"internal_node_id":"0.0-6.0-9.0"},{"sim_score":5,"rt":3667,"stimulus":"[\"img/0875/34132396-d896-4c2d-8087-646dd867e769.jpg\",\"img/0766/1865bfc9-2410-4765-a804-3ae4ba2393d0.jpg\"]","trial_type":"similarity","trial_index":16,"time_elapsed":129118,"internal_node_id":"0.0-6.0-10.0"},{"sim_score":3,"rt":3887,"stimulus":"[\"img/0901/2a953e50-d237-405c-a38d-5ed21494c968.jpg\",\"img/0875/8521fd58-3b1e-4dc5-97ae-804edfa6734a.jpg\"]","trial_type":"similarity","trial_index":17,"time_elapsed":134017,"internal_node_id":"0.0-6.0-11.0"},{"sim_score":3,"rt":3337,"stimulus":"[\"img/0902/a6fb6dd5-696c-47ec-be7d-d7b88f1544f1.jpg\",\"img/0860/8277806e-b684-4474-8f7b-3fca946d7d4f.jpg\"]","trial_type":"similarity","trial_index":18,"time_elapsed":138383,"internal_node_id":"0.0-6.0-12.0"},{"sim_score":5,"rt":3343,"stimulus":"[\"img/0874/31e22c7c-99aa-40b1-bf03-dd73fa2df4d6.jpg\",\"img/0867/f8159067-056c-41f1-a136-c529fe5e970a.jpg\"]","trial_type":"similarity","trial_index":19,"time_elapsed":142735,"internal_node_id":"0.0-6.0-13.0"},{"sim_score":3,"rt":3218,"stimulus":"[\"img/0904/0d25eb24-bb20-4e8d-9787-8b489558b4cb.jpg\",\"img/0866/945c6710-d15b-4a5b-a8f6-69af0850357f.jpg\"]","trial_type":"similarity","trial_index":20,"time_elapsed":146975,"internal_node_id":"0.0-6.0-14.0"},{"sim_score":3,"rt":5537,"stimulus":"[\"img/0758/7ffbc76b-1fc1-432c-8f7e-9ec8d1b3f643.jpg\",\"img/0902/b03129ba-b087-4558-af37-e8399d6217d6.jpg\"]","trial_type":"similarity","trial_index":21,"time_elapsed":153520,"internal_node_id":"0.0-6.0-15.0"},{"sim_score":3,"rt":2551,"stimulus":"[\"img/0867/26611f4e-d694-4460-b7e2-43c62753ddc3.jpg\",\"img/0898/01bfe666-3510-4fc7-964f-d00d28732dc8.jpg\"]","trial_type":"similarity","trial_index":22,"time_elapsed":157081,"internal_node_id":"0.0-6.0-16.0"},{"sim_score":3,"rt":2834,"stimulus":"[\"img/0904/e9423a8c-f946-43ad-ab7b-931acef870e2.jpg\",\"img/0868/5fa7f9d0-f0e5-454c-8224-74d964818f56.jpg\"]","trial_type":"similarity","trial_index":23,"time_elapsed":160923,"internal_node_id":"0.0-6.0-17.0"},{"sim_score":3,"rt":3251,"stimulus":"[\"img/0766/a1ed3f0f-e338-4a26-8fe4-4370f0c9fa6e.jpg\",\"img/0864/3d4de670-b290-4285-9c3d-12a0e3af44e9.jpg\"]","trial_type":"similarity","trial_index":24,"time_elapsed":165182,"internal_node_id":"0.0-6.0-18.0"},{"sim_score":6,"rt":4541,"stimulus":"[\"img/0899/f58b8d2f-b19d-4b59-8b94-8834be92e4ba.jpg\",\"img/0766/1bc0dccc-a5b5-4375-87fa-28360ca42b12.jpg\"]","trial_type":"similarity","trial_index":25,"time_elapsed":170730,"internal_node_id":"0.0-6.0-19.0"},{"sim_score":3,"rt":3178,"stimulus":"[\"img/0764/e0788029-9d7f-414c-b747-46d2a99f7c86.jpg\",\"img/0758/6e95579b-5166-487c-b8cb-e417c6a218e3.jpg\"]","trial_type":"similarity","trial_index":26,"time_elapsed":174916,"internal_node_id":"0.0-6.0-20.0"},{"sim_score":2,"rt":2649,"stimulus":"[\"img/0901/4f9cffe0-c0be-4d7f-bacd-9d51efd19b4a.jpg\",\"img/0874/93d1f8dc-acf2-4f03-bd8d-8ec35df276ed.jpg\"]","trial_type":"similarity","trial_index":27,"time_elapsed":178571,"internal_node_id":"0.0-6.0-21.0"},{"sim_score":5,"rt":2994,"stimulus":"[\"img/0875/42910c99-5463-450a-a0f8-d4d060a11455.jpg\",\"img/0758/ddc336e9-a8b6-4bb9-937a-c7e25e0e9250.jpg\"]","trial_type":"similarity","trial_index":28,"time_elapsed":182574,"internal_node_id":"0.0-6.0-22.0"},{"sim_score":6,"rt":2910,"stimulus":"[\"img/0867/075e0f95-856b-4cbb-acf5-092393aaf04e.jpg\",\"img/0881/667e2147-d457-4f32-aa5f-6ab86e5848f1.jpg\"]","trial_type":"similarity","trial_index":29,"time_elapsed":186493,"internal_node_id":"0.0-6.0-23.0"},{"sim_score":3,"rt":3132,"stimulus":"[\"img/0758/a085b443-b5d7-4cb2-9ad4-b9dab0fc23f1.jpg\",\"img/0901/233a6948-48eb-4b67-8259-222b916b2322.jpg\"]","trial_type":"similarity","trial_index":30,"time_elapsed":190638,"internal_node_id":"0.0-6.0-24.0"},{"sim_score":6,"rt":4474,"stimulus":"[\"img/0868/3a62db2d-97e9-44a3-b8e3-a48c6f0e423b.jpg\",\"img/0875/f87b67d7-c33e-40d1-b281-248c4be1cb6e.jpg\"]","trial_type":"similarity","trial_index":31,"time_elapsed":196123,"internal_node_id":"0.0-6.0-25.0"},{"sim_score":6,"rt":3709,"stimulus":"[\"img/0903/a0673b55-6040-47fe-9040-24bca27ca3c9.jpg\",\"img/0901/33b51a81-06d9-46d9-9d4f-5a2d6d6b8058.jpg\"]","trial_type":"similarity","trial_index":32,"time_elapsed":200840,"internal_node_id":"0.0-6.0-26.0"},{"sim_score":5,"rt":3749,"stimulus":"[\"img/0894/5ff3c4f6-52e2-4075-8679-be0312e59703.jpg\",\"img/0899/57476fed-5962-4272-8fc9-b317bb777b54.jpg\"]","trial_type":"similarity","trial_index":33,"time_elapsed":205609,"internal_node_id":"0.0-6.0-27.0"},{"sim_score":3,"rt":3334,"stimulus":"[\"img/0862/e8cc3bdf-cc43-4565-bccf-492626c70953.jpg\",\"img/0867/179ab87a-8eac-4c52-a41f-2e48e3120f09.jpg\"]","trial_type":"similarity","trial_index":34,"time_elapsed":209989,"internal_node_id":"0.0-6.0-28.0"},{"sim_score":5,"rt":3888,"stimulus":"[\"img/0864/ef9cbca0-4be8-435d-ad49-977259e80409.jpg\",\"img/0875/a4935837-7d3c-4df6-88c1-36a94d4991ca.jpg\"]","trial_type":"similarity","trial_index":35,"time_elapsed":214907,"internal_node_id":"0.0-6.0-29.0"},{"sim_score":5,"rt":4305,"stimulus":"[\"img/0862/e0f1a4e9-e1b6-45f7-af67-89f334e6630d.jpg\",\"img/0874/3ce41e7c-40c8-4d58-a546-171114521796.jpg\"]","trial_type":"similarity","trial_index":36,"time_elapsed":220225,"internal_node_id":"0.0-6.0-30.0"},{"sim_score":6,"rt":3397,"stimulus":"[\"img/0903/f45a103c-9bfe-49fd-ad96-bdd8d2589195.jpg\",\"img/0758/d41c06bf-ebaf-454b-91c6-1a17f917b659.jpg\"]","trial_type":"similarity","trial_index":37,"time_elapsed":224628,"internal_node_id":"0.0-6.0-31.0"},{"sim_score":2,"rt":4426,"stimulus":"[\"img/0866/23a224f3-2012-4fc8-8e0f-3c36f8de27fd.jpg\",\"img/0901/0adb3bd6-d758-4ba7-9723-3ad6cac05bd5.jpg\"]","trial_type":"similarity","trial_index":38,"time_elapsed":230073,"internal_node_id":"0.0-6.0-32.0"},{"sim_score":3,"rt":2998,"stimulus":"[\"img/0874/3f471690-9788-4d03-90c7-f615aecef149.jpg\",\"img/0899/00715b3f-851b-420b-a26b-d7f79f7759a9.jpg\"]","trial_type":"similarity","trial_index":39,"time_elapsed":234079,"internal_node_id":"0.0-6.0-33.0"},{"sim_score":4,"rt":4050,"stimulus":"[\"img/0903/d987e220-f3e6-4b6d-a270-fe6757041f6d.jpg\",\"img/0902/95a36b6b-9601-4fa5-8fd9-606ea62f9425.jpg\"]","trial_type":"similarity","trial_index":40,"time_elapsed":239137,"internal_node_id":"0.0-6.0-34.0"},{"sim_score":5,"rt":4396,"stimulus":"[\"img/0758/b76ceca7-95ac-46e4-ac13-da02c8e93be9.jpg\",\"img/0866/93a27239-8317-4e08-98ca-d8b1ff298e07.jpg\"]","trial_type":"similarity","trial_index":41,"time_elapsed":244544,"internal_node_id":"0.0-6.0-35.0"},{"sim_score":3,"rt":4568,"stimulus":"[\"img/0875/dbdd643e-6d0e-4a5c-ab57-b9c29b9c981a.jpg\",\"img/0903/12bd8657-92e6-4c36-a06c-597e7a1d51f3.jpg\"]","trial_type":"similarity","trial_index":42,"time_elapsed":250120,"internal_node_id":"0.0-6.0-36.0"},{"sim_score":3,"rt":3485,"stimulus":"[\"img/0864/6f631579-acf1-415c-a42c-1207f62a8d99.jpg\",\"img/0902/30c420f5-c714-4681-ae5a-c0ba8f636a26.jpg\"]","trial_type":"similarity","trial_index":43,"time_elapsed":260386,"internal_node_id":"0.0-6.0-37.0"},{"sim_score":2,"rt":3041,"stimulus":"[\"img/0901/c6c877e0-dd63-4e00-9657-33af29d55aab.jpg\",\"img/0867/f8488a47-94ee-4166-952c-44e16cf172f6.jpg\"]","trial_type":"similarity","trial_index":44,"time_elapsed":264438,"internal_node_id":"0.0-6.0-38.0"},{"sim_score":6,"rt":3680,"stimulus":"[\"img/0862/eefa5588-9efd-4591-aa5f-a2e17c7d7bcc.jpg\",\"img/0860/71e1aad0-2cdf-43bb-94a4-a8c016997c30.jpg\"]","trial_type":"similarity","trial_index":45,"time_elapsed":269135,"internal_node_id":"0.0-6.0-39.0"},{"sim_score":5,"rt":3189,"stimulus":"[\"img/0867/cc72ed48-7704-422c-86d6-467a1145287a.jpg\",\"img/0868/d6d1f30d-4323-435a-b194-7892521bc57e.jpg\"]","trial_type":"similarity","trial_index":46,"time_elapsed":273343,"internal_node_id":"0.0-6.0-40.0"},{"sim_score":6,"rt":4290,"stimulus":"[\"img/0904/24fc38fe-842c-4831-ad8a-b1de5c25c0a8.jpg\",\"img/0899/0e1d936a-dbe2-4afc-9f19-7b7a1ae6c9ed.jpg\"]","trial_type":"similarity","trial_index":47,"time_elapsed":278643,"internal_node_id":"0.0-6.0-41.0"},{"sim_score":2,"rt":2931,"stimulus":"[\"img/0862/a0a3a7ba-7798-46a3-b4ca-05e1f6e581d0.jpg\",\"img/0894/86201968-6e78-4d68-9b3a-d1692e066210.jpg\"]","trial_type":"similarity","trial_index":48,"time_elapsed":282584,"internal_node_id":"0.0-6.0-42.0"},{"sim_score":5,"rt":3169,"stimulus":"[\"img/0875/5a7c4e35-6514-4e12-8879-d16071da4cd6.jpg\",\"img/0904/2fd488e9-960f-41f7-8a44-33375f7d5051.jpg\"]","trial_type":"similarity","trial_index":49,"time_elapsed":286764,"internal_node_id":"0.0-6.0-43.0"},{"sim_score":3,"rt":3757,"stimulus":"[\"img/0874/85eb9b8a-c4c6-4e5a-b8e7-363a87a82054.jpg\",\"img/0898/6cd3830b-d44e-4915-be2b-88d31424b91c.jpg\"]","trial_type":"similarity","trial_index":50,"time_elapsed":291529,"internal_node_id":"0.0-6.0-44.0"},{"sim_score":3,"rt":4092,"stimulus":"[\"img/0898/a114b375-cb89-44ba-9498-74213f1ecdee.jpg\",\"img/0868/0d3abd3a-b6c3-4584-a9f7-e2da63748b3d.jpg\"]","trial_type":"similarity","trial_index":51,"time_elapsed":296631,"internal_node_id":"0.0-6.0-45.0"},{"sim_score":3,"rt":3814,"stimulus":"[\"img/0901/148b747a-7392-437e-8823-33053c5dff3f.jpg\",\"img/0860/18dfed73-e36b-4487-a8bd-0b8cff8e3668.jpg\"]","trial_type":"similarity","trial_index":52,"time_elapsed":301456,"internal_node_id":"0.0-6.0-46.0"},{"sim_score":5,"rt":3087,"stimulus":"[\"img/0894/38cf335f-f76f-4349-8d65-e20cd6859565.jpg\",\"img/0902/eb3e7e71-8ff1-4b88-a6a7-47e2c1ce1683.jpg\"]","trial_type":"similarity","trial_index":53,"time_elapsed":305554,"internal_node_id":"0.0-6.0-47.0"},{"sim_score":3,"rt":4955,"stimulus":"[\"img/0764/6fbd1902-fa2a-48d8-bc11-705b8ab68d8f.jpg\",\"img/0862/1c20f772-3a51-4a80-aac0-f57dc9f86c28.jpg\"]","trial_type":"similarity","trial_index":54,"time_elapsed":311522,"internal_node_id":"0.0-6.0-48.0"},{"sim_score":7,"rt":4856,"stimulus":"[\"img/0881/d373cb9f-a719-4549-a2a4-82def79fb2a5.jpg\",\"img/0758/e38fd80d-18d0-42f3-b848-f930788e8bd7.jpg\"]","trial_type":"similarity","trial_index":55,"time_elapsed":317386,"internal_node_id":"0.0-6.0-49.0"},{"sim_score":5,"rt":4407,"stimulus":"[\"img/0766/33519c22-aaa4-49d7-8d49-ab551db1945e.jpg\",\"img/0769/1afb527f-9887-428c-bd26-a12c2f9efb68.jpg\"]","trial_type":"similarity","trial_index":56,"time_elapsed":322806,"internal_node_id":"0.0-6.0-50.0"},{"sim_score":6,"rt":3151,"stimulus":"[\"img/0875/ebf7653f-ff45-4e9f-af58-2c042ab3cd2b.jpg\",\"img/0866/02f5e6b9-52b7-448c-9708-5b460d0c9a23.jpg\"]","trial_type":"similarity","trial_index":57,"time_elapsed":326965,"internal_node_id":"0.0-6.0-51.0"},{"sim_score":5,"rt":4392,"stimulus":"[\"img/0894/4739e06d-c31e-4bf1-bf91-c97fa9afb456.jpg\",\"img/0904/09dac84f-3d1c-4445-a68e-d0389fdbf1e9.jpg\"]","trial_type":"similarity","trial_index":58,"time_elapsed":332378,"internal_node_id":"0.0-6.0-52.0"},{"sim_score":5,"rt":3154,"stimulus":"[\"img/0758/821c68d3-5cb0-4eae-8659-30e6263fca39.jpg\",\"img/0769/f73c5138-2f4c-4354-981c-129dff9cc734.jpg\"]","trial_type":"similarity","trial_index":59,"time_elapsed":336541,"internal_node_id":"0.0-6.0-53.0"},{"sim_score":3,"rt":3879,"stimulus":"[\"img/0902/2a7ac123-414a-476a-9a96-4757b924baef.jpg\",\"img/0874/bf14b896-e930-4fd9-9c05-2e83317a2773.jpg\"]","trial_type":"similarity","trial_index":60,"time_elapsed":341427,"internal_node_id":"0.0-6.0-54.0"},{"sim_score":3,"rt":3530,"stimulus":"[\"img/0903/6b5dcc60-3ad3-4962-93e5-e6cf768477af.jpg\",\"img/0862/57b6f83f-c763-4858-830d-102f97bfefbf.jpg\"]","trial_type":"similarity","trial_index":61,"time_elapsed":345965,"internal_node_id":"0.0-6.0-55.0"},{"sim_score":2,"rt":3957,"stimulus":"[\"img/0866/4a87911a-d5be-4d4e-ab8e-3d1f581bf507.jpg\",\"img/0894/1b3888e6-cf36-4c4a-a039-187aa5cb71ac.jpg\"]","trial_type":"similarity","trial_index":62,"time_elapsed":350929,"internal_node_id":"0.0-6.0-56.0"},{"sim_score":2,"rt":3062,"stimulus":"[\"img/0867/1719a35d-f085-48c0-9099-16c94fe418b4.jpg\",\"img/0904/5cceabc9-de1d-4c67-989b-c28a4ef77e79.jpg\"]","trial_type":"similarity","trial_index":63,"time_elapsed":354998,"internal_node_id":"0.0-6.0-57.0"},{"sim_score":5,"rt":2910,"stimulus":"[\"img/0875/2e13d160-eea1-416b-aff1-d37ab99ecc1d.jpg\",\"img/0881/84397291-bc14-4fbf-90e8-241e486ab0fe.jpg\"]","trial_type":"similarity","trial_index":64,"time_elapsed":358923,"internal_node_id":"0.0-6.0-58.0"},{"sim_score":5,"rt":3887,"stimulus":"[\"img/0866/c446214b-a368-4c65-ae39-ea46894256ab.jpg\",\"img/0860/d9a0d117-6d1d-41c0-8fec-9aff0fd9e9f2.jpg\"]","trial_type":"similarity","trial_index":65,"time_elapsed":363822,"internal_node_id":"0.0-6.0-59.0"},{"sim_score":2,"rt":2734,"stimulus":"[\"img/0903/2c7b4aed-6038-4aac-958a-e3e58341c313.jpg\",\"img/0866/be24ab58-230e-4db8-9f45-ff04c9aec6bb.jpg\"]","trial_type":"similarity","trial_index":66,"time_elapsed":367563,"internal_node_id":"0.0-6.0-60.0"},{"sim_score":5,"rt":3122,"stimulus":"[\"img/0860/e8b8c51e-1834-4875-8b61-6c5bc9b178bd.jpg\",\"img/0875/d59ff733-eaff-4ee2-9443-06954dd0bcb6.jpg\"]","trial_type":"similarity","trial_index":67,"time_elapsed":371694,"internal_node_id":"0.0-6.0-61.0"},{"sim_score":2,"rt":3421,"stimulus":"[\"img/0898/0af304a2-6a7a-4082-ab7c-4450cd08cc58.jpg\",\"img/0862/cdaed51d-9e2f-4807-801a-4663c40077e2.jpg\"]","trial_type":"similarity","trial_index":68,"time_elapsed":376123,"internal_node_id":"0.0-6.0-62.0"},{"sim_score":5,"rt":2837,"stimulus":"[\"img/0902/8af4182a-9af9-4212-a436-9195555112d6.jpg\",\"img/0766/5d1b8041-c5a1-4b02-b4fe-3453d98a0d72.jpg\"]","trial_type":"similarity","trial_index":69,"time_elapsed":379968,"internal_node_id":"0.0-6.0-63.0"},{"sim_score":5,"rt":2797,"stimulus":"[\"img/0758/3ddd05d3-557e-4ee7-8b78-9d2d681d8ae2.jpg\",\"img/0864/ea327690-500b-4137-bf91-451b309fe6a5.jpg\"]","trial_type":"similarity","trial_index":70,"time_elapsed":383773,"internal_node_id":"0.0-6.0-64.0"},{"sim_score":1,"rt":3139,"stimulus":"[\"img/0894/2d2db7b3-e8a3-499b-b63a-14f51bf73882.jpg\",\"img/0860/8a92e21b-6a32-4e4a-a445-2d5a487ed0a4.jpg\"]","trial_type":"similarity","trial_index":71,"time_elapsed":387925,"internal_node_id":"0.0-6.0-65.0"},{"sim_score":3,"rt":3262,"stimulus":"[\"img/0899/565ccdd9-0933-4536-a625-3c0e25a713dd.jpg\",\"img/0868/8b0b8473-e2c0-4331-aa56-c3a5c29369da.jpg\"]","trial_type":"similarity","trial_index":72,"time_elapsed":392202,"internal_node_id":"0.0-6.0-66.0"},{"sim_score":3,"rt":5019,"stimulus":"[\"img/0866/6f2a90d7-14f1-4f1b-bd64-fc0af6b9fe44.jpg\",\"img/0862/847e5208-38ec-4f36-949c-296cdd7424ee.jpg\"]","trial_type":"similarity","trial_index":73,"time_elapsed":398229,"internal_node_id":"0.0-6.0-67.0"},{"sim_score":5,"rt":3131,"stimulus":"[\"img/0860/61fb959d-d4d9-4de4-9e4e-4fa62b4cfcd5.jpg\",\"img/0758/a709631e-3705-4725-ac40-f0d916924f08.jpg\"]","trial_type":"similarity","trial_index":74,"time_elapsed":402369,"internal_node_id":"0.0-6.0-68.0"},{"sim_score":2,"rt":2864,"stimulus":"[\"img/0902/94198618-7047-4dc9-ad04-85f4ba913067.jpg\",\"img/0867/6e19c858-b606-45b2-a4c6-910a73f1d82c.jpg\"]","trial_type":"similarity","trial_index":75,"time_elapsed":406242,"internal_node_id":"0.0-6.0-69.0"},{"sim_score":2,"rt":3073,"stimulus":"[\"img/0862/4f0a3b4c-afbf-486e-b248-1d54982f54b4.jpg\",\"img/0901/5b97abf9-f0c8-4fd1-b921-36d574779078.jpg\"]","trial_type":"similarity","trial_index":76,"time_elapsed":410323,"internal_node_id":"0.0-6.0-70.0"},{"sim_score":6,"rt":4590,"stimulus":"[\"img/0867/bf560d4f-dee3-4f11-a385-705cc1aa5f3c.jpg\",\"img/0866/11a1d141-be5e-443c-98c1-a9d4d9e3dec0.jpg\"]","trial_type":"similarity","trial_index":77,"time_elapsed":415921,"internal_node_id":"0.0-6.0-71.0"},{"sim_score":2,"rt":3312,"stimulus":"[\"img/0860/15b24a61-25be-4356-9eac-5ce95d0cb4a4.jpg\",\"img/0904/b7c2a2c8-df33-4473-b3d4-ff7147c60db3.jpg\"]","trial_type":"similarity","trial_index":78,"time_elapsed":420240,"internal_node_id":"0.0-6.0-72.0"},{"sim_score":2,"rt":2838,"stimulus":"[\"img/0875/527ced51-8e53-4aab-ab05-86df219104c0.jpg\",\"img/0899/76ad07e2-ca25-45eb-84f2-8d80b8ca3e26.jpg\"]","trial_type":"similarity","trial_index":79,"time_elapsed":424087,"internal_node_id":"0.0-6.0-73.0"},{"sim_score":2,"rt":3217,"stimulus":"[\"img/0899/d60714ae-98d7-4564-8c98-94dba1351135.jpg\",\"img/0758/2fa3e613-e676-4e6e-bd12-705327eeb3e1.jpg\"]","trial_type":"similarity","trial_index":80,"time_elapsed":428314,"internal_node_id":"0.0-6.0-74.0"},{"sim_score":5,"rt":3073,"stimulus":"[\"img/0862/53a9cf7c-93c4-41b9-952f-07d17f7a17b2.jpg\",\"img/0875/90da8d75-108a-44ad-b999-e21fee3860d3.jpg\"]","trial_type":"similarity","trial_index":81,"time_elapsed":435580,"internal_node_id":"0.0-6.0-75.0"},{"sim_score":5,"rt":3703,"stimulus":"[\"img/0901/b123d109-47b4-4f9a-80c9-9bb16da42efa.jpg\",\"img/0894/b422d5c6-3c5a-49ae-a53e-7e88ac993f49.jpg\"]","trial_type":"similarity","trial_index":82,"time_elapsed":440293,"internal_node_id":"0.0-6.0-76.0"},{"sim_score":2,"rt":3378,"stimulus":"[\"img/0766/db750ba0-ce04-46e1-b601-e1b80212bad2.jpg\",\"img/0758/335851a0-a55b-46d8-ab05-8463eda48349.jpg\"]","trial_type":"similarity","trial_index":83,"time_elapsed":444682,"internal_node_id":"0.0-6.0-77.0"},{"sim_score":5,"rt":3066,"stimulus":"[\"img/0894/9b1333fd-3561-43bf-aee5-99b7b7ca3dc3.jpg\",\"img/0764/958b8576-3a3b-4acc-96dc-06b74de69f37.jpg\"]","trial_type":"similarity","trial_index":84,"time_elapsed":448758,"internal_node_id":"0.0-6.0-78.0"},{"sim_score":4,"rt":4973,"stimulus":"[\"img/0860/b03b963d-949b-4d8d-b19c-4950c89eeca2.jpg\",\"img/0867/8ba0c5a7-c7e4-42cf-a80a-543763b90779.jpg\"]","trial_type":"similarity","trial_index":85,"time_elapsed":454742,"internal_node_id":"0.0-6.0-79.0"},{"sim_score":5,"rt":3862,"stimulus":"[\"img/0898/cd3aaa3f-efa9-4ab3-8d6f-a6a9273ddf42.jpg\",\"img/0901/a0d65c84-3f20-476a-92d1-0c01e8019cf4.jpg\"]","trial_type":"similarity","trial_index":86,"time_elapsed":459612,"internal_node_id":"0.0-6.0-80.0"},{"sim_score":2,"rt":3381,"stimulus":"[\"img/0874/c0378dac-9370-439a-8b79-db27c96fb390.jpg\",\"img/0764/e30dba15-e68a-4659-89db-e1654b52fe02.jpg\"]","trial_type":"similarity","trial_index":87,"time_elapsed":464012,"internal_node_id":"0.0-6.0-81.0"},{"sim_score":2,"rt":2765,"stimulus":"[\"img/0899/f95cbdb4-f804-4f5d-ad76-373ad343e658.jpg\",\"img/0862/00c06b00-3b73-44e9-bc1e-c5aafb438321.jpg\"]","trial_type":"similarity","trial_index":88,"time_elapsed":467784,"internal_node_id":"0.0-6.0-82.0"},{"sim_score":3,"rt":3632,"stimulus":"[\"img/0766/0b48f9e0-7d37-4161-8adb-4e3f5b6b7583.jpg\",\"img/0901/04a53755-6da5-44d4-a7a6-48a6bc0a2280.jpg\"]","trial_type":"similarity","trial_index":89,"time_elapsed":472424,"internal_node_id":"0.0-6.0-83.0"},{"sim_score":3,"rt":3092,"stimulus":"[\"img/0881/4bd34581-94d8-4e88-8c89-5cef864ca3be.jpg\",\"img/0898/08c72dac-f8ad-407a-9ce6-8c9a5d679c3a.jpg\"]","trial_type":"similarity","trial_index":90,"time_elapsed":476531,"internal_node_id":"0.0-6.0-84.0"},{"sim_score":5,"rt":4367,"stimulus":"[\"img/0868/4bd5105a-d2c3-4f82-8c80-57196106ba53.jpg\",\"img/0860/e14d67c1-6d92-4f1e-9257-c8607159c19c.jpg\"]","trial_type":"similarity","trial_index":91,"time_elapsed":481908,"internal_node_id":"0.0-6.0-85.0"},{"sim_score":5,"rt":3790,"stimulus":"[\"img/0758/d540bee6-b460-4c32-ac57-bc282742d7d4.jpg\",\"img/0868/c8ac40c7-6904-4e13-8d61-c75d3052dc4e.jpg\"]","trial_type":"similarity","trial_index":92,"time_elapsed":486705,"internal_node_id":"0.0-6.0-86.0"},{"sim_score":2,"rt":3662,"stimulus":"[\"img/0864/49150900-7f25-4ce8-8d10-9b47a71d1997.jpg\",\"img/0894/43216a7f-27bc-4b5a-8841-d122a30da9d9.jpg\"]","trial_type":"similarity","trial_index":93,"time_elapsed":491375,"internal_node_id":"0.0-6.0-87.0"},{"sim_score":3,"rt":2728,"stimulus":"[\"img/0866/d493a2c8-66eb-44b4-be02-2f327b700b7c.jpg\",\"img/0902/d2c34af0-8c50-437d-8cc3-619195a3e8ba.jpg\"]","trial_type":"similarity","trial_index":94,"time_elapsed":495110,"internal_node_id":"0.0-6.0-88.0"},{"sim_score":3,"rt":2559,"stimulus":"[\"img/0769/aad494cc-674d-4a08-9bfa-24a88ebe3c79.jpg\",\"img/0867/50a1b60e-3a29-44bf-b606-d4bd3746fea9.jpg\"]","trial_type":"similarity","trial_index":95,"time_elapsed":498677,"internal_node_id":"0.0-6.0-89.0"},{"sim_score":3,"rt":2871,"stimulus":"[\"img/0874/29830da7-be5f-44e5-b141-652a0ccf7269.jpg\",\"img/0875/cff79b3a-a797-4393-9757-6275f999ec04.jpg\"]","trial_type":"similarity","trial_index":96,"time_elapsed":502558,"internal_node_id":"0.0-6.0-90.0"},{"sim_score":6,"rt":3868,"stimulus":"[\"img/0864/0f537697-a314-47c3-a8cc-8df23b7e536c.jpg\",\"img/0874/adf9a8f1-c40b-402b-b95b-1e85a54a7b62.jpg\"]","trial_type":"similarity","trial_index":97,"time_elapsed":507435,"internal_node_id":"0.0-6.0-91.0"},{"sim_score":3,"rt":3734,"stimulus":"[\"img/0881/4da99fdd-1f40-4bbb-8e21-8833eef313f5.jpg\",\"img/0862/ad593cc7-cabe-4bb7-8e14-8a447a0717b4.jpg\"]","trial_type":"similarity","trial_index":98,"time_elapsed":512178,"internal_node_id":"0.0-6.0-92.0"},{"sim_score":3,"rt":3782,"stimulus":"[\"img/0864/b3c4e378-28f0-4699-9338-2a257b4bca04.jpg\",\"img/0881/405484ae-0d00-4b05-bc57-6420a36adfac.jpg\"]","trial_type":"similarity","trial_index":99,"time_elapsed":516972,"internal_node_id":"0.0-6.0-93.0"},{"sim_score":5,"rt":3251,"stimulus":"[\"img/0899/7f9d45d0-b2c6-40d3-aa41-c207db2c411b.jpg\",\"img/0901/a2d7b2f6-396b-4d91-8403-de5361c74af7.jpg\"]","trial_type":"similarity","trial_index":100,"time_elapsed":521240,"internal_node_id":"0.0-6.0-94.0"},{"sim_score":2,"rt":2868,"stimulus":"[\"img/0874/767f289c-9814-4496-803f-745cc8913d1f.jpg\",\"img/0766/6d32752d-aa05-40dc-9541-640b6e9d6fa1.jpg\"]","trial_type":"similarity","trial_index":101,"time_elapsed":525115,"internal_node_id":"0.0-6.0-95.0"},{"sim_score":4,"rt":5117,"stimulus":"[\"img/0881/f62bdcd1-a4b7-4d48-83da-d9c9e01c8727.jpg\",\"img/0899/ad8268c5-8199-48d0-ad70-c5b6d6c599ec.jpg\"]","trial_type":"similarity","trial_index":102,"time_elapsed":531237,"internal_node_id":"0.0-6.0-96.0"},{"sim_score":2,"rt":2842,"stimulus":"[\"img/0862/5d887e9f-89e2-4ebc-80a0-6d46fe6480db.jpg\",\"img/0902/82d20e8c-2162-47a6-925b-52906558c046.jpg\"]","trial_type":"similarity","trial_index":103,"time_elapsed":535087,"internal_node_id":"0.0-6.0-97.0"},{"sim_score":5,"rt":3814,"stimulus":"[\"img/0899/4f7bc593-8ddd-4da3-a0b9-84da730d3370.jpg\",\"img/0764/03c07b98-3f18-4b71-bb70-ecff564a78d1.jpg\"]","trial_type":"similarity","trial_index":104,"time_elapsed":539909,"internal_node_id":"0.0-6.0-98.0"},{"sim_score":5,"rt":2715,"stimulus":"[\"img/0758/d57c2592-a317-4f63-91be-91a3a9afd222.jpg\",\"img/0862/e697469a-ec19-4414-b972-7b9f3564785b.jpg\"]","trial_type":"similarity","trial_index":105,"time_elapsed":543631,"internal_node_id":"0.0-6.0-99.0"},{"sim_score":5,"rt":2716,"stimulus":"[\"img/0764/f713847b-4832-42d1-8fb3-e17e37fd745c.jpg\",\"img/0898/c3cecf20-f7fd-45fa-97d0-dc0a63e8d6c0.jpg\"]","trial_type":"similarity","trial_index":106,"time_elapsed":547357,"internal_node_id":"0.0-6.0-100.0"},{"sim_score":5,"rt":3793,"stimulus":"[\"img/0901/deff6cfb-0072-4490-bc3e-206bbcd3e8bf.jpg\",\"img/0902/3f0eeac5-c996-4026-a376-563ce8f28521.jpg\"]","trial_type":"similarity","trial_index":107,"time_elapsed":552160,"internal_node_id":"0.0-6.0-101.0"},{"sim_score":1,"rt":3719,"stimulus":"[\"img/0764/ca957454-126a-4bd3-b29c-7174a24c25dc.jpg\",\"img/0868/d98ca254-b195-477f-b57e-5760a2717db8.jpg\"]","trial_type":"similarity","trial_index":108,"time_elapsed":556890,"internal_node_id":"0.0-6.0-102.0"},{"sim_score":5,"rt":4693,"stimulus":"[\"img/0769/11518cb3-13ea-4dd0-890c-30cfab728ade.jpg\",\"img/0881/ed4c971f-0873-4fc8-b6d6-e8bbd82f0bcc.jpg\"]","trial_type":"similarity","trial_index":109,"time_elapsed":562589,"internal_node_id":"0.0-6.0-103.0"},{"sim_score":3,"rt":2879,"stimulus":"[\"img/0864/66091c27-e588-4476-8af9-265dc6be4156.jpg\",\"img/0769/c7cfacc3-7f07-46ff-9f5d-8073f4c4679b.jpg\"]","trial_type":"similarity","trial_index":110,"time_elapsed":566477,"internal_node_id":"0.0-6.0-104.0"},{"sim_score":6,"rt":4033,"stimulus":"[\"img/0866/0207e9a2-7dbb-40b5-9459-b472aaeceb2a.jpg\",\"img/0868/293079b8-7e0c-4afd-a390-1e5d35fe3ded.jpg\"]","trial_type":"similarity","trial_index":111,"time_elapsed":571517,"internal_node_id":"0.0-6.0-105.0"},{"sim_score":5,"rt":4134,"stimulus":"[\"img/0868/fd307a36-9a3a-47d7-ab7c-f810d0b35040.jpg\",\"img/0862/ee3b7bff-4a70-4e84-9bea-4a565e456acb.jpg\"]","trial_type":"similarity","trial_index":112,"time_elapsed":576665,"internal_node_id":"0.0-6.0-106.0"},{"sim_score":5,"rt":2873,"stimulus":"[\"img/0766/51d3aab4-3d09-4dda-b99d-3dc7aaabc6f2.jpg\",\"img/0898/79233891-305a-4a6a-8ddf-5c8604858203.jpg\"]","trial_type":"similarity","trial_index":113,"time_elapsed":580550,"internal_node_id":"0.0-6.0-107.0"},{"sim_score":2,"rt":3189,"stimulus":"[\"img/0898/f3a3f225-1248-4ac7-b93b-f0ff28485bf3.jpg\",\"img/0864/1d15626a-2f7c-410f-819c-0fa2c967e95e.jpg\"]","trial_type":"similarity","trial_index":114,"time_elapsed":584747,"internal_node_id":"0.0-6.0-108.0"},{"sim_score":2,"rt":2449,"stimulus":"[\"img/0868/77091fc7-a590-4ebb-b915-fdb2483a2399.jpg\",\"img/0902/8065aa6b-4aef-4368-afa2-02c6465ca582.jpg\"]","trial_type":"similarity","trial_index":115,"time_elapsed":588207,"internal_node_id":"0.0-6.0-109.0"},{"sim_score":6,"rt":3003,"stimulus":"[\"img/0904/b5855d6a-7ef9-46ca-9215-6e9fa046e543.jpg\",\"img/0764/c84fbfa8-521c-407a-9bd3-24f7308d896c.jpg\"]","trial_type":"similarity","trial_index":116,"time_elapsed":592217,"internal_node_id":"0.0-6.0-110.0"},{"sim_score":3,"rt":3151,"stimulus":"[\"img/0894/3adef67d-7676-4995-80b2-bb31b8aca3ef.jpg\",\"img/0875/3ecb367d-e9eb-4826-8aaa-7aa72fb98019.jpg\"]","trial_type":"similarity","trial_index":117,"time_elapsed":596377,"internal_node_id":"0.0-6.0-111.0"},{"sim_score":5,"rt":4381,"stimulus":"[\"img/0868/179a5502-ab5c-478e-8263-5a1fbcc101d2.jpg\",\"img/0874/ca23d307-fc00-4d7d-9106-584c6eb21b4d.jpg\"]","trial_type":"similarity","trial_index":118,"time_elapsed":601766,"internal_node_id":"0.0-6.0-112.0"},{"sim_score":5,"rt":3424,"stimulus":"[\"img/0904/06dacdc5-2206-4fb8-92b7-88042d22833c.jpg\",\"img/0898/82231d4c-218b-4d0a-b50d-35a49b524e97.jpg\"]","trial_type":"similarity","trial_index":119,"time_elapsed":607648,"internal_node_id":"0.0-6.0-113.0"},{"sim_score":3,"rt":3557,"stimulus":"[\"img/0860/f44ba3fb-03a2-42f0-8509-2c1ded493086.jpg\",\"img/0766/989c5c7f-1aff-4442-ac63-9d46acf4a891.jpg\"]","trial_type":"similarity","trial_index":120,"time_elapsed":612215,"internal_node_id":"0.0-6.0-114.0"},{"sim_score":3,"rt":3685,"stimulus":"[\"img/0894/151063aa-6472-4745-837b-36603aba5966.jpg\",\"img/0874/ca76a855-4e77-4f2f-872a-0a718153e7ed.jpg\"]","trial_type":"similarity","trial_index":121,"time_elapsed":616910,"internal_node_id":"0.0-6.0-115.0"},{"sim_score":5,"rt":3005,"stimulus":"[\"img/0899/fd9efb43-701f-4cd6-baaa-4c38315f4bdc.jpg\",\"img/0903/5c6b1f57-b3a2-40f5-9fb1-82785e24b6a0.jpg\"]","trial_type":"similarity","trial_index":122,"time_elapsed":620923,"internal_node_id":"0.0-6.0-116.0"},{"sim_score":5,"rt":3368,"stimulus":"[\"img/0881/7e31e5dc-2240-4b1b-b5a0-3acd980099ef.jpg\",\"img/0764/c80b3e06-2ee3-4326-9678-340607eb5348.jpg\"]","trial_type":"similarity","trial_index":123,"time_elapsed":625302,"internal_node_id":"0.0-6.0-117.0"},{"sim_score":3,"rt":2995,"stimulus":"[\"img/0903/8c358e9e-a4f4-466e-8b93-7aec0d2358e8.jpg\",\"img/0769/75f7e514-0548-4329-b1e4-93c05e74f038.jpg\"]","trial_type":"similarity","trial_index":124,"time_elapsed":629306,"internal_node_id":"0.0-6.0-118.0"},{"sim_score":5,"rt":4044,"stimulus":"[\"img/0901/50e1d53e-a49f-4806-8610-be6dec5a2475.jpg\",\"img/0904/5aec2708-cf14-4a58-aa30-9a8a61c1be0e.jpg\"]","trial_type":"similarity","trial_index":125,"time_elapsed":634363,"internal_node_id":"0.0-6.0-119.0"},{"sim_score":4,"rt":3608,"stimulus":"[\"img/0860/c3379ff7-0763-48fe-a1ec-7ea3d611bc7a.jpg\",\"img/0881/7e822106-76f7-4b10-a805-14dc68b2cfaf.jpg\"]","trial_type":"similarity","trial_index":126,"time_elapsed":638982,"internal_node_id":"0.0-6.0-120.0"},{"sim_score":5,"rt":3046,"stimulus":"[\"img/0758/67c0be2f-9e91-48b3-8219-70ac0a1802fa.jpg\",\"img/0874/1016b306-087c-4afc-aa08-fa527b28dc76.jpg\"]","trial_type":"similarity","trial_index":127,"time_elapsed":643036,"internal_node_id":"0.0-6.0-121.0"},{"sim_score":5,"rt":5096,"stimulus":"[\"img/0901/f1116359-1ff1-4638-b3b3-700918d36d18.jpg\",\"img/0769/ebef2ddc-ba59-4e0e-97f8-927864eb5081.jpg\"]","trial_type":"similarity","trial_index":128,"time_elapsed":649143,"internal_node_id":"0.0-6.0-122.0"},{"sim_score":5,"rt":3879,"stimulus":"[\"img/0902/c920f0e1-1c81-480f-a164-c77f2dc6ce9a.jpg\",\"img/0904/9dd5708f-3f8b-46a9-b49f-2f2fab87b357.jpg\"]","trial_type":"similarity","trial_index":129,"time_elapsed":654029,"internal_node_id":"0.0-6.0-123.0"},{"sim_score":2,"rt":3121,"stimulus":"[\"img/0899/06b0fc99-0581-461a-9913-d1a5a941ac61.jpg\",\"img/0864/e8bd659f-aa43-4748-877e-3118e8b4e189.jpg\"]","trial_type":"similarity","trial_index":130,"time_elapsed":658156,"internal_node_id":"0.0-6.0-124.0"},{"sim_score":2,"rt":3242,"stimulus":"[\"img/0766/535849cc-ff5d-4df9-8f31-0ce94a97d571.jpg\",\"img/0868/4e626425-63c8-484a-8a1d-e66ee4e0bef8.jpg\"]","trial_type":"similarity","trial_index":131,"time_elapsed":662411,"internal_node_id":"0.0-6.0-125.0"},{"sim_score":2,"rt":3198,"stimulus":"[\"img/0764/4bec8d92-75aa-475a-954d-8215dbe538f5.jpg\",\"img/0864/8ddd2e30-a1d0-479f-9cbe-591213023893.jpg\"]","trial_type":"similarity","trial_index":132,"time_elapsed":666617,"internal_node_id":"0.0-6.0-126.0"},{"sim_score":1,"rt":2661,"stimulus":"[\"img/0899/9de5e857-aa9a-4e0c-8ba2-46d79bd069a4.jpg\",\"img/0866/bf14b5bd-fb55-47db-86b9-4f8aeb9a6dad.jpg\"]","trial_type":"similarity","trial_index":133,"time_elapsed":670286,"internal_node_id":"0.0-6.0-127.0"},{"sim_score":2,"rt":3251,"stimulus":"[\"img/0901/8bb79e82-9c43-4b6f-a655-40655519598b.jpg\",\"img/0881/f7a8cc63-8842-40a4-9ff8-fe530310d62c.jpg\"]","trial_type":"similarity","trial_index":134,"time_elapsed":674545,"internal_node_id":"0.0-6.0-128.0"},{"sim_score":5,"rt":3862,"stimulus":"[\"img/0898/0c7dde4f-efce-4b7a-9387-6921635b7890.jpg\",\"img/0903/e2e55a9e-0397-4dc0-8adf-4a54cfefe1fe.jpg\"]","trial_type":"similarity","trial_index":135,"time_elapsed":679424,"internal_node_id":"0.0-6.0-129.0"},{"sim_score":2,"rt":2851,"stimulus":"[\"img/0894/6aa5545f-fa7d-4286-bbaa-aaf34dc7ec96.jpg\",\"img/0867/12264664-1860-46df-8c21-162b9817cdda.jpg\"]","trial_type":"similarity","trial_index":136,"time_elapsed":683295,"internal_node_id":"0.0-6.0-130.0"},{"sim_score":4,"rt":3666,"stimulus":"[\"img/0874/99f6563c-8a8d-4c1c-a41d-667b618c3fd5.jpg\",\"img/0903/9b60ef5b-234f-4239-892b-3d4c412accc2.jpg\"]","trial_type":"similarity","trial_index":137,"time_elapsed":687971,"internal_node_id":"0.0-6.0-131.0"},{"sim_score":5,"rt":3300,"stimulus":"[\"img/0899/8de08897-b430-42fe-9d42-840670b80f94.jpg\",\"img/0898/881e2a85-d5c2-49be-a0c6-8a6ce2c4af08.jpg\"]","trial_type":"similarity","trial_index":138,"time_elapsed":692280,"internal_node_id":"0.0-6.0-132.0"},{"sim_score":3,"rt":4195,"stimulus":"[\"img/0867/db7e032f-162b-46f5-ae67-2b29679adee4.jpg\",\"img/0764/438c0217-036f-43c9-9b87-f43144e46011.jpg\"]","trial_type":"similarity","trial_index":139,"time_elapsed":697483,"internal_node_id":"0.0-6.0-133.0"},{"sim_score":5,"rt":4349,"stimulus":"[\"img/0866/386235d2-6857-41e7-88a8-25cfc3430025.jpg\",\"img/0769/688d0c52-ad73-4065-a5eb-f8c10d076bff.jpg\"]","trial_type":"similarity","trial_index":140,"time_elapsed":702843,"internal_node_id":"0.0-6.0-134.0"},{"sim_score":1,"rt":3510,"stimulus":"[\"img/0860/c7047cd2-7cc1-41b6-8a34-c0986774975f.jpg\",\"img/0898/4184e5a2-84ea-4f36-9b42-ae58646f6f87.jpg\"]","trial_type":"similarity","trial_index":141,"time_elapsed":707365,"internal_node_id":"0.0-6.0-135.0"},{"sim_score":3,"rt":2912,"stimulus":"[\"img/0881/adc02f34-ce97-4aef-850f-00519df06fd7.jpg\",\"img/0903/b548d383-2a95-4575-8c13-647873751ff1.jpg\"]","trial_type":"similarity","trial_index":142,"time_elapsed":711284,"internal_node_id":"0.0-6.0-136.0"},{"sim_score":6,"rt":3884,"stimulus":"[\"img/0894/5c7677b0-a4f1-479e-b274-7822c415175a.jpg\",\"img/0766/fd74fdbb-ea40-4f3a-a091-38d08dfd636e.jpg\"]","trial_type":"similarity","trial_index":143,"time_elapsed":716179,"internal_node_id":"0.0-6.0-137.0"},{"sim_score":2,"rt":3669,"stimulus":"[\"img/0860/5383b320-1518-4095-a58e-5cc1ae30b64c.jpg\",\"img/0764/23ea9375-f801-4a96-9925-7d453da887c7.jpg\"]","trial_type":"similarity","trial_index":144,"time_elapsed":720856,"internal_node_id":"0.0-6.0-138.0"},{"sim_score":3,"rt":2905,"stimulus":"[\"img/0769/e8ed913b-8a88-44f6-9327-d34afec3116b.jpg\",\"img/0902/b03fee99-d5ca-4bf8-871c-a4a743a39842.jpg\"]","trial_type":"similarity","trial_index":145,"time_elapsed":724768,"internal_node_id":"0.0-6.0-139.0"},{"sim_score":6,"rt":5122,"stimulus":"[\"img/0904/ba8e689e-9ca6-4608-a2a1-3b0940666ae6.jpg\",\"img/0903/5ea5bbe0-f238-4724-abe7-9ed8dee8c0ba.jpg\"]","trial_type":"similarity","trial_index":146,"time_elapsed":730900,"internal_node_id":"0.0-6.0-140.0"},{"sim_score":5,"rt":3373,"stimulus":"[\"img/0764/4952d0a0-c9be-471a-8ec7-94a37bf4051d.jpg\",\"img/0769/8c7cf147-1780-4d5c-8ddf-5ea23ff03ac9.jpg\"]","trial_type":"similarity","trial_index":147,"time_elapsed":735283,"internal_node_id":"0.0-6.0-141.0"},{"sim_score":2,"rt":2991,"stimulus":"[\"img/0902/aa6fca32-82b0-4414-b20a-8f6f8aa5a2d2.jpg\",\"img/0881/20af39f5-373d-4a55-a437-2dc4c0382c46.jpg\"]","trial_type":"similarity","trial_index":148,"time_elapsed":739282,"internal_node_id":"0.0-6.0-142.0"},{"sim_score":5,"rt":3667,"stimulus":"[\"img/0866/8efcaa46-83ab-4dee-a35f-850402aa21ae.jpg\",\"img/0864/3651d070-2fc5-4848-b6a6-088a2d9ac5c9.jpg\"]","trial_type":"similarity","trial_index":149,"time_elapsed":743957,"internal_node_id":"0.0-6.0-143.0"},{"sim_score":6,"rt":5115,"stimulus":"[\"img/0902/10d99c89-71f7-4c81-a31e-dfc7c59f5232.jpg\",\"img/0898/5f699581-3853-4547-856c-12f419ba5af7.jpg\"]","trial_type":"similarity","trial_index":150,"time_elapsed":750081,"internal_node_id":"0.0-6.0-144.0"},{"sim_score":5,"rt":3622,"stimulus":"[\"img/0862/de9ad88c-b522-430a-8ee9-eb06a9f85df5.jpg\",\"img/0864/a248adb3-c70b-4652-b7a3-776d2a1e904b.jpg\"]","trial_type":"similarity","trial_index":151,"time_elapsed":754708,"internal_node_id":"0.0-6.0-145.0"},{"sim_score":5,"rt":2924,"stimulus":"[\"img/0875/5a1e5100-0d94-4fec-bbe9-ca9894d2cf8e.jpg\",\"img/0898/993d8f2d-bef7-4251-a193-0f93a32b7763.jpg\"]","trial_type":"similarity","trial_index":152,"time_elapsed":758639,"internal_node_id":"0.0-6.0-146.0"},{"sim_score":5,"rt":2976,"stimulus":"[\"img/0874/a3bc679d-619f-4db6-bb68-116dcb757d9c.jpg\",\"img/0881/633c6f40-56d9-4b48-bf1c-ecd83116eabb.jpg\"]","trial_type":"similarity","trial_index":153,"time_elapsed":762622,"internal_node_id":"0.0-6.0-147.0"},{"sim_score":3,"rt":4829,"stimulus":"[\"img/0758/eabcd7a8-56ad-4fd2-bc24-90f6b7b33265.jpg\",\"img/0894/11674fa4-285d-44e2-939f-2228c6a64080.jpg\"]","trial_type":"similarity","trial_index":154,"time_elapsed":768460,"internal_node_id":"0.0-6.0-148.0"},{"sim_score":1,"rt":3063,"stimulus":"[\"img/0904/fe746a3f-8458-48d0-8a13-8cba2a9df9f8.jpg\",\"img/0864/1ebbc554-99fa-49f9-8799-317375a79820.jpg\"]","trial_type":"similarity","trial_index":155,"time_elapsed":772533,"internal_node_id":"0.0-6.0-149.0"},{"sim_score":7,"rt":6201,"stimulus":"[\"img/0769/1d8734c4-77ab-4165-9e71-5cfe672ff01c.jpg\",\"img/0899/d8f2dd94-570e-4e8c-a087-d96090fb9e8c.jpg\"]","trial_type":"similarity","trial_index":156,"time_elapsed":779743,"internal_node_id":"0.0-6.0-150.0"},{"sim_score":6,"rt":5065,"stimulus":"[\"img/0764/e42c1dc9-7831-4995-be19-7ca7b4d141fc.jpg\",\"img/0903/150cf64c-0bd2-4674-abbb-a1387cf1f3e9.jpg\"]","trial_type":"similarity","trial_index":157,"time_elapsed":787388,"internal_node_id":"0.0-6.0-151.0"},{"sim_score":1,"rt":3673,"stimulus":"[\"img/0903/43ffd882-077a-40dd-a264-e58d519420a1.jpg\",\"img/0864/e02eddb5-f468-499c-91bf-f7be3ffe979b.jpg\"]","trial_type":"similarity","trial_index":158,"time_elapsed":792073,"internal_node_id":"0.0-6.0-152.0"},{"sim_score":2,"rt":3135,"stimulus":"[\"img/0894/5f15154e-e72e-4ce5-aafb-bce6f0564006.jpg\",\"img/0881/54ea8e77-c7e5-4197-b7fa-00b7020849a7.jpg\"]","trial_type":"similarity","trial_index":159,"time_elapsed":796218,"internal_node_id":"0.0-6.0-153.0"},{"sim_score":3,"rt":4163,"stimulus":"[\"img/0875/fb732ab5-013a-4366-9f65-27811ed157e9.jpg\",\"img/0867/ac1797e4-8afc-48fe-b252-86d1defb1cca.jpg\"]","trial_type":"similarity","trial_index":160,"time_elapsed":801389,"internal_node_id":"0.0-6.0-154.0"},{"sim_score":5,"rt":5176,"stimulus":"[\"img/0867/7d1c497b-c1b3-4ed8-abb5-d7f73306015f.jpg\",\"img/0758/7ee8bc8f-c40b-4b3a-84ec-3e83580622d4.jpg\"]","trial_type":"similarity","trial_index":161,"time_elapsed":807576,"internal_node_id":"0.0-6.0-155.0"},{"sim_score":3,"rt":3166,"stimulus":"[\"img/0868/83b4350a-3b70-4cea-b7f5-b5b56f3050a8.jpg\",\"img/0901/fb0a8e69-7f19-4e6e-a6bb-a48f97f9b4f3.jpg\"]","trial_type":"similarity","trial_index":162,"time_elapsed":811754,"internal_node_id":"0.0-6.0-156.0"},{"sim_score":6,"rt":4943,"stimulus":"[\"img/0769/f6396414-6788-4d59-9683-de153298d89c.jpg\",\"img/0894/b2d2f66e-e480-46da-a02a-6d0c6b285d78.jpg\"]","trial_type":"similarity","trial_index":163,"time_elapsed":817704,"internal_node_id":"0.0-6.0-157.0"},{"sim_score":2,"rt":2760,"stimulus":"[\"img/0904/6291eb43-c10c-4810-a36a-101d09868b04.jpg\",\"img/0758/caa93da2-9edf-49fa-96b9-32dedd8f5078.jpg\"]","trial_type":"similarity","trial_index":164,"time_elapsed":821474,"internal_node_id":"0.0-6.0-158.0"},{"sim_score":2,"rt":3796,"stimulus":"[\"img/0874/7e4f2150-3b59-4a36-b5da-a4e0ba410531.jpg\",\"img/0904/9b3568cc-3cf7-42be-9df3-fdafde7a58b8.jpg\"]","trial_type":"similarity","trial_index":165,"time_elapsed":826278,"internal_node_id":"0.0-6.0-159.0"},{"sim_score":2,"rt":4107,"stimulus":"[\"img/0864/9b2490c5-a282-400a-9736-e1a0ecbf1cb7.jpg\",\"img/0901/a6c90438-fa7c-4418-ac7c-16c2e772dd98.jpg\"]","trial_type":"similarity","trial_index":166,"time_elapsed":831391,"internal_node_id":"0.0-6.0-160.0"},{"sim_score":2,"rt":2637,"stimulus":"[\"img/0898/661621d4-a14e-487c-8c74-354134a29710.jpg\",\"img/0866/9b38d691-1802-4959-ab3f-fc902f0e4ea6.jpg\"]","trial_type":"similarity","trial_index":167,"time_elapsed":835037,"internal_node_id":"0.0-6.0-161.0"},{"sim_score":5,"rt":4630,"stimulus":"[\"img/0766/d14acac4-7db1-4b07-8f8f-302437326fc0.jpg\",\"img/0903/f10e9eb5-0c21-4a6a-944c-5f10a6d0fa4d.jpg\"]","trial_type":"similarity","trial_index":168,"time_elapsed":840676,"internal_node_id":"0.0-6.0-162.0"},{"sim_score":3,"rt":4699,"stimulus":"[\"img/0860/17b44a7d-c5ca-479f-9e87-f65a64f5c80e.jpg\",\"img/0899/66bf4113-ee12-426c-84d2-ea410b6c803e.jpg\"]","trial_type":"similarity","trial_index":169,"time_elapsed":846384,"internal_node_id":"0.0-6.0-163.0"},{"sim_score":2,"rt":3014,"stimulus":"[\"img/0766/60033a74-9919-47e5-913c-71d0d483e7e5.jpg\",\"img/0862/92fcd8a4-8193-4a6a-ae09-dd4a6338b0df.jpg\"]","trial_type":"similarity","trial_index":170,"time_elapsed":850406,"internal_node_id":"0.0-6.0-164.0"},{"sim_score":6,"rt":4090,"stimulus":"[\"img/0898/224c1572-56b9-4f16-a9e4-6f3bc9c114bd.jpg\",\"img/0894/6b2e9509-8699-42b7-9582-7741df0ba2d7.jpg\"]","trial_type":"similarity","trial_index":171,"time_elapsed":855505,"internal_node_id":"0.0-6.0-165.0"},{"sim_score":3,"rt":3269,"stimulus":"[\"img/0867/a749dddb-69f0-44a6-acdc-2bf295cf6dcc.jpg\",\"img/0766/3c526a07-9e0a-4ae2-8142-00085f0127da.jpg\"]","trial_type":"similarity","trial_index":172,"time_elapsed":859783,"internal_node_id":"0.0-6.0-166.0"},{"sim_score":2,"rt":3231,"stimulus":"[\"img/0904/d23dd7be-7fe8-4435-82f7-bd592c01e6a1.jpg\",\"img/0862/fad1d7c1-8187-43c3-942a-0fc12183e48e.jpg\"]","trial_type":"similarity","trial_index":173,"time_elapsed":864023,"internal_node_id":"0.0-6.0-167.0"},{"sim_score":5,"rt":3719,"stimulus":"[\"img/0866/07c9c966-3c8d-40e7-8128-92b2acbaed5d.jpg\",\"img/0874/8cdb1c07-1c32-46d2-981c-3636560fa6e5.jpg\"]","trial_type":"similarity","trial_index":174,"time_elapsed":868750,"internal_node_id":"0.0-6.0-168.0"},{"sim_score":2,"rt":3755,"stimulus":"[\"img/0903/0e5c2854-42aa-48c0-9c3d-6e1ad2a400bd.jpg\",\"img/0868/09a9ef4d-d000-4cfa-a6aa-ebec7c2edeb4.jpg\"]","trial_type":"similarity","trial_index":175,"time_elapsed":873517,"internal_node_id":"0.0-6.0-169.0"},{"sim_score":5,"rt":3645,"stimulus":"[\"img/0769/ecda2fb3-556b-43ba-8a67-e87dd75ff2b4.jpg\",\"img/0904/1d10df11-b5c8-4370-9a6b-097a7f965895.jpg\"]","trial_type":"similarity","trial_index":176,"time_elapsed":878175,"internal_node_id":"0.0-6.0-170.0"},{"sim_score":2,"rt":3073,"stimulus":"[\"img/0875/e7e66b13-b573-431e-b85e-288ce04a35a3.jpg\",\"img/0764/8740679b-b56f-4292-aece-14063457113a.jpg\"]","trial_type":"similarity","trial_index":177,"time_elapsed":882256,"internal_node_id":"0.0-6.0-171.0"},{"sim_score":5,"rt":4272,"stimulus":"[\"img/0860/524b2e98-5767-4d53-942c-ebae6925659b.jpg\",\"img/0903/14f179a2-8786-48a2-8377-88d1d404341b.jpg\"]","trial_type":"similarity","trial_index":178,"time_elapsed":887535,"internal_node_id":"0.0-6.0-172.0"},{"sim_score":5,"rt":4130,"stimulus":"[\"img/0864/65210d57-1153-4657-886a-32e758f49b4a.jpg\",\"img/0867/2e1a0b58-cdb1-4107-a14e-452530d7b9b0.jpg\"]","trial_type":"similarity","trial_index":179,"time_elapsed":892674,"internal_node_id":"0.0-6.0-173.0"},{"sim_score":5,"rt":3478,"stimulus":"[\"img/0868/1a62b2b2-18f5-466e-b564-5176a57c565e.jpg\",\"img/0864/f92649a2-0590-4d31-9a7a-1bfb81666a2d.jpg\"]","trial_type":"similarity","trial_index":180,"time_elapsed":897171,"internal_node_id":"0.0-6.0-174.0"},{"sim_score":5,"rt":4391,"stimulus":"[\"img/0898/b2732712-71c2-45d8-834f-2b2ed5504910.jpg\",\"img/0769/3adfa417-3b90-4aab-b437-5eaa474189cb.jpg\"]","trial_type":"similarity","trial_index":181,"time_elapsed":902569,"internal_node_id":"0.0-6.0-175.0"},{"sim_score":7,"rt":5309,"stimulus":"[\"img/0766/0025de5e-f620-4079-8a0f-00326ff3a6b0.jpg\",\"img/0764/29072395-f595-4e3c-83d3-ff87010039fa.jpg\"]","trial_type":"similarity","trial_index":182,"time_elapsed":908886,"internal_node_id":"0.0-6.0-176.0"},{"sim_score":3,"rt":4691,"stimulus":"[\"img/0764/f9f890e6-3c2f-40cd-84e9-85e0b54cb28e.jpg\",\"img/0866/620cd1aa-0800-4414-8f6e-90342e7a99ad.jpg\"]","trial_type":"similarity","trial_index":183,"time_elapsed":914586,"internal_node_id":"0.0-6.0-177.0"},{"sim_score":1,"rt":2945,"stimulus":"[\"img/0902/af45fe42-178c-4c1a-99ef-256e87e3b092.jpg\",\"img/0875/99698b4d-b4a1-44bc-8c83-8ea755bbbf61.jpg\"]","trial_type":"similarity","trial_index":184,"time_elapsed":918540,"internal_node_id":"0.0-6.0-178.0"},{"sim_score":2,"rt":3967,"stimulus":"[\"img/0881/dea58fad-b4f1-41d9-bd3f-916eff19a3fd.jpg\",\"img/0904/2f88ce53-02d0-4f95-a082-182c56a0eeb4.jpg\"]","trial_type":"similarity","trial_index":185,"time_elapsed":923513,"internal_node_id":"0.0-6.0-179.0"},{"sim_score":4,"rt":5651,"stimulus":"[\"img/0874/a82926a3-0b43-4add-803c-d5f9ea7798ee.jpg\",\"img/0860/5bff793e-cbd5-4d7e-b628-0ac2b0e30b64.jpg\"]","trial_type":"similarity","trial_index":186,"time_elapsed":930172,"internal_node_id":"0.0-6.0-180.0"},{"sim_score":2,"rt":3565,"stimulus":"[\"img/0769/38a88f69-28fd-4bbd-99f0-f4c02bfd3995.jpg\",\"img/0874/2c9464dd-8a23-4baa-ac94-1ba3af5c15cc.jpg\"]","trial_type":"similarity","trial_index":187,"time_elapsed":934744,"internal_node_id":"0.0-6.0-181.0"},{"sim_score":5,"rt":4616,"stimulus":"[\"img/0904/65e2b70a-b184-4da3-b5c0-5038bdf9469a.jpg\",\"img/0766/b84598d0-5b41-4841-88b0-b441b48289f5.jpg\"]","trial_type":"similarity","trial_index":188,"time_elapsed":940366,"internal_node_id":"0.0-6.0-182.0"},{"sim_score":6,"rt":4321,"stimulus":"[\"img/0902/d5e25767-e8ec-45f3-ac0a-7b4a6f7a9edc.jpg\",\"img/0764/5d6fa3ce-9083-410c-bbdb-336a49b94cfc.jpg\"]","trial_type":"similarity","trial_index":189,"time_elapsed":945695,"internal_node_id":"0.0-6.0-183.0"},{"sim_score":3,"rt":3421,"stimulus":"[\"img/0769/878531fd-e0e8-4ad1-b9ad-f018bb104ca0.jpg\",\"img/0875/2c361b79-c3d1-4eda-812e-bf03192407bf.jpg\"]","trial_type":"similarity","trial_index":190,"time_elapsed":950126,"internal_node_id":"0.0-6.0-184.0"},{"sim_score":1,"rt":3469,"stimulus":"[\"img/0867/98d8cd96-1476-4fe0-a3a3-04f875500a1b.jpg\",\"img/0903/776b74ee-a8ab-4ab8-a78d-097c0747538d.jpg\"]","trial_type":"similarity","trial_index":191,"time_elapsed":954602,"internal_node_id":"0.0-6.0-185.0"},{"sim_score":2,"rt":3283,"stimulus":"[\"img/0862/f43ceabf-acc1-4107-b857-5d1849808f93.jpg\",\"img/0769/662ab839-88d1-4ebf-af05-9b2980cad943.jpg\"]","trial_type":"similarity","trial_index":192,"time_elapsed":958890,"internal_node_id":"0.0-6.0-186.0"},{"sim_score":2,"rt":3498,"stimulus":"[\"img/0766/e8052e17-9dae-4139-802b-6e590cb2d526.jpg\",\"img/0866/f756f7d1-9ad8-4a34-9ef6-7a443d705bfe.jpg\"]","trial_type":"similarity","trial_index":193,"time_elapsed":963395,"internal_node_id":"0.0-6.0-187.0"},{"sim_score":2,"rt":3532,"stimulus":"[\"img/0769/8598a429-c671-4d2f-842c-32f681f5e412.jpg\",\"img/0860/4a022222-056d-461c-ab02-39fac9647552.jpg\"]","trial_type":"similarity","trial_index":194,"time_elapsed":967939,"internal_node_id":"0.0-6.0-188.0"},{"sim_score":4,"rt":4786,"stimulus":"[\"img/0881/566f45f8-5fed-4479-a60f-26377e60a62d.jpg\",\"img/0868/15dd6fd7-791e-4b53-b203-195d617521a4.jpg\"]","trial_type":"similarity","trial_index":195,"time_elapsed":976820,"internal_node_id":"0.0-6.0-189.0"},{"view_history":"[{\"page_index\":0,\"viewing_time\":5651}]","rt":5653,"trial_type":"instructions","trial_index":196,"time_elapsed":983475,"internal_node_id":"0.0-7.0"},{"rt":18805,"responses":"{\"Q0\":\"Yellow Warbler\"}","answer":["Nashville Warbler"],"trial_type":"image-multi-choice","trial_index":197,"time_elapsed":1003333,"internal_node_id":"0.0-8.0-0.0"},{"rt":9689,"responses":"{\"Q0\":\"Blackburnian Warbler\"}","answer":["Black-and-white Warbler"],"trial_type":"image-multi-choice","trial_index":198,"time_elapsed":1014051,"internal_node_id":"0.0-8.0-1.0"},{"rt":7010,"responses":"{\"Q0\":\"Black-and-white Warbler\"}","answer":["Townsend's Warbler"],"trial_type":"image-multi-choice","trial_index":199,"time_elapsed":1022087,"internal_node_id":"0.0-8.0-2.0"},{"rt":5331,"responses":"{\"Q0\":\"American Tree Sparrow\"}","answer":["Lark Sparrow"],"trial_type":"image-multi-choice","trial_index":200,"time_elapsed":1028458,"internal_node_id":"0.0-8.0-3.0"},{"rt":19605,"responses":"{\"Q0\":\"Magnolia Warbler\"}","answer":["Yellow Warbler"],"trial_type":"image-multi-choice","trial_index":201,"time_elapsed":1049089,"internal_node_id":"0.0-8.0-4.0"},{"rt":14440,"responses":"{\"Q0\":\"Nashville Warbler\"}","answer":["Orange-crowned Warbler"],"trial_type":"image-multi-choice","trial_index":202,"time_elapsed":1064558,"internal_node_id":"0.0-8.0-5.0"},{"rt":8062,"responses":"{\"Q0\":\"White-crowned Sparrow\"}","answer":["White-throated Sparrow"],"trial_type":"image-multi-choice","trial_index":203,"time_elapsed":1073672,"internal_node_id":"0.0-8.0-6.0"},{"rt":8542,"responses":"{\"Q0\":\"American Tree Sparrow\"}","answer":["Fox Sparrow"],"trial_type":"image-multi-choice","trial_index":204,"time_elapsed":1083236,"internal_node_id":"0.0-8.0-7.0"},{"rt":4946,"responses":"{\"Q0\":\"Song Sparrow\"}","answer":["Song Sparrow"],"trial_type":"image-multi-choice","trial_index":205,"time_elapsed":1089205,"internal_node_id":"0.0-8.0-8.0"},{"rt":11393,"responses":"{\"Q0\":\"Townsend's Warbler\"}","answer":["Blackburnian Warbler"],"trial_type":"image-multi-choice","trial_index":206,"time_elapsed":1101629,"internal_node_id":"0.0-8.0-9.0"},{"rt":6428,"responses":"{\"Q0\":\"Swamp Sparrow\"}","answer":["Vesper Sparrow"],"trial_type":"image-multi-choice","trial_index":207,"time_elapsed":1109088,"internal_node_id":"0.0-8.0-10.0"},{"rt":3863,"responses":"{\"Q0\":\"White-crowned Sparrow\"}","answer":["White-crowned Sparrow"],"trial_type":"image-multi-choice","trial_index":208,"time_elapsed":1113984,"internal_node_id":"0.0-8.0-11.0"},{"rt":8417,"responses":"{\"Q0\":\"Lincoln's Sparrow\"}","answer":["American Tree Sparrow"],"trial_type":"image-multi-choice","trial_index":209,"time_elapsed":1123431,"internal_node_id":"0.0-8.0-12.0"},{"rt":17356,"responses":"{\"Q0\":\"Tennessee Warbler\"}","answer":["Tennessee Warbler"],"trial_type":"image-multi-choice","trial_index":210,"time_elapsed":1141812,"internal_node_id":"0.0-8.0-13.0"},{"rt":10265,"responses":"{\"Q0\":\"Tennessee Warbler\"}","answer":["Magnolia Warbler"],"trial_type":"image-multi-choice","trial_index":211,"time_elapsed":1153106,"internal_node_id":"0.0-8.0-14.0"},{"rt":15570,"responses":"{\"Q0\":\"Northern Waterthrush\"}","answer":["Northern Waterthrush"],"trial_type":"image-multi-choice","trial_index":212,"time_elapsed":1169711,"internal_node_id":"0.0-8.0-15.0"},{"rt":5049,"responses":"{\"Q0\":\"Chipping Sparrow\"}","answer":["Chipping Sparrow"],"trial_type":"image-multi-choice","trial_index":213,"time_elapsed":1175785,"internal_node_id":"0.0-8.0-16.0"},{"rt":7213,"responses":"{\"Q0\":\"Vesper Sparrow\"}","answer":["Swamp Sparrow"],"trial_type":"image-multi-choice","trial_index":214,"time_elapsed":1184025,"internal_node_id":"0.0-8.0-17.0"},{"rt":12163,"responses":"{\"Q0\":\"Vesper Sparrow\"}","answer":["Lincoln's Sparrow"],"trial_type":"image-multi-choice","trial_index":215,"time_elapsed":1197228,"internal_node_id":"0.0-8.0-18.0"},{"rt":9748,"responses":"{\"Q0\":\"Northern Waterthrush\"}","answer":["Ovenbird"],"trial_type":"image-multi-choice","trial_index":216,"time_elapsed":1208013,"internal_node_id":"0.0-8.0-19.0"}]