"view_history","rt","trial_type","trial_index","time_elapsed","internal_node_id","sim_score","stimulus","responses","answer"
"[{""page_index"":0,""viewing_time"":15901}]","15902","instructions","0","15903","0.0-0.0","","","",""
"","5529","similarity_demo","1","22448","0.0-1.0","7","[""img/bluejay1.jpg"",""img/bluejay2.jpg""]","",""
"[{""page_index"":0,""viewing_time"":10183}]","10184","instructions","2","33647","0.0-2.0","","","",""
"","7417","similarity_demo","3","42086","0.0-3.0","3","[""img/bluejay1.jpg"",""img/cardinal1.jpg""]","",""
"[{""page_index"":0,""viewing_time"":5482}]","5483","instructions","4","48571","0.0-4.0","","","",""
"[{""page_index"":0,""viewing_time"":18213}]","18214","instructions","5","67787","0.0-5.0","","","",""
"","5836","similarity","6","74639","0.0-6.0-0.0","3","[""img/0868/4a8a45ed-2c4f-421b-9564-409a33ecd26c.jpg"",""img/0894/1a010553-d598-4b06-a772-81f1e7b3addb.jpg""]","",""
"","7377","similarity","7","83030","0.0-6.0-1.0","4","[""img/0898/a8f16b02-e19f-423b-86c3-a36562ae1f9b.jpg"",""img/0758/20497cbe-ddae-489e-86e2-ab06985ed07c.jpg""]","",""
"","7784","similarity","8","91830","0.0-6.0-2.0","5","[""img/0903/b7e3723f-fd03-4f3d-8820-f19496463a34.jpg"",""img/0894/10f22b96-040c-44f4-950b-a4963f3f506c.jpg""]","",""
"","4260","similarity","9","97104","0.0-6.0-3.0","3","[""img/0881/445edb15-bd7f-4af3-8bd5-c6ad9677bb31.jpg"",""img/0766/33aa9ebb-c9f5-418f-8c8b-c77861889568.jpg""]","",""
"","3258","similarity","10","101374","0.0-6.0-4.0","3","[""img/0864/da39ad34-04e0-40d4-a724-c08d53e0ea09.jpg"",""img/0860/4f695df5-afac-4da7-9875-fee39b0b24ad.jpg""]","",""
"","3806","similarity","11","106195","0.0-6.0-5.0","5","[""img/0902/d3e55000-c839-4bf9-9b9b-4af0a9925af1.jpg"",""img/0899/fef567a2-c121-4481-9af0-ff108d199bbf.jpg""]","",""
"","3146","similarity","12","110350","0.0-6.0-6.0","2","[""img/0868/6a28c3b0-3d76-498a-9fb7-ddafc665eca8.jpg"",""img/0769/057eb0a0-aa5b-40c7-9852-21444f68d767.jpg""]","",""
"","3869","similarity","13","115239","0.0-6.0-7.0","5","[""img/0764/c0b03adb-bd0a-4b96-a915-a827c2fd5211.jpg"",""img/0901/693e0535-ef7e-4d60-af9d-fac2f38e8307.jpg""]","",""
"","2859","similarity","14","119109","0.0-6.0-8.0","1","[""img/0881/44e09805-5a25-4f17-a716-4ad4a331b174.jpg"",""img/0866/a15b02be-11bb-43e3-b0e0-ecc3bd7dfc49.jpg""]","",""
"","4303","similarity","15","124430","0.0-6.0-9.0","3","[""img/0867/c66898ba-b71b-4d50-84f9-f7f84853a98d.jpg"",""img/0899/51a7a498-98c7-42d7-bca8-bc2d8f0b5831.jpg""]","",""
"","3667","similarity","16","129118","0.0-6.0-10.0","5","[""img/0875/34132396-d896-4c2d-8087-646dd867e769.jpg"",""img/0766/1865bfc9-2410-4765-a804-3ae4ba2393d0.jpg""]","",""
"","3887","similarity","17","134017","0.0-6.0-11.0","3","[""img/0901/2a953e50-d237-405c-a38d-5ed21494c968.jpg"",""img/0875/8521fd58-3b1e-4dc5-97ae-804edfa6734a.jpg""]","",""
"","3337","similarity","18","138383","0.0-6.0-12.0","3","[""img/0902/a6fb6dd5-696c-47ec-be7d-d7b88f1544f1.jpg"",""img/0860/8277806e-b684-4474-8f7b-3fca946d7d4f.jpg""]","",""
"","3343","similarity","19","142735","0.0-6.0-13.0","5","[""img/0874/31e22c7c-99aa-40b1-bf03-dd73fa2df4d6.jpg"",""img/0867/f8159067-056c-41f1-a136-c529fe5e970a.jpg""]","",""
"","3218","similarity","20","146975","0.0-6.0-14.0","3","[""img/0904/0d25eb24-bb20-4e8d-9787-8b489558b4cb.jpg"",""img/0866/945c6710-d15b-4a5b-a8f6-69af0850357f.jpg""]","",""
"","5537","similarity","21","153520","0.0-6.0-15.0","3","[""img/0758/7ffbc76b-1fc1-432c-8f7e-9ec8d1b3f643.jpg"",""img/0902/b03129ba-b087-4558-af37-e8399d6217d6.jpg""]","",""
"","2551","similarity","22","157081","0.0-6.0-16.0","3","[""img/0867/26611f4e-d694-4460-b7e2-43c62753ddc3.jpg"",""img/0898/01bfe666-3510-4fc7-964f-d00d28732dc8.jpg""]","",""
"","2834","similarity","23","160923","0.0-6.0-17.0","3","[""img/0904/e9423a8c-f946-43ad-ab7b-931acef870e2.jpg"",""img/0868/5fa7f9d0-f0e5-454c-8224-74d964818f56.jpg""]","",""
"","3251","similarity","24","165182","0.0-6.0-18.0","3","[""img/0766/a1ed3f0f-e338-4a26-8fe4-4370f0c9fa6e.jpg"",""img/0864/3d4de670-b290-4285-9c3d-12a0e3af44e9.jpg""]","",""
"","4541","similarity","25","170730","0.0-6.0-19.0","6","[""img/0899/f58b8d2f-b19d-4b59-8b94-8834be92e4ba.jpg"",""img/0766/1bc0dccc-a5b5-4375-87fa-28360ca42b12.jpg""]","",""
"","3178","similarity","26","174916","0.0-6.0-20.0","3","[""img/0764/e0788029-9d7f-414c-b747-46d2a99f7c86.jpg"",""img/0758/6e95579b-5166-487c-b8cb-e417c6a218e3.jpg""]","",""
"","2649","similarity","27","178571","0.0-6.0-21.0","2","[""img/0901/4f9cffe0-c0be-4d7f-bacd-9d51efd19b4a.jpg"",""img/0874/93d1f8dc-acf2-4f03-bd8d-8ec35df276ed.jpg""]","",""
"","2994","similarity","28","182574","0.0-6.0-22.0","5","[""img/0875/42910c99-5463-450a-a0f8-d4d060a11455.jpg"",""img/0758/ddc336e9-a8b6-4bb9-937a-c7e25e0e9250.jpg""]","",""
"","2910","similarity","29","186493","0.0-6.0-23.0","6","[""img/0867/075e0f95-856b-4cbb-acf5-092393aaf04e.jpg"",""img/0881/667e2147-d457-4f32-aa5f-6ab86e5848f1.jpg""]","",""
"","3132","similarity","30","190638","0.0-6.0-24.0","3","[""img/0758/a085b443-b5d7-4cb2-9ad4-b9dab0fc23f1.jpg"",""img/0901/233a6948-48eb-4b67-8259-222b916b2322.jpg""]","",""
"","4474","similarity","31","196123","0.0-6.0-25.0","6","[""img/0868/3a62db2d-97e9-44a3-b8e3-a48c6f0e423b.jpg"",""img/0875/f87b67d7-c33e-40d1-b281-248c4be1cb6e.jpg""]","",""
"","3709","similarity","32","200840","0.0-6.0-26.0","6","[""img/0903/a0673b55-6040-47fe-9040-24bca27ca3c9.jpg"",""img/0901/33b51a81-06d9-46d9-9d4f-5a2d6d6b8058.jpg""]","",""
"","3749","similarity","33","205609","0.0-6.0-27.0","5","[""img/0894/5ff3c4f6-52e2-4075-8679-be0312e59703.jpg"",""img/0899/57476fed-5962-4272-8fc9-b317bb777b54.jpg""]","",""
"","3334","similarity","34","209989","0.0-6.0-28.0","3","[""img/0862/e8cc3bdf-cc43-4565-bccf-492626c70953.jpg"",""img/0867/179ab87a-8eac-4c52-a41f-2e48e3120f09.jpg""]","",""
"","3888","similarity","35","214907","0.0-6.0-29.0","5","[""img/0864/ef9cbca0-4be8-435d-ad49-977259e80409.jpg"",""img/0875/a4935837-7d3c-4df6-88c1-36a94d4991ca.jpg""]","",""
"","4305","similarity","36","220225","0.0-6.0-30.0","5","[""img/0862/e0f1a4e9-e1b6-45f7-af67-89f334e6630d.jpg"",""img/0874/3ce41e7c-40c8-4d58-a546-171114521796.jpg""]","",""
"","3397","similarity","37","224628","0.0-6.0-31.0","6","[""img/0903/f45a103c-9bfe-49fd-ad96-bdd8d2589195.jpg"",""img/0758/d41c06bf-ebaf-454b-91c6-1a17f917b659.jpg""]","",""
"","4426","similarity","38","230073","0.0-6.0-32.0","2","[""img/0866/23a224f3-2012-4fc8-8e0f-3c36f8de27fd.jpg"",""img/0901/0adb3bd6-d758-4ba7-9723-3ad6cac05bd5.jpg""]","",""
"","2998","similarity","39","234079","0.0-6.0-33.0","3","[""img/0874/3f471690-9788-4d03-90c7-f615aecef149.jpg"",""img/0899/00715b3f-851b-420b-a26b-d7f79f7759a9.jpg""]","",""
"","4050","similarity","40","239137","0.0-6.0-34.0","4","[""img/0903/d987e220-f3e6-4b6d-a270-fe6757041f6d.jpg"",""img/0902/95a36b6b-9601-4fa5-8fd9-606ea62f9425.jpg""]","",""
"","4396","similarity","41","244544","0.0-6.0-35.0","5","[""img/0758/b76ceca7-95ac-46e4-ac13-da02c8e93be9.jpg"",""img/0866/93a27239-8317-4e08-98ca-d8b1ff298e07.jpg""]","",""
"","4568","similarity","42","250120","0.0-6.0-36.0","3","[""img/0875/dbdd643e-6d0e-4a5c-ab57-b9c29b9c981a.jpg"",""img/0903/12bd8657-92e6-4c36-a06c-597e7a1d51f3.jpg""]","",""
"","3485","similarity","43","260386","0.0-6.0-37.0","3","[""img/0864/6f631579-acf1-415c-a42c-1207f62a8d99.jpg"",""img/0902/30c420f5-c714-4681-ae5a-c0ba8f636a26.jpg""]","",""
"","3041","similarity","44","264438","0.0-6.0-38.0","2","[""img/0901/c6c877e0-dd63-4e00-9657-33af29d55aab.jpg"",""img/0867/f8488a47-94ee-4166-952c-44e16cf172f6.jpg""]","",""
"","3680","similarity","45","269135","0.0-6.0-39.0","6","[""img/0862/eefa5588-9efd-4591-aa5f-a2e17c7d7bcc.jpg"",""img/0860/71e1aad0-2cdf-43bb-94a4-a8c016997c30.jpg""]","",""
"","3189","similarity","46","273343","0.0-6.0-40.0","5","[""img/0867/cc72ed48-7704-422c-86d6-467a1145287a.jpg"",""img/0868/d6d1f30d-4323-435a-b194-7892521bc57e.jpg""]","",""
"","4290","similarity","47","278643","0.0-6.0-41.0","6","[""img/0904/24fc38fe-842c-4831-ad8a-b1de5c25c0a8.jpg"",""img/0899/0e1d936a-dbe2-4afc-9f19-7b7a1ae6c9ed.jpg""]","",""
"","2931","similarity","48","282584","0.0-6.0-42.0","2","[""img/0862/a0a3a7ba-7798-46a3-b4ca-05e1f6e581d0.jpg"",""img/0894/86201968-6e78-4d68-9b3a-d1692e066210.jpg""]","",""
"","3169","similarity","49","286764","0.0-6.0-43.0","5","[""img/0875/5a7c4e35-6514-4e12-8879-d16071da4cd6.jpg"",""img/0904/2fd488e9-960f-41f7-8a44-33375f7d5051.jpg""]","",""
"","3757","similarity","50","291529","0.0-6.0-44.0","3","[""img/0874/85eb9b8a-c4c6-4e5a-b8e7-363a87a82054.jpg"",""img/0898/6cd3830b-d44e-4915-be2b-88d31424b91c.jpg""]","",""
"","4092","similarity","51","296631","0.0-6.0-45.0","3","[""img/0898/a114b375-cb89-44ba-9498-74213f1ecdee.jpg"",""img/0868/0d3abd3a-b6c3-4584-a9f7-e2da63748b3d.jpg""]","",""
"","3814","similarity","52","301456","0.0-6.0-46.0","3","[""img/0901/148b747a-7392-437e-8823-33053c5dff3f.jpg"",""img/0860/18dfed73-e36b-4487-a8bd-0b8cff8e3668.jpg""]","",""
"","3087","similarity","53","305554","0.0-6.0-47.0","5","[""img/0894/38cf335f-f76f-4349-8d65-e20cd6859565.jpg"",""img/0902/eb3e7e71-8ff1-4b88-a6a7-47e2c1ce1683.jpg""]","",""
"","4955","similarity","54","311522","0.0-6.0-48.0","3","[""img/0764/6fbd1902-fa2a-48d8-bc11-705b8ab68d8f.jpg"",""img/0862/1c20f772-3a51-4a80-aac0-f57dc9f86c28.jpg""]","",""
"","4856","similarity","55","317386","0.0-6.0-49.0","7","[""img/0881/d373cb9f-a719-4549-a2a4-82def79fb2a5.jpg"",""img/0758/e38fd80d-18d0-42f3-b848-f930788e8bd7.jpg""]","",""
"","4407","similarity","56","322806","0.0-6.0-50.0","5","[""img/0766/33519c22-aaa4-49d7-8d49-ab551db1945e.jpg"",""img/0769/1afb527f-9887-428c-bd26-a12c2f9efb68.jpg""]","",""
"","3151","similarity","57","326965","0.0-6.0-51.0","6","[""img/0875/ebf7653f-ff45-4e9f-af58-2c042ab3cd2b.jpg"",""img/0866/02f5e6b9-52b7-448c-9708-5b460d0c9a23.jpg""]","",""
"","4392","similarity","58","332378","0.0-6.0-52.0","5","[""img/0894/4739e06d-c31e-4bf1-bf91-c97fa9afb456.jpg"",""img/0904/09dac84f-3d1c-4445-a68e-d0389fdbf1e9.jpg""]","",""
"","3154","similarity","59","336541","0.0-6.0-53.0","5","[""img/0758/821c68d3-5cb0-4eae-8659-30e6263fca39.jpg"",""img/0769/f73c5138-2f4c-4354-981c-129dff9cc734.jpg""]","",""
"","3879","similarity","60","341427","0.0-6.0-54.0","3","[""img/0902/2a7ac123-414a-476a-9a96-4757b924baef.jpg"",""img/0874/bf14b896-e930-4fd9-9c05-2e83317a2773.jpg""]","",""
"","3530","similarity","61","345965","0.0-6.0-55.0","3","[""img/0903/6b5dcc60-3ad3-4962-93e5-e6cf768477af.jpg"",""img/0862/57b6f83f-c763-4858-830d-102f97bfefbf.jpg""]","",""
"","3957","similarity","62","350929","0.0-6.0-56.0","2","[""img/0866/4a87911a-d5be-4d4e-ab8e-3d1f581bf507.jpg"",""img/0894/1b3888e6-cf36-4c4a-a039-187aa5cb71ac.jpg""]","",""
"","3062","similarity","63","354998","0.0-6.0-57.0","2","[""img/0867/1719a35d-f085-48c0-9099-16c94fe418b4.jpg"",""img/0904/5cceabc9-de1d-4c67-989b-c28a4ef77e79.jpg""]","",""
"","2910","similarity","64","358923","0.0-6.0-58.0","5","[""img/0875/2e13d160-eea1-416b-aff1-d37ab99ecc1d.jpg"",""img/0881/84397291-bc14-4fbf-90e8-241e486ab0fe.jpg""]","",""
"","3887","similarity","65","363822","0.0-6.0-59.0","5","[""img/0866/c446214b-a368-4c65-ae39-ea46894256ab.jpg"",""img/0860/d9a0d117-6d1d-41c0-8fec-9aff0fd9e9f2.jpg""]","",""
"","2734","similarity","66","367563","0.0-6.0-60.0","2","[""img/0903/2c7b4aed-6038-4aac-958a-e3e58341c313.jpg"",""img/0866/be24ab58-230e-4db8-9f45-ff04c9aec6bb.jpg""]","",""
"","3122","similarity","67","371694","0.0-6.0-61.0","5","[""img/0860/e8b8c51e-1834-4875-8b61-6c5bc9b178bd.jpg"",""img/0875/d59ff733-eaff-4ee2-9443-06954dd0bcb6.jpg""]","",""
"","3421","similarity","68","376123","0.0-6.0-62.0","2","[""img/0898/0af304a2-6a7a-4082-ab7c-4450cd08cc58.jpg"",""img/0862/cdaed51d-9e2f-4807-801a-4663c40077e2.jpg""]","",""
"","2837","similarity","69","379968","0.0-6.0-63.0","5","[""img/0902/8af4182a-9af9-4212-a436-9195555112d6.jpg"",""img/0766/5d1b8041-c5a1-4b02-b4fe-3453d98a0d72.jpg""]","",""
"","2797","similarity","70","383773","0.0-6.0-64.0","5","[""img/0758/3ddd05d3-557e-4ee7-8b78-9d2d681d8ae2.jpg"",""img/0864/ea327690-500b-4137-bf91-451b309fe6a5.jpg""]","",""
"","3139","similarity","71","387925","0.0-6.0-65.0","1","[""img/0894/2d2db7b3-e8a3-499b-b63a-14f51bf73882.jpg"",""img/0860/8a92e21b-6a32-4e4a-a445-2d5a487ed0a4.jpg""]","",""
"","3262","similarity","72","392202","0.0-6.0-66.0","3","[""img/0899/565ccdd9-0933-4536-a625-3c0e25a713dd.jpg"",""img/0868/8b0b8473-e2c0-4331-aa56-c3a5c29369da.jpg""]","",""
"","5019","similarity","73","398229","0.0-6.0-67.0","3","[""img/0866/6f2a90d7-14f1-4f1b-bd64-fc0af6b9fe44.jpg"",""img/0862/847e5208-38ec-4f36-949c-296cdd7424ee.jpg""]","",""
"","3131","similarity","74","402369","0.0-6.0-68.0","5","[""img/0860/61fb959d-d4d9-4de4-9e4e-4fa62b4cfcd5.jpg"",""img/0758/a709631e-3705-4725-ac40-f0d916924f08.jpg""]","",""
"","2864","similarity","75","406242","0.0-6.0-69.0","2","[""img/0902/94198618-7047-4dc9-ad04-85f4ba913067.jpg"",""img/0867/6e19c858-b606-45b2-a4c6-910a73f1d82c.jpg""]","",""
"","3073","similarity","76","410323","0.0-6.0-70.0","2","[""img/0862/4f0a3b4c-afbf-486e-b248-1d54982f54b4.jpg"",""img/0901/5b97abf9-f0c8-4fd1-b921-36d574779078.jpg""]","",""
"","4590","similarity","77","415921","0.0-6.0-71.0","6","[""img/0867/bf560d4f-dee3-4f11-a385-705cc1aa5f3c.jpg"",""img/0866/11a1d141-be5e-443c-98c1-a9d4d9e3dec0.jpg""]","",""
"","3312","similarity","78","420240","0.0-6.0-72.0","2","[""img/0860/15b24a61-25be-4356-9eac-5ce95d0cb4a4.jpg"",""img/0904/b7c2a2c8-df33-4473-b3d4-ff7147c60db3.jpg""]","",""
"","2838","similarity","79","424087","0.0-6.0-73.0","2","[""img/0875/527ced51-8e53-4aab-ab05-86df219104c0.jpg"",""img/0899/76ad07e2-ca25-45eb-84f2-8d80b8ca3e26.jpg""]","",""
"","3217","similarity","80","428314","0.0-6.0-74.0","2","[""img/0899/d60714ae-98d7-4564-8c98-94dba1351135.jpg"",""img/0758/2fa3e613-e676-4e6e-bd12-705327eeb3e1.jpg""]","",""
"","3073","similarity","81","435580","0.0-6.0-75.0","5","[""img/0862/53a9cf7c-93c4-41b9-952f-07d17f7a17b2.jpg"",""img/0875/90da8d75-108a-44ad-b999-e21fee3860d3.jpg""]","",""
"","3703","similarity","82","440293","0.0-6.0-76.0","5","[""img/0901/b123d109-47b4-4f9a-80c9-9bb16da42efa.jpg"",""img/0894/b422d5c6-3c5a-49ae-a53e-7e88ac993f49.jpg""]","",""
"","3378","similarity","83","444682","0.0-6.0-77.0","2","[""img/0766/db750ba0-ce04-46e1-b601-e1b80212bad2.jpg"",""img/0758/335851a0-a55b-46d8-ab05-8463eda48349.jpg""]","",""
"","3066","similarity","84","448758","0.0-6.0-78.0","5","[""img/0894/9b1333fd-3561-43bf-aee5-99b7b7ca3dc3.jpg"",""img/0764/958b8576-3a3b-4acc-96dc-06b74de69f37.jpg""]","",""
"","4973","similarity","85","454742","0.0-6.0-79.0","4","[""img/0860/b03b963d-949b-4d8d-b19c-4950c89eeca2.jpg"",""img/0867/8ba0c5a7-c7e4-42cf-a80a-543763b90779.jpg""]","",""
"","3862","similarity","86","459612","0.0-6.0-80.0","5","[""img/0898/cd3aaa3f-efa9-4ab3-8d6f-a6a9273ddf42.jpg"",""img/0901/a0d65c84-3f20-476a-92d1-0c01e8019cf4.jpg""]","",""
"","3381","similarity","87","464012","0.0-6.0-81.0","2","[""img/0874/c0378dac-9370-439a-8b79-db27c96fb390.jpg"",""img/0764/e30dba15-e68a-4659-89db-e1654b52fe02.jpg""]","",""
"","2765","similarity","88","467784","0.0-6.0-82.0","2","[""img/0899/f95cbdb4-f804-4f5d-ad76-373ad343e658.jpg"",""img/0862/00c06b00-3b73-44e9-bc1e-c5aafb438321.jpg""]","",""
"","3632","similarity","89","472424","0.0-6.0-83.0","3","[""img/0766/0b48f9e0-7d37-4161-8adb-4e3f5b6b7583.jpg"",""img/0901/04a53755-6da5-44d4-a7a6-48a6bc0a2280.jpg""]","",""
"","3092","similarity","90","476531","0.0-6.0-84.0","3","[""img/0881/4bd34581-94d8-4e88-8c89-5cef864ca3be.jpg"",""img/0898/08c72dac-f8ad-407a-9ce6-8c9a5d679c3a.jpg""]","",""
"","4367","similarity","91","481908","0.0-6.0-85.0","5","[""img/0868/4bd5105a-d2c3-4f82-8c80-57196106ba53.jpg"",""img/0860/e14d67c1-6d92-4f1e-9257-c8607159c19c.jpg""]","",""
"","3790","similarity","92","486705","0.0-6.0-86.0","5","[""img/0758/d540bee6-b460-4c32-ac57-bc282742d7d4.jpg"",""img/0868/c8ac40c7-6904-4e13-8d61-c75d3052dc4e.jpg""]","",""
"","3662","similarity","93","491375","0.0-6.0-87.0","2","[""img/0864/49150900-7f25-4ce8-8d10-9b47a71d1997.jpg"",""img/0894/43216a7f-27bc-4b5a-8841-d122a30da9d9.jpg""]","",""
"","2728","similarity","94","495110","0.0-6.0-88.0","3","[""img/0866/d493a2c8-66eb-44b4-be02-2f327b700b7c.jpg"",""img/0902/d2c34af0-8c50-437d-8cc3-619195a3e8ba.jpg""]","",""
"","2559","similarity","95","498677","0.0-6.0-89.0","3","[""img/0769/aad494cc-674d-4a08-9bfa-24a88ebe3c79.jpg"",""img/0867/50a1b60e-3a29-44bf-b606-d4bd3746fea9.jpg""]","",""
"","2871","similarity","96","502558","0.0-6.0-90.0","3","[""img/0874/29830da7-be5f-44e5-b141-652a0ccf7269.jpg"",""img/0875/cff79b3a-a797-4393-9757-6275f999ec04.jpg""]","",""
"","3868","similarity","97","507435","0.0-6.0-91.0","6","[""img/0864/0f537697-a314-47c3-a8cc-8df23b7e536c.jpg"",""img/0874/adf9a8f1-c40b-402b-b95b-1e85a54a7b62.jpg""]","",""
"","3734","similarity","98","512178","0.0-6.0-92.0","3","[""img/0881/4da99fdd-1f40-4bbb-8e21-8833eef313f5.jpg"",""img/0862/ad593cc7-cabe-4bb7-8e14-8a447a0717b4.jpg""]","",""
"","3782","similarity","99","516972","0.0-6.0-93.0","3","[""img/0864/b3c4e378-28f0-4699-9338-2a257b4bca04.jpg"",""img/0881/405484ae-0d00-4b05-bc57-6420a36adfac.jpg""]","",""
"","3251","similarity","100","521240","0.0-6.0-94.0","5","[""img/0899/7f9d45d0-b2c6-40d3-aa41-c207db2c411b.jpg"",""img/0901/a2d7b2f6-396b-4d91-8403-de5361c74af7.jpg""]","",""
"","2868","similarity","101","525115","0.0-6.0-95.0","2","[""img/0874/767f289c-9814-4496-803f-745cc8913d1f.jpg"",""img/0766/6d32752d-aa05-40dc-9541-640b6e9d6fa1.jpg""]","",""
"","5117","similarity","102","531237","0.0-6.0-96.0","4","[""img/0881/f62bdcd1-a4b7-4d48-83da-d9c9e01c8727.jpg"",""img/0899/ad8268c5-8199-48d0-ad70-c5b6d6c599ec.jpg""]","",""
"","2842","similarity","103","535087","0.0-6.0-97.0","2","[""img/0862/5d887e9f-89e2-4ebc-80a0-6d46fe6480db.jpg"",""img/0902/82d20e8c-2162-47a6-925b-52906558c046.jpg""]","",""
"","3814","similarity","104","539909","0.0-6.0-98.0","5","[""img/0899/4f7bc593-8ddd-4da3-a0b9-84da730d3370.jpg"",""img/0764/03c07b98-3f18-4b71-bb70-ecff564a78d1.jpg""]","",""
"","2715","similarity","105","543631","0.0-6.0-99.0","5","[""img/0758/d57c2592-a317-4f63-91be-91a3a9afd222.jpg"",""img/0862/e697469a-ec19-4414-b972-7b9f3564785b.jpg""]","",""
"","2716","similarity","106","547357","0.0-6.0-100.0","5","[""img/0764/f713847b-4832-42d1-8fb3-e17e37fd745c.jpg"",""img/0898/c3cecf20-f7fd-45fa-97d0-dc0a63e8d6c0.jpg""]","",""
"","3793","similarity","107","552160","0.0-6.0-101.0","5","[""img/0901/deff6cfb-0072-4490-bc3e-206bbcd3e8bf.jpg"",""img/0902/3f0eeac5-c996-4026-a376-563ce8f28521.jpg""]","",""
"","3719","similarity","108","556890","0.0-6.0-102.0","1","[""img/0764/ca957454-126a-4bd3-b29c-7174a24c25dc.jpg"",""img/0868/d98ca254-b195-477f-b57e-5760a2717db8.jpg""]","",""
"","4693","similarity","109","562589","0.0-6.0-103.0","5","[""img/0769/11518cb3-13ea-4dd0-890c-30cfab728ade.jpg"",""img/0881/ed4c971f-0873-4fc8-b6d6-e8bbd82f0bcc.jpg""]","",""
"","2879","similarity","110","566477","0.0-6.0-104.0","3","[""img/0864/66091c27-e588-4476-8af9-265dc6be4156.jpg"",""img/0769/c7cfacc3-7f07-46ff-9f5d-8073f4c4679b.jpg""]","",""
"","4033","similarity","111","571517","0.0-6.0-105.0","6","[""img/0866/0207e9a2-7dbb-40b5-9459-b472aaeceb2a.jpg"",""img/0868/293079b8-7e0c-4afd-a390-1e5d35fe3ded.jpg""]","",""
"","4134","similarity","112","576665","0.0-6.0-106.0","5","[""img/0868/fd307a36-9a3a-47d7-ab7c-f810d0b35040.jpg"",""img/0862/ee3b7bff-4a70-4e84-9bea-4a565e456acb.jpg""]","",""
"","2873","similarity","113","580550","0.0-6.0-107.0","5","[""img/0766/51d3aab4-3d09-4dda-b99d-3dc7aaabc6f2.jpg"",""img/0898/79233891-305a-4a6a-8ddf-5c8604858203.jpg""]","",""
"","3189","similarity","114","584747","0.0-6.0-108.0","2","[""img/0898/f3a3f225-1248-4ac7-b93b-f0ff28485bf3.jpg"",""img/0864/1d15626a-2f7c-410f-819c-0fa2c967e95e.jpg""]","",""
"","2449","similarity","115","588207","0.0-6.0-109.0","2","[""img/0868/77091fc7-a590-4ebb-b915-fdb2483a2399.jpg"",""img/0902/8065aa6b-4aef-4368-afa2-02c6465ca582.jpg""]","",""
"","3003","similarity","116","592217","0.0-6.0-110.0","6","[""img/0904/b5855d6a-7ef9-46ca-9215-6e9fa046e543.jpg"",""img/0764/c84fbfa8-521c-407a-9bd3-24f7308d896c.jpg""]","",""
"","3151","similarity","117","596377","0.0-6.0-111.0","3","[""img/0894/3adef67d-7676-4995-80b2-bb31b8aca3ef.jpg"",""img/0875/3ecb367d-e9eb-4826-8aaa-7aa72fb98019.jpg""]","",""
"","4381","similarity","118","601766","0.0-6.0-112.0","5","[""img/0868/179a5502-ab5c-478e-8263-5a1fbcc101d2.jpg"",""img/0874/ca23d307-fc00-4d7d-9106-584c6eb21b4d.jpg""]","",""
"","3424","similarity","119","607648","0.0-6.0-113.0","5","[""img/0904/06dacdc5-2206-4fb8-92b7-88042d22833c.jpg"",""img/0898/82231d4c-218b-4d0a-b50d-35a49b524e97.jpg""]","",""
"","3557","similarity","120","612215","0.0-6.0-114.0","3","[""img/0860/f44ba3fb-03a2-42f0-8509-2c1ded493086.jpg"",""img/0766/989c5c7f-1aff-4442-ac63-9d46acf4a891.jpg""]","",""
"","3685","similarity","121","616910","0.0-6.0-115.0","3","[""img/0894/151063aa-6472-4745-837b-36603aba5966.jpg"",""img/0874/ca76a855-4e77-4f2f-872a-0a718153e7ed.jpg""]","",""
"","3005","similarity","122","620923","0.0-6.0-116.0","5","[""img/0899/fd9efb43-701f-4cd6-baaa-4c38315f4bdc.jpg"",""img/0903/5c6b1f57-b3a2-40f5-9fb1-82785e24b6a0.jpg""]","",""
"","3368","similarity","123","625302","0.0-6.0-117.0","5","[""img/0881/7e31e5dc-2240-4b1b-b5a0-3acd980099ef.jpg"",""img/0764/c80b3e06-2ee3-4326-9678-340607eb5348.jpg""]","",""
"","2995","similarity","124","629306","0.0-6.0-118.0","3","[""img/0903/8c358e9e-a4f4-466e-8b93-7aec0d2358e8.jpg"",""img/0769/75f7e514-0548-4329-b1e4-93c05e74f038.jpg""]","",""
"","4044","similarity","125","634363","0.0-6.0-119.0","5","[""img/0901/50e1d53e-a49f-4806-8610-be6dec5a2475.jpg"",""img/0904/5aec2708-cf14-4a58-aa30-9a8a61c1be0e.jpg""]","",""
"","3608","similarity","126","638982","0.0-6.0-120.0","4","[""img/0860/c3379ff7-0763-48fe-a1ec-7ea3d611bc7a.jpg"",""img/0881/7e822106-76f7-4b10-a805-14dc68b2cfaf.jpg""]","",""
"","3046","similarity","127","643036","0.0-6.0-121.0","5","[""img/0758/67c0be2f-9e91-48b3-8219-70ac0a1802fa.jpg"",""img/0874/1016b306-087c-4afc-aa08-fa527b28dc76.jpg""]","",""
"","5096","similarity","128","649143","0.0-6.0-122.0","5","[""img/0901/f1116359-1ff1-4638-b3b3-700918d36d18.jpg"",""img/0769/ebef2ddc-ba59-4e0e-97f8-927864eb5081.jpg""]","",""
"","3879","similarity","129","654029","0.0-6.0-123.0","5","[""img/0902/c920f0e1-1c81-480f-a164-c77f2dc6ce9a.jpg"",""img/0904/9dd5708f-3f8b-46a9-b49f-2f2fab87b357.jpg""]","",""
"","3121","similarity","130","658156","0.0-6.0-124.0","2","[""img/0899/06b0fc99-0581-461a-9913-d1a5a941ac61.jpg"",""img/0864/e8bd659f-aa43-4748-877e-3118e8b4e189.jpg""]","",""
"","3242","similarity","131","662411","0.0-6.0-125.0","2","[""img/0766/535849cc-ff5d-4df9-8f31-0ce94a97d571.jpg"",""img/0868/4e626425-63c8-484a-8a1d-e66ee4e0bef8.jpg""]","",""
"","3198","similarity","132","666617","0.0-6.0-126.0","2","[""img/0764/4bec8d92-75aa-475a-954d-8215dbe538f5.jpg"",""img/0864/8ddd2e30-a1d0-479f-9cbe-591213023893.jpg""]","",""
"","2661","similarity","133","670286","0.0-6.0-127.0","1","[""img/0899/9de5e857-aa9a-4e0c-8ba2-46d79bd069a4.jpg"",""img/0866/bf14b5bd-fb55-47db-86b9-4f8aeb9a6dad.jpg""]","",""
"","3251","similarity","134","674545","0.0-6.0-128.0","2","[""img/0901/8bb79e82-9c43-4b6f-a655-40655519598b.jpg"",""img/0881/f7a8cc63-8842-40a4-9ff8-fe530310d62c.jpg""]","",""
"","3862","similarity","135","679424","0.0-6.0-129.0","5","[""img/0898/0c7dde4f-efce-4b7a-9387-6921635b7890.jpg"",""img/0903/e2e55a9e-0397-4dc0-8adf-4a54cfefe1fe.jpg""]","",""
"","2851","similarity","136","683295","0.0-6.0-130.0","2","[""img/0894/6aa5545f-fa7d-4286-bbaa-aaf34dc7ec96.jpg"",""img/0867/12264664-1860-46df-8c21-162b9817cdda.jpg""]","",""
"","3666","similarity","137","687971","0.0-6.0-131.0","4","[""img/0874/99f6563c-8a8d-4c1c-a41d-667b618c3fd5.jpg"",""img/0903/9b60ef5b-234f-4239-892b-3d4c412accc2.jpg""]","",""
"","3300","similarity","138","692280","0.0-6.0-132.0","5","[""img/0899/8de08897-b430-42fe-9d42-840670b80f94.jpg"",""img/0898/881e2a85-d5c2-49be-a0c6-8a6ce2c4af08.jpg""]","",""
"","4195","similarity","139","697483","0.0-6.0-133.0","3","[""img/0867/db7e032f-162b-46f5-ae67-2b29679adee4.jpg"",""img/0764/438c0217-036f-43c9-9b87-f43144e46011.jpg""]","",""
"","4349","similarity","140","702843","0.0-6.0-134.0","5","[""img/0866/386235d2-6857-41e7-88a8-25cfc3430025.jpg"",""img/0769/688d0c52-ad73-4065-a5eb-f8c10d076bff.jpg""]","",""
"","3510","similarity","141","707365","0.0-6.0-135.0","1","[""img/0860/c7047cd2-7cc1-41b6-8a34-c0986774975f.jpg"",""img/0898/4184e5a2-84ea-4f36-9b42-ae58646f6f87.jpg""]","",""
"","2912","similarity","142","711284","0.0-6.0-136.0","3","[""img/0881/adc02f34-ce97-4aef-850f-00519df06fd7.jpg"",""img/0903/b548d383-2a95-4575-8c13-647873751ff1.jpg""]","",""
"","3884","similarity","143","716179","0.0-6.0-137.0","6","[""img/0894/5c7677b0-a4f1-479e-b274-7822c415175a.jpg"",""img/0766/fd74fdbb-ea40-4f3a-a091-38d08dfd636e.jpg""]","",""
"","3669","similarity","144","720856","0.0-6.0-138.0","2","[""img/0860/5383b320-1518-4095-a58e-5cc1ae30b64c.jpg"",""img/0764/23ea9375-f801-4a96-9925-7d453da887c7.jpg""]","",""
"","2905","similarity","145","724768","0.0-6.0-139.0","3","[""img/0769/e8ed913b-8a88-44f6-9327-d34afec3116b.jpg"",""img/0902/b03fee99-d5ca-4bf8-871c-a4a743a39842.jpg""]","",""
"","5122","similarity","146","730900","0.0-6.0-140.0","6","[""img/0904/ba8e689e-9ca6-4608-a2a1-3b0940666ae6.jpg"",""img/0903/5ea5bbe0-f238-4724-abe7-9ed8dee8c0ba.jpg""]","",""
"","3373","similarity","147","735283","0.0-6.0-141.0","5","[""img/0764/4952d0a0-c9be-471a-8ec7-94a37bf4051d.jpg"",""img/0769/8c7cf147-1780-4d5c-8ddf-5ea23ff03ac9.jpg""]","",""
"","2991","similarity","148","739282","0.0-6.0-142.0","2","[""img/0902/aa6fca32-82b0-4414-b20a-8f6f8aa5a2d2.jpg"",""img/0881/20af39f5-373d-4a55-a437-2dc4c0382c46.jpg""]","",""
"","3667","similarity","149","743957","0.0-6.0-143.0","5","[""img/0866/8efcaa46-83ab-4dee-a35f-850402aa21ae.jpg"",""img/0864/3651d070-2fc5-4848-b6a6-088a2d9ac5c9.jpg""]","",""
"","5115","similarity","150","750081","0.0-6.0-144.0","6","[""img/0902/10d99c89-71f7-4c81-a31e-dfc7c59f5232.jpg"",""img/0898/5f699581-3853-4547-856c-12f419ba5af7.jpg""]","",""
"","3622","similarity","151","754708","0.0-6.0-145.0","5","[""img/0862/de9ad88c-b522-430a-8ee9-eb06a9f85df5.jpg"",""img/0864/a248adb3-c70b-4652-b7a3-776d2a1e904b.jpg""]","",""
"","2924","similarity","152","758639","0.0-6.0-146.0","5","[""img/0875/5a1e5100-0d94-4fec-bbe9-ca9894d2cf8e.jpg"",""img/0898/993d8f2d-bef7-4251-a193-0f93a32b7763.jpg""]","",""
"","2976","similarity","153","762622","0.0-6.0-147.0","5","[""img/0874/a3bc679d-619f-4db6-bb68-116dcb757d9c.jpg"",""img/0881/633c6f40-56d9-4b48-bf1c-ecd83116eabb.jpg""]","",""
"","4829","similarity","154","768460","0.0-6.0-148.0","3","[""img/0758/eabcd7a8-56ad-4fd2-bc24-90f6b7b33265.jpg"",""img/0894/11674fa4-285d-44e2-939f-2228c6a64080.jpg""]","",""
"","3063","similarity","155","772533","0.0-6.0-149.0","1","[""img/0904/fe746a3f-8458-48d0-8a13-8cba2a9df9f8.jpg"",""img/0864/1ebbc554-99fa-49f9-8799-317375a79820.jpg""]","",""
"","6201","similarity","156","779743","0.0-6.0-150.0","7","[""img/0769/1d8734c4-77ab-4165-9e71-5cfe672ff01c.jpg"",""img/0899/d8f2dd94-570e-4e8c-a087-d96090fb9e8c.jpg""]","",""
"","5065","similarity","157","787388","0.0-6.0-151.0","6","[""img/0764/e42c1dc9-7831-4995-be19-7ca7b4d141fc.jpg"",""img/0903/150cf64c-0bd2-4674-abbb-a1387cf1f3e9.jpg""]","",""
"","3673","similarity","158","792073","0.0-6.0-152.0","1","[""img/0903/43ffd882-077a-40dd-a264-e58d519420a1.jpg"",""img/0864/e02eddb5-f468-499c-91bf-f7be3ffe979b.jpg""]","",""
"","3135","similarity","159","796218","0.0-6.0-153.0","2","[""img/0894/5f15154e-e72e-4ce5-aafb-bce6f0564006.jpg"",""img/0881/54ea8e77-c7e5-4197-b7fa-00b7020849a7.jpg""]","",""
"","4163","similarity","160","801389","0.0-6.0-154.0","3","[""img/0875/fb732ab5-013a-4366-9f65-27811ed157e9.jpg"",""img/0867/ac1797e4-8afc-48fe-b252-86d1defb1cca.jpg""]","",""
"","5176","similarity","161","807576","0.0-6.0-155.0","5","[""img/0867/7d1c497b-c1b3-4ed8-abb5-d7f73306015f.jpg"",""img/0758/7ee8bc8f-c40b-4b3a-84ec-3e83580622d4.jpg""]","",""
"","3166","similarity","162","811754","0.0-6.0-156.0","3","[""img/0868/83b4350a-3b70-4cea-b7f5-b5b56f3050a8.jpg"",""img/0901/fb0a8e69-7f19-4e6e-a6bb-a48f97f9b4f3.jpg""]","",""
"","4943","similarity","163","817704","0.0-6.0-157.0","6","[""img/0769/f6396414-6788-4d59-9683-de153298d89c.jpg"",""img/0894/b2d2f66e-e480-46da-a02a-6d0c6b285d78.jpg""]","",""
"","2760","similarity","164","821474","0.0-6.0-158.0","2","[""img/0904/6291eb43-c10c-4810-a36a-101d09868b04.jpg"",""img/0758/caa93da2-9edf-49fa-96b9-32dedd8f5078.jpg""]","",""
"","3796","similarity","165","826278","0.0-6.0-159.0","2","[""img/0874/7e4f2150-3b59-4a36-b5da-a4e0ba410531.jpg"",""img/0904/9b3568cc-3cf7-42be-9df3-fdafde7a58b8.jpg""]","",""
"","4107","similarity","166","831391","0.0-6.0-160.0","2","[""img/0864/9b2490c5-a282-400a-9736-e1a0ecbf1cb7.jpg"",""img/0901/a6c90438-fa7c-4418-ac7c-16c2e772dd98.jpg""]","",""
"","2637","similarity","167","835037","0.0-6.0-161.0","2","[""img/0898/661621d4-a14e-487c-8c74-354134a29710.jpg"",""img/0866/9b38d691-1802-4959-ab3f-fc902f0e4ea6.jpg""]","",""
"","4630","similarity","168","840676","0.0-6.0-162.0","5","[""img/0766/d14acac4-7db1-4b07-8f8f-302437326fc0.jpg"",""img/0903/f10e9eb5-0c21-4a6a-944c-5f10a6d0fa4d.jpg""]","",""
"","4699","similarity","169","846384","0.0-6.0-163.0","3","[""img/0860/17b44a7d-c5ca-479f-9e87-f65a64f5c80e.jpg"",""img/0899/66bf4113-ee12-426c-84d2-ea410b6c803e.jpg""]","",""
"","3014","similarity","170","850406","0.0-6.0-164.0","2","[""img/0766/60033a74-9919-47e5-913c-71d0d483e7e5.jpg"",""img/0862/92fcd8a4-8193-4a6a-ae09-dd4a6338b0df.jpg""]","",""
"","4090","similarity","171","855505","0.0-6.0-165.0","6","[""img/0898/224c1572-56b9-4f16-a9e4-6f3bc9c114bd.jpg"",""img/0894/6b2e9509-8699-42b7-9582-7741df0ba2d7.jpg""]","",""
"","3269","similarity","172","859783","0.0-6.0-166.0","3","[""img/0867/a749dddb-69f0-44a6-acdc-2bf295cf6dcc.jpg"",""img/0766/3c526a07-9e0a-4ae2-8142-00085f0127da.jpg""]","",""
"","3231","similarity","173","864023","0.0-6.0-167.0","2","[""img/0904/d23dd7be-7fe8-4435-82f7-bd592c01e6a1.jpg"",""img/0862/fad1d7c1-8187-43c3-942a-0fc12183e48e.jpg""]","",""
"","3719","similarity","174","868750","0.0-6.0-168.0","5","[""img/0866/07c9c966-3c8d-40e7-8128-92b2acbaed5d.jpg"",""img/0874/8cdb1c07-1c32-46d2-981c-3636560fa6e5.jpg""]","",""
"","3755","similarity","175","873517","0.0-6.0-169.0","2","[""img/0903/0e5c2854-42aa-48c0-9c3d-6e1ad2a400bd.jpg"",""img/0868/09a9ef4d-d000-4cfa-a6aa-ebec7c2edeb4.jpg""]","",""
"","3645","similarity","176","878175","0.0-6.0-170.0","5","[""img/0769/ecda2fb3-556b-43ba-8a67-e87dd75ff2b4.jpg"",""img/0904/1d10df11-b5c8-4370-9a6b-097a7f965895.jpg""]","",""
"","3073","similarity","177","882256","0.0-6.0-171.0","2","[""img/0875/e7e66b13-b573-431e-b85e-288ce04a35a3.jpg"",""img/0764/8740679b-b56f-4292-aece-14063457113a.jpg""]","",""
"","4272","similarity","178","887535","0.0-6.0-172.0","5","[""img/0860/524b2e98-5767-4d53-942c-ebae6925659b.jpg"",""img/0903/14f179a2-8786-48a2-8377-88d1d404341b.jpg""]","",""
"","4130","similarity","179","892674","0.0-6.0-173.0","5","[""img/0864/65210d57-1153-4657-886a-32e758f49b4a.jpg"",""img/0867/2e1a0b58-cdb1-4107-a14e-452530d7b9b0.jpg""]","",""
"","3478","similarity","180","897171","0.0-6.0-174.0","5","[""img/0868/1a62b2b2-18f5-466e-b564-5176a57c565e.jpg"",""img/0864/f92649a2-0590-4d31-9a7a-1bfb81666a2d.jpg""]","",""
"","4391","similarity","181","902569","0.0-6.0-175.0","5","[""img/0898/b2732712-71c2-45d8-834f-2b2ed5504910.jpg"",""img/0769/3adfa417-3b90-4aab-b437-5eaa474189cb.jpg""]","",""
"","5309","similarity","182","908886","0.0-6.0-176.0","7","[""img/0766/0025de5e-f620-4079-8a0f-00326ff3a6b0.jpg"",""img/0764/29072395-f595-4e3c-83d3-ff87010039fa.jpg""]","",""
"","4691","similarity","183","914586","0.0-6.0-177.0","3","[""img/0764/f9f890e6-3c2f-40cd-84e9-85e0b54cb28e.jpg"",""img/0866/620cd1aa-0800-4414-8f6e-90342e7a99ad.jpg""]","",""
"","2945","similarity","184","918540","0.0-6.0-178.0","1","[""img/0902/af45fe42-178c-4c1a-99ef-256e87e3b092.jpg"",""img/0875/99698b4d-b4a1-44bc-8c83-8ea755bbbf61.jpg""]","",""
"","3967","similarity","185","923513","0.0-6.0-179.0","2","[""img/0881/dea58fad-b4f1-41d9-bd3f-916eff19a3fd.jpg"",""img/0904/2f88ce53-02d0-4f95-a082-182c56a0eeb4.jpg""]","",""
"","5651","similarity","186","930172","0.0-6.0-180.0","4","[""img/0874/a82926a3-0b43-4add-803c-d5f9ea7798ee.jpg"",""img/0860/5bff793e-cbd5-4d7e-b628-0ac2b0e30b64.jpg""]","",""
"","3565","similarity","187","934744","0.0-6.0-181.0","2","[""img/0769/38a88f69-28fd-4bbd-99f0-f4c02bfd3995.jpg"",""img/0874/2c9464dd-8a23-4baa-ac94-1ba3af5c15cc.jpg""]","",""
"","4616","similarity","188","940366","0.0-6.0-182.0","5","[""img/0904/65e2b70a-b184-4da3-b5c0-5038bdf9469a.jpg"",""img/0766/b84598d0-5b41-4841-88b0-b441b48289f5.jpg""]","",""
"","4321","similarity","189","945695","0.0-6.0-183.0","6","[""img/0902/d5e25767-e8ec-45f3-ac0a-7b4a6f7a9edc.jpg"",""img/0764/5d6fa3ce-9083-410c-bbdb-336a49b94cfc.jpg""]","",""
"","3421","similarity","190","950126","0.0-6.0-184.0","3","[""img/0769/878531fd-e0e8-4ad1-b9ad-f018bb104ca0.jpg"",""img/0875/2c361b79-c3d1-4eda-812e-bf03192407bf.jpg""]","",""
"","3469","similarity","191","954602","0.0-6.0-185.0","1","[""img/0867/98d8cd96-1476-4fe0-a3a3-04f875500a1b.jpg"",""img/0903/776b74ee-a8ab-4ab8-a78d-097c0747538d.jpg""]","",""
"","3283","similarity","192","958890","0.0-6.0-186.0","2","[""img/0862/f43ceabf-acc1-4107-b857-5d1849808f93.jpg"",""img/0769/662ab839-88d1-4ebf-af05-9b2980cad943.jpg""]","",""
"","3498","similarity","193","963395","0.0-6.0-187.0","2","[""img/0766/e8052e17-9dae-4139-802b-6e590cb2d526.jpg"",""img/0866/f756f7d1-9ad8-4a34-9ef6-7a443d705bfe.jpg""]","",""
"","3532","similarity","194","967939","0.0-6.0-188.0","2","[""img/0769/8598a429-c671-4d2f-842c-32f681f5e412.jpg"",""img/0860/4a022222-056d-461c-ab02-39fac9647552.jpg""]","",""
"","4786","similarity","195","976820","0.0-6.0-189.0","4","[""img/0881/566f45f8-5fed-4479-a60f-26377e60a62d.jpg"",""img/0868/15dd6fd7-791e-4b53-b203-195d617521a4.jpg""]","",""
"[{""page_index"":0,""viewing_time"":5651}]","5653","instructions","196","983475","0.0-7.0","","","",""
"","18805","image-multi-choice","197","1003333","0.0-8.0-0.0","","","{""Q0"":""Yellow Warbler""}","Nashville Warbler"
"","9689","image-multi-choice","198","1014051","0.0-8.0-1.0","","","{""Q0"":""Blackburnian Warbler""}","Black-and-white Warbler"
"","7010","image-multi-choice","199","1022087","0.0-8.0-2.0","","","{""Q0"":""Black-and-white Warbler""}","Townsend's Warbler"
"","5331","image-multi-choice","200","1028458","0.0-8.0-3.0","","","{""Q0"":""American Tree Sparrow""}","Lark Sparrow"
"","19605","image-multi-choice","201","1049089","0.0-8.0-4.0","","","{""Q0"":""Magnolia Warbler""}","Yellow Warbler"
"","14440","image-multi-choice","202","1064558","0.0-8.0-5.0","","","{""Q0"":""Nashville Warbler""}","Orange-crowned Warbler"
"","8062","image-multi-choice","203","1073672","0.0-8.0-6.0","","","{""Q0"":""White-crowned Sparrow""}","White-throated Sparrow"
"","8542","image-multi-choice","204","1083236","0.0-8.0-7.0","","","{""Q0"":""American Tree Sparrow""}","Fox Sparrow"
"","4946","image-multi-choice","205","1089205","0.0-8.0-8.0","","","{""Q0"":""Song Sparrow""}","Song Sparrow"
"","11393","image-multi-choice","206","1101629","0.0-8.0-9.0","","","{""Q0"":""Townsend's Warbler""}","Blackburnian Warbler"
"","6428","image-multi-choice","207","1109088","0.0-8.0-10.0","","","{""Q0"":""Swamp Sparrow""}","Vesper Sparrow"
"","3863","image-multi-choice","208","1113984","0.0-8.0-11.0","","","{""Q0"":""White-crowned Sparrow""}","White-crowned Sparrow"
"","8417","image-multi-choice","209","1123431","0.0-8.0-12.0","","","{""Q0"":""Lincoln's Sparrow""}","American Tree Sparrow"
"","17356","image-multi-choice","210","1141812","0.0-8.0-13.0","","","{""Q0"":""Tennessee Warbler""}","Tennessee Warbler"
"","10265","image-multi-choice","211","1153106","0.0-8.0-14.0","","","{""Q0"":""Tennessee Warbler""}","Magnolia Warbler"
"","15570","image-multi-choice","212","1169711","0.0-8.0-15.0","","","{""Q0"":""Northern Waterthrush""}","Northern Waterthrush"
"","5049","image-multi-choice","213","1175785","0.0-8.0-16.0","","","{""Q0"":""Chipping Sparrow""}","Chipping Sparrow"
"","7213","image-multi-choice","214","1184025","0.0-8.0-17.0","","","{""Q0"":""Vesper Sparrow""}","Swamp Sparrow"
"","12163","image-multi-choice","215","1197228","0.0-8.0-18.0","","","{""Q0"":""Vesper Sparrow""}","Lincoln's Sparrow"
"","9748","image-multi-choice","216","1208013","0.0-8.0-19.0","","","{""Q0"":""Northern Waterthrush""}","Ovenbird"
