"view_history","rt","trial_type","trial_index","time_elapsed","internal_node_id","sim_score","stimulus","responses","answer"
"[{""page_index"":0,""viewing_time"":128187}]","128188","instructions","0","128190","0.0-0.0","","","",""
"","10174","similarity_demo","1","139375","0.0-1.0","7","[""img/bluejay1.jpg"",""img/bluejay2.jpg""]","",""
"[{""page_index"":0,""viewing_time"":9037}]","9037","instructions","2","149413","0.0-2.0","","","",""
"","7081","similarity_demo","3","157502","0.0-3.0","2","[""img/bluejay1.jpg"",""img/cardinal1.jpg""]","",""
"[{""page_index"":0,""viewing_time"":10653}]","10654","instructions","4","169158","0.0-4.0","","","",""
"[{""page_index"":0,""viewing_time"":12817}]","12817","instructions","5","182976","0.0-5.0","","","",""
"","4340","similarity","6","188326","0.0-6.0-0.0","3","[""img/0868/1a62b2b2-18f5-466e-b564-5176a57c565e.jpg"",""img/0894/bd34223a-2f66-4e16-9d18-193a746b69ff.jpg""]","",""
"","4153","similarity","7","193485","0.0-6.0-1.0","3","[""img/0898/0c7dde4f-efce-4b7a-9387-6921635b7890.jpg"",""img/0758/dd559618-7f09-4a07-8018-d311c4a5ea29.jpg""]","",""
"","3701","similarity","8","198192","0.0-6.0-2.0","2","[""img/0903/8c358e9e-a4f4-466e-8b93-7aec0d2358e8.jpg"",""img/0894/767a0eec-1064-46b1-b1aa-dfa02b0cd74e.jpg""]","",""
"","4343","similarity","9","203541","0.0-6.0-3.0","3","[""img/0881/633c6f40-56d9-4b48-bf1c-ecd83116eabb.jpg"",""img/0766/af3be95e-e52e-4fae-899b-0ff02ec340aa.jpg""]","",""
"","3829","similarity","10","208376","0.0-6.0-4.0","2","[""img/0864/3651d070-2fc5-4848-b6a6-088a2d9ac5c9.jpg"",""img/0860/61fb959d-d4d9-4de4-9e4e-4fa62b4cfcd5.jpg""]","",""
"","4048","similarity","11","213430","0.0-6.0-5.0","3","[""img/0902/82d20e8c-2162-47a6-925b-52906558c046.jpg"",""img/0899/76ad07e2-ca25-45eb-84f2-8d80b8ca3e26.jpg""]","",""
"","4792","similarity","12","219227","0.0-6.0-6.0","1","[""img/0868/3a62db2d-97e9-44a3-b8e3-a48c6f0e423b.jpg"",""img/0769/e31b3bd8-efcb-413e-aa8c-75fac2b8f2ac.jpg""]","",""
"","3940","similarity","13","224173","0.0-6.0-7.0","3","[""img/0764/fb92924f-5cfe-4b89-b130-0cce8cc5636b.jpg"",""img/0901/bc47e078-bda4-40ed-b89a-bbd819164b95.jpg""]","",""
"","3241","similarity","14","228420","0.0-6.0-8.0","1","[""img/0881/f62bdcd1-a4b7-4d48-83da-d9c9e01c8727.jpg"",""img/0866/d266fece-59b3-46fa-b69f-96f6efb81b59.jpg""]","",""
"","2824","similarity","15","232249","0.0-6.0-9.0","1","[""img/0867/26611f4e-d694-4460-b7e2-43c62753ddc3.jpg"",""img/0899/0433d056-aa30-4f8a-9aa1-abbb951e4edd.jpg""]","",""
"","2858","similarity","16","236112","0.0-6.0-10.0","1","[""img/0875/2c361b79-c3d1-4eda-812e-bf03192407bf.jpg"",""img/0766/2746b119-4bba-463e-acf0-88136dc6600c.jpg""]","",""
"","3093","similarity","17","240211","0.0-6.0-11.0","1","[""img/0901/31c032fd-3c3d-4882-a226-da9a80198937.jpg"",""img/0875/dbdd643e-6d0e-4a5c-ab57-b9c29b9c981a.jpg""]","",""
"","4966","similarity","18","246183","0.0-6.0-12.0","3","[""img/0902/eb3e7e71-8ff1-4b88-a6a7-47e2c1ce1683.jpg"",""img/0860/5383b320-1518-4095-a58e-5cc1ae30b64c.jpg""]","",""
"","3966","similarity","19","251155","0.0-6.0-13.0","1","[""img/0874/bf14b896-e930-4fd9-9c05-2e83317a2773.jpg"",""img/0867/179ab87a-8eac-4c52-a41f-2e48e3120f09.jpg""]","",""
"","3828","similarity","20","255988","0.0-6.0-14.0","2","[""img/0904/06dacdc5-2206-4fb8-92b7-88042d22833c.jpg"",""img/0866/02f5e6b9-52b7-448c-9708-5b460d0c9a23.jpg""]","",""
"","3117","similarity","21","260111","0.0-6.0-15.0","2","[""img/0758/67c0be2f-9e91-48b3-8219-70ac0a1802fa.jpg"",""img/0902/40d0b6ec-3907-4573-b227-e7d8e9cad1c3.jpg""]","",""
"","3397","similarity","22","264512","0.0-6.0-16.0","1","[""img/0867/98d8cd96-1476-4fe0-a3a3-04f875500a1b.jpg"",""img/0898/81b08535-2020-4c15-9ce4-2f1e460755ae.jpg""]","",""
"","4719","similarity","23","270237","0.0-6.0-17.0","1","[""img/0904/4d7d70a3-9477-4921-bda0-f9531d0a5c5b.jpg"",""img/0868/4e626425-63c8-484a-8a1d-e66ee4e0bef8.jpg""]","",""
"","4077","similarity","24","275320","0.0-6.0-18.0","1","[""img/0766/51d3aab4-3d09-4dda-b99d-3dc7aaabc6f2.jpg"",""img/0864/e336a4c5-6648-4fd7-b2f6-93a3fb83f8c6.jpg""]","",""
"","3592","similarity","25","279917","0.0-6.0-19.0","1","[""img/0899/b45c550b-96c3-4255-ad59-48a2b4db1c1e.jpg"",""img/0766/989c5c7f-1aff-4442-ac63-9d46acf4a891.jpg""]","",""
"","3797","similarity","26","284718","0.0-6.0-20.0","1","[""img/0764/06ea144f-f4f3-4a14-ba47-f20f35c561e0.jpg"",""img/0758/b76ceca7-95ac-46e4-ac13-da02c8e93be9.jpg""]","",""
"","3037","similarity","27","288761","0.0-6.0-21.0","1","[""img/0901/a6776381-91fe-43f8-ab73-261d318f95fd.jpg"",""img/0874/ca76a855-4e77-4f2f-872a-0a718153e7ed.jpg""]","",""
"","3116","similarity","28","292883","0.0-6.0-22.0","1","[""img/0875/5a716432-c6ca-4b1c-955a-2b8ac25198ee.jpg"",""img/0758/caa93da2-9edf-49fa-96b9-32dedd8f5078.jpg""]","",""
"","2720","similarity","29","296607","0.0-6.0-23.0","1","[""img/0867/5e07b34d-b40f-4b1c-ac10-49975bace45f.jpg"",""img/0881/ed4c971f-0873-4fc8-b6d6-e8bbd82f0bcc.jpg""]","",""
"","3017","similarity","30","300627","0.0-6.0-24.0","1","[""img/0758/7ee8bc8f-c40b-4b3a-84ec-3e83580622d4.jpg"",""img/0901/58ec7fa9-b466-4651-90aa-c082df0972de.jpg""]","",""
"","2930","similarity","31","304562","0.0-6.0-25.0","2","[""img/0868/5fa7f9d0-f0e5-454c-8224-74d964818f56.jpg"",""img/0875/cff79b3a-a797-4393-9757-6275f999ec04.jpg""]","",""
"","3396","similarity","32","308963","0.0-6.0-26.0","1","[""img/0903/5ea5bbe0-f238-4724-abe7-9ed8dee8c0ba.jpg"",""img/0901/1e23ffbd-19de-4c4f-aa23-c54aaa3319a3.jpg""]","",""
"","3558","similarity","33","313525","0.0-6.0-27.0","1","[""img/0894/10f22b96-040c-44f4-950b-a4963f3f506c.jpg"",""img/0899/d60714ae-98d7-4564-8c98-94dba1351135.jpg""]","",""
"","4522","similarity","34","319052","0.0-6.0-28.0","1","[""img/0862/47ed5efd-4ec9-4b74-bb4e-a5f5cf0c3e7d.jpg"",""img/0867/7d1c497b-c1b3-4ed8-abb5-d7f73306015f.jpg""]","",""
"","2835","similarity","35","322893","0.0-6.0-29.0","1","[""img/0864/e02eddb5-f468-499c-91bf-f7be3ffe979b.jpg"",""img/0875/d59ff733-eaff-4ee2-9443-06954dd0bcb6.jpg""]","",""
"","3534","similarity","36","327433","0.0-6.0-30.0","1","[""img/0862/57b6f83f-c763-4858-830d-102f97bfefbf.jpg"",""img/0874/a82926a3-0b43-4add-803c-d5f9ea7798ee.jpg""]","",""
"","3308","similarity","37","331747","0.0-6.0-31.0","3","[""img/0903/d987e220-f3e6-4b6d-a270-fe6757041f6d.jpg"",""img/0758/7ffbc76b-1fc1-432c-8f7e-9ec8d1b3f643.jpg""]","",""
"","3243","similarity","38","335996","0.0-6.0-32.0","1","[""img/0866/bf14b5bd-fb55-47db-86b9-4f8aeb9a6dad.jpg"",""img/0901/effc03f6-8f9d-46db-a66c-16fc83891c5c.jpg""]","",""
"","3958","similarity","39","340959","0.0-6.0-33.0","2","[""img/0874/1016b306-087c-4afc-aa08-fa527b28dc76.jpg"",""img/0899/51a7a498-98c7-42d7-bca8-bc2d8f0b5831.jpg""]","",""
"","4399","similarity","40","346362","0.0-6.0-34.0","4","[""img/0903/5c6b1f57-b3a2-40f5-9fb1-82785e24b6a0.jpg"",""img/0902/794606a0-d8a8-4e58-8bf8-9d114ed5a548.jpg""]","",""
"","3100","similarity","41","350467","0.0-6.0-35.0","1","[""img/0758/d41c06bf-ebaf-454b-91c6-1a17f917b659.jpg"",""img/0866/f756f7d1-9ad8-4a34-9ef6-7a443d705bfe.jpg""]","",""
"","3432","similarity","42","354902","0.0-6.0-36.0","1","[""img/0875/ebf7653f-ff45-4e9f-af58-2c042ab3cd2b.jpg"",""img/0903/b0a3c45f-467e-412f-a183-c9c1827f2e63.jpg""]","",""
"","3844","similarity","43","366757","0.0-6.0-37.0","2","[""img/0864/afcba0a3-7e27-4757-b254-e9f05fad27e2.jpg"",""img/0902/94198618-7047-4dc9-ad04-85f4ba913067.jpg""]","",""
"","3589","similarity","44","371352","0.0-6.0-38.0","2","[""img/0901/443f2e59-199b-4f7b-9de9-c44ad97326a5.jpg"",""img/0867/8ba0c5a7-c7e4-42cf-a80a-543763b90779.jpg""]","",""
"","4239","similarity","45","376596","0.0-6.0-39.0","2","[""img/0862/99a99e39-8355-44ec-b993-e7bcec111e1c.jpg"",""img/0860/8a92e21b-6a32-4e4a-a445-2d5a487ed0a4.jpg""]","",""
"","3565","similarity","46","381166","0.0-6.0-40.0","1","[""img/0867/aa05d113-fc19-4756-a8eb-7878f580bc92.jpg"",""img/0868/4bd5105a-d2c3-4f82-8c80-57196106ba53.jpg""]","",""
"","4103","similarity","47","386274","0.0-6.0-41.0","3","[""img/0904/65e2b70a-b184-4da3-b5c0-5038bdf9469a.jpg"",""img/0899/4408c14d-c168-4a7d-96f6-bc87bfb58f83.jpg""]","",""
"","4095","similarity","48","391373","0.0-6.0-42.0","1","[""img/0862/a0a3a7ba-7798-46a3-b4ca-05e1f6e581d0.jpg"",""img/0894/e2446cf5-cd48-486a-badc-76498e087fbe.jpg""]","",""
"","3413","similarity","49","395792","0.0-6.0-43.0","3","[""img/0875/42910c99-5463-450a-a0f8-d4d060a11455.jpg"",""img/0904/ba8e689e-9ca6-4608-a2a1-3b0940666ae6.jpg""]","",""
"","3990","similarity","50","400787","0.0-6.0-44.0","3","[""img/0874/ca23d307-fc00-4d7d-9106-584c6eb21b4d.jpg"",""img/0898/b2732712-71c2-45d8-834f-2b2ed5504910.jpg""]","",""
"","2923","similarity","51","404715","0.0-6.0-45.0","1","[""img/0898/01bfe666-3510-4fc7-964f-d00d28732dc8.jpg"",""img/0868/179a5502-ab5c-478e-8263-5a1fbcc101d2.jpg""]","",""
"","4079","similarity","52","409799","0.0-6.0-46.0","2","[""img/0901/08d6d1d1-c043-43c4-bb08-d45e062822b9.jpg"",""img/0860/8fdba999-b946-4c7d-9891-336018b563ef.jpg""]","",""
"","3556","similarity","53","414360","0.0-6.0-47.0","1","[""img/0894/38cf335f-f76f-4349-8d65-e20cd6859565.jpg"",""img/0902/af40b98b-3d23-4d95-b401-49ba5783ce39.jpg""]","",""
"","3405","similarity","54","418771","0.0-6.0-48.0","2","[""img/0764/ca957454-126a-4bd3-b29c-7174a24c25dc.jpg"",""img/0862/ad593cc7-cabe-4bb7-8e14-8a447a0717b4.jpg""]","",""
"","4007","similarity","55","423783","0.0-6.0-49.0","5","[""img/0881/609a5e93-38b5-4940-8627-2bf8fad7f802.jpg"",""img/0758/e1ba5e53-addc-436a-b428-d34fc1b130dc.jpg""]","",""
"","3330","similarity","56","428118","0.0-6.0-50.0","2","[""img/0766/535849cc-ff5d-4df9-8f31-0ce94a97d571.jpg"",""img/0769/c34b7763-8ff2-46d5-9e92-f1d8f3bedbd8.jpg""]","",""
"","3966","similarity","57","433090","0.0-6.0-51.0","1","[""img/0875/2e13d160-eea1-416b-aff1-d37ab99ecc1d.jpg"",""img/0866/8efcaa46-83ab-4dee-a35f-850402aa21ae.jpg""]","",""
"","4310","similarity","58","438405","0.0-6.0-52.0","5","[""img/0894/a3d4170b-b7d8-40e3-955f-87e76ed745fc.jpg"",""img/0904/fe746a3f-8458-48d0-8a13-8cba2a9df9f8.jpg""]","",""
"","3989","similarity","59","443400","0.0-6.0-53.0","5","[""img/0758/a709631e-3705-4725-ac40-f0d916924f08.jpg"",""img/0769/db94b61b-a5a7-4861-9d32-7b02ad194fb0.jpg""]","",""
"","3556","similarity","60","447961","0.0-6.0-54.0","1","[""img/0902/0c760cc9-10ac-429e-8957-a7d51fc99683.jpg"",""img/0874/99f6563c-8a8d-4c1c-a41d-667b618c3fd5.jpg""]","",""
"","4048","similarity","61","453013","0.0-6.0-55.0","1","[""img/0903/f1fa0f8d-e62b-4b4a-a174-31a0fabfe61b.jpg"",""img/0862/cdaed51d-9e2f-4807-801a-4663c40077e2.jpg""]","",""
"","4079","similarity","62","458095","0.0-6.0-56.0","1","[""img/0866/93a27239-8317-4e08-98ca-d8b1ff298e07.jpg"",""img/0894/661b9f9f-4bde-487a-b1ed-87085fde6948.jpg""]","",""
"","3910","similarity","63","463010","0.0-6.0-57.0","3","[""img/0867/85a96c62-548f-4994-9553-819e03c3135a.jpg"",""img/0904/b5855d6a-7ef9-46ca-9215-6e9fa046e543.jpg""]","",""
"","3160","similarity","64","467183","0.0-6.0-58.0","1","[""img/0875/e7e66b13-b573-431e-b85e-288ce04a35a3.jpg"",""img/0881/6b1189e6-232d-4042-8885-16dc7b10e0d4.jpg""]","",""
"","2986","similarity","65","471174","0.0-6.0-59.0","1","[""img/0866/c446214b-a368-4c65-ae39-ea46894256ab.jpg"",""img/0860/e14d67c1-6d92-4f1e-9257-c8607159c19c.jpg""]","",""
"","3236","similarity","66","475413","0.0-6.0-60.0","1","[""img/0903/150cf64c-0bd2-4674-abbb-a1387cf1f3e9.jpg"",""img/0866/23a224f3-2012-4fc8-8e0f-3c36f8de27fd.jpg""]","",""
"","3081","similarity","67","479499","0.0-6.0-61.0","1","[""img/0860/e8b8c51e-1834-4875-8b61-6c5bc9b178bd.jpg"",""img/0875/5a1e5100-0d94-4fec-bbe9-ca9894d2cf8e.jpg""]","",""
"","3084","similarity","68","483587","0.0-6.0-62.0","1","[""img/0898/b3290bf9-215b-4b45-b21a-65bdf73f142f.jpg"",""img/0862/4f0a3b4c-afbf-486e-b248-1d54982f54b4.jpg""]","",""
"","3503","similarity","69","488095","0.0-6.0-63.0","1","[""img/0902/bd89a85f-3853-4786-acd6-98818ee29f1c.jpg"",""img/0766/ae0fce93-fe8d-4aa1-87ca-4c3e4b889f2f.jpg""]","",""
"","5002","similarity","70","494101","0.0-6.0-64.0","3","[""img/0758/20497cbe-ddae-489e-86e2-ab06985ed07c.jpg"",""img/0864/c3b63e8f-ea39-4d70-a1f2-b3fe4be8eb75.jpg""]","",""
"","3125","similarity","71","498230","0.0-6.0-65.0","1","[""img/0894/a98416c0-51e2-4960-85da-d81d8688b9d5.jpg"",""img/0860/524b2e98-5767-4d53-942c-ebae6925659b.jpg""]","",""
"","3390","similarity","72","502625","0.0-6.0-66.0","1","[""img/0899/ddf96ade-692e-4602-bd22-dedbb46401bc.jpg"",""img/0868/7b212364-ff5f-4e28-9241-7eb6ea00161b.jpg""]","",""
"","3829","similarity","73","507459","0.0-6.0-67.0","2","[""img/0866/4a87911a-d5be-4d4e-ab8e-3d1f581bf507.jpg"",""img/0862/24cdc752-c2e5-4a17-86a6-6f2045d8553b.jpg""]","",""
"","3968","similarity","74","512430","0.0-6.0-68.0","2","[""img/0860/c3379ff7-0763-48fe-a1ec-7ea3d611bc7a.jpg"",""img/0758/ddc336e9-a8b6-4bb9-937a-c7e25e0e9250.jpg""]","",""
"","3640","similarity","75","517075","0.0-6.0-69.0","1","[""img/0902/10d99c89-71f7-4c81-a31e-dfc7c59f5232.jpg"",""img/0867/f8159067-056c-41f1-a136-c529fe5e970a.jpg""]","",""
"","3079","similarity","76","521157","0.0-6.0-70.0","1","[""img/0862/ee3b7bff-4a70-4e84-9bea-4a565e456acb.jpg"",""img/0901/b9141736-3041-4385-a586-b1fe911c76a5.jpg""]","",""
"","3522","similarity","77","525684","0.0-6.0-71.0","2","[""img/0867/50a1b60e-3a29-44bf-b606-d4bd3746fea9.jpg"",""img/0866/a15b02be-11bb-43e3-b0e0-ecc3bd7dfc49.jpg""]","",""
"","3280","similarity","78","529968","0.0-6.0-72.0","2","[""img/0860/b03b963d-949b-4d8d-b19c-4950c89eeca2.jpg"",""img/0904/e9423a8c-f946-43ad-ab7b-931acef870e2.jpg""]","",""
"","3975","similarity","79","534946","0.0-6.0-73.0","1","[""img/0875/527ced51-8e53-4aab-ab05-86df219104c0.jpg"",""img/0899/f95cbdb4-f804-4f5d-ad76-373ad343e658.jpg""]","",""
"","3367","similarity","80","539316","0.0-6.0-74.0","1","[""img/0899/56a605c3-d0a2-4215-89e1-779279d85a7c.jpg"",""img/0758/61d64021-9214-4951-bdf8-f871f9827cf9.jpg""]","",""
"","2918","similarity","81","550831","0.0-6.0-75.0","1","[""img/0862/e0f1a4e9-e1b6-45f7-af67-89f334e6630d.jpg"",""img/0875/5a7c4e35-6514-4e12-8879-d16071da4cd6.jpg""]","",""
"","2848","similarity","82","554684","0.0-6.0-76.0","1","[""img/0901/a0d65c84-3f20-476a-92d1-0c01e8019cf4.jpg"",""img/0894/0130a973-d993-41f8-874a-fee23d9ac11f.jpg""]","",""
"","3473","similarity","83","559162","0.0-6.0-77.0","1","[""img/0766/1bc0dccc-a5b5-4375-87fa-28360ca42b12.jpg"",""img/0758/d540bee6-b460-4c32-ac57-bc282742d7d4.jpg""]","",""
"","3276","similarity","84","563441","0.0-6.0-78.0","2","[""img/0894/5a49e858-2850-4892-9a06-e9f0efb5f94d.jpg"",""img/0764/978aede9-4590-4ad0-b234-135c83e5d669.jpg""]","",""
"","3173","similarity","85","567619","0.0-6.0-79.0","1","[""img/0860/c5ccd1a4-4bb7-48e1-9b25-72cfaf06909b.jpg"",""img/0867/c71dc569-f49c-4397-8381-68b8d726736d.jpg""]","",""
"","3358","similarity","86","571983","0.0-6.0-80.0","1","[""img/0898/224c1572-56b9-4f16-a9e4-6f3bc9c114bd.jpg"",""img/0901/77087ed2-6e12-4329-b2a5-605bca6d972d.jpg""]","",""
"","6007","similarity","87","578994","0.0-6.0-81.0","4","[""img/0874/93d1f8dc-acf2-4f03-bd8d-8ec35df276ed.jpg"",""img/0764/5c8fbafc-e62e-43ed-9b37-f73e8e45147d.jpg""]","",""
"","3274","similarity","88","583271","0.0-6.0-82.0","1","[""img/0899/fd9efb43-701f-4cd6-baaa-4c38315f4bdc.jpg"",""img/0862/53a9cf7c-93c4-41b9-952f-07d17f7a17b2.jpg""]","",""
"","3097","similarity","89","587371","0.0-6.0-83.0","1","[""img/0766/71b81ebd-0937-4d7f-b8bf-c4e46a4728fd.jpg"",""img/0901/deff6cfb-0072-4490-bc3e-206bbcd3e8bf.jpg""]","",""
"","3206","similarity","90","591582","0.0-6.0-84.0","2","[""img/0881/20af39f5-373d-4a55-a437-2dc4c0382c46.jpg"",""img/0898/a8f16b02-e19f-423b-86c3-a36562ae1f9b.jpg""]","",""
"","2934","similarity","91","595519","0.0-6.0-85.0","1","[""img/0868/0d3abd3a-b6c3-4584-a9f7-e2da63748b3d.jpg"",""img/0860/5bff793e-cbd5-4d7e-b628-0ac2b0e30b64.jpg""]","",""
"","3509","similarity","92","600032","0.0-6.0-86.0","1","[""img/0758/65d426d6-3ff6-415d-8654-a43b83ecc4fe.jpg"",""img/0868/09a9ef4d-d000-4cfa-a6aa-ebec7c2edeb4.jpg""]","",""
"","3926","similarity","93","604962","0.0-6.0-87.0","1","[""img/0864/66091c27-e588-4476-8af9-265dc6be4156.jpg"",""img/0894/e5edf723-72a5-4673-8441-6c1734a8929b.jpg""]","",""
"","4171","similarity","94","610136","0.0-6.0-88.0","1","[""img/0866/be24ab58-230e-4db8-9f45-ff04c9aec6bb.jpg"",""img/0902/6c2c243a-f663-45db-baf5-038d3d58c589.jpg""]","",""
"","2870","similarity","95","614011","0.0-6.0-89.0","1","[""img/0769/75f7e514-0548-4329-b1e4-93c05e74f038.jpg"",""img/0867/1719a35d-f085-48c0-9099-16c94fe418b4.jpg""]","",""
"","3390","similarity","96","618404","0.0-6.0-90.0","1","[""img/0874/adf9a8f1-c40b-402b-b95b-1e85a54a7b62.jpg"",""img/0875/03c3c331-738b-4446-af92-3d7386b08c2e.jpg""]","",""
"","4568","similarity","97","623978","0.0-6.0-91.0","2","[""img/0864/300bb811-8b3c-4c42-8653-6097c3725197.jpg"",""img/0874/2c9464dd-8a23-4baa-ac94-1ba3af5c15cc.jpg""]","",""
"","3396","similarity","98","628379","0.0-6.0-92.0","1","[""img/0881/344de456-b358-4887-bd0e-e4c3278af887.jpg"",""img/0862/f43ceabf-acc1-4107-b857-5d1849808f93.jpg""]","",""
"","3888","similarity","99","633272","0.0-6.0-93.0","1","[""img/0864/a248adb3-c70b-4652-b7a3-776d2a1e904b.jpg"",""img/0881/405484ae-0d00-4b05-bc57-6420a36adfac.jpg""]","",""
"","3116","similarity","100","637393","0.0-6.0-94.0","1","[""img/0899/06b0fc99-0581-461a-9913-d1a5a941ac61.jpg"",""img/0901/6e2957f8-f5ab-46f4-87cc-bb50155a098b.jpg""]","",""
"","4371","similarity","101","642769","0.0-6.0-95.0","1","[""img/0874/c0378dac-9370-439a-8b79-db27c96fb390.jpg"",""img/0766/2e1cf445-9aef-40e7-92f4-5facf48b64c5.jpg""]","",""
"","3637","similarity","102","647409","0.0-6.0-96.0","1","[""img/0881/f7a8cc63-8842-40a4-9ff8-fe530310d62c.jpg"",""img/0899/00715b3f-851b-420b-a26b-d7f79f7759a9.jpg""]","",""
"","3525","similarity","103","651939","0.0-6.0-97.0","1","[""img/0862/5d887e9f-89e2-4ebc-80a0-6d46fe6480db.jpg"",""img/0902/f3cfec34-482c-4bdb-9c92-19ea6cfce183.jpg""]","",""
"","4503","similarity","104","657447","0.0-6.0-98.0","7","[""img/0899/1b3457ea-87d4-4946-a01c-aac1863ed46c.jpg"",""img/0764/952d7adc-dc40-4aee-acce-18c2a1d02ea1.jpg""]","",""
"","3413","similarity","105","661865","0.0-6.0-99.0","1","[""img/0758/e38fd80d-18d0-42f3-b848-f930788e8bd7.jpg"",""img/0862/e8cc3bdf-cc43-4565-bccf-492626c70953.jpg""]","",""
"","3445","similarity","106","666315","0.0-6.0-100.0","2","[""img/0764/03c07b98-3f18-4b71-bb70-ecff564a78d1.jpg"",""img/0898/cd3aaa3f-efa9-4ab3-8d6f-a6a9273ddf42.jpg""]","",""
"","3600","similarity","107","670919","0.0-6.0-101.0","1","[""img/0901/c6c877e0-dd63-4e00-9657-33af29d55aab.jpg"",""img/0902/b76efc44-a50f-4dac-b997-ff0222376067.jpg""]","",""
"","3704","similarity","108","675629","0.0-6.0-102.0","1","[""img/0764/3297a811-ea8b-4d74-9547-59cecab7293a.jpg"",""img/0868/6a28c3b0-3d76-498a-9fb7-ddafc665eca8.jpg""]","",""
"","4866","similarity","109","681501","0.0-6.0-103.0","1","[""img/0769/76eaa4a3-dfe9-4dc1-9efb-caebe86264e1.jpg"",""img/0881/e6746727-7f89-47ec-b939-d98abe78372d.jpg""]","",""
"","3948","similarity","110","686453","0.0-6.0-104.0","3","[""img/0864/5f33e097-23e3-4002-882d-76e8cb15f451.jpg"",""img/0769/35364db7-e0d5-40ef-93dc-faf9dfb95136.jpg""]","",""
"","4163","similarity","111","691621","0.0-6.0-105.0","3","[""img/0866/386235d2-6857-41e7-88a8-25cfc3430025.jpg"",""img/0868/d98ca254-b195-477f-b57e-5760a2717db8.jpg""]","",""
"","4661","similarity","112","697285","0.0-6.0-106.0","2","[""img/0868/d6d1f30d-4323-435a-b194-7892521bc57e.jpg"",""img/0862/92f0146c-20c4-482e-aef5-adb693790338.jpg""]","",""
"","3030","similarity","113","701318","0.0-6.0-107.0","1","[""img/0766/110832e5-2646-4bd0-a94e-5df8cc314269.jpg"",""img/0898/40f99fb2-64d2-4e72-8a7f-a1cf60741e69.jpg""]","",""
"","3150","similarity","114","705473","0.0-6.0-108.0","1","[""img/0898/04e39a7a-fcf6-4156-ab0e-f5871f335e1c.jpg"",""img/0864/3d4de670-b290-4285-9c3d-12a0e3af44e9.jpg""]","",""
"","3422","similarity","115","709899","0.0-6.0-109.0","1","[""img/0868/83b4350a-3b70-4cea-b7f5-b5b56f3050a8.jpg"",""img/0902/8af4182a-9af9-4212-a436-9195555112d6.jpg""]","",""
"","3703","similarity","116","714606","0.0-6.0-110.0","2","[""img/0904/63dd06dd-dccb-47ba-9740-eb33239e18a7.jpg"",""img/0764/c80b3e06-2ee3-4326-9678-340607eb5348.jpg""]","",""
"","3517","similarity","117","719128","0.0-6.0-111.0","1","[""img/0894/133a1636-d123-4893-873c-1718050f832a.jpg"",""img/0875/fb732ab5-013a-4366-9f65-27811ed157e9.jpg""]","",""
"","3678","similarity","118","723811","0.0-6.0-112.0","1","[""img/0868/c8ac40c7-6904-4e13-8d61-c75d3052dc4e.jpg"",""img/0874/3ce41e7c-40c8-4d58-a546-171114521796.jpg""]","",""
"","3230","similarity","119","733750","0.0-6.0-113.0","1","[""img/0904/a8c3c7d2-9bcf-4347-9e03-8203adfc1fc5.jpg"",""img/0898/68476bbb-34a1-42d9-8bc1-deab783d4489.jpg""]","",""
"","3215","similarity","120","737969","0.0-6.0-114.0","1","[""img/0860/99c589b9-9140-4d17-90c0-b344323edcda.jpg"",""img/0766/ef3b15ce-abb7-4292-ad93-aec8e8b50520.jpg""]","",""
"","2819","similarity","121","741793","0.0-6.0-115.0","1","[""img/0894/76c1201f-8524-4865-85e6-dda8cb4ac986.jpg"",""img/0874/eba003b4-cdab-4eee-8bc3-f064c7d94165.jpg""]","",""
"","3607","similarity","122","746406","0.0-6.0-116.0","1","[""img/0899/f58b8d2f-b19d-4b59-8b94-8834be92e4ba.jpg"",""img/0903/e2e55a9e-0397-4dc0-8adf-4a54cfefe1fe.jpg""]","",""
"","3719","similarity","123","751128","0.0-6.0-117.0","1","[""img/0881/667e2147-d457-4f32-aa5f-6ab86e5848f1.jpg"",""img/0764/e0788029-9d7f-414c-b747-46d2a99f7c86.jpg""]","",""
"","4321","similarity","124","756453","0.0-6.0-118.0","4","[""img/0903/97a42b34-5462-4665-88c7-83c014b33d24.jpg"",""img/0769/b664b502-a86c-46c1-ad6f-5ebffc2e1bd3.jpg""]","",""
"","3181","similarity","125","760637","0.0-6.0-119.0","1","[""img/0901/b453df0b-4c39-49bb-8ced-6127efffa898.jpg"",""img/0904/6291eb43-c10c-4810-a36a-101d09868b04.jpg""]","",""
"","3933","similarity","126","765573","0.0-6.0-120.0","1","[""img/0860/94ef7afc-e0e6-4a15-98c6-0bfac82bc832.jpg"",""img/0881/4da99fdd-1f40-4bbb-8e21-8833eef313f5.jpg""]","",""
"","3998","similarity","127","770575","0.0-6.0-121.0","1","[""img/0758/6e95579b-5166-487c-b8cb-e417c6a218e3.jpg"",""img/0874/85eb9b8a-c4c6-4e5a-b8e7-363a87a82054.jpg""]","",""
"","3409","similarity","128","774987","0.0-6.0-122.0","1","[""img/0901/0f670aef-ac36-496d-8142-ee5fdb21dd82.jpg"",""img/0769/1d8734c4-77ab-4165-9e71-5cfe672ff01c.jpg""]","",""
"","3377","similarity","129","779367","0.0-6.0-123.0","1","[""img/0902/95a36b6b-9601-4fa5-8fd9-606ea62f9425.jpg"",""img/0904/9d30eff1-46ef-4453-b11e-124ef8145c00.jpg""]","",""
"","3838","similarity","130","784209","0.0-6.0-124.0","1","[""img/0899/0adc0bc3-6fca-4078-be6f-d45ddf1653d5.jpg"",""img/0864/0116ca98-293d-4fa6-a93b-5a6144ef64cc.jpg""]","",""
"","3120","similarity","131","788332","0.0-6.0-125.0","1","[""img/0766/d8221e53-2300-4d99-ae1b-0bfb0eabe579.jpg"",""img/0868/fd307a36-9a3a-47d7-ab7c-f810d0b35040.jpg""]","",""
"","4639","similarity","132","793976","0.0-6.0-126.0","3","[""img/0764/e42c1dc9-7831-4995-be19-7ca7b4d141fc.jpg"",""img/0864/6f631579-acf1-415c-a42c-1207f62a8d99.jpg""]","",""
"","3363","similarity","133","798344","0.0-6.0-127.0","1","[""img/0899/66bf4113-ee12-426c-84d2-ea410b6c803e.jpg"",""img/0866/6f2a90d7-14f1-4f1b-bd64-fc0af6b9fe44.jpg""]","",""
"","3444","similarity","134","802792","0.0-6.0-128.0","1","[""img/0901/00acf6c1-b66e-4060-bb04-4caf29b5a8b0.jpg"",""img/0881/f6bd3b96-dc40-4e99-8681-bc3a35cf896d.jpg""]","",""
"","4819","similarity","135","808616","0.0-6.0-129.0","1","[""img/0898/881e2a85-d5c2-49be-a0c6-8a6ce2c4af08.jpg"",""img/0903/b0df4094-a3be-4b5b-81bd-8d260f13f61b.jpg""]","",""
"","4739","similarity","136","814359","0.0-6.0-130.0","1","[""img/0894/8cadb87a-7001-4e47-99fb-1867bebf1668.jpg"",""img/0867/de92135f-5b65-4ed9-b245-188292c7c2f8.jpg""]","",""
"","3608","similarity","137","818970","0.0-6.0-131.0","1","[""img/0874/7e4f2150-3b59-4a36-b5da-a4e0ba410531.jpg"",""img/0903/f10e9eb5-0c21-4a6a-944c-5f10a6d0fa4d.jpg""]","",""
"","5107","similarity","138","825081","0.0-6.0-132.0","1","[""img/0899/8de08897-b430-42fe-9d42-840670b80f94.jpg"",""img/0898/08c72dac-f8ad-407a-9ce6-8c9a5d679c3a.jpg""]","",""
"","2918","similarity","139","829003","0.0-6.0-133.0","1","[""img/0867/12264664-1860-46df-8c21-162b9817cdda.jpg"",""img/0764/f9f890e6-3c2f-40cd-84e9-85e0b54cb28e.jpg""]","",""
"","4050","similarity","140","834057","0.0-6.0-134.0","1","[""img/0866/07c9c966-3c8d-40e7-8128-92b2acbaed5d.jpg"",""img/0769/a1ce8d07-ba37-40de-bade-2778805521e0.jpg""]","",""
"","3661","similarity","141","838721","0.0-6.0-135.0","1","[""img/0860/71e1aad0-2cdf-43bb-94a4-a8c016997c30.jpg"",""img/0898/f3a3f225-1248-4ac7-b93b-f0ff28485bf3.jpg""]","",""
"","3080","similarity","142","842806","0.0-6.0-136.0","1","[""img/0881/dea58fad-b4f1-41d9-bd3f-916eff19a3fd.jpg"",""img/0903/6138142e-c84e-45fc-9487-c974f3d4968a.jpg""]","",""
"","3367","similarity","143","847177","0.0-6.0-137.0","1","[""img/0894/9b1333fd-3561-43bf-aee5-99b7b7ca3dc3.jpg"",""img/0766/aaec5f42-7f0a-4a16-aeca-488d757acbcc.jpg""]","",""
"","3457","similarity","144","851639","0.0-6.0-138.0","2","[""img/0860/c47fdead-eb02-4989-b078-26f4852f44fe.jpg"",""img/0764/cffc80b0-4a90-4acb-a530-6f480f3ca303.jpg""]","",""
"","4453","similarity","145","857096","0.0-6.0-139.0","2","[""img/0769/35f2dd39-40aa-498e-b401-9f1ef2622d00.jpg"",""img/0902/d1083f2c-5520-44ec-81a8-3f856fbf0e80.jpg""]","",""
"","5238","similarity","146","863341","0.0-6.0-140.0","5","[""img/0904/2f88ce53-02d0-4f95-a082-182c56a0eeb4.jpg"",""img/0903/f45a103c-9bfe-49fd-ad96-bdd8d2589195.jpg""]","",""
"","3270","similarity","147","867614","0.0-6.0-141.0","1","[""img/0764/4952d0a0-c9be-471a-8ec7-94a37bf4051d.jpg"",""img/0769/7c50e5f5-cc38-4d48-b009-fbe17bcea61c.jpg""]","",""
"","3832","similarity","148","872451","0.0-6.0-142.0","1","[""img/0902/ca3160ba-ad5d-459f-a1b6-8b4f3c85ecd5.jpg"",""img/0881/5fe04dd0-5c74-47b7-99c8-b068db9ca26a.jpg""]","",""
"","4286","similarity","149","877739","0.0-6.0-143.0","1","[""img/0866/620cd1aa-0800-4414-8f6e-90342e7a99ad.jpg"",""img/0864/1ebbc554-99fa-49f9-8799-317375a79820.jpg""]","",""
"","4381","similarity","150","883124","0.0-6.0-144.0","5","[""img/0902/e5a46bda-30d1-41ca-b36d-b8529b5a63d1.jpg"",""img/0898/661621d4-a14e-487c-8c74-354134a29710.jpg""]","",""
"","3175","similarity","151","887303","0.0-6.0-145.0","1","[""img/0862/ba89835a-408c-480b-8594-ed4ffa97eb5c.jpg"",""img/0864/c22faebd-9c53-47bc-ada3-b9a30c688e75.jpg""]","",""
"","2983","similarity","152","891289","0.0-6.0-146.0","1","[""img/0875/90da8d75-108a-44ad-b999-e21fee3860d3.jpg"",""img/0898/6cd3830b-d44e-4915-be2b-88d31424b91c.jpg""]","",""
"","3293","similarity","153","895587","0.0-6.0-147.0","1","[""img/0874/a3bc679d-619f-4db6-bb68-116dcb757d9c.jpg"",""img/0881/445edb15-bd7f-4af3-8bd5-c6ad9677bb31.jpg""]","",""
"","3127","similarity","154","899718","0.0-6.0-148.0","1","[""img/0758/821c68d3-5cb0-4eae-8659-30e6263fca39.jpg"",""img/0894/792c83e9-a747-4000-bc72-5663d2439edb.jpg""]","",""
"","4302","similarity","155","905024","0.0-6.0-149.0","1","[""img/0904/96e503ea-6630-4996-85f2-0237688ce441.jpg"",""img/0864/da39ad34-04e0-40d4-a724-c08d53e0ea09.jpg""]","",""
"","3859","similarity","156","909889","0.0-6.0-150.0","1","[""img/0769/96556ef3-7fac-4c9d-8281-1cb0ea5081bc.jpg"",""img/0899/57476fed-5962-4272-8fc9-b317bb777b54.jpg""]","",""
"","3079","similarity","157","919832","0.0-6.0-151.0","1","[""img/0764/f2f23359-8e82-41d3-8900-5b9f4433991d.jpg"",""img/0903/ea75f240-fb62-4edb-a709-83e858b202c0.jpg""]","",""
"","3101","similarity","158","923939","0.0-6.0-152.0","1","[""img/0903/c708d08f-a108-4e04-8288-c3fcf6375db4.jpg"",""img/0864/4bd81bc6-c13d-46df-95a9-485886dc7c1b.jpg""]","",""
"","2939","similarity","159","927883","0.0-6.0-153.0","1","[""img/0894/3adef67d-7676-4995-80b2-bb31b8aca3ef.jpg"",""img/0881/b549bc99-a61c-4450-bab5-9efc3a197bf0.jpg""]","",""
"","4599","similarity","160","933486","0.0-6.0-154.0","3","[""img/0875/34132396-d896-4c2d-8087-646dd867e769.jpg"",""img/0867/ac1797e4-8afc-48fe-b252-86d1defb1cca.jpg""]","",""
"","3720","similarity","161","938210","0.0-6.0-155.0","1","[""img/0867/cc72ed48-7704-422c-86d6-467a1145287a.jpg"",""img/0758/335851a0-a55b-46d8-ab05-8463eda48349.jpg""]","",""
"","3400","similarity","162","942613","0.0-6.0-156.0","1","[""img/0868/77091fc7-a590-4ebb-b915-fdb2483a2399.jpg"",""img/0901/c6df1a21-44ed-47c2-960e-7c52220e329e.jpg""]","",""
"","3480","similarity","163","947098","0.0-6.0-157.0","1","[""img/0769/04347740-f8f6-48bb-887a-f68babd0a0d4.jpg"",""img/0894/4739e06d-c31e-4bf1-bf91-c97fa9afb456.jpg""]","",""
"","3447","similarity","164","951548","0.0-6.0-158.0","1","[""img/0904/60d1a521-edf7-4696-9263-f21ac0e62a01.jpg"",""img/0758/a085b443-b5d7-4cb2-9ad4-b9dab0fc23f1.jpg""]","",""
"","3247","similarity","165","955800","0.0-6.0-159.0","1","[""img/0874/8cdb1c07-1c32-46d2-981c-3636560fa6e5.jpg"",""img/0904/b7c2a2c8-df33-4473-b3d4-ff7147c60db3.jpg""]","",""
"","4141","similarity","166","960944","0.0-6.0-160.0","1","[""img/0864/1d15626a-2f7c-410f-819c-0fa2c967e95e.jpg"",""img/0901/58978a6d-a3e2-4c59-8d62-f60693ecc0f6.jpg""]","",""
"","4146","similarity","167","966094","0.0-6.0-161.0","1","[""img/0898/a114b375-cb89-44ba-9498-74213f1ecdee.jpg"",""img/0866/0207e9a2-7dbb-40b5-9459-b472aaeceb2a.jpg""]","",""
"","8838","similarity","168","975936","0.0-6.0-162.0","4","[""img/0766/1865bfc9-2410-4765-a804-3ae4ba2393d0.jpg"",""img/0903/0fb24af7-9a26-4e9d-aadc-959a36f683e2.jpg""]","",""
"","3379","similarity","169","980320","0.0-6.0-163.0","1","[""img/0860/29a21a9f-54bb-4093-ad3f-04823ceaa89f.jpg"",""img/0899/a05bea16-2bb4-4cb9-b8fb-4ff975db6971.jpg""]","",""
"","3300","similarity","170","984626","0.0-6.0-164.0","1","[""img/0766/b84598d0-5b41-4841-88b0-b441b48289f5.jpg"",""img/0862/eefa5588-9efd-4591-aa5f-a2e17c7d7bcc.jpg""]","",""
"","3746","similarity","171","989376","0.0-6.0-165.0","1","[""img/0898/c3cecf20-f7fd-45fa-97d0-dc0a63e8d6c0.jpg"",""img/0894/86201968-6e78-4d68-9b3a-d1692e066210.jpg""]","",""
"","4091","similarity","172","994471","0.0-6.0-166.0","1","[""img/0867/c66898ba-b71b-4d50-84f9-f7f84853a98d.jpg"",""img/0766/d3bab2fc-ddcc-40a0-bb72-c0d0ebe19978.jpg""]","",""
"","4594","similarity","173","1000069","0.0-6.0-167.0","3","[""img/0904/696ebb60-8891-417a-91fd-c53218907a95.jpg"",""img/0862/7918ca67-5bd3-4606-a5ea-c39fb11a9297.jpg""]","",""
"","4685","similarity","174","1005757","0.0-6.0-168.0","1","[""img/0866/945c6710-d15b-4a5b-a8f6-69af0850357f.jpg"",""img/0874/995f0332-0439-4eb4-add3-957335dbf6d9.jpg""]","",""
"","3223","similarity","175","1009984","0.0-6.0-169.0","1","[""img/0903/365f176c-25a4-4973-bd3c-279bf1b39476.jpg"",""img/0868/293079b8-7e0c-4afd-a390-1e5d35fe3ded.jpg""]","",""
"","4172","similarity","176","1015159","0.0-6.0-170.0","3","[""img/0769/da36e3f7-2337-434f-ab57-11822dd7eed7.jpg"",""img/0904/0d25eb24-bb20-4e8d-9787-8b489558b4cb.jpg""]","",""
"","2973","similarity","177","1019136","0.0-6.0-171.0","1","[""img/0875/a4935837-7d3c-4df6-88c1-36a94d4991ca.jpg"",""img/0764/5d83b9db-3b2b-4dc8-9bd1-2b515b19c858.jpg""]","",""
"","3585","similarity","178","1023727","0.0-6.0-172.0","1","[""img/0860/15b24a61-25be-4356-9eac-5ce95d0cb4a4.jpg"",""img/0903/2c7b4aed-6038-4aac-958a-e3e58341c313.jpg""]","",""
"","2989","similarity","179","1027720","0.0-6.0-173.0","1","[""img/0864/f92649a2-0590-4d31-9a7a-1bfb81666a2d.jpg"",""img/0867/f8488a47-94ee-4166-952c-44e16cf172f6.jpg""]","",""
"","2953","similarity","180","1031676","0.0-6.0-174.0","1","[""img/0868/8b0b8473-e2c0-4331-aa56-c3a5c29369da.jpg"",""img/0864/65210d57-1153-4657-886a-32e758f49b4a.jpg""]","",""
"","3175","similarity","181","1035856","0.0-6.0-175.0","1","[""img/0898/ec565187-2e31-4fdd-9a5c-153d0c789ae0.jpg"",""img/0769/91acb237-65a3-4d0b-9748-af5c7b83d3c7.jpg""]","",""
"","4346","similarity","182","1041206","0.0-6.0-176.0","3","[""img/0766/f5f78e4e-d88f-4866-951a-118ba9fec4d0.jpg"",""img/0764/29072395-f595-4e3c-83d3-ff87010039fa.jpg""]","",""
"","3821","similarity","183","1046029","0.0-6.0-177.0","1","[""img/0764/bc3865c9-9004-4582-88a7-048478673f97.jpg"",""img/0866/a04d37f0-99dd-478a-b6c6-58b215138f84.jpg""]","",""
"","3296","similarity","184","1050329","0.0-6.0-178.0","1","[""img/0902/c920f0e1-1c81-480f-a164-c77f2dc6ce9a.jpg"",""img/0875/3ecb367d-e9eb-4826-8aaa-7aa72fb98019.jpg""]","",""
"","3528","similarity","185","1054862","0.0-6.0-179.0","1","[""img/0881/33d65d80-8a8e-4ecf-852d-0ad7725c17a2.jpg"",""img/0904/5aec2708-cf14-4a58-aa30-9a8a61c1be0e.jpg""]","",""
"","2711","similarity","186","1058578","0.0-6.0-180.0","1","[""img/0874/767f289c-9814-4496-803f-745cc8913d1f.jpg"",""img/0860/9593362c-9fe5-4d12-9735-6000a11f6aa5.jpg""]","",""
"","2753","similarity","187","1062334","0.0-6.0-181.0","1","[""img/0769/9ea27d61-3d55-418c-8d14-82e90f656f01.jpg"",""img/0874/31e22c7c-99aa-40b1-bf03-dd73fa2df4d6.jpg""]","",""
"","3369","similarity","188","1066706","0.0-6.0-182.0","1","[""img/0904/9b3568cc-3cf7-42be-9df3-fdafde7a58b8.jpg"",""img/0766/c23b5a20-e50f-4d85-841f-cf89212a4348.jpg""]","",""
"","2696","similarity","189","1070406","0.0-6.0-183.0","1","[""img/0902/30c420f5-c714-4681-ae5a-c0ba8f636a26.jpg"",""img/0764/17b088f8-3053-4140-b544-d15654cc79ef.jpg""]","",""
"","2895","similarity","190","1074305","0.0-6.0-184.0","1","[""img/0769/0fe124d3-bcad-45f6-b64d-8f6eb8ee5251.jpg"",""img/0875/8521fd58-3b1e-4dc5-97ae-804edfa6734a.jpg""]","",""
"","2864","similarity","191","1078173","0.0-6.0-185.0","1","[""img/0867/6e19c858-b606-45b2-a4c6-910a73f1d82c.jpg"",""img/0903/b4a0f61e-a964-4b79-a9a7-f767a8f92f34.jpg""]","",""
"","4940","similarity","192","1084117","0.0-6.0-186.0","7","[""img/0862/1c20f772-3a51-4a80-aac0-f57dc9f86c28.jpg"",""img/0769/f73c5138-2f4c-4354-981c-129dff9cc734.jpg""]","",""
"","2851","similarity","193","1087971","0.0-6.0-187.0","1","[""img/0766/0025de5e-f620-4079-8a0f-00326ff3a6b0.jpg"",""img/0866/9b38d691-1802-4959-ab3f-fc902f0e4ea6.jpg""]","",""
"","3198","similarity","194","1092173","0.0-6.0-188.0","1","[""img/0769/aad494cc-674d-4a08-9bfa-24a88ebe3c79.jpg"",""img/0860/d9a0d117-6d1d-41c0-8fec-9aff0fd9e9f2.jpg""]","",""
"","2726","similarity","195","1102930","0.0-6.0-189.0","1","[""img/0881/b1a136f7-8511-4d3a-a0f6-3879acf1e1a1.jpg"",""img/0868/4a8a45ed-2c4f-421b-9564-409a33ecd26c.jpg""]","",""
"[{""page_index"":0,""viewing_time"":9894}]","9895","instructions","196","1113826","0.0-7.0","","","",""
"","15406","image-multi-choice","197","1130244","0.0-8.0-0.0","","","{""Q0"":""Orange-crowned Warbler""}","Nashville Warbler"
"","16632","image-multi-choice","198","1147890","0.0-8.0-1.0","","","{""Q0"":""Black-and-white Warbler""}","Black-and-white Warbler"
"","7702","image-multi-choice","199","1156605","0.0-8.0-2.0","","","{""Q0"":""Townsend's Warbler""}","Townsend's Warbler"
"","49207","image-multi-choice","200","1206825","0.0-8.0-3.0","","","{""Q0"":""Vesper Sparrow""}","Lark Sparrow"
"","5272","image-multi-choice","201","1213110","0.0-8.0-4.0","","","{""Q0"":""Yellow Warbler""}","Yellow Warbler"
"","27017","image-multi-choice","202","1241139","0.0-8.0-5.0","","","{""Q0"":""Orange-crowned Warbler""}","Orange-crowned Warbler"
"","8936","image-multi-choice","203","1251087","0.0-8.0-6.0","","","{""Q0"":""White-throated Sparrow""}","White-throated Sparrow"
"","9166","image-multi-choice","204","1261264","0.0-8.0-7.0","","","{""Q0"":""Fox Sparrow""}","Fox Sparrow"
"","11789","image-multi-choice","205","1274066","0.0-8.0-8.0","","","{""Q0"":""Chipping Sparrow""}","Song Sparrow"
"","24733","image-multi-choice","206","1299811","0.0-8.0-9.0","","","{""Q0"":""Blackburnian Warbler""}","Blackburnian Warbler"
"","6820","image-multi-choice","207","1307643","0.0-8.0-10.0","","","{""Q0"":""Lincoln's Sparrow""}","Vesper Sparrow"
"","6511","image-multi-choice","208","1315165","0.0-8.0-11.0","","","{""Q0"":""White-crowned Sparrow""}","White-crowned Sparrow"
"","13942","image-multi-choice","209","1330122","0.0-8.0-12.0","","","{""Q0"":""American Tree Sparrow""}","American Tree Sparrow"
"","13926","image-multi-choice","210","1345060","0.0-8.0-13.0","","","{""Q0"":""Tennessee Warbler""}","Tennessee Warbler"
"","19318","image-multi-choice","211","1365392","0.0-8.0-14.0","","","{""Q0"":""Magnolia Warbler""}","Magnolia Warbler"
"","6322","image-multi-choice","212","1372727","0.0-8.0-15.0","","","{""Q0"":""Northern Waterthrush""}","Northern Waterthrush"
"","24359","image-multi-choice","213","1398099","0.0-8.0-16.0","","","{""Q0"":""Lincoln's Sparrow""}","Chipping Sparrow"
"","10229","image-multi-choice","214","1409344","0.0-8.0-17.0","","","{""Q0"":""Lincoln's Sparrow""}","Swamp Sparrow"
"","8454","image-multi-choice","215","1418811","0.0-8.0-18.0","","","{""Q0"":""Song Sparrow""}","Lincoln's Sparrow"
"","4199","image-multi-choice","216","1424023","0.0-8.0-19.0","","","{""Q0"":""Ovenbird""}","Ovenbird"
