[{"view_history":"[{\"page_index\":0,\"viewing_time\":128187}]","rt":128188,"trial_type":"instructions","trial_index":0,"time_elapsed":128190,"internal_node_id":"0.0-0.0"},{"sim_score":7,"rt":10174,"stimulus":"[\"img/bluejay1.jpg\",\"img/bluejay2.jpg\"]","trial_type":"similarity_demo","trial_index":1,"time_elapsed":139375,"internal_node_id":"0.0-1.0"},{"view_history":"[{\"page_index\":0,\"viewing_time\":9037}]","rt":9037,"trial_type":"instructions","trial_index":2,"time_elapsed":149413,"internal_node_id":"0.0-2.0"},{"sim_score":2,"rt":7081,"stimulus":"[\"img/bluejay1.jpg\",\"img/cardinal1.jpg\"]","trial_type":"similarity_demo","trial_index":3,"time_elapsed":157502,"internal_node_id":"0.0-3.0"},{"view_history":"[{\"page_index\":0,\"viewing_time\":10653}]","rt":10654,"trial_type":"instructions","trial_index":4,"time_elapsed":169158,"internal_node_id":"0.0-4.0"},{"view_history":"[{\"page_index\":0,\"viewing_time\":12817}]","rt":12817,"trial_type":"instructions","trial_index":5,"time_elapsed":182976,"internal_node_id":"0.0-5.0"},{"sim_score":3,"rt":4340,"stimulus":"[\"img/0868/1a62b2b2-18f5-466e-b564-5176a57c565e.jpg\",\"img/0894/bd34223a-2f66-4e16-9d18-193a746b69ff.jpg\"]","trial_type":"similarity","trial_index":6,"time_elapsed":188326,"internal_node_id":"0.0-6.0-0.0"},{"sim_score":3,"rt":4153,"stimulus":"[\"img/0898/0c7dde4f-efce-4b7a-9387-6921635b7890.jpg\",\"img/0758/dd559618-7f09-4a07-8018-d311c4a5ea29.jpg\"]","trial_type":"similarity","trial_index":7,"time_elapsed":193485,"internal_node_id":"0.0-6.0-1.0"},{"sim_score":2,"rt":3701,"stimulus":"[\"img/0903/8c358e9e-a4f4-466e-8b93-7aec0d2358e8.jpg\",\"img/0894/767a0eec-1064-46b1-b1aa-dfa02b0cd74e.jpg\"]","trial_type":"similarity","trial_index":8,"time_elapsed":198192,"internal_node_id":"0.0-6.0-2.0"},{"sim_score":3,"rt":4343,"stimulus":"[\"img/0881/633c6f40-56d9-4b48-bf1c-ecd83116eabb.jpg\",\"img/0766/af3be95e-e52e-4fae-899b-0ff02ec340aa.jpg\"]","trial_type":"similarity","trial_index":9,"time_elapsed":203541,"internal_node_id":"0.0-6.0-3.0"},{"sim_score":2,"rt":3829,"stimulus":"[\"img/0864/3651d070-2fc5-4848-b6a6-088a2d9ac5c9.jpg\",\"img/0860/61fb959d-d4d9-4de4-9e4e-4fa62b4cfcd5.jpg\"]","trial_type":"similarity","trial_index":10,"time_elapsed":208376,"internal_node_id":"0.0-6.0-4.0"},{"sim_score":3,"rt":4048,"stimulus":"[\"img/0902/82d20e8c-2162-47a6-925b-52906558c046.jpg\",\"img/0899/76ad07e2-ca25-45eb-84f2-8d80b8ca3e26.jpg\"]","trial_type":"similarity","trial_index":11,"time_elapsed":213430,"internal_node_id":"0.0-6.0-5.0"},{"sim_score":1,"rt":4792,"stimulus":"[\"img/0868/3a62db2d-97e9-44a3-b8e3-a48c6f0e423b.jpg\",\"img/0769/e31b3bd8-efcb-413e-aa8c-75fac2b8f2ac.jpg\"]","trial_type":"similarity","trial_index":12,"time_elapsed":219227,"internal_node_id":"0.0-6.0-6.0"},{"sim_score":3,"rt":3940,"stimulus":"[\"img/0764/fb92924f-5cfe-4b89-b130-0cce8cc5636b.jpg\",\"img/0901/bc47e078-bda4-40ed-b89a-bbd819164b95.jpg\"]","trial_type":"similarity","trial_index":13,"time_elapsed":224173,"internal_node_id":"0.0-6.0-7.0"},{"sim_score":1,"rt":3241,"stimulus":"[\"img/0881/f62bdcd1-a4b7-4d48-83da-d9c9e01c8727.jpg\",\"img/0866/d266fece-59b3-46fa-b69f-96f6efb81b59.jpg\"]","trial_type":"similarity","trial_index":14,"time_elapsed":228420,"internal_node_id":"0.0-6.0-8.0"},{"sim_score":1,"rt":2824,"stimulus":"[\"img/0867/26611f4e-d694-4460-b7e2-43c62753ddc3.jpg\",\"img/0899/0433d056-aa30-4f8a-9aa1-abbb951e4edd.jpg\"]","trial_type":"similarity","trial_index":15,"time_elapsed":232249,"internal_node_id":"0.0-6.0-9.0"},{"sim_score":1,"rt":2858,"stimulus":"[\"img/0875/2c361b79-c3d1-4eda-812e-bf03192407bf.jpg\",\"img/0766/2746b119-4bba-463e-acf0-88136dc6600c.jpg\"]","trial_type":"similarity","trial_index":16,"time_elapsed":236112,"internal_node_id":"0.0-6.0-10.0"},{"sim_score":1,"rt":3093,"stimulus":"[\"img/0901/31c032fd-3c3d-4882-a226-da9a80198937.jpg\",\"img/0875/dbdd643e-6d0e-4a5c-ab57-b9c29b9c981a.jpg\"]","trial_type":"similarity","trial_index":17,"time_elapsed":240211,"internal_node_id":"0.0-6.0-11.0"},{"sim_score":3,"rt":4966,"stimulus":"[\"img/0902/eb3e7e71-8ff1-4b88-a6a7-47e2c1ce1683.jpg\",\"img/0860/5383b320-1518-4095-a58e-5cc1ae30b64c.jpg\"]","trial_type":"similarity","trial_index":18,"time_elapsed":246183,"internal_node_id":"0.0-6.0-12.0"},{"sim_score":1,"rt":3966,"stimulus":"[\"img/0874/bf14b896-e930-4fd9-9c05-2e83317a2773.jpg\",\"img/0867/179ab87a-8eac-4c52-a41f-2e48e3120f09.jpg\"]","trial_type":"similarity","trial_index":19,"time_elapsed":251155,"internal_node_id":"0.0-6.0-13.0"},{"sim_score":2,"rt":3828,"stimulus":"[\"img/0904/06dacdc5-2206-4fb8-92b7-88042d22833c.jpg\",\"img/0866/02f5e6b9-52b7-448c-9708-5b460d0c9a23.jpg\"]","trial_type":"similarity","trial_index":20,"time_elapsed":255988,"internal_node_id":"0.0-6.0-14.0"},{"sim_score":2,"rt":3117,"stimulus":"[\"img/0758/67c0be2f-9e91-48b3-8219-70ac0a1802fa.jpg\",\"img/0902/40d0b6ec-3907-4573-b227-e7d8e9cad1c3.jpg\"]","trial_type":"similarity","trial_index":21,"time_elapsed":260111,"internal_node_id":"0.0-6.0-15.0"},{"sim_score":1,"rt":3397,"stimulus":"[\"img/0867/98d8cd96-1476-4fe0-a3a3-04f875500a1b.jpg\",\"img/0898/81b08535-2020-4c15-9ce4-2f1e460755ae.jpg\"]","trial_type":"similarity","trial_index":22,"time_elapsed":264512,"internal_node_id":"0.0-6.0-16.0"},{"sim_score":1,"rt":4719,"stimulus":"[\"img/0904/4d7d70a3-9477-4921-bda0-f9531d0a5c5b.jpg\",\"img/0868/4e626425-63c8-484a-8a1d-e66ee4e0bef8.jpg\"]","trial_type":"similarity","trial_index":23,"time_elapsed":270237,"internal_node_id":"0.0-6.0-17.0"},{"sim_score":1,"rt":4077,"stimulus":"[\"img/0766/51d3aab4-3d09-4dda-b99d-3dc7aaabc6f2.jpg\",\"img/0864/e336a4c5-6648-4fd7-b2f6-93a3fb83f8c6.jpg\"]","trial_type":"similarity","trial_index":24,"time_elapsed":275320,"internal_node_id":"0.0-6.0-18.0"},{"sim_score":1,"rt":3592,"stimulus":"[\"img/0899/b45c550b-96c3-4255-ad59-48a2b4db1c1e.jpg\",\"img/0766/989c5c7f-1aff-4442-ac63-9d46acf4a891.jpg\"]","trial_type":"similarity","trial_index":25,"time_elapsed":279917,"internal_node_id":"0.0-6.0-19.0"},{"sim_score":1,"rt":3797,"stimulus":"[\"img/0764/06ea144f-f4f3-4a14-ba47-f20f35c561e0.jpg\",\"img/0758/b76ceca7-95ac-46e4-ac13-da02c8e93be9.jpg\"]","trial_type":"similarity","trial_index":26,"time_elapsed":284718,"internal_node_id":"0.0-6.0-20.0"},{"sim_score":1,"rt":3037,"stimulus":"[\"img/0901/a6776381-91fe-43f8-ab73-261d318f95fd.jpg\",\"img/0874/ca76a855-4e77-4f2f-872a-0a718153e7ed.jpg\"]","trial_type":"similarity","trial_index":27,"time_elapsed":288761,"internal_node_id":"0.0-6.0-21.0"},{"sim_score":1,"rt":3116,"stimulus":"[\"img/0875/5a716432-c6ca-4b1c-955a-2b8ac25198ee.jpg\",\"img/0758/caa93da2-9edf-49fa-96b9-32dedd8f5078.jpg\"]","trial_type":"similarity","trial_index":28,"time_elapsed":292883,"internal_node_id":"0.0-6.0-22.0"},{"sim_score":1,"rt":2720,"stimulus":"[\"img/0867/5e07b34d-b40f-4b1c-ac10-49975bace45f.jpg\",\"img/0881/ed4c971f-0873-4fc8-b6d6-e8bbd82f0bcc.jpg\"]","trial_type":"similarity","trial_index":29,"time_elapsed":296607,"internal_node_id":"0.0-6.0-23.0"},{"sim_score":1,"rt":3017,"stimulus":"[\"img/0758/7ee8bc8f-c40b-4b3a-84ec-3e83580622d4.jpg\",\"img/0901/58ec7fa9-b466-4651-90aa-c082df0972de.jpg\"]","trial_type":"similarity","trial_index":30,"time_elapsed":300627,"internal_node_id":"0.0-6.0-24.0"},{"sim_score":2,"rt":2930,"stimulus":"[\"img/0868/5fa7f9d0-f0e5-454c-8224-74d964818f56.jpg\",\"img/0875/cff79b3a-a797-4393-9757-6275f999ec04.jpg\"]","trial_type":"similarity","trial_index":31,"time_elapsed":304562,"internal_node_id":"0.0-6.0-25.0"},{"sim_score":1,"rt":3396,"stimulus":"[\"img/0903/5ea5bbe0-f238-4724-abe7-9ed8dee8c0ba.jpg\",\"img/0901/1e23ffbd-19de-4c4f-aa23-c54aaa3319a3.jpg\"]","trial_type":"similarity","trial_index":32,"time_elapsed":308963,"internal_node_id":"0.0-6.0-26.0"},{"sim_score":1,"rt":3558,"stimulus":"[\"img/0894/10f22b96-040c-44f4-950b-a4963f3f506c.jpg\",\"img/0899/d60714ae-98d7-4564-8c98-94dba1351135.jpg\"]","trial_type":"similarity","trial_index":33,"time_elapsed":313525,"internal_node_id":"0.0-6.0-27.0"},{"sim_score":1,"rt":4522,"stimulus":"[\"img/0862/47ed5efd-4ec9-4b74-bb4e-a5f5cf0c3e7d.jpg\",\"img/0867/7d1c497b-c1b3-4ed8-abb5-d7f73306015f.jpg\"]","trial_type":"similarity","trial_index":34,"time_elapsed":319052,"internal_node_id":"0.0-6.0-28.0"},{"sim_score":1,"rt":2835,"stimulus":"[\"img/0864/e02eddb5-f468-499c-91bf-f7be3ffe979b.jpg\",\"img/0875/d59ff733-eaff-4ee2-9443-06954dd0bcb6.jpg\"]","trial_type":"similarity","trial_index":35,"time_elapsed":322893,"internal_node_id":"0.0-6.0-29.0"},{"sim_score":1,"rt":3534,"stimulus":"[\"img/0862/57b6f83f-c763-4858-830d-102f97bfefbf.jpg\",\"img/0874/a82926a3-0b43-4add-803c-d5f9ea7798ee.jpg\"]","trial_type":"similarity","trial_index":36,"time_elapsed":327433,"internal_node_id":"0.0-6.0-30.0"},{"sim_score":3,"rt":3308,"stimulus":"[\"img/0903/d987e220-f3e6-4b6d-a270-fe6757041f6d.jpg\",\"img/0758/7ffbc76b-1fc1-432c-8f7e-9ec8d1b3f643.jpg\"]","trial_type":"similarity","trial_index":37,"time_elapsed":331747,"internal_node_id":"0.0-6.0-31.0"},{"sim_score":1,"rt":3243,"stimulus":"[\"img/0866/bf14b5bd-fb55-47db-86b9-4f8aeb9a6dad.jpg\",\"img/0901/effc03f6-8f9d-46db-a66c-16fc83891c5c.jpg\"]","trial_type":"similarity","trial_index":38,"time_elapsed":335996,"internal_node_id":"0.0-6.0-32.0"},{"sim_score":2,"rt":3958,"stimulus":"[\"img/0874/1016b306-087c-4afc-aa08-fa527b28dc76.jpg\",\"img/0899/51a7a498-98c7-42d7-bca8-bc2d8f0b5831.jpg\"]","trial_type":"similarity","trial_index":39,"time_elapsed":340959,"internal_node_id":"0.0-6.0-33.0"},{"sim_score":4,"rt":4399,"stimulus":"[\"img/0903/5c6b1f57-b3a2-40f5-9fb1-82785e24b6a0.jpg\",\"img/0902/794606a0-d8a8-4e58-8bf8-9d114ed5a548.jpg\"]","trial_type":"similarity","trial_index":40,"time_elapsed":346362,"internal_node_id":"0.0-6.0-34.0"},{"sim_score":1,"rt":3100,"stimulus":"[\"img/0758/d41c06bf-ebaf-454b-91c6-1a17f917b659.jpg\",\"img/0866/f756f7d1-9ad8-4a34-9ef6-7a443d705bfe.jpg\"]","trial_type":"similarity","trial_index":41,"time_elapsed":350467,"internal_node_id":"0.0-6.0-35.0"},{"sim_score":1,"rt":3432,"stimulus":"[\"img/0875/ebf7653f-ff45-4e9f-af58-2c042ab3cd2b.jpg\",\"img/0903/b0a3c45f-467e-412f-a183-c9c1827f2e63.jpg\"]","trial_type":"similarity","trial_index":42,"time_elapsed":354902,"internal_node_id":"0.0-6.0-36.0"},{"sim_score":2,"rt":3844,"stimulus":"[\"img/0864/afcba0a3-7e27-4757-b254-e9f05fad27e2.jpg\",\"img/0902/94198618-7047-4dc9-ad04-85f4ba913067.jpg\"]","trial_type":"similarity","trial_index":43,"time_elapsed":366757,"internal_node_id":"0.0-6.0-37.0"},{"sim_score":2,"rt":3589,"stimulus":"[\"img/0901/443f2e59-199b-4f7b-9de9-c44ad97326a5.jpg\",\"img/0867/8ba0c5a7-c7e4-42cf-a80a-543763b90779.jpg\"]","trial_type":"similarity","trial_index":44,"time_elapsed":371352,"internal_node_id":"0.0-6.0-38.0"},{"sim_score":2,"rt":4239,"stimulus":"[\"img/0862/99a99e39-8355-44ec-b993-e7bcec111e1c.jpg\",\"img/0860/8a92e21b-6a32-4e4a-a445-2d5a487ed0a4.jpg\"]","trial_type":"similarity","trial_index":45,"time_elapsed":376596,"internal_node_id":"0.0-6.0-39.0"},{"sim_score":1,"rt":3565,"stimulus":"[\"img/0867/aa05d113-fc19-4756-a8eb-7878f580bc92.jpg\",\"img/0868/4bd5105a-d2c3-4f82-8c80-57196106ba53.jpg\"]","trial_type":"similarity","trial_index":46,"time_elapsed":381166,"internal_node_id":"0.0-6.0-40.0"},{"sim_score":3,"rt":4103,"stimulus":"[\"img/0904/65e2b70a-b184-4da3-b5c0-5038bdf9469a.jpg\",\"img/0899/4408c14d-c168-4a7d-96f6-bc87bfb58f83.jpg\"]","trial_type":"similarity","trial_index":47,"time_elapsed":386274,"internal_node_id":"0.0-6.0-41.0"},{"sim_score":1,"rt":4095,"stimulus":"[\"img/0862/a0a3a7ba-7798-46a3-b4ca-05e1f6e581d0.jpg\",\"img/0894/e2446cf5-cd48-486a-badc-76498e087fbe.jpg\"]","trial_type":"similarity","trial_index":48,"time_elapsed":391373,"internal_node_id":"0.0-6.0-42.0"},{"sim_score":3,"rt":3413,"stimulus":"[\"img/0875/42910c99-5463-450a-a0f8-d4d060a11455.jpg\",\"img/0904/ba8e689e-9ca6-4608-a2a1-3b0940666ae6.jpg\"]","trial_type":"similarity","trial_index":49,"time_elapsed":395792,"internal_node_id":"0.0-6.0-43.0"},{"sim_score":3,"rt":3990,"stimulus":"[\"img/0874/ca23d307-fc00-4d7d-9106-584c6eb21b4d.jpg\",\"img/0898/b2732712-71c2-45d8-834f-2b2ed5504910.jpg\"]","trial_type":"similarity","trial_index":50,"time_elapsed":400787,"internal_node_id":"0.0-6.0-44.0"},{"sim_score":1,"rt":2923,"stimulus":"[\"img/0898/01bfe666-3510-4fc7-964f-d00d28732dc8.jpg\",\"img/0868/179a5502-ab5c-478e-8263-5a1fbcc101d2.jpg\"]","trial_type":"similarity","trial_index":51,"time_elapsed":404715,"internal_node_id":"0.0-6.0-45.0"},{"sim_score":2,"rt":4079,"stimulus":"[\"img/0901/08d6d1d1-c043-43c4-bb08-d45e062822b9.jpg\",\"img/0860/8fdba999-b946-4c7d-9891-336018b563ef.jpg\"]","trial_type":"similarity","trial_index":52,"time_elapsed":409799,"internal_node_id":"0.0-6.0-46.0"},{"sim_score":1,"rt":3556,"stimulus":"[\"img/0894/38cf335f-f76f-4349-8d65-e20cd6859565.jpg\",\"img/0902/af40b98b-3d23-4d95-b401-49ba5783ce39.jpg\"]","trial_type":"similarity","trial_index":53,"time_elapsed":414360,"internal_node_id":"0.0-6.0-47.0"},{"sim_score":2,"rt":3405,"stimulus":"[\"img/0764/ca957454-126a-4bd3-b29c-7174a24c25dc.jpg\",\"img/0862/ad593cc7-cabe-4bb7-8e14-8a447a0717b4.jpg\"]","trial_type":"similarity","trial_index":54,"time_elapsed":418771,"internal_node_id":"0.0-6.0-48.0"},{"sim_score":5,"rt":4007,"stimulus":"[\"img/0881/609a5e93-38b5-4940-8627-2bf8fad7f802.jpg\",\"img/0758/e1ba5e53-addc-436a-b428-d34fc1b130dc.jpg\"]","trial_type":"similarity","trial_index":55,"time_elapsed":423783,"internal_node_id":"0.0-6.0-49.0"},{"sim_score":2,"rt":3330,"stimulus":"[\"img/0766/535849cc-ff5d-4df9-8f31-0ce94a97d571.jpg\",\"img/0769/c34b7763-8ff2-46d5-9e92-f1d8f3bedbd8.jpg\"]","trial_type":"similarity","trial_index":56,"time_elapsed":428118,"internal_node_id":"0.0-6.0-50.0"},{"sim_score":1,"rt":3966,"stimulus":"[\"img/0875/2e13d160-eea1-416b-aff1-d37ab99ecc1d.jpg\",\"img/0866/8efcaa46-83ab-4dee-a35f-850402aa21ae.jpg\"]","trial_type":"similarity","trial_index":57,"time_elapsed":433090,"internal_node_id":"0.0-6.0-51.0"},{"sim_score":5,"rt":4310,"stimulus":"[\"img/0894/a3d4170b-b7d8-40e3-955f-87e76ed745fc.jpg\",\"img/0904/fe746a3f-8458-48d0-8a13-8cba2a9df9f8.jpg\"]","trial_type":"similarity","trial_index":58,"time_elapsed":438405,"internal_node_id":"0.0-6.0-52.0"},{"sim_score":5,"rt":3989,"stimulus":"[\"img/0758/a709631e-3705-4725-ac40-f0d916924f08.jpg\",\"img/0769/db94b61b-a5a7-4861-9d32-7b02ad194fb0.jpg\"]","trial_type":"similarity","trial_index":59,"time_elapsed":443400,"internal_node_id":"0.0-6.0-53.0"},{"sim_score":1,"rt":3556,"stimulus":"[\"img/0902/0c760cc9-10ac-429e-8957-a7d51fc99683.jpg\",\"img/0874/99f6563c-8a8d-4c1c-a41d-667b618c3fd5.jpg\"]","trial_type":"similarity","trial_index":60,"time_elapsed":447961,"internal_node_id":"0.0-6.0-54.0"},{"sim_score":1,"rt":4048,"stimulus":"[\"img/0903/f1fa0f8d-e62b-4b4a-a174-31a0fabfe61b.jpg\",\"img/0862/cdaed51d-9e2f-4807-801a-4663c40077e2.jpg\"]","trial_type":"similarity","trial_index":61,"time_elapsed":453013,"internal_node_id":"0.0-6.0-55.0"},{"sim_score":1,"rt":4079,"stimulus":"[\"img/0866/93a27239-8317-4e08-98ca-d8b1ff298e07.jpg\",\"img/0894/661b9f9f-4bde-487a-b1ed-87085fde6948.jpg\"]","trial_type":"similarity","trial_index":62,"time_elapsed":458095,"internal_node_id":"0.0-6.0-56.0"},{"sim_score":3,"rt":3910,"stimulus":"[\"img/0867/85a96c62-548f-4994-9553-819e03c3135a.jpg\",\"img/0904/b5855d6a-7ef9-46ca-9215-6e9fa046e543.jpg\"]","trial_type":"similarity","trial_index":63,"time_elapsed":463010,"internal_node_id":"0.0-6.0-57.0"},{"sim_score":1,"rt":3160,"stimulus":"[\"img/0875/e7e66b13-b573-431e-b85e-288ce04a35a3.jpg\",\"img/0881/6b1189e6-232d-4042-8885-16dc7b10e0d4.jpg\"]","trial_type":"similarity","trial_index":64,"time_elapsed":467183,"internal_node_id":"0.0-6.0-58.0"},{"sim_score":1,"rt":2986,"stimulus":"[\"img/0866/c446214b-a368-4c65-ae39-ea46894256ab.jpg\",\"img/0860/e14d67c1-6d92-4f1e-9257-c8607159c19c.jpg\"]","trial_type":"similarity","trial_index":65,"time_elapsed":471174,"internal_node_id":"0.0-6.0-59.0"},{"sim_score":1,"rt":3236,"stimulus":"[\"img/0903/150cf64c-0bd2-4674-abbb-a1387cf1f3e9.jpg\",\"img/0866/23a224f3-2012-4fc8-8e0f-3c36f8de27fd.jpg\"]","trial_type":"similarity","trial_index":66,"time_elapsed":475413,"internal_node_id":"0.0-6.0-60.0"},{"sim_score":1,"rt":3081,"stimulus":"[\"img/0860/e8b8c51e-1834-4875-8b61-6c5bc9b178bd.jpg\",\"img/0875/5a1e5100-0d94-4fec-bbe9-ca9894d2cf8e.jpg\"]","trial_type":"similarity","trial_index":67,"time_elapsed":479499,"internal_node_id":"0.0-6.0-61.0"},{"sim_score":1,"rt":3084,"stimulus":"[\"img/0898/b3290bf9-215b-4b45-b21a-65bdf73f142f.jpg\",\"img/0862/4f0a3b4c-afbf-486e-b248-1d54982f54b4.jpg\"]","trial_type":"similarity","trial_index":68,"time_elapsed":483587,"internal_node_id":"0.0-6.0-62.0"},{"sim_score":1,"rt":3503,"stimulus":"[\"img/0902/bd89a85f-3853-4786-acd6-98818ee29f1c.jpg\",\"img/0766/ae0fce93-fe8d-4aa1-87ca-4c3e4b889f2f.jpg\"]","trial_type":"similarity","trial_index":69,"time_elapsed":488095,"internal_node_id":"0.0-6.0-63.0"},{"sim_score":3,"rt":5002,"stimulus":"[\"img/0758/20497cbe-ddae-489e-86e2-ab06985ed07c.jpg\",\"img/0864/c3b63e8f-ea39-4d70-a1f2-b3fe4be8eb75.jpg\"]","trial_type":"similarity","trial_index":70,"time_elapsed":494101,"internal_node_id":"0.0-6.0-64.0"},{"sim_score":1,"rt":3125,"stimulus":"[\"img/0894/a98416c0-51e2-4960-85da-d81d8688b9d5.jpg\",\"img/0860/524b2e98-5767-4d53-942c-ebae6925659b.jpg\"]","trial_type":"similarity","trial_index":71,"time_elapsed":498230,"internal_node_id":"0.0-6.0-65.0"},{"sim_score":1,"rt":3390,"stimulus":"[\"img/0899/ddf96ade-692e-4602-bd22-dedbb46401bc.jpg\",\"img/0868/7b212364-ff5f-4e28-9241-7eb6ea00161b.jpg\"]","trial_type":"similarity","trial_index":72,"time_elapsed":502625,"internal_node_id":"0.0-6.0-66.0"},{"sim_score":2,"rt":3829,"stimulus":"[\"img/0866/4a87911a-d5be-4d4e-ab8e-3d1f581bf507.jpg\",\"img/0862/24cdc752-c2e5-4a17-86a6-6f2045d8553b.jpg\"]","trial_type":"similarity","trial_index":73,"time_elapsed":507459,"internal_node_id":"0.0-6.0-67.0"},{"sim_score":2,"rt":3968,"stimulus":"[\"img/0860/c3379ff7-0763-48fe-a1ec-7ea3d611bc7a.jpg\",\"img/0758/ddc336e9-a8b6-4bb9-937a-c7e25e0e9250.jpg\"]","trial_type":"similarity","trial_index":74,"time_elapsed":512430,"internal_node_id":"0.0-6.0-68.0"},{"sim_score":1,"rt":3640,"stimulus":"[\"img/0902/10d99c89-71f7-4c81-a31e-dfc7c59f5232.jpg\",\"img/0867/f8159067-056c-41f1-a136-c529fe5e970a.jpg\"]","trial_type":"similarity","trial_index":75,"time_elapsed":517075,"internal_node_id":"0.0-6.0-69.0"},{"sim_score":1,"rt":3079,"stimulus":"[\"img/0862/ee3b7bff-4a70-4e84-9bea-4a565e456acb.jpg\",\"img/0901/b9141736-3041-4385-a586-b1fe911c76a5.jpg\"]","trial_type":"similarity","trial_index":76,"time_elapsed":521157,"internal_node_id":"0.0-6.0-70.0"},{"sim_score":2,"rt":3522,"stimulus":"[\"img/0867/50a1b60e-3a29-44bf-b606-d4bd3746fea9.jpg\",\"img/0866/a15b02be-11bb-43e3-b0e0-ecc3bd7dfc49.jpg\"]","trial_type":"similarity","trial_index":77,"time_elapsed":525684,"internal_node_id":"0.0-6.0-71.0"},{"sim_score":2,"rt":3280,"stimulus":"[\"img/0860/b03b963d-949b-4d8d-b19c-4950c89eeca2.jpg\",\"img/0904/e9423a8c-f946-43ad-ab7b-931acef870e2.jpg\"]","trial_type":"similarity","trial_index":78,"time_elapsed":529968,"internal_node_id":"0.0-6.0-72.0"},{"sim_score":1,"rt":3975,"stimulus":"[\"img/0875/527ced51-8e53-4aab-ab05-86df219104c0.jpg\",\"img/0899/f95cbdb4-f804-4f5d-ad76-373ad343e658.jpg\"]","trial_type":"similarity","trial_index":79,"time_elapsed":534946,"internal_node_id":"0.0-6.0-73.0"},{"sim_score":1,"rt":3367,"stimulus":"[\"img/0899/56a605c3-d0a2-4215-89e1-779279d85a7c.jpg\",\"img/0758/61d64021-9214-4951-bdf8-f871f9827cf9.jpg\"]","trial_type":"similarity","trial_index":80,"time_elapsed":539316,"internal_node_id":"0.0-6.0-74.0"},{"sim_score":1,"rt":2918,"stimulus":"[\"img/0862/e0f1a4e9-e1b6-45f7-af67-89f334e6630d.jpg\",\"img/0875/5a7c4e35-6514-4e12-8879-d16071da4cd6.jpg\"]","trial_type":"similarity","trial_index":81,"time_elapsed":550831,"internal_node_id":"0.0-6.0-75.0"},{"sim_score":1,"rt":2848,"stimulus":"[\"img/0901/a0d65c84-3f20-476a-92d1-0c01e8019cf4.jpg\",\"img/0894/0130a973-d993-41f8-874a-fee23d9ac11f.jpg\"]","trial_type":"similarity","trial_index":82,"time_elapsed":554684,"internal_node_id":"0.0-6.0-76.0"},{"sim_score":1,"rt":3473,"stimulus":"[\"img/0766/1bc0dccc-a5b5-4375-87fa-28360ca42b12.jpg\",\"img/0758/d540bee6-b460-4c32-ac57-bc282742d7d4.jpg\"]","trial_type":"similarity","trial_index":83,"time_elapsed":559162,"internal_node_id":"0.0-6.0-77.0"},{"sim_score":2,"rt":3276,"stimulus":"[\"img/0894/5a49e858-2850-4892-9a06-e9f0efb5f94d.jpg\",\"img/0764/978aede9-4590-4ad0-b234-135c83e5d669.jpg\"]","trial_type":"similarity","trial_index":84,"time_elapsed":563441,"internal_node_id":"0.0-6.0-78.0"},{"sim_score":1,"rt":3173,"stimulus":"[\"img/0860/c5ccd1a4-4bb7-48e1-9b25-72cfaf06909b.jpg\",\"img/0867/c71dc569-f49c-4397-8381-68b8d726736d.jpg\"]","trial_type":"similarity","trial_index":85,"time_elapsed":567619,"internal_node_id":"0.0-6.0-79.0"},{"sim_score":1,"rt":3358,"stimulus":"[\"img/0898/224c1572-56b9-4f16-a9e4-6f3bc9c114bd.jpg\",\"img/0901/77087ed2-6e12-4329-b2a5-605bca6d972d.jpg\"]","trial_type":"similarity","trial_index":86,"time_elapsed":571983,"internal_node_id":"0.0-6.0-80.0"},{"sim_score":4,"rt":6007,"stimulus":"[\"img/0874/93d1f8dc-acf2-4f03-bd8d-8ec35df276ed.jpg\",\"img/0764/5c8fbafc-e62e-43ed-9b37-f73e8e45147d.jpg\"]","trial_type":"similarity","trial_index":87,"time_elapsed":578994,"internal_node_id":"0.0-6.0-81.0"},{"sim_score":1,"rt":3274,"stimulus":"[\"img/0899/fd9efb43-701f-4cd6-baaa-4c38315f4bdc.jpg\",\"img/0862/53a9cf7c-93c4-41b9-952f-07d17f7a17b2.jpg\"]","trial_type":"similarity","trial_index":88,"time_elapsed":583271,"internal_node_id":"0.0-6.0-82.0"},{"sim_score":1,"rt":3097,"stimulus":"[\"img/0766/71b81ebd-0937-4d7f-b8bf-c4e46a4728fd.jpg\",\"img/0901/deff6cfb-0072-4490-bc3e-206bbcd3e8bf.jpg\"]","trial_type":"similarity","trial_index":89,"time_elapsed":587371,"internal_node_id":"0.0-6.0-83.0"},{"sim_score":2,"rt":3206,"stimulus":"[\"img/0881/20af39f5-373d-4a55-a437-2dc4c0382c46.jpg\",\"img/0898/a8f16b02-e19f-423b-86c3-a36562ae1f9b.jpg\"]","trial_type":"similarity","trial_index":90,"time_elapsed":591582,"internal_node_id":"0.0-6.0-84.0"},{"sim_score":1,"rt":2934,"stimulus":"[\"img/0868/0d3abd3a-b6c3-4584-a9f7-e2da63748b3d.jpg\",\"img/0860/5bff793e-cbd5-4d7e-b628-0ac2b0e30b64.jpg\"]","trial_type":"similarity","trial_index":91,"time_elapsed":595519,"internal_node_id":"0.0-6.0-85.0"},{"sim_score":1,"rt":3509,"stimulus":"[\"img/0758/65d426d6-3ff6-415d-8654-a43b83ecc4fe.jpg\",\"img/0868/09a9ef4d-d000-4cfa-a6aa-ebec7c2edeb4.jpg\"]","trial_type":"similarity","trial_index":92,"time_elapsed":600032,"internal_node_id":"0.0-6.0-86.0"},{"sim_score":1,"rt":3926,"stimulus":"[\"img/0864/66091c27-e588-4476-8af9-265dc6be4156.jpg\",\"img/0894/e5edf723-72a5-4673-8441-6c1734a8929b.jpg\"]","trial_type":"similarity","trial_index":93,"time_elapsed":604962,"internal_node_id":"0.0-6.0-87.0"},{"sim_score":1,"rt":4171,"stimulus":"[\"img/0866/be24ab58-230e-4db8-9f45-ff04c9aec6bb.jpg\",\"img/0902/6c2c243a-f663-45db-baf5-038d3d58c589.jpg\"]","trial_type":"similarity","trial_index":94,"time_elapsed":610136,"internal_node_id":"0.0-6.0-88.0"},{"sim_score":1,"rt":2870,"stimulus":"[\"img/0769/75f7e514-0548-4329-b1e4-93c05e74f038.jpg\",\"img/0867/1719a35d-f085-48c0-9099-16c94fe418b4.jpg\"]","trial_type":"similarity","trial_index":95,"time_elapsed":614011,"internal_node_id":"0.0-6.0-89.0"},{"sim_score":1,"rt":3390,"stimulus":"[\"img/0874/adf9a8f1-c40b-402b-b95b-1e85a54a7b62.jpg\",\"img/0875/03c3c331-738b-4446-af92-3d7386b08c2e.jpg\"]","trial_type":"similarity","trial_index":96,"time_elapsed":618404,"internal_node_id":"0.0-6.0-90.0"},{"sim_score":2,"rt":4568,"stimulus":"[\"img/0864/300bb811-8b3c-4c42-8653-6097c3725197.jpg\",\"img/0874/2c9464dd-8a23-4baa-ac94-1ba3af5c15cc.jpg\"]","trial_type":"similarity","trial_index":97,"time_elapsed":623978,"internal_node_id":"0.0-6.0-91.0"},{"sim_score":1,"rt":3396,"stimulus":"[\"img/0881/344de456-b358-4887-bd0e-e4c3278af887.jpg\",\"img/0862/f43ceabf-acc1-4107-b857-5d1849808f93.jpg\"]","trial_type":"similarity","trial_index":98,"time_elapsed":628379,"internal_node_id":"0.0-6.0-92.0"},{"sim_score":1,"rt":3888,"stimulus":"[\"img/0864/a248adb3-c70b-4652-b7a3-776d2a1e904b.jpg\",\"img/0881/405484ae-0d00-4b05-bc57-6420a36adfac.jpg\"]","trial_type":"similarity","trial_index":99,"time_elapsed":633272,"internal_node_id":"0.0-6.0-93.0"},{"sim_score":1,"rt":3116,"stimulus":"[\"img/0899/06b0fc99-0581-461a-9913-d1a5a941ac61.jpg\",\"img/0901/6e2957f8-f5ab-46f4-87cc-bb50155a098b.jpg\"]","trial_type":"similarity","trial_index":100,"time_elapsed":637393,"internal_node_id":"0.0-6.0-94.0"},{"sim_score":1,"rt":4371,"stimulus":"[\"img/0874/c0378dac-9370-439a-8b79-db27c96fb390.jpg\",\"img/0766/2e1cf445-9aef-40e7-92f4-5facf48b64c5.jpg\"]","trial_type":"similarity","trial_index":101,"time_elapsed":642769,"internal_node_id":"0.0-6.0-95.0"},{"sim_score":1,"rt":3637,"stimulus":"[\"img/0881/f7a8cc63-8842-40a4-9ff8-fe530310d62c.jpg\",\"img/0899/00715b3f-851b-420b-a26b-d7f79f7759a9.jpg\"]","trial_type":"similarity","trial_index":102,"time_elapsed":647409,"internal_node_id":"0.0-6.0-96.0"},{"sim_score":1,"rt":3525,"stimulus":"[\"img/0862/5d887e9f-89e2-4ebc-80a0-6d46fe6480db.jpg\",\"img/0902/f3cfec34-482c-4bdb-9c92-19ea6cfce183.jpg\"]","trial_type":"similarity","trial_index":103,"time_elapsed":651939,"internal_node_id":"0.0-6.0-97.0"},{"sim_score":7,"rt":4503,"stimulus":"[\"img/0899/1b3457ea-87d4-4946-a01c-aac1863ed46c.jpg\",\"img/0764/952d7adc-dc40-4aee-acce-18c2a1d02ea1.jpg\"]","trial_type":"similarity","trial_index":104,"time_elapsed":657447,"internal_node_id":"0.0-6.0-98.0"},{"sim_score":1,"rt":3413,"stimulus":"[\"img/0758/e38fd80d-18d0-42f3-b848-f930788e8bd7.jpg\",\"img/0862/e8cc3bdf-cc43-4565-bccf-492626c70953.jpg\"]","trial_type":"similarity","trial_index":105,"time_elapsed":661865,"internal_node_id":"0.0-6.0-99.0"},{"sim_score":2,"rt":3445,"stimulus":"[\"img/0764/03c07b98-3f18-4b71-bb70-ecff564a78d1.jpg\",\"img/0898/cd3aaa3f-efa9-4ab3-8d6f-a6a9273ddf42.jpg\"]","trial_type":"similarity","trial_index":106,"time_elapsed":666315,"internal_node_id":"0.0-6.0-100.0"},{"sim_score":1,"rt":3600,"stimulus":"[\"img/0901/c6c877e0-dd63-4e00-9657-33af29d55aab.jpg\",\"img/0902/b76efc44-a50f-4dac-b997-ff0222376067.jpg\"]","trial_type":"similarity","trial_index":107,"time_elapsed":670919,"internal_node_id":"0.0-6.0-101.0"},{"sim_score":1,"rt":3704,"stimulus":"[\"img/0764/3297a811-ea8b-4d74-9547-59cecab7293a.jpg\",\"img/0868/6a28c3b0-3d76-498a-9fb7-ddafc665eca8.jpg\"]","trial_type":"similarity","trial_index":108,"time_elapsed":675629,"internal_node_id":"0.0-6.0-102.0"},{"sim_score":1,"rt":4866,"stimulus":"[\"img/0769/76eaa4a3-dfe9-4dc1-9efb-caebe86264e1.jpg\",\"img/0881/e6746727-7f89-47ec-b939-d98abe78372d.jpg\"]","trial_type":"similarity","trial_index":109,"time_elapsed":681501,"internal_node_id":"0.0-6.0-103.0"},{"sim_score":3,"rt":3948,"stimulus":"[\"img/0864/5f33e097-23e3-4002-882d-76e8cb15f451.jpg\",\"img/0769/35364db7-e0d5-40ef-93dc-faf9dfb95136.jpg\"]","trial_type":"similarity","trial_index":110,"time_elapsed":686453,"internal_node_id":"0.0-6.0-104.0"},{"sim_score":3,"rt":4163,"stimulus":"[\"img/0866/386235d2-6857-41e7-88a8-25cfc3430025.jpg\",\"img/0868/d98ca254-b195-477f-b57e-5760a2717db8.jpg\"]","trial_type":"similarity","trial_index":111,"time_elapsed":691621,"internal_node_id":"0.0-6.0-105.0"},{"sim_score":2,"rt":4661,"stimulus":"[\"img/0868/d6d1f30d-4323-435a-b194-7892521bc57e.jpg\",\"img/0862/92f0146c-20c4-482e-aef5-adb693790338.jpg\"]","trial_type":"similarity","trial_index":112,"time_elapsed":697285,"internal_node_id":"0.0-6.0-106.0"},{"sim_score":1,"rt":3030,"stimulus":"[\"img/0766/110832e5-2646-4bd0-a94e-5df8cc314269.jpg\",\"img/0898/40f99fb2-64d2-4e72-8a7f-a1cf60741e69.jpg\"]","trial_type":"similarity","trial_index":113,"time_elapsed":701318,"internal_node_id":"0.0-6.0-107.0"},{"sim_score":1,"rt":3150,"stimulus":"[\"img/0898/04e39a7a-fcf6-4156-ab0e-f5871f335e1c.jpg\",\"img/0864/3d4de670-b290-4285-9c3d-12a0e3af44e9.jpg\"]","trial_type":"similarity","trial_index":114,"time_elapsed":705473,"internal_node_id":"0.0-6.0-108.0"},{"sim_score":1,"rt":3422,"stimulus":"[\"img/0868/83b4350a-3b70-4cea-b7f5-b5b56f3050a8.jpg\",\"img/0902/8af4182a-9af9-4212-a436-9195555112d6.jpg\"]","trial_type":"similarity","trial_index":115,"time_elapsed":709899,"internal_node_id":"0.0-6.0-109.0"},{"sim_score":2,"rt":3703,"stimulus":"[\"img/0904/63dd06dd-dccb-47ba-9740-eb33239e18a7.jpg\",\"img/0764/c80b3e06-2ee3-4326-9678-340607eb5348.jpg\"]","trial_type":"similarity","trial_index":116,"time_elapsed":714606,"internal_node_id":"0.0-6.0-110.0"},{"sim_score":1,"rt":3517,"stimulus":"[\"img/0894/133a1636-d123-4893-873c-1718050f832a.jpg\",\"img/0875/fb732ab5-013a-4366-9f65-27811ed157e9.jpg\"]","trial_type":"similarity","trial_index":117,"time_elapsed":719128,"internal_node_id":"0.0-6.0-111.0"},{"sim_score":1,"rt":3678,"stimulus":"[\"img/0868/c8ac40c7-6904-4e13-8d61-c75d3052dc4e.jpg\",\"img/0874/3ce41e7c-40c8-4d58-a546-171114521796.jpg\"]","trial_type":"similarity","trial_index":118,"time_elapsed":723811,"internal_node_id":"0.0-6.0-112.0"},{"sim_score":1,"rt":3230,"stimulus":"[\"img/0904/a8c3c7d2-9bcf-4347-9e03-8203adfc1fc5.jpg\",\"img/0898/68476bbb-34a1-42d9-8bc1-deab783d4489.jpg\"]","trial_type":"similarity","trial_index":119,"time_elapsed":733750,"internal_node_id":"0.0-6.0-113.0"},{"sim_score":1,"rt":3215,"stimulus":"[\"img/0860/99c589b9-9140-4d17-90c0-b344323edcda.jpg\",\"img/0766/ef3b15ce-abb7-4292-ad93-aec8e8b50520.jpg\"]","trial_type":"similarity","trial_index":120,"time_elapsed":737969,"internal_node_id":"0.0-6.0-114.0"},{"sim_score":1,"rt":2819,"stimulus":"[\"img/0894/76c1201f-8524-4865-85e6-dda8cb4ac986.jpg\",\"img/0874/eba003b4-cdab-4eee-8bc3-f064c7d94165.jpg\"]","trial_type":"similarity","trial_index":121,"time_elapsed":741793,"internal_node_id":"0.0-6.0-115.0"},{"sim_score":1,"rt":3607,"stimulus":"[\"img/0899/f58b8d2f-b19d-4b59-8b94-8834be92e4ba.jpg\",\"img/0903/e2e55a9e-0397-4dc0-8adf-4a54cfefe1fe.jpg\"]","trial_type":"similarity","trial_index":122,"time_elapsed":746406,"internal_node_id":"0.0-6.0-116.0"},{"sim_score":1,"rt":3719,"stimulus":"[\"img/0881/667e2147-d457-4f32-aa5f-6ab86e5848f1.jpg\",\"img/0764/e0788029-9d7f-414c-b747-46d2a99f7c86.jpg\"]","trial_type":"similarity","trial_index":123,"time_elapsed":751128,"internal_node_id":"0.0-6.0-117.0"},{"sim_score":4,"rt":4321,"stimulus":"[\"img/0903/97a42b34-5462-4665-88c7-83c014b33d24.jpg\",\"img/0769/b664b502-a86c-46c1-ad6f-5ebffc2e1bd3.jpg\"]","trial_type":"similarity","trial_index":124,"time_elapsed":756453,"internal_node_id":"0.0-6.0-118.0"},{"sim_score":1,"rt":3181,"stimulus":"[\"img/0901/b453df0b-4c39-49bb-8ced-6127efffa898.jpg\",\"img/0904/6291eb43-c10c-4810-a36a-101d09868b04.jpg\"]","trial_type":"similarity","trial_index":125,"time_elapsed":760637,"internal_node_id":"0.0-6.0-119.0"},{"sim_score":1,"rt":3933,"stimulus":"[\"img/0860/94ef7afc-e0e6-4a15-98c6-0bfac82bc832.jpg\",\"img/0881/4da99fdd-1f40-4bbb-8e21-8833eef313f5.jpg\"]","trial_type":"similarity","trial_index":126,"time_elapsed":765573,"internal_node_id":"0.0-6.0-120.0"},{"sim_score":1,"rt":3998,"stimulus":"[\"img/0758/6e95579b-5166-487c-b8cb-e417c6a218e3.jpg\",\"img/0874/85eb9b8a-c4c6-4e5a-b8e7-363a87a82054.jpg\"]","trial_type":"similarity","trial_index":127,"time_elapsed":770575,"internal_node_id":"0.0-6.0-121.0"},{"sim_score":1,"rt":3409,"stimulus":"[\"img/0901/0f670aef-ac36-496d-8142-ee5fdb21dd82.jpg\",\"img/0769/1d8734c4-77ab-4165-9e71-5cfe672ff01c.jpg\"]","trial_type":"similarity","trial_index":128,"time_elapsed":774987,"internal_node_id":"0.0-6.0-122.0"},{"sim_score":1,"rt":3377,"stimulus":"[\"img/0902/95a36b6b-9601-4fa5-8fd9-606ea62f9425.jpg\",\"img/0904/9d30eff1-46ef-4453-b11e-124ef8145c00.jpg\"]","trial_type":"similarity","trial_index":129,"time_elapsed":779367,"internal_node_id":"0.0-6.0-123.0"},{"sim_score":1,"rt":3838,"stimulus":"[\"img/0899/0adc0bc3-6fca-4078-be6f-d45ddf1653d5.jpg\",\"img/0864/0116ca98-293d-4fa6-a93b-5a6144ef64cc.jpg\"]","trial_type":"similarity","trial_index":130,"time_elapsed":784209,"internal_node_id":"0.0-6.0-124.0"},{"sim_score":1,"rt":3120,"stimulus":"[\"img/0766/d8221e53-2300-4d99-ae1b-0bfb0eabe579.jpg\",\"img/0868/fd307a36-9a3a-47d7-ab7c-f810d0b35040.jpg\"]","trial_type":"similarity","trial_index":131,"time_elapsed":788332,"internal_node_id":"0.0-6.0-125.0"},{"sim_score":3,"rt":4639,"stimulus":"[\"img/0764/e42c1dc9-7831-4995-be19-7ca7b4d141fc.jpg\",\"img/0864/6f631579-acf1-415c-a42c-1207f62a8d99.jpg\"]","trial_type":"similarity","trial_index":132,"time_elapsed":793976,"internal_node_id":"0.0-6.0-126.0"},{"sim_score":1,"rt":3363,"stimulus":"[\"img/0899/66bf4113-ee12-426c-84d2-ea410b6c803e.jpg\",\"img/0866/6f2a90d7-14f1-4f1b-bd64-fc0af6b9fe44.jpg\"]","trial_type":"similarity","trial_index":133,"time_elapsed":798344,"internal_node_id":"0.0-6.0-127.0"},{"sim_score":1,"rt":3444,"stimulus":"[\"img/0901/00acf6c1-b66e-4060-bb04-4caf29b5a8b0.jpg\",\"img/0881/f6bd3b96-dc40-4e99-8681-bc3a35cf896d.jpg\"]","trial_type":"similarity","trial_index":134,"time_elapsed":802792,"internal_node_id":"0.0-6.0-128.0"},{"sim_score":1,"rt":4819,"stimulus":"[\"img/0898/881e2a85-d5c2-49be-a0c6-8a6ce2c4af08.jpg\",\"img/0903/b0df4094-a3be-4b5b-81bd-8d260f13f61b.jpg\"]","trial_type":"similarity","trial_index":135,"time_elapsed":808616,"internal_node_id":"0.0-6.0-129.0"},{"sim_score":1,"rt":4739,"stimulus":"[\"img/0894/8cadb87a-7001-4e47-99fb-1867bebf1668.jpg\",\"img/0867/de92135f-5b65-4ed9-b245-188292c7c2f8.jpg\"]","trial_type":"similarity","trial_index":136,"time_elapsed":814359,"internal_node_id":"0.0-6.0-130.0"},{"sim_score":1,"rt":3608,"stimulus":"[\"img/0874/7e4f2150-3b59-4a36-b5da-a4e0ba410531.jpg\",\"img/0903/f10e9eb5-0c21-4a6a-944c-5f10a6d0fa4d.jpg\"]","trial_type":"similarity","trial_index":137,"time_elapsed":818970,"internal_node_id":"0.0-6.0-131.0"},{"sim_score":1,"rt":5107,"stimulus":"[\"img/0899/8de08897-b430-42fe-9d42-840670b80f94.jpg\",\"img/0898/08c72dac-f8ad-407a-9ce6-8c9a5d679c3a.jpg\"]","trial_type":"similarity","trial_index":138,"time_elapsed":825081,"internal_node_id":"0.0-6.0-132.0"},{"sim_score":1,"rt":2918,"stimulus":"[\"img/0867/12264664-1860-46df-8c21-162b9817cdda.jpg\",\"img/0764/f9f890e6-3c2f-40cd-84e9-85e0b54cb28e.jpg\"]","trial_type":"similarity","trial_index":139,"time_elapsed":829003,"internal_node_id":"0.0-6.0-133.0"},{"sim_score":1,"rt":4050,"stimulus":"[\"img/0866/07c9c966-3c8d-40e7-8128-92b2acbaed5d.jpg\",\"img/0769/a1ce8d07-ba37-40de-bade-2778805521e0.jpg\"]","trial_type":"similarity","trial_index":140,"time_elapsed":834057,"internal_node_id":"0.0-6.0-134.0"},{"sim_score":1,"rt":3661,"stimulus":"[\"img/0860/71e1aad0-2cdf-43bb-94a4-a8c016997c30.jpg\",\"img/0898/f3a3f225-1248-4ac7-b93b-f0ff28485bf3.jpg\"]","trial_type":"similarity","trial_index":141,"time_elapsed":838721,"internal_node_id":"0.0-6.0-135.0"},{"sim_score":1,"rt":3080,"stimulus":"[\"img/0881/dea58fad-b4f1-41d9-bd3f-916eff19a3fd.jpg\",\"img/0903/6138142e-c84e-45fc-9487-c974f3d4968a.jpg\"]","trial_type":"similarity","trial_index":142,"time_elapsed":842806,"internal_node_id":"0.0-6.0-136.0"},{"sim_score":1,"rt":3367,"stimulus":"[\"img/0894/9b1333fd-3561-43bf-aee5-99b7b7ca3dc3.jpg\",\"img/0766/aaec5f42-7f0a-4a16-aeca-488d757acbcc.jpg\"]","trial_type":"similarity","trial_index":143,"time_elapsed":847177,"internal_node_id":"0.0-6.0-137.0"},{"sim_score":2,"rt":3457,"stimulus":"[\"img/0860/c47fdead-eb02-4989-b078-26f4852f44fe.jpg\",\"img/0764/cffc80b0-4a90-4acb-a530-6f480f3ca303.jpg\"]","trial_type":"similarity","trial_index":144,"time_elapsed":851639,"internal_node_id":"0.0-6.0-138.0"},{"sim_score":2,"rt":4453,"stimulus":"[\"img/0769/35f2dd39-40aa-498e-b401-9f1ef2622d00.jpg\",\"img/0902/d1083f2c-5520-44ec-81a8-3f856fbf0e80.jpg\"]","trial_type":"similarity","trial_index":145,"time_elapsed":857096,"internal_node_id":"0.0-6.0-139.0"},{"sim_score":5,"rt":5238,"stimulus":"[\"img/0904/2f88ce53-02d0-4f95-a082-182c56a0eeb4.jpg\",\"img/0903/f45a103c-9bfe-49fd-ad96-bdd8d2589195.jpg\"]","trial_type":"similarity","trial_index":146,"time_elapsed":863341,"internal_node_id":"0.0-6.0-140.0"},{"sim_score":1,"rt":3270,"stimulus":"[\"img/0764/4952d0a0-c9be-471a-8ec7-94a37bf4051d.jpg\",\"img/0769/7c50e5f5-cc38-4d48-b009-fbe17bcea61c.jpg\"]","trial_type":"similarity","trial_index":147,"time_elapsed":867614,"internal_node_id":"0.0-6.0-141.0"},{"sim_score":1,"rt":3832,"stimulus":"[\"img/0902/ca3160ba-ad5d-459f-a1b6-8b4f3c85ecd5.jpg\",\"img/0881/5fe04dd0-5c74-47b7-99c8-b068db9ca26a.jpg\"]","trial_type":"similarity","trial_index":148,"time_elapsed":872451,"internal_node_id":"0.0-6.0-142.0"},{"sim_score":1,"rt":4286,"stimulus":"[\"img/0866/620cd1aa-0800-4414-8f6e-90342e7a99ad.jpg\",\"img/0864/1ebbc554-99fa-49f9-8799-317375a79820.jpg\"]","trial_type":"similarity","trial_index":149,"time_elapsed":877739,"internal_node_id":"0.0-6.0-143.0"},{"sim_score":5,"rt":4381,"stimulus":"[\"img/0902/e5a46bda-30d1-41ca-b36d-b8529b5a63d1.jpg\",\"img/0898/661621d4-a14e-487c-8c74-354134a29710.jpg\"]","trial_type":"similarity","trial_index":150,"time_elapsed":883124,"internal_node_id":"0.0-6.0-144.0"},{"sim_score":1,"rt":3175,"stimulus":"[\"img/0862/ba89835a-408c-480b-8594-ed4ffa97eb5c.jpg\",\"img/0864/c22faebd-9c53-47bc-ada3-b9a30c688e75.jpg\"]","trial_type":"similarity","trial_index":151,"time_elapsed":887303,"internal_node_id":"0.0-6.0-145.0"},{"sim_score":1,"rt":2983,"stimulus":"[\"img/0875/90da8d75-108a-44ad-b999-e21fee3860d3.jpg\",\"img/0898/6cd3830b-d44e-4915-be2b-88d31424b91c.jpg\"]","trial_type":"similarity","trial_index":152,"time_elapsed":891289,"internal_node_id":"0.0-6.0-146.0"},{"sim_score":1,"rt":3293,"stimulus":"[\"img/0874/a3bc679d-619f-4db6-bb68-116dcb757d9c.jpg\",\"img/0881/445edb15-bd7f-4af3-8bd5-c6ad9677bb31.jpg\"]","trial_type":"similarity","trial_index":153,"time_elapsed":895587,"internal_node_id":"0.0-6.0-147.0"},{"sim_score":1,"rt":3127,"stimulus":"[\"img/0758/821c68d3-5cb0-4eae-8659-30e6263fca39.jpg\",\"img/0894/792c83e9-a747-4000-bc72-5663d2439edb.jpg\"]","trial_type":"similarity","trial_index":154,"time_elapsed":899718,"internal_node_id":"0.0-6.0-148.0"},{"sim_score":1,"rt":4302,"stimulus":"[\"img/0904/96e503ea-6630-4996-85f2-0237688ce441.jpg\",\"img/0864/da39ad34-04e0-40d4-a724-c08d53e0ea09.jpg\"]","trial_type":"similarity","trial_index":155,"time_elapsed":905024,"internal_node_id":"0.0-6.0-149.0"},{"sim_score":1,"rt":3859,"stimulus":"[\"img/0769/96556ef3-7fac-4c9d-8281-1cb0ea5081bc.jpg\",\"img/0899/57476fed-5962-4272-8fc9-b317bb777b54.jpg\"]","trial_type":"similarity","trial_index":156,"time_elapsed":909889,"internal_node_id":"0.0-6.0-150.0"},{"sim_score":1,"rt":3079,"stimulus":"[\"img/0764/f2f23359-8e82-41d3-8900-5b9f4433991d.jpg\",\"img/0903/ea75f240-fb62-4edb-a709-83e858b202c0.jpg\"]","trial_type":"similarity","trial_index":157,"time_elapsed":919832,"internal_node_id":"0.0-6.0-151.0"},{"sim_score":1,"rt":3101,"stimulus":"[\"img/0903/c708d08f-a108-4e04-8288-c3fcf6375db4.jpg\",\"img/0864/4bd81bc6-c13d-46df-95a9-485886dc7c1b.jpg\"]","trial_type":"similarity","trial_index":158,"time_elapsed":923939,"internal_node_id":"0.0-6.0-152.0"},{"sim_score":1,"rt":2939,"stimulus":"[\"img/0894/3adef67d-7676-4995-80b2-bb31b8aca3ef.jpg\",\"img/0881/b549bc99-a61c-4450-bab5-9efc3a197bf0.jpg\"]","trial_type":"similarity","trial_index":159,"time_elapsed":927883,"internal_node_id":"0.0-6.0-153.0"},{"sim_score":3,"rt":4599,"stimulus":"[\"img/0875/34132396-d896-4c2d-8087-646dd867e769.jpg\",\"img/0867/ac1797e4-8afc-48fe-b252-86d1defb1cca.jpg\"]","trial_type":"similarity","trial_index":160,"time_elapsed":933486,"internal_node_id":"0.0-6.0-154.0"},{"sim_score":1,"rt":3720,"stimulus":"[\"img/0867/cc72ed48-7704-422c-86d6-467a1145287a.jpg\",\"img/0758/335851a0-a55b-46d8-ab05-8463eda48349.jpg\"]","trial_type":"similarity","trial_index":161,"time_elapsed":938210,"internal_node_id":"0.0-6.0-155.0"},{"sim_score":1,"rt":3400,"stimulus":"[\"img/0868/77091fc7-a590-4ebb-b915-fdb2483a2399.jpg\",\"img/0901/c6df1a21-44ed-47c2-960e-7c52220e329e.jpg\"]","trial_type":"similarity","trial_index":162,"time_elapsed":942613,"internal_node_id":"0.0-6.0-156.0"},{"sim_score":1,"rt":3480,"stimulus":"[\"img/0769/04347740-f8f6-48bb-887a-f68babd0a0d4.jpg\",\"img/0894/4739e06d-c31e-4bf1-bf91-c97fa9afb456.jpg\"]","trial_type":"similarity","trial_index":163,"time_elapsed":947098,"internal_node_id":"0.0-6.0-157.0"},{"sim_score":1,"rt":3447,"stimulus":"[\"img/0904/60d1a521-edf7-4696-9263-f21ac0e62a01.jpg\",\"img/0758/a085b443-b5d7-4cb2-9ad4-b9dab0fc23f1.jpg\"]","trial_type":"similarity","trial_index":164,"time_elapsed":951548,"internal_node_id":"0.0-6.0-158.0"},{"sim_score":1,"rt":3247,"stimulus":"[\"img/0874/8cdb1c07-1c32-46d2-981c-3636560fa6e5.jpg\",\"img/0904/b7c2a2c8-df33-4473-b3d4-ff7147c60db3.jpg\"]","trial_type":"similarity","trial_index":165,"time_elapsed":955800,"internal_node_id":"0.0-6.0-159.0"},{"sim_score":1,"rt":4141,"stimulus":"[\"img/0864/1d15626a-2f7c-410f-819c-0fa2c967e95e.jpg\",\"img/0901/58978a6d-a3e2-4c59-8d62-f60693ecc0f6.jpg\"]","trial_type":"similarity","trial_index":166,"time_elapsed":960944,"internal_node_id":"0.0-6.0-160.0"},{"sim_score":1,"rt":4146,"stimulus":"[\"img/0898/a114b375-cb89-44ba-9498-74213f1ecdee.jpg\",\"img/0866/0207e9a2-7dbb-40b5-9459-b472aaeceb2a.jpg\"]","trial_type":"similarity","trial_index":167,"time_elapsed":966094,"internal_node_id":"0.0-6.0-161.0"},{"sim_score":4,"rt":8838,"stimulus":"[\"img/0766/1865bfc9-2410-4765-a804-3ae4ba2393d0.jpg\",\"img/0903/0fb24af7-9a26-4e9d-aadc-959a36f683e2.jpg\"]","trial_type":"similarity","trial_index":168,"time_elapsed":975936,"internal_node_id":"0.0-6.0-162.0"},{"sim_score":1,"rt":3379,"stimulus":"[\"img/0860/29a21a9f-54bb-4093-ad3f-04823ceaa89f.jpg\",\"img/0899/a05bea16-2bb4-4cb9-b8fb-4ff975db6971.jpg\"]","trial_type":"similarity","trial_index":169,"time_elapsed":980320,"internal_node_id":"0.0-6.0-163.0"},{"sim_score":1,"rt":3300,"stimulus":"[\"img/0766/b84598d0-5b41-4841-88b0-b441b48289f5.jpg\",\"img/0862/eefa5588-9efd-4591-aa5f-a2e17c7d7bcc.jpg\"]","trial_type":"similarity","trial_index":170,"time_elapsed":984626,"internal_node_id":"0.0-6.0-164.0"},{"sim_score":1,"rt":3746,"stimulus":"[\"img/0898/c3cecf20-f7fd-45fa-97d0-dc0a63e8d6c0.jpg\",\"img/0894/86201968-6e78-4d68-9b3a-d1692e066210.jpg\"]","trial_type":"similarity","trial_index":171,"time_elapsed":989376,"internal_node_id":"0.0-6.0-165.0"},{"sim_score":1,"rt":4091,"stimulus":"[\"img/0867/c66898ba-b71b-4d50-84f9-f7f84853a98d.jpg\",\"img/0766/d3bab2fc-ddcc-40a0-bb72-c0d0ebe19978.jpg\"]","trial_type":"similarity","trial_index":172,"time_elapsed":994471,"internal_node_id":"0.0-6.0-166.0"},{"sim_score":3,"rt":4594,"stimulus":"[\"img/0904/696ebb60-8891-417a-91fd-c53218907a95.jpg\",\"img/0862/7918ca67-5bd3-4606-a5ea-c39fb11a9297.jpg\"]","trial_type":"similarity","trial_index":173,"time_elapsed":1000069,"internal_node_id":"0.0-6.0-167.0"},{"sim_score":1,"rt":4685,"stimulus":"[\"img/0866/945c6710-d15b-4a5b-a8f6-69af0850357f.jpg\",\"img/0874/995f0332-0439-4eb4-add3-957335dbf6d9.jpg\"]","trial_type":"similarity","trial_index":174,"time_elapsed":1005757,"internal_node_id":"0.0-6.0-168.0"},{"sim_score":1,"rt":3223,"stimulus":"[\"img/0903/365f176c-25a4-4973-bd3c-279bf1b39476.jpg\",\"img/0868/293079b8-7e0c-4afd-a390-1e5d35fe3ded.jpg\"]","trial_type":"similarity","trial_index":175,"time_elapsed":1009984,"internal_node_id":"0.0-6.0-169.0"},{"sim_score":3,"rt":4172,"stimulus":"[\"img/0769/da36e3f7-2337-434f-ab57-11822dd7eed7.jpg\",\"img/0904/0d25eb24-bb20-4e8d-9787-8b489558b4cb.jpg\"]","trial_type":"similarity","trial_index":176,"time_elapsed":1015159,"internal_node_id":"0.0-6.0-170.0"},{"sim_score":1,"rt":2973,"stimulus":"[\"img/0875/a4935837-7d3c-4df6-88c1-36a94d4991ca.jpg\",\"img/0764/5d83b9db-3b2b-4dc8-9bd1-2b515b19c858.jpg\"]","trial_type":"similarity","trial_index":177,"time_elapsed":1019136,"internal_node_id":"0.0-6.0-171.0"},{"sim_score":1,"rt":3585,"stimulus":"[\"img/0860/15b24a61-25be-4356-9eac-5ce95d0cb4a4.jpg\",\"img/0903/2c7b4aed-6038-4aac-958a-e3e58341c313.jpg\"]","trial_type":"similarity","trial_index":178,"time_elapsed":1023727,"internal_node_id":"0.0-6.0-172.0"},{"sim_score":1,"rt":2989,"stimulus":"[\"img/0864/f92649a2-0590-4d31-9a7a-1bfb81666a2d.jpg\",\"img/0867/f8488a47-94ee-4166-952c-44e16cf172f6.jpg\"]","trial_type":"similarity","trial_index":179,"time_elapsed":1027720,"internal_node_id":"0.0-6.0-173.0"},{"sim_score":1,"rt":2953,"stimulus":"[\"img/0868/8b0b8473-e2c0-4331-aa56-c3a5c29369da.jpg\",\"img/0864/65210d57-1153-4657-886a-32e758f49b4a.jpg\"]","trial_type":"similarity","trial_index":180,"time_elapsed":1031676,"internal_node_id":"0.0-6.0-174.0"},{"sim_score":1,"rt":3175,"stimulus":"[\"img/0898/ec565187-2e31-4fdd-9a5c-153d0c789ae0.jpg\",\"img/0769/91acb237-65a3-4d0b-9748-af5c7b83d3c7.jpg\"]","trial_type":"similarity","trial_index":181,"time_elapsed":1035856,"internal_node_id":"0.0-6.0-175.0"},{"sim_score":3,"rt":4346,"stimulus":"[\"img/0766/f5f78e4e-d88f-4866-951a-118ba9fec4d0.jpg\",\"img/0764/29072395-f595-4e3c-83d3-ff87010039fa.jpg\"]","trial_type":"similarity","trial_index":182,"time_elapsed":1041206,"internal_node_id":"0.0-6.0-176.0"},{"sim_score":1,"rt":3821,"stimulus":"[\"img/0764/bc3865c9-9004-4582-88a7-048478673f97.jpg\",\"img/0866/a04d37f0-99dd-478a-b6c6-58b215138f84.jpg\"]","trial_type":"similarity","trial_index":183,"time_elapsed":1046029,"internal_node_id":"0.0-6.0-177.0"},{"sim_score":1,"rt":3296,"stimulus":"[\"img/0902/c920f0e1-1c81-480f-a164-c77f2dc6ce9a.jpg\",\"img/0875/3ecb367d-e9eb-4826-8aaa-7aa72fb98019.jpg\"]","trial_type":"similarity","trial_index":184,"time_elapsed":1050329,"internal_node_id":"0.0-6.0-178.0"},{"sim_score":1,"rt":3528,"stimulus":"[\"img/0881/33d65d80-8a8e-4ecf-852d-0ad7725c17a2.jpg\",\"img/0904/5aec2708-cf14-4a58-aa30-9a8a61c1be0e.jpg\"]","trial_type":"similarity","trial_index":185,"time_elapsed":1054862,"internal_node_id":"0.0-6.0-179.0"},{"sim_score":1,"rt":2711,"stimulus":"[\"img/0874/767f289c-9814-4496-803f-745cc8913d1f.jpg\",\"img/0860/9593362c-9fe5-4d12-9735-6000a11f6aa5.jpg\"]","trial_type":"similarity","trial_index":186,"time_elapsed":1058578,"internal_node_id":"0.0-6.0-180.0"},{"sim_score":1,"rt":2753,"stimulus":"[\"img/0769/9ea27d61-3d55-418c-8d14-82e90f656f01.jpg\",\"img/0874/31e22c7c-99aa-40b1-bf03-dd73fa2df4d6.jpg\"]","trial_type":"similarity","trial_index":187,"time_elapsed":1062334,"internal_node_id":"0.0-6.0-181.0"},{"sim_score":1,"rt":3369,"stimulus":"[\"img/0904/9b3568cc-3cf7-42be-9df3-fdafde7a58b8.jpg\",\"img/0766/c23b5a20-e50f-4d85-841f-cf89212a4348.jpg\"]","trial_type":"similarity","trial_index":188,"time_elapsed":1066706,"internal_node_id":"0.0-6.0-182.0"},{"sim_score":1,"rt":2696,"stimulus":"[\"img/0902/30c420f5-c714-4681-ae5a-c0ba8f636a26.jpg\",\"img/0764/17b088f8-3053-4140-b544-d15654cc79ef.jpg\"]","trial_type":"similarity","trial_index":189,"time_elapsed":1070406,"internal_node_id":"0.0-6.0-183.0"},{"sim_score":1,"rt":2895,"stimulus":"[\"img/0769/0fe124d3-bcad-45f6-b64d-8f6eb8ee5251.jpg\",\"img/0875/8521fd58-3b1e-4dc5-97ae-804edfa6734a.jpg\"]","trial_type":"similarity","trial_index":190,"time_elapsed":1074305,"internal_node_id":"0.0-6.0-184.0"},{"sim_score":1,"rt":2864,"stimulus":"[\"img/0867/6e19c858-b606-45b2-a4c6-910a73f1d82c.jpg\",\"img/0903/b4a0f61e-a964-4b79-a9a7-f767a8f92f34.jpg\"]","trial_type":"similarity","trial_index":191,"time_elapsed":1078173,"internal_node_id":"0.0-6.0-185.0"},{"sim_score":7,"rt":4940,"stimulus":"[\"img/0862/1c20f772-3a51-4a80-aac0-f57dc9f86c28.jpg\",\"img/0769/f73c5138-2f4c-4354-981c-129dff9cc734.jpg\"]","trial_type":"similarity","trial_index":192,"time_elapsed":1084117,"internal_node_id":"0.0-6.0-186.0"},{"sim_score":1,"rt":2851,"stimulus":"[\"img/0766/0025de5e-f620-4079-8a0f-00326ff3a6b0.jpg\",\"img/0866/9b38d691-1802-4959-ab3f-fc902f0e4ea6.jpg\"]","trial_type":"similarity","trial_index":193,"time_elapsed":1087971,"internal_node_id":"0.0-6.0-187.0"},{"sim_score":1,"rt":3198,"stimulus":"[\"img/0769/aad494cc-674d-4a08-9bfa-24a88ebe3c79.jpg\",\"img/0860/d9a0d117-6d1d-41c0-8fec-9aff0fd9e9f2.jpg\"]","trial_type":"similarity","trial_index":194,"time_elapsed":1092173,"internal_node_id":"0.0-6.0-188.0"},{"sim_score":1,"rt":2726,"stimulus":"[\"img/0881/b1a136f7-8511-4d3a-a0f6-3879acf1e1a1.jpg\",\"img/0868/4a8a45ed-2c4f-421b-9564-409a33ecd26c.jpg\"]","trial_type":"similarity","trial_index":195,"time_elapsed":1102930,"internal_node_id":"0.0-6.0-189.0"},{"view_history":"[{\"page_index\":0,\"viewing_time\":9894}]","rt":9895,"trial_type":"instructions","trial_index":196,"time_elapsed":1113826,"internal_node_id":"0.0-7.0"},{"rt":15406,"responses":"{\"Q0\":\"Orange-crowned Warbler\"}","answer":["Nashville Warbler"],"trial_type":"image-multi-choice","trial_index":197,"time_elapsed":1130244,"internal_node_id":"0.0-8.0-0.0"},{"rt":16632,"responses":"{\"Q0\":\"Black-and-white Warbler\"}","answer":["Black-and-white Warbler"],"trial_type":"image-multi-choice","trial_index":198,"time_elapsed":1147890,"internal_node_id":"0.0-8.0-1.0"},{"rt":7702,"responses":"{\"Q0\":\"Townsend's Warbler\"}","answer":["Townsend's Warbler"],"trial_type":"image-multi-choice","trial_index":199,"time_elapsed":1156605,"internal_node_id":"0.0-8.0-2.0"},{"rt":49207,"responses":"{\"Q0\":\"Vesper Sparrow\"}","answer":["Lark Sparrow"],"trial_type":"image-multi-choice","trial_index":200,"time_elapsed":1206825,"internal_node_id":"0.0-8.0-3.0"},{"rt":5272,"responses":"{\"Q0\":\"Yellow Warbler\"}","answer":["Yellow Warbler"],"trial_type":"image-multi-choice","trial_index":201,"time_elapsed":1213110,"internal_node_id":"0.0-8.0-4.0"},{"rt":27017,"responses":"{\"Q0\":\"Orange-crowned Warbler\"}","answer":["Orange-crowned Warbler"],"trial_type":"image-multi-choice","trial_index":202,"time_elapsed":1241139,"internal_node_id":"0.0-8.0-5.0"},{"rt":8936,"responses":"{\"Q0\":\"White-throated Sparrow\"}","answer":["White-throated Sparrow"],"trial_type":"image-multi-choice","trial_index":203,"time_elapsed":1251087,"internal_node_id":"0.0-8.0-6.0"},{"rt":9166,"responses":"{\"Q0\":\"Fox Sparrow\"}","answer":["Fox Sparrow"],"trial_type":"image-multi-choice","trial_index":204,"time_elapsed":1261264,"internal_node_id":"0.0-8.0-7.0"},{"rt":11789,"responses":"{\"Q0\":\"Chipping Sparrow\"}","answer":["Song Sparrow"],"trial_type":"image-multi-choice","trial_index":205,"time_elapsed":1274066,"internal_node_id":"0.0-8.0-8.0"},{"rt":24733,"responses":"{\"Q0\":\"Blackburnian Warbler\"}","answer":["Blackburnian Warbler"],"trial_type":"image-multi-choice","trial_index":206,"time_elapsed":1299811,"internal_node_id":"0.0-8.0-9.0"},{"rt":6820,"responses":"{\"Q0\":\"Lincoln's Sparrow\"}","answer":["Vesper Sparrow"],"trial_type":"image-multi-choice","trial_index":207,"time_elapsed":1307643,"internal_node_id":"0.0-8.0-10.0"},{"rt":6511,"responses":"{\"Q0\":\"White-crowned Sparrow\"}","answer":["White-crowned Sparrow"],"trial_type":"image-multi-choice","trial_index":208,"time_elapsed":1315165,"internal_node_id":"0.0-8.0-11.0"},{"rt":13942,"responses":"{\"Q0\":\"American Tree Sparrow\"}","answer":["American Tree Sparrow"],"trial_type":"image-multi-choice","trial_index":209,"time_elapsed":1330122,"internal_node_id":"0.0-8.0-12.0"},{"rt":13926,"responses":"{\"Q0\":\"Tennessee Warbler\"}","answer":["Tennessee Warbler"],"trial_type":"image-multi-choice","trial_index":210,"time_elapsed":1345060,"internal_node_id":"0.0-8.0-13.0"},{"rt":19318,"responses":"{\"Q0\":\"Magnolia Warbler\"}","answer":["Magnolia Warbler"],"trial_type":"image-multi-choice","trial_index":211,"time_elapsed":1365392,"internal_node_id":"0.0-8.0-14.0"},{"rt":6322,"responses":"{\"Q0\":\"Northern Waterthrush\"}","answer":["Northern Waterthrush"],"trial_type":"image-multi-choice","trial_index":212,"time_elapsed":1372727,"internal_node_id":"0.0-8.0-15.0"},{"rt":24359,"responses":"{\"Q0\":\"Lincoln's Sparrow\"}","answer":["Chipping Sparrow"],"trial_type":"image-multi-choice","trial_index":213,"time_elapsed":1398099,"internal_node_id":"0.0-8.0-16.0"},{"rt":10229,"responses":"{\"Q0\":\"Lincoln's Sparrow\"}","answer":["Swamp Sparrow"],"trial_type":"image-multi-choice","trial_index":214,"time_elapsed":1409344,"internal_node_id":"0.0-8.0-17.0"},{"rt":8454,"responses":"{\"Q0\":\"Song Sparrow\"}","answer":["Lincoln's Sparrow"],"trial_type":"image-multi-choice","trial_index":215,"time_elapsed":1418811,"internal_node_id":"0.0-8.0-18.0"},{"rt":4199,"responses":"{\"Q0\":\"Ovenbird\"}","answer":["Ovenbird"],"trial_type":"image-multi-choice","trial_index":216,"time_elapsed":1424023,"internal_node_id":"0.0-8.0-19.0"}]