[{"view_history":"[{\"page_index\":0,\"viewing_time\":26149}]","rt":26153,"trial_type":"instructions","trial_index":0,"time_elapsed":26159,"internal_node_id":"0.0-0.0"},{"sim_score":7,"rt":24558,"stimulus":"[\"img/bluejay1.jpg\",\"img/bluejay2.jpg\"]","trial_type":"similarity_demo","trial_index":1,"time_elapsed":51750,"internal_node_id":"0.0-1.0"},{"view_history":"[{\"page_index\":0,\"viewing_time\":10257}]","rt":10257,"trial_type":"instructions","trial_index":2,"time_elapsed":63009,"internal_node_id":"0.0-2.0"},{"sim_score":3,"rt":8398,"stimulus":"[\"img/bluejay1.jpg\",\"img/cardinal1.jpg\"]","trial_type":"similarity_demo","trial_index":3,"time_elapsed":72427,"internal_node_id":"0.0-3.0"},{"view_history":"[{\"page_index\":0,\"viewing_time\":8971}]","rt":8972,"trial_type":"instructions","trial_index":4,"time_elapsed":82402,"internal_node_id":"0.0-4.0"},{"view_history":"[{\"page_index\":0,\"viewing_time\":23223}]","rt":23224,"trial_type":"instructions","trial_index":5,"time_elapsed":106627,"internal_node_id":"0.0-5.0"},{"sim_score":3,"rt":6773,"stimulus":"[\"img/0868/e0aff734-077f-40dd-9781-74821abd3621.jpg\",\"img/0894/11674fa4-285d-44e2-939f-2228c6a64080.jpg\"]","trial_type":"similarity","trial_index":6,"time_elapsed":114429,"internal_node_id":"0.0-6.0-0.0"},{"sim_score":4,"rt":5948,"stimulus":"[\"img/0898/79233891-305a-4a6a-8ddf-5c8604858203.jpg\",\"img/0758/7fba58df-2a7a-4b76-8a8f-62739f97f271.jpg\"]","trial_type":"similarity","trial_index":7,"time_elapsed":121395,"internal_node_id":"0.0-6.0-1.0"},{"sim_score":6,"rt":8492,"stimulus":"[\"img/0903/6378ee1e-3d2b-48d2-87be-bebda32c8268.jpg\",\"img/0894/0130a973-d993-41f8-874a-fee23d9ac11f.jpg\"]","trial_type":"similarity","trial_index":8,"time_elapsed":130909,"internal_node_id":"0.0-6.0-2.0"},{"sim_score":3,"rt":5693,"stimulus":"[\"img/0881/dea58fad-b4f1-41d9-bd3f-916eff19a3fd.jpg\",\"img/0766/f5f78e4e-d88f-4866-951a-118ba9fec4d0.jpg\"]","trial_type":"similarity","trial_index":9,"time_elapsed":137615,"internal_node_id":"0.0-6.0-3.0"},{"sim_score":5,"rt":5462,"stimulus":"[\"img/0864/f92649a2-0590-4d31-9a7a-1bfb81666a2d.jpg\",\"img/0860/5383b320-1518-4095-a58e-5cc1ae30b64c.jpg\"]","trial_type":"similarity","trial_index":10,"time_elapsed":144093,"internal_node_id":"0.0-6.0-4.0"},{"sim_score":5,"rt":6289,"stimulus":"[\"img/0902/51493fab-2a10-4385-aa88-bee3db441626.jpg\",\"img/0899/f95cbdb4-f804-4f5d-ad76-373ad343e658.jpg\"]","trial_type":"similarity","trial_index":11,"time_elapsed":151393,"internal_node_id":"0.0-6.0-5.0"},{"sim_score":3,"rt":4199,"stimulus":"[\"img/0868/4bd5105a-d2c3-4f82-8c80-57196106ba53.jpg\",\"img/0769/ebef2ddc-ba59-4e0e-97f8-927864eb5081.jpg\"]","trial_type":"similarity","trial_index":12,"time_elapsed":156608,"internal_node_id":"0.0-6.0-6.0"},{"sim_score":6,"rt":5014,"stimulus":"[\"img/0764/b887d7c6-aa81-4637-af8e-05135757ac59.jpg\",\"img/0901/1e23ffbd-19de-4c4f-aa23-c54aaa3319a3.jpg\"]","trial_type":"similarity","trial_index":13,"time_elapsed":162636,"internal_node_id":"0.0-6.0-7.0"},{"sim_score":6,"rt":6269,"stimulus":"[\"img/0881/ed4c971f-0873-4fc8-b6d6-e8bbd82f0bcc.jpg\",\"img/0866/0207e9a2-7dbb-40b5-9459-b472aaeceb2a.jpg\"]","trial_type":"similarity","trial_index":14,"time_elapsed":169919,"internal_node_id":"0.0-6.0-8.0"},{"sim_score":2,"rt":4837,"stimulus":"[\"img/0867/6e19c858-b606-45b2-a4c6-910a73f1d82c.jpg\",\"img/0899/8abe6c69-822c-436c-9bf2-96c818b49ba5.jpg\"]","trial_type":"similarity","trial_index":15,"time_elapsed":175777,"internal_node_id":"0.0-6.0-9.0"},{"sim_score":2,"rt":3938,"stimulus":"[\"img/0875/3ecb367d-e9eb-4826-8aaa-7aa72fb98019.jpg\",\"img/0766/dd3e18d0-0c98-4d05-b850-69976ee8cd75.jpg\"]","trial_type":"similarity","trial_index":16,"time_elapsed":180731,"internal_node_id":"0.0-6.0-10.0"},{"sim_score":2,"rt":4231,"stimulus":"[\"img/0901/58978a6d-a3e2-4c59-8d62-f60693ecc0f6.jpg\",\"img/0875/e7e66b13-b573-431e-b85e-288ce04a35a3.jpg\"]","trial_type":"similarity","trial_index":17,"time_elapsed":185976,"internal_node_id":"0.0-6.0-11.0"},{"sim_score":3,"rt":4401,"stimulus":"[\"img/0902/168ebd47-9e82-4ab7-a18b-c3da85072db8.jpg\",\"img/0860/702bd09d-df3a-40aa-a267-5f04474305b5.jpg\"]","trial_type":"similarity","trial_index":18,"time_elapsed":191391,"internal_node_id":"0.0-6.0-12.0"},{"sim_score":5,"rt":6736,"stimulus":"[\"img/0874/a82926a3-0b43-4add-803c-d5f9ea7798ee.jpg\",\"img/0867/ac1797e4-8afc-48fe-b252-86d1defb1cca.jpg\"]","trial_type":"similarity","trial_index":19,"time_elapsed":199144,"internal_node_id":"0.0-6.0-13.0"},{"sim_score":2,"rt":4329,"stimulus":"[\"img/0904/9dd5708f-3f8b-46a9-b49f-2f2fab87b357.jpg\",\"img/0866/be24ab58-230e-4db8-9f45-ff04c9aec6bb.jpg\"]","trial_type":"similarity","trial_index":20,"time_elapsed":204485,"internal_node_id":"0.0-6.0-14.0"},{"sim_score":2,"rt":5541,"stimulus":"[\"img/0758/6cd8c362-ae2a-41eb-80a3-3a4f7ace1530.jpg\",\"img/0902/27b84584-948a-485b-8749-cb09929ef631.jpg\"]","trial_type":"similarity","trial_index":21,"time_elapsed":211038,"internal_node_id":"0.0-6.0-15.0"},{"sim_score":2,"rt":5717,"stimulus":"[\"img/0867/f8488a47-94ee-4166-952c-44e16cf172f6.jpg\",\"img/0898/a114b375-cb89-44ba-9498-74213f1ecdee.jpg\"]","trial_type":"similarity","trial_index":22,"time_elapsed":217766,"internal_node_id":"0.0-6.0-16.0"},{"sim_score":2,"rt":3893,"stimulus":"[\"img/0904/2f88ce53-02d0-4f95-a082-182c56a0eeb4.jpg\",\"img/0868/6a28c3b0-3d76-498a-9fb7-ddafc665eca8.jpg\"]","trial_type":"similarity","trial_index":23,"time_elapsed":222668,"internal_node_id":"0.0-6.0-17.0"},{"sim_score":3,"rt":5488,"stimulus":"[\"img/0766/aaec5f42-7f0a-4a16-aeca-488d757acbcc.jpg\",\"img/0864/5f74a653-3bdc-4308-8cca-ac667dc22e1f.jpg\"]","trial_type":"similarity","trial_index":24,"time_elapsed":229167,"internal_node_id":"0.0-6.0-18.0"},{"sim_score":6,"rt":6645,"stimulus":"[\"img/0899/0e1d936a-dbe2-4afc-9f19-7b7a1ae6c9ed.jpg\",\"img/0766/d3bab2fc-ddcc-40a0-bb72-c0d0ebe19978.jpg\"]","trial_type":"similarity","trial_index":25,"time_elapsed":236828,"internal_node_id":"0.0-6.0-19.0"},{"sim_score":2,"rt":3562,"stimulus":"[\"img/0764/952d7adc-dc40-4aee-acce-18c2a1d02ea1.jpg\",\"img/0758/9fb5b2fe-3f00-4fe6-973c-1ce10d5f4cd5.jpg\"]","trial_type":"similarity","trial_index":26,"time_elapsed":241399,"internal_node_id":"0.0-6.0-20.0"},{"sim_score":3,"rt":5514,"stimulus":"[\"img/0901/d4d09bf5-093e-4050-838e-7c738be8e63c.jpg\",\"img/0874/93d1f8dc-acf2-4f03-bd8d-8ec35df276ed.jpg\"]","trial_type":"similarity","trial_index":27,"time_elapsed":247929,"internal_node_id":"0.0-6.0-21.0"},{"sim_score":5,"rt":5849,"stimulus":"[\"img/0875/34132396-d896-4c2d-8087-646dd867e769.jpg\",\"img/0758/f61ecdf8-a7d4-4db0-b84d-be46f7cfaffc.jpg\"]","trial_type":"similarity","trial_index":28,"time_elapsed":254793,"internal_node_id":"0.0-6.0-22.0"},{"sim_score":5,"rt":5567,"stimulus":"[\"img/0867/f8159067-056c-41f1-a136-c529fe5e970a.jpg\",\"img/0881/54ea8e77-c7e5-4197-b7fa-00b7020849a7.jpg\"]","trial_type":"similarity","trial_index":29,"time_elapsed":261379,"internal_node_id":"0.0-6.0-23.0"},{"sim_score":2,"rt":4351,"stimulus":"[\"img/0758/eabcd7a8-56ad-4fd2-bc24-90f6b7b33265.jpg\",\"img/0901/12da1841-e611-435c-9719-109413d536a8.jpg\"]","trial_type":"similarity","trial_index":30,"time_elapsed":266748,"internal_node_id":"0.0-6.0-24.0"},{"sim_score":6,"rt":5217,"stimulus":"[\"img/0868/fd307a36-9a3a-47d7-ab7c-f810d0b35040.jpg\",\"img/0875/dbdd643e-6d0e-4a5c-ab57-b9c29b9c981a.jpg\"]","trial_type":"similarity","trial_index":31,"time_elapsed":272980,"internal_node_id":"0.0-6.0-25.0"},{"sim_score":6,"rt":3579,"stimulus":"[\"img/0903/70d764d9-1f35-4da7-a35d-4cc39834d270.jpg\",\"img/0901/548d1110-7cb8-42a2-9927-9798875c8b5c.jpg\"]","trial_type":"similarity","trial_index":32,"time_elapsed":277568,"internal_node_id":"0.0-6.0-26.0"},{"sim_score":6,"rt":4124,"stimulus":"[\"img/0894/c505c65a-cde2-4f2c-8cde-f8676f7c894d.jpg\",\"img/0899/7b7380d5-d2be-44e5-a09a-c1756f87ef71.jpg\"]","trial_type":"similarity","trial_index":33,"time_elapsed":282702,"internal_node_id":"0.0-6.0-27.0"},{"sim_score":6,"rt":5811,"stimulus":"[\"img/0862/5d887e9f-89e2-4ebc-80a0-6d46fe6480db.jpg\",\"img/0867/bf560d4f-dee3-4f11-a385-705cc1aa5f3c.jpg\"]","trial_type":"similarity","trial_index":34,"time_elapsed":289525,"internal_node_id":"0.0-6.0-28.0"},{"sim_score":6,"rt":3655,"stimulus":"[\"img/0864/da39ad34-04e0-40d4-a724-c08d53e0ea09.jpg\",\"img/0875/8521fd58-3b1e-4dc5-97ae-804edfa6734a.jpg\"]","trial_type":"similarity","trial_index":35,"time_elapsed":294196,"internal_node_id":"0.0-6.0-29.0"},{"sim_score":5,"rt":4019,"stimulus":"[\"img/0862/99a99e39-8355-44ec-b993-e7bcec111e1c.jpg\",\"img/0874/767f289c-9814-4496-803f-745cc8913d1f.jpg\"]","trial_type":"similarity","trial_index":36,"time_elapsed":299232,"internal_node_id":"0.0-6.0-30.0"},{"sim_score":2,"rt":3282,"stimulus":"[\"img/0903/5ea5bbe0-f238-4724-abe7-9ed8dee8c0ba.jpg\",\"img/0758/67c0be2f-9e91-48b3-8219-70ac0a1802fa.jpg\"]","trial_type":"similarity","trial_index":37,"time_elapsed":303528,"internal_node_id":"0.0-6.0-31.0"},{"sim_score":2,"rt":5680,"stimulus":"[\"img/0866/a15b02be-11bb-43e3-b0e0-ecc3bd7dfc49.jpg\",\"img/0901/fb0a8e69-7f19-4e6e-a6bb-a48f97f9b4f3.jpg\"]","trial_type":"similarity","trial_index":38,"time_elapsed":310220,"internal_node_id":"0.0-6.0-32.0"},{"sim_score":2,"rt":5564,"stimulus":"[\"img/0874/a3bc679d-619f-4db6-bb68-116dcb757d9c.jpg\",\"img/0899/5b56dd3e-3f49-47cc-af84-16da6457753b.jpg\"]","trial_type":"similarity","trial_index":39,"time_elapsed":316800,"internal_node_id":"0.0-6.0-33.0"},{"sim_score":6,"rt":5391,"stimulus":"[\"img/0903/6f343da5-00d9-4d50-89d1-2ed24cdb8319.jpg\",\"img/0902/c018bd7a-d91a-4192-aea4-7259cfcdb6c4.jpg\"]","trial_type":"similarity","trial_index":40,"time_elapsed":323202,"internal_node_id":"0.0-6.0-34.0"},{"sim_score":5,"rt":5156,"stimulus":"[\"img/0758/ddc336e9-a8b6-4bb9-937a-c7e25e0e9250.jpg\",\"img/0866/07c9c966-3c8d-40e7-8128-92b2acbaed5d.jpg\"]","trial_type":"similarity","trial_index":41,"time_elapsed":329368,"internal_node_id":"0.0-6.0-35.0"},{"sim_score":3,"rt":3947,"stimulus":"[\"img/0875/5a7c4e35-6514-4e12-8879-d16071da4cd6.jpg\",\"img/0903/71dbc325-b588-4297-a5cf-7f268a722ad9.jpg\"]","trial_type":"similarity","trial_index":42,"time_elapsed":334326,"internal_node_id":"0.0-6.0-36.0"},{"sim_score":3,"rt":4951,"stimulus":"[\"img/0864/87c467d3-abca-482f-ad80-3766c21b1bb3.jpg\",\"img/0902/44cd9b7e-fdfb-4f78-90de-8d4c9d279365.jpg\"]","trial_type":"similarity","trial_index":43,"time_elapsed":351999,"internal_node_id":"0.0-6.0-37.0"},{"sim_score":2,"rt":4051,"stimulus":"[\"img/0901/693e0535-ef7e-4d60-af9d-fac2f38e8307.jpg\",\"img/0867/98d8cd96-1476-4fe0-a3a3-04f875500a1b.jpg\"]","trial_type":"similarity","trial_index":44,"time_elapsed":357061,"internal_node_id":"0.0-6.0-38.0"},{"sim_score":7,"rt":4125,"stimulus":"[\"img/0862/cdaed51d-9e2f-4807-801a-4663c40077e2.jpg\",\"img/0860/b03b963d-949b-4d8d-b19c-4950c89eeca2.jpg\"]","trial_type":"similarity","trial_index":45,"time_elapsed":362202,"internal_node_id":"0.0-6.0-39.0"},{"sim_score":7,"rt":5070,"stimulus":"[\"img/0867/2e1a0b58-cdb1-4107-a14e-452530d7b9b0.jpg\",\"img/0868/0d3abd3a-b6c3-4584-a9f7-e2da63748b3d.jpg\"]","trial_type":"similarity","trial_index":46,"time_elapsed":368287,"internal_node_id":"0.0-6.0-40.0"},{"sim_score":6,"rt":5313,"stimulus":"[\"img/0904/73920552-103b-4c9c-9ece-e0b8376b4504.jpg\",\"img/0899/00715b3f-851b-420b-a26b-d7f79f7759a9.jpg\"]","trial_type":"similarity","trial_index":47,"time_elapsed":374616,"internal_node_id":"0.0-6.0-41.0"},{"sim_score":2,"rt":4701,"stimulus":"[\"img/0862/ba89835a-408c-480b-8594-ed4ffa97eb5c.jpg\",\"img/0894/1b3888e6-cf36-4c4a-a039-187aa5cb71ac.jpg\"]","trial_type":"similarity","trial_index":48,"time_elapsed":380328,"internal_node_id":"0.0-6.0-42.0"},{"sim_score":2,"rt":5471,"stimulus":"[\"img/0875/2e13d160-eea1-416b-aff1-d37ab99ecc1d.jpg\",\"img/0904/06dacdc5-2206-4fb8-92b7-88042d22833c.jpg\"]","trial_type":"similarity","trial_index":49,"time_elapsed":386809,"internal_node_id":"0.0-6.0-43.0"},{"sim_score":2,"rt":2793,"stimulus":"[\"img/0874/7e4f2150-3b59-4a36-b5da-a4e0ba410531.jpg\",\"img/0898/40f99fb2-64d2-4e72-8a7f-a1cf60741e69.jpg\"]","trial_type":"similarity","trial_index":50,"time_elapsed":390616,"internal_node_id":"0.0-6.0-44.0"},{"sim_score":2,"rt":3354,"stimulus":"[\"img/0898/26c41340-15bd-4ead-8fe4-c0d0ddca09c2.jpg\",\"img/0868/15dd6fd7-791e-4b53-b203-195d617521a4.jpg\"]","trial_type":"similarity","trial_index":51,"time_elapsed":394982,"internal_node_id":"0.0-6.0-45.0"},{"sim_score":4,"rt":4051,"stimulus":"[\"img/0901/4f9cffe0-c0be-4d7f-bacd-9d51efd19b4a.jpg\",\"img/0860/94ef7afc-e0e6-4a15-98c6-0bfac82bc832.jpg\"]","trial_type":"similarity","trial_index":52,"time_elapsed":400042,"internal_node_id":"0.0-6.0-46.0"},{"sim_score":6,"rt":6088,"stimulus":"[\"img/0894/e6385e52-6c35-43bd-b0af-bc803d107b11.jpg\",\"img/0902/2db723b6-130f-454c-8c8d-88829edbcd65.jpg\"]","trial_type":"similarity","trial_index":53,"time_elapsed":407141,"internal_node_id":"0.0-6.0-47.0"},{"sim_score":2,"rt":3957,"stimulus":"[\"img/0764/c01e2d65-6586-441b-bef5-3c96fcd85380.jpg\",\"img/0862/fb26cb07-d5a9-4653-813c-f41609f26cd5.jpg\"]","trial_type":"similarity","trial_index":54,"time_elapsed":412108,"internal_node_id":"0.0-6.0-48.0"},{"sim_score":7,"rt":4078,"stimulus":"[\"img/0881/f8bd891e-aa09-4782-89db-33e7cb2b0cf1.jpg\",\"img/0758/6e95579b-5166-487c-b8cb-e417c6a218e3.jpg\"]","trial_type":"similarity","trial_index":55,"time_elapsed":417200,"internal_node_id":"0.0-6.0-49.0"},{"sim_score":6,"rt":4556,"stimulus":"[\"img/0766/af3be95e-e52e-4fae-899b-0ff02ec340aa.jpg\",\"img/0769/3c1203c5-2ce7-466e-957a-8d77b5905460.jpg\"]","trial_type":"similarity","trial_index":56,"time_elapsed":422764,"internal_node_id":"0.0-6.0-50.0"},{"sim_score":2,"rt":5718,"stimulus":"[\"img/0875/42910c99-5463-450a-a0f8-d4d060a11455.jpg\",\"img/0866/d266fece-59b3-46fa-b69f-96f6efb81b59.jpg\"]","trial_type":"similarity","trial_index":57,"time_elapsed":429494,"internal_node_id":"0.0-6.0-51.0"},{"sim_score":6,"rt":4972,"stimulus":"[\"img/0894/661b9f9f-4bde-487a-b1ed-87085fde6948.jpg\",\"img/0904/b7c2a2c8-df33-4473-b3d4-ff7147c60db3.jpg\"]","trial_type":"similarity","trial_index":58,"time_elapsed":435497,"internal_node_id":"0.0-6.0-52.0"},{"sim_score":2,"rt":4092,"stimulus":"[\"img/0758/e38fd80d-18d0-42f3-b848-f930788e8bd7.jpg\",\"img/0769/0fe124d3-bcad-45f6-b64d-8f6eb8ee5251.jpg\"]","trial_type":"similarity","trial_index":59,"time_elapsed":440598,"internal_node_id":"0.0-6.0-53.0"},{"sim_score":2,"rt":4725,"stimulus":"[\"img/0902/b56db912-c3c0-4fc2-b325-d640acd7cb58.jpg\",\"img/0874/2c9464dd-8a23-4baa-ac94-1ba3af5c15cc.jpg\"]","trial_type":"similarity","trial_index":60,"time_elapsed":446332,"internal_node_id":"0.0-6.0-54.0"},{"sim_score":2,"rt":6227,"stimulus":"[\"img/0903/07b445ee-0cdb-4d2c-a23b-d727613f4059.jpg\",\"img/0862/847e5208-38ec-4f36-949c-296cdd7424ee.jpg\"]","trial_type":"similarity","trial_index":61,"time_elapsed":453570,"internal_node_id":"0.0-6.0-55.0"},{"sim_score":2,"rt":4452,"stimulus":"[\"img/0866/02f5e6b9-52b7-448c-9708-5b460d0c9a23.jpg\",\"img/0894/7dd6ff43-f8fc-408a-8a41-a2b261871820.jpg\"]","trial_type":"similarity","trial_index":62,"time_elapsed":459033,"internal_node_id":"0.0-6.0-56.0"},{"sim_score":2,"rt":5583,"stimulus":"[\"img/0867/f26f6b60-f772-4f4c-95a4-addc62cfd692.jpg\",\"img/0904/b5855d6a-7ef9-46ca-9215-6e9fa046e543.jpg\"]","trial_type":"similarity","trial_index":63,"time_elapsed":465625,"internal_node_id":"0.0-6.0-57.0"},{"sim_score":5,"rt":3568,"stimulus":"[\"img/0875/99698b4d-b4a1-44bc-8c83-8ea755bbbf61.jpg\",\"img/0881/633c6f40-56d9-4b48-bf1c-ecd83116eabb.jpg\"]","trial_type":"similarity","trial_index":64,"time_elapsed":470202,"internal_node_id":"0.0-6.0-58.0"},{"sim_score":5,"rt":6887,"stimulus":"[\"img/0866/8efcaa46-83ab-4dee-a35f-850402aa21ae.jpg\",\"img/0860/18dfed73-e36b-4487-a8bd-0b8cff8e3668.jpg\"]","trial_type":"similarity","trial_index":65,"time_elapsed":478098,"internal_node_id":"0.0-6.0-59.0"},{"sim_score":2,"rt":4378,"stimulus":"[\"img/0903/680ed18e-b311-4ecf-9b00-7dea32128334.jpg\",\"img/0866/f756f7d1-9ad8-4a34-9ef6-7a443d705bfe.jpg\"]","trial_type":"similarity","trial_index":66,"time_elapsed":483487,"internal_node_id":"0.0-6.0-60.0"},{"sim_score":5,"rt":4146,"stimulus":"[\"img/0860/fd4662f9-4c03-4d79-8593-06735e55a64b.jpg\",\"img/0875/5a1e5100-0d94-4fec-bbe9-ca9894d2cf8e.jpg\"]","trial_type":"similarity","trial_index":67,"time_elapsed":488643,"internal_node_id":"0.0-6.0-61.0"},{"sim_score":2,"rt":5603,"stimulus":"[\"img/0898/6cd3830b-d44e-4915-be2b-88d31424b91c.jpg\",\"img/0862/a0a3a7ba-7798-46a3-b4ca-05e1f6e581d0.jpg\"]","trial_type":"similarity","trial_index":68,"time_elapsed":495258,"internal_node_id":"0.0-6.0-62.0"},{"sim_score":6,"rt":4972,"stimulus":"[\"img/0902/10d99c89-71f7-4c81-a31e-dfc7c59f5232.jpg\",\"img/0766/d919cedb-f9b7-4f30-83bb-3e9c65001ceb.jpg\"]","trial_type":"similarity","trial_index":69,"time_elapsed":501240,"internal_node_id":"0.0-6.0-63.0"},{"sim_score":6,"rt":3788,"stimulus":"[\"img/0758/e1ba5e53-addc-436a-b428-d34fc1b130dc.jpg\",\"img/0864/a248adb3-c70b-4652-b7a3-776d2a1e904b.jpg\"]","trial_type":"similarity","trial_index":70,"time_elapsed":506038,"internal_node_id":"0.0-6.0-64.0"},{"sim_score":2,"rt":5256,"stimulus":"[\"img/0894/6aa5545f-fa7d-4286-bbaa-aaf34dc7ec96.jpg\",\"img/0860/9593362c-9fe5-4d12-9735-6000a11f6aa5.jpg\"]","trial_type":"similarity","trial_index":71,"time_elapsed":512302,"internal_node_id":"0.0-6.0-65.0"},{"sim_score":5,"rt":5489,"stimulus":"[\"img/0899/66ab3178-c3fe-4455-ad17-d5952b08e018.jpg\",\"img/0868/4e626425-63c8-484a-8a1d-e66ee4e0bef8.jpg\"]","trial_type":"similarity","trial_index":72,"time_elapsed":518799,"internal_node_id":"0.0-6.0-66.0"},{"sim_score":5,"rt":5728,"stimulus":"[\"img/0866/c446214b-a368-4c65-ae39-ea46894256ab.jpg\",\"img/0862/f23038d4-c366-4f70-979f-66b62362efa4.jpg\"]","trial_type":"similarity","trial_index":73,"time_elapsed":525536,"internal_node_id":"0.0-6.0-67.0"},{"sim_score":5,"rt":4862,"stimulus":"[\"img/0860/4f695df5-afac-4da7-9875-fee39b0b24ad.jpg\",\"img/0758/3ddd05d3-557e-4ee7-8b78-9d2d681d8ae2.jpg\"]","trial_type":"similarity","trial_index":74,"time_elapsed":531409,"internal_node_id":"0.0-6.0-68.0"},{"sim_score":2,"rt":4856,"stimulus":"[\"img/0902/82d20e8c-2162-47a6-925b-52906558c046.jpg\",\"img/0867/c71dc569-f49c-4397-8381-68b8d726736d.jpg\"]","trial_type":"similarity","trial_index":75,"time_elapsed":537279,"internal_node_id":"0.0-6.0-69.0"},{"sim_score":3,"rt":6545,"stimulus":"[\"img/0862/7918ca67-5bd3-4606-a5ea-c39fb11a9297.jpg\",\"img/0901/148b747a-7392-437e-8823-33053c5dff3f.jpg\"]","trial_type":"similarity","trial_index":76,"time_elapsed":544832,"internal_node_id":"0.0-6.0-70.0"},{"sim_score":7,"rt":4598,"stimulus":"[\"img/0867/cc72ed48-7704-422c-86d6-467a1145287a.jpg\",\"img/0866/a04d37f0-99dd-478a-b6c6-58b215138f84.jpg\"]","trial_type":"similarity","trial_index":77,"time_elapsed":550447,"internal_node_id":"0.0-6.0-71.0"},{"sim_score":2,"rt":4050,"stimulus":"[\"img/0860/4c530c3c-6aab-492a-94d1-9c01797bde40.jpg\",\"img/0904/fe746a3f-8458-48d0-8a13-8cba2a9df9f8.jpg\"]","trial_type":"similarity","trial_index":78,"time_elapsed":555508,"internal_node_id":"0.0-6.0-72.0"},{"sim_score":2,"rt":4257,"stimulus":"[\"img/0875/527ced51-8e53-4aab-ab05-86df219104c0.jpg\",\"img/0899/1b3457ea-87d4-4946-a01c-aac1863ed46c.jpg\"]","trial_type":"similarity","trial_index":79,"time_elapsed":560779,"internal_node_id":"0.0-6.0-73.0"},{"sim_score":2,"rt":3451,"stimulus":"[\"img/0899/57476fed-5962-4272-8fc9-b317bb777b54.jpg\",\"img/0758/821c68d3-5cb0-4eae-8659-30e6263fca39.jpg\"]","trial_type":"similarity","trial_index":80,"time_elapsed":565243,"internal_node_id":"0.0-6.0-74.0"},{"sim_score":2,"rt":5622,"stimulus":"[\"img/0862/92fcd8a4-8193-4a6a-ae09-dd4a6338b0df.jpg\",\"img/0875/f87b67d7-c33e-40d1-b281-248c4be1cb6e.jpg\"]","trial_type":"similarity","trial_index":81,"time_elapsed":573818,"internal_node_id":"0.0-6.0-75.0"},{"sim_score":6,"rt":6505,"stimulus":"[\"img/0901/875dedb9-24c9-4443-9f8c-85e97d70ee5a.jpg\",\"img/0894/5a49e858-2850-4892-9a06-e9f0efb5f94d.jpg\"]","trial_type":"similarity","trial_index":82,"time_elapsed":581336,"internal_node_id":"0.0-6.0-76.0"},{"sim_score":2,"rt":3180,"stimulus":"[\"img/0766/f011ef45-fb48-44b8-8224-867ed2ccf786.jpg\",\"img/0758/b76ceca7-95ac-46e4-ac13-da02c8e93be9.jpg\"]","trial_type":"similarity","trial_index":83,"time_elapsed":585531,"internal_node_id":"0.0-6.0-77.0"},{"sim_score":7,"rt":3936,"stimulus":"[\"img/0894/43216a7f-27bc-4b5a-8841-d122a30da9d9.jpg\",\"img/0764/5d6fa3ce-9083-410c-bbdb-336a49b94cfc.jpg\"]","trial_type":"similarity","trial_index":84,"time_elapsed":590481,"internal_node_id":"0.0-6.0-78.0"},{"sim_score":6,"rt":6018,"stimulus":"[\"img/0860/71e1aad0-2cdf-43bb-94a4-a8c016997c30.jpg\",\"img/0867/7d1c497b-c1b3-4ed8-abb5-d7f73306015f.jpg\"]","trial_type":"similarity","trial_index":85,"time_elapsed":597511,"internal_node_id":"0.0-6.0-79.0"},{"sim_score":6,"rt":4583,"stimulus":"[\"img/0898/8605a25b-6895-476d-8c13-df7a83f96093.jpg\",\"img/0901/71e551a2-9ce2-409c-9c7c-dd556a0791e9.jpg\"]","trial_type":"similarity","trial_index":86,"time_elapsed":603103,"internal_node_id":"0.0-6.0-80.0"},{"sim_score":2,"rt":3765,"stimulus":"[\"img/0874/31e22c7c-99aa-40b1-bf03-dd73fa2df4d6.jpg\",\"img/0764/fb7d4a20-a475-465e-a74f-aa39a0d33d16.jpg\"]","trial_type":"similarity","trial_index":87,"time_elapsed":607883,"internal_node_id":"0.0-6.0-81.0"},{"sim_score":2,"rt":4267,"stimulus":"[\"img/0899/8de08897-b430-42fe-9d42-840670b80f94.jpg\",\"img/0862/24cdc752-c2e5-4a17-86a6-6f2045d8553b.jpg\"]","trial_type":"similarity","trial_index":88,"time_elapsed":613162,"internal_node_id":"0.0-6.0-82.0"},{"sim_score":6,"rt":5437,"stimulus":"[\"img/0766/535849cc-ff5d-4df9-8f31-0ce94a97d571.jpg\",\"img/0901/2a953e50-d237-405c-a38d-5ed21494c968.jpg\"]","trial_type":"similarity","trial_index":89,"time_elapsed":619612,"internal_node_id":"0.0-6.0-83.0"},{"sim_score":2,"rt":5141,"stimulus":"[\"img/0881/1407b85b-a1c6-45b1-9884-3b24203efadb.jpg\",\"img/0898/c3cecf20-f7fd-45fa-97d0-dc0a63e8d6c0.jpg\"]","trial_type":"similarity","trial_index":90,"time_elapsed":625766,"internal_node_id":"0.0-6.0-84.0"},{"sim_score":5,"rt":4336,"stimulus":"[\"img/0868/7b212364-ff5f-4e28-9241-7eb6ea00161b.jpg\",\"img/0860/8a92e21b-6a32-4e4a-a445-2d5a487ed0a4.jpg\"]","trial_type":"similarity","trial_index":91,"time_elapsed":631118,"internal_node_id":"0.0-6.0-85.0"},{"sim_score":6,"rt":4880,"stimulus":"[\"img/0758/53f35650-e455-4b53-8be4-c3c8271c6466.jpg\",\"img/0868/77091fc7-a590-4ebb-b915-fdb2483a2399.jpg\"]","trial_type":"similarity","trial_index":92,"time_elapsed":637005,"internal_node_id":"0.0-6.0-86.0"},{"sim_score":2,"rt":5213,"stimulus":"[\"img/0864/c3b63e8f-ea39-4d70-a1f2-b3fe4be8eb75.jpg\",\"img/0894/7fb082e0-ce79-485c-9109-04367fb32275.jpg\"]","trial_type":"similarity","trial_index":93,"time_elapsed":643236,"internal_node_id":"0.0-6.0-87.0"},{"sim_score":2,"rt":4231,"stimulus":"[\"img/0866/945c6710-d15b-4a5b-a8f6-69af0850357f.jpg\",\"img/0902/4e0baa32-988e-46f6-989d-f669225ab645.jpg\"]","trial_type":"similarity","trial_index":94,"time_elapsed":648480,"internal_node_id":"0.0-6.0-88.0"},{"sim_score":2,"rt":4958,"stimulus":"[\"img/0769/965c3c44-d9e5-47c5-b61a-2bbdf4215d9a.jpg\",\"img/0867/1719a35d-f085-48c0-9099-16c94fe418b4.jpg\"]","trial_type":"similarity","trial_index":95,"time_elapsed":654448,"internal_node_id":"0.0-6.0-89.0"},{"sim_score":6,"rt":7466,"stimulus":"[\"img/0874/adf9a8f1-c40b-402b-b95b-1e85a54a7b62.jpg\",\"img/0875/d59ff733-eaff-4ee2-9443-06954dd0bcb6.jpg\"]","trial_type":"similarity","trial_index":96,"time_elapsed":662923,"internal_node_id":"0.0-6.0-90.0"},{"sim_score":6,"rt":7499,"stimulus":"[\"img/0864/e336a4c5-6648-4fd7-b2f6-93a3fb83f8c6.jpg\",\"img/0874/c0378dac-9370-439a-8b79-db27c96fb390.jpg\"]","trial_type":"similarity","trial_index":97,"time_elapsed":671435,"internal_node_id":"0.0-6.0-91.0"},{"sim_score":5,"rt":4346,"stimulus":"[\"img/0881/2a8413be-fec2-4de6-88ad-614dd4cccc9d.jpg\",\"img/0862/fad1d7c1-8187-43c3-942a-0fc12183e48e.jpg\"]","trial_type":"similarity","trial_index":98,"time_elapsed":676790,"internal_node_id":"0.0-6.0-92.0"},{"sim_score":7,"rt":12325,"stimulus":"[\"img/0864/49150900-7f25-4ce8-8d10-9b47a71d1997.jpg\",\"img/0881/f62bdcd1-a4b7-4d48-83da-d9c9e01c8727.jpg\"]","trial_type":"similarity","trial_index":99,"time_elapsed":690125,"internal_node_id":"0.0-6.0-93.0"},{"sim_score":5,"rt":4564,"stimulus":"[\"img/0899/9de5e857-aa9a-4e0c-8ba2-46d79bd069a4.jpg\",\"img/0901/b453df0b-4c39-49bb-8ced-6127efffa898.jpg\"]","trial_type":"similarity","trial_index":100,"time_elapsed":695704,"internal_node_id":"0.0-6.0-94.0"},{"sim_score":2,"rt":3619,"stimulus":"[\"img/0874/3ce41e7c-40c8-4d58-a546-171114521796.jpg\",\"img/0766/fd064894-7147-4af5-97e9-2089d5472656.jpg\"]","trial_type":"similarity","trial_index":101,"time_elapsed":700336,"internal_node_id":"0.0-6.0-95.0"},{"sim_score":2,"rt":3432,"stimulus":"[\"img/0881/6b1189e6-232d-4042-8885-16dc7b10e0d4.jpg\",\"img/0899/4f7bc593-8ddd-4da3-a0b9-84da730d3370.jpg\"]","trial_type":"similarity","trial_index":102,"time_elapsed":704775,"internal_node_id":"0.0-6.0-96.0"},{"sim_score":2,"rt":4478,"stimulus":"[\"img/0862/ee3b7bff-4a70-4e84-9bea-4a565e456acb.jpg\",\"img/0902/31abfa33-7cdb-44ad-968e-9f7b324d577a.jpg\"]","trial_type":"similarity","trial_index":103,"time_elapsed":710263,"internal_node_id":"0.0-6.0-97.0"},{"sim_score":6,"rt":6161,"stimulus":"[\"img/0899/d60714ae-98d7-4564-8c98-94dba1351135.jpg\",\"img/0764/ca957454-126a-4bd3-b29c-7174a24c25dc.jpg\"]","trial_type":"similarity","trial_index":104,"time_elapsed":717433,"internal_node_id":"0.0-6.0-98.0"},{"sim_score":5,"rt":3421,"stimulus":"[\"img/0758/d57c2592-a317-4f63-91be-91a3a9afd222.jpg\",\"img/0862/de9ad88c-b522-430a-8ee9-eb06a9f85df5.jpg\"]","trial_type":"similarity","trial_index":105,"time_elapsed":721863,"internal_node_id":"0.0-6.0-99.0"},{"sim_score":5,"rt":6146,"stimulus":"[\"img/0764/713cc27e-2338-4486-bfe9-5f5725fbd7a0.jpg\",\"img/0898/f3a3f225-1248-4ac7-b93b-f0ff28485bf3.jpg\"]","trial_type":"similarity","trial_index":106,"time_elapsed":729020,"internal_node_id":"0.0-6.0-100.0"},{"sim_score":6,"rt":4387,"stimulus":"[\"img/0901/00acf6c1-b66e-4060-bb04-4caf29b5a8b0.jpg\",\"img/0902/b03129ba-b087-4558-af37-e8399d6217d6.jpg\"]","trial_type":"similarity","trial_index":107,"time_elapsed":734423,"internal_node_id":"0.0-6.0-101.0"},{"sim_score":2,"rt":3335,"stimulus":"[\"img/0764/c84fbfa8-521c-407a-9bd3-24f7308d896c.jpg\",\"img/0868/83b4350a-3b70-4cea-b7f5-b5b56f3050a8.jpg\"]","trial_type":"similarity","trial_index":108,"time_elapsed":738765,"internal_node_id":"0.0-6.0-102.0"},{"sim_score":2,"rt":4743,"stimulus":"[\"img/0769/387a9744-d6a7-42b8-bab8-33007ec434aa.jpg\",\"img/0881/c24f3051-eefa-42de-aba6-fccb56d93c70.jpg\"]","trial_type":"similarity","trial_index":109,"time_elapsed":744517,"internal_node_id":"0.0-6.0-103.0"},{"sim_score":2,"rt":4141,"stimulus":"[\"img/0864/8ddd2e30-a1d0-479f-9cbe-591213023893.jpg\",\"img/0769/688d0c52-ad73-4065-a5eb-f8c10d076bff.jpg\"]","trial_type":"similarity","trial_index":110,"time_elapsed":749670,"internal_node_id":"0.0-6.0-104.0"},{"sim_score":6,"rt":4652,"stimulus":"[\"img/0866/bf14b5bd-fb55-47db-86b9-4f8aeb9a6dad.jpg\",\"img/0868/d98ca254-b195-477f-b57e-5760a2717db8.jpg\"]","trial_type":"similarity","trial_index":111,"time_elapsed":755331,"internal_node_id":"0.0-6.0-105.0"},{"sim_score":6,"rt":5891,"stimulus":"[\"img/0868/1a62b2b2-18f5-466e-b564-5176a57c565e.jpg\",\"img/0862/00c06b00-3b73-44e9-bc1e-c5aafb438321.jpg\"]","trial_type":"similarity","trial_index":112,"time_elapsed":762231,"internal_node_id":"0.0-6.0-106.0"},{"sim_score":6,"rt":4478,"stimulus":"[\"img/0766/989c5c7f-1aff-4442-ac63-9d46acf4a891.jpg\",\"img/0898/4184e5a2-84ea-4f36-9b42-ae58646f6f87.jpg\"]","trial_type":"similarity","trial_index":113,"time_elapsed":767724,"internal_node_id":"0.0-6.0-107.0"},{"sim_score":2,"rt":2648,"stimulus":"[\"img/0898/82231d4c-218b-4d0a-b50d-35a49b524e97.jpg\",\"img/0864/4bd81bc6-c13d-46df-95a9-485886dc7c1b.jpg\"]","trial_type":"similarity","trial_index":114,"time_elapsed":771379,"internal_node_id":"0.0-6.0-108.0"},{"sim_score":2,"rt":4662,"stimulus":"[\"img/0868/4a8a45ed-2c4f-421b-9564-409a33ecd26c.jpg\",\"img/0902/1f4a4c62-68c1-4993-b213-05652a173ed1.jpg\"]","trial_type":"similarity","trial_index":115,"time_elapsed":777057,"internal_node_id":"0.0-6.0-109.0"},{"sim_score":7,"rt":5040,"stimulus":"[\"img/0904/5cceabc9-de1d-4c67-989b-c28a4ef77e79.jpg\",\"img/0764/f2f23359-8e82-41d3-8900-5b9f4433991d.jpg\"]","trial_type":"similarity","trial_index":116,"time_elapsed":783106,"internal_node_id":"0.0-6.0-110.0"},{"sim_score":2,"rt":4487,"stimulus":"[\"img/0894/7f2f31fd-6618-41c6-b65a-0fd8b2851bc9.jpg\",\"img/0875/03c3c331-738b-4446-af92-3d7386b08c2e.jpg\"]","trial_type":"similarity","trial_index":117,"time_elapsed":788605,"internal_node_id":"0.0-6.0-111.0"},{"sim_score":6,"rt":4871,"stimulus":"[\"img/0868/d6d1f30d-4323-435a-b194-7892521bc57e.jpg\",\"img/0874/3f471690-9788-4d03-90c7-f615aecef149.jpg\"]","trial_type":"similarity","trial_index":118,"time_elapsed":794487,"internal_node_id":"0.0-6.0-112.0"},{"sim_score":6,"rt":4450,"stimulus":"[\"img/0904/63dd06dd-dccb-47ba-9740-eb33239e18a7.jpg\",\"img/0898/881e2a85-d5c2-49be-a0c6-8a6ce2c4af08.jpg\"]","trial_type":"similarity","trial_index":119,"time_elapsed":806634,"internal_node_id":"0.0-6.0-113.0"},{"sim_score":2,"rt":3229,"stimulus":"[\"img/0860/c3379ff7-0763-48fe-a1ec-7ea3d611bc7a.jpg\",\"img/0766/09f646c8-a69e-4ed3-879c-8d29b04ad7f9.jpg\"]","trial_type":"similarity","trial_index":120,"time_elapsed":810879,"internal_node_id":"0.0-6.0-114.0"},{"sim_score":2,"rt":3882,"stimulus":"[\"img/0894/e5edf723-72a5-4673-8441-6c1734a8929b.jpg\",\"img/0874/eba003b4-cdab-4eee-8bc3-f064c7d94165.jpg\"]","trial_type":"similarity","trial_index":121,"time_elapsed":815778,"internal_node_id":"0.0-6.0-115.0"},{"sim_score":6,"rt":2931,"stimulus":"[\"img/0899/51a7a498-98c7-42d7-bca8-bc2d8f0b5831.jpg\",\"img/0903/97a42b34-5462-4665-88c7-83c014b33d24.jpg\"]","trial_type":"similarity","trial_index":122,"time_elapsed":819723,"internal_node_id":"0.0-6.0-116.0"},{"sim_score":2,"rt":3755,"stimulus":"[\"img/0881/7e31e5dc-2240-4b1b-b5a0-3acd980099ef.jpg\",\"img/0764/d7f3ac54-318a-4dac-a06b-62bed34d01a4.jpg\"]","trial_type":"similarity","trial_index":123,"time_elapsed":824486,"internal_node_id":"0.0-6.0-117.0"},{"sim_score":6,"rt":4566,"stimulus":"[\"img/0903/f1fa0f8d-e62b-4b4a-a174-31a0fabfe61b.jpg\",\"img/0769/35364db7-e0d5-40ef-93dc-faf9dfb95136.jpg\"]","trial_type":"similarity","trial_index":124,"time_elapsed":830062,"internal_node_id":"0.0-6.0-118.0"},{"sim_score":6,"rt":2750,"stimulus":"[\"img/0901/d6d15b1c-4a30-4f74-a3fd-d4c8ee4169ca.jpg\",\"img/0904/65e2b70a-b184-4da3-b5c0-5038bdf9469a.jpg\"]","trial_type":"similarity","trial_index":125,"time_elapsed":833823,"internal_node_id":"0.0-6.0-119.0"},{"sim_score":5,"rt":8075,"stimulus":"[\"img/0860/c47fdead-eb02-4989-b078-26f4852f44fe.jpg\",\"img/0881/f037e3b0-09cb-4a83-b2d9-6a71fe474e63.jpg\"]","trial_type":"similarity","trial_index":126,"time_elapsed":842912,"internal_node_id":"0.0-6.0-120.0"},{"sim_score":7,"rt":7951,"stimulus":"[\"img/0758/caa93da2-9edf-49fa-96b9-32dedd8f5078.jpg\",\"img/0874/8cdb1c07-1c32-46d2-981c-3636560fa6e5.jpg\"]","trial_type":"similarity","trial_index":127,"time_elapsed":851872,"internal_node_id":"0.0-6.0-121.0"},{"sim_score":6,"rt":4858,"stimulus":"[\"img/0901/31c032fd-3c3d-4882-a226-da9a80198937.jpg\",\"img/0769/50985283-d353-4abc-9abe-14a91d56ebe6.jpg\"]","trial_type":"similarity","trial_index":128,"time_elapsed":857740,"internal_node_id":"0.0-6.0-122.0"},{"sim_score":6,"rt":4236,"stimulus":"[\"img/0902/a323b62d-2fd5-4ac8-acc6-35b768f3c3f2.jpg\",\"img/0904/0d17b811-063e-416e-a23c-3b3cfa4fcce5.jpg\"]","trial_type":"similarity","trial_index":129,"time_elapsed":862984,"internal_node_id":"0.0-6.0-123.0"},{"sim_score":2,"rt":3433,"stimulus":"[\"img/0899/f58b8d2f-b19d-4b59-8b94-8834be92e4ba.jpg\",\"img/0864/6e846d43-94a6-4b37-a268-65eda979f052.jpg\"]","trial_type":"similarity","trial_index":130,"time_elapsed":867431,"internal_node_id":"0.0-6.0-124.0"},{"sim_score":2,"rt":4896,"stimulus":"[\"img/0766/2e1cf445-9aef-40e7-92f4-5facf48b64c5.jpg\",\"img/0868/8b0b8473-e2c0-4331-aa56-c3a5c29369da.jpg\"]","trial_type":"similarity","trial_index":131,"time_elapsed":873335,"internal_node_id":"0.0-6.0-125.0"},{"sim_score":2,"rt":5179,"stimulus":"[\"img/0764/978aede9-4590-4ad0-b234-135c83e5d669.jpg\",\"img/0864/0f537697-a314-47c3-a8cc-8df23b7e536c.jpg\"]","trial_type":"similarity","trial_index":132,"time_elapsed":879529,"internal_node_id":"0.0-6.0-126.0"},{"sim_score":2,"rt":4712,"stimulus":"[\"img/0899/0adc0bc3-6fca-4078-be6f-d45ddf1653d5.jpg\",\"img/0866/386235d2-6857-41e7-88a8-25cfc3430025.jpg\"]","trial_type":"similarity","trial_index":133,"time_elapsed":885249,"internal_node_id":"0.0-6.0-127.0"},{"sim_score":2,"rt":2978,"stimulus":"[\"img/0901/4d1bed7e-3c4e-4f6c-ada9-4beb66ba9e39.jpg\",\"img/0881/ee44e27f-d662-4608-b265-e7ffa19b216f.jpg\"]","trial_type":"similarity","trial_index":134,"time_elapsed":889235,"internal_node_id":"0.0-6.0-128.0"},{"sim_score":7,"rt":6222,"stimulus":"[\"img/0898/ec565187-2e31-4fdd-9a5c-153d0c789ae0.jpg\",\"img/0903/31b5a5f4-b695-4af1-bad2-a19650a05498.jpg\"]","trial_type":"similarity","trial_index":135,"time_elapsed":896465,"internal_node_id":"0.0-6.0-129.0"},{"sim_score":2,"rt":5401,"stimulus":"[\"img/0894/3664e04c-c6d3-4c9b-afb6-25d89974b174.jpg\",\"img/0867/de92135f-5b65-4ed9-b245-188292c7c2f8.jpg\"]","trial_type":"similarity","trial_index":136,"time_elapsed":902880,"internal_node_id":"0.0-6.0-130.0"},{"sim_score":2,"rt":5013,"stimulus":"[\"img/0874/85eb9b8a-c4c6-4e5a-b8e7-363a87a82054.jpg\",\"img/0903/470acfd5-5571-4a7b-b3a4-28d87e098138.jpg\"]","trial_type":"similarity","trial_index":137,"time_elapsed":908902,"internal_node_id":"0.0-6.0-131.0"},{"sim_score":5,"rt":6416,"stimulus":"[\"img/0899/a05bea16-2bb4-4cb9-b8fb-4ff975db6971.jpg\",\"img/0898/b3290bf9-215b-4b45-b21a-65bdf73f142f.jpg\"]","trial_type":"similarity","trial_index":138,"time_elapsed":916328,"internal_node_id":"0.0-6.0-132.0"},{"sim_score":2,"rt":4622,"stimulus":"[\"img/0867/075e0f95-856b-4cbb-acf5-092393aaf04e.jpg\",\"img/0764/55b3fab1-b809-4d38-a461-3f40ce062f52.jpg\"]","trial_type":"similarity","trial_index":139,"time_elapsed":921966,"internal_node_id":"0.0-6.0-133.0"},{"sim_score":2,"rt":4569,"stimulus":"[\"img/0866/6f2a90d7-14f1-4f1b-bd64-fc0af6b9fe44.jpg\",\"img/0769/47700831-0ca2-4fdd-a498-a3bc5a528f43.jpg\"]","trial_type":"similarity","trial_index":140,"time_elapsed":927543,"internal_node_id":"0.0-6.0-134.0"},{"sim_score":5,"rt":4477,"stimulus":"[\"img/0860/15b24a61-25be-4356-9eac-5ce95d0cb4a4.jpg\",\"img/0898/661621d4-a14e-487c-8c74-354134a29710.jpg\"]","trial_type":"similarity","trial_index":141,"time_elapsed":933033,"internal_node_id":"0.0-6.0-135.0"},{"sim_score":2,"rt":5520,"stimulus":"[\"img/0881/4bd34581-94d8-4e88-8c89-5cef864ca3be.jpg\",\"img/0903/8f7f9939-b8e6-433f-93dd-b362496c80a7.jpg\"]","trial_type":"similarity","trial_index":142,"time_elapsed":939567,"internal_node_id":"0.0-6.0-136.0"},{"sim_score":7,"rt":6452,"stimulus":"[\"img/0894/133a1636-d123-4893-873c-1718050f832a.jpg\",\"img/0766/214866ee-423d-4629-9bb9-41572bdc7dac.jpg\"]","trial_type":"similarity","trial_index":143,"time_elapsed":947027,"internal_node_id":"0.0-6.0-137.0"},{"sim_score":2,"rt":5326,"stimulus":"[\"img/0860/c5ccd1a4-4bb7-48e1-9b25-72cfaf06909b.jpg\",\"img/0764/ba0c0955-acbb-457d-b1c2-f006b88121d5.jpg\"]","trial_type":"similarity","trial_index":144,"time_elapsed":953365,"internal_node_id":"0.0-6.0-138.0"},{"sim_score":6,"rt":5040,"stimulus":"[\"img/0769/b664b502-a86c-46c1-ad6f-5ebffc2e1bd3.jpg\",\"img/0902/c920f0e1-1c81-480f-a164-c77f2dc6ce9a.jpg\"]","trial_type":"similarity","trial_index":145,"time_elapsed":959413,"internal_node_id":"0.0-6.0-139.0"},{"sim_score":6,"rt":4414,"stimulus":"[\"img/0904/60d1a521-edf7-4696-9263-f21ac0e62a01.jpg\",\"img/0903/365f176c-25a4-4973-bd3c-279bf1b39476.jpg\"]","trial_type":"similarity","trial_index":146,"time_elapsed":964838,"internal_node_id":"0.0-6.0-140.0"},{"sim_score":6,"rt":4350,"stimulus":"[\"img/0764/da207710-e7e4-4f42-b2e6-99b5f357f433.jpg\",\"img/0769/057eb0a0-aa5b-40c7-9852-21444f68d767.jpg\"]","trial_type":"similarity","trial_index":147,"time_elapsed":970202,"internal_node_id":"0.0-6.0-141.0"},{"sim_score":2,"rt":4804,"stimulus":"[\"img/0902/07437a16-3d0f-4a5c-89ec-36d0efa4b3b8.jpg\",\"img/0881/292e9b4b-fca0-4ba8-87f1-4048f9e37b7d.jpg\"]","trial_type":"similarity","trial_index":148,"time_elapsed":976013,"internal_node_id":"0.0-6.0-142.0"},{"sim_score":6,"rt":3435,"stimulus":"[\"img/0866/9b38d691-1802-4959-ab3f-fc902f0e4ea6.jpg\",\"img/0864/b3c4e378-28f0-4699-9338-2a257b4bca04.jpg\"]","trial_type":"similarity","trial_index":149,"time_elapsed":980456,"internal_node_id":"0.0-6.0-143.0"},{"sim_score":6,"rt":5212,"stimulus":"[\"img/0902/0db94c50-f1fb-4091-953c-29ca0466bee2.jpg\",\"img/0898/cd3aaa3f-efa9-4ab3-8d6f-a6a9273ddf42.jpg\"]","trial_type":"similarity","trial_index":150,"time_elapsed":986677,"internal_node_id":"0.0-6.0-144.0"},{"sim_score":5,"rt":3260,"stimulus":"[\"img/0862/47ed5efd-4ec9-4b74-bb4e-a5f5cf0c3e7d.jpg\",\"img/0864/1d15626a-2f7c-410f-819c-0fa2c967e95e.jpg\"]","trial_type":"similarity","trial_index":151,"time_elapsed":990946,"internal_node_id":"0.0-6.0-145.0"},{"sim_score":2,"rt":4685,"stimulus":"[\"img/0875/90da8d75-108a-44ad-b999-e21fee3860d3.jpg\",\"img/0898/0af304a2-6a7a-4082-ab7c-4450cd08cc58.jpg\"]","trial_type":"similarity","trial_index":152,"time_elapsed":996639,"internal_node_id":"0.0-6.0-146.0"},{"sim_score":6,"rt":4894,"stimulus":"[\"img/0874/ca23d307-fc00-4d7d-9106-584c6eb21b4d.jpg\",\"img/0881/344de456-b358-4887-bd0e-e4c3278af887.jpg\"]","trial_type":"similarity","trial_index":153,"time_elapsed":1002542,"internal_node_id":"0.0-6.0-147.0"},{"sim_score":2,"rt":3265,"stimulus":"[\"img/0758/d540bee6-b460-4c32-ac57-bc282742d7d4.jpg\",\"img/0894/2217bdcd-23a7-42d3-823b-23f2488d7e87.jpg\"]","trial_type":"similarity","trial_index":154,"time_elapsed":1006820,"internal_node_id":"0.0-6.0-148.0"},{"sim_score":2,"rt":5353,"stimulus":"[\"img/0904/25365108-e038-4021-aac9-797f2063b337.jpg\",\"img/0864/9b2490c5-a282-400a-9736-e1a0ecbf1cb7.jpg\"]","trial_type":"similarity","trial_index":155,"time_elapsed":1013181,"internal_node_id":"0.0-6.0-149.0"},{"sim_score":7,"rt":8570,"stimulus":"[\"img/0769/4680bcc3-8fbc-4643-8f9a-12aa0e780b64.jpg\",\"img/0899/66bf4113-ee12-426c-84d2-ea410b6c803e.jpg\"]","trial_type":"similarity","trial_index":156,"time_elapsed":1022759,"internal_node_id":"0.0-6.0-150.0"},{"sim_score":6,"rt":6159,"stimulus":"[\"img/0764/c0b03adb-bd0a-4b96-a915-a827c2fd5211.jpg\",\"img/0903/2c7b4aed-6038-4aac-958a-e3e58341c313.jpg\"]","trial_type":"similarity","trial_index":157,"time_elapsed":1034227,"internal_node_id":"0.0-6.0-151.0"},{"sim_score":2,"rt":4726,"stimulus":"[\"img/0903/b0df4094-a3be-4b5b-81bd-8d260f13f61b.jpg\",\"img/0864/afcba0a3-7e27-4757-b254-e9f05fad27e2.jpg\"]","trial_type":"similarity","trial_index":158,"time_elapsed":1039962,"internal_node_id":"0.0-6.0-152.0"},{"sim_score":2,"rt":3796,"stimulus":"[\"img/0894/38f5931f-926d-414e-b498-66b188978b7a.jpg\",\"img/0881/445edb15-bd7f-4af3-8bd5-c6ad9677bb31.jpg\"]","trial_type":"similarity","trial_index":159,"time_elapsed":1044767,"internal_node_id":"0.0-6.0-153.0"},{"sim_score":6,"rt":2769,"stimulus":"[\"img/0875/cff79b3a-a797-4393-9757-6275f999ec04.jpg\",\"img/0867/179ab87a-8eac-4c52-a41f-2e48e3120f09.jpg\"]","trial_type":"similarity","trial_index":160,"time_elapsed":1048544,"internal_node_id":"0.0-6.0-154.0"},{"sim_score":6,"rt":3407,"stimulus":"[\"img/0867/26611f4e-d694-4460-b7e2-43c62753ddc3.jpg\",\"img/0758/7ffbc76b-1fc1-432c-8f7e-9ec8d1b3f643.jpg\"]","trial_type":"similarity","trial_index":161,"time_elapsed":1052959,"internal_node_id":"0.0-6.0-155.0"},{"sim_score":2,"rt":4090,"stimulus":"[\"img/0868/5fa7f9d0-f0e5-454c-8224-74d964818f56.jpg\",\"img/0901/1ede21d9-384f-4150-86b5-e1c57b5dc1d4.jpg\"]","trial_type":"similarity","trial_index":162,"time_elapsed":1058058,"internal_node_id":"0.0-6.0-156.0"},{"sim_score":7,"rt":4994,"stimulus":"[\"img/0769/aad494cc-674d-4a08-9bfa-24a88ebe3c79.jpg\",\"img/0894/b2d2f66e-e480-46da-a02a-6d0c6b285d78.jpg\"]","trial_type":"similarity","trial_index":163,"time_elapsed":1064062,"internal_node_id":"0.0-6.0-157.0"},{"sim_score":2,"rt":4979,"stimulus":"[\"img/0904/9d30eff1-46ef-4453-b11e-124ef8145c00.jpg\",\"img/0758/d41c06bf-ebaf-454b-91c6-1a17f917b659.jpg\"]","trial_type":"similarity","trial_index":164,"time_elapsed":1070050,"internal_node_id":"0.0-6.0-158.0"},{"sim_score":2,"rt":3253,"stimulus":"[\"img/0874/99f6563c-8a8d-4c1c-a41d-667b618c3fd5.jpg\",\"img/0904/0d25eb24-bb20-4e8d-9787-8b489558b4cb.jpg\"]","trial_type":"similarity","trial_index":165,"time_elapsed":1074312,"internal_node_id":"0.0-6.0-159.0"},{"sim_score":2,"rt":2992,"stimulus":"[\"img/0864/3651d070-2fc5-4848-b6a6-088a2d9ac5c9.jpg\",\"img/0901/a2d7b2f6-396b-4d91-8403-de5361c74af7.jpg\"]","trial_type":"similarity","trial_index":166,"time_elapsed":1078312,"internal_node_id":"0.0-6.0-160.0"},{"sim_score":2,"rt":2848,"stimulus":"[\"img/0898/b2732712-71c2-45d8-834f-2b2ed5504910.jpg\",\"img/0866/4a87911a-d5be-4d4e-ab8e-3d1f581bf507.jpg\"]","trial_type":"similarity","trial_index":167,"time_elapsed":1082170,"internal_node_id":"0.0-6.0-161.0"},{"sim_score":7,"rt":5191,"stimulus":"[\"img/0766/91fc8c4d-862f-4d2b-b1a1-2db8d729b6b7.jpg\",\"img/0903/b0a3c45f-467e-412f-a183-c9c1827f2e63.jpg\"]","trial_type":"similarity","trial_index":168,"time_elapsed":1088375,"internal_node_id":"0.0-6.0-162.0"},{"sim_score":2,"rt":4881,"stimulus":"[\"img/0860/d9a0d117-6d1d-41c0-8fec-9aff0fd9e9f2.jpg\",\"img/0899/4408c14d-c168-4a7d-96f6-bc87bfb58f83.jpg\"]","trial_type":"similarity","trial_index":169,"time_elapsed":1094264,"internal_node_id":"0.0-6.0-163.0"},{"sim_score":1,"rt":4864,"stimulus":"[\"img/0766/6d32752d-aa05-40dc-9541-640b6e9d6fa1.jpg\",\"img/0862/92f0146c-20c4-482e-aef5-adb693790338.jpg\"]","trial_type":"similarity","trial_index":170,"time_elapsed":1100143,"internal_node_id":"0.0-6.0-164.0"},{"sim_score":5,"rt":5668,"stimulus":"[\"img/0898/993d8f2d-bef7-4251-a193-0f93a32b7763.jpg\",\"img/0894/a98416c0-51e2-4960-85da-d81d8688b9d5.jpg\"]","trial_type":"similarity","trial_index":171,"time_elapsed":1106819,"internal_node_id":"0.0-6.0-165.0"},{"sim_score":2,"rt":3341,"stimulus":"[\"img/0867/85a96c62-548f-4994-9553-819e03c3135a.jpg\",\"img/0766/b84598d0-5b41-4841-88b0-b441b48289f5.jpg\"]","trial_type":"similarity","trial_index":172,"time_elapsed":1111170,"internal_node_id":"0.0-6.0-166.0"},{"sim_score":1,"rt":6162,"stimulus":"[\"img/0904/d23dd7be-7fe8-4435-82f7-bd592c01e6a1.jpg\",\"img/0862/f43ceabf-acc1-4107-b857-5d1849808f93.jpg\"]","trial_type":"similarity","trial_index":173,"time_elapsed":1118345,"internal_node_id":"0.0-6.0-167.0"},{"sim_score":6,"rt":7950,"stimulus":"[\"img/0866/d493a2c8-66eb-44b4-be02-2f327b700b7c.jpg\",\"img/0874/995f0332-0439-4eb4-add3-957335dbf6d9.jpg\"]","trial_type":"similarity","trial_index":174,"time_elapsed":1127304,"internal_node_id":"0.0-6.0-168.0"},{"sim_score":4,"rt":5977,"stimulus":"[\"img/0903/6a87dbad-9b8d-4ff5-9c41-03c9aa24f0c3.jpg\",\"img/0868/c8ac40c7-6904-4e13-8d61-c75d3052dc4e.jpg\"]","trial_type":"similarity","trial_index":175,"time_elapsed":1134298,"internal_node_id":"0.0-6.0-169.0"},{"sim_score":6,"rt":3249,"stimulus":"[\"img/0769/4a1d0b52-3fe8-40fb-bb1c-c814fe49a68c.jpg\",\"img/0904/4d7d70a3-9477-4921-bda0-f9531d0a5c5b.jpg\"]","trial_type":"similarity","trial_index":176,"time_elapsed":1138560,"internal_node_id":"0.0-6.0-170.0"},{"sim_score":2,"rt":4437,"stimulus":"[\"img/0875/fb732ab5-013a-4366-9f65-27811ed157e9.jpg\",\"img/0764/6ef77040-1fae-4afa-bfe7-eda98e6d0376.jpg\"]","trial_type":"similarity","trial_index":177,"time_elapsed":1144009,"internal_node_id":"0.0-6.0-171.0"},{"sim_score":2,"rt":4236,"stimulus":"[\"img/0860/29a21a9f-54bb-4093-ad3f-04823ceaa89f.jpg\",\"img/0903/a0673b55-6040-47fe-9040-24bca27ca3c9.jpg\"]","trial_type":"similarity","trial_index":178,"time_elapsed":1149255,"internal_node_id":"0.0-6.0-172.0"},{"sim_score":6,"rt":5824,"stimulus":"[\"img/0864/66091c27-e588-4476-8af9-265dc6be4156.jpg\",\"img/0867/50a1b60e-3a29-44bf-b606-d4bd3746fea9.jpg\"]","trial_type":"similarity","trial_index":179,"time_elapsed":1156095,"internal_node_id":"0.0-6.0-173.0"},{"sim_score":6,"rt":4079,"stimulus":"[\"img/0868/3a62db2d-97e9-44a3-b8e3-a48c6f0e423b.jpg\",\"img/0864/c22faebd-9c53-47bc-ada3-b9a30c688e75.jpg\"]","trial_type":"similarity","trial_index":180,"time_elapsed":1161184,"internal_node_id":"0.0-6.0-174.0"},{"sim_score":6,"rt":4880,"stimulus":"[\"img/0898/a8f16b02-e19f-423b-86c3-a36562ae1f9b.jpg\",\"img/0769/180213e5-1e50-4b4e-87b6-add77ba04d39.jpg\"]","trial_type":"similarity","trial_index":181,"time_elapsed":1167076,"internal_node_id":"0.0-6.0-175.0"},{"sim_score":7,"rt":4255,"stimulus":"[\"img/0766/006035d8-c736-4daf-bbe4-a9e373af9da6.jpg\",\"img/0764/29072395-f595-4e3c-83d3-ff87010039fa.jpg\"]","trial_type":"similarity","trial_index":182,"time_elapsed":1172350,"internal_node_id":"0.0-6.0-176.0"},{"sim_score":2,"rt":4884,"stimulus":"[\"img/0764/8389e74f-e0e0-435d-945f-da1f4c92ccb6.jpg\",\"img/0866/11a1d141-be5e-443c-98c1-a9d4d9e3dec0.jpg\"]","trial_type":"similarity","trial_index":183,"time_elapsed":1178247,"internal_node_id":"0.0-6.0-177.0"},{"sim_score":2,"rt":4051,"stimulus":"[\"img/0902/ca3160ba-ad5d-459f-a1b6-8b4f3c85ecd5.jpg\",\"img/0875/2c361b79-c3d1-4eda-812e-bf03192407bf.jpg\"]","trial_type":"similarity","trial_index":184,"time_elapsed":1183307,"internal_node_id":"0.0-6.0-178.0"},{"sim_score":2,"rt":2988,"stimulus":"[\"img/0881/33d65d80-8a8e-4ecf-852d-0ad7725c17a2.jpg\",\"img/0904/e9423a8c-f946-43ad-ab7b-931acef870e2.jpg\"]","trial_type":"similarity","trial_index":185,"time_elapsed":1187303,"internal_node_id":"0.0-6.0-179.0"},{"sim_score":6,"rt":4183,"stimulus":"[\"img/0874/1016b306-087c-4afc-aa08-fa527b28dc76.jpg\",\"img/0860/8fdba999-b946-4c7d-9891-336018b563ef.jpg\"]","trial_type":"similarity","trial_index":186,"time_elapsed":1192501,"internal_node_id":"0.0-6.0-180.0"},{"sim_score":2,"rt":3994,"stimulus":"[\"img/0769/8598a429-c671-4d2f-842c-32f681f5e412.jpg\",\"img/0874/bf14b896-e930-4fd9-9c05-2e83317a2773.jpg\"]","trial_type":"similarity","trial_index":187,"time_elapsed":1197503,"internal_node_id":"0.0-6.0-181.0"},{"sim_score":6,"rt":4654,"stimulus":"[\"img/0904/5aec2708-cf14-4a58-aa30-9a8a61c1be0e.jpg\",\"img/0766/d512b99c-a2dc-40d7-8e86-827323a0cbcf.jpg\"]","trial_type":"similarity","trial_index":188,"time_elapsed":1203165,"internal_node_id":"0.0-6.0-182.0"},{"sim_score":6,"rt":4750,"stimulus":"[\"img/0902/bd89a85f-3853-4786-acd6-98818ee29f1c.jpg\",\"img/0764/a86eed5b-d0af-4c3f-8c7a-26e98e98cf1a.jpg\"]","trial_type":"similarity","trial_index":189,"time_elapsed":1208923,"internal_node_id":"0.0-6.0-183.0"},{"sim_score":2,"rt":3965,"stimulus":"[\"img/0769/da36e3f7-2337-434f-ab57-11822dd7eed7.jpg\",\"img/0875/a4935837-7d3c-4df6-88c1-36a94d4991ca.jpg\"]","trial_type":"similarity","trial_index":190,"time_elapsed":1213898,"internal_node_id":"0.0-6.0-184.0"},{"sim_score":2,"rt":3904,"stimulus":"[\"img/0867/5e07b34d-b40f-4b1c-ac10-49975bace45f.jpg\",\"img/0903/8635cf25-2648-4fe9-8c42-79d2598e999c.jpg\"]","trial_type":"similarity","trial_index":191,"time_elapsed":1218813,"internal_node_id":"0.0-6.0-185.0"},{"sim_score":1,"rt":4504,"stimulus":"[\"img/0862/064818ee-13d5-4618-bb24-21c7368ea278.jpg\",\"img/0769/5bd04f55-d091-4f57-85db-38426f26bd1a.jpg\"]","trial_type":"similarity","trial_index":192,"time_elapsed":1224333,"internal_node_id":"0.0-6.0-186.0"},{"sim_score":2,"rt":4004,"stimulus":"[\"img/0766/51d3aab4-3d09-4dda-b99d-3dc7aaabc6f2.jpg\",\"img/0866/620cd1aa-0800-4414-8f6e-90342e7a99ad.jpg\"]","trial_type":"similarity","trial_index":193,"time_elapsed":1229352,"internal_node_id":"0.0-6.0-187.0"},{"sim_score":1,"rt":5381,"stimulus":"[\"img/0769/f229321f-04dd-42d7-b14a-ffad6b509862.jpg\",\"img/0860/4a022222-056d-461c-ab02-39fac9647552.jpg\"]","trial_type":"similarity","trial_index":194,"time_elapsed":1235741,"internal_node_id":"0.0-6.0-188.0"},{"sim_score":6,"rt":4361,"stimulus":"[\"img/0881/609a5e93-38b5-4940-8627-2bf8fad7f802.jpg\",\"img/0868/09a9ef4d-d000-4cfa-a6aa-ebec7c2edeb4.jpg\"]","trial_type":"similarity","trial_index":195,"time_elapsed":1245511,"internal_node_id":"0.0-6.0-189.0"},{"view_history":"[{\"page_index\":0,\"viewing_time\":8027}]","rt":8028,"trial_type":"instructions","trial_index":196,"time_elapsed":1254540,"internal_node_id":"0.0-7.0"},{"rt":10685,"responses":"{\"Q0\":\"Nashville Warbler\"}","answer":["Nashville Warbler"],"trial_type":"image-multi-choice","trial_index":197,"time_elapsed":1266275,"internal_node_id":"0.0-8.0-0.0"},{"rt":8342,"responses":"{\"Q0\":\"Black-and-white Warbler\"}","answer":["Black-and-white Warbler"],"trial_type":"image-multi-choice","trial_index":198,"time_elapsed":1275650,"internal_node_id":"0.0-8.0-1.0"},{"rt":21932,"responses":"{\"Q0\":\"Blackburnian Warbler\"}","answer":["Townsend's Warbler"],"trial_type":"image-multi-choice","trial_index":199,"time_elapsed":1298610,"internal_node_id":"0.0-8.0-2.0"},{"rt":6422,"responses":"{\"Q0\":\"Lark Sparrow\"}","answer":["Lark Sparrow"],"trial_type":"image-multi-choice","trial_index":200,"time_elapsed":1306058,"internal_node_id":"0.0-8.0-3.0"},{"rt":8225,"responses":"{\"Q0\":\"Yellow Warbler\"}","answer":["Yellow Warbler"],"trial_type":"image-multi-choice","trial_index":201,"time_elapsed":1315312,"internal_node_id":"0.0-8.0-4.0"},{"rt":5991,"responses":"{\"Q0\":\"Orange-crowned Warbler\"}","answer":["Orange-crowned Warbler"],"trial_type":"image-multi-choice","trial_index":202,"time_elapsed":1322327,"internal_node_id":"0.0-8.0-5.0"},{"rt":11866,"responses":"{\"Q0\":\"White-throated Sparrow\"}","answer":["White-throated Sparrow"],"trial_type":"image-multi-choice","trial_index":203,"time_elapsed":1335218,"internal_node_id":"0.0-8.0-6.0"},{"rt":4937,"responses":"{\"Q0\":\"Fox Sparrow\"}","answer":["Fox Sparrow"],"trial_type":"image-multi-choice","trial_index":204,"time_elapsed":1341181,"internal_node_id":"0.0-8.0-7.0"},{"rt":29999,"responses":"{\"Q0\":\"Lincoln's Sparrow\"}","answer":["Song Sparrow"],"trial_type":"image-multi-choice","trial_index":205,"time_elapsed":1372204,"internal_node_id":"0.0-8.0-8.0"},{"rt":6684,"responses":"{\"Q0\":\"Townsend's Warbler\"}","answer":["Blackburnian Warbler"],"trial_type":"image-multi-choice","trial_index":206,"time_elapsed":1379915,"internal_node_id":"0.0-8.0-9.0"},{"rt":10404,"responses":"{\"Q0\":\"Vesper Sparrow\"}","answer":["Vesper Sparrow"],"trial_type":"image-multi-choice","trial_index":207,"time_elapsed":1391347,"internal_node_id":"0.0-8.0-10.0"},{"rt":3506,"responses":"{\"Q0\":\"White-crowned Sparrow\"}","answer":["White-crowned Sparrow"],"trial_type":"image-multi-choice","trial_index":208,"time_elapsed":1395880,"internal_node_id":"0.0-8.0-11.0"},{"rt":11087,"responses":"{\"Q0\":\"American Tree Sparrow\"}","answer":["American Tree Sparrow"],"trial_type":"image-multi-choice","trial_index":209,"time_elapsed":1407997,"internal_node_id":"0.0-8.0-12.0"},{"rt":29498,"responses":"{\"Q0\":\"Tennessee Warbler\"}","answer":["Tennessee Warbler"],"trial_type":"image-multi-choice","trial_index":210,"time_elapsed":1438529,"internal_node_id":"0.0-8.0-13.0"},{"rt":17392,"responses":"{\"Q0\":\"Magnolia Warbler\"}","answer":["Magnolia Warbler"],"trial_type":"image-multi-choice","trial_index":211,"time_elapsed":1456950,"internal_node_id":"0.0-8.0-14.0"},{"rt":3904,"responses":"{\"Q0\":\"Northern Waterthrush\"}","answer":["Northern Waterthrush"],"trial_type":"image-multi-choice","trial_index":212,"time_elapsed":1461894,"internal_node_id":"0.0-8.0-15.0"},{"rt":16859,"responses":"{\"Q0\":\"Swamp Sparrow\"}","answer":["Chipping Sparrow"],"trial_type":"image-multi-choice","trial_index":213,"time_elapsed":1479782,"internal_node_id":"0.0-8.0-16.0"},{"rt":10140,"responses":"{\"Q0\":\"Chipping Sparrow\"}","answer":["Swamp Sparrow"],"trial_type":"image-multi-choice","trial_index":214,"time_elapsed":1490957,"internal_node_id":"0.0-8.0-17.0"},{"rt":11549,"responses":"{\"Q0\":\"Song Sparrow\"}","answer":["Lincoln's Sparrow"],"trial_type":"image-multi-choice","trial_index":215,"time_elapsed":1503538,"internal_node_id":"0.0-8.0-18.0"},{"rt":3738,"responses":"{\"Q0\":\"Ovenbird\"}","answer":["Ovenbird"],"trial_type":"image-multi-choice","trial_index":216,"time_elapsed":1508314,"internal_node_id":"0.0-8.0-19.0"}]