[{"view_history":"[{\"page_index\":0,\"viewing_time\":29345}]","rt":29346,"trial_type":"instructions","trial_index":0,"time_elapsed":29350,"internal_node_id":"0.0-0.0"},{"sim_score":7,"rt":6816,"stimulus":"[\"img/bluejay1.jpg\",\"img/bluejay2.jpg\"]","trial_type":"similarity_demo","trial_index":1,"time_elapsed":37192,"internal_node_id":"0.0-1.0"},{"view_history":"[{\"page_index\":0,\"viewing_time\":10150}]","rt":10150,"trial_type":"instructions","trial_index":2,"time_elapsed":48354,"internal_node_id":"0.0-2.0"},{"sim_score":5,"rt":6890,"stimulus":"[\"img/bluejay1.jpg\",\"img/cardinal1.jpg\"]","trial_type":"similarity_demo","trial_index":3,"time_elapsed":56260,"internal_node_id":"0.0-3.0"},{"view_history":"[{\"page_index\":0,\"viewing_time\":5176}]","rt":5177,"trial_type":"instructions","trial_index":4,"time_elapsed":62444,"internal_node_id":"0.0-4.0"},{"view_history":"[{\"page_index\":0,\"viewing_time\":47084}]","rt":47084,"trial_type":"instructions","trial_index":5,"time_elapsed":110537,"internal_node_id":"0.0-5.0"},{"sim_score":2,"rt":7201,"stimulus":"[\"img/0868/3a62db2d-97e9-44a3-b8e3-a48c6f0e423b.jpg\",\"img/0894/5ff3c4f6-52e2-4075-8679-be0312e59703.jpg\"]","trial_type":"similarity","trial_index":6,"time_elapsed":118755,"internal_node_id":"0.0-6.0-0.0"},{"sim_score":1,"rt":3978,"stimulus":"[\"img/0898/b3290bf9-215b-4b45-b21a-65bdf73f142f.jpg\",\"img/0758/eabcd7a8-56ad-4fd2-bc24-90f6b7b33265.jpg\"]","trial_type":"similarity","trial_index":7,"time_elapsed":123754,"internal_node_id":"0.0-6.0-1.0"},{"sim_score":6,"rt":4939,"stimulus":"[\"img/0903/8fcafe03-43df-4c45-9da5-0df3a1eeccc5.jpg\",\"img/0894/e6385e52-6c35-43bd-b0af-bc803d107b11.jpg\"]","trial_type":"similarity","trial_index":8,"time_elapsed":129723,"internal_node_id":"0.0-6.0-2.0"},{"sim_score":3,"rt":4130,"stimulus":"[\"img/0881/54ea8e77-c7e5-4197-b7fa-00b7020849a7.jpg\",\"img/0766/a0270213-fa0e-4972-8b56-228c3e01ff90.jpg\"]","trial_type":"similarity","trial_index":9,"time_elapsed":134867,"internal_node_id":"0.0-6.0-3.0"},{"sim_score":3,"rt":4164,"stimulus":"[\"img/0864/ef9cbca0-4be8-435d-ad49-977259e80409.jpg\",\"img/0860/8277806e-b684-4474-8f7b-3fca946d7d4f.jpg\"]","trial_type":"similarity","trial_index":10,"time_elapsed":140045,"internal_node_id":"0.0-6.0-4.0"},{"sim_score":5,"rt":5656,"stimulus":"[\"img/0902/6c2c243a-f663-45db-baf5-038d3d58c589.jpg\",\"img/0899/4408c14d-c168-4a7d-96f6-bc87bfb58f83.jpg\"]","trial_type":"similarity","trial_index":11,"time_elapsed":146718,"internal_node_id":"0.0-6.0-5.0"},{"sim_score":2,"rt":3957,"stimulus":"[\"img/0868/4bd5105a-d2c3-4f82-8c80-57196106ba53.jpg\",\"img/0769/057eb0a0-aa5b-40c7-9852-21444f68d767.jpg\"]","trial_type":"similarity","trial_index":12,"time_elapsed":151688,"internal_node_id":"0.0-6.0-6.0"},{"sim_score":3,"rt":4924,"stimulus":"[\"img/0764/5c8fbafc-e62e-43ed-9b37-f73e8e45147d.jpg\",\"img/0901/c6c877e0-dd63-4e00-9657-33af29d55aab.jpg\"]","trial_type":"similarity","trial_index":13,"time_elapsed":157632,"internal_node_id":"0.0-6.0-7.0"},{"sim_score":3,"rt":4282,"stimulus":"[\"img/0881/c843e210-bdfe-4a7c-8bbe-fcea1f90fe1c.jpg\",\"img/0866/93a27239-8317-4e08-98ca-d8b1ff298e07.jpg\"]","trial_type":"similarity","trial_index":14,"time_elapsed":162930,"internal_node_id":"0.0-6.0-8.0"},{"sim_score":1,"rt":2927,"stimulus":"[\"img/0867/ac1797e4-8afc-48fe-b252-86d1defb1cca.jpg\",\"img/0899/a05bea16-2bb4-4cb9-b8fb-4ff975db6971.jpg\"]","trial_type":"similarity","trial_index":15,"time_elapsed":166882,"internal_node_id":"0.0-6.0-9.0"},{"sim_score":1,"rt":3500,"stimulus":"[\"img/0875/ebf7653f-ff45-4e9f-af58-2c042ab3cd2b.jpg\",\"img/0766/ba35c0fc-4d5b-490d-959e-c94b279cdd02.jpg\"]","trial_type":"similarity","trial_index":16,"time_elapsed":171395,"internal_node_id":"0.0-6.0-10.0"},{"sim_score":3,"rt":3355,"stimulus":"[\"img/0901/a6c90438-fa7c-4418-ac7c-16c2e772dd98.jpg\",\"img/0875/527ced51-8e53-4aab-ab05-86df219104c0.jpg\"]","trial_type":"similarity","trial_index":17,"time_elapsed":175771,"internal_node_id":"0.0-6.0-11.0"},{"sim_score":5,"rt":4009,"stimulus":"[\"img/0902/b03fee99-d5ca-4bf8-871c-a4a743a39842.jpg\",\"img/0860/8a92e21b-6a32-4e4a-a445-2d5a487ed0a4.jpg\"]","trial_type":"similarity","trial_index":18,"time_elapsed":180805,"internal_node_id":"0.0-6.0-12.0"},{"sim_score":1,"rt":3500,"stimulus":"[\"img/0874/99f6563c-8a8d-4c1c-a41d-667b618c3fd5.jpg\",\"img/0867/f8159067-056c-41f1-a136-c529fe5e970a.jpg\"]","trial_type":"similarity","trial_index":19,"time_elapsed":185319,"internal_node_id":"0.0-6.0-13.0"},{"sim_score":3,"rt":5308,"stimulus":"[\"img/0904/d23dd7be-7fe8-4435-82f7-bd592c01e6a1.jpg\",\"img/0866/bf14b5bd-fb55-47db-86b9-4f8aeb9a6dad.jpg\"]","trial_type":"similarity","trial_index":20,"time_elapsed":191636,"internal_node_id":"0.0-6.0-14.0"},{"sim_score":3,"rt":3167,"stimulus":"[\"img/0758/20497cbe-ddae-489e-86e2-ab06985ed07c.jpg\",\"img/0902/27b84584-948a-485b-8749-cb09929ef631.jpg\"]","trial_type":"similarity","trial_index":21,"time_elapsed":195809,"internal_node_id":"0.0-6.0-15.0"},{"sim_score":2,"rt":3387,"stimulus":"[\"img/0867/a498eef3-9fa4-4ab2-9778-4ae82ac40dc5.jpg\",\"img/0898/40f99fb2-64d2-4e72-8a7f-a1cf60741e69.jpg\"]","trial_type":"similarity","trial_index":22,"time_elapsed":200217,"internal_node_id":"0.0-6.0-16.0"},{"sim_score":2,"rt":3523,"stimulus":"[\"img/0904/5aec2708-cf14-4a58-aa30-9a8a61c1be0e.jpg\",\"img/0868/179a5502-ab5c-478e-8263-5a1fbcc101d2.jpg\"]","trial_type":"similarity","trial_index":23,"time_elapsed":204750,"internal_node_id":"0.0-6.0-17.0"},{"sim_score":3,"rt":3662,"stimulus":"[\"img/0766/51d3aab4-3d09-4dda-b99d-3dc7aaabc6f2.jpg\",\"img/0864/e8bd659f-aa43-4748-877e-3118e8b4e189.jpg\"]","trial_type":"similarity","trial_index":24,"time_elapsed":209434,"internal_node_id":"0.0-6.0-18.0"},{"sim_score":6,"rt":3932,"stimulus":"[\"img/0899/06b0fc99-0581-461a-9913-d1a5a941ac61.jpg\",\"img/0766/75c3d627-4f3b-40d5-9d9c-10c8a62db644.jpg\"]","trial_type":"similarity","trial_index":25,"time_elapsed":214387,"internal_node_id":"0.0-6.0-19.0"},{"sim_score":3,"rt":8007,"stimulus":"[\"img/0764/d0bef2e0-e16b-4c82-9451-c1d16265eb67.jpg\",\"img/0758/65d426d6-3ff6-415d-8654-a43b83ecc4fe.jpg\"]","trial_type":"similarity","trial_index":26,"time_elapsed":223413,"internal_node_id":"0.0-6.0-20.0"},{"sim_score":3,"rt":4096,"stimulus":"[\"img/0901/7c16dd9c-44ad-4d5b-990c-6a0b9b48b1b1.jpg\",\"img/0874/bf14b896-e930-4fd9-9c05-2e83317a2773.jpg\"]","trial_type":"similarity","trial_index":27,"time_elapsed":228515,"internal_node_id":"0.0-6.0-21.0"},{"sim_score":2,"rt":3255,"stimulus":"[\"img/0875/3ecb367d-e9eb-4826-8aaa-7aa72fb98019.jpg\",\"img/0758/821c68d3-5cb0-4eae-8659-30e6263fca39.jpg\"]","trial_type":"similarity","trial_index":28,"time_elapsed":232788,"internal_node_id":"0.0-6.0-22.0"},{"sim_score":2,"rt":3379,"stimulus":"[\"img/0867/179ab87a-8eac-4c52-a41f-2e48e3120f09.jpg\",\"img/0881/1407b85b-a1c6-45b1-9884-3b24203efadb.jpg\"]","trial_type":"similarity","trial_index":29,"time_elapsed":237189,"internal_node_id":"0.0-6.0-23.0"},{"sim_score":2,"rt":3337,"stimulus":"[\"img/0758/f61ecdf8-a7d4-4db0-b84d-be46f7cfaffc.jpg\",\"img/0901/bc47e078-bda4-40ed-b89a-bbd819164b95.jpg\"]","trial_type":"similarity","trial_index":30,"time_elapsed":241545,"internal_node_id":"0.0-6.0-24.0"},{"sim_score":5,"rt":4128,"stimulus":"[\"img/0868/e0aff734-077f-40dd-9781-74821abd3621.jpg\",\"img/0875/03c3c331-738b-4446-af92-3d7386b08c2e.jpg\"]","trial_type":"similarity","trial_index":31,"time_elapsed":246689,"internal_node_id":"0.0-6.0-25.0"},{"sim_score":5,"rt":4250,"stimulus":"[\"img/0903/12bd8657-92e6-4c36-a06c-597e7a1d51f3.jpg\",\"img/0901/233a6948-48eb-4b67-8259-222b916b2322.jpg\"]","trial_type":"similarity","trial_index":32,"time_elapsed":251952,"internal_node_id":"0.0-6.0-26.0"},{"sim_score":5,"rt":3002,"stimulus":"[\"img/0894/5f15154e-e72e-4ce5-aafb-bce6f0564006.jpg\",\"img/0899/57476fed-5962-4272-8fc9-b317bb777b54.jpg\"]","trial_type":"similarity","trial_index":33,"time_elapsed":255969,"internal_node_id":"0.0-6.0-27.0"},{"sim_score":2,"rt":3305,"stimulus":"[\"img/0862/7918ca67-5bd3-4606-a5ea-c39fb11a9297.jpg\",\"img/0867/aa05d113-fc19-4756-a8eb-7878f580bc92.jpg\"]","trial_type":"similarity","trial_index":34,"time_elapsed":260291,"internal_node_id":"0.0-6.0-28.0"},{"sim_score":2,"rt":3121,"stimulus":"[\"img/0864/e02eddb5-f468-499c-91bf-f7be3ffe979b.jpg\",\"img/0875/90da8d75-108a-44ad-b999-e21fee3860d3.jpg\"]","trial_type":"similarity","trial_index":35,"time_elapsed":264422,"internal_node_id":"0.0-6.0-29.0"},{"sim_score":3,"rt":3384,"stimulus":"[\"img/0862/e8cc3bdf-cc43-4565-bccf-492626c70953.jpg\",\"img/0874/3ce41e7c-40c8-4d58-a546-171114521796.jpg\"]","trial_type":"similarity","trial_index":36,"time_elapsed":268816,"internal_node_id":"0.0-6.0-30.0"},{"sim_score":3,"rt":2962,"stimulus":"[\"img/0903/47e39de8-6959-469f-8be9-6999a6db207c.jpg\",\"img/0758/dd559618-7f09-4a07-8018-d311c4a5ea29.jpg\"]","trial_type":"similarity","trial_index":37,"time_elapsed":272800,"internal_node_id":"0.0-6.0-31.0"},{"sim_score":2,"rt":3761,"stimulus":"[\"img/0866/8efcaa46-83ab-4dee-a35f-850402aa21ae.jpg\",\"img/0901/58978a6d-a3e2-4c59-8d62-f60693ecc0f6.jpg\"]","trial_type":"similarity","trial_index":38,"time_elapsed":277569,"internal_node_id":"0.0-6.0-32.0"},{"sim_score":3,"rt":4321,"stimulus":"[\"img/0874/1016b306-087c-4afc-aa08-fa527b28dc76.jpg\",\"img/0899/d8f2dd94-570e-4e8c-a087-d96090fb9e8c.jpg\"]","trial_type":"similarity","trial_index":39,"time_elapsed":282905,"internal_node_id":"0.0-6.0-33.0"},{"sim_score":5,"rt":3211,"stimulus":"[\"img/0903/36e4ab1f-caa9-40b3-8616-faada076df94.jpg\",\"img/0902/d5e25767-e8ec-45f3-ac0a-7b4a6f7a9edc.jpg\"]","trial_type":"similarity","trial_index":40,"time_elapsed":287129,"internal_node_id":"0.0-6.0-34.0"},{"sim_score":2,"rt":2977,"stimulus":"[\"img/0758/e1ba5e53-addc-436a-b428-d34fc1b130dc.jpg\",\"img/0866/f756f7d1-9ad8-4a34-9ef6-7a443d705bfe.jpg\"]","trial_type":"similarity","trial_index":41,"time_elapsed":291122,"internal_node_id":"0.0-6.0-35.0"},{"sim_score":3,"rt":3188,"stimulus":"[\"img/0875/5a1e5100-0d94-4fec-bbe9-ca9894d2cf8e.jpg\",\"img/0903/e2e55a9e-0397-4dc0-8adf-4a54cfefe1fe.jpg\"]","trial_type":"similarity","trial_index":42,"time_elapsed":295324,"internal_node_id":"0.0-6.0-36.0"},{"sim_score":3,"rt":2782,"stimulus":"[\"img/0864/a248adb3-c70b-4652-b7a3-776d2a1e904b.jpg\",\"img/0902/a6fb6dd5-696c-47ec-be7d-d7b88f1544f1.jpg\"]","trial_type":"similarity","trial_index":43,"time_elapsed":305836,"internal_node_id":"0.0-6.0-37.0"},{"sim_score":2,"rt":2971,"stimulus":"[\"img/0901/00acf6c1-b66e-4060-bb04-4caf29b5a8b0.jpg\",\"img/0867/6e19c858-b606-45b2-a4c6-910a73f1d82c.jpg\"]","trial_type":"similarity","trial_index":44,"time_elapsed":309814,"internal_node_id":"0.0-6.0-38.0"},{"sim_score":5,"rt":3061,"stimulus":"[\"img/0862/ba89835a-408c-480b-8594-ed4ffa97eb5c.jpg\",\"img/0860/c5ccd1a4-4bb7-48e1-9b25-72cfaf06909b.jpg\"]","trial_type":"similarity","trial_index":45,"time_elapsed":313884,"internal_node_id":"0.0-6.0-39.0"},{"sim_score":6,"rt":2838,"stimulus":"[\"img/0867/f8488a47-94ee-4166-952c-44e16cf172f6.jpg\",\"img/0868/15dd6fd7-791e-4b53-b203-195d617521a4.jpg\"]","trial_type":"similarity","trial_index":46,"time_elapsed":317732,"internal_node_id":"0.0-6.0-40.0"},{"sim_score":3,"rt":2890,"stimulus":"[\"img/0904/73920552-103b-4c9c-9ece-e0b8376b4504.jpg\",\"img/0899/51a7a498-98c7-42d7-bca8-bc2d8f0b5831.jpg\"]","trial_type":"similarity","trial_index":47,"time_elapsed":321629,"internal_node_id":"0.0-6.0-41.0"},{"sim_score":3,"rt":2936,"stimulus":"[\"img/0862/57b6f83f-c763-4858-830d-102f97bfefbf.jpg\",\"img/0894/9b1333fd-3561-43bf-aee5-99b7b7ca3dc3.jpg\"]","trial_type":"similarity","trial_index":48,"time_elapsed":325572,"internal_node_id":"0.0-6.0-42.0"},{"sim_score":2,"rt":2751,"stimulus":"[\"img/0875/cff79b3a-a797-4393-9757-6275f999ec04.jpg\",\"img/0904/5cceabc9-de1d-4c67-989b-c28a4ef77e79.jpg\"]","trial_type":"similarity","trial_index":49,"time_elapsed":329341,"internal_node_id":"0.0-6.0-43.0"},{"sim_score":2,"rt":5734,"stimulus":"[\"img/0874/29830da7-be5f-44e5-b141-652a0ccf7269.jpg\",\"img/0898/661621d4-a14e-487c-8c74-354134a29710.jpg\"]","trial_type":"similarity","trial_index":50,"time_elapsed":336085,"internal_node_id":"0.0-6.0-44.0"},{"sim_score":2,"rt":2984,"stimulus":"[\"img/0898/01bfe666-3510-4fc7-964f-d00d28732dc8.jpg\",\"img/0868/293079b8-7e0c-4afd-a390-1e5d35fe3ded.jpg\"]","trial_type":"similarity","trial_index":51,"time_elapsed":340081,"internal_node_id":"0.0-6.0-45.0"},{"sim_score":2,"rt":3140,"stimulus":"[\"img/0901/b453df0b-4c39-49bb-8ced-6127efffa898.jpg\",\"img/0860/c47fdead-eb02-4989-b078-26f4852f44fe.jpg\"]","trial_type":"similarity","trial_index":52,"time_elapsed":344243,"internal_node_id":"0.0-6.0-46.0"},{"sim_score":3,"rt":4097,"stimulus":"[\"img/0894/b422d5c6-3c5a-49ae-a53e-7e88ac993f49.jpg\",\"img/0902/0eb85fbc-27c8-41df-9d0b-a5f9efd417d1.jpg\"]","trial_type":"similarity","trial_index":53,"time_elapsed":349362,"internal_node_id":"0.0-6.0-47.0"},{"sim_score":2,"rt":5888,"stimulus":"[\"img/0764/c0b03adb-bd0a-4b96-a915-a827c2fd5211.jpg\",\"img/0862/ee3b7bff-4a70-4e84-9bea-4a565e456acb.jpg\"]","trial_type":"similarity","trial_index":54,"time_elapsed":356273,"internal_node_id":"0.0-6.0-48.0"},{"sim_score":5,"rt":3900,"stimulus":"[\"img/0881/33d65d80-8a8e-4ecf-852d-0ad7725c17a2.jpg\",\"img/0758/61d64021-9214-4951-bdf8-f871f9827cf9.jpg\"]","trial_type":"similarity","trial_index":55,"time_elapsed":361192,"internal_node_id":"0.0-6.0-49.0"},{"sim_score":5,"rt":3283,"stimulus":"[\"img/0766/71b81ebd-0937-4d7f-b8bf-c4e46a4728fd.jpg\",\"img/0769/9ea27d61-3d55-418c-8d14-82e90f656f01.jpg\"]","trial_type":"similarity","trial_index":56,"time_elapsed":365496,"internal_node_id":"0.0-6.0-50.0"},{"sim_score":5,"rt":3888,"stimulus":"[\"img/0875/fb732ab5-013a-4366-9f65-27811ed157e9.jpg\",\"img/0866/23a224f3-2012-4fc8-8e0f-3c36f8de27fd.jpg\"]","trial_type":"similarity","trial_index":57,"time_elapsed":370401,"internal_node_id":"0.0-6.0-51.0"},{"sim_score":6,"rt":4064,"stimulus":"[\"img/0894/492d2f29-d7b9-4422-8be8-47fd58bfaa8b.jpg\",\"img/0904/696ebb60-8891-417a-91fd-c53218907a95.jpg\"]","trial_type":"similarity","trial_index":58,"time_elapsed":375489,"internal_node_id":"0.0-6.0-52.0"},{"sim_score":3,"rt":3794,"stimulus":"[\"img/0758/3ddd05d3-557e-4ee7-8b78-9d2d681d8ae2.jpg\",\"img/0769/14d393ce-e5be-4ca1-86ce-cc27d4b6074c.jpg\"]","trial_type":"similarity","trial_index":59,"time_elapsed":380306,"internal_node_id":"0.0-6.0-53.0"},{"sim_score":3,"rt":3737,"stimulus":"[\"img/0902/07437a16-3d0f-4a5c-89ec-36d0efa4b3b8.jpg\",\"img/0874/7e4f2150-3b59-4a36-b5da-a4e0ba410531.jpg\"]","trial_type":"similarity","trial_index":60,"time_elapsed":385054,"internal_node_id":"0.0-6.0-54.0"},{"sim_score":3,"rt":3123,"stimulus":"[\"img/0903/a0673b55-6040-47fe-9040-24bca27ca3c9.jpg\",\"img/0862/92fcd8a4-8193-4a6a-ae09-dd4a6338b0df.jpg\"]","trial_type":"similarity","trial_index":61,"time_elapsed":389190,"internal_node_id":"0.0-6.0-55.0"},{"sim_score":2,"rt":4180,"stimulus":"[\"img/0866/c446214b-a368-4c65-ae39-ea46894256ab.jpg\",\"img/0894/86201968-6e78-4d68-9b3a-d1692e066210.jpg\"]","trial_type":"similarity","trial_index":62,"time_elapsed":394387,"internal_node_id":"0.0-6.0-56.0"},{"sim_score":2,"rt":5193,"stimulus":"[\"img/0867/98d8cd96-1476-4fe0-a3a3-04f875500a1b.jpg\",\"img/0904/6291eb43-c10c-4810-a36a-101d09868b04.jpg\"]","trial_type":"similarity","trial_index":63,"time_elapsed":400596,"internal_node_id":"0.0-6.0-57.0"},{"sim_score":3,"rt":4598,"stimulus":"[\"img/0875/8521fd58-3b1e-4dc5-97ae-804edfa6734a.jpg\",\"img/0881/609a5e93-38b5-4940-8627-2bf8fad7f802.jpg\"]","trial_type":"similarity","trial_index":64,"time_elapsed":406212,"internal_node_id":"0.0-6.0-58.0"},{"sim_score":1,"rt":4025,"stimulus":"[\"img/0866/386235d2-6857-41e7-88a8-25cfc3430025.jpg\",\"img/0860/94ef7afc-e0e6-4a15-98c6-0bfac82bc832.jpg\"]","trial_type":"similarity","trial_index":65,"time_elapsed":411253,"internal_node_id":"0.0-6.0-59.0"},{"sim_score":2,"rt":4037,"stimulus":"[\"img/0903/59defeb8-98bd-4570-a2f8-9bd189e68ef4.jpg\",\"img/0866/9b38d691-1802-4959-ab3f-fc902f0e4ea6.jpg\"]","trial_type":"similarity","trial_index":66,"time_elapsed":416302,"internal_node_id":"0.0-6.0-60.0"},{"sim_score":1,"rt":3725,"stimulus":"[\"img/0860/f44ba3fb-03a2-42f0-8509-2c1ded493086.jpg\",\"img/0875/42910c99-5463-450a-a0f8-d4d060a11455.jpg\"]","trial_type":"similarity","trial_index":67,"time_elapsed":421040,"internal_node_id":"0.0-6.0-61.0"},{"sim_score":3,"rt":3080,"stimulus":"[\"img/0898/6cd3830b-d44e-4915-be2b-88d31424b91c.jpg\",\"img/0862/e697469a-ec19-4414-b972-7b9f3564785b.jpg\"]","trial_type":"similarity","trial_index":68,"time_elapsed":425134,"internal_node_id":"0.0-6.0-62.0"},{"sim_score":5,"rt":3065,"stimulus":"[\"img/0902/7f1dcd35-237a-4995-9e42-7f63f3f434d4.jpg\",\"img/0766/26d3ae14-8275-4e08-99b2-a6598c193ddf.jpg\"]","trial_type":"similarity","trial_index":69,"time_elapsed":429214,"internal_node_id":"0.0-6.0-63.0"},{"sim_score":5,"rt":4182,"stimulus":"[\"img/0758/a709631e-3705-4725-ac40-f0d916924f08.jpg\",\"img/0864/1ebbc554-99fa-49f9-8799-317375a79820.jpg\"]","trial_type":"similarity","trial_index":70,"time_elapsed":434420,"internal_node_id":"0.0-6.0-64.0"},{"sim_score":3,"rt":3521,"stimulus":"[\"img/0894/11674fa4-285d-44e2-939f-2228c6a64080.jpg\",\"img/0860/17b44a7d-c5ca-479f-9e87-f65a64f5c80e.jpg\"]","trial_type":"similarity","trial_index":71,"time_elapsed":438959,"internal_node_id":"0.0-6.0-65.0"},{"sim_score":2,"rt":2822,"stimulus":"[\"img/0899/f58b8d2f-b19d-4b59-8b94-8834be92e4ba.jpg\",\"img/0868/fd307a36-9a3a-47d7-ab7c-f810d0b35040.jpg\"]","trial_type":"similarity","trial_index":72,"time_elapsed":442800,"internal_node_id":"0.0-6.0-66.0"},{"sim_score":5,"rt":3228,"stimulus":"[\"img/0866/d266fece-59b3-46fa-b69f-96f6efb81b59.jpg\",\"img/0862/a0a3a7ba-7798-46a3-b4ca-05e1f6e581d0.jpg\"]","trial_type":"similarity","trial_index":73,"time_elapsed":447047,"internal_node_id":"0.0-6.0-67.0"},{"sim_score":5,"rt":3616,"stimulus":"[\"img/0860/4c530c3c-6aab-492a-94d1-9c01797bde40.jpg\",\"img/0758/67c0be2f-9e91-48b3-8219-70ac0a1802fa.jpg\"]","trial_type":"similarity","trial_index":74,"time_elapsed":451679,"internal_node_id":"0.0-6.0-68.0"},{"sim_score":2,"rt":3745,"stimulus":"[\"img/0902/c018bd7a-d91a-4192-aea4-7259cfcdb6c4.jpg\",\"img/0867/075e0f95-856b-4cbb-acf5-092393aaf04e.jpg\"]","trial_type":"similarity","trial_index":75,"time_elapsed":456449,"internal_node_id":"0.0-6.0-69.0"},{"sim_score":2,"rt":5801,"stimulus":"[\"img/0862/24cdc752-c2e5-4a17-86a6-6f2045d8553b.jpg\",\"img/0901/6e2957f8-f5ab-46f4-87cc-bb50155a098b.jpg\"]","trial_type":"similarity","trial_index":76,"time_elapsed":463260,"internal_node_id":"0.0-6.0-70.0"},{"sim_score":6,"rt":3604,"stimulus":"[\"img/0867/2e1a0b58-cdb1-4107-a14e-452530d7b9b0.jpg\",\"img/0866/4a87911a-d5be-4d4e-ab8e-3d1f581bf507.jpg\"]","trial_type":"similarity","trial_index":77,"time_elapsed":467876,"internal_node_id":"0.0-6.0-71.0"},{"sim_score":3,"rt":3834,"stimulus":"[\"img/0860/b03b963d-949b-4d8d-b19c-4950c89eeca2.jpg\",\"img/0904/4d7d70a3-9477-4921-bda0-f9531d0a5c5b.jpg\"]","trial_type":"similarity","trial_index":78,"time_elapsed":472723,"internal_node_id":"0.0-6.0-72.0"},{"sim_score":2,"rt":2968,"stimulus":"[\"img/0875/f87b67d7-c33e-40d1-b281-248c4be1cb6e.jpg\",\"img/0899/7b7380d5-d2be-44e5-a09a-c1756f87ef71.jpg\"]","trial_type":"similarity","trial_index":79,"time_elapsed":476708,"internal_node_id":"0.0-6.0-73.0"},{"sim_score":3,"rt":3343,"stimulus":"[\"img/0899/8abe6c69-822c-436c-9bf2-96c818b49ba5.jpg\",\"img/0758/7fba58df-2a7a-4b76-8a8f-62739f97f271.jpg\"]","trial_type":"similarity","trial_index":80,"time_elapsed":481061,"internal_node_id":"0.0-6.0-74.0"},{"sim_score":1,"rt":2881,"stimulus":"[\"img/0862/fad1d7c1-8187-43c3-942a-0fc12183e48e.jpg\",\"img/0875/e7e66b13-b573-431e-b85e-288ce04a35a3.jpg\"]","trial_type":"similarity","trial_index":81,"time_elapsed":488059,"internal_node_id":"0.0-6.0-75.0"},{"sim_score":2,"rt":4943,"stimulus":"[\"img/0901/a0d65c84-3f20-476a-92d1-0c01e8019cf4.jpg\",\"img/0894/38cf335f-f76f-4349-8d65-e20cd6859565.jpg\"]","trial_type":"similarity","trial_index":82,"time_elapsed":494013,"internal_node_id":"0.0-6.0-76.0"},{"sim_score":2,"rt":5011,"stimulus":"[\"img/0766/110832e5-2646-4bd0-a94e-5df8cc314269.jpg\",\"img/0758/7ee8bc8f-c40b-4b3a-84ec-3e83580622d4.jpg\"]","trial_type":"similarity","trial_index":83,"time_elapsed":500037,"internal_node_id":"0.0-6.0-77.0"},{"sim_score":3,"rt":4707,"stimulus":"[\"img/0894/1a010553-d598-4b06-a772-81f1e7b3addb.jpg\",\"img/0764/d7f3ac54-318a-4dac-a06b-62bed34d01a4.jpg\"]","trial_type":"similarity","trial_index":84,"time_elapsed":505757,"internal_node_id":"0.0-6.0-78.0"},{"sim_score":3,"rt":2629,"stimulus":"[\"img/0860/87039971-2210-4aab-93c0-8e9b5f1655b2.jpg\",\"img/0867/50a1b60e-3a29-44bf-b606-d4bd3746fea9.jpg\"]","trial_type":"similarity","trial_index":85,"time_elapsed":509397,"internal_node_id":"0.0-6.0-79.0"},{"sim_score":5,"rt":3304,"stimulus":"[\"img/0898/82231d4c-218b-4d0a-b50d-35a49b524e97.jpg\",\"img/0901/08d6d1d1-c043-43c4-bb08-d45e062822b9.jpg\"]","trial_type":"similarity","trial_index":86,"time_elapsed":513705,"internal_node_id":"0.0-6.0-80.0"},{"sim_score":3,"rt":3446,"stimulus":"[\"img/0874/ca23d307-fc00-4d7d-9106-584c6eb21b4d.jpg\",\"img/0764/b328441c-f81c-486c-9eae-b947c70ba7cd.jpg\"]","trial_type":"similarity","trial_index":87,"time_elapsed":518162,"internal_node_id":"0.0-6.0-81.0"},{"sim_score":3,"rt":2841,"stimulus":"[\"img/0899/5b56dd3e-3f49-47cc-af84-16da6457753b.jpg\",\"img/0862/fb26cb07-d5a9-4653-813c-f41609f26cd5.jpg\"]","trial_type":"similarity","trial_index":88,"time_elapsed":522018,"internal_node_id":"0.0-6.0-82.0"},{"sim_score":1,"rt":3269,"stimulus":"[\"img/0766/d50d734f-285c-4840-bc7a-c8dd4aff391e.jpg\",\"img/0901/0f670aef-ac36-496d-8142-ee5fdb21dd82.jpg\"]","trial_type":"similarity","trial_index":89,"time_elapsed":526299,"internal_node_id":"0.0-6.0-83.0"},{"sim_score":2,"rt":3204,"stimulus":"[\"img/0881/f037e3b0-09cb-4a83-b2d9-6a71fe474e63.jpg\",\"img/0898/5f699581-3853-4547-856c-12f419ba5af7.jpg\"]","trial_type":"similarity","trial_index":90,"time_elapsed":530513,"internal_node_id":"0.0-6.0-84.0"},{"sim_score":2,"rt":4909,"stimulus":"[\"img/0868/77091fc7-a590-4ebb-b915-fdb2483a2399.jpg\",\"img/0860/18dfed73-e36b-4487-a8bd-0b8cff8e3668.jpg\"]","trial_type":"similarity","trial_index":91,"time_elapsed":536444,"internal_node_id":"0.0-6.0-85.0"},{"sim_score":1,"rt":2712,"stimulus":"[\"img/0758/d540bee6-b460-4c32-ac57-bc282742d7d4.jpg\",\"img/0868/5fa7f9d0-f0e5-454c-8224-74d964818f56.jpg\"]","trial_type":"similarity","trial_index":92,"time_elapsed":540173,"internal_node_id":"0.0-6.0-86.0"},{"sim_score":2,"rt":2866,"stimulus":"[\"img/0864/ea327690-500b-4137-bf91-451b309fe6a5.jpg\",\"img/0894/76c1201f-8524-4865-85e6-dda8cb4ac986.jpg\"]","trial_type":"similarity","trial_index":93,"time_elapsed":544052,"internal_node_id":"0.0-6.0-87.0"},{"sim_score":2,"rt":3077,"stimulus":"[\"img/0866/620cd1aa-0800-4414-8f6e-90342e7a99ad.jpg\",\"img/0902/b03129ba-b087-4558-af37-e8399d6217d6.jpg\"]","trial_type":"similarity","trial_index":94,"time_elapsed":548139,"internal_node_id":"0.0-6.0-88.0"},{"sim_score":2,"rt":3076,"stimulus":"[\"img/0769/35f2dd39-40aa-498e-b401-9f1ef2622d00.jpg\",\"img/0867/1719a35d-f085-48c0-9099-16c94fe418b4.jpg\"]","trial_type":"similarity","trial_index":95,"time_elapsed":552231,"internal_node_id":"0.0-6.0-89.0"},{"sim_score":2,"rt":3595,"stimulus":"[\"img/0874/31e22c7c-99aa-40b1-bf03-dd73fa2df4d6.jpg\",\"img/0875/dbdd643e-6d0e-4a5c-ab57-b9c29b9c981a.jpg\"]","trial_type":"similarity","trial_index":96,"time_elapsed":556842,"internal_node_id":"0.0-6.0-90.0"},{"sim_score":5,"rt":5059,"stimulus":"[\"img/0864/87c467d3-abca-482f-ad80-3766c21b1bb3.jpg\",\"img/0874/ca76a855-4e77-4f2f-872a-0a718153e7ed.jpg\"]","trial_type":"similarity","trial_index":97,"time_elapsed":562915,"internal_node_id":"0.0-6.0-91.0"},{"sim_score":5,"rt":3920,"stimulus":"[\"img/0881/292e9b4b-fca0-4ba8-87f1-4048f9e37b7d.jpg\",\"img/0862/92f0146c-20c4-482e-aef5-adb693790338.jpg\"]","trial_type":"similarity","trial_index":98,"time_elapsed":567851,"internal_node_id":"0.0-6.0-92.0"},{"sim_score":7,"rt":4210,"stimulus":"[\"img/0864/c3b63e8f-ea39-4d70-a1f2-b3fe4be8eb75.jpg\",\"img/0881/f4e3e181-b3c9-4af2-a5a4-fc135ab70d2e.jpg\"]","trial_type":"similarity","trial_index":99,"time_elapsed":573076,"internal_node_id":"0.0-6.0-93.0"},{"sim_score":5,"rt":5941,"stimulus":"[\"img/0899/b45c550b-96c3-4255-ad59-48a2b4db1c1e.jpg\",\"img/0901/4ca4f962-40c0-4c59-b14a-3cd7b8c9029b.jpg\"]","trial_type":"similarity","trial_index":100,"time_elapsed":580028,"internal_node_id":"0.0-6.0-94.0"},{"sim_score":3,"rt":4949,"stimulus":"[\"img/0874/2c9464dd-8a23-4baa-ac94-1ba3af5c15cc.jpg\",\"img/0766/79767d11-b612-4e8a-9e4b-a8ac95bb6a54.jpg\"]","trial_type":"similarity","trial_index":101,"time_elapsed":585989,"internal_node_id":"0.0-6.0-95.0"},{"sim_score":3,"rt":3436,"stimulus":"[\"img/0881/633c6f40-56d9-4b48-bf1c-ecd83116eabb.jpg\",\"img/0899/66ab3178-c3fe-4455-ad17-d5952b08e018.jpg\"]","trial_type":"similarity","trial_index":102,"time_elapsed":590445,"internal_node_id":"0.0-6.0-96.0"},{"sim_score":6,"rt":4692,"stimulus":"[\"img/0862/847e5208-38ec-4f36-949c-296cdd7424ee.jpg\",\"img/0902/71c03003-03ef-4b0f-8229-e0c857150a5d.jpg\"]","trial_type":"similarity","trial_index":103,"time_elapsed":596149,"internal_node_id":"0.0-6.0-97.0"},{"sim_score":5,"rt":3337,"stimulus":"[\"img/0899/f95cbdb4-f804-4f5d-ad76-373ad343e658.jpg\",\"img/0764/974d52cc-6318-4e7a-b294-2f3e92ff800f.jpg\"]","trial_type":"similarity","trial_index":104,"time_elapsed":600509,"internal_node_id":"0.0-6.0-98.0"},{"sim_score":5,"rt":3364,"stimulus":"[\"img/0758/ddc336e9-a8b6-4bb9-937a-c7e25e0e9250.jpg\",\"img/0862/d0ca4c78-fc35-46ed-bdcc-8e124283c53e.jpg\"]","trial_type":"similarity","trial_index":105,"time_elapsed":604896,"internal_node_id":"0.0-6.0-99.0"},{"sim_score":5,"rt":4344,"stimulus":"[\"img/0764/713cc27e-2338-4486-bfe9-5f5725fbd7a0.jpg\",\"img/0898/f3a3f225-1248-4ac7-b93b-f0ff28485bf3.jpg\"]","trial_type":"similarity","trial_index":106,"time_elapsed":610255,"internal_node_id":"0.0-6.0-100.0"},{"sim_score":2,"rt":4919,"stimulus":"[\"img/0901/f469cb1d-6d81-4a45-bab5-cd0b650c2b4f.jpg\",\"img/0902/417d8b4a-3c72-4adc-ac78-820e833316f2.jpg\"]","trial_type":"similarity","trial_index":107,"time_elapsed":616183,"internal_node_id":"0.0-6.0-101.0"},{"sim_score":2,"rt":3109,"stimulus":"[\"img/0764/6fbd1902-fa2a-48d8-bc11-705b8ab68d8f.jpg\",\"img/0868/4a8a45ed-2c4f-421b-9564-409a33ecd26c.jpg\"]","trial_type":"similarity","trial_index":108,"time_elapsed":620311,"internal_node_id":"0.0-6.0-102.0"},{"sim_score":3,"rt":3399,"stimulus":"[\"img/0769/1afb527f-9887-428c-bd26-a12c2f9efb68.jpg\",\"img/0881/d373cb9f-a719-4549-a2a4-82def79fb2a5.jpg\"]","trial_type":"similarity","trial_index":109,"time_elapsed":624720,"internal_node_id":"0.0-6.0-103.0"},{"sim_score":2,"rt":3220,"stimulus":"[\"img/0864/3651d070-2fc5-4848-b6a6-088a2d9ac5c9.jpg\",\"img/0769/11518cb3-13ea-4dd0-890c-30cfab728ade.jpg\"]","trial_type":"similarity","trial_index":110,"time_elapsed":628961,"internal_node_id":"0.0-6.0-104.0"},{"sim_score":7,"rt":3402,"stimulus":"[\"img/0866/945c6710-d15b-4a5b-a8f6-69af0850357f.jpg\",\"img/0868/09a9ef4d-d000-4cfa-a6aa-ebec7c2edeb4.jpg\"]","trial_type":"similarity","trial_index":111,"time_elapsed":633374,"internal_node_id":"0.0-6.0-105.0"},{"sim_score":2,"rt":3332,"stimulus":"[\"img/0868/c8ac40c7-6904-4e13-8d61-c75d3052dc4e.jpg\",\"img/0862/de9ad88c-b522-430a-8ee9-eb06a9f85df5.jpg\"]","trial_type":"similarity","trial_index":112,"time_elapsed":637718,"internal_node_id":"0.0-6.0-106.0"},{"sim_score":3,"rt":3867,"stimulus":"[\"img/0766/0025de5e-f620-4079-8a0f-00326ff3a6b0.jpg\",\"img/0898/8605a25b-6895-476d-8c13-df7a83f96093.jpg\"]","trial_type":"similarity","trial_index":113,"time_elapsed":642606,"internal_node_id":"0.0-6.0-107.0"},{"sim_score":3,"rt":2740,"stimulus":"[\"img/0898/ec565187-2e31-4fdd-9a5c-153d0c789ae0.jpg\",\"img/0864/afcba0a3-7e27-4757-b254-e9f05fad27e2.jpg\"]","trial_type":"similarity","trial_index":114,"time_elapsed":646366,"internal_node_id":"0.0-6.0-108.0"},{"sim_score":2,"rt":2566,"stimulus":"[\"img/0868/7b212364-ff5f-4e28-9241-7eb6ea00161b.jpg\",\"img/0902/0db94c50-f1fb-4091-953c-29ca0466bee2.jpg\"]","trial_type":"similarity","trial_index":115,"time_elapsed":649951,"internal_node_id":"0.0-6.0-109.0"},{"sim_score":6,"rt":4311,"stimulus":"[\"img/0904/da170c1b-9651-4f08-b231-2bdd1d9a046f.jpg\",\"img/0764/f64dfa83-333d-494c-87b5-73e942f1766e.jpg\"]","trial_type":"similarity","trial_index":116,"time_elapsed":655281,"internal_node_id":"0.0-6.0-110.0"},{"sim_score":1,"rt":4795,"stimulus":"[\"img/0894/4739e06d-c31e-4bf1-bf91-c97fa9afb456.jpg\",\"img/0875/5a716432-c6ca-4b1c-955a-2b8ac25198ee.jpg\"]","trial_type":"similarity","trial_index":117,"time_elapsed":661088,"internal_node_id":"0.0-6.0-111.0"},{"sim_score":1,"rt":2780,"stimulus":"[\"img/0868/d98ca254-b195-477f-b57e-5760a2717db8.jpg\",\"img/0874/a82926a3-0b43-4add-803c-d5f9ea7798ee.jpg\"]","trial_type":"similarity","trial_index":118,"time_elapsed":664889,"internal_node_id":"0.0-6.0-112.0"},{"sim_score":5,"rt":5366,"stimulus":"[\"img/0904/9d30eff1-46ef-4453-b11e-124ef8145c00.jpg\",\"img/0898/79233891-305a-4a6a-8ddf-5c8604858203.jpg\"]","trial_type":"similarity","trial_index":119,"time_elapsed":672488,"internal_node_id":"0.0-6.0-113.0"},{"sim_score":2,"rt":3248,"stimulus":"[\"img/0860/c7047cd2-7cc1-41b6-8a34-c0986774975f.jpg\",\"img/0766/989c5c7f-1aff-4442-ac63-9d46acf4a891.jpg\"]","trial_type":"similarity","trial_index":120,"time_elapsed":676746,"internal_node_id":"0.0-6.0-114.0"},{"sim_score":2,"rt":3203,"stimulus":"[\"img/0894/bd34223a-2f66-4e16-9d18-193a746b69ff.jpg\",\"img/0874/93d1f8dc-acf2-4f03-bd8d-8ec35df276ed.jpg\"]","trial_type":"similarity","trial_index":121,"time_elapsed":680963,"internal_node_id":"0.0-6.0-115.0"},{"sim_score":5,"rt":4000,"stimulus":"[\"img/0899/8de08897-b430-42fe-9d42-840670b80f94.jpg\",\"img/0903/f67c4ab9-f8c2-4fcd-848a-a54a7b031002.jpg\"]","trial_type":"similarity","trial_index":122,"time_elapsed":685978,"internal_node_id":"0.0-6.0-116.0"},{"sim_score":2,"rt":3445,"stimulus":"[\"img/0881/7e822106-76f7-4b10-a805-14dc68b2cfaf.jpg\",\"img/0764/ca957454-126a-4bd3-b29c-7174a24c25dc.jpg\"]","trial_type":"similarity","trial_index":123,"time_elapsed":690443,"internal_node_id":"0.0-6.0-117.0"},{"sim_score":6,"rt":4200,"stimulus":"[\"img/0903/70d764d9-1f35-4da7-a35d-4cc39834d270.jpg\",\"img/0769/f2740c58-7c02-433f-920b-746b0b75435b.jpg\"]","trial_type":"similarity","trial_index":124,"time_elapsed":695659,"internal_node_id":"0.0-6.0-118.0"},{"sim_score":3,"rt":3724,"stimulus":"[\"img/0901/71e551a2-9ce2-409c-9c7c-dd556a0791e9.jpg\",\"img/0904/56e73f28-7e64-489b-a161-e6b1a063878d.jpg\"]","trial_type":"similarity","trial_index":125,"time_elapsed":700387,"internal_node_id":"0.0-6.0-119.0"},{"sim_score":5,"rt":3744,"stimulus":"[\"img/0860/fd4662f9-4c03-4d79-8593-06735e55a64b.jpg\",\"img/0881/adc02f34-ce97-4aef-850f-00519df06fd7.jpg\"]","trial_type":"similarity","trial_index":126,"time_elapsed":705147,"internal_node_id":"0.0-6.0-120.0"},{"sim_score":6,"rt":4523,"stimulus":"[\"img/0758/d57c2592-a317-4f63-91be-91a3a9afd222.jpg\",\"img/0874/995f0332-0439-4eb4-add3-957335dbf6d9.jpg\"]","trial_type":"similarity","trial_index":127,"time_elapsed":710680,"internal_node_id":"0.0-6.0-121.0"},{"sim_score":2,"rt":2899,"stimulus":"[\"img/0901/62315ff5-ed95-46b4-b099-92552079659b.jpg\",\"img/0769/ecda2fb3-556b-43ba-8a67-e87dd75ff2b4.jpg\"]","trial_type":"similarity","trial_index":128,"time_elapsed":714592,"internal_node_id":"0.0-6.0-122.0"},{"sim_score":6,"rt":3133,"stimulus":"[\"img/0902/b76efc44-a50f-4dac-b997-ff0222376067.jpg\",\"img/0904/2f88ce53-02d0-4f95-a082-182c56a0eeb4.jpg\"]","trial_type":"similarity","trial_index":129,"time_elapsed":718745,"internal_node_id":"0.0-6.0-123.0"},{"sim_score":3,"rt":3263,"stimulus":"[\"img/0899/ddf96ade-692e-4602-bd22-dedbb46401bc.jpg\",\"img/0864/9b2490c5-a282-400a-9736-e1a0ecbf1cb7.jpg\"]","trial_type":"similarity","trial_index":130,"time_elapsed":723033,"internal_node_id":"0.0-6.0-124.0"},{"sim_score":1,"rt":2467,"stimulus":"[\"img/0766/006035d8-c736-4daf-bbe4-a9e373af9da6.jpg\",\"img/0868/0d3abd3a-b6c3-4584-a9f7-e2da63748b3d.jpg\"]","trial_type":"similarity","trial_index":131,"time_elapsed":726512,"internal_node_id":"0.0-6.0-125.0"},{"sim_score":2,"rt":4154,"stimulus":"[\"img/0764/978aede9-4590-4ad0-b234-135c83e5d669.jpg\",\"img/0864/6f631579-acf1-415c-a42c-1207f62a8d99.jpg\"]","trial_type":"similarity","trial_index":132,"time_elapsed":731673,"internal_node_id":"0.0-6.0-126.0"},{"sim_score":2,"rt":2738,"stimulus":"[\"img/0899/93494f3b-d539-4075-b027-d82e344563da.jpg\",\"img/0866/a04d37f0-99dd-478a-b6c6-58b215138f84.jpg\"]","trial_type":"similarity","trial_index":133,"time_elapsed":735418,"internal_node_id":"0.0-6.0-127.0"},{"sim_score":3,"rt":2648,"stimulus":"[\"img/0901/5657dd86-0ff9-4753-ba2b-9dfb223e5c89.jpg\",\"img/0881/f62bdcd1-a4b7-4d48-83da-d9c9e01c8727.jpg\"]","trial_type":"similarity","trial_index":134,"time_elapsed":739083,"internal_node_id":"0.0-6.0-128.0"},{"sim_score":6,"rt":3482,"stimulus":"[\"img/0898/e167334e-cc1d-4986-b3b1-c7bc7da64baa.jpg\",\"img/0903/d987e220-f3e6-4b6d-a270-fe6757041f6d.jpg\"]","trial_type":"similarity","trial_index":135,"time_elapsed":743590,"internal_node_id":"0.0-6.0-129.0"},{"sim_score":2,"rt":3027,"stimulus":"[\"img/0894/e5edf723-72a5-4673-8441-6c1734a8929b.jpg\",\"img/0867/8ba0c5a7-c7e4-42cf-a80a-543763b90779.jpg\"]","trial_type":"similarity","trial_index":136,"time_elapsed":747628,"internal_node_id":"0.0-6.0-130.0"},{"sim_score":3,"rt":2647,"stimulus":"[\"img/0874/a3bc679d-619f-4db6-bb68-116dcb757d9c.jpg\",\"img/0903/8931c67c-a43d-47d3-a4c9-42aa2f81d344.jpg\"]","trial_type":"similarity","trial_index":137,"time_elapsed":751284,"internal_node_id":"0.0-6.0-131.0"},{"sim_score":5,"rt":4384,"stimulus":"[\"img/0899/fd9efb43-701f-4cd6-baaa-4c38315f4bdc.jpg\",\"img/0898/c3cecf20-f7fd-45fa-97d0-dc0a63e8d6c0.jpg\"]","trial_type":"similarity","trial_index":138,"time_elapsed":756677,"internal_node_id":"0.0-6.0-132.0"},{"sim_score":2,"rt":2944,"stimulus":"[\"img/0867/12264664-1860-46df-8c21-162b9817cdda.jpg\",\"img/0764/c643e165-df19-459f-8c2b-8357bf432a17.jpg\"]","trial_type":"similarity","trial_index":139,"time_elapsed":760631,"internal_node_id":"0.0-6.0-133.0"},{"sim_score":5,"rt":4792,"stimulus":"[\"img/0866/11a1d141-be5e-443c-98c1-a9d4d9e3dec0.jpg\",\"img/0769/3adfa417-3b90-4aab-b437-5eaa474189cb.jpg\"]","trial_type":"similarity","trial_index":140,"time_elapsed":766431,"internal_node_id":"0.0-6.0-134.0"},{"sim_score":3,"rt":3077,"stimulus":"[\"img/0860/8fdba999-b946-4c7d-9891-336018b563ef.jpg\",\"img/0898/68476bbb-34a1-42d9-8bc1-deab783d4489.jpg\"]","trial_type":"similarity","trial_index":141,"time_elapsed":770525,"internal_node_id":"0.0-6.0-135.0"},{"sim_score":2,"rt":3917,"stimulus":"[\"img/0881/20af39f5-373d-4a55-a437-2dc4c0382c46.jpg\",\"img/0903/150cf64c-0bd2-4674-abbb-a1387cf1f3e9.jpg\"]","trial_type":"similarity","trial_index":142,"time_elapsed":775454,"internal_node_id":"0.0-6.0-136.0"},{"sim_score":5,"rt":3528,"stimulus":"[\"img/0894/c505c65a-cde2-4f2c-8cde-f8676f7c894d.jpg\",\"img/0766/a754e4b6-5019-4cf4-8f58-34c20547a1f5.jpg\"]","trial_type":"similarity","trial_index":143,"time_elapsed":779990,"internal_node_id":"0.0-6.0-137.0"},{"sim_score":3,"rt":3231,"stimulus":"[\"img/0860/99c589b9-9140-4d17-90c0-b344323edcda.jpg\",\"img/0764/56441045-b648-4ede-9632-3e9c0227080b.jpg\"]","trial_type":"similarity","trial_index":144,"time_elapsed":784230,"internal_node_id":"0.0-6.0-138.0"},{"sim_score":2,"rt":2906,"stimulus":"[\"img/0769/91acb237-65a3-4d0b-9748-af5c7b83d3c7.jpg\",\"img/0902/04a6ad4a-afc6-4871-8225-56b299af7b6b.jpg\"]","trial_type":"similarity","trial_index":145,"time_elapsed":788159,"internal_node_id":"0.0-6.0-139.0"},{"sim_score":6,"rt":3450,"stimulus":"[\"img/0904/4e58005d-a2ec-4aaa-b199-445343561396.jpg\",\"img/0903/470acfd5-5571-4a7b-b3a4-28d87e098138.jpg\"]","trial_type":"similarity","trial_index":146,"time_elapsed":792631,"internal_node_id":"0.0-6.0-140.0"},{"sim_score":6,"rt":3767,"stimulus":"[\"img/0764/55b3fab1-b809-4d38-a461-3f40ce062f52.jpg\",\"img/0769/878531fd-e0e8-4ad1-b9ad-f018bb104ca0.jpg\"]","trial_type":"similarity","trial_index":147,"time_elapsed":797408,"internal_node_id":"0.0-6.0-141.0"},{"sim_score":3,"rt":3773,"stimulus":"[\"img/0902/6730b12a-f0a7-4587-8c10-a32fae16565b.jpg\",\"img/0881/7e31e5dc-2240-4b1b-b5a0-3acd980099ef.jpg\"]","trial_type":"similarity","trial_index":148,"time_elapsed":802199,"internal_node_id":"0.0-6.0-142.0"},{"sim_score":2,"rt":2503,"stimulus":"[\"img/0866/02f5e6b9-52b7-448c-9708-5b460d0c9a23.jpg\",\"img/0864/c22faebd-9c53-47bc-ada3-b9a30c688e75.jpg\"]","trial_type":"similarity","trial_index":149,"time_elapsed":805721,"internal_node_id":"0.0-6.0-143.0"},{"sim_score":6,"rt":2833,"stimulus":"[\"img/0902/d2c34af0-8c50-437d-8cc3-619195a3e8ba.jpg\",\"img/0898/b2732712-71c2-45d8-834f-2b2ed5504910.jpg\"]","trial_type":"similarity","trial_index":150,"time_elapsed":809561,"internal_node_id":"0.0-6.0-144.0"},{"sim_score":5,"rt":3301,"stimulus":"[\"img/0862/ad593cc7-cabe-4bb7-8e14-8a447a0717b4.jpg\",\"img/0864/3d4de670-b290-4285-9c3d-12a0e3af44e9.jpg\"]","trial_type":"similarity","trial_index":151,"time_elapsed":813883,"internal_node_id":"0.0-6.0-145.0"},{"sim_score":3,"rt":4079,"stimulus":"[\"img/0875/d59ff733-eaff-4ee2-9443-06954dd0bcb6.jpg\",\"img/0898/881e2a85-d5c2-49be-a0c6-8a6ce2c4af08.jpg\"]","trial_type":"similarity","trial_index":152,"time_elapsed":818970,"internal_node_id":"0.0-6.0-146.0"},{"sim_score":5,"rt":2854,"stimulus":"[\"img/0874/eba003b4-cdab-4eee-8bc3-f064c7d94165.jpg\",\"img/0881/62a64f90-7a72-4aee-a1a1-0c548ac9bdda.jpg\"]","trial_type":"similarity","trial_index":153,"time_elapsed":822834,"internal_node_id":"0.0-6.0-147.0"},{"sim_score":2,"rt":3133,"stimulus":"[\"img/0758/b76ceca7-95ac-46e4-ac13-da02c8e93be9.jpg\",\"img/0894/05161000-f476-499b-a878-c13c7f347fd9.jpg\"]","trial_type":"similarity","trial_index":154,"time_elapsed":826980,"internal_node_id":"0.0-6.0-148.0"},{"sim_score":3,"rt":4014,"stimulus":"[\"img/0904/a8c3c7d2-9bcf-4347-9e03-8203adfc1fc5.jpg\",\"img/0864/b3c4e378-28f0-4699-9338-2a257b4bca04.jpg\"]","trial_type":"similarity","trial_index":155,"time_elapsed":832004,"internal_node_id":"0.0-6.0-149.0"},{"sim_score":5,"rt":3122,"stimulus":"[\"img/0769/da36e3f7-2337-434f-ab57-11822dd7eed7.jpg\",\"img/0899/7f9d45d0-b2c6-40d3-aa41-c207db2c411b.jpg\"]","trial_type":"similarity","trial_index":156,"time_elapsed":836132,"internal_node_id":"0.0-6.0-150.0"},{"sim_score":5,"rt":2820,"stimulus":"[\"img/0764/f990b2e8-ecee-481e-be7c-0239fce350e2.jpg\",\"img/0903/ea75f240-fb62-4edb-a709-83e858b202c0.jpg\"]","trial_type":"similarity","trial_index":157,"time_elapsed":842933,"internal_node_id":"0.0-6.0-151.0"},{"sim_score":2,"rt":4569,"stimulus":"[\"img/0903/5c6b1f57-b3a2-40f5-9fb1-82785e24b6a0.jpg\",\"img/0864/300bb811-8b3c-4c42-8653-6097c3725197.jpg\"]","trial_type":"similarity","trial_index":158,"time_elapsed":848527,"internal_node_id":"0.0-6.0-152.0"},{"sim_score":3,"rt":3954,"stimulus":"[\"img/0894/5a49e858-2850-4892-9a06-e9f0efb5f94d.jpg\",\"img/0881/0c7068da-d0d9-4103-bda1-74ef7a2b32c3.jpg\"]","trial_type":"similarity","trial_index":159,"time_elapsed":853502,"internal_node_id":"0.0-6.0-153.0"},{"sim_score":5,"rt":3730,"stimulus":"[\"img/0875/34132396-d896-4c2d-8087-646dd867e769.jpg\",\"img/0867/a749dddb-69f0-44a6-acdc-2bf295cf6dcc.jpg\"]","trial_type":"similarity","trial_index":160,"time_elapsed":858255,"internal_node_id":"0.0-6.0-154.0"},{"sim_score":2,"rt":3488,"stimulus":"[\"img/0867/de92135f-5b65-4ed9-b245-188292c7c2f8.jpg\",\"img/0758/a085b443-b5d7-4cb2-9ad4-b9dab0fc23f1.jpg\"]","trial_type":"similarity","trial_index":161,"time_elapsed":862750,"internal_node_id":"0.0-6.0-155.0"},{"sim_score":3,"rt":3289,"stimulus":"[\"img/0868/1a62b2b2-18f5-466e-b564-5176a57c565e.jpg\",\"img/0901/fb0a8e69-7f19-4e6e-a6bb-a48f97f9b4f3.jpg\"]","trial_type":"similarity","trial_index":162,"time_elapsed":867063,"internal_node_id":"0.0-6.0-156.0"},{"sim_score":3,"rt":4820,"stimulus":"[\"img/0769/9ea9ceb6-049e-4ad9-be8f-00645cd35803.jpg\",\"img/0894/767a0eec-1064-46b1-b1aa-dfa02b0cd74e.jpg\"]","trial_type":"similarity","trial_index":163,"time_elapsed":872902,"internal_node_id":"0.0-6.0-157.0"},{"sim_score":2,"rt":3652,"stimulus":"[\"img/0904/0d25eb24-bb20-4e8d-9787-8b489558b4cb.jpg\",\"img/0758/e38fd80d-18d0-42f3-b848-f930788e8bd7.jpg\"]","trial_type":"similarity","trial_index":164,"time_elapsed":877567,"internal_node_id":"0.0-6.0-158.0"},{"sim_score":3,"rt":4633,"stimulus":"[\"img/0874/3f471690-9788-4d03-90c7-f615aecef149.jpg\",\"img/0904/0d17b811-063e-416e-a23c-3b3cfa4fcce5.jpg\"]","trial_type":"similarity","trial_index":165,"time_elapsed":883215,"internal_node_id":"0.0-6.0-159.0"},{"sim_score":3,"rt":2882,"stimulus":"[\"img/0864/4bd81bc6-c13d-46df-95a9-485886dc7c1b.jpg\",\"img/0901/875dedb9-24c9-4443-9f8c-85e97d70ee5a.jpg\"]","trial_type":"similarity","trial_index":166,"time_elapsed":887108,"internal_node_id":"0.0-6.0-160.0"},{"sim_score":3,"rt":3880,"stimulus":"[\"img/0898/cd3aaa3f-efa9-4ab3-8d6f-a6a9273ddf42.jpg\",\"img/0866/d493a2c8-66eb-44b4-be02-2f327b700b7c.jpg\"]","trial_type":"similarity","trial_index":167,"time_elapsed":891996,"internal_node_id":"0.0-6.0-161.0"},{"sim_score":5,"rt":2929,"stimulus":"[\"img/0766/e8052e17-9dae-4139-802b-6e590cb2d526.jpg\",\"img/0903/6f343da5-00d9-4d50-89d1-2ed24cdb8319.jpg\"]","trial_type":"similarity","trial_index":168,"time_elapsed":895940,"internal_node_id":"0.0-6.0-162.0"},{"sim_score":3,"rt":4194,"stimulus":"[\"img/0860/71e1aad0-2cdf-43bb-94a4-a8c016997c30.jpg\",\"img/0899/0e1d936a-dbe2-4afc-9f19-7b7a1ae6c9ed.jpg\"]","trial_type":"similarity","trial_index":169,"time_elapsed":901149,"internal_node_id":"0.0-6.0-163.0"},{"sim_score":2,"rt":4496,"stimulus":"[\"img/0766/af3be95e-e52e-4fae-899b-0ff02ec340aa.jpg\",\"img/0862/47ed5efd-4ec9-4b74-bb4e-a5f5cf0c3e7d.jpg\"]","trial_type":"similarity","trial_index":170,"time_elapsed":906662,"internal_node_id":"0.0-6.0-164.0"},{"sim_score":3,"rt":4772,"stimulus":"[\"img/0898/224c1572-56b9-4f16-a9e4-6f3bc9c114bd.jpg\",\"img/0894/7fb082e0-ce79-485c-9109-04367fb32275.jpg\"]","trial_type":"similarity","trial_index":171,"time_elapsed":912444,"internal_node_id":"0.0-6.0-165.0"},{"sim_score":1,"rt":2527,"stimulus":"[\"img/0867/26611f4e-d694-4460-b7e2-43c62753ddc3.jpg\",\"img/0766/3c526a07-9e0a-4ae2-8142-00085f0127da.jpg\"]","trial_type":"similarity","trial_index":172,"time_elapsed":915980,"internal_node_id":"0.0-6.0-166.0"},{"sim_score":3,"rt":4274,"stimulus":"[\"img/0904/e9423a8c-f946-43ad-ab7b-931acef870e2.jpg\",\"img/0862/f23038d4-c366-4f70-979f-66b62362efa4.jpg\"]","trial_type":"similarity","trial_index":173,"time_elapsed":921275,"internal_node_id":"0.0-6.0-167.0"},{"sim_score":2,"rt":4307,"stimulus":"[\"img/0866/07c9c966-3c8d-40e7-8128-92b2acbaed5d.jpg\",\"img/0874/85eb9b8a-c4c6-4e5a-b8e7-363a87a82054.jpg\"]","trial_type":"similarity","trial_index":174,"time_elapsed":926596,"internal_node_id":"0.0-6.0-168.0"},{"sim_score":2,"rt":2694,"stimulus":"[\"img/0903/b0df4094-a3be-4b5b-81bd-8d260f13f61b.jpg\",\"img/0868/4e626425-63c8-484a-8a1d-e66ee4e0bef8.jpg\"]","trial_type":"similarity","trial_index":175,"time_elapsed":930308,"internal_node_id":"0.0-6.0-169.0"},{"sim_score":6,"rt":4985,"stimulus":"[\"img/0769/47700831-0ca2-4fdd-a498-a3bc5a528f43.jpg\",\"img/0904/65e2b70a-b184-4da3-b5c0-5038bdf9469a.jpg\"]","trial_type":"similarity","trial_index":176,"time_elapsed":936308,"internal_node_id":"0.0-6.0-170.0"},{"sim_score":1,"rt":2490,"stimulus":"[\"img/0875/99698b4d-b4a1-44bc-8c83-8ea755bbbf61.jpg\",\"img/0764/bc3865c9-9004-4582-88a7-048478673f97.jpg\"]","trial_type":"similarity","trial_index":177,"time_elapsed":939821,"internal_node_id":"0.0-6.0-171.0"},{"sim_score":3,"rt":3098,"stimulus":"[\"img/0860/4f695df5-afac-4da7-9875-fee39b0b24ad.jpg\",\"img/0903/72197c2b-403e-4a26-b391-f1aa8dea4b76.jpg\"]","trial_type":"similarity","trial_index":178,"time_elapsed":943941,"internal_node_id":"0.0-6.0-172.0"},{"sim_score":2,"rt":3282,"stimulus":"[\"img/0864/da39ad34-04e0-40d4-a724-c08d53e0ea09.jpg\",\"img/0867/85a96c62-548f-4994-9553-819e03c3135a.jpg\"]","trial_type":"similarity","trial_index":179,"time_elapsed":948236,"internal_node_id":"0.0-6.0-173.0"},{"sim_score":1,"rt":2932,"stimulus":"[\"img/0868/83b4350a-3b70-4cea-b7f5-b5b56f3050a8.jpg\",\"img/0864/0116ca98-293d-4fa6-a93b-5a6144ef64cc.jpg\"]","trial_type":"similarity","trial_index":180,"time_elapsed":952190,"internal_node_id":"0.0-6.0-174.0"},{"sim_score":3,"rt":3400,"stimulus":"[\"img/0898/a8f16b02-e19f-423b-86c3-a36562ae1f9b.jpg\",\"img/0769/f6396414-6788-4d59-9683-de153298d89c.jpg\"]","trial_type":"similarity","trial_index":181,"time_elapsed":956597,"internal_node_id":"0.0-6.0-175.0"},{"sim_score":6,"rt":4827,"stimulus":"[\"img/0766/5d6e0d1d-4369-41f0-a64c-91f3503055c7.jpg\",\"img/0764/50f1b062-d608-4bc0-ab25-b872dcf2ed93.jpg\"]","trial_type":"similarity","trial_index":182,"time_elapsed":962447,"internal_node_id":"0.0-6.0-176.0"},{"sim_score":2,"rt":3212,"stimulus":"[\"img/0764/83c93cce-18d1-4aa7-9e23-2c268afe0a46.jpg\",\"img/0866/be24ab58-230e-4db8-9f45-ff04c9aec6bb.jpg\"]","trial_type":"similarity","trial_index":183,"time_elapsed":966680,"internal_node_id":"0.0-6.0-177.0"},{"sim_score":2,"rt":3167,"stimulus":"[\"img/0902/97022122-01e4-46c3-a34f-c6260ad28428.jpg\",\"img/0875/2e13d160-eea1-416b-aff1-d37ab99ecc1d.jpg\"]","trial_type":"similarity","trial_index":184,"time_elapsed":970858,"internal_node_id":"0.0-6.0-178.0"},{"sim_score":2,"rt":3576,"stimulus":"[\"img/0881/d1982897-8d8d-4704-a940-1ee5d07a1f15.jpg\",\"img/0904/25365108-e038-4021-aac9-797f2063b337.jpg\"]","trial_type":"similarity","trial_index":185,"time_elapsed":975443,"internal_node_id":"0.0-6.0-179.0"},{"sim_score":3,"rt":4839,"stimulus":"[\"img/0874/c0378dac-9370-439a-8b79-db27c96fb390.jpg\",\"img/0860/e14d67c1-6d92-4f1e-9257-c8607159c19c.jpg\"]","trial_type":"similarity","trial_index":186,"time_elapsed":981293,"internal_node_id":"0.0-6.0-180.0"},{"sim_score":2,"rt":3345,"stimulus":"[\"img/0769/d1be2815-fa79-46e8-b5c3-7d81caaca490.jpg\",\"img/0874/adf9a8f1-c40b-402b-b95b-1e85a54a7b62.jpg\"]","trial_type":"similarity","trial_index":187,"time_elapsed":985644,"internal_node_id":"0.0-6.0-181.0"},{"sim_score":3,"rt":4193,"stimulus":"[\"img/0904/b7c2a2c8-df33-4473-b3d4-ff7147c60db3.jpg\",\"img/0766/0bf3793e-c353-45e5-ac6f-753f5f484e10.jpg\"]","trial_type":"similarity","trial_index":188,"time_elapsed":990846,"internal_node_id":"0.0-6.0-182.0"},{"sim_score":2,"rt":4578,"stimulus":"[\"img/0902/22ed3536-288b-452e-9777-0fa0ab94deb0.jpg\",\"img/0764/c01e2d65-6586-441b-bef5-3c96fcd85380.jpg\"]","trial_type":"similarity","trial_index":189,"time_elapsed":996437,"internal_node_id":"0.0-6.0-183.0"},{"sim_score":2,"rt":3706,"stimulus":"[\"img/0769/688d0c52-ad73-4065-a5eb-f8c10d076bff.jpg\",\"img/0875/5a7c4e35-6514-4e12-8879-d16071da4cd6.jpg\"]","trial_type":"similarity","trial_index":190,"time_elapsed":1001151,"internal_node_id":"0.0-6.0-184.0"},{"sim_score":2,"rt":4473,"stimulus":"[\"img/0867/c71dc569-f49c-4397-8381-68b8d726736d.jpg\",\"img/0903/6a87dbad-9b8d-4ff5-9c41-03c9aa24f0c3.jpg\"]","trial_type":"similarity","trial_index":191,"time_elapsed":1006632,"internal_node_id":"0.0-6.0-185.0"},{"sim_score":3,"rt":3460,"stimulus":"[\"img/0862/f188d4f0-76a4-4102-818c-a209969d73a5.jpg\",\"img/0769/b664b502-a86c-46c1-ad6f-5ebffc2e1bd3.jpg\"]","trial_type":"similarity","trial_index":192,"time_elapsed":1011104,"internal_node_id":"0.0-6.0-186.0"},{"sim_score":1,"rt":2752,"stimulus":"[\"img/0766/fd74fdbb-ea40-4f3a-a091-38d08dfd636e.jpg\",\"img/0866/a15b02be-11bb-43e3-b0e0-ecc3bd7dfc49.jpg\"]","trial_type":"similarity","trial_index":193,"time_elapsed":1014873,"internal_node_id":"0.0-6.0-187.0"},{"sim_score":2,"rt":2928,"stimulus":"[\"img/0769/bb8c4e53-6f32-4814-97ee-392d4decfb2e.jpg\",\"img/0860/29a21a9f-54bb-4093-ad3f-04823ceaa89f.jpg\"]","trial_type":"similarity","trial_index":194,"time_elapsed":1018809,"internal_node_id":"0.0-6.0-188.0"},{"sim_score":2,"rt":3377,"stimulus":"[\"img/0881/e046471a-35b4-4159-bbf7-3cfd201bef66.jpg\",\"img/0868/d6d1f30d-4323-435a-b194-7892521bc57e.jpg\"]","trial_type":"similarity","trial_index":195,"time_elapsed":1030425,"internal_node_id":"0.0-6.0-189.0"},{"view_history":"[{\"page_index\":0,\"viewing_time\":10688}]","rt":10689,"trial_type":"instructions","trial_index":196,"time_elapsed":1042115,"internal_node_id":"0.0-7.0"},{"rt":10906,"responses":"{\"Q0\":\"Nashville Warbler\"}","answer":["Nashville Warbler"],"trial_type":"image-multi-choice","trial_index":197,"time_elapsed":1054061,"internal_node_id":"0.0-8.0-0.0"},{"rt":3444,"responses":"{\"Q0\":\"Black-and-white Warbler\"}","answer":["Black-and-white Warbler"],"trial_type":"image-multi-choice","trial_index":198,"time_elapsed":1058541,"internal_node_id":"0.0-8.0-1.0"},{"rt":3970,"responses":"{\"Q0\":\"Townsend's Warbler\"}","answer":["Townsend's Warbler"],"trial_type":"image-multi-choice","trial_index":199,"time_elapsed":1063541,"internal_node_id":"0.0-8.0-2.0"},{"rt":3564,"responses":"{\"Q0\":\"Lark Sparrow\"}","answer":["Lark Sparrow"],"trial_type":"image-multi-choice","trial_index":200,"time_elapsed":1068134,"internal_node_id":"0.0-8.0-3.0"},{"rt":2569,"responses":"{\"Q0\":\"Yellow Warbler\"}","answer":["Yellow Warbler"],"trial_type":"image-multi-choice","trial_index":201,"time_elapsed":1071734,"internal_node_id":"0.0-8.0-4.0"},{"rt":4135,"responses":"{\"Q0\":\"Orange-crowned Warbler\"}","answer":["Orange-crowned Warbler"],"trial_type":"image-multi-choice","trial_index":202,"time_elapsed":1076906,"internal_node_id":"0.0-8.0-5.0"},{"rt":4830,"responses":"{\"Q0\":\"White-throated Sparrow\"}","answer":["White-throated Sparrow"],"trial_type":"image-multi-choice","trial_index":203,"time_elapsed":1082771,"internal_node_id":"0.0-8.0-6.0"},{"rt":4364,"responses":"{\"Q0\":\"Fox Sparrow\"}","answer":["Fox Sparrow"],"trial_type":"image-multi-choice","trial_index":204,"time_elapsed":1088175,"internal_node_id":"0.0-8.0-7.0"},{"rt":22564,"responses":"{\"Q0\":\"Song Sparrow\"}","answer":["Song Sparrow"],"trial_type":"image-multi-choice","trial_index":205,"time_elapsed":1111775,"internal_node_id":"0.0-8.0-8.0"},{"rt":5099,"responses":"{\"Q0\":\"Blackburnian Warbler\"}","answer":["Blackburnian Warbler"],"trial_type":"image-multi-choice","trial_index":206,"time_elapsed":1117902,"internal_node_id":"0.0-8.0-9.0"},{"rt":7876,"responses":"{\"Q0\":\"Lincoln's Sparrow\"}","answer":["Vesper Sparrow"],"trial_type":"image-multi-choice","trial_index":207,"time_elapsed":1126807,"internal_node_id":"0.0-8.0-10.0"},{"rt":3444,"responses":"{\"Q0\":\"White-crowned Sparrow\"}","answer":["White-crowned Sparrow"],"trial_type":"image-multi-choice","trial_index":208,"time_elapsed":1131286,"internal_node_id":"0.0-8.0-11.0"},{"rt":8301,"responses":"{\"Q0\":\"American Tree Sparrow\"}","answer":["American Tree Sparrow"],"trial_type":"image-multi-choice","trial_index":209,"time_elapsed":1140623,"internal_node_id":"0.0-8.0-12.0"},{"rt":3325,"responses":"{\"Q0\":\"Tennessee Warbler\"}","answer":["Tennessee Warbler"],"trial_type":"image-multi-choice","trial_index":210,"time_elapsed":1144984,"internal_node_id":"0.0-8.0-13.0"},{"rt":5474,"responses":"{\"Q0\":\"Magnolia Warbler\"}","answer":["Magnolia Warbler"],"trial_type":"image-multi-choice","trial_index":211,"time_elapsed":1151484,"internal_node_id":"0.0-8.0-14.0"},{"rt":3292,"responses":"{\"Q0\":\"Northern Waterthrush\"}","answer":["Northern Waterthrush"],"trial_type":"image-multi-choice","trial_index":212,"time_elapsed":1155804,"internal_node_id":"0.0-8.0-15.0"},{"rt":8074,"responses":"{\"Q0\":\"Chipping Sparrow\"}","answer":["Chipping Sparrow"],"trial_type":"image-multi-choice","trial_index":213,"time_elapsed":1164915,"internal_node_id":"0.0-8.0-16.0"},{"rt":3784,"responses":"{\"Q0\":\"Swamp Sparrow\"}","answer":["Swamp Sparrow"],"trial_type":"image-multi-choice","trial_index":214,"time_elapsed":1169725,"internal_node_id":"0.0-8.0-17.0"},{"rt":21198,"responses":"{\"Q0\":\"Vesper Sparrow\"}","answer":["Lincoln's Sparrow"],"trial_type":"image-multi-choice","trial_index":215,"time_elapsed":1191959,"internal_node_id":"0.0-8.0-18.0"},{"rt":3800,"responses":"{\"Q0\":\"Ovenbird\"}","answer":["Ovenbird"],"trial_type":"image-multi-choice","trial_index":216,"time_elapsed":1196800,"internal_node_id":"0.0-8.0-19.0"}]