"view_history","rt","trial_type","trial_index","time_elapsed","internal_node_id","sim_score","stimulus","responses","answer"
"[{""page_index"":0,""viewing_time"":13244}]","13245","instructions","0","13245","0.0-0.0","","","",""
"","7945","similarity_demo","1","22201","0.0-1.0","7","[""img/bluejay1.jpg"",""img/bluejay2.jpg""]","",""
"[{""page_index"":0,""viewing_time"":6357}]","6357","instructions","2","29559","0.0-2.0","","","",""
"","5809","similarity_demo","3","36374","0.0-3.0","4","[""img/bluejay1.jpg"",""img/cardinal1.jpg""]","",""
"[{""page_index"":0,""viewing_time"":5258}]","5258","instructions","4","42633","0.0-4.0","","","",""
"[{""page_index"":0,""viewing_time"":39242}]","39244","instructions","5","82879","0.0-5.0","","","",""
"","9389","similarity","6","93281","0.0-6.0-0.0","3","[""img/0868/293079b8-7e0c-4afd-a390-1e5d35fe3ded.jpg"",""img/0894/10f22b96-040c-44f4-950b-a4963f3f506c.jpg""]","",""
"","7686","similarity","7","101973","0.0-6.0-1.0","3","[""img/0898/08c72dac-f8ad-407a-9ce6-8c9a5d679c3a.jpg"",""img/0758/d41c06bf-ebaf-454b-91c6-1a17f917b659.jpg""]","",""
"","10543","similarity","8","113522","0.0-6.0-2.0","5","[""img/0903/0fb24af7-9a26-4e9d-aadc-959a36f683e2.jpg"",""img/0894/76c1201f-8524-4865-85e6-dda8cb4ac986.jpg""]","",""
"","10921","similarity","9","125454","0.0-6.0-3.0","2","[""img/0881/f037e3b0-09cb-4a83-b2d9-6a71fe474e63.jpg"",""img/0766/989c5c7f-1aff-4442-ac63-9d46acf4a891.jpg""]","",""
"","5894","similarity","10","132358","0.0-6.0-4.0","5","[""img/0864/1d15626a-2f7c-410f-819c-0fa2c967e95e.jpg"",""img/0860/94ef7afc-e0e6-4a15-98c6-0bfac82bc832.jpg""]","",""
"","7825","similarity","11","141190","0.0-6.0-5.0","6","[""img/0902/01b41522-de46-4c3a-b0af-a61b2682b40e.jpg"",""img/0899/51a7a498-98c7-42d7-bca8-bc2d8f0b5831.jpg""]","",""
"","6577","similarity","12","148772","0.0-6.0-6.0","3","[""img/0868/e0aff734-077f-40dd-9781-74821abd3621.jpg"",""img/0769/35f2dd39-40aa-498e-b401-9f1ef2622d00.jpg""]","",""
"","8476","similarity","13","158256","0.0-6.0-7.0","6","[""img/0764/cbdc4f20-3a9a-4211-9b40-090699e0abcc.jpg"",""img/0901/d6d15b1c-4a30-4f74-a3fd-d4c8ee4169ca.jpg""]","",""
"","7763","similarity","14","167027","0.0-6.0-8.0","2","[""img/0881/ee44e27f-d662-4608-b265-e7ffa19b216f.jpg"",""img/0866/02f5e6b9-52b7-448c-9708-5b460d0c9a23.jpg""]","",""
"","6861","similarity","15","174895","0.0-6.0-9.0","2","[""img/0867/de92135f-5b65-4ed9-b245-188292c7c2f8.jpg"",""img/0899/ad8268c5-8199-48d0-ad70-c5b6d6c599ec.jpg""]","",""
"","8365","similarity","16","184266","0.0-6.0-10.0","2","[""img/0875/fb732ab5-013a-4366-9f65-27811ed157e9.jpg"",""img/0766/1bc0dccc-a5b5-4375-87fa-28360ca42b12.jpg""]","",""
"","11899","similarity","17","197219","0.0-6.0-11.0","2","[""img/0901/c6c877e0-dd63-4e00-9657-33af29d55aab.jpg"",""img/0875/42910c99-5463-450a-a0f8-d4d060a11455.jpg""]","",""
"","10961","similarity","18","209190","0.0-6.0-12.0","3","[""img/0902/c018bd7a-d91a-4192-aea4-7259cfcdb6c4.jpg"",""img/0860/31ff6436-98bf-4652-bed2-40f627229568.jpg""]","",""
"","6200","similarity","19","216397","0.0-6.0-13.0","5","[""img/0874/eba003b4-cdab-4eee-8bc3-f064c7d94165.jpg"",""img/0867/a498eef3-9fa4-4ab2-9778-4ae82ac40dc5.jpg""]","",""
"","7027","similarity","20","224430","0.0-6.0-14.0","2","[""img/0904/5cceabc9-de1d-4c67-989b-c28a4ef77e79.jpg"",""img/0866/d266fece-59b3-46fa-b69f-96f6efb81b59.jpg""]","",""
"","14733","similarity","21","240170","0.0-6.0-15.0","3","[""img/0758/dd559618-7f09-4a07-8018-d311c4a5ea29.jpg"",""img/0902/51493fab-2a10-4385-aa88-bee3db441626.jpg""]","",""
"","7376","similarity","22","248555","0.0-6.0-16.0","6","[""img/0867/8ba0c5a7-c7e4-42cf-a80a-543763b90779.jpg"",""img/0898/b3290bf9-215b-4b45-b21a-65bdf73f142f.jpg""]","",""
"","12769","similarity","23","262332","0.0-6.0-17.0","2","[""img/0904/73920552-103b-4c9c-9ece-e0b8376b4504.jpg"",""img/0868/77091fc7-a590-4ebb-b915-fdb2483a2399.jpg""]","",""
"","6556","similarity","24","269900","0.0-6.0-18.0","3","[""img/0766/d512b99c-a2dc-40d7-8e86-827323a0cbcf.jpg"",""img/0864/5f74a653-3bdc-4308-8cca-ac667dc22e1f.jpg""]","",""
"","8335","similarity","25","279242","0.0-6.0-19.0","5","[""img/0899/57476fed-5962-4272-8fc9-b317bb777b54.jpg"",""img/0766/1865bfc9-2410-4765-a804-3ae4ba2393d0.jpg""]","",""
"","8845","similarity","26","289093","0.0-6.0-20.0","2","[""img/0764/56441045-b648-4ede-9632-3e9c0227080b.jpg"",""img/0758/a085b443-b5d7-4cb2-9ad4-b9dab0fc23f1.jpg""]","",""
"","9949","similarity","27","300048","0.0-6.0-21.0","2","[""img/0901/b13fa50f-dbe0-4d0f-8647-6ac0fd8f40bd.jpg"",""img/0874/767f289c-9814-4496-803f-745cc8913d1f.jpg""]","",""
"","10233","similarity","28","311289","0.0-6.0-22.0","5","[""img/0875/e7e66b13-b573-431e-b85e-288ce04a35a3.jpg"",""img/0758/6cd8c362-ae2a-41eb-80a3-3a4f7ace1530.jpg""]","",""
"","5763","similarity","29","318058","0.0-6.0-23.0","5","[""img/0867/98d8cd96-1476-4fe0-a3a3-04f875500a1b.jpg"",""img/0881/dea58fad-b4f1-41d9-bd3f-916eff19a3fd.jpg""]","",""
"","6055","similarity","30","325120","0.0-6.0-24.0","2","[""img/0758/65d426d6-3ff6-415d-8654-a43b83ecc4fe.jpg"",""img/0901/31c032fd-3c3d-4882-a226-da9a80198937.jpg""]","",""
"","4788","similarity","31","330921","0.0-6.0-25.0","6","[""img/0868/c8ac40c7-6904-4e13-8d61-c75d3052dc4e.jpg"",""img/0875/f87b67d7-c33e-40d1-b281-248c4be1cb6e.jpg""]","",""
"","5862","similarity","32","337793","0.0-6.0-26.0","6","[""img/0903/71dbc325-b588-4297-a5cf-7f268a722ad9.jpg"",""img/0901/875dedb9-24c9-4443-9f8c-85e97d70ee5a.jpg""]","",""
"","6384","similarity","33","345184","0.0-6.0-27.0","6","[""img/0894/7dd6ff43-f8fc-408a-8a41-a2b261871820.jpg"",""img/0899/b45c550b-96c3-4255-ad59-48a2b4db1c1e.jpg""]","",""
"","5350","similarity","34","351541","0.0-6.0-28.0","5","[""img/0862/92fcd8a4-8193-4a6a-ae09-dd4a6338b0df.jpg"",""img/0867/179ab87a-8eac-4c52-a41f-2e48e3120f09.jpg""]","",""
"","6564","similarity","35","359113","0.0-6.0-29.0","6","[""img/0864/ea327690-500b-4137-bf91-451b309fe6a5.jpg"",""img/0875/527ced51-8e53-4aab-ab05-86df219104c0.jpg""]","",""
"","26374","similarity","36","386499","0.0-6.0-30.0","6","[""img/0862/cdaed51d-9e2f-4807-801a-4663c40077e2.jpg"",""img/0874/c0378dac-9370-439a-8b79-db27c96fb390.jpg""]","",""
"","6773","similarity","37","394284","0.0-6.0-31.0","3","[""img/0903/07b445ee-0cdb-4d2c-a23b-d727613f4059.jpg"",""img/0758/821c68d3-5cb0-4eae-8659-30e6263fca39.jpg""]","",""
"","5117","similarity","38","400418","0.0-6.0-32.0","2","[""img/0866/9b38d691-1802-4959-ab3f-fc902f0e4ea6.jpg"",""img/0901/4d1bed7e-3c4e-4f6c-ada9-4beb66ba9e39.jpg""]","",""
"","8134","similarity","39","409561","0.0-6.0-33.0","2","[""img/0874/ca23d307-fc00-4d7d-9106-584c6eb21b4d.jpg"",""img/0899/fd9efb43-701f-4cd6-baaa-4c38315f4bdc.jpg""]","",""
"","5466","similarity","40","416033","0.0-6.0-34.0","6","[""img/0903/680ed18e-b311-4ecf-9b00-7dea32128334.jpg"",""img/0902/bd89a85f-3853-4786-acd6-98818ee29f1c.jpg""]","",""
"","5398","similarity","41","422438","0.0-6.0-35.0","5","[""img/0758/eabcd7a8-56ad-4fd2-bc24-90f6b7b33265.jpg"",""img/0866/f756f7d1-9ad8-4a34-9ef6-7a443d705bfe.jpg""]","",""
"","4845","similarity","42","428294","0.0-6.0-36.0","3","[""img/0875/3ecb367d-e9eb-4826-8aaa-7aa72fb98019.jpg"",""img/0903/36e4ab1f-caa9-40b3-8616-faada076df94.jpg""]","",""
"","5805","similarity","43","447268","0.0-6.0-37.0","3","[""img/0864/afcba0a3-7e27-4757-b254-e9f05fad27e2.jpg"",""img/0902/b56db912-c3c0-4fc2-b325-d640acd7cb58.jpg""]","",""
"","7470","similarity","44","455750","0.0-6.0-38.0","2","[""img/0901/f1116359-1ff1-4638-b3b3-700918d36d18.jpg"",""img/0867/a749dddb-69f0-44a6-acdc-2bf295cf6dcc.jpg""]","",""
"","5102","similarity","45","461865","0.0-6.0-39.0","6","[""img/0862/5d887e9f-89e2-4ebc-80a0-6d46fe6480db.jpg"",""img/0860/17b44a7d-c5ca-479f-9e87-f65a64f5c80e.jpg""]","",""
"","5119","similarity","46","467999","0.0-6.0-40.0","6","[""img/0867/2e1a0b58-cdb1-4107-a14e-452530d7b9b0.jpg"",""img/0868/83b4350a-3b70-4cea-b7f5-b5b56f3050a8.jpg""]","",""
"","4510","similarity","47","473519","0.0-6.0-41.0","5","[""img/0904/b5855d6a-7ef9-46ca-9215-6e9fa046e543.jpg"",""img/0899/f58b8d2f-b19d-4b59-8b94-8834be92e4ba.jpg""]","",""
"","6997","similarity","48","481523","0.0-6.0-42.0","2","[""img/0862/ba89835a-408c-480b-8594-ed4ffa97eb5c.jpg"",""img/0894/5c7677b0-a4f1-479e-b274-7822c415175a.jpg""]","",""
"","9521","similarity","49","492051","0.0-6.0-43.0","2","[""img/0875/5a716432-c6ca-4b1c-955a-2b8ac25198ee.jpg"",""img/0904/9d30eff1-46ef-4453-b11e-124ef8145c00.jpg""]","",""
"","22755","similarity","50","515812","0.0-6.0-44.0","2","[""img/0874/7e4f2150-3b59-4a36-b5da-a4e0ba410531.jpg"",""img/0898/b2732712-71c2-45d8-834f-2b2ed5504910.jpg""]","",""
"","7634","similarity","51","524460","0.0-6.0-45.0","1","[""img/0898/04e39a7a-fcf6-4156-ab0e-f5871f335e1c.jpg"",""img/0868/4bd5105a-d2c3-4f82-8c80-57196106ba53.jpg""]","",""
"","8334","similarity","52","533809","0.0-6.0-46.0","3","[""img/0901/d61f267a-c492-4db6-9bfb-61efd49cf072.jpg"",""img/0860/4a022222-056d-461c-ab02-39fac9647552.jpg""]","",""
"","8424","similarity","53","543243","0.0-6.0-47.0","5","[""img/0894/492d2f29-d7b9-4422-8be8-47fd58bfaa8b.jpg"",""img/0902/22ed3536-288b-452e-9777-0fa0ab94deb0.jpg""]","",""
"","7295","similarity","54","551545","0.0-6.0-48.0","2","[""img/0764/e30dba15-e68a-4659-89db-e1654b52fe02.jpg"",""img/0862/7918ca67-5bd3-4606-a5ea-c39fb11a9297.jpg""]","",""
"","10803","similarity","55","563355","0.0-6.0-49.0","6","[""img/0881/c843e210-bdfe-4a7c-8bbe-fcea1f90fe1c.jpg"",""img/0758/2fa3e613-e676-4e6e-bd12-705327eeb3e1.jpg""]","",""
"","18555","similarity","56","582916","0.0-6.0-50.0","6","[""img/0766/69e486f7-dbef-456b-9d48-53d814248a28.jpg"",""img/0769/f6396414-6788-4d59-9683-de153298d89c.jpg""]","",""
"","7329","similarity","57","591256","0.0-6.0-51.0","6","[""img/0875/cff79b3a-a797-4393-9757-6275f999ec04.jpg"",""img/0866/0207e9a2-7dbb-40b5-9459-b472aaeceb2a.jpg""]","",""
"","8788","similarity","58","601057","0.0-6.0-52.0","7","[""img/0894/a3d4170b-b7d8-40e3-955f-87e76ed745fc.jpg"",""img/0904/d23dd7be-7fe8-4435-82f7-bd592c01e6a1.jpg""]","",""
"","6430","similarity","59","608498","0.0-6.0-53.0","2","[""img/0758/e1ba5e53-addc-436a-b428-d34fc1b130dc.jpg"",""img/0769/458d9c77-b844-40b5-bb1b-1e3bbd4da64e.jpg""]","",""
"","6323","similarity","60","615828","0.0-6.0-54.0","3","[""img/0902/af40b98b-3d23-4d95-b401-49ba5783ce39.jpg"",""img/0874/85eb9b8a-c4c6-4e5a-b8e7-363a87a82054.jpg""]","",""
"","5998","similarity","61","622833","0.0-6.0-55.0","2","[""img/0903/6a87dbad-9b8d-4ff5-9c41-03c9aa24f0c3.jpg"",""img/0862/e697469a-ec19-4414-b972-7b9f3564785b.jpg""]","",""
"","57996","similarity","62","681841","0.0-6.0-56.0","2","[""img/0866/620cd1aa-0800-4414-8f6e-90342e7a99ad.jpg"",""img/0894/8cadb87a-7001-4e47-99fb-1867bebf1668.jpg""]","",""
"","5968","similarity","63","688820","0.0-6.0-57.0","2","[""img/0867/f8159067-056c-41f1-a136-c529fe5e970a.jpg"",""img/0904/696ebb60-8891-417a-91fd-c53218907a95.jpg""]","",""
"","5653","similarity","64","695478","0.0-6.0-58.0","6","[""img/0875/d59ff733-eaff-4ee2-9443-06954dd0bcb6.jpg"",""img/0881/4bd34581-94d8-4e88-8c89-5cef864ca3be.jpg""]","",""
"","6113","similarity","65","702597","0.0-6.0-59.0","5","[""img/0866/07c9c966-3c8d-40e7-8128-92b2acbaed5d.jpg"",""img/0860/e8b8c51e-1834-4875-8b61-6c5bc9b178bd.jpg""]","",""
"","7257","similarity","66","710860","0.0-6.0-60.0","2","[""img/0903/150cf64c-0bd2-4674-abbb-a1387cf1f3e9.jpg"",""img/0866/a04d37f0-99dd-478a-b6c6-58b215138f84.jpg""]","",""
"","6627","similarity","67","718497","0.0-6.0-61.0","5","[""img/0860/71e1aad0-2cdf-43bb-94a4-a8c016997c30.jpg"",""img/0875/03c3c331-738b-4446-af92-3d7386b08c2e.jpg""]","",""
"","5192","similarity","68","724696","0.0-6.0-62.0","2","[""img/0898/c3cecf20-f7fd-45fa-97d0-dc0a63e8d6c0.jpg"",""img/0862/f23038d4-c366-4f70-979f-66b62362efa4.jpg""]","",""
"","7835","similarity","69","733540","0.0-6.0-63.0","5","[""img/0902/d5e25767-e8ec-45f3-ac0a-7b4a6f7a9edc.jpg"",""img/0766/db750ba0-ce04-46e1-b601-e1b80212bad2.jpg""]","",""
"","6882","similarity","70","741439","0.0-6.0-64.0","6","[""img/0758/f61ecdf8-a7d4-4db0-b84d-be46f7cfaffc.jpg"",""img/0864/3d4de670-b290-4285-9c3d-12a0e3af44e9.jpg""]","",""
"","6298","similarity","71","748745","0.0-6.0-65.0","2","[""img/0894/6b2e9509-8699-42b7-9582-7741df0ba2d7.jpg"",""img/0860/524b2e98-5767-4d53-942c-ebae6925659b.jpg""]","",""
"","11559","similarity","72","761311","0.0-6.0-66.0","2","[""img/0899/8abe6c69-822c-436c-9bf2-96c818b49ba5.jpg"",""img/0868/1a62b2b2-18f5-466e-b564-5176a57c565e.jpg""]","",""
"","6248","similarity","73","768568","0.0-6.0-67.0","5","[""img/0866/bf14b5bd-fb55-47db-86b9-4f8aeb9a6dad.jpg"",""img/0862/de9ad88c-b522-430a-8ee9-eb06a9f85df5.jpg""]","",""
"","6665","similarity","74","776240","0.0-6.0-68.0","4","[""img/0860/5bff793e-cbd5-4d7e-b628-0ac2b0e30b64.jpg"",""img/0758/d540bee6-b460-4c32-ac57-bc282742d7d4.jpg""]","",""
"","6632","similarity","75","783878","0.0-6.0-69.0","2","[""img/0902/07437a16-3d0f-4a5c-89ec-36d0efa4b3b8.jpg"",""img/0867/6e19c858-b606-45b2-a4c6-910a73f1d82c.jpg""]","",""
"","5902","similarity","76","790785","0.0-6.0-70.0","3","[""img/0862/57b6f83f-c763-4858-830d-102f97bfefbf.jpg"",""img/0901/f469cb1d-6d81-4a45-bab5-cd0b650c2b4f.jpg""]","",""
"","7808","similarity","77","799602","0.0-6.0-71.0","7","[""img/0867/075e0f95-856b-4cbb-acf5-092393aaf04e.jpg"",""img/0866/23a224f3-2012-4fc8-8e0f-3c36f8de27fd.jpg""]","",""
"","5774","similarity","78","806387","0.0-6.0-72.0","2","[""img/0860/c7047cd2-7cc1-41b6-8a34-c0986774975f.jpg"",""img/0904/65e2b70a-b184-4da3-b5c0-5038bdf9469a.jpg""]","",""
"","7200","similarity","79","814598","0.0-6.0-73.0","2","[""img/0875/90da8d75-108a-44ad-b999-e21fee3860d3.jpg"",""img/0899/4408c14d-c168-4a7d-96f6-bc87bfb58f83.jpg""]","",""
"","5278","similarity","80","820882","0.0-6.0-74.0","3","[""img/0899/0adc0bc3-6fca-4078-be6f-d45ddf1653d5.jpg"",""img/0758/ddc336e9-a8b6-4bb9-937a-c7e25e0e9250.jpg""]","",""
"","6574","similarity","81","1627448","0.0-6.0-75.0","4","[""img/0862/f43ceabf-acc1-4107-b857-5d1849808f93.jpg"",""img/0875/34132396-d896-4c2d-8087-646dd867e769.jpg""]","",""
"","4881","similarity","82","1633341","0.0-6.0-76.0","5","[""img/0901/2a953e50-d237-405c-a38d-5ed21494c968.jpg"",""img/0894/5f15154e-e72e-4ce5-aafb-bce6f0564006.jpg""]","",""
"","6018","similarity","83","1640367","0.0-6.0-77.0","3","[""img/0766/26d3ae14-8275-4e08-99b2-a6598c193ddf.jpg"",""img/0758/9fb5b2fe-3f00-4fe6-973c-1ce10d5f4cd5.jpg""]","",""
"","5960","similarity","84","1647338","0.0-6.0-78.0","6","[""img/0894/3664e04c-c6d3-4c9b-afb6-25d89974b174.jpg"",""img/0764/da207710-e7e4-4f42-b2e6-99b5f357f433.jpg""]","",""
"","5546","similarity","85","1653898","0.0-6.0-79.0","5","[""img/0860/c3379ff7-0763-48fe-a1ec-7ea3d611bc7a.jpg"",""img/0867/f26f6b60-f772-4f4c-95a4-addc62cfd692.jpg""]","",""
"","5433","similarity","86","1660343","0.0-6.0-80.0","6","[""img/0898/5f699581-3853-4547-856c-12f419ba5af7.jpg"",""img/0901/0adb3bd6-d758-4ba7-9723-3ad6cac05bd5.jpg""]","",""
"","8009","similarity","87","1669359","0.0-6.0-81.0","3","[""img/0874/1016b306-087c-4afc-aa08-fa527b28dc76.jpg"",""img/0764/f2f23359-8e82-41d3-8900-5b9f4433991d.jpg""]","",""
"","5990","similarity","88","1676356","0.0-6.0-82.0","2","[""img/0899/0e1d936a-dbe2-4afc-9f19-7b7a1ae6c9ed.jpg"",""img/0862/24cdc752-c2e5-4a17-86a6-6f2045d8553b.jpg""]","",""
"","4651","similarity","89","1682014","0.0-6.0-83.0","4","[""img/0766/d14acac4-7db1-4b07-8f8f-302437326fc0.jpg"",""img/0901/7c16dd9c-44ad-4d5b-990c-6a0b9b48b1b1.jpg""]","",""
"","7509","similarity","90","1690532","0.0-6.0-84.0","2","[""img/0881/c24f3051-eefa-42de-aba6-fccb56d93c70.jpg"",""img/0898/ec565187-2e31-4fdd-9a5c-153d0c789ae0.jpg""]","",""
"","4608","similarity","91","1696146","0.0-6.0-85.0","4","[""img/0868/4a8a45ed-2c4f-421b-9564-409a33ecd26c.jpg"",""img/0860/c47fdead-eb02-4989-b078-26f4852f44fe.jpg""]","",""
"","4391","similarity","92","1701542","0.0-6.0-86.0","4","[""img/0758/7ee8bc8f-c40b-4b3a-84ec-3e83580622d4.jpg"",""img/0868/4e626425-63c8-484a-8a1d-e66ee4e0bef8.jpg""]","",""
"","5020","similarity","93","1707568","0.0-6.0-87.0","2","[""img/0864/f92649a2-0590-4d31-9a7a-1bfb81666a2d.jpg"",""img/0894/11674fa4-285d-44e2-939f-2228c6a64080.jpg""]","",""
"","5830","similarity","94","1714406","0.0-6.0-88.0","2","[""img/0866/6f2a90d7-14f1-4f1b-bd64-fc0af6b9fe44.jpg"",""img/0902/962f645e-9b55-4628-9b50-c703422bfe1a.jpg""]","",""
"","6206","similarity","95","1721630","0.0-6.0-89.0","3","[""img/0769/3adfa417-3b90-4aab-b437-5eaa474189cb.jpg"",""img/0867/cc72ed48-7704-422c-86d6-467a1145287a.jpg""]","",""
"","6606","similarity","96","1729246","0.0-6.0-90.0","4","[""img/0874/a82926a3-0b43-4add-803c-d5f9ea7798ee.jpg"",""img/0875/5a1e5100-0d94-4fec-bbe9-ca9894d2cf8e.jpg""]","",""
"","5988","similarity","97","1736241","0.0-6.0-91.0","6","[""img/0864/8ddd2e30-a1d0-479f-9cbe-591213023893.jpg"",""img/0874/995f0332-0439-4eb4-add3-957335dbf6d9.jpg""]","",""
"","4345","similarity","98","1741593","0.0-6.0-92.0","4","[""img/0881/b549bc99-a61c-4450-bab5-9efc3a197bf0.jpg"",""img/0862/eefa5588-9efd-4591-aa5f-a2e17c7d7bcc.jpg""]","",""
"","8658","similarity","99","1751258","0.0-6.0-93.0","5","[""img/0864/efcfbb1b-8197-44c9-b723-40d6c608dd3c.jpg"",""img/0881/609a5e93-38b5-4940-8627-2bf8fad7f802.jpg""]","",""
"","7861","similarity","100","1760126","0.0-6.0-94.0","5","[""img/0899/a048912c-b12c-40e3-90af-46b69b0cc4fe.jpg"",""img/0901/71e551a2-9ce2-409c-9c7c-dd556a0791e9.jpg""]","",""
"","4384","similarity","101","1765515","0.0-6.0-95.0","3","[""img/0874/31e22c7c-99aa-40b1-bf03-dd73fa2df4d6.jpg"",""img/0766/0b48f9e0-7d37-4161-8adb-4e3f5b6b7583.jpg""]","",""
"","5933","similarity","102","1772453","0.0-6.0-96.0","3","[""img/0881/33d65d80-8a8e-4ecf-852d-0ad7725c17a2.jpg"",""img/0899/76ad07e2-ca25-45eb-84f2-8d80b8ca3e26.jpg""]","",""
"","4558","similarity","103","1778020","0.0-6.0-97.0","4","[""img/0862/99a99e39-8355-44ec-b993-e7bcec111e1c.jpg"",""img/0902/511abb54-0094-4f4d-b6dc-3f2c97050521.jpg""]","",""
"","6317","similarity","104","1785346","0.0-6.0-98.0","6","[""img/0899/66bf4113-ee12-426c-84d2-ea410b6c803e.jpg"",""img/0764/e48e6c6f-9e28-420f-836a-8043b2319bb4.jpg""]","",""
"","5899","similarity","105","1792257","0.0-6.0-99.0","5","[""img/0758/335851a0-a55b-46d8-ab05-8463eda48349.jpg"",""img/0862/e0f1a4e9-e1b6-45f7-af67-89f334e6630d.jpg""]","",""
"","6592","similarity","106","1799859","0.0-6.0-100.0","5","[""img/0764/55b3fab1-b809-4d38-a461-3f40ce062f52.jpg"",""img/0898/224c1572-56b9-4f16-a9e4-6f3bc9c114bd.jpg""]","",""
"","6330","similarity","107","1807195","0.0-6.0-101.0","6","[""img/0901/5657dd86-0ff9-4753-ba2b-9dfb223e5c89.jpg"",""img/0902/95a36b6b-9601-4fa5-8fd9-606ea62f9425.jpg""]","",""
"","4644","similarity","108","1812846","0.0-6.0-102.0","2","[""img/0764/3297a811-ea8b-4d74-9547-59cecab7293a.jpg"",""img/0868/15dd6fd7-791e-4b53-b203-195d617521a4.jpg""]","",""
"","5634","similarity","109","1819487","0.0-6.0-103.0","3","[""img/0769/48a1144d-fbda-4809-991b-fc8424a32ee4.jpg"",""img/0881/adc02f34-ce97-4aef-850f-00519df06fd7.jpg""]","",""
"","6540","similarity","110","1827035","0.0-6.0-104.0","3","[""img/0864/e336a4c5-6648-4fd7-b2f6-93a3fb83f8c6.jpg"",""img/0769/e31b3bd8-efcb-413e-aa8c-75fac2b8f2ac.jpg""]","",""
"","5214","similarity","111","1833255","0.0-6.0-105.0","6","[""img/0866/11a1d141-be5e-443c-98c1-a9d4d9e3dec0.jpg"",""img/0868/8b0b8473-e2c0-4331-aa56-c3a5c29369da.jpg""]","",""
"","4627","similarity","112","1838887","0.0-6.0-106.0","4","[""img/0868/0d3abd3a-b6c3-4584-a9f7-e2da63748b3d.jpg"",""img/0862/fad1d7c1-8187-43c3-942a-0fc12183e48e.jpg""]","",""
"","5204","similarity","113","1845108","0.0-6.0-107.0","4","[""img/0766/af3be95e-e52e-4fae-899b-0ff02ec340aa.jpg"",""img/0898/a8f16b02-e19f-423b-86c3-a36562ae1f9b.jpg""]","",""
"","6239","similarity","114","1852361","0.0-6.0-108.0","3","[""img/0898/79233891-305a-4a6a-8ddf-5c8604858203.jpg"",""img/0864/65210d57-1153-4657-886a-32e758f49b4a.jpg""]","",""
"","5006","similarity","115","1858379","0.0-6.0-109.0","2","[""img/0868/179a5502-ab5c-478e-8263-5a1fbcc101d2.jpg"",""img/0902/418b716e-63e5-4c77-93e9-95b1f5a3ddf0.jpg""]","",""
"","5469","similarity","116","1864858","0.0-6.0-110.0","6","[""img/0904/6291eb43-c10c-4810-a36a-101d09868b04.jpg"",""img/0764/d7f3ac54-318a-4dac-a06b-62bed34d01a4.jpg""]","",""
"","7358","similarity","117","1873223","0.0-6.0-111.0","3","[""img/0894/05161000-f476-499b-a878-c13c7f347fd9.jpg"",""img/0875/a4935837-7d3c-4df6-88c1-36a94d4991ca.jpg""]","",""
"","6594","similarity","118","1880823","0.0-6.0-112.0","5","[""img/0868/7b212364-ff5f-4e28-9241-7eb6ea00161b.jpg"",""img/0874/29830da7-be5f-44e5-b141-652a0ccf7269.jpg""]","",""
"","9316","similarity","119","2001899","0.0-6.0-113.0","5","[""img/0904/0d17b811-063e-416e-a23c-3b3cfa4fcce5.jpg"",""img/0898/8605a25b-6895-476d-8c13-df7a83f96093.jpg""]","",""
"","6455","similarity","120","2009367","0.0-6.0-114.0","4","[""img/0860/fd4662f9-4c03-4d79-8593-06735e55a64b.jpg"",""img/0766/d3bab2fc-ddcc-40a0-bb72-c0d0ebe19978.jpg""]","",""
"","4041","similarity","121","2014415","0.0-6.0-115.0","4","[""img/0894/e2446cf5-cd48-486a-badc-76498e087fbe.jpg"",""img/0874/93d1f8dc-acf2-4f03-bd8d-8ec35df276ed.jpg""]","",""
"","4961","similarity","122","2020394","0.0-6.0-116.0","4","[""img/0899/fef567a2-c121-4481-9af0-ff108d199bbf.jpg"",""img/0903/a0673b55-6040-47fe-9040-24bca27ca3c9.jpg""]","",""
"","7843","similarity","123","2029249","0.0-6.0-117.0","3","[""img/0881/4da99fdd-1f40-4bbb-8e21-8833eef313f5.jpg"",""img/0764/6c7fe363-2d37-418f-9e5e-a3273af5d4fb.jpg""]","",""
"","6069","similarity","124","2036328","0.0-6.0-118.0","5","[""img/0903/f10e9eb5-0c21-4a6a-944c-5f10a6d0fa4d.jpg"",""img/0769/35364db7-e0d5-40ef-93dc-faf9dfb95136.jpg""]","",""
"","6770","similarity","125","2044104","0.0-6.0-119.0","5","[""img/0901/58978a6d-a3e2-4c59-8d62-f60693ecc0f6.jpg"",""img/0904/2c98dc56-88d1-4fb5-a999-b6a7861f65f0.jpg""]","",""
"","5420","similarity","126","2050533","0.0-6.0-120.0","5","[""img/0860/61fb959d-d4d9-4de4-9e4e-4fa62b4cfcd5.jpg"",""img/0881/7e31e5dc-2240-4b1b-b5a0-3acd980099ef.jpg""]","",""
"","5274","similarity","127","2056814","0.0-6.0-121.0","5","[""img/0758/3ddd05d3-557e-4ee7-8b78-9d2d681d8ae2.jpg"",""img/0874/3f471690-9788-4d03-90c7-f615aecef149.jpg""]","",""
"","3783","similarity","128","2061609","0.0-6.0-122.0","4","[""img/0901/77087ed2-6e12-4329-b2a5-605bca6d972d.jpg"",""img/0769/9ea27d61-3d55-418c-8d14-82e90f656f01.jpg""]","",""
"","8551","similarity","129","2071173","0.0-6.0-123.0","6","[""img/0902/27b84584-948a-485b-8749-cb09929ef631.jpg"",""img/0904/1d10df11-b5c8-4370-9a6b-097a7f965895.jpg""]","",""
"","5247","similarity","130","2077430","0.0-6.0-124.0","3","[""img/0899/93494f3b-d539-4075-b027-d82e344563da.jpg"",""img/0864/1ebbc554-99fa-49f9-8799-317375a79820.jpg""]","",""
"","6711","similarity","131","2085150","0.0-6.0-125.0","2","[""img/0766/27f54113-8561-4568-9ffe-0a1650ae65ec.jpg"",""img/0868/d98ca254-b195-477f-b57e-5760a2717db8.jpg""]","",""
"","6970","similarity","132","2093132","0.0-6.0-126.0","3","[""img/0764/62fafeea-6274-48ce-976f-35d3d3484c65.jpg"",""img/0864/e8bd659f-aa43-4748-877e-3118e8b4e189.jpg""]","",""
"","5753","similarity","133","2099894","0.0-6.0-127.0","3","[""img/0899/7f9d45d0-b2c6-40d3-aa41-c207db2c411b.jpg"",""img/0866/945c6710-d15b-4a5b-a8f6-69af0850357f.jpg""]","",""
"","7235","similarity","134","2108133","0.0-6.0-128.0","1","[""img/0901/33b51a81-06d9-46d9-9d4f-5a2d6d6b8058.jpg"",""img/0881/44e09805-5a25-4f17-a716-4ad4a331b174.jpg""]","",""
"","7483","similarity","135","2116623","0.0-6.0-129.0","7","[""img/0898/cd3aaa3f-efa9-4ab3-8d6f-a6a9273ddf42.jpg"",""img/0903/ea75f240-fb62-4edb-a709-83e858b202c0.jpg""]","",""
"","6390","similarity","136","2124018","0.0-6.0-130.0","3","[""img/0894/5ff3c4f6-52e2-4075-8679-be0312e59703.jpg"",""img/0867/aa05d113-fc19-4756-a8eb-7878f580bc92.jpg""]","",""
"","7373","similarity","137","2132402","0.0-6.0-131.0","3","[""img/0874/adf9a8f1-c40b-402b-b95b-1e85a54a7b62.jpg"",""img/0903/5248eedd-7e6a-4d39-91b0-06ec227f3ed0.jpg""]","",""
"","5626","similarity","138","2139045","0.0-6.0-132.0","4","[""img/0899/0433d056-aa30-4f8a-9aa1-abbb951e4edd.jpg"",""img/0898/01bfe666-3510-4fc7-964f-d00d28732dc8.jpg""]","",""
"","6829","similarity","139","2146885","0.0-6.0-133.0","2","[""img/0867/5e07b34d-b40f-4b1c-ac10-49975bace45f.jpg"",""img/0764/952d7adc-dc40-4aee-acce-18c2a1d02ea1.jpg""]","",""
"","11154","similarity","140","2159053","0.0-6.0-134.0","4","[""img/0866/4a87911a-d5be-4d4e-ab8e-3d1f581bf507.jpg"",""img/0769/82ab9db6-4578-4e79-874f-f09100439f09.jpg""]","",""
"","8147","similarity","141","2168211","0.0-6.0-135.0","2","[""img/0860/e14d67c1-6d92-4f1e-9257-c8607159c19c.jpg"",""img/0898/0af304a2-6a7a-4082-ab7c-4450cd08cc58.jpg""]","",""
"","9319","similarity","142","2178535","0.0-6.0-136.0","2","[""img/0881/633c6f40-56d9-4b48-bf1c-ecd83116eabb.jpg"",""img/0903/43ffd882-077a-40dd-a264-e58d519420a1.jpg""]","",""
"","4553","similarity","143","2184096","0.0-6.0-137.0","4","[""img/0894/86201968-6e78-4d68-9b3a-d1692e066210.jpg"",""img/0766/214866ee-423d-4629-9bb9-41572bdc7dac.jpg""]","",""
"","5598","similarity","144","2190699","0.0-6.0-138.0","1","[""img/0860/29a21a9f-54bb-4093-ad3f-04823ceaa89f.jpg"",""img/0764/ba0c0955-acbb-457d-b1c2-f006b88121d5.jpg""]","",""
"","5650","similarity","145","2197357","0.0-6.0-139.0","4","[""img/0769/662ab839-88d1-4ebf-af05-9b2980cad943.jpg"",""img/0902/b03fee99-d5ca-4bf8-871c-a4a743a39842.jpg""]","",""
"","5344","similarity","146","2203707","0.0-6.0-140.0","4","[""img/0904/4d7d70a3-9477-4921-bda0-f9531d0a5c5b.jpg"",""img/0903/2c7b4aed-6038-4aac-958a-e3e58341c313.jpg""]","",""
"","9441","similarity","147","2214154","0.0-6.0-141.0","6","[""img/0764/713cc27e-2338-4486-bfe9-5f5725fbd7a0.jpg"",""img/0769/965c3c44-d9e5-47c5-b61a-2bbdf4215d9a.jpg""]","",""
"","6924","similarity","148","2222086","0.0-6.0-142.0","3","[""img/0902/168ebd47-9e82-4ab7-a18b-c3da85072db8.jpg"",""img/0881/ed4c971f-0873-4fc8-b6d6-e8bbd82f0bcc.jpg""]","",""
"","6393","similarity","149","2229491","0.0-6.0-143.0","3","[""img/0866/8efcaa46-83ab-4dee-a35f-850402aa21ae.jpg"",""img/0864/49150900-7f25-4ce8-8d10-9b47a71d1997.jpg""]","",""
"","7658","similarity","150","2238157","0.0-6.0-144.0","6","[""img/0902/e5a46bda-30d1-41ca-b36d-b8529b5a63d1.jpg"",""img/0898/e167334e-cc1d-4986-b3b1-c7bc7da64baa.jpg""]","",""
"","5147","similarity","151","2244311","0.0-6.0-145.0","6","[""img/0862/fb26cb07-d5a9-4653-813c-f41609f26cd5.jpg"",""img/0864/0116ca98-293d-4fa6-a93b-5a6144ef64cc.jpg""]","",""
"","5996","similarity","152","2251313","0.0-6.0-146.0","1","[""img/0875/99698b4d-b4a1-44bc-8c83-8ea755bbbf61.jpg"",""img/0898/661621d4-a14e-487c-8c74-354134a29710.jpg""]","",""
"","8274","similarity","153","2260595","0.0-6.0-147.0","6","[""img/0874/bf14b896-e930-4fd9-9c05-2e83317a2773.jpg"",""img/0881/f6bd3b96-dc40-4e99-8681-bc3a35cf896d.jpg""]","",""
"","5489","similarity","154","2267096","0.0-6.0-148.0","3","[""img/0758/7fba58df-2a7a-4b76-8a8f-62739f97f271.jpg"",""img/0894/3adef67d-7676-4995-80b2-bb31b8aca3ef.jpg""]","",""
"","5622","similarity","155","2273729","0.0-6.0-149.0","2","[""img/0904/e9423a8c-f946-43ad-ab7b-931acef870e2.jpg"",""img/0864/e02eddb5-f468-499c-91bf-f7be3ffe979b.jpg""]","",""
"","9138","similarity","156","2283873","0.0-6.0-150.0","4","[""img/0769/c34b7763-8ff2-46d5-9e92-f1d8f3bedbd8.jpg"",""img/0899/06b0fc99-0581-461a-9913-d1a5a941ac61.jpg""]","",""
"","4503","similarity","157","2320091","0.0-6.0-151.0","4","[""img/0764/fb92924f-5cfe-4b89-b130-0cce8cc5636b.jpg"",""img/0903/647ce311-8c71-479a-8361-961db1457139.jpg""]","",""
"","5753","similarity","158","2326856","0.0-6.0-152.0","3","[""img/0903/31b5a5f4-b695-4af1-bad2-a19650a05498.jpg"",""img/0864/9b2490c5-a282-400a-9736-e1a0ecbf1cb7.jpg""]","",""
"","4452","similarity","159","2332314","0.0-6.0-153.0","3","[""img/0894/e5edf723-72a5-4673-8441-6c1734a8929b.jpg"",""img/0881/566f45f8-5fed-4479-a60f-26377e60a62d.jpg""]","",""
"","6641","similarity","160","2339961","0.0-6.0-154.0","5","[""img/0875/dbdd643e-6d0e-4a5c-ab57-b9c29b9c981a.jpg"",""img/0867/f8488a47-94ee-4166-952c-44e16cf172f6.jpg""]","",""
"","5290","similarity","161","2346258","0.0-6.0-155.0","3","[""img/0867/85a96c62-548f-4994-9553-819e03c3135a.jpg"",""img/0758/53f35650-e455-4b53-8be4-c3c8271c6466.jpg""]","",""
"","6889","similarity","162","2354164","0.0-6.0-156.0","3","[""img/0868/09a9ef4d-d000-4cfa-a6aa-ebec7c2edeb4.jpg"",""img/0901/148b747a-7392-437e-8823-33053c5dff3f.jpg""]","",""
"","4979","similarity","163","2360153","0.0-6.0-157.0","7","[""img/0769/688d0c52-ad73-4065-a5eb-f8c10d076bff.jpg"",""img/0894/bd34223a-2f66-4e16-9d18-193a746b69ff.jpg""]","",""
"","5194","similarity","164","2366360","0.0-6.0-158.0","4","[""img/0904/a8c3c7d2-9bcf-4347-9e03-8203adfc1fc5.jpg"",""img/0758/a709631e-3705-4725-ac40-f0d916924f08.jpg""]","",""
"","11515","similarity","165","2378882","0.0-6.0-159.0","3","[""img/0874/3ce41e7c-40c8-4d58-a546-171114521796.jpg"",""img/0904/4e58005d-a2ec-4aaa-b199-445343561396.jpg""]","",""
"","6164","similarity","166","2386053","0.0-6.0-160.0","2","[""img/0864/3651d070-2fc5-4848-b6a6-088a2d9ac5c9.jpg"",""img/0901/b453df0b-4c39-49bb-8ced-6127efffa898.jpg""]","",""
"","5415","similarity","167","2392474","0.0-6.0-161.0","3","[""img/0898/0c7dde4f-efce-4b7a-9387-6921635b7890.jpg"",""img/0866/be24ab58-230e-4db8-9f45-ff04c9aec6bb.jpg""]","",""
"","8741","similarity","168","2402222","0.0-6.0-162.0","3","[""img/0766/f5f78e4e-d88f-4866-951a-118ba9fec4d0.jpg"",""img/0903/6f343da5-00d9-4d50-89d1-2ed24cdb8319.jpg""]","",""
"","12973","similarity","169","2416203","0.0-6.0-163.0","5","[""img/0860/18dfed73-e36b-4487-a8bd-0b8cff8e3668.jpg"",""img/0899/ddf96ade-692e-4602-bd22-dedbb46401bc.jpg""]","",""
"","5334","similarity","170","2422545","0.0-6.0-164.0","3","[""img/0766/00891401-e4c9-4ce1-bc19-f70740d174bc.jpg"",""img/0862/47ed5efd-4ec9-4b74-bb4e-a5f5cf0c3e7d.jpg""]","",""
"","6139","similarity","171","2429698","0.0-6.0-165.0","5","[""img/0898/40f99fb2-64d2-4e72-8a7f-a1cf60741e69.jpg"",""img/0894/661b9f9f-4bde-487a-b1ed-87085fde6948.jpg""]","",""
"","6819","similarity","172","2437527","0.0-6.0-166.0","2","[""img/0867/db7e032f-162b-46f5-ae67-2b29679adee4.jpg"",""img/0766/ef3b15ce-abb7-4292-ad93-aec8e8b50520.jpg""]","",""
"","5160","similarity","173","2443693","0.0-6.0-167.0","3","[""img/0904/da170c1b-9651-4f08-b231-2bdd1d9a046f.jpg"",""img/0862/e8cc3bdf-cc43-4565-bccf-492626c70953.jpg""]","",""
"","6948","similarity","174","2451648","0.0-6.0-168.0","5","[""img/0866/93a27239-8317-4e08-98ca-d8b1ff298e07.jpg"",""img/0874/99f6563c-8a8d-4c1c-a41d-667b618c3fd5.jpg""]","",""
"","5879","similarity","175","2458533","0.0-6.0-169.0","2","[""img/0903/70d764d9-1f35-4da7-a35d-4cc39834d270.jpg"",""img/0868/6a28c3b0-3d76-498a-9fb7-ddafc665eca8.jpg""]","",""
"","6541","similarity","176","2466083","0.0-6.0-170.0","7","[""img/0769/0fe124d3-bcad-45f6-b64d-8f6eb8ee5251.jpg"",""img/0904/09934646-45d2-4147-8fec-64a22a5ac822.jpg""]","",""
"","4944","similarity","177","2472038","0.0-6.0-171.0","2","[""img/0875/5a7c4e35-6514-4e12-8879-d16071da4cd6.jpg"",""img/0764/1def7b22-b054-4ec2-860b-73d25691823b.jpg""]","",""
"","5627","similarity","178","2478680","0.0-6.0-172.0","3","[""img/0860/5383b320-1518-4095-a58e-5cc1ae30b64c.jpg"",""img/0903/b548d383-2a95-4575-8c13-647873751ff1.jpg""]","",""
"","5925","similarity","179","2485618","0.0-6.0-173.0","3","[""img/0864/5f33e097-23e3-4002-882d-76e8cb15f451.jpg"",""img/0867/ac1797e4-8afc-48fe-b252-86d1defb1cca.jpg""]","",""
"","6321","similarity","180","2492953","0.0-6.0-174.0","3","[""img/0868/5fa7f9d0-f0e5-454c-8224-74d964818f56.jpg"",""img/0864/87c467d3-abca-482f-ad80-3766c21b1bb3.jpg""]","",""
"","7400","similarity","181","2501365","0.0-6.0-175.0","6","[""img/0898/4184e5a2-84ea-4f36-9b42-ae58646f6f87.jpg"",""img/0769/9ea9ceb6-049e-4ad9-be8f-00645cd35803.jpg""]","",""
"","5107","similarity","182","2507482","0.0-6.0-176.0","6","[""img/0766/535849cc-ff5d-4df9-8f31-0ce94a97d571.jpg"",""img/0764/bd2eaa3e-95a9-4a59-a78e-3f81c766eea9.jpg""]","",""
"","5709","similarity","183","2514196","0.0-6.0-177.0","2","[""img/0764/438c0217-036f-43c9-9b87-f43144e46011.jpg"",""img/0866/386235d2-6857-41e7-88a8-25cfc3430025.jpg""]","",""
"","5243","similarity","184","2520445","0.0-6.0-178.0","3","[""img/0902/31abfa33-7cdb-44ad-968e-9f7b324d577a.jpg"",""img/0875/2c361b79-c3d1-4eda-812e-bf03192407bf.jpg""]","",""
"","4729","similarity","185","2526187","0.0-6.0-179.0","3","[""img/0881/84397291-bc14-4fbf-90e8-241e486ab0fe.jpg"",""img/0904/2fd488e9-960f-41f7-8a44-33375f7d5051.jpg""]","",""
"","4974","similarity","186","2532171","0.0-6.0-180.0","3","[""img/0874/ca76a855-4e77-4f2f-872a-0a718153e7ed.jpg"",""img/0860/c5ccd1a4-4bb7-48e1-9b25-72cfaf06909b.jpg""]","",""
"","6357","similarity","187","2539538","0.0-6.0-181.0","3","[""img/0769/8598a429-c671-4d2f-842c-32f681f5e412.jpg"",""img/0874/8cdb1c07-1c32-46d2-981c-3636560fa6e5.jpg""]","",""
"","5011","similarity","188","2545556","0.0-6.0-182.0","4","[""img/0904/06dacdc5-2206-4fb8-92b7-88042d22833c.jpg"",""img/0766/f3276cc4-65de-4c2d-88d5-6cfebce14b8f.jpg""]","",""
"","8935","similarity","189","2555496","0.0-6.0-183.0","5","[""img/0902/6c2c243a-f663-45db-baf5-038d3d58c589.jpg"",""img/0764/83c93cce-18d1-4aa7-9e23-2c268afe0a46.jpg""]","",""
"","5886","similarity","190","2562396","0.0-6.0-184.0","3","[""img/0769/47700831-0ca2-4fdd-a498-a3bc5a528f43.jpg"",""img/0875/2e13d160-eea1-416b-aff1-d37ab99ecc1d.jpg""]","",""
"","6606","similarity","191","2570017","0.0-6.0-185.0","3","[""img/0867/7d1c497b-c1b3-4ed8-abb5-d7f73306015f.jpg"",""img/0903/0a92ec52-4e87-410a-857a-4455cde56a70.jpg""]","",""
"","5991","similarity","192","2577016","0.0-6.0-186.0","4","[""img/0862/064818ee-13d5-4618-bb24-21c7368ea278.jpg"",""img/0769/aad494cc-674d-4a08-9bfa-24a88ebe3c79.jpg""]","",""
"","7182","similarity","193","2585205","0.0-6.0-187.0","2","[""img/0766/2746b119-4bba-463e-acf0-88136dc6600c.jpg"",""img/0866/c446214b-a368-4c65-ae39-ea46894256ab.jpg""]","",""
"","10688","similarity","194","2596900","0.0-6.0-188.0","3","[""img/0769/91acb237-65a3-4d0b-9748-af5c7b83d3c7.jpg"",""img/0860/15b24a61-25be-4356-9eac-5ce95d0cb4a4.jpg""]","",""
"","6050","similarity","195","2606306","0.0-6.0-189.0","3","[""img/0881/db77fe00-aeb0-4d1d-aa66-f3a96fd077e4.jpg"",""img/0868/d6d1f30d-4323-435a-b194-7892521bc57e.jpg""]","",""
"[{""page_index"":0,""viewing_time"":3600}]","3600","instructions","196","2610908","0.0-7.0","","","",""
"","11502","image-multi-choice","197","2623438","0.0-8.0-0.0","","","{""Q0"":""Nashville Warbler""}","Nashville Warbler"
"","7339","image-multi-choice","198","2631807","0.0-8.0-1.0","","","{""Q0"":""Black-and-white Warbler""}","Black-and-white Warbler"
"","6500","image-multi-choice","199","2639335","0.0-8.0-2.0","","","{""Q0"":""Blackburnian Warbler""}","Townsend's Warbler"
"","4231","image-multi-choice","200","2644589","0.0-8.0-3.0","","","{""Q0"":""Lark Sparrow""}","Lark Sparrow"
"","5196","image-multi-choice","201","2650808","0.0-8.0-4.0","","","{""Q0"":""Yellow Warbler""}","Yellow Warbler"
"","6075","image-multi-choice","202","2657901","0.0-8.0-5.0","","","{""Q0"":""Orange-crowned Warbler""}","Orange-crowned Warbler"
"","4729","image-multi-choice","203","2663655","0.0-8.0-6.0","","","{""Q0"":""White-throated Sparrow""}","White-throated Sparrow"
"","6008","image-multi-choice","204","2670683","0.0-8.0-7.0","","","{""Q0"":""Fox Sparrow""}","Fox Sparrow"
"","40820","image-multi-choice","205","2712533","0.0-8.0-8.0","","","{""Q0"":""Swamp Sparrow""}","Song Sparrow"
"","29736","image-multi-choice","206","2743295","0.0-8.0-9.0","","","{""Q0"":""Townsend's Warbler""}","Blackburnian Warbler"
"","6474","image-multi-choice","207","2750788","0.0-8.0-10.0","","","{""Q0"":""Vesper Sparrow""}","Vesper Sparrow"
"","3932","image-multi-choice","208","2755746","0.0-8.0-11.0","","","{""Q0"":""White-crowned Sparrow""}","White-crowned Sparrow"
"","6042","image-multi-choice","209","2762810","0.0-8.0-12.0","","","{""Q0"":""Chipping Sparrow""}","American Tree Sparrow"
"","6939","image-multi-choice","210","2770779","0.0-8.0-13.0","","","{""Q0"":""Tennessee Warbler""}","Tennessee Warbler"
"","4465","image-multi-choice","211","2776274","0.0-8.0-14.0","","","{""Q0"":""Magnolia Warbler""}","Magnolia Warbler"
"","5674","image-multi-choice","212","2782968","0.0-8.0-15.0","","","{""Q0"":""Northern Waterthrush""}","Northern Waterthrush"
"","6905","image-multi-choice","213","2790898","0.0-8.0-16.0","","","{""Q0"":""Chipping Sparrow""}","Chipping Sparrow"
"","6230","image-multi-choice","214","2798146","0.0-8.0-17.0","","","{""Q0"":""Swamp Sparrow""}","Swamp Sparrow"
"","4939","image-multi-choice","215","2804109","0.0-8.0-18.0","","","{""Q0"":""Lincoln's Sparrow""}","Lincoln's Sparrow"
"","4858","image-multi-choice","216","2809997","0.0-8.0-19.0","","","{""Q0"":""Ovenbird""}","Ovenbird"
