[{"view_history":"[{\"page_index\":0,\"viewing_time\":13244}]","rt":13245,"trial_type":"instructions","trial_index":0,"time_elapsed":13245,"internal_node_id":"0.0-0.0"},{"sim_score":7,"rt":7945,"stimulus":"[\"img/bluejay1.jpg\",\"img/bluejay2.jpg\"]","trial_type":"similarity_demo","trial_index":1,"time_elapsed":22201,"internal_node_id":"0.0-1.0"},{"view_history":"[{\"page_index\":0,\"viewing_time\":6357}]","rt":6357,"trial_type":"instructions","trial_index":2,"time_elapsed":29559,"internal_node_id":"0.0-2.0"},{"sim_score":4,"rt":5809,"stimulus":"[\"img/bluejay1.jpg\",\"img/cardinal1.jpg\"]","trial_type":"similarity_demo","trial_index":3,"time_elapsed":36374,"internal_node_id":"0.0-3.0"},{"view_history":"[{\"page_index\":0,\"viewing_time\":5258}]","rt":5258,"trial_type":"instructions","trial_index":4,"time_elapsed":42633,"internal_node_id":"0.0-4.0"},{"view_history":"[{\"page_index\":0,\"viewing_time\":39242}]","rt":39244,"trial_type":"instructions","trial_index":5,"time_elapsed":82879,"internal_node_id":"0.0-5.0"},{"sim_score":3,"rt":9389,"stimulus":"[\"img/0868/293079b8-7e0c-4afd-a390-1e5d35fe3ded.jpg\",\"img/0894/10f22b96-040c-44f4-950b-a4963f3f506c.jpg\"]","trial_type":"similarity","trial_index":6,"time_elapsed":93281,"internal_node_id":"0.0-6.0-0.0"},{"sim_score":3,"rt":7686,"stimulus":"[\"img/0898/08c72dac-f8ad-407a-9ce6-8c9a5d679c3a.jpg\",\"img/0758/d41c06bf-ebaf-454b-91c6-1a17f917b659.jpg\"]","trial_type":"similarity","trial_index":7,"time_elapsed":101973,"internal_node_id":"0.0-6.0-1.0"},{"sim_score":5,"rt":10543,"stimulus":"[\"img/0903/0fb24af7-9a26-4e9d-aadc-959a36f683e2.jpg\",\"img/0894/76c1201f-8524-4865-85e6-dda8cb4ac986.jpg\"]","trial_type":"similarity","trial_index":8,"time_elapsed":113522,"internal_node_id":"0.0-6.0-2.0"},{"sim_score":2,"rt":10921,"stimulus":"[\"img/0881/f037e3b0-09cb-4a83-b2d9-6a71fe474e63.jpg\",\"img/0766/989c5c7f-1aff-4442-ac63-9d46acf4a891.jpg\"]","trial_type":"similarity","trial_index":9,"time_elapsed":125454,"internal_node_id":"0.0-6.0-3.0"},{"sim_score":5,"rt":5894,"stimulus":"[\"img/0864/1d15626a-2f7c-410f-819c-0fa2c967e95e.jpg\",\"img/0860/94ef7afc-e0e6-4a15-98c6-0bfac82bc832.jpg\"]","trial_type":"similarity","trial_index":10,"time_elapsed":132358,"internal_node_id":"0.0-6.0-4.0"},{"sim_score":6,"rt":7825,"stimulus":"[\"img/0902/01b41522-de46-4c3a-b0af-a61b2682b40e.jpg\",\"img/0899/51a7a498-98c7-42d7-bca8-bc2d8f0b5831.jpg\"]","trial_type":"similarity","trial_index":11,"time_elapsed":141190,"internal_node_id":"0.0-6.0-5.0"},{"sim_score":3,"rt":6577,"stimulus":"[\"img/0868/e0aff734-077f-40dd-9781-74821abd3621.jpg\",\"img/0769/35f2dd39-40aa-498e-b401-9f1ef2622d00.jpg\"]","trial_type":"similarity","trial_index":12,"time_elapsed":148772,"internal_node_id":"0.0-6.0-6.0"},{"sim_score":6,"rt":8476,"stimulus":"[\"img/0764/cbdc4f20-3a9a-4211-9b40-090699e0abcc.jpg\",\"img/0901/d6d15b1c-4a30-4f74-a3fd-d4c8ee4169ca.jpg\"]","trial_type":"similarity","trial_index":13,"time_elapsed":158256,"internal_node_id":"0.0-6.0-7.0"},{"sim_score":2,"rt":7763,"stimulus":"[\"img/0881/ee44e27f-d662-4608-b265-e7ffa19b216f.jpg\",\"img/0866/02f5e6b9-52b7-448c-9708-5b460d0c9a23.jpg\"]","trial_type":"similarity","trial_index":14,"time_elapsed":167027,"internal_node_id":"0.0-6.0-8.0"},{"sim_score":2,"rt":6861,"stimulus":"[\"img/0867/de92135f-5b65-4ed9-b245-188292c7c2f8.jpg\",\"img/0899/ad8268c5-8199-48d0-ad70-c5b6d6c599ec.jpg\"]","trial_type":"similarity","trial_index":15,"time_elapsed":174895,"internal_node_id":"0.0-6.0-9.0"},{"sim_score":2,"rt":8365,"stimulus":"[\"img/0875/fb732ab5-013a-4366-9f65-27811ed157e9.jpg\",\"img/0766/1bc0dccc-a5b5-4375-87fa-28360ca42b12.jpg\"]","trial_type":"similarity","trial_index":16,"time_elapsed":184266,"internal_node_id":"0.0-6.0-10.0"},{"sim_score":2,"rt":11899,"stimulus":"[\"img/0901/c6c877e0-dd63-4e00-9657-33af29d55aab.jpg\",\"img/0875/42910c99-5463-450a-a0f8-d4d060a11455.jpg\"]","trial_type":"similarity","trial_index":17,"time_elapsed":197219,"internal_node_id":"0.0-6.0-11.0"},{"sim_score":3,"rt":10961,"stimulus":"[\"img/0902/c018bd7a-d91a-4192-aea4-7259cfcdb6c4.jpg\",\"img/0860/31ff6436-98bf-4652-bed2-40f627229568.jpg\"]","trial_type":"similarity","trial_index":18,"time_elapsed":209190,"internal_node_id":"0.0-6.0-12.0"},{"sim_score":5,"rt":6200,"stimulus":"[\"img/0874/eba003b4-cdab-4eee-8bc3-f064c7d94165.jpg\",\"img/0867/a498eef3-9fa4-4ab2-9778-4ae82ac40dc5.jpg\"]","trial_type":"similarity","trial_index":19,"time_elapsed":216397,"internal_node_id":"0.0-6.0-13.0"},{"sim_score":2,"rt":7027,"stimulus":"[\"img/0904/5cceabc9-de1d-4c67-989b-c28a4ef77e79.jpg\",\"img/0866/d266fece-59b3-46fa-b69f-96f6efb81b59.jpg\"]","trial_type":"similarity","trial_index":20,"time_elapsed":224430,"internal_node_id":"0.0-6.0-14.0"},{"sim_score":3,"rt":14733,"stimulus":"[\"img/0758/dd559618-7f09-4a07-8018-d311c4a5ea29.jpg\",\"img/0902/51493fab-2a10-4385-aa88-bee3db441626.jpg\"]","trial_type":"similarity","trial_index":21,"time_elapsed":240170,"internal_node_id":"0.0-6.0-15.0"},{"sim_score":6,"rt":7376,"stimulus":"[\"img/0867/8ba0c5a7-c7e4-42cf-a80a-543763b90779.jpg\",\"img/0898/b3290bf9-215b-4b45-b21a-65bdf73f142f.jpg\"]","trial_type":"similarity","trial_index":22,"time_elapsed":248555,"internal_node_id":"0.0-6.0-16.0"},{"sim_score":2,"rt":12769,"stimulus":"[\"img/0904/73920552-103b-4c9c-9ece-e0b8376b4504.jpg\",\"img/0868/77091fc7-a590-4ebb-b915-fdb2483a2399.jpg\"]","trial_type":"similarity","trial_index":23,"time_elapsed":262332,"internal_node_id":"0.0-6.0-17.0"},{"sim_score":3,"rt":6556,"stimulus":"[\"img/0766/d512b99c-a2dc-40d7-8e86-827323a0cbcf.jpg\",\"img/0864/5f74a653-3bdc-4308-8cca-ac667dc22e1f.jpg\"]","trial_type":"similarity","trial_index":24,"time_elapsed":269900,"internal_node_id":"0.0-6.0-18.0"},{"sim_score":5,"rt":8335,"stimulus":"[\"img/0899/57476fed-5962-4272-8fc9-b317bb777b54.jpg\",\"img/0766/1865bfc9-2410-4765-a804-3ae4ba2393d0.jpg\"]","trial_type":"similarity","trial_index":25,"time_elapsed":279242,"internal_node_id":"0.0-6.0-19.0"},{"sim_score":2,"rt":8845,"stimulus":"[\"img/0764/56441045-b648-4ede-9632-3e9c0227080b.jpg\",\"img/0758/a085b443-b5d7-4cb2-9ad4-b9dab0fc23f1.jpg\"]","trial_type":"similarity","trial_index":26,"time_elapsed":289093,"internal_node_id":"0.0-6.0-20.0"},{"sim_score":2,"rt":9949,"stimulus":"[\"img/0901/b13fa50f-dbe0-4d0f-8647-6ac0fd8f40bd.jpg\",\"img/0874/767f289c-9814-4496-803f-745cc8913d1f.jpg\"]","trial_type":"similarity","trial_index":27,"time_elapsed":300048,"internal_node_id":"0.0-6.0-21.0"},{"sim_score":5,"rt":10233,"stimulus":"[\"img/0875/e7e66b13-b573-431e-b85e-288ce04a35a3.jpg\",\"img/0758/6cd8c362-ae2a-41eb-80a3-3a4f7ace1530.jpg\"]","trial_type":"similarity","trial_index":28,"time_elapsed":311289,"internal_node_id":"0.0-6.0-22.0"},{"sim_score":5,"rt":5763,"stimulus":"[\"img/0867/98d8cd96-1476-4fe0-a3a3-04f875500a1b.jpg\",\"img/0881/dea58fad-b4f1-41d9-bd3f-916eff19a3fd.jpg\"]","trial_type":"similarity","trial_index":29,"time_elapsed":318058,"internal_node_id":"0.0-6.0-23.0"},{"sim_score":2,"rt":6055,"stimulus":"[\"img/0758/65d426d6-3ff6-415d-8654-a43b83ecc4fe.jpg\",\"img/0901/31c032fd-3c3d-4882-a226-da9a80198937.jpg\"]","trial_type":"similarity","trial_index":30,"time_elapsed":325120,"internal_node_id":"0.0-6.0-24.0"},{"sim_score":6,"rt":4788,"stimulus":"[\"img/0868/c8ac40c7-6904-4e13-8d61-c75d3052dc4e.jpg\",\"img/0875/f87b67d7-c33e-40d1-b281-248c4be1cb6e.jpg\"]","trial_type":"similarity","trial_index":31,"time_elapsed":330921,"internal_node_id":"0.0-6.0-25.0"},{"sim_score":6,"rt":5862,"stimulus":"[\"img/0903/71dbc325-b588-4297-a5cf-7f268a722ad9.jpg\",\"img/0901/875dedb9-24c9-4443-9f8c-85e97d70ee5a.jpg\"]","trial_type":"similarity","trial_index":32,"time_elapsed":337793,"internal_node_id":"0.0-6.0-26.0"},{"sim_score":6,"rt":6384,"stimulus":"[\"img/0894/7dd6ff43-f8fc-408a-8a41-a2b261871820.jpg\",\"img/0899/b45c550b-96c3-4255-ad59-48a2b4db1c1e.jpg\"]","trial_type":"similarity","trial_index":33,"time_elapsed":345184,"internal_node_id":"0.0-6.0-27.0"},{"sim_score":5,"rt":5350,"stimulus":"[\"img/0862/92fcd8a4-8193-4a6a-ae09-dd4a6338b0df.jpg\",\"img/0867/179ab87a-8eac-4c52-a41f-2e48e3120f09.jpg\"]","trial_type":"similarity","trial_index":34,"time_elapsed":351541,"internal_node_id":"0.0-6.0-28.0"},{"sim_score":6,"rt":6564,"stimulus":"[\"img/0864/ea327690-500b-4137-bf91-451b309fe6a5.jpg\",\"img/0875/527ced51-8e53-4aab-ab05-86df219104c0.jpg\"]","trial_type":"similarity","trial_index":35,"time_elapsed":359113,"internal_node_id":"0.0-6.0-29.0"},{"sim_score":6,"rt":26374,"stimulus":"[\"img/0862/cdaed51d-9e2f-4807-801a-4663c40077e2.jpg\",\"img/0874/c0378dac-9370-439a-8b79-db27c96fb390.jpg\"]","trial_type":"similarity","trial_index":36,"time_elapsed":386499,"internal_node_id":"0.0-6.0-30.0"},{"sim_score":3,"rt":6773,"stimulus":"[\"img/0903/07b445ee-0cdb-4d2c-a23b-d727613f4059.jpg\",\"img/0758/821c68d3-5cb0-4eae-8659-30e6263fca39.jpg\"]","trial_type":"similarity","trial_index":37,"time_elapsed":394284,"internal_node_id":"0.0-6.0-31.0"},{"sim_score":2,"rt":5117,"stimulus":"[\"img/0866/9b38d691-1802-4959-ab3f-fc902f0e4ea6.jpg\",\"img/0901/4d1bed7e-3c4e-4f6c-ada9-4beb66ba9e39.jpg\"]","trial_type":"similarity","trial_index":38,"time_elapsed":400418,"internal_node_id":"0.0-6.0-32.0"},{"sim_score":2,"rt":8134,"stimulus":"[\"img/0874/ca23d307-fc00-4d7d-9106-584c6eb21b4d.jpg\",\"img/0899/fd9efb43-701f-4cd6-baaa-4c38315f4bdc.jpg\"]","trial_type":"similarity","trial_index":39,"time_elapsed":409561,"internal_node_id":"0.0-6.0-33.0"},{"sim_score":6,"rt":5466,"stimulus":"[\"img/0903/680ed18e-b311-4ecf-9b00-7dea32128334.jpg\",\"img/0902/bd89a85f-3853-4786-acd6-98818ee29f1c.jpg\"]","trial_type":"similarity","trial_index":40,"time_elapsed":416033,"internal_node_id":"0.0-6.0-34.0"},{"sim_score":5,"rt":5398,"stimulus":"[\"img/0758/eabcd7a8-56ad-4fd2-bc24-90f6b7b33265.jpg\",\"img/0866/f756f7d1-9ad8-4a34-9ef6-7a443d705bfe.jpg\"]","trial_type":"similarity","trial_index":41,"time_elapsed":422438,"internal_node_id":"0.0-6.0-35.0"},{"sim_score":3,"rt":4845,"stimulus":"[\"img/0875/3ecb367d-e9eb-4826-8aaa-7aa72fb98019.jpg\",\"img/0903/36e4ab1f-caa9-40b3-8616-faada076df94.jpg\"]","trial_type":"similarity","trial_index":42,"time_elapsed":428294,"internal_node_id":"0.0-6.0-36.0"},{"sim_score":3,"rt":5805,"stimulus":"[\"img/0864/afcba0a3-7e27-4757-b254-e9f05fad27e2.jpg\",\"img/0902/b56db912-c3c0-4fc2-b325-d640acd7cb58.jpg\"]","trial_type":"similarity","trial_index":43,"time_elapsed":447268,"internal_node_id":"0.0-6.0-37.0"},{"sim_score":2,"rt":7470,"stimulus":"[\"img/0901/f1116359-1ff1-4638-b3b3-700918d36d18.jpg\",\"img/0867/a749dddb-69f0-44a6-acdc-2bf295cf6dcc.jpg\"]","trial_type":"similarity","trial_index":44,"time_elapsed":455750,"internal_node_id":"0.0-6.0-38.0"},{"sim_score":6,"rt":5102,"stimulus":"[\"img/0862/5d887e9f-89e2-4ebc-80a0-6d46fe6480db.jpg\",\"img/0860/17b44a7d-c5ca-479f-9e87-f65a64f5c80e.jpg\"]","trial_type":"similarity","trial_index":45,"time_elapsed":461865,"internal_node_id":"0.0-6.0-39.0"},{"sim_score":6,"rt":5119,"stimulus":"[\"img/0867/2e1a0b58-cdb1-4107-a14e-452530d7b9b0.jpg\",\"img/0868/83b4350a-3b70-4cea-b7f5-b5b56f3050a8.jpg\"]","trial_type":"similarity","trial_index":46,"time_elapsed":467999,"internal_node_id":"0.0-6.0-40.0"},{"sim_score":5,"rt":4510,"stimulus":"[\"img/0904/b5855d6a-7ef9-46ca-9215-6e9fa046e543.jpg\",\"img/0899/f58b8d2f-b19d-4b59-8b94-8834be92e4ba.jpg\"]","trial_type":"similarity","trial_index":47,"time_elapsed":473519,"internal_node_id":"0.0-6.0-41.0"},{"sim_score":2,"rt":6997,"stimulus":"[\"img/0862/ba89835a-408c-480b-8594-ed4ffa97eb5c.jpg\",\"img/0894/5c7677b0-a4f1-479e-b274-7822c415175a.jpg\"]","trial_type":"similarity","trial_index":48,"time_elapsed":481523,"internal_node_id":"0.0-6.0-42.0"},{"sim_score":2,"rt":9521,"stimulus":"[\"img/0875/5a716432-c6ca-4b1c-955a-2b8ac25198ee.jpg\",\"img/0904/9d30eff1-46ef-4453-b11e-124ef8145c00.jpg\"]","trial_type":"similarity","trial_index":49,"time_elapsed":492051,"internal_node_id":"0.0-6.0-43.0"},{"sim_score":2,"rt":22755,"stimulus":"[\"img/0874/7e4f2150-3b59-4a36-b5da-a4e0ba410531.jpg\",\"img/0898/b2732712-71c2-45d8-834f-2b2ed5504910.jpg\"]","trial_type":"similarity","trial_index":50,"time_elapsed":515812,"internal_node_id":"0.0-6.0-44.0"},{"sim_score":1,"rt":7634,"stimulus":"[\"img/0898/04e39a7a-fcf6-4156-ab0e-f5871f335e1c.jpg\",\"img/0868/4bd5105a-d2c3-4f82-8c80-57196106ba53.jpg\"]","trial_type":"similarity","trial_index":51,"time_elapsed":524460,"internal_node_id":"0.0-6.0-45.0"},{"sim_score":3,"rt":8334,"stimulus":"[\"img/0901/d61f267a-c492-4db6-9bfb-61efd49cf072.jpg\",\"img/0860/4a022222-056d-461c-ab02-39fac9647552.jpg\"]","trial_type":"similarity","trial_index":52,"time_elapsed":533809,"internal_node_id":"0.0-6.0-46.0"},{"sim_score":5,"rt":8424,"stimulus":"[\"img/0894/492d2f29-d7b9-4422-8be8-47fd58bfaa8b.jpg\",\"img/0902/22ed3536-288b-452e-9777-0fa0ab94deb0.jpg\"]","trial_type":"similarity","trial_index":53,"time_elapsed":543243,"internal_node_id":"0.0-6.0-47.0"},{"sim_score":2,"rt":7295,"stimulus":"[\"img/0764/e30dba15-e68a-4659-89db-e1654b52fe02.jpg\",\"img/0862/7918ca67-5bd3-4606-a5ea-c39fb11a9297.jpg\"]","trial_type":"similarity","trial_index":54,"time_elapsed":551545,"internal_node_id":"0.0-6.0-48.0"},{"sim_score":6,"rt":10803,"stimulus":"[\"img/0881/c843e210-bdfe-4a7c-8bbe-fcea1f90fe1c.jpg\",\"img/0758/2fa3e613-e676-4e6e-bd12-705327eeb3e1.jpg\"]","trial_type":"similarity","trial_index":55,"time_elapsed":563355,"internal_node_id":"0.0-6.0-49.0"},{"sim_score":6,"rt":18555,"stimulus":"[\"img/0766/69e486f7-dbef-456b-9d48-53d814248a28.jpg\",\"img/0769/f6396414-6788-4d59-9683-de153298d89c.jpg\"]","trial_type":"similarity","trial_index":56,"time_elapsed":582916,"internal_node_id":"0.0-6.0-50.0"},{"sim_score":6,"rt":7329,"stimulus":"[\"img/0875/cff79b3a-a797-4393-9757-6275f999ec04.jpg\",\"img/0866/0207e9a2-7dbb-40b5-9459-b472aaeceb2a.jpg\"]","trial_type":"similarity","trial_index":57,"time_elapsed":591256,"internal_node_id":"0.0-6.0-51.0"},{"sim_score":7,"rt":8788,"stimulus":"[\"img/0894/a3d4170b-b7d8-40e3-955f-87e76ed745fc.jpg\",\"img/0904/d23dd7be-7fe8-4435-82f7-bd592c01e6a1.jpg\"]","trial_type":"similarity","trial_index":58,"time_elapsed":601057,"internal_node_id":"0.0-6.0-52.0"},{"sim_score":2,"rt":6430,"stimulus":"[\"img/0758/e1ba5e53-addc-436a-b428-d34fc1b130dc.jpg\",\"img/0769/458d9c77-b844-40b5-bb1b-1e3bbd4da64e.jpg\"]","trial_type":"similarity","trial_index":59,"time_elapsed":608498,"internal_node_id":"0.0-6.0-53.0"},{"sim_score":3,"rt":6323,"stimulus":"[\"img/0902/af40b98b-3d23-4d95-b401-49ba5783ce39.jpg\",\"img/0874/85eb9b8a-c4c6-4e5a-b8e7-363a87a82054.jpg\"]","trial_type":"similarity","trial_index":60,"time_elapsed":615828,"internal_node_id":"0.0-6.0-54.0"},{"sim_score":2,"rt":5998,"stimulus":"[\"img/0903/6a87dbad-9b8d-4ff5-9c41-03c9aa24f0c3.jpg\",\"img/0862/e697469a-ec19-4414-b972-7b9f3564785b.jpg\"]","trial_type":"similarity","trial_index":61,"time_elapsed":622833,"internal_node_id":"0.0-6.0-55.0"},{"sim_score":2,"rt":57996,"stimulus":"[\"img/0866/620cd1aa-0800-4414-8f6e-90342e7a99ad.jpg\",\"img/0894/8cadb87a-7001-4e47-99fb-1867bebf1668.jpg\"]","trial_type":"similarity","trial_index":62,"time_elapsed":681841,"internal_node_id":"0.0-6.0-56.0"},{"sim_score":2,"rt":5968,"stimulus":"[\"img/0867/f8159067-056c-41f1-a136-c529fe5e970a.jpg\",\"img/0904/696ebb60-8891-417a-91fd-c53218907a95.jpg\"]","trial_type":"similarity","trial_index":63,"time_elapsed":688820,"internal_node_id":"0.0-6.0-57.0"},{"sim_score":6,"rt":5653,"stimulus":"[\"img/0875/d59ff733-eaff-4ee2-9443-06954dd0bcb6.jpg\",\"img/0881/4bd34581-94d8-4e88-8c89-5cef864ca3be.jpg\"]","trial_type":"similarity","trial_index":64,"time_elapsed":695478,"internal_node_id":"0.0-6.0-58.0"},{"sim_score":5,"rt":6113,"stimulus":"[\"img/0866/07c9c966-3c8d-40e7-8128-92b2acbaed5d.jpg\",\"img/0860/e8b8c51e-1834-4875-8b61-6c5bc9b178bd.jpg\"]","trial_type":"similarity","trial_index":65,"time_elapsed":702597,"internal_node_id":"0.0-6.0-59.0"},{"sim_score":2,"rt":7257,"stimulus":"[\"img/0903/150cf64c-0bd2-4674-abbb-a1387cf1f3e9.jpg\",\"img/0866/a04d37f0-99dd-478a-b6c6-58b215138f84.jpg\"]","trial_type":"similarity","trial_index":66,"time_elapsed":710860,"internal_node_id":"0.0-6.0-60.0"},{"sim_score":5,"rt":6627,"stimulus":"[\"img/0860/71e1aad0-2cdf-43bb-94a4-a8c016997c30.jpg\",\"img/0875/03c3c331-738b-4446-af92-3d7386b08c2e.jpg\"]","trial_type":"similarity","trial_index":67,"time_elapsed":718497,"internal_node_id":"0.0-6.0-61.0"},{"sim_score":2,"rt":5192,"stimulus":"[\"img/0898/c3cecf20-f7fd-45fa-97d0-dc0a63e8d6c0.jpg\",\"img/0862/f23038d4-c366-4f70-979f-66b62362efa4.jpg\"]","trial_type":"similarity","trial_index":68,"time_elapsed":724696,"internal_node_id":"0.0-6.0-62.0"},{"sim_score":5,"rt":7835,"stimulus":"[\"img/0902/d5e25767-e8ec-45f3-ac0a-7b4a6f7a9edc.jpg\",\"img/0766/db750ba0-ce04-46e1-b601-e1b80212bad2.jpg\"]","trial_type":"similarity","trial_index":69,"time_elapsed":733540,"internal_node_id":"0.0-6.0-63.0"},{"sim_score":6,"rt":6882,"stimulus":"[\"img/0758/f61ecdf8-a7d4-4db0-b84d-be46f7cfaffc.jpg\",\"img/0864/3d4de670-b290-4285-9c3d-12a0e3af44e9.jpg\"]","trial_type":"similarity","trial_index":70,"time_elapsed":741439,"internal_node_id":"0.0-6.0-64.0"},{"sim_score":2,"rt":6298,"stimulus":"[\"img/0894/6b2e9509-8699-42b7-9582-7741df0ba2d7.jpg\",\"img/0860/524b2e98-5767-4d53-942c-ebae6925659b.jpg\"]","trial_type":"similarity","trial_index":71,"time_elapsed":748745,"internal_node_id":"0.0-6.0-65.0"},{"sim_score":2,"rt":11559,"stimulus":"[\"img/0899/8abe6c69-822c-436c-9bf2-96c818b49ba5.jpg\",\"img/0868/1a62b2b2-18f5-466e-b564-5176a57c565e.jpg\"]","trial_type":"similarity","trial_index":72,"time_elapsed":761311,"internal_node_id":"0.0-6.0-66.0"},{"sim_score":5,"rt":6248,"stimulus":"[\"img/0866/bf14b5bd-fb55-47db-86b9-4f8aeb9a6dad.jpg\",\"img/0862/de9ad88c-b522-430a-8ee9-eb06a9f85df5.jpg\"]","trial_type":"similarity","trial_index":73,"time_elapsed":768568,"internal_node_id":"0.0-6.0-67.0"},{"sim_score":4,"rt":6665,"stimulus":"[\"img/0860/5bff793e-cbd5-4d7e-b628-0ac2b0e30b64.jpg\",\"img/0758/d540bee6-b460-4c32-ac57-bc282742d7d4.jpg\"]","trial_type":"similarity","trial_index":74,"time_elapsed":776240,"internal_node_id":"0.0-6.0-68.0"},{"sim_score":2,"rt":6632,"stimulus":"[\"img/0902/07437a16-3d0f-4a5c-89ec-36d0efa4b3b8.jpg\",\"img/0867/6e19c858-b606-45b2-a4c6-910a73f1d82c.jpg\"]","trial_type":"similarity","trial_index":75,"time_elapsed":783878,"internal_node_id":"0.0-6.0-69.0"},{"sim_score":3,"rt":5902,"stimulus":"[\"img/0862/57b6f83f-c763-4858-830d-102f97bfefbf.jpg\",\"img/0901/f469cb1d-6d81-4a45-bab5-cd0b650c2b4f.jpg\"]","trial_type":"similarity","trial_index":76,"time_elapsed":790785,"internal_node_id":"0.0-6.0-70.0"},{"sim_score":7,"rt":7808,"stimulus":"[\"img/0867/075e0f95-856b-4cbb-acf5-092393aaf04e.jpg\",\"img/0866/23a224f3-2012-4fc8-8e0f-3c36f8de27fd.jpg\"]","trial_type":"similarity","trial_index":77,"time_elapsed":799602,"internal_node_id":"0.0-6.0-71.0"},{"sim_score":2,"rt":5774,"stimulus":"[\"img/0860/c7047cd2-7cc1-41b6-8a34-c0986774975f.jpg\",\"img/0904/65e2b70a-b184-4da3-b5c0-5038bdf9469a.jpg\"]","trial_type":"similarity","trial_index":78,"time_elapsed":806387,"internal_node_id":"0.0-6.0-72.0"},{"sim_score":2,"rt":7200,"stimulus":"[\"img/0875/90da8d75-108a-44ad-b999-e21fee3860d3.jpg\",\"img/0899/4408c14d-c168-4a7d-96f6-bc87bfb58f83.jpg\"]","trial_type":"similarity","trial_index":79,"time_elapsed":814598,"internal_node_id":"0.0-6.0-73.0"},{"sim_score":3,"rt":5278,"stimulus":"[\"img/0899/0adc0bc3-6fca-4078-be6f-d45ddf1653d5.jpg\",\"img/0758/ddc336e9-a8b6-4bb9-937a-c7e25e0e9250.jpg\"]","trial_type":"similarity","trial_index":80,"time_elapsed":820882,"internal_node_id":"0.0-6.0-74.0"},{"sim_score":4,"rt":6574,"stimulus":"[\"img/0862/f43ceabf-acc1-4107-b857-5d1849808f93.jpg\",\"img/0875/34132396-d896-4c2d-8087-646dd867e769.jpg\"]","trial_type":"similarity","trial_index":81,"time_elapsed":1627448,"internal_node_id":"0.0-6.0-75.0"},{"sim_score":5,"rt":4881,"stimulus":"[\"img/0901/2a953e50-d237-405c-a38d-5ed21494c968.jpg\",\"img/0894/5f15154e-e72e-4ce5-aafb-bce6f0564006.jpg\"]","trial_type":"similarity","trial_index":82,"time_elapsed":1633341,"internal_node_id":"0.0-6.0-76.0"},{"sim_score":3,"rt":6018,"stimulus":"[\"img/0766/26d3ae14-8275-4e08-99b2-a6598c193ddf.jpg\",\"img/0758/9fb5b2fe-3f00-4fe6-973c-1ce10d5f4cd5.jpg\"]","trial_type":"similarity","trial_index":83,"time_elapsed":1640367,"internal_node_id":"0.0-6.0-77.0"},{"sim_score":6,"rt":5960,"stimulus":"[\"img/0894/3664e04c-c6d3-4c9b-afb6-25d89974b174.jpg\",\"img/0764/da207710-e7e4-4f42-b2e6-99b5f357f433.jpg\"]","trial_type":"similarity","trial_index":84,"time_elapsed":1647338,"internal_node_id":"0.0-6.0-78.0"},{"sim_score":5,"rt":5546,"stimulus":"[\"img/0860/c3379ff7-0763-48fe-a1ec-7ea3d611bc7a.jpg\",\"img/0867/f26f6b60-f772-4f4c-95a4-addc62cfd692.jpg\"]","trial_type":"similarity","trial_index":85,"time_elapsed":1653898,"internal_node_id":"0.0-6.0-79.0"},{"sim_score":6,"rt":5433,"stimulus":"[\"img/0898/5f699581-3853-4547-856c-12f419ba5af7.jpg\",\"img/0901/0adb3bd6-d758-4ba7-9723-3ad6cac05bd5.jpg\"]","trial_type":"similarity","trial_index":86,"time_elapsed":1660343,"internal_node_id":"0.0-6.0-80.0"},{"sim_score":3,"rt":8009,"stimulus":"[\"img/0874/1016b306-087c-4afc-aa08-fa527b28dc76.jpg\",\"img/0764/f2f23359-8e82-41d3-8900-5b9f4433991d.jpg\"]","trial_type":"similarity","trial_index":87,"time_elapsed":1669359,"internal_node_id":"0.0-6.0-81.0"},{"sim_score":2,"rt":5990,"stimulus":"[\"img/0899/0e1d936a-dbe2-4afc-9f19-7b7a1ae6c9ed.jpg\",\"img/0862/24cdc752-c2e5-4a17-86a6-6f2045d8553b.jpg\"]","trial_type":"similarity","trial_index":88,"time_elapsed":1676356,"internal_node_id":"0.0-6.0-82.0"},{"sim_score":4,"rt":4651,"stimulus":"[\"img/0766/d14acac4-7db1-4b07-8f8f-302437326fc0.jpg\",\"img/0901/7c16dd9c-44ad-4d5b-990c-6a0b9b48b1b1.jpg\"]","trial_type":"similarity","trial_index":89,"time_elapsed":1682014,"internal_node_id":"0.0-6.0-83.0"},{"sim_score":2,"rt":7509,"stimulus":"[\"img/0881/c24f3051-eefa-42de-aba6-fccb56d93c70.jpg\",\"img/0898/ec565187-2e31-4fdd-9a5c-153d0c789ae0.jpg\"]","trial_type":"similarity","trial_index":90,"time_elapsed":1690532,"internal_node_id":"0.0-6.0-84.0"},{"sim_score":4,"rt":4608,"stimulus":"[\"img/0868/4a8a45ed-2c4f-421b-9564-409a33ecd26c.jpg\",\"img/0860/c47fdead-eb02-4989-b078-26f4852f44fe.jpg\"]","trial_type":"similarity","trial_index":91,"time_elapsed":1696146,"internal_node_id":"0.0-6.0-85.0"},{"sim_score":4,"rt":4391,"stimulus":"[\"img/0758/7ee8bc8f-c40b-4b3a-84ec-3e83580622d4.jpg\",\"img/0868/4e626425-63c8-484a-8a1d-e66ee4e0bef8.jpg\"]","trial_type":"similarity","trial_index":92,"time_elapsed":1701542,"internal_node_id":"0.0-6.0-86.0"},{"sim_score":2,"rt":5020,"stimulus":"[\"img/0864/f92649a2-0590-4d31-9a7a-1bfb81666a2d.jpg\",\"img/0894/11674fa4-285d-44e2-939f-2228c6a64080.jpg\"]","trial_type":"similarity","trial_index":93,"time_elapsed":1707568,"internal_node_id":"0.0-6.0-87.0"},{"sim_score":2,"rt":5830,"stimulus":"[\"img/0866/6f2a90d7-14f1-4f1b-bd64-fc0af6b9fe44.jpg\",\"img/0902/962f645e-9b55-4628-9b50-c703422bfe1a.jpg\"]","trial_type":"similarity","trial_index":94,"time_elapsed":1714406,"internal_node_id":"0.0-6.0-88.0"},{"sim_score":3,"rt":6206,"stimulus":"[\"img/0769/3adfa417-3b90-4aab-b437-5eaa474189cb.jpg\",\"img/0867/cc72ed48-7704-422c-86d6-467a1145287a.jpg\"]","trial_type":"similarity","trial_index":95,"time_elapsed":1721630,"internal_node_id":"0.0-6.0-89.0"},{"sim_score":4,"rt":6606,"stimulus":"[\"img/0874/a82926a3-0b43-4add-803c-d5f9ea7798ee.jpg\",\"img/0875/5a1e5100-0d94-4fec-bbe9-ca9894d2cf8e.jpg\"]","trial_type":"similarity","trial_index":96,"time_elapsed":1729246,"internal_node_id":"0.0-6.0-90.0"},{"sim_score":6,"rt":5988,"stimulus":"[\"img/0864/8ddd2e30-a1d0-479f-9cbe-591213023893.jpg\",\"img/0874/995f0332-0439-4eb4-add3-957335dbf6d9.jpg\"]","trial_type":"similarity","trial_index":97,"time_elapsed":1736241,"internal_node_id":"0.0-6.0-91.0"},{"sim_score":4,"rt":4345,"stimulus":"[\"img/0881/b549bc99-a61c-4450-bab5-9efc3a197bf0.jpg\",\"img/0862/eefa5588-9efd-4591-aa5f-a2e17c7d7bcc.jpg\"]","trial_type":"similarity","trial_index":98,"time_elapsed":1741593,"internal_node_id":"0.0-6.0-92.0"},{"sim_score":5,"rt":8658,"stimulus":"[\"img/0864/efcfbb1b-8197-44c9-b723-40d6c608dd3c.jpg\",\"img/0881/609a5e93-38b5-4940-8627-2bf8fad7f802.jpg\"]","trial_type":"similarity","trial_index":99,"time_elapsed":1751258,"internal_node_id":"0.0-6.0-93.0"},{"sim_score":5,"rt":7861,"stimulus":"[\"img/0899/a048912c-b12c-40e3-90af-46b69b0cc4fe.jpg\",\"img/0901/71e551a2-9ce2-409c-9c7c-dd556a0791e9.jpg\"]","trial_type":"similarity","trial_index":100,"time_elapsed":1760126,"internal_node_id":"0.0-6.0-94.0"},{"sim_score":3,"rt":4384,"stimulus":"[\"img/0874/31e22c7c-99aa-40b1-bf03-dd73fa2df4d6.jpg\",\"img/0766/0b48f9e0-7d37-4161-8adb-4e3f5b6b7583.jpg\"]","trial_type":"similarity","trial_index":101,"time_elapsed":1765515,"internal_node_id":"0.0-6.0-95.0"},{"sim_score":3,"rt":5933,"stimulus":"[\"img/0881/33d65d80-8a8e-4ecf-852d-0ad7725c17a2.jpg\",\"img/0899/76ad07e2-ca25-45eb-84f2-8d80b8ca3e26.jpg\"]","trial_type":"similarity","trial_index":102,"time_elapsed":1772453,"internal_node_id":"0.0-6.0-96.0"},{"sim_score":4,"rt":4558,"stimulus":"[\"img/0862/99a99e39-8355-44ec-b993-e7bcec111e1c.jpg\",\"img/0902/511abb54-0094-4f4d-b6dc-3f2c97050521.jpg\"]","trial_type":"similarity","trial_index":103,"time_elapsed":1778020,"internal_node_id":"0.0-6.0-97.0"},{"sim_score":6,"rt":6317,"stimulus":"[\"img/0899/66bf4113-ee12-426c-84d2-ea410b6c803e.jpg\",\"img/0764/e48e6c6f-9e28-420f-836a-8043b2319bb4.jpg\"]","trial_type":"similarity","trial_index":104,"time_elapsed":1785346,"internal_node_id":"0.0-6.0-98.0"},{"sim_score":5,"rt":5899,"stimulus":"[\"img/0758/335851a0-a55b-46d8-ab05-8463eda48349.jpg\",\"img/0862/e0f1a4e9-e1b6-45f7-af67-89f334e6630d.jpg\"]","trial_type":"similarity","trial_index":105,"time_elapsed":1792257,"internal_node_id":"0.0-6.0-99.0"},{"sim_score":5,"rt":6592,"stimulus":"[\"img/0764/55b3fab1-b809-4d38-a461-3f40ce062f52.jpg\",\"img/0898/224c1572-56b9-4f16-a9e4-6f3bc9c114bd.jpg\"]","trial_type":"similarity","trial_index":106,"time_elapsed":1799859,"internal_node_id":"0.0-6.0-100.0"},{"sim_score":6,"rt":6330,"stimulus":"[\"img/0901/5657dd86-0ff9-4753-ba2b-9dfb223e5c89.jpg\",\"img/0902/95a36b6b-9601-4fa5-8fd9-606ea62f9425.jpg\"]","trial_type":"similarity","trial_index":107,"time_elapsed":1807195,"internal_node_id":"0.0-6.0-101.0"},{"sim_score":2,"rt":4644,"stimulus":"[\"img/0764/3297a811-ea8b-4d74-9547-59cecab7293a.jpg\",\"img/0868/15dd6fd7-791e-4b53-b203-195d617521a4.jpg\"]","trial_type":"similarity","trial_index":108,"time_elapsed":1812846,"internal_node_id":"0.0-6.0-102.0"},{"sim_score":3,"rt":5634,"stimulus":"[\"img/0769/48a1144d-fbda-4809-991b-fc8424a32ee4.jpg\",\"img/0881/adc02f34-ce97-4aef-850f-00519df06fd7.jpg\"]","trial_type":"similarity","trial_index":109,"time_elapsed":1819487,"internal_node_id":"0.0-6.0-103.0"},{"sim_score":3,"rt":6540,"stimulus":"[\"img/0864/e336a4c5-6648-4fd7-b2f6-93a3fb83f8c6.jpg\",\"img/0769/e31b3bd8-efcb-413e-aa8c-75fac2b8f2ac.jpg\"]","trial_type":"similarity","trial_index":110,"time_elapsed":1827035,"internal_node_id":"0.0-6.0-104.0"},{"sim_score":6,"rt":5214,"stimulus":"[\"img/0866/11a1d141-be5e-443c-98c1-a9d4d9e3dec0.jpg\",\"img/0868/8b0b8473-e2c0-4331-aa56-c3a5c29369da.jpg\"]","trial_type":"similarity","trial_index":111,"time_elapsed":1833255,"internal_node_id":"0.0-6.0-105.0"},{"sim_score":4,"rt":4627,"stimulus":"[\"img/0868/0d3abd3a-b6c3-4584-a9f7-e2da63748b3d.jpg\",\"img/0862/fad1d7c1-8187-43c3-942a-0fc12183e48e.jpg\"]","trial_type":"similarity","trial_index":112,"time_elapsed":1838887,"internal_node_id":"0.0-6.0-106.0"},{"sim_score":4,"rt":5204,"stimulus":"[\"img/0766/af3be95e-e52e-4fae-899b-0ff02ec340aa.jpg\",\"img/0898/a8f16b02-e19f-423b-86c3-a36562ae1f9b.jpg\"]","trial_type":"similarity","trial_index":113,"time_elapsed":1845108,"internal_node_id":"0.0-6.0-107.0"},{"sim_score":3,"rt":6239,"stimulus":"[\"img/0898/79233891-305a-4a6a-8ddf-5c8604858203.jpg\",\"img/0864/65210d57-1153-4657-886a-32e758f49b4a.jpg\"]","trial_type":"similarity","trial_index":114,"time_elapsed":1852361,"internal_node_id":"0.0-6.0-108.0"},{"sim_score":2,"rt":5006,"stimulus":"[\"img/0868/179a5502-ab5c-478e-8263-5a1fbcc101d2.jpg\",\"img/0902/418b716e-63e5-4c77-93e9-95b1f5a3ddf0.jpg\"]","trial_type":"similarity","trial_index":115,"time_elapsed":1858379,"internal_node_id":"0.0-6.0-109.0"},{"sim_score":6,"rt":5469,"stimulus":"[\"img/0904/6291eb43-c10c-4810-a36a-101d09868b04.jpg\",\"img/0764/d7f3ac54-318a-4dac-a06b-62bed34d01a4.jpg\"]","trial_type":"similarity","trial_index":116,"time_elapsed":1864858,"internal_node_id":"0.0-6.0-110.0"},{"sim_score":3,"rt":7358,"stimulus":"[\"img/0894/05161000-f476-499b-a878-c13c7f347fd9.jpg\",\"img/0875/a4935837-7d3c-4df6-88c1-36a94d4991ca.jpg\"]","trial_type":"similarity","trial_index":117,"time_elapsed":1873223,"internal_node_id":"0.0-6.0-111.0"},{"sim_score":5,"rt":6594,"stimulus":"[\"img/0868/7b212364-ff5f-4e28-9241-7eb6ea00161b.jpg\",\"img/0874/29830da7-be5f-44e5-b141-652a0ccf7269.jpg\"]","trial_type":"similarity","trial_index":118,"time_elapsed":1880823,"internal_node_id":"0.0-6.0-112.0"},{"sim_score":5,"rt":9316,"stimulus":"[\"img/0904/0d17b811-063e-416e-a23c-3b3cfa4fcce5.jpg\",\"img/0898/8605a25b-6895-476d-8c13-df7a83f96093.jpg\"]","trial_type":"similarity","trial_index":119,"time_elapsed":2001899,"internal_node_id":"0.0-6.0-113.0"},{"sim_score":4,"rt":6455,"stimulus":"[\"img/0860/fd4662f9-4c03-4d79-8593-06735e55a64b.jpg\",\"img/0766/d3bab2fc-ddcc-40a0-bb72-c0d0ebe19978.jpg\"]","trial_type":"similarity","trial_index":120,"time_elapsed":2009367,"internal_node_id":"0.0-6.0-114.0"},{"sim_score":4,"rt":4041,"stimulus":"[\"img/0894/e2446cf5-cd48-486a-badc-76498e087fbe.jpg\",\"img/0874/93d1f8dc-acf2-4f03-bd8d-8ec35df276ed.jpg\"]","trial_type":"similarity","trial_index":121,"time_elapsed":2014415,"internal_node_id":"0.0-6.0-115.0"},{"sim_score":4,"rt":4961,"stimulus":"[\"img/0899/fef567a2-c121-4481-9af0-ff108d199bbf.jpg\",\"img/0903/a0673b55-6040-47fe-9040-24bca27ca3c9.jpg\"]","trial_type":"similarity","trial_index":122,"time_elapsed":2020394,"internal_node_id":"0.0-6.0-116.0"},{"sim_score":3,"rt":7843,"stimulus":"[\"img/0881/4da99fdd-1f40-4bbb-8e21-8833eef313f5.jpg\",\"img/0764/6c7fe363-2d37-418f-9e5e-a3273af5d4fb.jpg\"]","trial_type":"similarity","trial_index":123,"time_elapsed":2029249,"internal_node_id":"0.0-6.0-117.0"},{"sim_score":5,"rt":6069,"stimulus":"[\"img/0903/f10e9eb5-0c21-4a6a-944c-5f10a6d0fa4d.jpg\",\"img/0769/35364db7-e0d5-40ef-93dc-faf9dfb95136.jpg\"]","trial_type":"similarity","trial_index":124,"time_elapsed":2036328,"internal_node_id":"0.0-6.0-118.0"},{"sim_score":5,"rt":6770,"stimulus":"[\"img/0901/58978a6d-a3e2-4c59-8d62-f60693ecc0f6.jpg\",\"img/0904/2c98dc56-88d1-4fb5-a999-b6a7861f65f0.jpg\"]","trial_type":"similarity","trial_index":125,"time_elapsed":2044104,"internal_node_id":"0.0-6.0-119.0"},{"sim_score":5,"rt":5420,"stimulus":"[\"img/0860/61fb959d-d4d9-4de4-9e4e-4fa62b4cfcd5.jpg\",\"img/0881/7e31e5dc-2240-4b1b-b5a0-3acd980099ef.jpg\"]","trial_type":"similarity","trial_index":126,"time_elapsed":2050533,"internal_node_id":"0.0-6.0-120.0"},{"sim_score":5,"rt":5274,"stimulus":"[\"img/0758/3ddd05d3-557e-4ee7-8b78-9d2d681d8ae2.jpg\",\"img/0874/3f471690-9788-4d03-90c7-f615aecef149.jpg\"]","trial_type":"similarity","trial_index":127,"time_elapsed":2056814,"internal_node_id":"0.0-6.0-121.0"},{"sim_score":4,"rt":3783,"stimulus":"[\"img/0901/77087ed2-6e12-4329-b2a5-605bca6d972d.jpg\",\"img/0769/9ea27d61-3d55-418c-8d14-82e90f656f01.jpg\"]","trial_type":"similarity","trial_index":128,"time_elapsed":2061609,"internal_node_id":"0.0-6.0-122.0"},{"sim_score":6,"rt":8551,"stimulus":"[\"img/0902/27b84584-948a-485b-8749-cb09929ef631.jpg\",\"img/0904/1d10df11-b5c8-4370-9a6b-097a7f965895.jpg\"]","trial_type":"similarity","trial_index":129,"time_elapsed":2071173,"internal_node_id":"0.0-6.0-123.0"},{"sim_score":3,"rt":5247,"stimulus":"[\"img/0899/93494f3b-d539-4075-b027-d82e344563da.jpg\",\"img/0864/1ebbc554-99fa-49f9-8799-317375a79820.jpg\"]","trial_type":"similarity","trial_index":130,"time_elapsed":2077430,"internal_node_id":"0.0-6.0-124.0"},{"sim_score":2,"rt":6711,"stimulus":"[\"img/0766/27f54113-8561-4568-9ffe-0a1650ae65ec.jpg\",\"img/0868/d98ca254-b195-477f-b57e-5760a2717db8.jpg\"]","trial_type":"similarity","trial_index":131,"time_elapsed":2085150,"internal_node_id":"0.0-6.0-125.0"},{"sim_score":3,"rt":6970,"stimulus":"[\"img/0764/62fafeea-6274-48ce-976f-35d3d3484c65.jpg\",\"img/0864/e8bd659f-aa43-4748-877e-3118e8b4e189.jpg\"]","trial_type":"similarity","trial_index":132,"time_elapsed":2093132,"internal_node_id":"0.0-6.0-126.0"},{"sim_score":3,"rt":5753,"stimulus":"[\"img/0899/7f9d45d0-b2c6-40d3-aa41-c207db2c411b.jpg\",\"img/0866/945c6710-d15b-4a5b-a8f6-69af0850357f.jpg\"]","trial_type":"similarity","trial_index":133,"time_elapsed":2099894,"internal_node_id":"0.0-6.0-127.0"},{"sim_score":1,"rt":7235,"stimulus":"[\"img/0901/33b51a81-06d9-46d9-9d4f-5a2d6d6b8058.jpg\",\"img/0881/44e09805-5a25-4f17-a716-4ad4a331b174.jpg\"]","trial_type":"similarity","trial_index":134,"time_elapsed":2108133,"internal_node_id":"0.0-6.0-128.0"},{"sim_score":7,"rt":7483,"stimulus":"[\"img/0898/cd3aaa3f-efa9-4ab3-8d6f-a6a9273ddf42.jpg\",\"img/0903/ea75f240-fb62-4edb-a709-83e858b202c0.jpg\"]","trial_type":"similarity","trial_index":135,"time_elapsed":2116623,"internal_node_id":"0.0-6.0-129.0"},{"sim_score":3,"rt":6390,"stimulus":"[\"img/0894/5ff3c4f6-52e2-4075-8679-be0312e59703.jpg\",\"img/0867/aa05d113-fc19-4756-a8eb-7878f580bc92.jpg\"]","trial_type":"similarity","trial_index":136,"time_elapsed":2124018,"internal_node_id":"0.0-6.0-130.0"},{"sim_score":3,"rt":7373,"stimulus":"[\"img/0874/adf9a8f1-c40b-402b-b95b-1e85a54a7b62.jpg\",\"img/0903/5248eedd-7e6a-4d39-91b0-06ec227f3ed0.jpg\"]","trial_type":"similarity","trial_index":137,"time_elapsed":2132402,"internal_node_id":"0.0-6.0-131.0"},{"sim_score":4,"rt":5626,"stimulus":"[\"img/0899/0433d056-aa30-4f8a-9aa1-abbb951e4edd.jpg\",\"img/0898/01bfe666-3510-4fc7-964f-d00d28732dc8.jpg\"]","trial_type":"similarity","trial_index":138,"time_elapsed":2139045,"internal_node_id":"0.0-6.0-132.0"},{"sim_score":2,"rt":6829,"stimulus":"[\"img/0867/5e07b34d-b40f-4b1c-ac10-49975bace45f.jpg\",\"img/0764/952d7adc-dc40-4aee-acce-18c2a1d02ea1.jpg\"]","trial_type":"similarity","trial_index":139,"time_elapsed":2146885,"internal_node_id":"0.0-6.0-133.0"},{"sim_score":4,"rt":11154,"stimulus":"[\"img/0866/4a87911a-d5be-4d4e-ab8e-3d1f581bf507.jpg\",\"img/0769/82ab9db6-4578-4e79-874f-f09100439f09.jpg\"]","trial_type":"similarity","trial_index":140,"time_elapsed":2159053,"internal_node_id":"0.0-6.0-134.0"},{"sim_score":2,"rt":8147,"stimulus":"[\"img/0860/e14d67c1-6d92-4f1e-9257-c8607159c19c.jpg\",\"img/0898/0af304a2-6a7a-4082-ab7c-4450cd08cc58.jpg\"]","trial_type":"similarity","trial_index":141,"time_elapsed":2168211,"internal_node_id":"0.0-6.0-135.0"},{"sim_score":2,"rt":9319,"stimulus":"[\"img/0881/633c6f40-56d9-4b48-bf1c-ecd83116eabb.jpg\",\"img/0903/43ffd882-077a-40dd-a264-e58d519420a1.jpg\"]","trial_type":"similarity","trial_index":142,"time_elapsed":2178535,"internal_node_id":"0.0-6.0-136.0"},{"sim_score":4,"rt":4553,"stimulus":"[\"img/0894/86201968-6e78-4d68-9b3a-d1692e066210.jpg\",\"img/0766/214866ee-423d-4629-9bb9-41572bdc7dac.jpg\"]","trial_type":"similarity","trial_index":143,"time_elapsed":2184096,"internal_node_id":"0.0-6.0-137.0"},{"sim_score":1,"rt":5598,"stimulus":"[\"img/0860/29a21a9f-54bb-4093-ad3f-04823ceaa89f.jpg\",\"img/0764/ba0c0955-acbb-457d-b1c2-f006b88121d5.jpg\"]","trial_type":"similarity","trial_index":144,"time_elapsed":2190699,"internal_node_id":"0.0-6.0-138.0"},{"sim_score":4,"rt":5650,"stimulus":"[\"img/0769/662ab839-88d1-4ebf-af05-9b2980cad943.jpg\",\"img/0902/b03fee99-d5ca-4bf8-871c-a4a743a39842.jpg\"]","trial_type":"similarity","trial_index":145,"time_elapsed":2197357,"internal_node_id":"0.0-6.0-139.0"},{"sim_score":4,"rt":5344,"stimulus":"[\"img/0904/4d7d70a3-9477-4921-bda0-f9531d0a5c5b.jpg\",\"img/0903/2c7b4aed-6038-4aac-958a-e3e58341c313.jpg\"]","trial_type":"similarity","trial_index":146,"time_elapsed":2203707,"internal_node_id":"0.0-6.0-140.0"},{"sim_score":6,"rt":9441,"stimulus":"[\"img/0764/713cc27e-2338-4486-bfe9-5f5725fbd7a0.jpg\",\"img/0769/965c3c44-d9e5-47c5-b61a-2bbdf4215d9a.jpg\"]","trial_type":"similarity","trial_index":147,"time_elapsed":2214154,"internal_node_id":"0.0-6.0-141.0"},{"sim_score":3,"rt":6924,"stimulus":"[\"img/0902/168ebd47-9e82-4ab7-a18b-c3da85072db8.jpg\",\"img/0881/ed4c971f-0873-4fc8-b6d6-e8bbd82f0bcc.jpg\"]","trial_type":"similarity","trial_index":148,"time_elapsed":2222086,"internal_node_id":"0.0-6.0-142.0"},{"sim_score":3,"rt":6393,"stimulus":"[\"img/0866/8efcaa46-83ab-4dee-a35f-850402aa21ae.jpg\",\"img/0864/49150900-7f25-4ce8-8d10-9b47a71d1997.jpg\"]","trial_type":"similarity","trial_index":149,"time_elapsed":2229491,"internal_node_id":"0.0-6.0-143.0"},{"sim_score":6,"rt":7658,"stimulus":"[\"img/0902/e5a46bda-30d1-41ca-b36d-b8529b5a63d1.jpg\",\"img/0898/e167334e-cc1d-4986-b3b1-c7bc7da64baa.jpg\"]","trial_type":"similarity","trial_index":150,"time_elapsed":2238157,"internal_node_id":"0.0-6.0-144.0"},{"sim_score":6,"rt":5147,"stimulus":"[\"img/0862/fb26cb07-d5a9-4653-813c-f41609f26cd5.jpg\",\"img/0864/0116ca98-293d-4fa6-a93b-5a6144ef64cc.jpg\"]","trial_type":"similarity","trial_index":151,"time_elapsed":2244311,"internal_node_id":"0.0-6.0-145.0"},{"sim_score":1,"rt":5996,"stimulus":"[\"img/0875/99698b4d-b4a1-44bc-8c83-8ea755bbbf61.jpg\",\"img/0898/661621d4-a14e-487c-8c74-354134a29710.jpg\"]","trial_type":"similarity","trial_index":152,"time_elapsed":2251313,"internal_node_id":"0.0-6.0-146.0"},{"sim_score":6,"rt":8274,"stimulus":"[\"img/0874/bf14b896-e930-4fd9-9c05-2e83317a2773.jpg\",\"img/0881/f6bd3b96-dc40-4e99-8681-bc3a35cf896d.jpg\"]","trial_type":"similarity","trial_index":153,"time_elapsed":2260595,"internal_node_id":"0.0-6.0-147.0"},{"sim_score":3,"rt":5489,"stimulus":"[\"img/0758/7fba58df-2a7a-4b76-8a8f-62739f97f271.jpg\",\"img/0894/3adef67d-7676-4995-80b2-bb31b8aca3ef.jpg\"]","trial_type":"similarity","trial_index":154,"time_elapsed":2267096,"internal_node_id":"0.0-6.0-148.0"},{"sim_score":2,"rt":5622,"stimulus":"[\"img/0904/e9423a8c-f946-43ad-ab7b-931acef870e2.jpg\",\"img/0864/e02eddb5-f468-499c-91bf-f7be3ffe979b.jpg\"]","trial_type":"similarity","trial_index":155,"time_elapsed":2273729,"internal_node_id":"0.0-6.0-149.0"},{"sim_score":4,"rt":9138,"stimulus":"[\"img/0769/c34b7763-8ff2-46d5-9e92-f1d8f3bedbd8.jpg\",\"img/0899/06b0fc99-0581-461a-9913-d1a5a941ac61.jpg\"]","trial_type":"similarity","trial_index":156,"time_elapsed":2283873,"internal_node_id":"0.0-6.0-150.0"},{"sim_score":4,"rt":4503,"stimulus":"[\"img/0764/fb92924f-5cfe-4b89-b130-0cce8cc5636b.jpg\",\"img/0903/647ce311-8c71-479a-8361-961db1457139.jpg\"]","trial_type":"similarity","trial_index":157,"time_elapsed":2320091,"internal_node_id":"0.0-6.0-151.0"},{"sim_score":3,"rt":5753,"stimulus":"[\"img/0903/31b5a5f4-b695-4af1-bad2-a19650a05498.jpg\",\"img/0864/9b2490c5-a282-400a-9736-e1a0ecbf1cb7.jpg\"]","trial_type":"similarity","trial_index":158,"time_elapsed":2326856,"internal_node_id":"0.0-6.0-152.0"},{"sim_score":3,"rt":4452,"stimulus":"[\"img/0894/e5edf723-72a5-4673-8441-6c1734a8929b.jpg\",\"img/0881/566f45f8-5fed-4479-a60f-26377e60a62d.jpg\"]","trial_type":"similarity","trial_index":159,"time_elapsed":2332314,"internal_node_id":"0.0-6.0-153.0"},{"sim_score":5,"rt":6641,"stimulus":"[\"img/0875/dbdd643e-6d0e-4a5c-ab57-b9c29b9c981a.jpg\",\"img/0867/f8488a47-94ee-4166-952c-44e16cf172f6.jpg\"]","trial_type":"similarity","trial_index":160,"time_elapsed":2339961,"internal_node_id":"0.0-6.0-154.0"},{"sim_score":3,"rt":5290,"stimulus":"[\"img/0867/85a96c62-548f-4994-9553-819e03c3135a.jpg\",\"img/0758/53f35650-e455-4b53-8be4-c3c8271c6466.jpg\"]","trial_type":"similarity","trial_index":161,"time_elapsed":2346258,"internal_node_id":"0.0-6.0-155.0"},{"sim_score":3,"rt":6889,"stimulus":"[\"img/0868/09a9ef4d-d000-4cfa-a6aa-ebec7c2edeb4.jpg\",\"img/0901/148b747a-7392-437e-8823-33053c5dff3f.jpg\"]","trial_type":"similarity","trial_index":162,"time_elapsed":2354164,"internal_node_id":"0.0-6.0-156.0"},{"sim_score":7,"rt":4979,"stimulus":"[\"img/0769/688d0c52-ad73-4065-a5eb-f8c10d076bff.jpg\",\"img/0894/bd34223a-2f66-4e16-9d18-193a746b69ff.jpg\"]","trial_type":"similarity","trial_index":163,"time_elapsed":2360153,"internal_node_id":"0.0-6.0-157.0"},{"sim_score":4,"rt":5194,"stimulus":"[\"img/0904/a8c3c7d2-9bcf-4347-9e03-8203adfc1fc5.jpg\",\"img/0758/a709631e-3705-4725-ac40-f0d916924f08.jpg\"]","trial_type":"similarity","trial_index":164,"time_elapsed":2366360,"internal_node_id":"0.0-6.0-158.0"},{"sim_score":3,"rt":11515,"stimulus":"[\"img/0874/3ce41e7c-40c8-4d58-a546-171114521796.jpg\",\"img/0904/4e58005d-a2ec-4aaa-b199-445343561396.jpg\"]","trial_type":"similarity","trial_index":165,"time_elapsed":2378882,"internal_node_id":"0.0-6.0-159.0"},{"sim_score":2,"rt":6164,"stimulus":"[\"img/0864/3651d070-2fc5-4848-b6a6-088a2d9ac5c9.jpg\",\"img/0901/b453df0b-4c39-49bb-8ced-6127efffa898.jpg\"]","trial_type":"similarity","trial_index":166,"time_elapsed":2386053,"internal_node_id":"0.0-6.0-160.0"},{"sim_score":3,"rt":5415,"stimulus":"[\"img/0898/0c7dde4f-efce-4b7a-9387-6921635b7890.jpg\",\"img/0866/be24ab58-230e-4db8-9f45-ff04c9aec6bb.jpg\"]","trial_type":"similarity","trial_index":167,"time_elapsed":2392474,"internal_node_id":"0.0-6.0-161.0"},{"sim_score":3,"rt":8741,"stimulus":"[\"img/0766/f5f78e4e-d88f-4866-951a-118ba9fec4d0.jpg\",\"img/0903/6f343da5-00d9-4d50-89d1-2ed24cdb8319.jpg\"]","trial_type":"similarity","trial_index":168,"time_elapsed":2402222,"internal_node_id":"0.0-6.0-162.0"},{"sim_score":5,"rt":12973,"stimulus":"[\"img/0860/18dfed73-e36b-4487-a8bd-0b8cff8e3668.jpg\",\"img/0899/ddf96ade-692e-4602-bd22-dedbb46401bc.jpg\"]","trial_type":"similarity","trial_index":169,"time_elapsed":2416203,"internal_node_id":"0.0-6.0-163.0"},{"sim_score":3,"rt":5334,"stimulus":"[\"img/0766/00891401-e4c9-4ce1-bc19-f70740d174bc.jpg\",\"img/0862/47ed5efd-4ec9-4b74-bb4e-a5f5cf0c3e7d.jpg\"]","trial_type":"similarity","trial_index":170,"time_elapsed":2422545,"internal_node_id":"0.0-6.0-164.0"},{"sim_score":5,"rt":6139,"stimulus":"[\"img/0898/40f99fb2-64d2-4e72-8a7f-a1cf60741e69.jpg\",\"img/0894/661b9f9f-4bde-487a-b1ed-87085fde6948.jpg\"]","trial_type":"similarity","trial_index":171,"time_elapsed":2429698,"internal_node_id":"0.0-6.0-165.0"},{"sim_score":2,"rt":6819,"stimulus":"[\"img/0867/db7e032f-162b-46f5-ae67-2b29679adee4.jpg\",\"img/0766/ef3b15ce-abb7-4292-ad93-aec8e8b50520.jpg\"]","trial_type":"similarity","trial_index":172,"time_elapsed":2437527,"internal_node_id":"0.0-6.0-166.0"},{"sim_score":3,"rt":5160,"stimulus":"[\"img/0904/da170c1b-9651-4f08-b231-2bdd1d9a046f.jpg\",\"img/0862/e8cc3bdf-cc43-4565-bccf-492626c70953.jpg\"]","trial_type":"similarity","trial_index":173,"time_elapsed":2443693,"internal_node_id":"0.0-6.0-167.0"},{"sim_score":5,"rt":6948,"stimulus":"[\"img/0866/93a27239-8317-4e08-98ca-d8b1ff298e07.jpg\",\"img/0874/99f6563c-8a8d-4c1c-a41d-667b618c3fd5.jpg\"]","trial_type":"similarity","trial_index":174,"time_elapsed":2451648,"internal_node_id":"0.0-6.0-168.0"},{"sim_score":2,"rt":5879,"stimulus":"[\"img/0903/70d764d9-1f35-4da7-a35d-4cc39834d270.jpg\",\"img/0868/6a28c3b0-3d76-498a-9fb7-ddafc665eca8.jpg\"]","trial_type":"similarity","trial_index":175,"time_elapsed":2458533,"internal_node_id":"0.0-6.0-169.0"},{"sim_score":7,"rt":6541,"stimulus":"[\"img/0769/0fe124d3-bcad-45f6-b64d-8f6eb8ee5251.jpg\",\"img/0904/09934646-45d2-4147-8fec-64a22a5ac822.jpg\"]","trial_type":"similarity","trial_index":176,"time_elapsed":2466083,"internal_node_id":"0.0-6.0-170.0"},{"sim_score":2,"rt":4944,"stimulus":"[\"img/0875/5a7c4e35-6514-4e12-8879-d16071da4cd6.jpg\",\"img/0764/1def7b22-b054-4ec2-860b-73d25691823b.jpg\"]","trial_type":"similarity","trial_index":177,"time_elapsed":2472038,"internal_node_id":"0.0-6.0-171.0"},{"sim_score":3,"rt":5627,"stimulus":"[\"img/0860/5383b320-1518-4095-a58e-5cc1ae30b64c.jpg\",\"img/0903/b548d383-2a95-4575-8c13-647873751ff1.jpg\"]","trial_type":"similarity","trial_index":178,"time_elapsed":2478680,"internal_node_id":"0.0-6.0-172.0"},{"sim_score":3,"rt":5925,"stimulus":"[\"img/0864/5f33e097-23e3-4002-882d-76e8cb15f451.jpg\",\"img/0867/ac1797e4-8afc-48fe-b252-86d1defb1cca.jpg\"]","trial_type":"similarity","trial_index":179,"time_elapsed":2485618,"internal_node_id":"0.0-6.0-173.0"},{"sim_score":3,"rt":6321,"stimulus":"[\"img/0868/5fa7f9d0-f0e5-454c-8224-74d964818f56.jpg\",\"img/0864/87c467d3-abca-482f-ad80-3766c21b1bb3.jpg\"]","trial_type":"similarity","trial_index":180,"time_elapsed":2492953,"internal_node_id":"0.0-6.0-174.0"},{"sim_score":6,"rt":7400,"stimulus":"[\"img/0898/4184e5a2-84ea-4f36-9b42-ae58646f6f87.jpg\",\"img/0769/9ea9ceb6-049e-4ad9-be8f-00645cd35803.jpg\"]","trial_type":"similarity","trial_index":181,"time_elapsed":2501365,"internal_node_id":"0.0-6.0-175.0"},{"sim_score":6,"rt":5107,"stimulus":"[\"img/0766/535849cc-ff5d-4df9-8f31-0ce94a97d571.jpg\",\"img/0764/bd2eaa3e-95a9-4a59-a78e-3f81c766eea9.jpg\"]","trial_type":"similarity","trial_index":182,"time_elapsed":2507482,"internal_node_id":"0.0-6.0-176.0"},{"sim_score":2,"rt":5709,"stimulus":"[\"img/0764/438c0217-036f-43c9-9b87-f43144e46011.jpg\",\"img/0866/386235d2-6857-41e7-88a8-25cfc3430025.jpg\"]","trial_type":"similarity","trial_index":183,"time_elapsed":2514196,"internal_node_id":"0.0-6.0-177.0"},{"sim_score":3,"rt":5243,"stimulus":"[\"img/0902/31abfa33-7cdb-44ad-968e-9f7b324d577a.jpg\",\"img/0875/2c361b79-c3d1-4eda-812e-bf03192407bf.jpg\"]","trial_type":"similarity","trial_index":184,"time_elapsed":2520445,"internal_node_id":"0.0-6.0-178.0"},{"sim_score":3,"rt":4729,"stimulus":"[\"img/0881/84397291-bc14-4fbf-90e8-241e486ab0fe.jpg\",\"img/0904/2fd488e9-960f-41f7-8a44-33375f7d5051.jpg\"]","trial_type":"similarity","trial_index":185,"time_elapsed":2526187,"internal_node_id":"0.0-6.0-179.0"},{"sim_score":3,"rt":4974,"stimulus":"[\"img/0874/ca76a855-4e77-4f2f-872a-0a718153e7ed.jpg\",\"img/0860/c5ccd1a4-4bb7-48e1-9b25-72cfaf06909b.jpg\"]","trial_type":"similarity","trial_index":186,"time_elapsed":2532171,"internal_node_id":"0.0-6.0-180.0"},{"sim_score":3,"rt":6357,"stimulus":"[\"img/0769/8598a429-c671-4d2f-842c-32f681f5e412.jpg\",\"img/0874/8cdb1c07-1c32-46d2-981c-3636560fa6e5.jpg\"]","trial_type":"similarity","trial_index":187,"time_elapsed":2539538,"internal_node_id":"0.0-6.0-181.0"},{"sim_score":4,"rt":5011,"stimulus":"[\"img/0904/06dacdc5-2206-4fb8-92b7-88042d22833c.jpg\",\"img/0766/f3276cc4-65de-4c2d-88d5-6cfebce14b8f.jpg\"]","trial_type":"similarity","trial_index":188,"time_elapsed":2545556,"internal_node_id":"0.0-6.0-182.0"},{"sim_score":5,"rt":8935,"stimulus":"[\"img/0902/6c2c243a-f663-45db-baf5-038d3d58c589.jpg\",\"img/0764/83c93cce-18d1-4aa7-9e23-2c268afe0a46.jpg\"]","trial_type":"similarity","trial_index":189,"time_elapsed":2555496,"internal_node_id":"0.0-6.0-183.0"},{"sim_score":3,"rt":5886,"stimulus":"[\"img/0769/47700831-0ca2-4fdd-a498-a3bc5a528f43.jpg\",\"img/0875/2e13d160-eea1-416b-aff1-d37ab99ecc1d.jpg\"]","trial_type":"similarity","trial_index":190,"time_elapsed":2562396,"internal_node_id":"0.0-6.0-184.0"},{"sim_score":3,"rt":6606,"stimulus":"[\"img/0867/7d1c497b-c1b3-4ed8-abb5-d7f73306015f.jpg\",\"img/0903/0a92ec52-4e87-410a-857a-4455cde56a70.jpg\"]","trial_type":"similarity","trial_index":191,"time_elapsed":2570017,"internal_node_id":"0.0-6.0-185.0"},{"sim_score":4,"rt":5991,"stimulus":"[\"img/0862/064818ee-13d5-4618-bb24-21c7368ea278.jpg\",\"img/0769/aad494cc-674d-4a08-9bfa-24a88ebe3c79.jpg\"]","trial_type":"similarity","trial_index":192,"time_elapsed":2577016,"internal_node_id":"0.0-6.0-186.0"},{"sim_score":2,"rt":7182,"stimulus":"[\"img/0766/2746b119-4bba-463e-acf0-88136dc6600c.jpg\",\"img/0866/c446214b-a368-4c65-ae39-ea46894256ab.jpg\"]","trial_type":"similarity","trial_index":193,"time_elapsed":2585205,"internal_node_id":"0.0-6.0-187.0"},{"sim_score":3,"rt":10688,"stimulus":"[\"img/0769/91acb237-65a3-4d0b-9748-af5c7b83d3c7.jpg\",\"img/0860/15b24a61-25be-4356-9eac-5ce95d0cb4a4.jpg\"]","trial_type":"similarity","trial_index":194,"time_elapsed":2596900,"internal_node_id":"0.0-6.0-188.0"},{"sim_score":3,"rt":6050,"stimulus":"[\"img/0881/db77fe00-aeb0-4d1d-aa66-f3a96fd077e4.jpg\",\"img/0868/d6d1f30d-4323-435a-b194-7892521bc57e.jpg\"]","trial_type":"similarity","trial_index":195,"time_elapsed":2606306,"internal_node_id":"0.0-6.0-189.0"},{"view_history":"[{\"page_index\":0,\"viewing_time\":3600}]","rt":3600,"trial_type":"instructions","trial_index":196,"time_elapsed":2610908,"internal_node_id":"0.0-7.0"},{"rt":11502,"responses":"{\"Q0\":\"Nashville Warbler\"}","answer":["Nashville Warbler"],"trial_type":"image-multi-choice","trial_index":197,"time_elapsed":2623438,"internal_node_id":"0.0-8.0-0.0"},{"rt":7339,"responses":"{\"Q0\":\"Black-and-white Warbler\"}","answer":["Black-and-white Warbler"],"trial_type":"image-multi-choice","trial_index":198,"time_elapsed":2631807,"internal_node_id":"0.0-8.0-1.0"},{"rt":6500,"responses":"{\"Q0\":\"Blackburnian Warbler\"}","answer":["Townsend's Warbler"],"trial_type":"image-multi-choice","trial_index":199,"time_elapsed":2639335,"internal_node_id":"0.0-8.0-2.0"},{"rt":4231,"responses":"{\"Q0\":\"Lark Sparrow\"}","answer":["Lark Sparrow"],"trial_type":"image-multi-choice","trial_index":200,"time_elapsed":2644589,"internal_node_id":"0.0-8.0-3.0"},{"rt":5196,"responses":"{\"Q0\":\"Yellow Warbler\"}","answer":["Yellow Warbler"],"trial_type":"image-multi-choice","trial_index":201,"time_elapsed":2650808,"internal_node_id":"0.0-8.0-4.0"},{"rt":6075,"responses":"{\"Q0\":\"Orange-crowned Warbler\"}","answer":["Orange-crowned Warbler"],"trial_type":"image-multi-choice","trial_index":202,"time_elapsed":2657901,"internal_node_id":"0.0-8.0-5.0"},{"rt":4729,"responses":"{\"Q0\":\"White-throated Sparrow\"}","answer":["White-throated Sparrow"],"trial_type":"image-multi-choice","trial_index":203,"time_elapsed":2663655,"internal_node_id":"0.0-8.0-6.0"},{"rt":6008,"responses":"{\"Q0\":\"Fox Sparrow\"}","answer":["Fox Sparrow"],"trial_type":"image-multi-choice","trial_index":204,"time_elapsed":2670683,"internal_node_id":"0.0-8.0-7.0"},{"rt":40820,"responses":"{\"Q0\":\"Swamp Sparrow\"}","answer":["Song Sparrow"],"trial_type":"image-multi-choice","trial_index":205,"time_elapsed":2712533,"internal_node_id":"0.0-8.0-8.0"},{"rt":29736,"responses":"{\"Q0\":\"Townsend's Warbler\"}","answer":["Blackburnian Warbler"],"trial_type":"image-multi-choice","trial_index":206,"time_elapsed":2743295,"internal_node_id":"0.0-8.0-9.0"},{"rt":6474,"responses":"{\"Q0\":\"Vesper Sparrow\"}","answer":["Vesper Sparrow"],"trial_type":"image-multi-choice","trial_index":207,"time_elapsed":2750788,"internal_node_id":"0.0-8.0-10.0"},{"rt":3932,"responses":"{\"Q0\":\"White-crowned Sparrow\"}","answer":["White-crowned Sparrow"],"trial_type":"image-multi-choice","trial_index":208,"time_elapsed":2755746,"internal_node_id":"0.0-8.0-11.0"},{"rt":6042,"responses":"{\"Q0\":\"Chipping Sparrow\"}","answer":["American Tree Sparrow"],"trial_type":"image-multi-choice","trial_index":209,"time_elapsed":2762810,"internal_node_id":"0.0-8.0-12.0"},{"rt":6939,"responses":"{\"Q0\":\"Tennessee Warbler\"}","answer":["Tennessee Warbler"],"trial_type":"image-multi-choice","trial_index":210,"time_elapsed":2770779,"internal_node_id":"0.0-8.0-13.0"},{"rt":4465,"responses":"{\"Q0\":\"Magnolia Warbler\"}","answer":["Magnolia Warbler"],"trial_type":"image-multi-choice","trial_index":211,"time_elapsed":2776274,"internal_node_id":"0.0-8.0-14.0"},{"rt":5674,"responses":"{\"Q0\":\"Northern Waterthrush\"}","answer":["Northern Waterthrush"],"trial_type":"image-multi-choice","trial_index":212,"time_elapsed":2782968,"internal_node_id":"0.0-8.0-15.0"},{"rt":6905,"responses":"{\"Q0\":\"Chipping Sparrow\"}","answer":["Chipping Sparrow"],"trial_type":"image-multi-choice","trial_index":213,"time_elapsed":2790898,"internal_node_id":"0.0-8.0-16.0"},{"rt":6230,"responses":"{\"Q0\":\"Swamp Sparrow\"}","answer":["Swamp Sparrow"],"trial_type":"image-multi-choice","trial_index":214,"time_elapsed":2798146,"internal_node_id":"0.0-8.0-17.0"},{"rt":4939,"responses":"{\"Q0\":\"Lincoln's Sparrow\"}","answer":["Lincoln's Sparrow"],"trial_type":"image-multi-choice","trial_index":215,"time_elapsed":2804109,"internal_node_id":"0.0-8.0-18.0"},{"rt":4858,"responses":"{\"Q0\":\"Ovenbird\"}","answer":["Ovenbird"],"trial_type":"image-multi-choice","trial_index":216,"time_elapsed":2809997,"internal_node_id":"0.0-8.0-19.0"}]