[{"view_history":"[{\"page_index\":0,\"viewing_time\":26369}]","rt":26370,"trial_type":"instructions","trial_index":0,"time_elapsed":26372,"internal_node_id":"0.0-0.0"},{"sim_score":7,"rt":6686,"stimulus":"[\"img/bluejay1.jpg\",\"img/bluejay2.jpg\"]","trial_type":"similarity_demo","trial_index":1,"time_elapsed":34072,"internal_node_id":"0.0-1.0"},{"view_history":"[{\"page_index\":0,\"viewing_time\":9010}]","rt":9011,"trial_type":"instructions","trial_index":2,"time_elapsed":44087,"internal_node_id":"0.0-2.0"},{"sim_score":3,"rt":15363,"stimulus":"[\"img/bluejay1.jpg\",\"img/cardinal1.jpg\"]","trial_type":"similarity_demo","trial_index":3,"time_elapsed":60458,"internal_node_id":"0.0-3.0"},{"view_history":"[{\"page_index\":0,\"viewing_time\":8744}]","rt":8745,"trial_type":"instructions","trial_index":4,"time_elapsed":70204,"internal_node_id":"0.0-4.0"},{"view_history":"[{\"page_index\":0,\"viewing_time\":18554}]","rt":18555,"trial_type":"instructions","trial_index":5,"time_elapsed":89763,"internal_node_id":"0.0-5.0"},{"sim_score":1,"rt":6695,"stimulus":"[\"img/0868/77091fc7-a590-4ebb-b915-fdb2483a2399.jpg\",\"img/0894/38f5931f-926d-414e-b498-66b188978b7a.jpg\"]","trial_type":"similarity","trial_index":6,"time_elapsed":97468,"internal_node_id":"0.0-6.0-0.0"},{"sim_score":3,"rt":5296,"stimulus":"[\"img/0898/79233891-305a-4a6a-8ddf-5c8604858203.jpg\",\"img/0758/335851a0-a55b-46d8-ab05-8463eda48349.jpg\"]","trial_type":"similarity","trial_index":7,"time_elapsed":103773,"internal_node_id":"0.0-6.0-1.0"},{"sim_score":3,"rt":6096,"stimulus":"[\"img/0903/365f176c-25a4-4973-bd3c-279bf1b39476.jpg\",\"img/0894/3664e04c-c6d3-4c9b-afb6-25d89974b174.jpg\"]","trial_type":"similarity","trial_index":8,"time_elapsed":110880,"internal_node_id":"0.0-6.0-2.0"},{"sim_score":3,"rt":4136,"stimulus":"[\"img/0881/14236cf2-6b95-48b8-9368-78af09d2d27f.jpg\",\"img/0766/e8052e17-9dae-4139-802b-6e590cb2d526.jpg\"]","trial_type":"similarity","trial_index":9,"time_elapsed":116023,"internal_node_id":"0.0-6.0-3.0"},{"sim_score":3,"rt":4981,"stimulus":"[\"img/0864/da39ad34-04e0-40d4-a724-c08d53e0ea09.jpg\",\"img/0860/94ef7afc-e0e6-4a15-98c6-0bfac82bc832.jpg\"]","trial_type":"similarity","trial_index":10,"time_elapsed":122011,"internal_node_id":"0.0-6.0-4.0"},{"sim_score":3,"rt":5875,"stimulus":"[\"img/0902/f3cfec34-482c-4bdb-9c92-19ea6cfce183.jpg\",\"img/0899/76ad07e2-ca25-45eb-84f2-8d80b8ca3e26.jpg\"]","trial_type":"similarity","trial_index":11,"time_elapsed":128892,"internal_node_id":"0.0-6.0-5.0"},{"sim_score":3,"rt":3593,"stimulus":"[\"img/0868/15dd6fd7-791e-4b53-b203-195d617521a4.jpg\",\"img/0769/3c1efec9-f8fd-487d-8955-4be88e48c832.jpg\"]","trial_type":"similarity","trial_index":12,"time_elapsed":133494,"internal_node_id":"0.0-6.0-6.0"},{"sim_score":3,"rt":3812,"stimulus":"[\"img/0764/39a9fc7e-b863-432c-9374-de43983f31a5.jpg\",\"img/0901/693e0535-ef7e-4d60-af9d-fac2f38e8307.jpg\"]","trial_type":"similarity","trial_index":13,"time_elapsed":138312,"internal_node_id":"0.0-6.0-7.0"},{"sim_score":3,"rt":4479,"stimulus":"[\"img/0881/54ea8e77-c7e5-4197-b7fa-00b7020849a7.jpg\",\"img/0866/93a27239-8317-4e08-98ca-d8b1ff298e07.jpg\"]","trial_type":"similarity","trial_index":14,"time_elapsed":143801,"internal_node_id":"0.0-6.0-8.0"},{"sim_score":3,"rt":3741,"stimulus":"[\"img/0867/bf560d4f-dee3-4f11-a385-705cc1aa5f3c.jpg\",\"img/0899/8abe6c69-822c-436c-9bf2-96c818b49ba5.jpg\"]","trial_type":"similarity","trial_index":15,"time_elapsed":148551,"internal_node_id":"0.0-6.0-9.0"},{"sim_score":3,"rt":4010,"stimulus":"[\"img/0875/ebf7653f-ff45-4e9f-af58-2c042ab3cd2b.jpg\",\"img/0766/0bf3793e-c353-45e5-ac6f-753f5f484e10.jpg\"]","trial_type":"similarity","trial_index":16,"time_elapsed":153568,"internal_node_id":"0.0-6.0-10.0"},{"sim_score":3,"rt":4397,"stimulus":"[\"img/0901/b13fa50f-dbe0-4d0f-8647-6ac0fd8f40bd.jpg\",\"img/0875/03c3c331-738b-4446-af92-3d7386b08c2e.jpg\"]","trial_type":"similarity","trial_index":17,"time_elapsed":158971,"internal_node_id":"0.0-6.0-11.0"},{"sim_score":3,"rt":7052,"stimulus":"[\"img/0902/d1083f2c-5520-44ec-81a8-3f856fbf0e80.jpg\",\"img/0860/c47fdead-eb02-4989-b078-26f4852f44fe.jpg\"]","trial_type":"similarity","trial_index":18,"time_elapsed":167031,"internal_node_id":"0.0-6.0-12.0"},{"sim_score":3,"rt":4511,"stimulus":"[\"img/0874/93d1f8dc-acf2-4f03-bd8d-8ec35df276ed.jpg\",\"img/0867/f8159067-056c-41f1-a136-c529fe5e970a.jpg\"]","trial_type":"similarity","trial_index":19,"time_elapsed":172548,"internal_node_id":"0.0-6.0-13.0"},{"sim_score":3,"rt":4068,"stimulus":"[\"img/0904/4e58005d-a2ec-4aaa-b199-445343561396.jpg\",\"img/0866/0207e9a2-7dbb-40b5-9459-b472aaeceb2a.jpg\"]","trial_type":"similarity","trial_index":20,"time_elapsed":177622,"internal_node_id":"0.0-6.0-14.0"},{"sim_score":3,"rt":4186,"stimulus":"[\"img/0758/d540bee6-b460-4c32-ac57-bc282742d7d4.jpg\",\"img/0902/3b243e54-0803-4c29-af42-4037c2118495.jpg\"]","trial_type":"similarity","trial_index":21,"time_elapsed":182813,"internal_node_id":"0.0-6.0-15.0"},{"sim_score":3,"rt":3760,"stimulus":"[\"img/0867/de92135f-5b65-4ed9-b245-188292c7c2f8.jpg\",\"img/0898/a114b375-cb89-44ba-9498-74213f1ecdee.jpg\"]","trial_type":"similarity","trial_index":22,"time_elapsed":187578,"internal_node_id":"0.0-6.0-16.0"},{"sim_score":3,"rt":3174,"stimulus":"[\"img/0904/9d30eff1-46ef-4453-b11e-124ef8145c00.jpg\",\"img/0868/fd307a36-9a3a-47d7-ab7c-f810d0b35040.jpg\"]","trial_type":"similarity","trial_index":23,"time_elapsed":191757,"internal_node_id":"0.0-6.0-17.0"},{"sim_score":3,"rt":4600,"stimulus":"[\"img/0766/5d6e0d1d-4369-41f0-a64c-91f3503055c7.jpg\",\"img/0864/9b2490c5-a282-400a-9736-e1a0ecbf1cb7.jpg\"]","trial_type":"similarity","trial_index":24,"time_elapsed":197366,"internal_node_id":"0.0-6.0-18.0"},{"sim_score":3,"rt":6026,"stimulus":"[\"img/0899/51a7a498-98c7-42d7-bca8-bc2d8f0b5831.jpg\",\"img/0766/a0270213-fa0e-4972-8b56-228c3e01ff90.jpg\"]","trial_type":"similarity","trial_index":25,"time_elapsed":204399,"internal_node_id":"0.0-6.0-19.0"},{"sim_score":3,"rt":3375,"stimulus":"[\"img/0764/d0bef2e0-e16b-4c82-9451-c1d16265eb67.jpg\",\"img/0758/61d64021-9214-4951-bdf8-f871f9827cf9.jpg\"]","trial_type":"similarity","trial_index":26,"time_elapsed":208782,"internal_node_id":"0.0-6.0-20.0"},{"sim_score":3,"rt":3260,"stimulus":"[\"img/0901/4ca4f962-40c0-4c59-b14a-3cd7b8c9029b.jpg\",\"img/0874/29830da7-be5f-44e5-b141-652a0ccf7269.jpg\"]","trial_type":"similarity","trial_index":27,"time_elapsed":213048,"internal_node_id":"0.0-6.0-21.0"},{"sim_score":3,"rt":2692,"stimulus":"[\"img/0875/a4935837-7d3c-4df6-88c1-36a94d4991ca.jpg\",\"img/0758/e1ba5e53-addc-436a-b428-d34fc1b130dc.jpg\"]","trial_type":"similarity","trial_index":28,"time_elapsed":216750,"internal_node_id":"0.0-6.0-22.0"},{"sim_score":3,"rt":3648,"stimulus":"[\"img/0867/a498eef3-9fa4-4ab2-9778-4ae82ac40dc5.jpg\",\"img/0881/344de456-b358-4887-bd0e-e4c3278af887.jpg\"]","trial_type":"similarity","trial_index":29,"time_elapsed":221405,"internal_node_id":"0.0-6.0-23.0"},{"sim_score":3,"rt":3149,"stimulus":"[\"img/0758/a709631e-3705-4725-ac40-f0d916924f08.jpg\",\"img/0901/58978a6d-a3e2-4c59-8d62-f60693ecc0f6.jpg\"]","trial_type":"similarity","trial_index":30,"time_elapsed":225564,"internal_node_id":"0.0-6.0-24.0"},{"sim_score":3,"rt":2928,"stimulus":"[\"img/0868/09a9ef4d-d000-4cfa-a6aa-ebec7c2edeb4.jpg\",\"img/0875/2e13d160-eea1-416b-aff1-d37ab99ecc1d.jpg\"]","trial_type":"similarity","trial_index":31,"time_elapsed":229500,"internal_node_id":"0.0-6.0-25.0"},{"sim_score":3,"rt":3176,"stimulus":"[\"img/0903/6b5dcc60-3ad3-4962-93e5-e6cf768477af.jpg\",\"img/0901/b9141736-3041-4385-a586-b1fe911c76a5.jpg\"]","trial_type":"similarity","trial_index":32,"time_elapsed":233682,"internal_node_id":"0.0-6.0-26.0"},{"sim_score":3,"rt":3690,"stimulus":"[\"img/0894/1a010553-d598-4b06-a772-81f1e7b3addb.jpg\",\"img/0899/0433d056-aa30-4f8a-9aa1-abbb951e4edd.jpg\"]","trial_type":"similarity","trial_index":33,"time_elapsed":238380,"internal_node_id":"0.0-6.0-27.0"},{"sim_score":3,"rt":3516,"stimulus":"[\"img/0862/f188d4f0-76a4-4102-818c-a209969d73a5.jpg\",\"img/0867/a749dddb-69f0-44a6-acdc-2bf295cf6dcc.jpg\"]","trial_type":"similarity","trial_index":34,"time_elapsed":242902,"internal_node_id":"0.0-6.0-28.0"},{"sim_score":3,"rt":3412,"stimulus":"[\"img/0864/a248adb3-c70b-4652-b7a3-776d2a1e904b.jpg\",\"img/0875/99698b4d-b4a1-44bc-8c83-8ea755bbbf61.jpg\"]","trial_type":"similarity","trial_index":35,"time_elapsed":247323,"internal_node_id":"0.0-6.0-29.0"},{"sim_score":3,"rt":3482,"stimulus":"[\"img/0862/92f0146c-20c4-482e-aef5-adb693790338.jpg\",\"img/0874/85eb9b8a-c4c6-4e5a-b8e7-363a87a82054.jpg\"]","trial_type":"similarity","trial_index":36,"time_elapsed":251813,"internal_node_id":"0.0-6.0-30.0"},{"sim_score":3,"rt":2670,"stimulus":"[\"img/0903/70d764d9-1f35-4da7-a35d-4cc39834d270.jpg\",\"img/0758/ddc336e9-a8b6-4bb9-937a-c7e25e0e9250.jpg\"]","trial_type":"similarity","trial_index":37,"time_elapsed":255494,"internal_node_id":"0.0-6.0-31.0"},{"sim_score":3,"rt":3063,"stimulus":"[\"img/0866/6f2a90d7-14f1-4f1b-bd64-fc0af6b9fe44.jpg\",\"img/0901/a6c90438-fa7c-4418-ac7c-16c2e772dd98.jpg\"]","trial_type":"similarity","trial_index":38,"time_elapsed":259562,"internal_node_id":"0.0-6.0-32.0"},{"sim_score":3,"rt":3872,"stimulus":"[\"img/0874/eba003b4-cdab-4eee-8bc3-f064c7d94165.jpg\",\"img/0899/f95cbdb4-f804-4f5d-ad76-373ad343e658.jpg\"]","trial_type":"similarity","trial_index":39,"time_elapsed":264440,"internal_node_id":"0.0-6.0-33.0"},{"sim_score":3,"rt":6244,"stimulus":"[\"img/0903/0e5c2854-42aa-48c0-9c3d-6e1ad2a400bd.jpg\",\"img/0902/71c03003-03ef-4b0f-8229-e0c857150a5d.jpg\"]","trial_type":"similarity","trial_index":40,"time_elapsed":271689,"internal_node_id":"0.0-6.0-34.0"},{"sim_score":3,"rt":4252,"stimulus":"[\"img/0758/2fa3e613-e676-4e6e-bd12-705327eeb3e1.jpg\",\"img/0866/a04d37f0-99dd-478a-b6c6-58b215138f84.jpg\"]","trial_type":"similarity","trial_index":41,"time_elapsed":276946,"internal_node_id":"0.0-6.0-35.0"},{"sim_score":3,"rt":3138,"stimulus":"[\"img/0875/fb732ab5-013a-4366-9f65-27811ed157e9.jpg\",\"img/0903/c708d08f-a108-4e04-8288-c3fcf6375db4.jpg\"]","trial_type":"similarity","trial_index":42,"time_elapsed":281092,"internal_node_id":"0.0-6.0-36.0"},{"sim_score":3,"rt":4208,"stimulus":"[\"img/0864/3d4de670-b290-4285-9c3d-12a0e3af44e9.jpg\",\"img/0902/417d8b4a-3c72-4adc-ac78-820e833316f2.jpg\"]","trial_type":"similarity","trial_index":43,"time_elapsed":324252,"internal_node_id":"0.0-6.0-37.0"},{"sim_score":3,"rt":3478,"stimulus":"[\"img/0901/deff6cfb-0072-4490-bc3e-206bbcd3e8bf.jpg\",\"img/0867/c71dc569-f49c-4397-8381-68b8d726736d.jpg\"]","trial_type":"similarity","trial_index":44,"time_elapsed":328737,"internal_node_id":"0.0-6.0-38.0"},{"sim_score":3,"rt":4252,"stimulus":"[\"img/0862/e8cc3bdf-cc43-4565-bccf-492626c70953.jpg\",\"img/0860/9593362c-9fe5-4d12-9735-6000a11f6aa5.jpg\"]","trial_type":"similarity","trial_index":45,"time_elapsed":333998,"internal_node_id":"0.0-6.0-39.0"},{"sim_score":3,"rt":5234,"stimulus":"[\"img/0867/f26f6b60-f772-4f4c-95a4-addc62cfd692.jpg\",\"img/0868/e0aff734-077f-40dd-9781-74821abd3621.jpg\"]","trial_type":"similarity","trial_index":46,"time_elapsed":340238,"internal_node_id":"0.0-6.0-40.0"},{"sim_score":3,"rt":5143,"stimulus":"[\"img/0904/a8c3c7d2-9bcf-4347-9e03-8203adfc1fc5.jpg\",\"img/0899/9de5e857-aa9a-4e0c-8ba2-46d79bd069a4.jpg\"]","trial_type":"similarity","trial_index":47,"time_elapsed":346388,"internal_node_id":"0.0-6.0-41.0"},{"sim_score":3,"rt":4077,"stimulus":"[\"img/0862/ad593cc7-cabe-4bb7-8e14-8a447a0717b4.jpg\",\"img/0894/05161000-f476-499b-a878-c13c7f347fd9.jpg\"]","trial_type":"similarity","trial_index":48,"time_elapsed":351472,"internal_node_id":"0.0-6.0-42.0"},{"sim_score":3,"rt":3144,"stimulus":"[\"img/0875/34132396-d896-4c2d-8087-646dd867e769.jpg\",\"img/0904/0d25eb24-bb20-4e8d-9787-8b489558b4cb.jpg\"]","trial_type":"similarity","trial_index":49,"time_elapsed":355621,"internal_node_id":"0.0-6.0-43.0"},{"sim_score":3,"rt":3120,"stimulus":"[\"img/0874/8cdb1c07-1c32-46d2-981c-3636560fa6e5.jpg\",\"img/0898/5f699581-3853-4547-856c-12f419ba5af7.jpg\"]","trial_type":"similarity","trial_index":50,"time_elapsed":359751,"internal_node_id":"0.0-6.0-44.0"},{"sim_score":3,"rt":4102,"stimulus":"[\"img/0898/6cd3830b-d44e-4915-be2b-88d31424b91c.jpg\",\"img/0868/5fa7f9d0-f0e5-454c-8224-74d964818f56.jpg\"]","trial_type":"similarity","trial_index":51,"time_elapsed":364861,"internal_node_id":"0.0-6.0-45.0"},{"sim_score":3,"rt":4206,"stimulus":"[\"img/0901/d4d09bf5-093e-4050-838e-7c738be8e63c.jpg\",\"img/0860/31ff6436-98bf-4652-bed2-40f627229568.jpg\"]","trial_type":"similarity","trial_index":52,"time_elapsed":370073,"internal_node_id":"0.0-6.0-46.0"},{"sim_score":3,"rt":4746,"stimulus":"[\"img/0894/9b1333fd-3561-43bf-aee5-99b7b7ca3dc3.jpg\",\"img/0902/0c760cc9-10ac-429e-8957-a7d51fc99683.jpg\"]","trial_type":"similarity","trial_index":53,"time_elapsed":375827,"internal_node_id":"0.0-6.0-47.0"},{"sim_score":3,"rt":5008,"stimulus":"[\"img/0764/55b3fab1-b809-4d38-a461-3f40ce062f52.jpg\",\"img/0862/064818ee-13d5-4618-bb24-21c7368ea278.jpg\"]","trial_type":"similarity","trial_index":54,"time_elapsed":381840,"internal_node_id":"0.0-6.0-48.0"},{"sim_score":7,"rt":15086,"stimulus":"[\"img/0881/20af39f5-373d-4a55-a437-2dc4c0382c46.jpg\",\"img/0758/7ee8bc8f-c40b-4b3a-84ec-3e83580622d4.jpg\"]","trial_type":"similarity","trial_index":55,"time_elapsed":397932,"internal_node_id":"0.0-6.0-49.0"},{"sim_score":3,"rt":5000,"stimulus":"[\"img/0766/aaec5f42-7f0a-4a16-aeca-488d757acbcc.jpg\",\"img/0769/1d8734c4-77ab-4165-9e71-5cfe672ff01c.jpg\"]","trial_type":"similarity","trial_index":56,"time_elapsed":403937,"internal_node_id":"0.0-6.0-50.0"},{"sim_score":3,"rt":3061,"stimulus":"[\"img/0875/dbdd643e-6d0e-4a5c-ab57-b9c29b9c981a.jpg\",\"img/0866/02f5e6b9-52b7-448c-9708-5b460d0c9a23.jpg\"]","trial_type":"similarity","trial_index":57,"time_elapsed":408004,"internal_node_id":"0.0-6.0-51.0"},{"sim_score":3,"rt":5955,"stimulus":"[\"img/0894/b422d5c6-3c5a-49ae-a53e-7e88ac993f49.jpg\",\"img/0904/09dac84f-3d1c-4445-a68e-d0389fdbf1e9.jpg\"]","trial_type":"similarity","trial_index":58,"time_elapsed":414966,"internal_node_id":"0.0-6.0-52.0"},{"sim_score":3,"rt":3962,"stimulus":"[\"img/0758/eabcd7a8-56ad-4fd2-bc24-90f6b7b33265.jpg\",\"img/0769/35364db7-e0d5-40ef-93dc-faf9dfb95136.jpg\"]","trial_type":"similarity","trial_index":59,"time_elapsed":419933,"internal_node_id":"0.0-6.0-53.0"},{"sim_score":3,"rt":5694,"stimulus":"[\"img/0902/2db723b6-130f-454c-8c8d-88829edbcd65.jpg\",\"img/0874/3ce41e7c-40c8-4d58-a546-171114521796.jpg\"]","trial_type":"similarity","trial_index":60,"time_elapsed":426632,"internal_node_id":"0.0-6.0-54.0"},{"sim_score":3,"rt":4817,"stimulus":"[\"img/0903/36e4ab1f-caa9-40b3-8616-faada076df94.jpg\",\"img/0862/92fcd8a4-8193-4a6a-ae09-dd4a6338b0df.jpg\"]","trial_type":"similarity","trial_index":61,"time_elapsed":432456,"internal_node_id":"0.0-6.0-55.0"},{"sim_score":3,"rt":2733,"stimulus":"[\"img/0866/a15b02be-11bb-43e3-b0e0-ecc3bd7dfc49.jpg\",\"img/0894/6aa5545f-fa7d-4286-bbaa-aaf34dc7ec96.jpg\"]","trial_type":"similarity","trial_index":62,"time_elapsed":436197,"internal_node_id":"0.0-6.0-56.0"},{"sim_score":3,"rt":3614,"stimulus":"[\"img/0867/8ba0c5a7-c7e4-42cf-a80a-543763b90779.jpg\",\"img/0904/d23dd7be-7fe8-4435-82f7-bd592c01e6a1.jpg\"]","trial_type":"similarity","trial_index":63,"time_elapsed":440817,"internal_node_id":"0.0-6.0-57.0"},{"sim_score":3,"rt":2413,"stimulus":"[\"img/0875/8521fd58-3b1e-4dc5-97ae-804edfa6734a.jpg\",\"img/0881/609a5e93-38b5-4940-8627-2bf8fad7f802.jpg\"]","trial_type":"similarity","trial_index":64,"time_elapsed":444234,"internal_node_id":"0.0-6.0-58.0"},{"sim_score":3,"rt":7359,"stimulus":"[\"img/0866/d266fece-59b3-46fa-b69f-96f6efb81b59.jpg\",\"img/0860/71e1aad0-2cdf-43bb-94a4-a8c016997c30.jpg\"]","trial_type":"similarity","trial_index":65,"time_elapsed":452598,"internal_node_id":"0.0-6.0-59.0"},{"sim_score":3,"rt":3412,"stimulus":"[\"img/0903/8f7f9939-b8e6-433f-93dd-b362496c80a7.jpg\",\"img/0866/945c6710-d15b-4a5b-a8f6-69af0850357f.jpg\"]","trial_type":"similarity","trial_index":66,"time_elapsed":457017,"internal_node_id":"0.0-6.0-60.0"},{"sim_score":3,"rt":3673,"stimulus":"[\"img/0860/17b44a7d-c5ca-479f-9e87-f65a64f5c80e.jpg\",\"img/0875/5a1e5100-0d94-4fec-bbe9-ca9894d2cf8e.jpg\"]","trial_type":"similarity","trial_index":67,"time_elapsed":461697,"internal_node_id":"0.0-6.0-61.0"},{"sim_score":3,"rt":3284,"stimulus":"[\"img/0898/a8f16b02-e19f-423b-86c3-a36562ae1f9b.jpg\",\"img/0862/1c20f772-3a51-4a80-aac0-f57dc9f86c28.jpg\"]","trial_type":"similarity","trial_index":68,"time_elapsed":465988,"internal_node_id":"0.0-6.0-62.0"},{"sim_score":3,"rt":4136,"stimulus":"[\"img/0902/c9c74d2d-9b82-42d7-a9d0-3b8ff67ff81e.jpg\",\"img/0766/f3276cc4-65de-4c2d-88d5-6cfebce14b8f.jpg\"]","trial_type":"similarity","trial_index":69,"time_elapsed":471132,"internal_node_id":"0.0-6.0-63.0"},{"sim_score":3,"rt":3583,"stimulus":"[\"img/0758/65d426d6-3ff6-415d-8654-a43b83ecc4fe.jpg\",\"img/0864/300bb811-8b3c-4c42-8653-6097c3725197.jpg\"]","trial_type":"similarity","trial_index":70,"time_elapsed":475723,"internal_node_id":"0.0-6.0-64.0"},{"sim_score":3,"rt":2757,"stimulus":"[\"img/0894/86201968-6e78-4d68-9b3a-d1692e066210.jpg\",\"img/0860/5bff793e-cbd5-4d7e-b628-0ac2b0e30b64.jpg\"]","trial_type":"similarity","trial_index":71,"time_elapsed":479490,"internal_node_id":"0.0-6.0-65.0"},{"sim_score":3,"rt":3430,"stimulus":"[\"img/0899/25ae6ec8-9565-49fe-a8bb-8d0666f52716.jpg\",\"img/0868/0d3abd3a-b6c3-4584-a9f7-e2da63748b3d.jpg\"]","trial_type":"similarity","trial_index":72,"time_elapsed":483928,"internal_node_id":"0.0-6.0-66.0"},{"sim_score":3,"rt":3123,"stimulus":"[\"img/0866/9b38d691-1802-4959-ab3f-fc902f0e4ea6.jpg\",\"img/0862/de9ad88c-b522-430a-8ee9-eb06a9f85df5.jpg\"]","trial_type":"similarity","trial_index":73,"time_elapsed":488059,"internal_node_id":"0.0-6.0-67.0"},{"sim_score":3,"rt":2623,"stimulus":"[\"img/0860/29a21a9f-54bb-4093-ad3f-04823ceaa89f.jpg\",\"img/0758/f61ecdf8-a7d4-4db0-b84d-be46f7cfaffc.jpg\"]","trial_type":"similarity","trial_index":74,"time_elapsed":491691,"internal_node_id":"0.0-6.0-68.0"},{"sim_score":3,"rt":2548,"stimulus":"[\"img/0902/cf9dee9c-2bdf-4d64-9302-97f1660fe52c.jpg\",\"img/0867/aa05d113-fc19-4756-a8eb-7878f580bc92.jpg\"]","trial_type":"similarity","trial_index":75,"time_elapsed":495246,"internal_node_id":"0.0-6.0-69.0"},{"sim_score":3,"rt":3523,"stimulus":"[\"img/0862/53a9cf7c-93c4-41b9-952f-07d17f7a17b2.jpg\",\"img/0901/4f9cffe0-c0be-4d7f-bacd-9d51efd19b4a.jpg\"]","trial_type":"similarity","trial_index":76,"time_elapsed":499775,"internal_node_id":"0.0-6.0-70.0"},{"sim_score":5,"rt":6118,"stimulus":"[\"img/0867/5e07b34d-b40f-4b1c-ac10-49975bace45f.jpg\",\"img/0866/c446214b-a368-4c65-ae39-ea46894256ab.jpg\"]","trial_type":"similarity","trial_index":77,"time_elapsed":506899,"internal_node_id":"0.0-6.0-71.0"},{"sim_score":3,"rt":4674,"stimulus":"[\"img/0860/e14d67c1-6d92-4f1e-9257-c8607159c19c.jpg\",\"img/0904/25365108-e038-4021-aac9-797f2063b337.jpg\"]","trial_type":"similarity","trial_index":78,"time_elapsed":512581,"internal_node_id":"0.0-6.0-72.0"},{"sim_score":3,"rt":2494,"stimulus":"[\"img/0875/e7e66b13-b573-431e-b85e-288ce04a35a3.jpg\",\"img/0899/d8f2dd94-570e-4e8c-a087-d96090fb9e8c.jpg\"]","trial_type":"similarity","trial_index":79,"time_elapsed":516081,"internal_node_id":"0.0-6.0-73.0"},{"sim_score":3,"rt":5043,"stimulus":"[\"img/0899/f58b8d2f-b19d-4b59-8b94-8834be92e4ba.jpg\",\"img/0758/6e95579b-5166-487c-b8cb-e417c6a218e3.jpg\"]","trial_type":"similarity","trial_index":80,"time_elapsed":522130,"internal_node_id":"0.0-6.0-74.0"},{"sim_score":3,"rt":3122,"stimulus":"[\"img/0862/7918ca67-5bd3-4606-a5ea-c39fb11a9297.jpg\",\"img/0875/3ecb367d-e9eb-4826-8aaa-7aa72fb98019.jpg\"]","trial_type":"similarity","trial_index":81,"time_elapsed":570141,"internal_node_id":"0.0-6.0-75.0"},{"sim_score":3,"rt":3749,"stimulus":"[\"img/0901/f1116359-1ff1-4638-b3b3-700918d36d18.jpg\",\"img/0894/e6385e52-6c35-43bd-b0af-bc803d107b11.jpg\"]","trial_type":"similarity","trial_index":82,"time_elapsed":574897,"internal_node_id":"0.0-6.0-76.0"},{"sim_score":3,"rt":2761,"stimulus":"[\"img/0766/69e486f7-dbef-456b-9d48-53d814248a28.jpg\",\"img/0758/dd559618-7f09-4a07-8018-d311c4a5ea29.jpg\"]","trial_type":"similarity","trial_index":83,"time_elapsed":578666,"internal_node_id":"0.0-6.0-77.0"},{"sim_score":3,"rt":4839,"stimulus":"[\"img/0894/6b2e9509-8699-42b7-9582-7741df0ba2d7.jpg\",\"img/0764/974d52cc-6318-4e7a-b294-2f3e92ff800f.jpg\"]","trial_type":"similarity","trial_index":84,"time_elapsed":584512,"internal_node_id":"0.0-6.0-78.0"},{"sim_score":3,"rt":2370,"stimulus":"[\"img/0860/61fb959d-d4d9-4de4-9e4e-4fa62b4cfcd5.jpg\",\"img/0867/12264664-1860-46df-8c21-162b9817cdda.jpg\"]","trial_type":"similarity","trial_index":85,"time_elapsed":587890,"internal_node_id":"0.0-6.0-79.0"},{"sim_score":3,"rt":4686,"stimulus":"[\"img/0898/c3cecf20-f7fd-45fa-97d0-dc0a63e8d6c0.jpg\",\"img/0901/da4fe30f-d12a-491e-96a2-5ab8ebaadd09.jpg\"]","trial_type":"similarity","trial_index":86,"time_elapsed":593581,"internal_node_id":"0.0-6.0-80.0"},{"sim_score":3,"rt":3855,"stimulus":"[\"img/0874/adf9a8f1-c40b-402b-b95b-1e85a54a7b62.jpg\",\"img/0764/fb7d4a20-a475-465e-a74f-aa39a0d33d16.jpg\"]","trial_type":"similarity","trial_index":87,"time_elapsed":598442,"internal_node_id":"0.0-6.0-81.0"},{"sim_score":3,"rt":2906,"stimulus":"[\"img/0899/4f7bc593-8ddd-4da3-a0b9-84da730d3370.jpg\",\"img/0862/f23038d4-c366-4f70-979f-66b62362efa4.jpg\"]","trial_type":"similarity","trial_index":88,"time_elapsed":602355,"internal_node_id":"0.0-6.0-82.0"},{"sim_score":3,"rt":2743,"stimulus":"[\"img/0766/d14acac4-7db1-4b07-8f8f-302437326fc0.jpg\",\"img/0901/5b97abf9-f0c8-4fd1-b921-36d574779078.jpg\"]","trial_type":"similarity","trial_index":89,"time_elapsed":606105,"internal_node_id":"0.0-6.0-83.0"},{"sim_score":3,"rt":3023,"stimulus":"[\"img/0881/33d65d80-8a8e-4ecf-852d-0ad7725c17a2.jpg\",\"img/0898/e167334e-cc1d-4986-b3b1-c7bc7da64baa.jpg\"]","trial_type":"similarity","trial_index":90,"time_elapsed":610134,"internal_node_id":"0.0-6.0-84.0"},{"sim_score":3,"rt":5371,"stimulus":"[\"img/0868/4a8a45ed-2c4f-421b-9564-409a33ecd26c.jpg\",\"img/0860/87039971-2210-4aab-93c0-8e9b5f1655b2.jpg\"]","trial_type":"similarity","trial_index":91,"time_elapsed":616510,"internal_node_id":"0.0-6.0-85.0"},{"sim_score":3,"rt":2705,"stimulus":"[\"img/0758/20497cbe-ddae-489e-86e2-ab06985ed07c.jpg\",\"img/0868/1a62b2b2-18f5-466e-b564-5176a57c565e.jpg\"]","trial_type":"similarity","trial_index":92,"time_elapsed":620224,"internal_node_id":"0.0-6.0-86.0"},{"sim_score":3,"rt":2523,"stimulus":"[\"img/0864/0116ca98-293d-4fa6-a93b-5a6144ef64cc.jpg\",\"img/0894/767a0eec-1064-46b1-b1aa-dfa02b0cd74e.jpg\"]","trial_type":"similarity","trial_index":93,"time_elapsed":623751,"internal_node_id":"0.0-6.0-87.0"},{"sim_score":3,"rt":2725,"stimulus":"[\"img/0866/8efcaa46-83ab-4dee-a35f-850402aa21ae.jpg\",\"img/0902/d5e25767-e8ec-45f3-ac0a-7b4a6f7a9edc.jpg\"]","trial_type":"similarity","trial_index":94,"time_elapsed":627482,"internal_node_id":"0.0-6.0-88.0"},{"sim_score":3,"rt":2895,"stimulus":"[\"img/0769/c7cfacc3-7f07-46ff-9f5d-8073f4c4679b.jpg\",\"img/0867/c66898ba-b71b-4d50-84f9-f7f84853a98d.jpg\"]","trial_type":"similarity","trial_index":95,"time_elapsed":631383,"internal_node_id":"0.0-6.0-89.0"},{"sim_score":3,"rt":3536,"stimulus":"[\"img/0874/bf14b896-e930-4fd9-9c05-2e83317a2773.jpg\",\"img/0875/cff79b3a-a797-4393-9757-6275f999ec04.jpg\"]","trial_type":"similarity","trial_index":96,"time_elapsed":635926,"internal_node_id":"0.0-6.0-90.0"},{"sim_score":5,"rt":14090,"stimulus":"[\"img/0864/b3c4e378-28f0-4699-9338-2a257b4bca04.jpg\",\"img/0874/7e4f2150-3b59-4a36-b5da-a4e0ba410531.jpg\"]","trial_type":"similarity","trial_index":97,"time_elapsed":651022,"internal_node_id":"0.0-6.0-91.0"},{"sim_score":3,"rt":3917,"stimulus":"[\"img/0881/44e09805-5a25-4f17-a716-4ad4a331b174.jpg\",\"img/0862/d0ca4c78-fc35-46ed-bdcc-8e124283c53e.jpg\"]","trial_type":"similarity","trial_index":98,"time_elapsed":655944,"internal_node_id":"0.0-6.0-92.0"},{"sim_score":3,"rt":5008,"stimulus":"[\"img/0864/6f631579-acf1-415c-a42c-1207f62a8d99.jpg\",\"img/0881/c843e210-bdfe-4a7c-8bbe-fcea1f90fe1c.jpg\"]","trial_type":"similarity","trial_index":99,"time_elapsed":661959,"internal_node_id":"0.0-6.0-93.0"},{"sim_score":3,"rt":2324,"stimulus":"[\"img/0899/06b0fc99-0581-461a-9913-d1a5a941ac61.jpg\",\"img/0901/50e1d53e-a49f-4806-8610-be6dec5a2475.jpg\"]","trial_type":"similarity","trial_index":100,"time_elapsed":665288,"internal_node_id":"0.0-6.0-94.0"},{"sim_score":3,"rt":2671,"stimulus":"[\"img/0874/c0378dac-9370-439a-8b79-db27c96fb390.jpg\",\"img/0766/1bc0dccc-a5b5-4375-87fa-28360ca42b12.jpg\"]","trial_type":"similarity","trial_index":101,"time_elapsed":668966,"internal_node_id":"0.0-6.0-95.0"},{"sim_score":3,"rt":3980,"stimulus":"[\"img/0881/633c6f40-56d9-4b48-bf1c-ecd83116eabb.jpg\",\"img/0899/a05bea16-2bb4-4cb9-b8fb-4ff975db6971.jpg\"]","trial_type":"similarity","trial_index":102,"time_elapsed":673952,"internal_node_id":"0.0-6.0-96.0"},{"sim_score":3,"rt":3308,"stimulus":"[\"img/0862/cdaed51d-9e2f-4807-801a-4663c40077e2.jpg\",\"img/0902/95a36b6b-9601-4fa5-8fd9-606ea62f9425.jpg\"]","trial_type":"similarity","trial_index":103,"time_elapsed":678265,"internal_node_id":"0.0-6.0-97.0"},{"sim_score":3,"rt":4600,"stimulus":"[\"img/0899/1b3457ea-87d4-4946-a01c-aac1863ed46c.jpg\",\"img/0764/713cc27e-2338-4486-bfe9-5f5725fbd7a0.jpg\"]","trial_type":"similarity","trial_index":104,"time_elapsed":683870,"internal_node_id":"0.0-6.0-98.0"},{"sim_score":3,"rt":3480,"stimulus":"[\"img/0758/a085b443-b5d7-4cb2-9ad4-b9dab0fc23f1.jpg\",\"img/0862/e697469a-ec19-4414-b972-7b9f3564785b.jpg\"]","trial_type":"similarity","trial_index":105,"time_elapsed":688358,"internal_node_id":"0.0-6.0-99.0"},{"sim_score":3,"rt":4643,"stimulus":"[\"img/0764/cbdc4f20-3a9a-4211-9b40-090699e0abcc.jpg\",\"img/0898/224c1572-56b9-4f16-a9e4-6f3bc9c114bd.jpg\"]","trial_type":"similarity","trial_index":106,"time_elapsed":694008,"internal_node_id":"0.0-6.0-100.0"},{"sim_score":3,"rt":2405,"stimulus":"[\"img/0901/f469cb1d-6d81-4a45-bab5-cd0b650c2b4f.jpg\",\"img/0902/10d99c89-71f7-4c81-a31e-dfc7c59f5232.jpg\"]","trial_type":"similarity","trial_index":107,"time_elapsed":697420,"internal_node_id":"0.0-6.0-101.0"},{"sim_score":3,"rt":2779,"stimulus":"[\"img/0764/8389e74f-e0e0-435d-945f-da1f4c92ccb6.jpg\",\"img/0868/d98ca254-b195-477f-b57e-5760a2717db8.jpg\"]","trial_type":"similarity","trial_index":108,"time_elapsed":701205,"internal_node_id":"0.0-6.0-102.0"},{"sim_score":3,"rt":2616,"stimulus":"[\"img/0769/4a1d0b52-3fe8-40fb-bb1c-c814fe49a68c.jpg\",\"img/0881/e6746727-7f89-47ec-b939-d98abe78372d.jpg\"]","trial_type":"similarity","trial_index":109,"time_elapsed":704827,"internal_node_id":"0.0-6.0-103.0"},{"sim_score":3,"rt":2621,"stimulus":"[\"img/0864/65210d57-1153-4657-886a-32e758f49b4a.jpg\",\"img/0769/057eb0a0-aa5b-40c7-9852-21444f68d767.jpg\"]","trial_type":"similarity","trial_index":110,"time_elapsed":708456,"internal_node_id":"0.0-6.0-104.0"},{"sim_score":3,"rt":4994,"stimulus":"[\"img/0866/be24ab58-230e-4db8-9f45-ff04c9aec6bb.jpg\",\"img/0868/179a5502-ab5c-478e-8263-5a1fbcc101d2.jpg\"]","trial_type":"similarity","trial_index":111,"time_elapsed":714456,"internal_node_id":"0.0-6.0-105.0"},{"sim_score":3,"rt":3098,"stimulus":"[\"img/0868/3a62db2d-97e9-44a3-b8e3-a48c6f0e423b.jpg\",\"img/0862/24cdc752-c2e5-4a17-86a6-6f2045d8553b.jpg\"]","trial_type":"similarity","trial_index":112,"time_elapsed":718563,"internal_node_id":"0.0-6.0-106.0"},{"sim_score":3,"rt":3279,"stimulus":"[\"img/0766/79767d11-b612-4e8a-9e4b-a8ac95bb6a54.jpg\",\"img/0898/0c7dde4f-efce-4b7a-9387-6921635b7890.jpg\"]","trial_type":"similarity","trial_index":113,"time_elapsed":722849,"internal_node_id":"0.0-6.0-107.0"},{"sim_score":3,"rt":3062,"stimulus":"[\"img/0898/b2732712-71c2-45d8-834f-2b2ed5504910.jpg\",\"img/0864/1d15626a-2f7c-410f-819c-0fa2c967e95e.jpg\"]","trial_type":"similarity","trial_index":114,"time_elapsed":726919,"internal_node_id":"0.0-6.0-108.0"},{"sim_score":3,"rt":4395,"stimulus":"[\"img/0868/293079b8-7e0c-4afd-a390-1e5d35fe3ded.jpg\",\"img/0902/97022122-01e4-46c3-a34f-c6260ad28428.jpg\"]","trial_type":"similarity","trial_index":115,"time_elapsed":732320,"internal_node_id":"0.0-6.0-109.0"},{"sim_score":3,"rt":2975,"stimulus":"[\"img/0904/b7c2a2c8-df33-4473-b3d4-ff7147c60db3.jpg\",\"img/0764/1def7b22-b054-4ec2-860b-73d25691823b.jpg\"]","trial_type":"similarity","trial_index":116,"time_elapsed":736300,"internal_node_id":"0.0-6.0-110.0"},{"sim_score":3,"rt":1998,"stimulus":"[\"img/0894/0130a973-d993-41f8-874a-fee23d9ac11f.jpg\",\"img/0875/d59ff733-eaff-4ee2-9443-06954dd0bcb6.jpg\"]","trial_type":"similarity","trial_index":117,"time_elapsed":739304,"internal_node_id":"0.0-6.0-111.0"},{"sim_score":3,"rt":2675,"stimulus":"[\"img/0868/83b4350a-3b70-4cea-b7f5-b5b56f3050a8.jpg\",\"img/0874/2c9464dd-8a23-4baa-ac94-1ba3af5c15cc.jpg\"]","trial_type":"similarity","trial_index":118,"time_elapsed":742986,"internal_node_id":"0.0-6.0-112.0"},{"sim_score":3,"rt":3464,"stimulus":"[\"img/0904/24fc38fe-842c-4831-ad8a-b1de5c25c0a8.jpg\",\"img/0898/01bfe666-3510-4fc7-964f-d00d28732dc8.jpg\"]","trial_type":"similarity","trial_index":119,"time_elapsed":749832,"internal_node_id":"0.0-6.0-113.0"},{"sim_score":3,"rt":3236,"stimulus":"[\"img/0860/c7047cd2-7cc1-41b6-8a34-c0986774975f.jpg\",\"img/0766/26d3ae14-8275-4e08-99b2-a6598c193ddf.jpg\"]","trial_type":"similarity","trial_index":120,"time_elapsed":754073,"internal_node_id":"0.0-6.0-114.0"},{"sim_score":3,"rt":3596,"stimulus":"[\"img/0894/8cadb87a-7001-4e47-99fb-1867bebf1668.jpg\",\"img/0874/3f471690-9788-4d03-90c7-f615aecef149.jpg\"]","trial_type":"similarity","trial_index":121,"time_elapsed":758675,"internal_node_id":"0.0-6.0-115.0"},{"sim_score":3,"rt":2485,"stimulus":"[\"img/0899/0e1d936a-dbe2-4afc-9f19-7b7a1ae6c9ed.jpg\",\"img/0903/647ce311-8c71-479a-8361-961db1457139.jpg\"]","trial_type":"similarity","trial_index":122,"time_elapsed":762168,"internal_node_id":"0.0-6.0-116.0"},{"sim_score":3,"rt":2552,"stimulus":"[\"img/0881/62a64f90-7a72-4aee-a1a1-0c548ac9bdda.jpg\",\"img/0764/c01e2d65-6586-441b-bef5-3c96fcd85380.jpg\"]","trial_type":"similarity","trial_index":123,"time_elapsed":765726,"internal_node_id":"0.0-6.0-117.0"},{"sim_score":3,"rt":3147,"stimulus":"[\"img/0903/a0673b55-6040-47fe-9040-24bca27ca3c9.jpg\",\"img/0769/11518cb3-13ea-4dd0-890c-30cfab728ade.jpg\"]","trial_type":"similarity","trial_index":124,"time_elapsed":769880,"internal_node_id":"0.0-6.0-118.0"},{"sim_score":3,"rt":2042,"stimulus":"[\"img/0901/5657dd86-0ff9-4753-ba2b-9dfb223e5c89.jpg\",\"img/0904/da170c1b-9651-4f08-b231-2bdd1d9a046f.jpg\"]","trial_type":"similarity","trial_index":125,"time_elapsed":772931,"internal_node_id":"0.0-6.0-119.0"},{"sim_score":3,"rt":2126,"stimulus":"[\"img/0860/8fdba999-b946-4c7d-9891-336018b563ef.jpg\",\"img/0881/6b1189e6-232d-4042-8885-16dc7b10e0d4.jpg\"]","trial_type":"similarity","trial_index":126,"time_elapsed":776064,"internal_node_id":"0.0-6.0-120.0"},{"sim_score":3,"rt":3372,"stimulus":"[\"img/0758/d57c2592-a317-4f63-91be-91a3a9afd222.jpg\",\"img/0874/ca76a855-4e77-4f2f-872a-0a718153e7ed.jpg\"]","trial_type":"similarity","trial_index":127,"time_elapsed":780444,"internal_node_id":"0.0-6.0-121.0"},{"sim_score":3,"rt":5643,"stimulus":"[\"img/0901/fb0a8e69-7f19-4e6e-a6bb-a48f97f9b4f3.jpg\",\"img/0769/458d9c77-b844-40b5-bb1b-1e3bbd4da64e.jpg\"]","trial_type":"similarity","trial_index":128,"time_elapsed":787095,"internal_node_id":"0.0-6.0-122.0"},{"sim_score":3,"rt":3481,"stimulus":"[\"img/0902/d2c34af0-8c50-437d-8cc3-619195a3e8ba.jpg\",\"img/0904/b5855d6a-7ef9-46ca-9215-6e9fa046e543.jpg\"]","trial_type":"similarity","trial_index":129,"time_elapsed":791582,"internal_node_id":"0.0-6.0-123.0"},{"sim_score":3,"rt":3002,"stimulus":"[\"img/0899/7f9d45d0-b2c6-40d3-aa41-c207db2c411b.jpg\",\"img/0864/1ebbc554-99fa-49f9-8799-317375a79820.jpg\"]","trial_type":"similarity","trial_index":130,"time_elapsed":795591,"internal_node_id":"0.0-6.0-124.0"},{"sim_score":3,"rt":3216,"stimulus":"[\"img/0766/5d1b8041-c5a1-4b02-b4fe-3453d98a0d72.jpg\",\"img/0868/4bd5105a-d2c3-4f82-8c80-57196106ba53.jpg\"]","trial_type":"similarity","trial_index":131,"time_elapsed":799829,"internal_node_id":"0.0-6.0-125.0"},{"sim_score":3,"rt":3778,"stimulus":"[\"img/0764/0e7ed062-f798-4366-8a24-6f430926f919.jpg\",\"img/0864/5f33e097-23e3-4002-882d-76e8cb15f451.jpg\"]","trial_type":"similarity","trial_index":132,"time_elapsed":804617,"internal_node_id":"0.0-6.0-126.0"},{"sim_score":3,"rt":2789,"stimulus":"[\"img/0899/565ccdd9-0933-4536-a625-3c0e25a713dd.jpg\",\"img/0866/d493a2c8-66eb-44b4-be02-2f327b700b7c.jpg\"]","trial_type":"similarity","trial_index":133,"time_elapsed":808412,"internal_node_id":"0.0-6.0-127.0"},{"sim_score":3,"rt":2332,"stimulus":"[\"img/0901/77087ed2-6e12-4329-b2a5-605bca6d972d.jpg\",\"img/0881/1407b85b-a1c6-45b1-9884-3b24203efadb.jpg\"]","trial_type":"similarity","trial_index":134,"time_elapsed":811751,"internal_node_id":"0.0-6.0-128.0"},{"sim_score":3,"rt":4564,"stimulus":"[\"img/0898/04e39a7a-fcf6-4156-ab0e-f5871f335e1c.jpg\",\"img/0903/39365c8e-a733-4801-ac7d-b87e38c3784b.jpg\"]","trial_type":"similarity","trial_index":135,"time_elapsed":817328,"internal_node_id":"0.0-6.0-129.0"},{"sim_score":3,"rt":2638,"stimulus":"[\"img/0894/661b9f9f-4bde-487a-b1ed-87085fde6948.jpg\",\"img/0867/7d1c497b-c1b3-4ed8-abb5-d7f73306015f.jpg\"]","trial_type":"similarity","trial_index":136,"time_elapsed":820972,"internal_node_id":"0.0-6.0-130.0"},{"sim_score":3,"rt":2171,"stimulus":"[\"img/0874/767f289c-9814-4496-803f-745cc8913d1f.jpg\",\"img/0903/45e2d600-57ff-4d69-b22c-0c7896cd38f0.jpg\"]","trial_type":"similarity","trial_index":137,"time_elapsed":824147,"internal_node_id":"0.0-6.0-131.0"},{"sim_score":3,"rt":2276,"stimulus":"[\"img/0899/66bf4113-ee12-426c-84d2-ea410b6c803e.jpg\",\"img/0898/8605a25b-6895-476d-8c13-df7a83f96093.jpg\"]","trial_type":"similarity","trial_index":138,"time_elapsed":827430,"internal_node_id":"0.0-6.0-132.0"},{"sim_score":3,"rt":2235,"stimulus":"[\"img/0867/6e19c858-b606-45b2-a4c6-910a73f1d82c.jpg\",\"img/0764/978aede9-4590-4ad0-b234-135c83e5d669.jpg\"]","trial_type":"similarity","trial_index":139,"time_elapsed":830673,"internal_node_id":"0.0-6.0-133.0"},{"sim_score":3,"rt":2054,"stimulus":"[\"img/0866/bf14b5bd-fb55-47db-86b9-4f8aeb9a6dad.jpg\",\"img/0769/d1be2815-fa79-46e8-b5c3-7d81caaca490.jpg\"]","trial_type":"similarity","trial_index":140,"time_elapsed":833733,"internal_node_id":"0.0-6.0-134.0"},{"sim_score":3,"rt":5214,"stimulus":"[\"img/0860/18dfed73-e36b-4487-a8bd-0b8cff8e3668.jpg\",\"img/0898/f3a3f225-1248-4ac7-b93b-f0ff28485bf3.jpg\"]","trial_type":"similarity","trial_index":141,"time_elapsed":839951,"internal_node_id":"0.0-6.0-135.0"},{"sim_score":3,"rt":2508,"stimulus":"[\"img/0881/5fe04dd0-5c74-47b7-99c8-b068db9ca26a.jpg\",\"img/0903/f10e9eb5-0c21-4a6a-944c-5f10a6d0fa4d.jpg\"]","trial_type":"similarity","trial_index":142,"time_elapsed":843465,"internal_node_id":"0.0-6.0-136.0"},{"sim_score":3,"rt":2220,"stimulus":"[\"img/0894/2217bdcd-23a7-42d3-823b-23f2488d7e87.jpg\",\"img/0766/27f54113-8561-4568-9ffe-0a1650ae65ec.jpg\"]","trial_type":"similarity","trial_index":143,"time_elapsed":846690,"internal_node_id":"0.0-6.0-137.0"},{"sim_score":3,"rt":5211,"stimulus":"[\"img/0860/c5ccd1a4-4bb7-48e1-9b25-72cfaf06909b.jpg\",\"img/0764/f990b2e8-ecee-481e-be7c-0239fce350e2.jpg\"]","trial_type":"similarity","trial_index":144,"time_elapsed":852909,"internal_node_id":"0.0-6.0-138.0"},{"sim_score":3,"rt":4750,"stimulus":"[\"img/0769/387a9744-d6a7-42b8-bab8-33007ec434aa.jpg\",\"img/0902/6c2c243a-f663-45db-baf5-038d3d58c589.jpg\"]","trial_type":"similarity","trial_index":145,"time_elapsed":858666,"internal_node_id":"0.0-6.0-139.0"},{"sim_score":5,"rt":5660,"stimulus":"[\"img/0904/09934646-45d2-4147-8fec-64a22a5ac822.jpg\",\"img/0903/f1fa0f8d-e62b-4b4a-a174-31a0fabfe61b.jpg\"]","trial_type":"similarity","trial_index":146,"time_elapsed":865332,"internal_node_id":"0.0-6.0-140.0"},{"sim_score":5,"rt":9035,"stimulus":"[\"img/0764/fb92924f-5cfe-4b89-b130-0cce8cc5636b.jpg\",\"img/0769/ebef2ddc-ba59-4e0e-97f8-927864eb5081.jpg\"]","trial_type":"similarity","trial_index":147,"time_elapsed":875377,"internal_node_id":"0.0-6.0-141.0"},{"sim_score":3,"rt":3210,"stimulus":"[\"img/0902/0db94c50-f1fb-4091-953c-29ca0466bee2.jpg\",\"img/0881/b549bc99-a61c-4450-bab5-9efc3a197bf0.jpg\"]","trial_type":"similarity","trial_index":148,"time_elapsed":879597,"internal_node_id":"0.0-6.0-142.0"},{"sim_score":3,"rt":3077,"stimulus":"[\"img/0866/07c9c966-3c8d-40e7-8128-92b2acbaed5d.jpg\",\"img/0864/6e846d43-94a6-4b37-a268-65eda979f052.jpg\"]","trial_type":"similarity","trial_index":149,"time_elapsed":883679,"internal_node_id":"0.0-6.0-143.0"},{"sim_score":3,"rt":4630,"stimulus":"[\"img/0902/31abfa33-7cdb-44ad-968e-9f7b324d577a.jpg\",\"img/0898/08c72dac-f8ad-407a-9ce6-8c9a5d679c3a.jpg\"]","trial_type":"similarity","trial_index":150,"time_elapsed":889316,"internal_node_id":"0.0-6.0-144.0"},{"sim_score":3,"rt":2594,"stimulus":"[\"img/0862/57b6f83f-c763-4858-830d-102f97bfefbf.jpg\",\"img/0864/66091c27-e588-4476-8af9-265dc6be4156.jpg\"]","trial_type":"similarity","trial_index":151,"time_elapsed":892919,"internal_node_id":"0.0-6.0-145.0"},{"sim_score":3,"rt":2310,"stimulus":"[\"img/0875/5a716432-c6ca-4b1c-955a-2b8ac25198ee.jpg\",\"img/0898/ec565187-2e31-4fdd-9a5c-153d0c789ae0.jpg\"]","trial_type":"similarity","trial_index":152,"time_elapsed":896238,"internal_node_id":"0.0-6.0-146.0"},{"sim_score":3,"rt":4845,"stimulus":"[\"img/0874/995f0332-0439-4eb4-add3-957335dbf6d9.jpg\",\"img/0881/7e822106-76f7-4b10-a805-14dc68b2cfaf.jpg\"]","trial_type":"similarity","trial_index":153,"time_elapsed":902089,"internal_node_id":"0.0-6.0-147.0"},{"sim_score":3,"rt":2523,"stimulus":"[\"img/0758/caa93da2-9edf-49fa-96b9-32dedd8f5078.jpg\",\"img/0894/5ff3c4f6-52e2-4075-8679-be0312e59703.jpg\"]","trial_type":"similarity","trial_index":154,"time_elapsed":905619,"internal_node_id":"0.0-6.0-148.0"},{"sim_score":3,"rt":2521,"stimulus":"[\"img/0904/1d10df11-b5c8-4370-9a6b-097a7f965895.jpg\",\"img/0864/c22faebd-9c53-47bc-ada3-b9a30c688e75.jpg\"]","trial_type":"similarity","trial_index":155,"time_elapsed":909146,"internal_node_id":"0.0-6.0-149.0"},{"sim_score":3,"rt":2306,"stimulus":"[\"img/0769/ecda2fb3-556b-43ba-8a67-e87dd75ff2b4.jpg\",\"img/0899/b45c550b-96c3-4255-ad59-48a2b4db1c1e.jpg\"]","trial_type":"similarity","trial_index":156,"time_elapsed":912457,"internal_node_id":"0.0-6.0-150.0"},{"sim_score":3,"rt":2719,"stimulus":"[\"img/0764/50f1b062-d608-4bc0-ab25-b872dcf2ed93.jpg\",\"img/0903/0fb24af7-9a26-4e9d-aadc-959a36f683e2.jpg\"]","trial_type":"similarity","trial_index":157,"time_elapsed":918127,"internal_node_id":"0.0-6.0-151.0"},{"sim_score":3,"rt":2907,"stimulus":"[\"img/0903/12bd8657-92e6-4c36-a06c-597e7a1d51f3.jpg\",\"img/0864/ef9cbca0-4be8-435d-ad49-977259e80409.jpg\"]","trial_type":"similarity","trial_index":158,"time_elapsed":922045,"internal_node_id":"0.0-6.0-152.0"},{"sim_score":3,"rt":2048,"stimulus":"[\"img/0894/10f22b96-040c-44f4-950b-a4963f3f506c.jpg\",\"img/0881/f62bdcd1-a4b7-4d48-83da-d9c9e01c8727.jpg\"]","trial_type":"similarity","trial_index":159,"time_elapsed":925097,"internal_node_id":"0.0-6.0-153.0"},{"sim_score":3,"rt":4081,"stimulus":"[\"img/0875/2c361b79-c3d1-4eda-812e-bf03192407bf.jpg\",\"img/0867/85a96c62-548f-4994-9553-819e03c3135a.jpg\"]","trial_type":"similarity","trial_index":160,"time_elapsed":930185,"internal_node_id":"0.0-6.0-154.0"},{"sim_score":3,"rt":2970,"stimulus":"[\"img/0867/075e0f95-856b-4cbb-acf5-092393aaf04e.jpg\",\"img/0758/67c0be2f-9e91-48b3-8219-70ac0a1802fa.jpg\"]","trial_type":"similarity","trial_index":161,"time_elapsed":934159,"internal_node_id":"0.0-6.0-155.0"},{"sim_score":3,"rt":3086,"stimulus":"[\"img/0868/4e626425-63c8-484a-8a1d-e66ee4e0bef8.jpg\",\"img/0901/00acf6c1-b66e-4060-bb04-4caf29b5a8b0.jpg\"]","trial_type":"similarity","trial_index":162,"time_elapsed":938252,"internal_node_id":"0.0-6.0-156.0"},{"sim_score":5,"rt":5203,"stimulus":"[\"img/0769/6c0bac4c-5f59-43c7-898c-3ca93cf55cfe.jpg\",\"img/0894/792c83e9-a747-4000-bc72-5663d2439edb.jpg\"]","trial_type":"similarity","trial_index":163,"time_elapsed":944463,"internal_node_id":"0.0-6.0-157.0"},{"sim_score":3,"rt":2244,"stimulus":"[\"img/0904/696ebb60-8891-417a-91fd-c53218907a95.jpg\",\"img/0758/7ffbc76b-1fc1-432c-8f7e-9ec8d1b3f643.jpg\"]","trial_type":"similarity","trial_index":164,"time_elapsed":947717,"internal_node_id":"0.0-6.0-158.0"},{"sim_score":3,"rt":2170,"stimulus":"[\"img/0874/31e22c7c-99aa-40b1-bf03-dd73fa2df4d6.jpg\",\"img/0904/5cceabc9-de1d-4c67-989b-c28a4ef77e79.jpg\"]","trial_type":"similarity","trial_index":165,"time_elapsed":950894,"internal_node_id":"0.0-6.0-159.0"},{"sim_score":3,"rt":3345,"stimulus":"[\"img/0864/ea327690-500b-4137-bf91-451b309fe6a5.jpg\",\"img/0901/a0d65c84-3f20-476a-92d1-0c01e8019cf4.jpg\"]","trial_type":"similarity","trial_index":166,"time_elapsed":955246,"internal_node_id":"0.0-6.0-160.0"},{"sim_score":3,"rt":4044,"stimulus":"[\"img/0898/81b08535-2020-4c15-9ce4-2f1e460755ae.jpg\",\"img/0866/4a87911a-d5be-4d4e-ab8e-3d1f581bf507.jpg\"]","trial_type":"similarity","trial_index":167,"time_elapsed":960297,"internal_node_id":"0.0-6.0-161.0"},{"sim_score":3,"rt":2565,"stimulus":"[\"img/0766/af3be95e-e52e-4fae-899b-0ff02ec340aa.jpg\",\"img/0903/97a42b34-5462-4665-88c7-83c014b33d24.jpg\"]","trial_type":"similarity","trial_index":168,"time_elapsed":963870,"internal_node_id":"0.0-6.0-162.0"},{"sim_score":3,"rt":2955,"stimulus":"[\"img/0860/99c589b9-9140-4d17-90c0-b344323edcda.jpg\",\"img/0899/56a605c3-d0a2-4215-89e1-779279d85a7c.jpg\"]","trial_type":"similarity","trial_index":169,"time_elapsed":967830,"internal_node_id":"0.0-6.0-163.0"},{"sim_score":3,"rt":3162,"stimulus":"[\"img/0766/908bc45b-7c9e-4f95-806e-86b196ebcb2c.jpg\",\"img/0862/fb26cb07-d5a9-4653-813c-f41609f26cd5.jpg\"]","trial_type":"similarity","trial_index":170,"time_elapsed":971998,"internal_node_id":"0.0-6.0-164.0"},{"sim_score":5,"rt":5477,"stimulus":"[\"img/0898/0af304a2-6a7a-4082-ab7c-4450cd08cc58.jpg\",\"img/0894/e5edf723-72a5-4673-8441-6c1734a8929b.jpg\"]","trial_type":"similarity","trial_index":171,"time_elapsed":978481,"internal_node_id":"0.0-6.0-165.0"},{"sim_score":3,"rt":2078,"stimulus":"[\"img/0867/179ab87a-8eac-4c52-a41f-2e48e3120f09.jpg\",\"img/0766/60033a74-9919-47e5-913c-71d0d483e7e5.jpg\"]","trial_type":"similarity","trial_index":172,"time_elapsed":981565,"internal_node_id":"0.0-6.0-166.0"},{"sim_score":3,"rt":3215,"stimulus":"[\"img/0904/9dd5708f-3f8b-46a9-b49f-2f2fab87b357.jpg\",\"img/0862/47ed5efd-4ec9-4b74-bb4e-a5f5cf0c3e7d.jpg\"]","trial_type":"similarity","trial_index":173,"time_elapsed":985788,"internal_node_id":"0.0-6.0-167.0"},{"sim_score":3,"rt":2835,"stimulus":"[\"img/0866/11a1d141-be5e-443c-98c1-a9d4d9e3dec0.jpg\",\"img/0874/a82926a3-0b43-4add-803c-d5f9ea7798ee.jpg\"]","trial_type":"similarity","trial_index":174,"time_elapsed":989629,"internal_node_id":"0.0-6.0-168.0"},{"sim_score":3,"rt":2338,"stimulus":"[\"img/0903/24477210-856c-4550-9de0-9f85a32762eb.jpg\",\"img/0868/c8ac40c7-6904-4e13-8d61-c75d3052dc4e.jpg\"]","trial_type":"similarity","trial_index":175,"time_elapsed":992973,"internal_node_id":"0.0-6.0-169.0"},{"sim_score":3,"rt":5588,"stimulus":"[\"img/0769/878531fd-e0e8-4ad1-b9ad-f018bb104ca0.jpg\",\"img/0904/63dd06dd-dccb-47ba-9740-eb33239e18a7.jpg\"]","trial_type":"similarity","trial_index":176,"time_elapsed":999568,"internal_node_id":"0.0-6.0-170.0"},{"sim_score":3,"rt":2978,"stimulus":"[\"img/0875/f87b67d7-c33e-40d1-b281-248c4be1cb6e.jpg\",\"img/0764/c80b3e06-2ee3-4326-9678-340607eb5348.jpg\"]","trial_type":"similarity","trial_index":177,"time_elapsed":1003555,"internal_node_id":"0.0-6.0-171.0"},{"sim_score":3,"rt":3668,"stimulus":"[\"img/0860/702bd09d-df3a-40aa-a267-5f04474305b5.jpg\",\"img/0903/5248eedd-7e6a-4d39-91b0-06ec227f3ed0.jpg\"]","trial_type":"similarity","trial_index":178,"time_elapsed":1008228,"internal_node_id":"0.0-6.0-172.0"},{"sim_score":3,"rt":2249,"stimulus":"[\"img/0864/e336a4c5-6648-4fd7-b2f6-93a3fb83f8c6.jpg\",\"img/0867/ac1797e4-8afc-48fe-b252-86d1defb1cca.jpg\"]","trial_type":"similarity","trial_index":179,"time_elapsed":1011483,"internal_node_id":"0.0-6.0-173.0"},{"sim_score":3,"rt":4092,"stimulus":"[\"img/0868/6a28c3b0-3d76-498a-9fb7-ddafc665eca8.jpg\",\"img/0864/afcba0a3-7e27-4757-b254-e9f05fad27e2.jpg\"]","trial_type":"similarity","trial_index":180,"time_elapsed":1016580,"internal_node_id":"0.0-6.0-174.0"},{"sim_score":3,"rt":2542,"stimulus":"[\"img/0898/661621d4-a14e-487c-8c74-354134a29710.jpg\",\"img/0769/a3cfbdeb-acb3-4eac-87fb-4b117f42d4f8.jpg\"]","trial_type":"similarity","trial_index":181,"time_elapsed":1020130,"internal_node_id":"0.0-6.0-175.0"},{"sim_score":6,"rt":6233,"stimulus":"[\"img/0766/d5d38751-8fa5-476f-93e9-86ed2d9045ef.jpg\",\"img/0764/5d83b9db-3b2b-4dc8-9bd1-2b515b19c858.jpg\"]","trial_type":"similarity","trial_index":182,"time_elapsed":1027371,"internal_node_id":"0.0-6.0-176.0"},{"sim_score":3,"rt":2546,"stimulus":"[\"img/0764/d7f3ac54-318a-4dac-a06b-62bed34d01a4.jpg\",\"img/0866/23a224f3-2012-4fc8-8e0f-3c36f8de27fd.jpg\"]","trial_type":"similarity","trial_index":183,"time_elapsed":1030924,"internal_node_id":"0.0-6.0-177.0"},{"sim_score":3,"rt":6851,"stimulus":"[\"img/0902/7f1dcd35-237a-4995-9e42-7f63f3f434d4.jpg\",\"img/0875/90da8d75-108a-44ad-b999-e21fee3860d3.jpg\"]","trial_type":"similarity","trial_index":184,"time_elapsed":1038781,"internal_node_id":"0.0-6.0-178.0"},{"sim_score":3,"rt":3478,"stimulus":"[\"img/0881/445edb15-bd7f-4af3-8bd5-c6ad9677bb31.jpg\",\"img/0904/4d7d70a3-9477-4921-bda0-f9531d0a5c5b.jpg\"]","trial_type":"similarity","trial_index":185,"time_elapsed":1043263,"internal_node_id":"0.0-6.0-179.0"},{"sim_score":3,"rt":2647,"stimulus":"[\"img/0874/a3bc679d-619f-4db6-bb68-116dcb757d9c.jpg\",\"img/0860/15b24a61-25be-4356-9eac-5ce95d0cb4a4.jpg\"]","trial_type":"similarity","trial_index":186,"time_elapsed":1046916,"internal_node_id":"0.0-6.0-180.0"},{"sim_score":3,"rt":2647,"stimulus":"[\"img/0769/180213e5-1e50-4b4e-87b6-add77ba04d39.jpg\",\"img/0874/99f6563c-8a8d-4c1c-a41d-667b618c3fd5.jpg\"]","trial_type":"similarity","trial_index":187,"time_elapsed":1050569,"internal_node_id":"0.0-6.0-181.0"},{"sim_score":3,"rt":5829,"stimulus":"[\"img/0904/6291eb43-c10c-4810-a36a-101d09868b04.jpg\",\"img/0766/ba35c0fc-4d5b-490d-959e-c94b279cdd02.jpg\"]","trial_type":"similarity","trial_index":188,"time_elapsed":1057405,"internal_node_id":"0.0-6.0-182.0"},{"sim_score":5,"rt":5985,"stimulus":"[\"img/0902/794606a0-d8a8-4e58-8bf8-9d114ed5a548.jpg\",\"img/0764/bc3865c9-9004-4582-88a7-048478673f97.jpg\"]","trial_type":"similarity","trial_index":189,"time_elapsed":1064397,"internal_node_id":"0.0-6.0-183.0"},{"sim_score":3,"rt":3965,"stimulus":"[\"img/0769/4680bcc3-8fbc-4643-8f9a-12aa0e780b64.jpg\",\"img/0875/5a7c4e35-6514-4e12-8879-d16071da4cd6.jpg\"]","trial_type":"similarity","trial_index":190,"time_elapsed":1069369,"internal_node_id":"0.0-6.0-184.0"},{"sim_score":3,"rt":2514,"stimulus":"[\"img/0867/50a1b60e-3a29-44bf-b606-d4bd3746fea9.jpg\",\"img/0903/6a87dbad-9b8d-4ff5-9c41-03c9aa24f0c3.jpg\"]","trial_type":"similarity","trial_index":191,"time_elapsed":1072889,"internal_node_id":"0.0-6.0-185.0"},{"sim_score":3,"rt":2816,"stimulus":"[\"img/0862/fad1d7c1-8187-43c3-942a-0fc12183e48e.jpg\",\"img/0769/965c3c44-d9e5-47c5-b61a-2bbdf4215d9a.jpg\"]","trial_type":"similarity","trial_index":192,"time_elapsed":1076710,"internal_node_id":"0.0-6.0-186.0"},{"sim_score":3,"rt":2441,"stimulus":"[\"img/0766/214866ee-423d-4629-9bb9-41572bdc7dac.jpg\",\"img/0866/620cd1aa-0800-4414-8f6e-90342e7a99ad.jpg\"]","trial_type":"similarity","trial_index":193,"time_elapsed":1080159,"internal_node_id":"0.0-6.0-187.0"},{"sim_score":3,"rt":2213,"stimulus":"[\"img/0769/662ab839-88d1-4ebf-af05-9b2980cad943.jpg\",\"img/0860/4c530c3c-6aab-492a-94d1-9c01797bde40.jpg\"]","trial_type":"similarity","trial_index":194,"time_elapsed":1083378,"internal_node_id":"0.0-6.0-188.0"},{"sim_score":3,"rt":2426,"stimulus":"[\"img/0881/ed4c971f-0873-4fc8-b6d6-e8bbd82f0bcc.jpg\",\"img/0868/8b0b8473-e2c0-4331-aa56-c3a5c29369da.jpg\"]","trial_type":"similarity","trial_index":195,"time_elapsed":1088132,"internal_node_id":"0.0-6.0-189.0"},{"view_history":"[{\"page_index\":0,\"viewing_time\":5327}]","rt":5328,"trial_type":"instructions","trial_index":196,"time_elapsed":1094462,"internal_node_id":"0.0-7.0"},{"rt":72153,"responses":"{\"Q0\":\"Orange-crowned Warbler\"}","answer":["Nashville Warbler"],"trial_type":"image-multi-choice","trial_index":197,"time_elapsed":1167645,"internal_node_id":"0.0-8.0-0.0"},{"rt":4703,"responses":"{\"Q0\":\"Black-and-white Warbler\"}","answer":["Black-and-white Warbler"],"trial_type":"image-multi-choice","trial_index":198,"time_elapsed":1173368,"internal_node_id":"0.0-8.0-1.0"},{"rt":59499,"responses":"{\"Q0\":\"Blackburnian Warbler\"}","answer":["Townsend's Warbler"],"trial_type":"image-multi-choice","trial_index":199,"time_elapsed":1233887,"internal_node_id":"0.0-8.0-2.0"},{"rt":112392,"responses":"{\"Q0\":\"Lark Sparrow\"}","answer":["Lark Sparrow"],"trial_type":"image-multi-choice","trial_index":200,"time_elapsed":1347296,"internal_node_id":"0.0-8.0-3.0"},{"rt":5376,"responses":"{\"Q0\":\"Yellow Warbler\"}","answer":["Yellow Warbler"],"trial_type":"image-multi-choice","trial_index":201,"time_elapsed":1353691,"internal_node_id":"0.0-8.0-4.0"},{"rt":36355,"responses":"{\"Q0\":\"Tennessee Warbler\"}","answer":["Orange-crowned Warbler"],"trial_type":"image-multi-choice","trial_index":202,"time_elapsed":1391064,"internal_node_id":"0.0-8.0-5.0"},{"rt":33339,"responses":"{\"Q0\":\"White-throated Sparrow\"}","answer":["White-throated Sparrow"],"trial_type":"image-multi-choice","trial_index":203,"time_elapsed":1425425,"internal_node_id":"0.0-8.0-6.0"},{"rt":7860,"responses":"{\"Q0\":\"Fox Sparrow\"}","answer":["Fox Sparrow"],"trial_type":"image-multi-choice","trial_index":204,"time_elapsed":1434303,"internal_node_id":"0.0-8.0-7.0"},{"rt":31642,"responses":"{\"Q0\":\"Lincoln's Sparrow\"}","answer":["Song Sparrow"],"trial_type":"image-multi-choice","trial_index":205,"time_elapsed":1466965,"internal_node_id":"0.0-8.0-8.0"},{"rt":12365,"responses":"{\"Q0\":\"Townsend's Warbler\"}","answer":["Blackburnian Warbler"],"trial_type":"image-multi-choice","trial_index":206,"time_elapsed":1480348,"internal_node_id":"0.0-8.0-9.0"},{"rt":16645,"responses":"{\"Q0\":\"Lincoln's Sparrow\"}","answer":["Vesper Sparrow"],"trial_type":"image-multi-choice","trial_index":207,"time_elapsed":1498012,"internal_node_id":"0.0-8.0-10.0"},{"rt":5961,"responses":"{\"Q0\":\"White-crowned Sparrow\"}","answer":["White-crowned Sparrow"],"trial_type":"image-multi-choice","trial_index":208,"time_elapsed":1504992,"internal_node_id":"0.0-8.0-11.0"},{"rt":4848,"responses":"{\"Q0\":\"Chipping Sparrow\"}","answer":["American Tree Sparrow"],"trial_type":"image-multi-choice","trial_index":209,"time_elapsed":1510858,"internal_node_id":"0.0-8.0-12.0"},{"rt":13325,"responses":"{\"Q0\":\"Nashville Warbler\"}","answer":["Tennessee Warbler"],"trial_type":"image-multi-choice","trial_index":210,"time_elapsed":1525203,"internal_node_id":"0.0-8.0-13.0"},{"rt":5911,"responses":"{\"Q0\":\"Magnolia Warbler\"}","answer":["Magnolia Warbler"],"trial_type":"image-multi-choice","trial_index":211,"time_elapsed":1532132,"internal_node_id":"0.0-8.0-14.0"},{"rt":4709,"responses":"{\"Q0\":\"Northern Waterthrush\"}","answer":["Northern Waterthrush"],"trial_type":"image-multi-choice","trial_index":212,"time_elapsed":1537859,"internal_node_id":"0.0-8.0-15.0"},{"rt":12484,"responses":"{\"Q0\":\"Song Sparrow\"}","answer":["Chipping Sparrow"],"trial_type":"image-multi-choice","trial_index":213,"time_elapsed":1551360,"internal_node_id":"0.0-8.0-16.0"},{"rt":8974,"responses":"{\"Q0\":\"Song Sparrow\"}","answer":["Swamp Sparrow"],"trial_type":"image-multi-choice","trial_index":214,"time_elapsed":1561353,"internal_node_id":"0.0-8.0-17.0"},{"rt":14139,"responses":"{\"Q0\":\"Swamp Sparrow\"}","answer":["Lincoln's Sparrow"],"trial_type":"image-multi-choice","trial_index":215,"time_elapsed":1576512,"internal_node_id":"0.0-8.0-18.0"},{"rt":3900,"responses":"{\"Q0\":\"Ovenbird\"}","answer":["Ovenbird"],"trial_type":"image-multi-choice","trial_index":216,"time_elapsed":1581428,"internal_node_id":"0.0-8.0-19.0"}]