"view_history","rt","trial_type","trial_index","time_elapsed","internal_node_id","sim_score","stimulus","responses","answer"
"[{""page_index"":0,""viewing_time"":45459}]","45462","instructions","0","45465","0.0-0.0","","","",""
"","5781","similarity_demo","1","52263","0.0-1.0","7","[""img/bluejay1.jpg"",""img/bluejay2.jpg""]","",""
"[{""page_index"":0,""viewing_time"":12488}]","12489","instructions","2","65752","0.0-2.0","","","",""
"","6300","similarity_demo","3","73059","0.0-3.0","5","[""img/bluejay1.jpg"",""img/cardinal1.jpg""]","",""
"[{""page_index"":0,""viewing_time"":5908}]","5909","instructions","4","79968","0.0-4.0","","","",""
"[{""page_index"":0,""viewing_time"":13927}]","13928","instructions","5","94896","0.0-5.0","","","",""
"","4999","similarity","6","100908","0.0-6.0-0.0","2","[""img/0868/83b4350a-3b70-4cea-b7f5-b5b56f3050a8.jpg"",""img/0894/133a1636-d123-4893-873c-1718050f832a.jpg""]","",""
"","4541","similarity","7","106461","0.0-6.0-1.0","1","[""img/0898/661621d4-a14e-487c-8c74-354134a29710.jpg"",""img/0758/2fa3e613-e676-4e6e-bd12-705327eeb3e1.jpg""]","",""
"","5145","similarity","8","112618","0.0-6.0-2.0","6","[""img/0903/2c7b4aed-6038-4aac-958a-e3e58341c313.jpg"",""img/0894/767a0eec-1064-46b1-b1aa-dfa02b0cd74e.jpg""]","",""
"","4528","similarity","9","118155","0.0-6.0-3.0","4","[""img/0881/54ea8e77-c7e5-4197-b7fa-00b7020849a7.jpg"",""img/0766/0bf3793e-c353-45e5-ac6f-753f5f484e10.jpg""]","",""
"","3577","similarity","10","122738","0.0-6.0-4.0","2","[""img/0864/efcfbb1b-8197-44c9-b723-40d6c608dd3c.jpg"",""img/0860/9593362c-9fe5-4d12-9735-6000a11f6aa5.jpg""]","",""
"","4026","similarity","11","127772","0.0-6.0-5.0","6","[""img/0902/94ee9c53-a9a2-4f95-b9b7-794a5fc62bb6.jpg"",""img/0899/1b3457ea-87d4-4946-a01c-aac1863ed46c.jpg""]","",""
"","4182","similarity","12","132962","0.0-6.0-6.0","2","[""img/0868/5fa7f9d0-f0e5-454c-8224-74d964818f56.jpg"",""img/0769/47700831-0ca2-4fdd-a498-a3bc5a528f43.jpg""]","",""
"","4257","similarity","13","138227","0.0-6.0-7.0","3","[""img/0764/c643e165-df19-459f-8c2b-8357bf432a17.jpg"",""img/0901/58ec7fa9-b466-4651-90aa-c082df0972de.jpg""]","",""
"","3713","similarity","14","142946","0.0-6.0-8.0","1","[""img/0881/0c7068da-d0d9-4103-bda1-74ef7a2b32c3.jpg"",""img/0866/386235d2-6857-41e7-88a8-25cfc3430025.jpg""]","",""
"","3571","similarity","15","147532","0.0-6.0-9.0","1","[""img/0867/c66898ba-b71b-4d50-84f9-f7f84853a98d.jpg"",""img/0899/9de5e857-aa9a-4e0c-8ba2-46d79bd069a4.jpg""]","",""
"","3792","similarity","16","152331","0.0-6.0-10.0","2","[""img/0875/e7e66b13-b573-431e-b85e-288ce04a35a3.jpg"",""img/0766/91fc8c4d-862f-4d2b-b1a1-2db8d729b6b7.jpg""]","",""
"","4496","similarity","17","157835","0.0-6.0-11.0","1","[""img/0901/a2d7b2f6-396b-4d91-8403-de5361c74af7.jpg"",""img/0875/5a7c4e35-6514-4e12-8879-d16071da4cd6.jpg""]","",""
"","5817","similarity","18","164659","0.0-6.0-12.0","3","[""img/0902/d49743d6-67ae-4c2e-a939-8fd895a0f18e.jpg"",""img/0860/8fdba999-b946-4c7d-9891-336018b563ef.jpg""]","",""
"","3562","similarity","19","169227","0.0-6.0-13.0","2","[""img/0874/eba003b4-cdab-4eee-8bc3-f064c7d94165.jpg"",""img/0867/12264664-1860-46df-8c21-162b9817cdda.jpg""]","",""
"","5217","similarity","20","175451","0.0-6.0-14.0","2","[""img/0904/5cceabc9-de1d-4c67-989b-c28a4ef77e79.jpg"",""img/0866/11a1d141-be5e-443c-98c1-a9d4d9e3dec0.jpg""]","",""
"","3737","similarity","21","180194","0.0-6.0-15.0","5","[""img/0758/f61ecdf8-a7d4-4db0-b84d-be46f7cfaffc.jpg"",""img/0902/40d0b6ec-3907-4573-b227-e7d8e9cad1c3.jpg""]","",""
"","3402","similarity","22","184605","0.0-6.0-16.0","2","[""img/0867/7d1c497b-c1b3-4ed8-abb5-d7f73306015f.jpg"",""img/0898/6cd3830b-d44e-4915-be2b-88d31424b91c.jpg""]","",""
"","3340","similarity","23","188955","0.0-6.0-17.0","2","[""img/0904/63dd06dd-dccb-47ba-9740-eb33239e18a7.jpg"",""img/0868/6a28c3b0-3d76-498a-9fb7-ddafc665eca8.jpg""]","",""
"","4842","similarity","24","194802","0.0-6.0-18.0","6","[""img/0766/2da002a4-05c9-4f5c-9ed7-433b4183e273.jpg"",""img/0864/da39ad34-04e0-40d4-a724-c08d53e0ea09.jpg""]","",""
"","4611","similarity","25","200418","0.0-6.0-19.0","6","[""img/0899/f95cbdb4-f804-4f5d-ad76-373ad343e658.jpg"",""img/0766/51d3aab4-3d09-4dda-b99d-3dc7aaabc6f2.jpg""]","",""
"","6427","similarity","26","207850","0.0-6.0-20.0","6","[""img/0764/4bec8d92-75aa-475a-954d-8215dbe538f5.jpg"",""img/0758/e38fd80d-18d0-42f3-b848-f930788e8bd7.jpg""]","",""
"","3401","similarity","27","212258","0.0-6.0-21.0","2","[""img/0901/a9b9c0a0-8aed-4888-a78a-65fb7e764d13.jpg"",""img/0874/99f6563c-8a8d-4c1c-a41d-667b618c3fd5.jpg""]","",""
"","3915","similarity","28","217178","0.0-6.0-22.0","1","[""img/0875/03c3c331-738b-4446-af92-3d7386b08c2e.jpg"",""img/0758/821c68d3-5cb0-4eae-8659-30e6263fca39.jpg""]","",""
"","4151","similarity","29","222338","0.0-6.0-23.0","2","[""img/0867/8ba0c5a7-c7e4-42cf-a80a-543763b90779.jpg"",""img/0881/4bd34581-94d8-4e88-8c89-5cef864ca3be.jpg""]","",""
"","3827","similarity","30","227171","0.0-6.0-24.0","1","[""img/0758/d540bee6-b460-4c32-ac57-bc282742d7d4.jpg"",""img/0901/1e23ffbd-19de-4c4f-aa23-c54aaa3319a3.jpg""]","",""
"","4295","similarity","31","232474","0.0-6.0-25.0","5","[""img/0868/4bd5105a-d2c3-4f82-8c80-57196106ba53.jpg"",""img/0875/5a1e5100-0d94-4fec-bbe9-ca9894d2cf8e.jpg""]","",""
"","4041","similarity","32","237522","0.0-6.0-26.0","4","[""img/0903/b7e3723f-fd03-4f3d-8820-f19496463a34.jpg"",""img/0901/875dedb9-24c9-4443-9f8c-85e97d70ee5a.jpg""]","",""
"","3898","similarity","33","242426","0.0-6.0-27.0","5","[""img/0894/1a010553-d598-4b06-a772-81f1e7b3addb.jpg"",""img/0899/25ae6ec8-9565-49fe-a8bb-8d0666f52716.jpg""]","",""
"","4219","similarity","34","247651","0.0-6.0-28.0","1","[""img/0862/7918ca67-5bd3-4606-a5ea-c39fb11a9297.jpg"",""img/0867/075e0f95-856b-4cbb-acf5-092393aaf04e.jpg""]","",""
"","4665","similarity","35","253322","0.0-6.0-29.0","1","[""img/0864/5f74a653-3bdc-4308-8cca-ac667dc22e1f.jpg"",""img/0875/34132396-d896-4c2d-8087-646dd867e769.jpg""]","",""
"","4579","similarity","36","258907","0.0-6.0-30.0","2","[""img/0862/fad1d7c1-8187-43c3-942a-0fc12183e48e.jpg"",""img/0874/31e22c7c-99aa-40b1-bf03-dd73fa2df4d6.jpg""]","",""
"","3142","similarity","37","263059","0.0-6.0-31.0","2","[""img/0903/bf0a7d60-eca5-44b0-bafd-baf21db9904b.jpg"",""img/0758/20497cbe-ddae-489e-86e2-ab06985ed07c.jpg""]","",""
"","6318","similarity","38","270389","0.0-6.0-32.0","5","[""img/0866/4a87911a-d5be-4d4e-ab8e-3d1f581bf507.jpg"",""img/0901/71e551a2-9ce2-409c-9c7c-dd556a0791e9.jpg""]","",""
"","4902","similarity","39","276298","0.0-6.0-33.0","6","[""img/0874/adf9a8f1-c40b-402b-b95b-1e85a54a7b62.jpg"",""img/0899/8de08897-b430-42fe-9d42-840670b80f94.jpg""]","",""
"","4290","similarity","40","281595","0.0-6.0-34.0","7","[""img/0903/97a42b34-5462-4665-88c7-83c014b33d24.jpg"",""img/0902/71c03003-03ef-4b0f-8229-e0c857150a5d.jpg""]","",""
"","3529","similarity","41","286131","0.0-6.0-35.0","1","[""img/0758/a085b443-b5d7-4cb2-9ad4-b9dab0fc23f1.jpg"",""img/0866/a15b02be-11bb-43e3-b0e0-ecc3bd7dfc49.jpg""]","",""
"","3910","similarity","42","291052","0.0-6.0-36.0","5","[""img/0875/8521fd58-3b1e-4dc5-97ae-804edfa6734a.jpg"",""img/0903/470acfd5-5571-4a7b-b3a4-28d87e098138.jpg""]","",""
"","3832","similarity","43","307096","0.0-6.0-37.0","6","[""img/0864/1d15626a-2f7c-410f-819c-0fa2c967e95e.jpg"",""img/0902/3b243e54-0803-4c29-af42-4037c2118495.jpg""]","",""
"","2947","similarity","44","311050","0.0-6.0-38.0","1","[""img/0901/fb0a8e69-7f19-4e6e-a6bb-a48f97f9b4f3.jpg"",""img/0867/c71dc569-f49c-4397-8381-68b8d726736d.jpg""]","",""
"","4218","similarity","45","316277","0.0-6.0-39.0","5","[""img/0862/064818ee-13d5-4618-bb24-21c7368ea278.jpg"",""img/0860/702bd09d-df3a-40aa-a267-5f04474305b5.jpg""]","",""
"","3493","similarity","46","320779","0.0-6.0-40.0","7","[""img/0867/179ab87a-8eac-4c52-a41f-2e48e3120f09.jpg"",""img/0868/4a8a45ed-2c4f-421b-9564-409a33ecd26c.jpg""]","",""
"","4839","similarity","47","326626","0.0-6.0-41.0","6","[""img/0904/9d30eff1-46ef-4453-b11e-124ef8145c00.jpg"",""img/0899/56a605c3-d0a2-4215-89e1-779279d85a7c.jpg""]","",""
"","4004","similarity","48","331638","0.0-6.0-42.0","5","[""img/0862/ad593cc7-cabe-4bb7-8e14-8a447a0717b4.jpg"",""img/0894/4739e06d-c31e-4bf1-bf91-c97fa9afb456.jpg""]","",""
"","3725","similarity","49","336371","0.0-6.0-43.0","2","[""img/0875/2e13d160-eea1-416b-aff1-d37ab99ecc1d.jpg"",""img/0904/4d7d70a3-9477-4921-bda0-f9531d0a5c5b.jpg""]","",""
"","4080","similarity","50","341469","0.0-6.0-44.0","2","[""img/0874/995f0332-0439-4eb4-add3-957335dbf6d9.jpg"",""img/0898/82231d4c-218b-4d0a-b50d-35a49b524e97.jpg""]","",""
"","3276","similarity","51","345764","0.0-6.0-45.0","1","[""img/0898/224c1572-56b9-4f16-a9e4-6f3bc9c114bd.jpg"",""img/0868/0d3abd3a-b6c3-4584-a9f7-e2da63748b3d.jpg""]","",""
"","3337","similarity","52","350115","0.0-6.0-46.0","3","[""img/0901/33b51a81-06d9-46d9-9d4f-5a2d6d6b8058.jpg"",""img/0860/e14d67c1-6d92-4f1e-9257-c8607159c19c.jpg""]","",""
"","3878","similarity","53","355003","0.0-6.0-47.0","2","[""img/0894/5f15154e-e72e-4ce5-aafb-bce6f0564006.jpg"",""img/0902/168ebd47-9e82-4ab7-a18b-c3da85072db8.jpg""]","",""
"","3217","similarity","54","359227","0.0-6.0-48.0","5","[""img/0764/c01e2d65-6586-441b-bef5-3c96fcd85380.jpg"",""img/0862/4f0a3b4c-afbf-486e-b248-1d54982f54b4.jpg""]","",""
"","3778","similarity","55","364010","0.0-6.0-49.0","7","[""img/0881/7e822106-76f7-4b10-a805-14dc68b2cfaf.jpg"",""img/0758/7ffbc76b-1fc1-432c-8f7e-9ec8d1b3f643.jpg""]","",""
"","4532","similarity","56","369548","0.0-6.0-50.0","5","[""img/0766/f5f78e4e-d88f-4866-951a-118ba9fec4d0.jpg"",""img/0769/35364db7-e0d5-40ef-93dc-faf9dfb95136.jpg""]","",""
"","3832","similarity","57","374388","0.0-6.0-51.0","5","[""img/0875/f87b67d7-c33e-40d1-b281-248c4be1cb6e.jpg"",""img/0866/a04d37f0-99dd-478a-b6c6-58b215138f84.jpg""]","",""
"","4473","similarity","58","379868","0.0-6.0-52.0","6","[""img/0894/e5edf723-72a5-4673-8441-6c1734a8929b.jpg"",""img/0904/96e503ea-6630-4996-85f2-0237688ce441.jpg""]","",""
"","4424","similarity","59","385298","0.0-6.0-53.0","3","[""img/0758/caa93da2-9edf-49fa-96b9-32dedd8f5078.jpg"",""img/0769/14d393ce-e5be-4ca1-86ce-cc27d4b6074c.jpg""]","",""
"","3761","similarity","60","390066","0.0-6.0-54.0","4","[""img/0902/4e0baa32-988e-46f6-989d-f669225ab645.jpg"",""img/0874/ca23d307-fc00-4d7d-9106-584c6eb21b4d.jpg""]","",""
"","4218","similarity","61","395290","0.0-6.0-55.0","3","[""img/0903/a0673b55-6040-47fe-9040-24bca27ca3c9.jpg"",""img/0862/53a9cf7c-93c4-41b9-952f-07d17f7a17b2.jpg""]","",""
"","4939","similarity","62","401234","0.0-6.0-56.0","2","[""img/0866/be24ab58-230e-4db8-9f45-ff04c9aec6bb.jpg"",""img/0894/7dd6ff43-f8fc-408a-8a41-a2b261871820.jpg""]","",""
"","3339","similarity","63","405579","0.0-6.0-57.0","1","[""img/0867/de92135f-5b65-4ed9-b245-188292c7c2f8.jpg"",""img/0904/4e58005d-a2ec-4aaa-b199-445343561396.jpg""]","",""
"","3962","similarity","64","410546","0.0-6.0-58.0","2","[""img/0875/5a716432-c6ca-4b1c-955a-2b8ac25198ee.jpg"",""img/0881/f8bd891e-aa09-4782-89db-33e7cb2b0cf1.jpg""]","",""
"","5218","similarity","65","416770","0.0-6.0-59.0","1","[""img/0866/c446214b-a368-4c65-ae39-ea46894256ab.jpg"",""img/0860/15b24a61-25be-4356-9eac-5ce95d0cb4a4.jpg""]","",""
"","3594","similarity","66","421370","0.0-6.0-60.0","2","[""img/0903/70d764d9-1f35-4da7-a35d-4cc39834d270.jpg"",""img/0866/0207e9a2-7dbb-40b5-9459-b472aaeceb2a.jpg""]","",""
"","4059","similarity","67","426435","0.0-6.0-61.0","5","[""img/0860/c7047cd2-7cc1-41b6-8a34-c0986774975f.jpg"",""img/0875/a4935837-7d3c-4df6-88c1-36a94d4991ca.jpg""]","",""
"","3674","similarity","68","431115","0.0-6.0-62.0","6","[""img/0898/0af304a2-6a7a-4082-ab7c-4450cd08cc58.jpg"",""img/0862/e0f1a4e9-e1b6-45f7-af67-89f334e6630d.jpg""]","",""
"","4440","similarity","69","436563","0.0-6.0-63.0","2","[""img/0902/0db94c50-f1fb-4091-953c-29ca0466bee2.jpg"",""img/0766/535849cc-ff5d-4df9-8f31-0ce94a97d571.jpg""]","",""
"","4234","similarity","70","441803","0.0-6.0-64.0","7","[""img/0758/d41c06bf-ebaf-454b-91c6-1a17f917b659.jpg"",""img/0864/3651d070-2fc5-4848-b6a6-088a2d9ac5c9.jpg""]","",""
"","4962","similarity","71","447770","0.0-6.0-65.0","3","[""img/0894/38f5931f-926d-414e-b498-66b188978b7a.jpg"",""img/0860/71e1aad0-2cdf-43bb-94a4-a8c016997c30.jpg""]","",""
"","6159","similarity","72","454938","0.0-6.0-66.0","1","[""img/0899/8abe6c69-822c-436c-9bf2-96c818b49ba5.jpg"",""img/0868/3a62db2d-97e9-44a3-b8e3-a48c6f0e423b.jpg""]","",""
"","4235","similarity","73","460178","0.0-6.0-67.0","1","[""img/0866/620cd1aa-0800-4414-8f6e-90342e7a99ad.jpg"",""img/0862/f23038d4-c366-4f70-979f-66b62362efa4.jpg""]","",""
"","2707","similarity","74","463890","0.0-6.0-68.0","1","[""img/0860/5bff793e-cbd5-4d7e-b628-0ac2b0e30b64.jpg"",""img/0758/d57c2592-a317-4f63-91be-91a3a9afd222.jpg""]","",""
"","3747","similarity","75","468642","0.0-6.0-69.0","1","[""img/0902/3f0eeac5-c996-4026-a376-563ce8f28521.jpg"",""img/0867/98d8cd96-1476-4fe0-a3a3-04f875500a1b.jpg""]","",""
"","3813","similarity","76","473466","0.0-6.0-70.0","6","[""img/0862/e697469a-ec19-4414-b972-7b9f3564785b.jpg"",""img/0901/effc03f6-8f9d-46db-a66c-16fc83891c5c.jpg""]","",""
"","3634","similarity","77","478106","0.0-6.0-71.0","7","[""img/0867/bf560d4f-dee3-4f11-a385-705cc1aa5f3c.jpg"",""img/0866/6f2a90d7-14f1-4f1b-bd64-fc0af6b9fe44.jpg""]","",""
"","4939","similarity","78","484051","0.0-6.0-72.0","5","[""img/0860/524b2e98-5767-4d53-942c-ebae6925659b.jpg"",""img/0904/da170c1b-9651-4f08-b231-2bdd1d9a046f.jpg""]","",""
"","4345","similarity","79","489403","0.0-6.0-73.0","1","[""img/0875/3ecb367d-e9eb-4826-8aaa-7aa72fb98019.jpg"",""img/0899/ddf96ade-692e-4602-bd22-dedbb46401bc.jpg""]","",""
"","4809","similarity","80","495218","0.0-6.0-74.0","4","[""img/0899/00715b3f-851b-420b-a26b-d7f79f7759a9.jpg"",""img/0758/67c0be2f-9e91-48b3-8219-70ac0a1802fa.jpg""]","",""
"","3227","similarity","81","504184","0.0-6.0-75.0","2","[""img/0862/47ed5efd-4ec9-4b74-bb4e-a5f5cf0c3e7d.jpg"",""img/0875/d59ff733-eaff-4ee2-9443-06954dd0bcb6.jpg""]","",""
"","3557","similarity","82","508746","0.0-6.0-76.0","3","[""img/0901/deff6cfb-0072-4490-bc3e-206bbcd3e8bf.jpg"",""img/0894/86201968-6e78-4d68-9b3a-d1692e066210.jpg""]","",""
"","4211","similarity","83","513963","0.0-6.0-77.0","5","[""img/0766/006035d8-c736-4daf-bbe4-a9e373af9da6.jpg"",""img/0758/dd559618-7f09-4a07-8018-d311c4a5ea29.jpg""]","",""
"","4954","similarity","84","519923","0.0-6.0-78.0","6","[""img/0894/792c83e9-a747-4000-bc72-5663d2439edb.jpg"",""img/0764/cffc80b0-4a90-4acb-a530-6f480f3ca303.jpg""]","",""
"","4041","similarity","85","524970","0.0-6.0-79.0","1","[""img/0860/61fb959d-d4d9-4de4-9e4e-4fa62b4cfcd5.jpg"",""img/0867/85a96c62-548f-4994-9553-819e03c3135a.jpg""]","",""
"","3827","similarity","86","529802","0.0-6.0-80.0","3","[""img/0898/08c72dac-f8ad-407a-9ce6-8c9a5d679c3a.jpg"",""img/0901/f469cb1d-6d81-4a45-bab5-cd0b650c2b4f.jpg""]","",""
"","3506","similarity","87","534316","0.0-6.0-81.0","2","[""img/0874/3f471690-9788-4d03-90c7-f615aecef149.jpg"",""img/0764/f64dfa83-333d-494c-87b5-73e942f1766e.jpg""]","",""
"","4560","similarity","88","539882","0.0-6.0-82.0","4","[""img/0899/0adc0bc3-6fca-4078-be6f-d45ddf1653d5.jpg"",""img/0862/cdaed51d-9e2f-4807-801a-4663c40077e2.jpg""]","",""
"","4779","similarity","89","545668","0.0-6.0-83.0","1","[""img/0766/26d3ae14-8275-4e08-99b2-a6598c193ddf.jpg"",""img/0901/62315ff5-ed95-46b4-b099-92552079659b.jpg""]","",""
"","3383","similarity","90","550059","0.0-6.0-84.0","1","[""img/0881/292e9b4b-fca0-4ba8-87f1-4048f9e37b7d.jpg"",""img/0898/0c7dde4f-efce-4b7a-9387-6921635b7890.jpg""]","",""
"","3345","similarity","91","554410","0.0-6.0-85.0","2","[""img/0868/8b0b8473-e2c0-4331-aa56-c3a5c29369da.jpg"",""img/0860/fd4662f9-4c03-4d79-8593-06735e55a64b.jpg""]","",""
"","23067","similarity","92","578482","0.0-6.0-86.0","4","[""img/0758/53f35650-e455-4b53-8be4-c3c8271c6466.jpg"",""img/0868/fd307a36-9a3a-47d7-ab7c-f810d0b35040.jpg""]","",""
"","55226","similarity","93","634715","0.0-6.0-87.0","5","[""img/0864/87c467d3-abca-482f-ad80-3766c21b1bb3.jpg"",""img/0894/3adef67d-7676-4995-80b2-bb31b8aca3ef.jpg""]","",""
"","5554","similarity","94","641274","0.0-6.0-88.0","4","[""img/0866/07c9c966-3c8d-40e7-8128-92b2acbaed5d.jpg"",""img/0902/af40b98b-3d23-4d95-b401-49ba5783ce39.jpg""]","",""
"","4528","similarity","95","646812","0.0-6.0-89.0","1","[""img/0769/965c3c44-d9e5-47c5-b61a-2bbdf4215d9a.jpg"",""img/0867/26611f4e-d694-4460-b7e2-43c62753ddc3.jpg""]","",""
"","2528","similarity","96","650347","0.0-6.0-90.0","1","[""img/0874/a82926a3-0b43-4add-803c-d5f9ea7798ee.jpg"",""img/0875/42910c99-5463-450a-a0f8-d4d060a11455.jpg""]","",""
"","5969","similarity","97","657322","0.0-6.0-91.0","6","[""img/0864/ea327690-500b-4137-bf91-451b309fe6a5.jpg"",""img/0874/8cdb1c07-1c32-46d2-981c-3636560fa6e5.jpg""]","",""
"","3659","similarity","98","661987","0.0-6.0-92.0","5","[""img/0881/c843e210-bdfe-4a7c-8bbe-fcea1f90fe1c.jpg"",""img/0862/5d887e9f-89e2-4ebc-80a0-6d46fe6480db.jpg""]","",""
"","4840","similarity","99","667834","0.0-6.0-93.0","6","[""img/0864/0116ca98-293d-4fa6-a93b-5a6144ef64cc.jpg"",""img/0881/f7a8cc63-8842-40a4-9ff8-fe530310d62c.jpg""]","",""
"","3729","similarity","100","672571","0.0-6.0-94.0","4","[""img/0899/5b56dd3e-3f49-47cc-af84-16da6457753b.jpg"",""img/0901/7c16dd9c-44ad-4d5b-990c-6a0b9b48b1b1.jpg""]","",""
"","3657","similarity","101","677235","0.0-6.0-95.0","5","[""img/0874/7e4f2150-3b59-4a36-b5da-a4e0ba410531.jpg"",""img/0766/fd74fdbb-ea40-4f3a-a091-38d08dfd636e.jpg""]","",""
"","4506","similarity","102","682747","0.0-6.0-96.0","7","[""img/0881/d1982897-8d8d-4704-a940-1ee5d07a1f15.jpg"",""img/0899/b45c550b-96c3-4255-ad59-48a2b4db1c1e.jpg""]","",""
"","4561","similarity","103","688315","0.0-6.0-97.0","7","[""img/0862/de9ad88c-b522-430a-8ee9-eb06a9f85df5.jpg"",""img/0902/0eb85fbc-27c8-41df-9d0b-a5f9efd417d1.jpg""]","",""
"","4842","similarity","104","694162","0.0-6.0-98.0","6","[""img/0899/f58b8d2f-b19d-4b59-8b94-8834be92e4ba.jpg"",""img/0764/f990b2e8-ecee-481e-be7c-0239fce350e2.jpg""]","",""
"","6690","similarity","105","701858","0.0-6.0-99.0","3","[""img/0758/7fba58df-2a7a-4b76-8a8f-62739f97f271.jpg"",""img/0862/ee3b7bff-4a70-4e84-9bea-4a565e456acb.jpg""]","",""
"","3659","similarity","106","706522","0.0-6.0-100.0","4","[""img/0764/4952d0a0-c9be-471a-8ec7-94a37bf4051d.jpg"",""img/0898/cd3aaa3f-efa9-4ab3-8d6f-a6a9273ddf42.jpg""]","",""
"","4850","similarity","107","712380","0.0-6.0-101.0","6","[""img/0901/693e0535-ef7e-4d60-af9d-fac2f38e8307.jpg"",""img/0902/44cd9b7e-fdfb-4f78-90de-8d4c9d279365.jpg""]","",""
"","3142","similarity","108","716530","0.0-6.0-102.0","1","[""img/0764/cbdc4f20-3a9a-4211-9b40-090699e0abcc.jpg"",""img/0868/15dd6fd7-791e-4b53-b203-195d617521a4.jpg""]","",""
"","4458","similarity","109","721995","0.0-6.0-103.0","3","[""img/0769/da36e3f7-2337-434f-ab57-11822dd7eed7.jpg"",""img/0881/6b1189e6-232d-4042-8885-16dc7b10e0d4.jpg""]","",""
"","4497","similarity","110","727498","0.0-6.0-104.0","2","[""img/0864/8ddd2e30-a1d0-479f-9cbe-591213023893.jpg"",""img/0769/a1ce8d07-ba37-40de-bade-2778805521e0.jpg""]","",""
"","5731","similarity","111","734236","0.0-6.0-105.0","7","[""img/0866/945c6710-d15b-4a5b-a8f6-69af0850357f.jpg"",""img/0868/1a62b2b2-18f5-466e-b564-5176a57c565e.jpg""]","",""
"","5641","similarity","112","740882","0.0-6.0-106.0","1","[""img/0868/7b212364-ff5f-4e28-9241-7eb6ea00161b.jpg"",""img/0862/a0a3a7ba-7798-46a3-b4ca-05e1f6e581d0.jpg""]","",""
"","4851","similarity","113","746738","0.0-6.0-107.0","5","[""img/0766/aaec5f42-7f0a-4a16-aeca-488d757acbcc.jpg"",""img/0898/e167334e-cc1d-4986-b3b1-c7bc7da64baa.jpg""]","",""
"","4946","similarity","114","752690","0.0-6.0-108.0","5","[""img/0898/a8f16b02-e19f-423b-86c3-a36562ae1f9b.jpg"",""img/0864/afcba0a3-7e27-4757-b254-e9f05fad27e2.jpg""]","",""
"","5083","similarity","115","758778","0.0-6.0-109.0","2","[""img/0868/e0aff734-077f-40dd-9781-74821abd3621.jpg"",""img/0902/6c2c243a-f663-45db-baf5-038d3d58c589.jpg""]","",""
"","4819","similarity","116","764602","0.0-6.0-110.0","5","[""img/0904/0d25eb24-bb20-4e8d-9787-8b489558b4cb.jpg"",""img/0764/bc3865c9-9004-4582-88a7-048478673f97.jpg""]","",""
"","3946","similarity","117","769555","0.0-6.0-111.0","2","[""img/0894/7fb082e0-ce79-485c-9109-04367fb32275.jpg"",""img/0875/90da8d75-108a-44ad-b999-e21fee3860d3.jpg""]","",""
"","4120","similarity","118","774682","0.0-6.0-112.0","1","[""img/0868/d6d1f30d-4323-435a-b194-7892521bc57e.jpg"",""img/0874/29830da7-be5f-44e5-b141-652a0ccf7269.jpg""]","",""
"","7513","similarity","119","792072","0.0-6.0-113.0","5","[""img/0904/2f88ce53-02d0-4f95-a082-182c56a0eeb4.jpg"",""img/0898/881e2a85-d5c2-49be-a0c6-8a6ce2c4af08.jpg""]","",""
"","4507","similarity","120","797586","0.0-6.0-114.0","1","[""img/0860/e8b8c51e-1834-4875-8b61-6c5bc9b178bd.jpg"",""img/0766/3c526a07-9e0a-4ae2-8142-00085f0127da.jpg""]","",""
"","4041","similarity","121","802635","0.0-6.0-115.0","5","[""img/0894/1b3888e6-cf36-4c4a-a039-187aa5cb71ac.jpg"",""img/0874/93d1f8dc-acf2-4f03-bd8d-8ec35df276ed.jpg""]","",""
"","4935","similarity","122","808578","0.0-6.0-116.0","6","[""img/0899/7f9d45d0-b2c6-40d3-aa41-c207db2c411b.jpg"",""img/0903/07b445ee-0cdb-4d2c-a23b-d727613f4059.jpg""]","",""
"","3891","similarity","123","813475","0.0-6.0-117.0","6","[""img/0881/1407b85b-a1c6-45b1-9884-3b24203efadb.jpg"",""img/0764/8740679b-b56f-4292-aece-14063457113a.jpg""]","",""
"","4242","similarity","124","818722","0.0-6.0-118.0","5","[""img/0903/47e39de8-6959-469f-8be9-6999a6db207c.jpg"",""img/0769/1ca58b80-2365-446d-9616-6c1719e6c46f.jpg""]","",""
"","3659","similarity","125","823386","0.0-6.0-119.0","4","[""img/0901/148b747a-7392-437e-8823-33053c5dff3f.jpg"",""img/0904/4b8daf2a-13a9-4ea9-9e0b-b265b6e933e7.jpg""]","",""
"","4578","similarity","126","828970","0.0-6.0-120.0","3","[""img/0860/99c589b9-9140-4d17-90c0-b344323edcda.jpg"",""img/0881/405484ae-0d00-4b05-bc57-6420a36adfac.jpg""]","",""
"","4978","similarity","127","834955","0.0-6.0-121.0","3","[""img/0758/7ee8bc8f-c40b-4b3a-84ec-3e83580622d4.jpg"",""img/0874/c0378dac-9370-439a-8b79-db27c96fb390.jpg""]","",""
"","5248","similarity","128","841211","0.0-6.0-122.0","3","[""img/0901/8bb79e82-9c43-4b6f-a655-40655519598b.jpg"",""img/0769/50985283-d353-4abc-9abe-14a91d56ebe6.jpg""]","",""
"","4945","similarity","129","847163","0.0-6.0-123.0","7","[""img/0902/1a120fb9-dbd6-443e-ba91-b4aceab963da.jpg"",""img/0904/2c98dc56-88d1-4fb5-a999-b6a7861f65f0.jpg""]","",""
"","5138","similarity","130","853306","0.0-6.0-124.0","2","[""img/0899/fef567a2-c121-4481-9af0-ff108d199bbf.jpg"",""img/0864/c3b63e8f-ea39-4d70-a1f2-b3fe4be8eb75.jpg""]","",""
"","2639","similarity","131","856955","0.0-6.0-125.0","1","[""img/0766/ea09dd5a-d24d-4e97-a099-7da3db1baef1.jpg"",""img/0868/d98ca254-b195-477f-b57e-5760a2717db8.jpg""]","",""
"","5515","similarity","132","863475","0.0-6.0-126.0","6","[""img/0764/f713847b-4832-42d1-8fb3-e17e37fd745c.jpg"",""img/0864/4bd81bc6-c13d-46df-95a9-485886dc7c1b.jpg""]","",""
"","4105","similarity","133","868586","0.0-6.0-127.0","1","[""img/0899/4f7bc593-8ddd-4da3-a0b9-84da730d3370.jpg"",""img/0866/f756f7d1-9ad8-4a34-9ef6-7a443d705bfe.jpg""]","",""
"","3818","similarity","134","873411","0.0-6.0-128.0","2","[""img/0901/da4fe30f-d12a-491e-96a2-5ab8ebaadd09.jpg"",""img/0881/84397291-bc14-4fbf-90e8-241e486ab0fe.jpg""]","",""
"","5601","similarity","135","880022","0.0-6.0-129.0","6","[""img/0898/8605a25b-6895-476d-8c13-df7a83f96093.jpg"",""img/0903/45e2d600-57ff-4d69-b22c-0c7896cd38f0.jpg""]","",""
"","4654","similarity","136","885682","0.0-6.0-130.0","1","[""img/0894/2d2db7b3-e8a3-499b-b63a-14f51bf73882.jpg"",""img/0867/aa05d113-fc19-4756-a8eb-7878f580bc92.jpg""]","",""
"","4826","similarity","137","891515","0.0-6.0-131.0","2","[""img/0874/2c9464dd-8a23-4baa-ac94-1ba3af5c15cc.jpg"",""img/0903/5995f4a8-fa82-46f8-8760-fd7800a5ca34.jpg""]","",""
"","3913","similarity","138","896435","0.0-6.0-132.0","6","[""img/0899/ad8268c5-8199-48d0-ad70-c5b6d6c599ec.jpg"",""img/0898/a114b375-cb89-44ba-9498-74213f1ecdee.jpg""]","",""
"","4496","similarity","139","901938","0.0-6.0-133.0","3","[""img/0867/1719a35d-f085-48c0-9099-16c94fe418b4.jpg"",""img/0764/50f1b062-d608-4bc0-ab25-b872dcf2ed93.jpg""]","",""
"","3993","similarity","140","906938","0.0-6.0-134.0","3","[""img/0866/23a224f3-2012-4fc8-8e0f-3c36f8de27fd.jpg"",""img/0769/75f7e514-0548-4329-b1e4-93c05e74f038.jpg""]","",""
"","4515","similarity","141","912458","0.0-6.0-135.0","2","[""img/0860/c47fdead-eb02-4989-b078-26f4852f44fe.jpg"",""img/0898/68476bbb-34a1-42d9-8bc1-deab783d4489.jpg""]","",""
"","3994","similarity","142","917458","0.0-6.0-136.0","4","[""img/0881/f62bdcd1-a4b7-4d48-83da-d9c9e01c8727.jpg"",""img/0903/680ed18e-b311-4ecf-9b00-7dea32128334.jpg""]","",""
"","5185","similarity","143","923650","0.0-6.0-137.0","6","[""img/0894/c505c65a-cde2-4f2c-8cde-f8676f7c894d.jpg"",""img/0766/2746b119-4bba-463e-acf0-88136dc6600c.jpg""]","",""
"","4057","similarity","144","928715","0.0-6.0-138.0","2","[""img/0860/4c530c3c-6aab-492a-94d1-9c01797bde40.jpg"",""img/0764/0e7ed062-f798-4366-8a24-6f430926f919.jpg""]","",""
"","6065","similarity","145","935786","0.0-6.0-139.0","4","[""img/0769/1afb527f-9887-428c-bd26-a12c2f9efb68.jpg"",""img/0902/a6fb6dd5-696c-47ec-be7d-d7b88f1544f1.jpg""]","",""
"","3866","similarity","146","940659","0.0-6.0-140.0","4","[""img/0904/0d17b811-063e-416e-a23c-3b3cfa4fcce5.jpg"",""img/0903/c3cb4a01-2797-43ca-b216-88c67b323fbb.jpg""]","",""
"","3664","similarity","147","945331","0.0-6.0-141.0","7","[""img/0764/ef0e64c6-d0dd-4dc6-87b6-ce5c0665f421.jpg"",""img/0769/e8ed913b-8a88-44f6-9327-d34afec3116b.jpg""]","",""
"","7609","similarity","148","953947","0.0-6.0-142.0","5","[""img/0902/94198618-7047-4dc9-ad04-85f4ba913067.jpg"",""img/0881/62a64f90-7a72-4aee-a1a1-0c548ac9bdda.jpg""]","",""
"","2890","similarity","149","957842","0.0-6.0-143.0","1","[""img/0866/bf14b5bd-fb55-47db-86b9-4f8aeb9a6dad.jpg"",""img/0864/f92649a2-0590-4d31-9a7a-1bfb81666a2d.jpg""]","",""
"","4738","similarity","150","963587","0.0-6.0-144.0","6","[""img/0902/794606a0-d8a8-4e58-8bf8-9d114ed5a548.jpg"",""img/0898/ec565187-2e31-4fdd-9a5c-153d0c789ae0.jpg""]","",""
"","4913","similarity","151","969506","0.0-6.0-145.0","5","[""img/0862/f188d4f0-76a4-4102-818c-a209969d73a5.jpg"",""img/0864/a248adb3-c70b-4652-b7a3-776d2a1e904b.jpg""]","",""
"","3345","similarity","152","973858","0.0-6.0-146.0","1","[""img/0875/99698b4d-b4a1-44bc-8c83-8ea755bbbf61.jpg"",""img/0898/79233891-305a-4a6a-8ddf-5c8604858203.jpg""]","",""
"","4604","similarity","153","979467","0.0-6.0-147.0","5","[""img/0874/1016b306-087c-4afc-aa08-fa527b28dc76.jpg"",""img/0881/db77fe00-aeb0-4d1d-aa66-f3a96fd077e4.jpg""]","",""
"","7354","similarity","154","987826","0.0-6.0-148.0","3","[""img/0758/a709631e-3705-4725-ac40-f0d916924f08.jpg"",""img/0894/a3d4170b-b7d8-40e3-955f-87e76ed745fc.jpg""]","",""
"","5851","similarity","155","994683","0.0-6.0-149.0","3","[""img/0904/5aec2708-cf14-4a58-aa30-9a8a61c1be0e.jpg"",""img/0864/c22faebd-9c53-47bc-ada3-b9a30c688e75.jpg""]","",""
"","4943","similarity","156","1000635","0.0-6.0-150.0","6","[""img/0769/d1be2815-fa79-46e8-b5c3-7d81caaca490.jpg"",""img/0899/0433d056-aa30-4f8a-9aa1-abbb951e4edd.jpg""]","",""
"","5129","similarity","157","1018153","0.0-6.0-151.0","5","[""img/0764/5d83b9db-3b2b-4dc8-9bd1-2b515b19c858.jpg"",""img/0903/9b60ef5b-234f-4239-892b-3d4c412accc2.jpg""]","",""
"","3876","similarity","158","1023035","0.0-6.0-152.0","2","[""img/0903/81368973-de81-46f4-844f-b901f3bfd66d.jpg"",""img/0864/9b2490c5-a282-400a-9736-e1a0ecbf1cb7.jpg""]","",""
"","4888","similarity","159","1028932","0.0-6.0-153.0","3","[""img/0894/10f22b96-040c-44f4-950b-a4963f3f506c.jpg"",""img/0881/48ed65a5-471f-41af-86ec-3793805c116d.jpg""]","",""
"","4007","similarity","160","1033949","0.0-6.0-154.0","5","[""img/0875/ebf7653f-ff45-4e9f-af58-2c042ab3cd2b.jpg"",""img/0867/50a1b60e-3a29-44bf-b606-d4bd3746fea9.jpg""]","",""
"","2461","similarity","161","1037419","0.0-6.0-155.0","1","[""img/0867/2e1a0b58-cdb1-4107-a14e-452530d7b9b0.jpg"",""img/0758/61d64021-9214-4951-bdf8-f871f9827cf9.jpg""]","",""
"","6106","similarity","162","1044530","0.0-6.0-156.0","1","[""img/0868/77091fc7-a590-4ebb-b915-fdb2483a2399.jpg"",""img/0901/77087ed2-6e12-4329-b2a5-605bca6d972d.jpg""]","",""
"","4083","similarity","163","1049619","0.0-6.0-157.0","6","[""img/0769/76eaa4a3-dfe9-4dc1-9efb-caebe86264e1.jpg"",""img/0894/b422d5c6-3c5a-49ae-a53e-7e88ac993f49.jpg""]","",""
"","4826","similarity","164","1055450","0.0-6.0-158.0","2","[""img/0904/e9423a8c-f946-43ad-ab7b-931acef870e2.jpg"",""img/0758/ddc336e9-a8b6-4bb9-937a-c7e25e0e9250.jpg""]","",""
"","4194","similarity","165","1060650","0.0-6.0-159.0","2","[""img/0874/a3bc679d-619f-4db6-bb68-116dcb757d9c.jpg"",""img/0904/60d1a521-edf7-4696-9263-f21ac0e62a01.jpg""]","",""
"","4211","similarity","166","1065868","0.0-6.0-160.0","1","[""img/0864/3d4de670-b290-4285-9c3d-12a0e3af44e9.jpg"",""img/0901/b123d109-47b4-4f9a-80c9-9bb16da42efa.jpg""]","",""
"","4161","similarity","167","1071035","0.0-6.0-161.0","2","[""img/0898/b3290bf9-215b-4b45-b21a-65bdf73f142f.jpg"",""img/0866/d266fece-59b3-46fa-b69f-96f6efb81b59.jpg""]","",""
"","3810","similarity","168","1075850","0.0-6.0-162.0","3","[""img/0766/ae0fce93-fe8d-4aa1-87ca-4c3e4b889f2f.jpg"",""img/0903/6138142e-c84e-45fc-9487-c974f3d4968a.jpg""]","",""
"","4337","similarity","169","1081195","0.0-6.0-163.0","3","[""img/0860/29a21a9f-54bb-4093-ad3f-04823ceaa89f.jpg"",""img/0899/4408c14d-c168-4a7d-96f6-bc87bfb58f83.jpg""]","",""
"","6491","similarity","170","1088691","0.0-6.0-164.0","2","[""img/0766/a1ed3f0f-e338-4a26-8fe4-4370f0c9fa6e.jpg"",""img/0862/fb26cb07-d5a9-4653-813c-f41609f26cd5.jpg""]","",""
"","3585","similarity","171","1093283","0.0-6.0-165.0","5","[""img/0898/40f99fb2-64d2-4e72-8a7f-a1cf60741e69.jpg"",""img/0894/05161000-f476-499b-a878-c13c7f347fd9.jpg""]","",""
"","3674","similarity","172","1097962","0.0-6.0-166.0","1","[""img/0867/f26f6b60-f772-4f4c-95a4-addc62cfd692.jpg"",""img/0766/f011ef45-fb48-44b8-8224-867ed2ccf786.jpg""]","",""
"","5520","similarity","173","1104490","0.0-6.0-167.0","4","[""img/0904/09dac84f-3d1c-4445-a68e-d0389fdbf1e9.jpg"",""img/0862/ba89835a-408c-480b-8594-ed4ffa97eb5c.jpg""]","",""
"","6112","similarity","174","1111611","0.0-6.0-168.0","2","[""img/0866/d493a2c8-66eb-44b4-be02-2f327b700b7c.jpg"",""img/0874/767f289c-9814-4496-803f-745cc8913d1f.jpg""]","",""
"","4386","similarity","175","1117003","0.0-6.0-169.0","2","[""img/0903/f10e9eb5-0c21-4a6a-944c-5f10a6d0fa4d.jpg"",""img/0868/179a5502-ab5c-478e-8263-5a1fbcc101d2.jpg""]","",""
"","5130","similarity","176","1123138","0.0-6.0-170.0","5","[""img/0769/8598a429-c671-4d2f-842c-32f681f5e412.jpg"",""img/0904/a8c3c7d2-9bcf-4347-9e03-8203adfc1fc5.jpg""]","",""
"","3763","similarity","177","1127907","0.0-6.0-171.0","1","[""img/0875/2c361b79-c3d1-4eda-812e-bf03192407bf.jpg"",""img/0764/978aede9-4590-4ad0-b234-135c83e5d669.jpg""]","",""
"","3682","similarity","178","1132595","0.0-6.0-172.0","5","[""img/0860/c5ccd1a4-4bb7-48e1-9b25-72cfaf06909b.jpg"",""img/0903/6a87dbad-9b8d-4ff5-9c41-03c9aa24f0c3.jpg""]","",""
"","3952","similarity","179","1137555","0.0-6.0-173.0","1","[""img/0864/300bb811-8b3c-4c42-8653-6097c3725197.jpg"",""img/0867/f8159067-056c-41f1-a136-c529fe5e970a.jpg""]","",""
"","5147","similarity","180","1143707","0.0-6.0-174.0","2","[""img/0868/293079b8-7e0c-4afd-a390-1e5d35fe3ded.jpg"",""img/0864/e336a4c5-6648-4fd7-b2f6-93a3fb83f8c6.jpg""]","",""
"","5601","similarity","181","1150315","0.0-6.0-175.0","2","[""img/0898/b2732712-71c2-45d8-834f-2b2ed5504910.jpg"",""img/0769/1d8734c4-77ab-4165-9e71-5cfe672ff01c.jpg""]","",""
"","4827","similarity","182","1156147","0.0-6.0-176.0","7","[""img/0766/db750ba0-ce04-46e1-b601-e1b80212bad2.jpg"",""img/0764/6ef77040-1fae-4afa-bfe7-eda98e6d0376.jpg""]","",""
"","4802","similarity","183","1161955","0.0-6.0-177.0","1","[""img/0764/ca9829fe-aaf8-45b8-b98a-6bae751c63dd.jpg"",""img/0866/9b38d691-1802-4959-ab3f-fc902f0e4ea6.jpg""]","",""
"","5545","similarity","184","1168506","0.0-6.0-178.0","3","[""img/0902/51493fab-2a10-4385-aa88-bee3db441626.jpg"",""img/0875/fb732ab5-013a-4366-9f65-27811ed157e9.jpg""]","",""
"","5684","similarity","185","1175195","0.0-6.0-179.0","4","[""img/0881/f4e3e181-b3c9-4af2-a5a4-fc135ab70d2e.jpg"",""img/0904/b5855d6a-7ef9-46ca-9215-6e9fa046e543.jpg""]","",""
"","5433","similarity","186","1181634","0.0-6.0-180.0","5","[""img/0874/bf14b896-e930-4fd9-9c05-2e83317a2773.jpg"",""img/0860/4f695df5-afac-4da7-9875-fee39b0b24ad.jpg""]","",""
"","5409","similarity","187","1188049","0.0-6.0-181.0","6","[""img/0769/8056889f-2b14-4782-bb25-b4e8896ab65b.jpg"",""img/0874/85eb9b8a-c4c6-4e5a-b8e7-363a87a82054.jpg""]","",""
"","5930","similarity","188","1194986","0.0-6.0-182.0","2","[""img/0904/06dacdc5-2206-4fb8-92b7-88042d22833c.jpg"",""img/0766/0b48f9e0-7d37-4161-8adb-4e3f5b6b7583.jpg""]","",""
"","4017","similarity","189","1200010","0.0-6.0-183.0","5","[""img/0902/417d8b4a-3c72-4adc-ac78-820e833316f2.jpg"",""img/0764/974d52cc-6318-4e7a-b294-2f3e92ff800f.jpg""]","",""
"","4170","similarity","190","1205185","0.0-6.0-184.0","2","[""img/0769/bb8c4e53-6f32-4814-97ee-392d4decfb2e.jpg"",""img/0875/dbdd643e-6d0e-4a5c-ab57-b9c29b9c981a.jpg""]","",""
"","3491","similarity","191","1209682","0.0-6.0-185.0","2","[""img/0867/5e07b34d-b40f-4b1c-ac10-49975bace45f.jpg"",""img/0903/12bd8657-92e6-4c36-a06c-597e7a1d51f3.jpg""]","",""
"","5490","similarity","192","1216177","0.0-6.0-186.0","5","[""img/0862/847e5208-38ec-4f36-949c-296cdd7424ee.jpg"",""img/0769/4680bcc3-8fbc-4643-8f9a-12aa0e780b64.jpg""]","",""
"","5010","similarity","193","1222194","0.0-6.0-187.0","1","[""img/0766/d14acac4-7db1-4b07-8f8f-302437326fc0.jpg"",""img/0866/93a27239-8317-4e08-98ca-d8b1ff298e07.jpg""]","",""
"","4882","similarity","194","1228082","0.0-6.0-188.0","3","[""img/0769/662ab839-88d1-4ebf-af05-9b2980cad943.jpg"",""img/0860/94ef7afc-e0e6-4a15-98c6-0bfac82bc832.jpg""]","",""
"","4098","similarity","195","1241104","0.0-6.0-189.0","2","[""img/0881/19e82c47-8e4b-45d2-a6c8-74181eb4155e.jpg"",""img/0868/4e626425-63c8-484a-8a1d-e66ee4e0bef8.jpg""]","",""
"[{""page_index"":0,""viewing_time"":5127}]","5129","instructions","196","1247234","0.0-7.0","","","",""
"","114986","image-multi-choice","197","1363257","0.0-8.0-0.0","","","{""Q0"":""Orange-crowned Warbler""}","Nashville Warbler"
"","4999","image-multi-choice","198","1369277","0.0-8.0-1.0","","","{""Q0"":""Black-and-white Warbler""}","Black-and-white Warbler"
"","38883","image-multi-choice","199","1409180","0.0-8.0-2.0","","","{""Q0"":""Blackburnian Warbler""}","Townsend's Warbler"
"","6427","image-multi-choice","200","1416628","0.0-8.0-3.0","","","{""Q0"":""Lark Sparrow""}","Lark Sparrow"
"","4536","image-multi-choice","201","1422188","0.0-8.0-4.0","","","{""Q0"":""Yellow Warbler""}","Yellow Warbler"
"","16899","image-multi-choice","202","1440108","0.0-8.0-5.0","","","{""Q0"":""Nashville Warbler""}","Orange-crowned Warbler"
"","9739","image-multi-choice","203","1450869","0.0-8.0-6.0","","","{""Q0"":""White-throated Sparrow""}","White-throated Sparrow"
"","16539","image-multi-choice","204","1468427","0.0-8.0-7.0","","","{""Q0"":""Swamp Sparrow""}","Fox Sparrow"
"","13364","image-multi-choice","205","1482812","0.0-8.0-8.0","","","{""Q0"":""Song Sparrow""}","Song Sparrow"
"","51481","image-multi-choice","206","1535316","0.0-8.0-9.0","","","{""Q0"":""Townsend's Warbler""}","Blackburnian Warbler"
"","23067","image-multi-choice","207","1559404","0.0-8.0-10.0","","","{""Q0"":""Lincoln's Sparrow""}","Vesper Sparrow"
"","4326","image-multi-choice","208","1564756","0.0-8.0-11.0","","","{""Q0"":""White-crowned Sparrow""}","White-crowned Sparrow"
"","16659","image-multi-choice","209","1582436","0.0-8.0-12.0","","","{""Q0"":""Chipping Sparrow""}","American Tree Sparrow"
"","10859","image-multi-choice","210","1594316","0.0-8.0-13.0","","","{""Q0"":""Tennessee Warbler""}","Tennessee Warbler"
"","76001","image-multi-choice","211","1671340","0.0-8.0-14.0","","","{""Q0"":""Magnolia Warbler""}","Magnolia Warbler"
"","12092","image-multi-choice","212","1684452","0.0-8.0-15.0","","","{""Q0"":""Northern Waterthrush""}","Northern Waterthrush"
"","27988","image-multi-choice","213","1713460","0.0-8.0-16.0","","","{""Q0"":""Chipping Sparrow""}","Chipping Sparrow"
"","5284","image-multi-choice","214","1719764","0.0-8.0-17.0","","","{""Q0"":""Lincoln's Sparrow""}","Swamp Sparrow"
"","5517","image-multi-choice","215","1726300","0.0-8.0-18.0","","","{""Q0"":""Lincoln's Sparrow""}","Lincoln's Sparrow"
"","14947","image-multi-choice","216","1742268","0.0-8.0-19.0","","","{""Q0"":""Ovenbird""}","Ovenbird"
