[{"view_history":"[{\"page_index\":0,\"viewing_time\":24553}]","rt":24554,"trial_type":"instructions","trial_index":0,"time_elapsed":24556,"internal_node_id":"0.0-0.0"},{"sim_score":6,"rt":12626,"stimulus":"[\"img/bluejay1.jpg\",\"img/bluejay2.jpg\"]","trial_type":"similarity_demo","trial_index":1,"time_elapsed":38235,"internal_node_id":"0.0-1.0"},{"view_history":"[{\"page_index\":0,\"viewing_time\":8412}]","rt":8412,"trial_type":"instructions","trial_index":2,"time_elapsed":47649,"internal_node_id":"0.0-2.0"},{"sim_score":3,"rt":6306,"stimulus":"[\"img/bluejay1.jpg\",\"img/cardinal1.jpg\"]","trial_type":"similarity_demo","trial_index":3,"time_elapsed":54994,"internal_node_id":"0.0-3.0"},{"view_history":"[{\"page_index\":0,\"viewing_time\":7452}]","rt":7452,"trial_type":"instructions","trial_index":4,"time_elapsed":63465,"internal_node_id":"0.0-4.0"},{"view_history":"[{\"page_index\":0,\"viewing_time\":29277}]","rt":29277,"trial_type":"instructions","trial_index":5,"time_elapsed":93745,"internal_node_id":"0.0-5.0"},{"sim_score":3,"rt":6612,"stimulus":"[\"img/0868/77091fc7-a590-4ebb-b915-fdb2483a2399.jpg\",\"img/0894/6b2e9509-8699-42b7-9582-7741df0ba2d7.jpg\"]","trial_type":"similarity","trial_index":6,"time_elapsed":101370,"internal_node_id":"0.0-6.0-0.0"},{"sim_score":2,"rt":5411,"stimulus":"[\"img/0898/b3290bf9-215b-4b45-b21a-65bdf73f142f.jpg\",\"img/0758/821c68d3-5cb0-4eae-8659-30e6263fca39.jpg\"]","trial_type":"similarity","trial_index":7,"time_elapsed":107794,"internal_node_id":"0.0-6.0-1.0"},{"sim_score":4,"rt":5114,"stimulus":"[\"img/0903/647ce311-8c71-479a-8361-961db1457139.jpg\",\"img/0894/b2d2f66e-e480-46da-a02a-6d0c6b285d78.jpg\"]","trial_type":"similarity","trial_index":8,"time_elapsed":113922,"internal_node_id":"0.0-6.0-2.0"},{"sim_score":2,"rt":4736,"stimulus":"[\"img/0881/292e9b4b-fca0-4ba8-87f1-4048f9e37b7d.jpg\",\"img/0766/a0270213-fa0e-4972-8b56-228c3e01ff90.jpg\"]","trial_type":"similarity","trial_index":9,"time_elapsed":119730,"internal_node_id":"0.0-6.0-3.0"},{"sim_score":3,"rt":5817,"stimulus":"[\"img/0864/c22faebd-9c53-47bc-ada3-b9a30c688e75.jpg\",\"img/0860/c5ccd1a4-4bb7-48e1-9b25-72cfaf06909b.jpg\"]","trial_type":"similarity","trial_index":10,"time_elapsed":126562,"internal_node_id":"0.0-6.0-4.0"},{"sim_score":4,"rt":6010,"stimulus":"[\"img/0902/bd89a85f-3853-4786-acd6-98818ee29f1c.jpg\",\"img/0899/25ae6ec8-9565-49fe-a8bb-8d0666f52716.jpg\"]","trial_type":"similarity","trial_index":11,"time_elapsed":133586,"internal_node_id":"0.0-6.0-5.0"},{"sim_score":1,"rt":4627,"stimulus":"[\"img/0868/3a62db2d-97e9-44a3-b8e3-a48c6f0e423b.jpg\",\"img/0769/878531fd-e0e8-4ad1-b9ad-f018bb104ca0.jpg\"]","trial_type":"similarity","trial_index":12,"time_elapsed":139234,"internal_node_id":"0.0-6.0-6.0"},{"sim_score":3,"rt":7152,"stimulus":"[\"img/0764/4952d0a0-c9be-471a-8ec7-94a37bf4051d.jpg\",\"img/0901/a9b9c0a0-8aed-4888-a78a-65fb7e764d13.jpg\"]","trial_type":"similarity","trial_index":13,"time_elapsed":147394,"internal_node_id":"0.0-6.0-7.0"},{"sim_score":4,"rt":5917,"stimulus":"[\"img/0881/c843e210-bdfe-4a7c-8bbe-fcea1f90fe1c.jpg\",\"img/0866/07c9c966-3c8d-40e7-8128-92b2acbaed5d.jpg\"]","trial_type":"similarity","trial_index":14,"time_elapsed":154338,"internal_node_id":"0.0-6.0-8.0"},{"sim_score":1,"rt":3410,"stimulus":"[\"img/0867/a498eef3-9fa4-4ab2-9778-4ae82ac40dc5.jpg\",\"img/0899/06b0fc99-0581-461a-9913-d1a5a941ac61.jpg\"]","trial_type":"similarity","trial_index":15,"time_elapsed":158754,"internal_node_id":"0.0-6.0-9.0"},{"sim_score":1,"rt":3884,"stimulus":"[\"img/0875/42910c99-5463-450a-a0f8-d4d060a11455.jpg\",\"img/0766/3c526a07-9e0a-4ae2-8142-00085f0127da.jpg\"]","trial_type":"similarity","trial_index":16,"time_elapsed":163649,"internal_node_id":"0.0-6.0-10.0"},{"sim_score":1,"rt":3193,"stimulus":"[\"img/0901/4f9cffe0-c0be-4d7f-bacd-9d51efd19b4a.jpg\",\"img/0875/8521fd58-3b1e-4dc5-97ae-804edfa6734a.jpg\"]","trial_type":"similarity","trial_index":17,"time_elapsed":167865,"internal_node_id":"0.0-6.0-11.0"},{"sim_score":2,"rt":3807,"stimulus":"[\"img/0902/5b45a7a0-81c8-4a71-aaa2-2ce09adb5a29.jpg\",\"img/0860/31ff6436-98bf-4652-bed2-40f627229568.jpg\"]","trial_type":"similarity","trial_index":18,"time_elapsed":172697,"internal_node_id":"0.0-6.0-12.0"},{"sim_score":1,"rt":2836,"stimulus":"[\"img/0874/adf9a8f1-c40b-402b-b95b-1e85a54a7b62.jpg\",\"img/0867/075e0f95-856b-4cbb-acf5-092393aaf04e.jpg\"]","trial_type":"similarity","trial_index":19,"time_elapsed":176665,"internal_node_id":"0.0-6.0-13.0"},{"sim_score":1,"rt":3679,"stimulus":"[\"img/0904/24fc38fe-842c-4831-ad8a-b1de5c25c0a8.jpg\",\"img/0866/620cd1aa-0800-4414-8f6e-90342e7a99ad.jpg\"]","trial_type":"similarity","trial_index":20,"time_elapsed":181354,"internal_node_id":"0.0-6.0-14.0"},{"sim_score":2,"rt":4000,"stimulus":"[\"img/0758/ddc336e9-a8b6-4bb9-937a-c7e25e0e9250.jpg\",\"img/0902/7499db23-3a41-41ea-ab5b-6ab4d4c3ed35.jpg\"]","trial_type":"similarity","trial_index":21,"time_elapsed":186377,"internal_node_id":"0.0-6.0-15.0"},{"sim_score":1,"rt":3848,"stimulus":"[\"img/0867/f8488a47-94ee-4166-952c-44e16cf172f6.jpg\",\"img/0898/224c1572-56b9-4f16-a9e4-6f3bc9c114bd.jpg\"]","trial_type":"similarity","trial_index":22,"time_elapsed":191241,"internal_node_id":"0.0-6.0-16.0"},{"sim_score":2,"rt":5187,"stimulus":"[\"img/0904/73920552-103b-4c9c-9ece-e0b8376b4504.jpg\",\"img/0868/4e626425-63c8-484a-8a1d-e66ee4e0bef8.jpg\"]","trial_type":"similarity","trial_index":23,"time_elapsed":197441,"internal_node_id":"0.0-6.0-17.0"},{"sim_score":2,"rt":4311,"stimulus":"[\"img/0766/c23b5a20-e50f-4d85-841f-cf89212a4348.jpg\",\"img/0864/e02eddb5-f468-499c-91bf-f7be3ffe979b.jpg\"]","trial_type":"similarity","trial_index":24,"time_elapsed":202769,"internal_node_id":"0.0-6.0-18.0"},{"sim_score":5,"rt":4431,"stimulus":"[\"img/0899/7f9d45d0-b2c6-40d3-aa41-c207db2c411b.jpg\",\"img/0766/214866ee-423d-4629-9bb9-41572bdc7dac.jpg\"]","trial_type":"similarity","trial_index":25,"time_elapsed":208217,"internal_node_id":"0.0-6.0-19.0"},{"sim_score":1,"rt":3610,"stimulus":"[\"img/0764/0e7ed062-f798-4366-8a24-6f430926f919.jpg\",\"img/0758/61d64021-9214-4951-bdf8-f871f9827cf9.jpg\"]","trial_type":"similarity","trial_index":26,"time_elapsed":212849,"internal_node_id":"0.0-6.0-20.0"},{"sim_score":1,"rt":6777,"stimulus":"[\"img/0901/00acf6c1-b66e-4060-bb04-4caf29b5a8b0.jpg\",\"img/0874/93d1f8dc-acf2-4f03-bd8d-8ec35df276ed.jpg\"]","trial_type":"similarity","trial_index":27,"time_elapsed":220657,"internal_node_id":"0.0-6.0-21.0"},{"sim_score":3,"rt":4651,"stimulus":"[\"img/0875/f87b67d7-c33e-40d1-b281-248c4be1cb6e.jpg\",\"img/0758/d41c06bf-ebaf-454b-91c6-1a17f917b659.jpg\"]","trial_type":"similarity","trial_index":28,"time_elapsed":226329,"internal_node_id":"0.0-6.0-22.0"},{"sim_score":4,"rt":3378,"stimulus":"[\"img/0867/f8159067-056c-41f1-a136-c529fe5e970a.jpg\",\"img/0881/f4e3e181-b3c9-4af2-a5a4-fc135ab70d2e.jpg\"]","trial_type":"similarity","trial_index":29,"time_elapsed":230729,"internal_node_id":"0.0-6.0-23.0"},{"sim_score":1,"rt":3155,"stimulus":"[\"img/0758/e1ba5e53-addc-436a-b428-d34fc1b130dc.jpg\",\"img/0901/04a53755-6da5-44d4-a7a6-48a6bc0a2280.jpg\"]","trial_type":"similarity","trial_index":30,"time_elapsed":234897,"internal_node_id":"0.0-6.0-24.0"},{"sim_score":3,"rt":4502,"stimulus":"[\"img/0868/8b0b8473-e2c0-4331-aa56-c3a5c29369da.jpg\",\"img/0875/dbdd643e-6d0e-4a5c-ab57-b9c29b9c981a.jpg\"]","trial_type":"similarity","trial_index":31,"time_elapsed":240401,"internal_node_id":"0.0-6.0-25.0"},{"sim_score":6,"rt":4146,"stimulus":"[\"img/0903/6f343da5-00d9-4d50-89d1-2ed24cdb8319.jpg\",\"img/0901/c6c877e0-dd63-4e00-9657-33af29d55aab.jpg\"]","trial_type":"similarity","trial_index":32,"time_elapsed":245553,"internal_node_id":"0.0-6.0-26.0"},{"sim_score":5,"rt":5636,"stimulus":"[\"img/0894/7fb082e0-ce79-485c-9109-04367fb32275.jpg\",\"img/0899/0adc0bc3-6fca-4078-be6f-d45ddf1653d5.jpg\"]","trial_type":"similarity","trial_index":33,"time_elapsed":252209,"internal_node_id":"0.0-6.0-27.0"},{"sim_score":1,"rt":4666,"stimulus":"[\"img/0862/7918ca67-5bd3-4606-a5ea-c39fb11a9297.jpg\",\"img/0867/db7e032f-162b-46f5-ae67-2b29679adee4.jpg\"]","trial_type":"similarity","trial_index":34,"time_elapsed":257913,"internal_node_id":"0.0-6.0-28.0"},{"sim_score":3,"rt":3860,"stimulus":"[\"img/0864/efcfbb1b-8197-44c9-b723-40d6c608dd3c.jpg\",\"img/0875/d59ff733-eaff-4ee2-9443-06954dd0bcb6.jpg\"]","trial_type":"similarity","trial_index":35,"time_elapsed":262793,"internal_node_id":"0.0-6.0-29.0"},{"sim_score":4,"rt":6887,"stimulus":"[\"img/0862/f188d4f0-76a4-4102-818c-a209969d73a5.jpg\",\"img/0874/7e4f2150-3b59-4a36-b5da-a4e0ba410531.jpg\"]","trial_type":"similarity","trial_index":36,"time_elapsed":270698,"internal_node_id":"0.0-6.0-30.0"},{"sim_score":1,"rt":3333,"stimulus":"[\"img/0903/150cf64c-0bd2-4674-abbb-a1387cf1f3e9.jpg\",\"img/0758/20497cbe-ddae-489e-86e2-ab06985ed07c.jpg\"]","trial_type":"similarity","trial_index":37,"time_elapsed":275049,"internal_node_id":"0.0-6.0-31.0"},{"sim_score":1,"rt":3493,"stimulus":"[\"img/0866/0207e9a2-7dbb-40b5-9459-b472aaeceb2a.jpg\",\"img/0901/7c16dd9c-44ad-4d5b-990c-6a0b9b48b1b1.jpg\"]","trial_type":"similarity","trial_index":38,"time_elapsed":279569,"internal_node_id":"0.0-6.0-32.0"},{"sim_score":1,"rt":4516,"stimulus":"[\"img/0874/ca23d307-fc00-4d7d-9106-584c6eb21b4d.jpg\",\"img/0899/0433d056-aa30-4f8a-9aa1-abbb951e4edd.jpg\"]","trial_type":"similarity","trial_index":39,"time_elapsed":285089,"internal_node_id":"0.0-6.0-33.0"},{"sim_score":5,"rt":5269,"stimulus":"[\"img/0903/f67c4ab9-f8c2-4fcd-848a-a54a7b031002.jpg\",\"img/0902/3b243e54-0803-4c29-af42-4037c2118495.jpg\"]","trial_type":"similarity","trial_index":40,"time_elapsed":291377,"internal_node_id":"0.0-6.0-34.0"},{"sim_score":4,"rt":4499,"stimulus":"[\"img/0758/b76ceca7-95ac-46e4-ac13-da02c8e93be9.jpg\",\"img/0866/bf14b5bd-fb55-47db-86b9-4f8aeb9a6dad.jpg\"]","trial_type":"similarity","trial_index":41,"time_elapsed":296889,"internal_node_id":"0.0-6.0-35.0"},{"sim_score":1,"rt":2847,"stimulus":"[\"img/0875/e7e66b13-b573-431e-b85e-288ce04a35a3.jpg\",\"img/0903/72197c2b-403e-4a26-b391-f1aa8dea4b76.jpg\"]","trial_type":"similarity","trial_index":42,"time_elapsed":300753,"internal_node_id":"0.0-6.0-36.0"},{"sim_score":1,"rt":3155,"stimulus":"[\"img/0864/4bd81bc6-c13d-46df-95a9-485886dc7c1b.jpg\",\"img/0902/40d0b6ec-3907-4573-b227-e7d8e9cad1c3.jpg\"]","trial_type":"similarity","trial_index":43,"time_elapsed":314208,"internal_node_id":"0.0-6.0-37.0"},{"sim_score":1,"rt":3604,"stimulus":"[\"img/0901/1b86f2fc-7a1d-4aa8-9252-114f92edef3b.jpg\",\"img/0867/f26f6b60-f772-4f4c-95a4-addc62cfd692.jpg\"]","trial_type":"similarity","trial_index":44,"time_elapsed":318825,"internal_node_id":"0.0-6.0-38.0"},{"sim_score":6,"rt":5811,"stimulus":"[\"img/0862/57b6f83f-c763-4858-830d-102f97bfefbf.jpg\",\"img/0860/4a022222-056d-461c-ab02-39fac9647552.jpg\"]","trial_type":"similarity","trial_index":45,"time_elapsed":325657,"internal_node_id":"0.0-6.0-39.0"},{"sim_score":6,"rt":5781,"stimulus":"[\"img/0867/bf560d4f-dee3-4f11-a385-705cc1aa5f3c.jpg\",\"img/0868/15dd6fd7-791e-4b53-b203-195d617521a4.jpg\"]","trial_type":"similarity","trial_index":46,"time_elapsed":332457,"internal_node_id":"0.0-6.0-40.0"},{"sim_score":3,"rt":5240,"stimulus":"[\"img/0904/ba8e689e-9ca6-4608-a2a1-3b0940666ae6.jpg\",\"img/0899/8de08897-b430-42fe-9d42-840670b80f94.jpg\"]","trial_type":"similarity","trial_index":47,"time_elapsed":338713,"internal_node_id":"0.0-6.0-41.0"},{"sim_score":1,"rt":3301,"stimulus":"[\"img/0862/1c20f772-3a51-4a80-aac0-f57dc9f86c28.jpg\",\"img/0894/e6385e52-6c35-43bd-b0af-bc803d107b11.jpg\"]","trial_type":"similarity","trial_index":48,"time_elapsed":343025,"internal_node_id":"0.0-6.0-42.0"},{"sim_score":1,"rt":3726,"stimulus":"[\"img/0875/ebf7653f-ff45-4e9f-af58-2c042ab3cd2b.jpg\",\"img/0904/06dacdc5-2206-4fb8-92b7-88042d22833c.jpg\"]","trial_type":"similarity","trial_index":49,"time_elapsed":347777,"internal_node_id":"0.0-6.0-43.0"},{"sim_score":1,"rt":2943,"stimulus":"[\"img/0874/99f6563c-8a8d-4c1c-a41d-667b618c3fd5.jpg\",\"img/0898/81b08535-2020-4c15-9ce4-2f1e460755ae.jpg\"]","trial_type":"similarity","trial_index":50,"time_elapsed":351729,"internal_node_id":"0.0-6.0-44.0"},{"sim_score":2,"rt":5301,"stimulus":"[\"img/0898/0af304a2-6a7a-4082-ab7c-4450cd08cc58.jpg\",\"img/0868/83b4350a-3b70-4cea-b7f5-b5b56f3050a8.jpg\"]","trial_type":"similarity","trial_index":51,"time_elapsed":358041,"internal_node_id":"0.0-6.0-45.0"},{"sim_score":2,"rt":5173,"stimulus":"[\"img/0901/ae1e6ce4-2e10-4ca9-b1e7-21628637ab74.jpg\",\"img/0860/17b44a7d-c5ca-479f-9e87-f65a64f5c80e.jpg\"]","trial_type":"similarity","trial_index":52,"time_elapsed":364241,"internal_node_id":"0.0-6.0-46.0"},{"sim_score":5,"rt":4449,"stimulus":"[\"img/0894/661b9f9f-4bde-487a-b1ed-87085fde6948.jpg\",\"img/0902/6730b12a-f0a7-4587-8c10-a32fae16565b.jpg\"]","trial_type":"similarity","trial_index":53,"time_elapsed":369721,"internal_node_id":"0.0-6.0-47.0"},{"sim_score":3,"rt":6563,"stimulus":"[\"img/0764/e0788029-9d7f-414c-b747-46d2a99f7c86.jpg\",\"img/0862/064818ee-13d5-4618-bb24-21c7368ea278.jpg\"]","trial_type":"similarity","trial_index":54,"time_elapsed":377289,"internal_node_id":"0.0-6.0-48.0"},{"sim_score":7,"rt":5505,"stimulus":"[\"img/0881/adc02f34-ce97-4aef-850f-00519df06fd7.jpg\",\"img/0758/e38fd80d-18d0-42f3-b848-f930788e8bd7.jpg\"]","trial_type":"similarity","trial_index":55,"time_elapsed":383809,"internal_node_id":"0.0-6.0-49.0"},{"sim_score":6,"rt":4785,"stimulus":"[\"img/0766/d3bab2fc-ddcc-40a0-bb72-c0d0ebe19978.jpg\",\"img/0769/180213e5-1e50-4b4e-87b6-add77ba04d39.jpg\"]","trial_type":"similarity","trial_index":56,"time_elapsed":389609,"internal_node_id":"0.0-6.0-50.0"},{"sim_score":3,"rt":3724,"stimulus":"[\"img/0875/90da8d75-108a-44ad-b999-e21fee3860d3.jpg\",\"img/0866/386235d2-6857-41e7-88a8-25cfc3430025.jpg\"]","trial_type":"similarity","trial_index":57,"time_elapsed":394344,"internal_node_id":"0.0-6.0-51.0"},{"sim_score":5,"rt":5535,"stimulus":"[\"img/0894/151063aa-6472-4745-837b-36603aba5966.jpg\",\"img/0904/4b8daf2a-13a9-4ea9-9e0b-b265b6e933e7.jpg\"]","trial_type":"similarity","trial_index":58,"time_elapsed":400888,"internal_node_id":"0.0-6.0-52.0"},{"sim_score":1,"rt":3339,"stimulus":"[\"img/0758/6e95579b-5166-487c-b8cb-e417c6a218e3.jpg\",\"img/0769/7c50e5f5-cc38-4d48-b009-fbe17bcea61c.jpg\"]","trial_type":"similarity","trial_index":59,"time_elapsed":405240,"internal_node_id":"0.0-6.0-53.0"},{"sim_score":1,"rt":3355,"stimulus":"[\"img/0902/168ebd47-9e82-4ab7-a18b-c3da85072db8.jpg\",\"img/0874/2c9464dd-8a23-4baa-ac94-1ba3af5c15cc.jpg\"]","trial_type":"similarity","trial_index":60,"time_elapsed":409600,"internal_node_id":"0.0-6.0-54.0"},{"sim_score":1,"rt":3987,"stimulus":"[\"img/0903/2c7b4aed-6038-4aac-958a-e3e58341c313.jpg\",\"img/0862/cdaed51d-9e2f-4807-801a-4663c40077e2.jpg\"]","trial_type":"similarity","trial_index":61,"time_elapsed":414592,"internal_node_id":"0.0-6.0-55.0"},{"sim_score":3,"rt":4303,"stimulus":"[\"img/0866/11a1d141-be5e-443c-98c1-a9d4d9e3dec0.jpg\",\"img/0894/bd34223a-2f66-4e16-9d18-193a746b69ff.jpg\"]","trial_type":"similarity","trial_index":62,"time_elapsed":419924,"internal_node_id":"0.0-6.0-56.0"},{"sim_score":1,"rt":3803,"stimulus":"[\"img/0867/de92135f-5b65-4ed9-b245-188292c7c2f8.jpg\",\"img/0904/5cceabc9-de1d-4c67-989b-c28a4ef77e79.jpg\"]","trial_type":"similarity","trial_index":63,"time_elapsed":424752,"internal_node_id":"0.0-6.0-57.0"},{"sim_score":4,"rt":4670,"stimulus":"[\"img/0875/cff79b3a-a797-4393-9757-6275f999ec04.jpg\",\"img/0881/2a8413be-fec2-4de6-88ad-614dd4cccc9d.jpg\"]","trial_type":"similarity","trial_index":64,"time_elapsed":430432,"internal_node_id":"0.0-6.0-58.0"},{"sim_score":5,"rt":5941,"stimulus":"[\"img/0866/a04d37f0-99dd-478a-b6c6-58b215138f84.jpg\",\"img/0860/87039971-2210-4aab-93c0-8e9b5f1655b2.jpg\"]","trial_type":"similarity","trial_index":65,"time_elapsed":437392,"internal_node_id":"0.0-6.0-59.0"},{"sim_score":1,"rt":3497,"stimulus":"[\"img/0903/6378ee1e-3d2b-48d2-87be-bebda32c8268.jpg\",\"img/0866/945c6710-d15b-4a5b-a8f6-69af0850357f.jpg\"]","trial_type":"similarity","trial_index":66,"time_elapsed":441904,"internal_node_id":"0.0-6.0-60.0"},{"sim_score":3,"rt":4656,"stimulus":"[\"img/0860/524b2e98-5767-4d53-942c-ebae6925659b.jpg\",\"img/0875/2e13d160-eea1-416b-aff1-d37ab99ecc1d.jpg\"]","trial_type":"similarity","trial_index":67,"time_elapsed":447576,"internal_node_id":"0.0-6.0-61.0"},{"sim_score":1,"rt":3864,"stimulus":"[\"img/0898/8605a25b-6895-476d-8c13-df7a83f96093.jpg\",\"img/0862/ad593cc7-cabe-4bb7-8e14-8a447a0717b4.jpg\"]","trial_type":"similarity","trial_index":68,"time_elapsed":452472,"internal_node_id":"0.0-6.0-62.0"},{"sim_score":5,"rt":4684,"stimulus":"[\"img/0902/d2c34af0-8c50-437d-8cc3-619195a3e8ba.jpg\",\"img/0766/fd74fdbb-ea40-4f3a-a091-38d08dfd636e.jpg\"]","trial_type":"similarity","trial_index":69,"time_elapsed":458168,"internal_node_id":"0.0-6.0-63.0"},{"sim_score":6,"rt":6156,"stimulus":"[\"img/0758/d540bee6-b460-4c32-ac57-bc282742d7d4.jpg\",\"img/0864/da39ad34-04e0-40d4-a724-c08d53e0ea09.jpg\"]","trial_type":"similarity","trial_index":70,"time_elapsed":465344,"internal_node_id":"0.0-6.0-64.0"},{"sim_score":2,"rt":3808,"stimulus":"[\"img/0894/7dd6ff43-f8fc-408a-8a41-a2b261871820.jpg\",\"img/0860/702bd09d-df3a-40aa-a267-5f04474305b5.jpg\"]","trial_type":"similarity","trial_index":71,"time_elapsed":470168,"internal_node_id":"0.0-6.0-65.0"},{"sim_score":1,"rt":2979,"stimulus":"[\"img/0899/4408c14d-c168-4a7d-96f6-bc87bfb58f83.jpg\",\"img/0868/09a9ef4d-d000-4cfa-a6aa-ebec7c2edeb4.jpg\"]","trial_type":"similarity","trial_index":72,"time_elapsed":474152,"internal_node_id":"0.0-6.0-66.0"},{"sim_score":6,"rt":4850,"stimulus":"[\"img/0866/4a87911a-d5be-4d4e-ab8e-3d1f581bf507.jpg\",\"img/0862/fb26cb07-d5a9-4653-813c-f41609f26cd5.jpg\"]","trial_type":"similarity","trial_index":73,"time_elapsed":480024,"internal_node_id":"0.0-6.0-67.0"},{"sim_score":4,"rt":4902,"stimulus":"[\"img/0860/29a21a9f-54bb-4093-ad3f-04823ceaa89f.jpg\",\"img/0758/7ee8bc8f-c40b-4b3a-84ec-3e83580622d4.jpg\"]","trial_type":"similarity","trial_index":74,"time_elapsed":485952,"internal_node_id":"0.0-6.0-68.0"},{"sim_score":1,"rt":3315,"stimulus":"[\"img/0902/8065aa6b-4aef-4368-afa2-02c6465ca582.jpg\",\"img/0867/a749dddb-69f0-44a6-acdc-2bf295cf6dcc.jpg\"]","trial_type":"similarity","trial_index":75,"time_elapsed":490288,"internal_node_id":"0.0-6.0-69.0"},{"sim_score":1,"rt":3574,"stimulus":"[\"img/0862/e0f1a4e9-e1b6-45f7-af67-89f334e6630d.jpg\",\"img/0901/4d1bed7e-3c4e-4f6c-ada9-4beb66ba9e39.jpg\"]","trial_type":"similarity","trial_index":76,"time_elapsed":494880,"internal_node_id":"0.0-6.0-70.0"},{"sim_score":5,"rt":4185,"stimulus":"[\"img/0867/5e07b34d-b40f-4b1c-ac10-49975bace45f.jpg\",\"img/0866/c446214b-a368-4c65-ae39-ea46894256ab.jpg\"]","trial_type":"similarity","trial_index":77,"time_elapsed":500080,"internal_node_id":"0.0-6.0-71.0"},{"sim_score":1,"rt":3117,"stimulus":"[\"img/0860/b03b963d-949b-4d8d-b19c-4950c89eeca2.jpg\",\"img/0904/0d17b811-063e-416e-a23c-3b3cfa4fcce5.jpg\"]","trial_type":"similarity","trial_index":78,"time_elapsed":504217,"internal_node_id":"0.0-6.0-72.0"},{"sim_score":1,"rt":3338,"stimulus":"[\"img/0875/5a7c4e35-6514-4e12-8879-d16071da4cd6.jpg\",\"img/0899/8abe6c69-822c-436c-9bf2-96c818b49ba5.jpg\"]","trial_type":"similarity","trial_index":79,"time_elapsed":508560,"internal_node_id":"0.0-6.0-73.0"},{"sim_score":2,"rt":4952,"stimulus":"[\"img/0899/a05bea16-2bb4-4cb9-b8fb-4ff975db6971.jpg\",\"img/0758/335851a0-a55b-46d8-ab05-8463eda48349.jpg\"]","trial_type":"similarity","trial_index":80,"time_elapsed":514536,"internal_node_id":"0.0-6.0-74.0"},{"sim_score":4,"rt":3335,"stimulus":"[\"img/0862/00c06b00-3b73-44e9-bc1e-c5aafb438321.jpg\",\"img/0875/3ecb367d-e9eb-4826-8aaa-7aa72fb98019.jpg\"]","trial_type":"similarity","trial_index":81,"time_elapsed":524391,"internal_node_id":"0.0-6.0-75.0"},{"sim_score":4,"rt":4753,"stimulus":"[\"img/0901/d61f267a-c492-4db6-9bfb-61efd49cf072.jpg\",\"img/0894/11674fa4-285d-44e2-939f-2228c6a64080.jpg\"]","trial_type":"similarity","trial_index":82,"time_elapsed":530168,"internal_node_id":"0.0-6.0-76.0"},{"sim_score":1,"rt":3275,"stimulus":"[\"img/0766/2da002a4-05c9-4f5c-9ed7-433b4183e273.jpg\",\"img/0758/3ddd05d3-557e-4ee7-8b78-9d2d681d8ae2.jpg\"]","trial_type":"similarity","trial_index":83,"time_elapsed":534464,"internal_node_id":"0.0-6.0-77.0"},{"sim_score":6,"rt":5450,"stimulus":"[\"img/0894/38f5931f-926d-414e-b498-66b188978b7a.jpg\",\"img/0764/b887d7c6-aa81-4637-af8e-05135757ac59.jpg\"]","trial_type":"similarity","trial_index":84,"time_elapsed":540928,"internal_node_id":"0.0-6.0-78.0"},{"sim_score":3,"rt":4508,"stimulus":"[\"img/0860/5383b320-1518-4095-a58e-5cc1ae30b64c.jpg\",\"img/0867/179ab87a-8eac-4c52-a41f-2e48e3120f09.jpg\"]","trial_type":"similarity","trial_index":85,"time_elapsed":546456,"internal_node_id":"0.0-6.0-79.0"},{"sim_score":4,"rt":5736,"stimulus":"[\"img/0898/01bfe666-3510-4fc7-964f-d00d28732dc8.jpg\",\"img/0901/8bb79e82-9c43-4b6f-a655-40655519598b.jpg\"]","trial_type":"similarity","trial_index":86,"time_elapsed":553216,"internal_node_id":"0.0-6.0-80.0"},{"sim_score":1,"rt":3578,"stimulus":"[\"img/0874/31e22c7c-99aa-40b1-bf03-dd73fa2df4d6.jpg\",\"img/0764/39a9fc7e-b863-432c-9374-de43983f31a5.jpg\"]","trial_type":"similarity","trial_index":87,"time_elapsed":557808,"internal_node_id":"0.0-6.0-81.0"},{"sim_score":1,"rt":3903,"stimulus":"[\"img/0899/d8f2dd94-570e-4e8c-a087-d96090fb9e8c.jpg\",\"img/0862/99a99e39-8355-44ec-b993-e7bcec111e1c.jpg\"]","trial_type":"similarity","trial_index":88,"time_elapsed":562728,"internal_node_id":"0.0-6.0-82.0"},{"sim_score":5,"rt":7149,"stimulus":"[\"img/0766/a754e4b6-5019-4cf4-8f58-34c20547a1f5.jpg\",\"img/0901/71e551a2-9ce2-409c-9c7c-dd556a0791e9.jpg\"]","trial_type":"similarity","trial_index":89,"time_elapsed":570896,"internal_node_id":"0.0-6.0-83.0"},{"sim_score":1,"rt":2575,"stimulus":"[\"img/0881/4bd34581-94d8-4e88-8c89-5cef864ca3be.jpg\",\"img/0898/b2732712-71c2-45d8-834f-2b2ed5504910.jpg\"]","trial_type":"similarity","trial_index":90,"time_elapsed":574496,"internal_node_id":"0.0-6.0-84.0"},{"sim_score":5,"rt":3830,"stimulus":"[\"img/0868/e0aff734-077f-40dd-9781-74821abd3621.jpg\",\"img/0860/61fb959d-d4d9-4de4-9e4e-4fa62b4cfcd5.jpg\"]","trial_type":"similarity","trial_index":91,"time_elapsed":579344,"internal_node_id":"0.0-6.0-85.0"},{"sim_score":4,"rt":3338,"stimulus":"[\"img/0758/a085b443-b5d7-4cb2-9ad4-b9dab0fc23f1.jpg\",\"img/0868/6a28c3b0-3d76-498a-9fb7-ddafc665eca8.jpg\"]","trial_type":"similarity","trial_index":92,"time_elapsed":583712,"internal_node_id":"0.0-6.0-86.0"},{"sim_score":1,"rt":2762,"stimulus":"[\"img/0864/ea327690-500b-4137-bf91-451b309fe6a5.jpg\",\"img/0894/7f2f31fd-6618-41c6-b65a-0fd8b2851bc9.jpg\"]","trial_type":"similarity","trial_index":93,"time_elapsed":587496,"internal_node_id":"0.0-6.0-87.0"},{"sim_score":1,"rt":3333,"stimulus":"[\"img/0866/f756f7d1-9ad8-4a34-9ef6-7a443d705bfe.jpg\",\"img/0902/cdec1bc6-7f90-4f72-9e01-f5a4111bac1d.jpg\"]","trial_type":"similarity","trial_index":94,"time_elapsed":591848,"internal_node_id":"0.0-6.0-88.0"},{"sim_score":1,"rt":4181,"stimulus":"[\"img/0769/4680bcc3-8fbc-4643-8f9a-12aa0e780b64.jpg\",\"img/0867/cc72ed48-7704-422c-86d6-467a1145287a.jpg\"]","trial_type":"similarity","trial_index":95,"time_elapsed":597056,"internal_node_id":"0.0-6.0-89.0"},{"sim_score":5,"rt":3849,"stimulus":"[\"img/0874/bf14b896-e930-4fd9-9c05-2e83317a2773.jpg\",\"img/0875/03c3c331-738b-4446-af92-3d7386b08c2e.jpg\"]","trial_type":"similarity","trial_index":96,"time_elapsed":601912,"internal_node_id":"0.0-6.0-90.0"},{"sim_score":6,"rt":6357,"stimulus":"[\"img/0864/8ddd2e30-a1d0-479f-9cbe-591213023893.jpg\",\"img/0874/c0378dac-9370-439a-8b79-db27c96fb390.jpg\"]","trial_type":"similarity","trial_index":97,"time_elapsed":609280,"internal_node_id":"0.0-6.0-91.0"},{"sim_score":6,"rt":3812,"stimulus":"[\"img/0881/e6746727-7f89-47ec-b939-d98abe78372d.jpg\",\"img/0862/d0ca4c78-fc35-46ed-bdcc-8e124283c53e.jpg\"]","trial_type":"similarity","trial_index":98,"time_elapsed":614112,"internal_node_id":"0.0-6.0-92.0"},{"sim_score":5,"rt":4640,"stimulus":"[\"img/0864/5f74a653-3bdc-4308-8cca-ac667dc22e1f.jpg\",\"img/0881/7e822106-76f7-4b10-a805-14dc68b2cfaf.jpg\"]","trial_type":"similarity","trial_index":99,"time_elapsed":619768,"internal_node_id":"0.0-6.0-93.0"},{"sim_score":5,"rt":3983,"stimulus":"[\"img/0899/ad8268c5-8199-48d0-ad70-c5b6d6c599ec.jpg\",\"img/0901/f1116359-1ff1-4638-b3b3-700918d36d18.jpg\"]","trial_type":"similarity","trial_index":100,"time_elapsed":624768,"internal_node_id":"0.0-6.0-94.0"},{"sim_score":1,"rt":2422,"stimulus":"[\"img/0874/3ce41e7c-40c8-4d58-a546-171114521796.jpg\",\"img/0766/989c5c7f-1aff-4442-ac63-9d46acf4a891.jpg\"]","trial_type":"similarity","trial_index":101,"time_elapsed":628208,"internal_node_id":"0.0-6.0-95.0"},{"sim_score":1,"rt":2777,"stimulus":"[\"img/0881/d1982897-8d8d-4704-a940-1ee5d07a1f15.jpg\",\"img/0899/7b7380d5-d2be-44e5-a09a-c1756f87ef71.jpg\"]","trial_type":"similarity","trial_index":102,"time_elapsed":631999,"internal_node_id":"0.0-6.0-96.0"},{"sim_score":1,"rt":3667,"stimulus":"[\"img/0862/92fcd8a4-8193-4a6a-ae09-dd4a6338b0df.jpg\",\"img/0902/1f4a4c62-68c1-4993-b213-05652a173ed1.jpg\"]","trial_type":"similarity","trial_index":103,"time_elapsed":636687,"internal_node_id":"0.0-6.0-97.0"},{"sim_score":5,"rt":4089,"stimulus":"[\"img/0899/9de5e857-aa9a-4e0c-8ba2-46d79bd069a4.jpg\",\"img/0764/c0b03adb-bd0a-4b96-a915-a827c2fd5211.jpg\"]","trial_type":"similarity","trial_index":104,"time_elapsed":641800,"internal_node_id":"0.0-6.0-98.0"},{"sim_score":5,"rt":3765,"stimulus":"[\"img/0758/d57c2592-a317-4f63-91be-91a3a9afd222.jpg\",\"img/0862/a0a3a7ba-7798-46a3-b4ca-05e1f6e581d0.jpg\"]","trial_type":"similarity","trial_index":105,"time_elapsed":646584,"internal_node_id":"0.0-6.0-99.0"},{"sim_score":4,"rt":3079,"stimulus":"[\"img/0764/3297a811-ea8b-4d74-9547-59cecab7293a.jpg\",\"img/0898/881e2a85-d5c2-49be-a0c6-8a6ce2c4af08.jpg\"]","trial_type":"similarity","trial_index":106,"time_elapsed":650679,"internal_node_id":"0.0-6.0-100.0"},{"sim_score":5,"rt":4201,"stimulus":"[\"img/0901/d4d09bf5-093e-4050-838e-7c738be8e63c.jpg\",\"img/0902/6c2c243a-f663-45db-baf5-038d3d58c589.jpg\"]","trial_type":"similarity","trial_index":107,"time_elapsed":655896,"internal_node_id":"0.0-6.0-101.0"},{"sim_score":1,"rt":2781,"stimulus":"[\"img/0764/f990b2e8-ecee-481e-be7c-0239fce350e2.jpg\",\"img/0868/5fa7f9d0-f0e5-454c-8224-74d964818f56.jpg\"]","trial_type":"similarity","trial_index":108,"time_elapsed":659695,"internal_node_id":"0.0-6.0-102.0"},{"sim_score":1,"rt":3280,"stimulus":"[\"img/0769/04347740-f8f6-48bb-887a-f68babd0a0d4.jpg\",\"img/0881/566f45f8-5fed-4479-a60f-26377e60a62d.jpg\"]","trial_type":"similarity","trial_index":109,"time_elapsed":664007,"internal_node_id":"0.0-6.0-103.0"},{"sim_score":1,"rt":3831,"stimulus":"[\"img/0864/1d15626a-2f7c-410f-819c-0fa2c967e95e.jpg\",\"img/0769/6c0bac4c-5f59-43c7-898c-3ca93cf55cfe.jpg\"]","trial_type":"similarity","trial_index":110,"time_elapsed":668855,"internal_node_id":"0.0-6.0-104.0"},{"sim_score":4,"rt":3795,"stimulus":"[\"img/0866/d493a2c8-66eb-44b4-be02-2f327b700b7c.jpg\",\"img/0868/4bd5105a-d2c3-4f82-8c80-57196106ba53.jpg\"]","trial_type":"similarity","trial_index":111,"time_elapsed":673663,"internal_node_id":"0.0-6.0-105.0"},{"sim_score":4,"rt":4279,"stimulus":"[\"img/0868/c8ac40c7-6904-4e13-8d61-c75d3052dc4e.jpg\",\"img/0862/de9ad88c-b522-430a-8ee9-eb06a9f85df5.jpg\"]","trial_type":"similarity","trial_index":112,"time_elapsed":678951,"internal_node_id":"0.0-6.0-106.0"},{"sim_score":5,"rt":5075,"stimulus":"[\"img/0766/d512b99c-a2dc-40d7-8e86-827323a0cbcf.jpg\",\"img/0898/68476bbb-34a1-42d9-8bc1-deab783d4489.jpg\"]","trial_type":"similarity","trial_index":113,"time_elapsed":685039,"internal_node_id":"0.0-6.0-107.0"},{"sim_score":1,"rt":3017,"stimulus":"[\"img/0898/08c72dac-f8ad-407a-9ce6-8c9a5d679c3a.jpg\",\"img/0864/afcba0a3-7e27-4757-b254-e9f05fad27e2.jpg\"]","trial_type":"similarity","trial_index":114,"time_elapsed":689072,"internal_node_id":"0.0-6.0-108.0"},{"sim_score":1,"rt":3286,"stimulus":"[\"img/0868/d98ca254-b195-477f-b57e-5760a2717db8.jpg\",\"img/0902/07437a16-3d0f-4a5c-89ec-36d0efa4b3b8.jpg\"]","trial_type":"similarity","trial_index":115,"time_elapsed":693375,"internal_node_id":"0.0-6.0-109.0"},{"sim_score":6,"rt":4854,"stimulus":"[\"img/0904/09dac84f-3d1c-4445-a68e-d0389fdbf1e9.jpg\",\"img/0764/d7f3ac54-318a-4dac-a06b-62bed34d01a4.jpg\"]","trial_type":"similarity","trial_index":116,"time_elapsed":699255,"internal_node_id":"0.0-6.0-110.0"},{"sim_score":1,"rt":3138,"stimulus":"[\"img/0894/8cadb87a-7001-4e47-99fb-1867bebf1668.jpg\",\"img/0875/34132396-d896-4c2d-8087-646dd867e769.jpg\"]","trial_type":"similarity","trial_index":117,"time_elapsed":703400,"internal_node_id":"0.0-6.0-111.0"},{"sim_score":3,"rt":3164,"stimulus":"[\"img/0868/293079b8-7e0c-4afd-a390-1e5d35fe3ded.jpg\",\"img/0874/1016b306-087c-4afc-aa08-fa527b28dc76.jpg\"]","trial_type":"similarity","trial_index":118,"time_elapsed":707583,"internal_node_id":"0.0-6.0-112.0"},{"sim_score":5,"rt":3730,"stimulus":"[\"img/0904/96e503ea-6630-4996-85f2-0237688ce441.jpg\",\"img/0898/c3cecf20-f7fd-45fa-97d0-dc0a63e8d6c0.jpg\"]","trial_type":"similarity","trial_index":119,"time_elapsed":717574,"internal_node_id":"0.0-6.0-113.0"},{"sim_score":1,"rt":3112,"stimulus":"[\"img/0860/c3379ff7-0763-48fe-a1ec-7ea3d611bc7a.jpg\",\"img/0766/a1ed3f0f-e338-4a26-8fe4-4370f0c9fa6e.jpg\"]","trial_type":"similarity","trial_index":120,"time_elapsed":721703,"internal_node_id":"0.0-6.0-114.0"},{"sim_score":1,"rt":2418,"stimulus":"[\"img/0894/76c1201f-8524-4865-85e6-dda8cb4ac986.jpg\",\"img/0874/ca76a855-4e77-4f2f-872a-0a718153e7ed.jpg\"]","trial_type":"similarity","trial_index":121,"time_elapsed":725135,"internal_node_id":"0.0-6.0-115.0"},{"sim_score":4,"rt":3412,"stimulus":"[\"img/0899/a048912c-b12c-40e3-90af-46b69b0cc4fe.jpg\",\"img/0903/776b74ee-a8ab-4ab8-a78d-097c0747538d.jpg\"]","trial_type":"similarity","trial_index":122,"time_elapsed":729567,"internal_node_id":"0.0-6.0-116.0"},{"sim_score":1,"rt":3235,"stimulus":"[\"img/0881/ee44e27f-d662-4608-b265-e7ffa19b216f.jpg\",\"img/0764/978aede9-4590-4ad0-b234-135c83e5d669.jpg\"]","trial_type":"similarity","trial_index":123,"time_elapsed":733807,"internal_node_id":"0.0-6.0-117.0"},{"sim_score":5,"rt":4427,"stimulus":"[\"img/0903/14f179a2-8786-48a2-8377-88d1d404341b.jpg\",\"img/0769/38a88f69-28fd-4bbd-99f0-f4c02bfd3995.jpg\"]","trial_type":"similarity","trial_index":124,"time_elapsed":739255,"internal_node_id":"0.0-6.0-118.0"},{"sim_score":5,"rt":3254,"stimulus":"[\"img/0901/58ec7fa9-b466-4651-90aa-c082df0972de.jpg\",\"img/0904/5aec2708-cf14-4a58-aa30-9a8a61c1be0e.jpg\"]","trial_type":"similarity","trial_index":125,"time_elapsed":743519,"internal_node_id":"0.0-6.0-119.0"},{"sim_score":4,"rt":3428,"stimulus":"[\"img/0860/4f695df5-afac-4da7-9875-fee39b0b24ad.jpg\",\"img/0881/0c7068da-d0d9-4103-bda1-74ef7a2b32c3.jpg\"]","trial_type":"similarity","trial_index":126,"time_elapsed":747975,"internal_node_id":"0.0-6.0-120.0"},{"sim_score":6,"rt":5967,"stimulus":"[\"img/0758/65d426d6-3ff6-415d-8654-a43b83ecc4fe.jpg\",\"img/0874/a3bc679d-619f-4db6-bb68-116dcb757d9c.jpg\"]","trial_type":"similarity","trial_index":127,"time_elapsed":754967,"internal_node_id":"0.0-6.0-121.0"},{"sim_score":4,"rt":3077,"stimulus":"[\"img/0901/4ca4f962-40c0-4c59-b14a-3cd7b8c9029b.jpg\",\"img/0769/9ea27d61-3d55-418c-8d14-82e90f656f01.jpg\"]","trial_type":"similarity","trial_index":128,"time_elapsed":759063,"internal_node_id":"0.0-6.0-122.0"},{"sim_score":3,"rt":3775,"stimulus":"[\"img/0902/82d20e8c-2162-47a6-925b-52906558c046.jpg\",\"img/0904/60d1a521-edf7-4696-9263-f21ac0e62a01.jpg\"]","trial_type":"similarity","trial_index":129,"time_elapsed":763855,"internal_node_id":"0.0-6.0-123.0"},{"sim_score":1,"rt":3594,"stimulus":"[\"img/0899/66ab3178-c3fe-4455-ad17-d5952b08e018.jpg\",\"img/0864/e336a4c5-6648-4fd7-b2f6-93a3fb83f8c6.jpg\"]","trial_type":"similarity","trial_index":130,"time_elapsed":768471,"internal_node_id":"0.0-6.0-124.0"},{"sim_score":1,"rt":2551,"stimulus":"[\"img/0766/717fd72f-a281-499b-a5ba-5e2ecc4d4866.jpg\",\"img/0868/0d3abd3a-b6c3-4584-a9f7-e2da63748b3d.jpg\"]","trial_type":"similarity","trial_index":131,"time_elapsed":772039,"internal_node_id":"0.0-6.0-125.0"},{"sim_score":1,"rt":3389,"stimulus":"[\"img/0764/cbdc4f20-3a9a-4211-9b40-090699e0abcc.jpg\",\"img/0864/e8bd659f-aa43-4748-877e-3118e8b4e189.jpg\"]","trial_type":"similarity","trial_index":132,"time_elapsed":776455,"internal_node_id":"0.0-6.0-126.0"},{"sim_score":1,"rt":2902,"stimulus":"[\"img/0899/f58b8d2f-b19d-4b59-8b94-8834be92e4ba.jpg\",\"img/0866/6f2a90d7-14f1-4f1b-bd64-fc0af6b9fe44.jpg\"]","trial_type":"similarity","trial_index":133,"time_elapsed":780375,"internal_node_id":"0.0-6.0-127.0"},{"sim_score":1,"rt":3564,"stimulus":"[\"img/0901/5b97abf9-f0c8-4fd1-b921-36d574779078.jpg\",\"img/0881/33d65d80-8a8e-4ecf-852d-0ad7725c17a2.jpg\"]","trial_type":"similarity","trial_index":134,"time_elapsed":784959,"internal_node_id":"0.0-6.0-128.0"},{"sim_score":6,"rt":5355,"stimulus":"[\"img/0898/79233891-305a-4a6a-8ddf-5c8604858203.jpg\",\"img/0903/6a87dbad-9b8d-4ff5-9c41-03c9aa24f0c3.jpg\"]","trial_type":"similarity","trial_index":135,"time_elapsed":791327,"internal_node_id":"0.0-6.0-129.0"},{"sim_score":1,"rt":2722,"stimulus":"[\"img/0894/492d2f29-d7b9-4422-8be8-47fd58bfaa8b.jpg\",\"img/0867/c66898ba-b71b-4d50-84f9-f7f84853a98d.jpg\"]","trial_type":"similarity","trial_index":136,"time_elapsed":795071,"internal_node_id":"0.0-6.0-130.0"},{"sim_score":1,"rt":4387,"stimulus":"[\"img/0874/29830da7-be5f-44e5-b141-652a0ccf7269.jpg\",\"img/0903/b0a3c45f-467e-412f-a183-c9c1827f2e63.jpg\"]","trial_type":"similarity","trial_index":137,"time_elapsed":800487,"internal_node_id":"0.0-6.0-131.0"},{"sim_score":5,"rt":3884,"stimulus":"[\"img/0899/d60714ae-98d7-4564-8c98-94dba1351135.jpg\",\"img/0898/5f699581-3853-4547-856c-12f419ba5af7.jpg\"]","trial_type":"similarity","trial_index":138,"time_elapsed":805391,"internal_node_id":"0.0-6.0-132.0"},{"sim_score":1,"rt":2930,"stimulus":"[\"img/0867/50a1b60e-3a29-44bf-b606-d4bd3746fea9.jpg\",\"img/0764/d7c215ab-ea9a-45be-8d5f-417d5b9a8a17.jpg\"]","trial_type":"similarity","trial_index":139,"time_elapsed":809345,"internal_node_id":"0.0-6.0-133.0"},{"sim_score":1,"rt":3112,"stimulus":"[\"img/0866/23a224f3-2012-4fc8-8e0f-3c36f8de27fd.jpg\",\"img/0769/da36e3f7-2337-434f-ab57-11822dd7eed7.jpg\"]","trial_type":"similarity","trial_index":140,"time_elapsed":813479,"internal_node_id":"0.0-6.0-134.0"},{"sim_score":4,"rt":3362,"stimulus":"[\"img/0860/8fdba999-b946-4c7d-9891-336018b563ef.jpg\",\"img/0898/40f99fb2-64d2-4e72-8a7f-a1cf60741e69.jpg\"]","trial_type":"similarity","trial_index":141,"time_elapsed":817855,"internal_node_id":"0.0-6.0-135.0"},{"sim_score":1,"rt":2987,"stimulus":"[\"img/0881/48ed65a5-471f-41af-86ec-3793805c116d.jpg\",\"img/0903/70d764d9-1f35-4da7-a35d-4cc39834d270.jpg\"]","trial_type":"similarity","trial_index":142,"time_elapsed":821855,"internal_node_id":"0.0-6.0-136.0"},{"sim_score":5,"rt":4266,"stimulus":"[\"img/0894/1a010553-d598-4b06-a772-81f1e7b3addb.jpg\",\"img/0766/26d3ae14-8275-4e08-99b2-a6598c193ddf.jpg\"]","trial_type":"similarity","trial_index":143,"time_elapsed":827135,"internal_node_id":"0.0-6.0-137.0"},{"sim_score":1,"rt":3482,"stimulus":"[\"img/0860/18dfed73-e36b-4487-a8bd-0b8cff8e3668.jpg\",\"img/0764/6ef77040-1fae-4afa-bfe7-eda98e6d0376.jpg\"]","trial_type":"similarity","trial_index":144,"time_elapsed":831711,"internal_node_id":"0.0-6.0-138.0"},{"sim_score":5,"rt":3886,"stimulus":"[\"img/0769/14d393ce-e5be-4ca1-86ce-cc27d4b6074c.jpg\",\"img/0902/962f645e-9b55-4628-9b50-c703422bfe1a.jpg\"]","trial_type":"similarity","trial_index":145,"time_elapsed":836615,"internal_node_id":"0.0-6.0-139.0"},{"sim_score":6,"rt":5467,"stimulus":"[\"img/0904/9d30eff1-46ef-4453-b11e-124ef8145c00.jpg\",\"img/0903/d987e220-f3e6-4b6d-a270-fe6757041f6d.jpg\"]","trial_type":"similarity","trial_index":146,"time_elapsed":843103,"internal_node_id":"0.0-6.0-140.0"},{"sim_score":6,"rt":5269,"stimulus":"[\"img/0764/f64dfa83-333d-494c-87b5-73e942f1766e.jpg\",\"img/0769/a1ce8d07-ba37-40de-bade-2778805521e0.jpg\"]","trial_type":"similarity","trial_index":147,"time_elapsed":849391,"internal_node_id":"0.0-6.0-141.0"},{"sim_score":1,"rt":3170,"stimulus":"[\"img/0902/b76efc44-a50f-4dac-b997-ff0222376067.jpg\",\"img/0881/e046471a-35b4-4159-bbf7-3cfd201bef66.jpg\"]","trial_type":"similarity","trial_index":148,"time_elapsed":853591,"internal_node_id":"0.0-6.0-142.0"},{"sim_score":4,"rt":3800,"stimulus":"[\"img/0866/8efcaa46-83ab-4dee-a35f-850402aa21ae.jpg\",\"img/0864/1ebbc554-99fa-49f9-8799-317375a79820.jpg\"]","trial_type":"similarity","trial_index":149,"time_elapsed":858406,"internal_node_id":"0.0-6.0-143.0"},{"sim_score":5,"rt":3081,"stimulus":"[\"img/0902/7f1dcd35-237a-4995-9e42-7f63f3f434d4.jpg\",\"img/0898/04e39a7a-fcf6-4156-ab0e-f5871f335e1c.jpg\"]","trial_type":"similarity","trial_index":150,"time_elapsed":862503,"internal_node_id":"0.0-6.0-144.0"},{"sim_score":5,"rt":3333,"stimulus":"[\"img/0862/ee3b7bff-4a70-4e84-9bea-4a565e456acb.jpg\",\"img/0864/65210d57-1153-4657-886a-32e758f49b4a.jpg\"]","trial_type":"similarity","trial_index":151,"time_elapsed":866863,"internal_node_id":"0.0-6.0-145.0"},{"sim_score":1,"rt":3285,"stimulus":"[\"img/0875/5a1e5100-0d94-4fec-bbe9-ca9894d2cf8e.jpg\",\"img/0898/26c41340-15bd-4ead-8fe4-c0d0ddca09c2.jpg\"]","trial_type":"similarity","trial_index":152,"time_elapsed":871159,"internal_node_id":"0.0-6.0-146.0"},{"sim_score":5,"rt":3972,"stimulus":"[\"img/0874/3f471690-9788-4d03-90c7-f615aecef149.jpg\",\"img/0881/4da99fdd-1f40-4bbb-8e21-8833eef313f5.jpg\"]","trial_type":"similarity","trial_index":153,"time_elapsed":876159,"internal_node_id":"0.0-6.0-147.0"},{"sim_score":1,"rt":3106,"stimulus":"[\"img/0758/9fb5b2fe-3f00-4fe6-973c-1ce10d5f4cd5.jpg\",\"img/0894/10f22b96-040c-44f4-950b-a4963f3f506c.jpg\"]","trial_type":"similarity","trial_index":154,"time_elapsed":880279,"internal_node_id":"0.0-6.0-148.0"},{"sim_score":1,"rt":2613,"stimulus":"[\"img/0904/d23dd7be-7fe8-4435-82f7-bd592c01e6a1.jpg\",\"img/0864/b3c4e378-28f0-4699-9338-2a257b4bca04.jpg\"]","trial_type":"similarity","trial_index":155,"time_elapsed":883910,"internal_node_id":"0.0-6.0-149.0"},{"sim_score":5,"rt":3555,"stimulus":"[\"img/0769/0fe124d3-bcad-45f6-b64d-8f6eb8ee5251.jpg\",\"img/0899/66bf4113-ee12-426c-84d2-ea410b6c803e.jpg\"]","trial_type":"similarity","trial_index":156,"time_elapsed":888478,"internal_node_id":"0.0-6.0-150.0"},{"sim_score":4,"rt":4281,"stimulus":"[\"img/0764/5d6fa3ce-9083-410c-bbdb-336a49b94cfc.jpg\",\"img/0903/45e2d600-57ff-4d69-b22c-0c7896cd38f0.jpg\"]","trial_type":"similarity","trial_index":157,"time_elapsed":901342,"internal_node_id":"0.0-6.0-151.0"},{"sim_score":1,"rt":3898,"stimulus":"[\"img/0903/0a92ec52-4e87-410a-857a-4455cde56a70.jpg\",\"img/0864/c3b63e8f-ea39-4d70-a1f2-b3fe4be8eb75.jpg\"]","trial_type":"similarity","trial_index":158,"time_elapsed":906246,"internal_node_id":"0.0-6.0-152.0"},{"sim_score":1,"rt":3527,"stimulus":"[\"img/0894/6aa5545f-fa7d-4286-bbaa-aaf34dc7ec96.jpg\",\"img/0881/445edb15-bd7f-4af3-8bd5-c6ad9677bb31.jpg\"]","trial_type":"similarity","trial_index":159,"time_elapsed":910782,"internal_node_id":"0.0-6.0-153.0"},{"sim_score":5,"rt":3172,"stimulus":"[\"img/0875/99698b4d-b4a1-44bc-8c83-8ea755bbbf61.jpg\",\"img/0867/98d8cd96-1476-4fe0-a3a3-04f875500a1b.jpg\"]","trial_type":"similarity","trial_index":160,"time_elapsed":914974,"internal_node_id":"0.0-6.0-154.0"},{"sim_score":4,"rt":2784,"stimulus":"[\"img/0867/85a96c62-548f-4994-9553-819e03c3135a.jpg\",\"img/0758/6cd8c362-ae2a-41eb-80a3-3a4f7ace1530.jpg\"]","trial_type":"similarity","trial_index":161,"time_elapsed":918774,"internal_node_id":"0.0-6.0-155.0"},{"sim_score":1,"rt":2602,"stimulus":"[\"img/0868/1a62b2b2-18f5-466e-b564-5176a57c565e.jpg\",\"img/0901/33b51a81-06d9-46d9-9d4f-5a2d6d6b8058.jpg\"]","trial_type":"similarity","trial_index":162,"time_elapsed":922390,"internal_node_id":"0.0-6.0-156.0"},{"sim_score":5,"rt":3239,"stimulus":"[\"img/0769/d1be2815-fa79-46e8-b5c3-7d81caaca490.jpg\",\"img/0894/c505c65a-cde2-4f2c-8cde-f8676f7c894d.jpg\"]","trial_type":"similarity","trial_index":163,"time_elapsed":926654,"internal_node_id":"0.0-6.0-157.0"},{"sim_score":1,"rt":3071,"stimulus":"[\"img/0904/696ebb60-8891-417a-91fd-c53218907a95.jpg\",\"img/0758/53f35650-e455-4b53-8be4-c3c8271c6466.jpg\"]","trial_type":"similarity","trial_index":164,"time_elapsed":930735,"internal_node_id":"0.0-6.0-158.0"},{"sim_score":1,"rt":3064,"stimulus":"[\"img/0874/8cdb1c07-1c32-46d2-981c-3636560fa6e5.jpg\",\"img/0904/9b3568cc-3cf7-42be-9df3-fdafde7a58b8.jpg\"]","trial_type":"similarity","trial_index":165,"time_elapsed":934822,"internal_node_id":"0.0-6.0-159.0"},{"sim_score":1,"rt":2794,"stimulus":"[\"img/0864/5f33e097-23e3-4002-882d-76e8cb15f451.jpg\",\"img/0901/0f670aef-ac36-496d-8142-ee5fdb21dd82.jpg\"]","trial_type":"similarity","trial_index":166,"time_elapsed":938646,"internal_node_id":"0.0-6.0-160.0"},{"sim_score":1,"rt":2693,"stimulus":"[\"img/0898/0c7dde4f-efce-4b7a-9387-6921635b7890.jpg\",\"img/0866/be24ab58-230e-4db8-9f45-ff04c9aec6bb.jpg\"]","trial_type":"similarity","trial_index":167,"time_elapsed":942358,"internal_node_id":"0.0-6.0-161.0"},{"sim_score":5,"rt":2790,"stimulus":"[\"img/0766/aaec5f42-7f0a-4a16-aeca-488d757acbcc.jpg\",\"img/0903/5248eedd-7e6a-4d39-91b0-06ec227f3ed0.jpg\"]","trial_type":"similarity","trial_index":168,"time_elapsed":946174,"internal_node_id":"0.0-6.0-162.0"},{"sim_score":1,"rt":3379,"stimulus":"[\"img/0860/c7047cd2-7cc1-41b6-8a34-c0986774975f.jpg\",\"img/0899/51a7a498-98c7-42d7-bca8-bc2d8f0b5831.jpg\"]","trial_type":"similarity","trial_index":169,"time_elapsed":950576,"internal_node_id":"0.0-6.0-163.0"},{"sim_score":1,"rt":3121,"stimulus":"[\"img/0766/5d1b8041-c5a1-4b02-b4fe-3453d98a0d72.jpg\",\"img/0862/ba89835a-408c-480b-8594-ed4ffa97eb5c.jpg\"]","trial_type":"similarity","trial_index":170,"time_elapsed":954710,"internal_node_id":"0.0-6.0-164.0"},{"sim_score":5,"rt":2940,"stimulus":"[\"img/0898/e167334e-cc1d-4986-b3b1-c7bc7da64baa.jpg\",\"img/0894/3664e04c-c6d3-4c9b-afb6-25d89974b174.jpg\"]","trial_type":"similarity","trial_index":171,"time_elapsed":958670,"internal_node_id":"0.0-6.0-165.0"},{"sim_score":1,"rt":3274,"stimulus":"[\"img/0867/2e1a0b58-cdb1-4107-a14e-452530d7b9b0.jpg\",\"img/0766/6d32752d-aa05-40dc-9541-640b6e9d6fa1.jpg\"]","trial_type":"similarity","trial_index":172,"time_elapsed":962958,"internal_node_id":"0.0-6.0-166.0"},{"sim_score":1,"rt":2657,"stimulus":"[\"img/0904/6291eb43-c10c-4810-a36a-101d09868b04.jpg\",\"img/0862/92f0146c-20c4-482e-aef5-adb693790338.jpg\"]","trial_type":"similarity","trial_index":173,"time_elapsed":966638,"internal_node_id":"0.0-6.0-167.0"},{"sim_score":5,"rt":4073,"stimulus":"[\"img/0866/d266fece-59b3-46fa-b69f-96f6efb81b59.jpg\",\"img/0874/eba003b4-cdab-4eee-8bc3-f064c7d94165.jpg\"]","trial_type":"similarity","trial_index":174,"time_elapsed":971742,"internal_node_id":"0.0-6.0-168.0"},{"sim_score":1,"rt":3403,"stimulus":"[\"img/0903/36e4ab1f-caa9-40b3-8616-faada076df94.jpg\",\"img/0868/179a5502-ab5c-478e-8263-5a1fbcc101d2.jpg\"]","trial_type":"similarity","trial_index":175,"time_elapsed":976166,"internal_node_id":"0.0-6.0-169.0"},{"sim_score":6,"rt":4156,"stimulus":"[\"img/0769/1d8734c4-77ab-4165-9e71-5cfe672ff01c.jpg\",\"img/0904/1d10df11-b5c8-4370-9a6b-097a7f965895.jpg\"]","trial_type":"similarity","trial_index":176,"time_elapsed":981342,"internal_node_id":"0.0-6.0-170.0"},{"sim_score":1,"rt":3463,"stimulus":"[\"img/0875/5a716432-c6ca-4b1c-955a-2b8ac25198ee.jpg\",\"img/0764/fb7d4a20-a475-465e-a74f-aa39a0d33d16.jpg\"]","trial_type":"similarity","trial_index":177,"time_elapsed":985822,"internal_node_id":"0.0-6.0-171.0"},{"sim_score":1,"rt":5099,"stimulus":"[\"img/0860/d9a0d117-6d1d-41c0-8fec-9aff0fd9e9f2.jpg\",\"img/0903/bf0a7d60-eca5-44b0-bafd-baf21db9904b.jpg\"]","trial_type":"similarity","trial_index":178,"time_elapsed":991942,"internal_node_id":"0.0-6.0-172.0"},{"sim_score":4,"rt":3773,"stimulus":"[\"img/0864/0f537697-a314-47c3-a8cc-8df23b7e536c.jpg\",\"img/0867/ac1797e4-8afc-48fe-b252-86d1defb1cca.jpg\"]","trial_type":"similarity","trial_index":179,"time_elapsed":996742,"internal_node_id":"0.0-6.0-173.0"},{"sim_score":4,"rt":3344,"stimulus":"[\"img/0868/fd307a36-9a3a-47d7-ab7c-f810d0b35040.jpg\",\"img/0864/0116ca98-293d-4fa6-a93b-5a6144ef64cc.jpg\"]","trial_type":"similarity","trial_index":180,"time_elapsed":1001110,"internal_node_id":"0.0-6.0-174.0"},{"sim_score":5,"rt":4752,"stimulus":"[\"img/0898/cd3aaa3f-efa9-4ab3-8d6f-a6a9273ddf42.jpg\",\"img/0769/96556ef3-7fac-4c9d-8281-1cb0ea5081bc.jpg\"]","trial_type":"similarity","trial_index":181,"time_elapsed":1006878,"internal_node_id":"0.0-6.0-175.0"},{"sim_score":6,"rt":4674,"stimulus":"[\"img/0766/ea09dd5a-d24d-4e97-a099-7da3db1baef1.jpg\",\"img/0764/50f1b062-d608-4bc0-ab25-b872dcf2ed93.jpg\"]","trial_type":"similarity","trial_index":182,"time_elapsed":1012566,"internal_node_id":"0.0-6.0-176.0"},{"sim_score":1,"rt":2651,"stimulus":"[\"img/0764/da207710-e7e4-4f42-b2e6-99b5f357f433.jpg\",\"img/0866/a15b02be-11bb-43e3-b0e0-ecc3bd7dfc49.jpg\"]","trial_type":"similarity","trial_index":183,"time_elapsed":1016232,"internal_node_id":"0.0-6.0-177.0"},{"sim_score":1,"rt":2833,"stimulus":"[\"img/0902/4e0baa32-988e-46f6-989d-f669225ab645.jpg\",\"img/0875/a4935837-7d3c-4df6-88c1-36a94d4991ca.jpg\"]","trial_type":"similarity","trial_index":184,"time_elapsed":1020086,"internal_node_id":"0.0-6.0-178.0"},{"sim_score":1,"rt":3149,"stimulus":"[\"img/0881/f62bdcd1-a4b7-4d48-83da-d9c9e01c8727.jpg\",\"img/0904/0d25eb24-bb20-4e8d-9787-8b489558b4cb.jpg\"]","trial_type":"similarity","trial_index":185,"time_elapsed":1024246,"internal_node_id":"0.0-6.0-179.0"},{"sim_score":3,"rt":3255,"stimulus":"[\"img/0874/a82926a3-0b43-4add-803c-d5f9ea7798ee.jpg\",\"img/0860/4c530c3c-6aab-492a-94d1-9c01797bde40.jpg\"]","trial_type":"similarity","trial_index":186,"time_elapsed":1028526,"internal_node_id":"0.0-6.0-180.0"},{"sim_score":1,"rt":3807,"stimulus":"[\"img/0769/db94b61b-a5a7-4861-9d32-7b02ad194fb0.jpg\",\"img/0874/995f0332-0439-4eb4-add3-957335dbf6d9.jpg\"]","trial_type":"similarity","trial_index":187,"time_elapsed":1033358,"internal_node_id":"0.0-6.0-181.0"},{"sim_score":6,"rt":4706,"stimulus":"[\"img/0904/56e73f28-7e64-489b-a161-e6b1a063878d.jpg\",\"img/0766/0025de5e-f620-4079-8a0f-00326ff3a6b0.jpg\"]","trial_type":"similarity","trial_index":188,"time_elapsed":1039070,"internal_node_id":"0.0-6.0-182.0"},{"sim_score":5,"rt":3427,"stimulus":"[\"img/0902/97022122-01e4-46c3-a34f-c6260ad28428.jpg\",\"img/0764/f9f890e6-3c2f-40cd-84e9-85e0b54cb28e.jpg\"]","trial_type":"similarity","trial_index":189,"time_elapsed":1043510,"internal_node_id":"0.0-6.0-183.0"},{"sim_score":1,"rt":2453,"stimulus":"[\"img/0769/f6396414-6788-4d59-9683-de153298d89c.jpg\",\"img/0875/2c361b79-c3d1-4eda-812e-bf03192407bf.jpg\"]","trial_type":"similarity","trial_index":190,"time_elapsed":1046990,"internal_node_id":"0.0-6.0-184.0"},{"sim_score":1,"rt":3328,"stimulus":"[\"img/0867/1719a35d-f085-48c0-9099-16c94fe418b4.jpg\",\"img/0903/8fcafe03-43df-4c45-9da5-0df3a1eeccc5.jpg\"]","trial_type":"similarity","trial_index":191,"time_elapsed":1051334,"internal_node_id":"0.0-6.0-185.0"},{"sim_score":1,"rt":4407,"stimulus":"[\"img/0862/e8cc3bdf-cc43-4565-bccf-492626c70953.jpg\",\"img/0769/e8ed913b-8a88-44f6-9327-d34afec3116b.jpg\"]","trial_type":"similarity","trial_index":192,"time_elapsed":1056758,"internal_node_id":"0.0-6.0-186.0"},{"sim_score":1,"rt":3000,"stimulus":"[\"img/0766/00891401-e4c9-4ce1-bc19-f70740d174bc.jpg\",\"img/0866/9b38d691-1802-4959-ab3f-fc902f0e4ea6.jpg\"]","trial_type":"similarity","trial_index":193,"time_elapsed":1060774,"internal_node_id":"0.0-6.0-187.0"},{"sim_score":2,"rt":5465,"stimulus":"[\"img/0769/8c7cf147-1780-4d5c-8ddf-5ea23ff03ac9.jpg\",\"img/0860/fd4662f9-4c03-4d79-8593-06735e55a64b.jpg\"]","trial_type":"similarity","trial_index":194,"time_elapsed":1067254,"internal_node_id":"0.0-6.0-188.0"},{"sim_score":3,"rt":5504,"stimulus":"[\"img/0881/19e82c47-8e4b-45d2-a6c8-74181eb4155e.jpg\",\"img/0868/4a8a45ed-2c4f-421b-9564-409a33ecd26c.jpg\"]","trial_type":"similarity","trial_index":195,"time_elapsed":1077229,"internal_node_id":"0.0-6.0-189.0"},{"view_history":"[{\"page_index\":0,\"viewing_time\":8133}]","rt":8133,"trial_type":"instructions","trial_index":196,"time_elapsed":1086373,"internal_node_id":"0.0-7.0"},{"rt":25716,"responses":"{\"Q0\":\"Orange-crowned Warbler\"}","answer":["Nashville Warbler"],"trial_type":"image-multi-choice","trial_index":197,"time_elapsed":1113119,"internal_node_id":"0.0-8.0-0.0"},{"rt":26628,"responses":"{\"Q0\":\"Black-and-white Warbler\"}","answer":["Black-and-white Warbler"],"trial_type":"image-multi-choice","trial_index":198,"time_elapsed":1140782,"internal_node_id":"0.0-8.0-1.0"},{"rt":5883,"responses":"{\"Q0\":\"Townsend's Warbler\"}","answer":["Townsend's Warbler"],"trial_type":"image-multi-choice","trial_index":199,"time_elapsed":1147702,"internal_node_id":"0.0-8.0-2.0"},{"rt":6512,"responses":"{\"Q0\":\"Lark Sparrow\"}","answer":["Lark Sparrow"],"trial_type":"image-multi-choice","trial_index":200,"time_elapsed":1155230,"internal_node_id":"0.0-8.0-3.0"},{"rt":4944,"responses":"{\"Q0\":\"Yellow Warbler\"}","answer":["Yellow Warbler"],"trial_type":"image-multi-choice","trial_index":201,"time_elapsed":1161214,"internal_node_id":"0.0-8.0-4.0"},{"rt":21188,"responses":"{\"Q0\":\"Nashville Warbler\"}","answer":["Orange-crowned Warbler"],"trial_type":"image-multi-choice","trial_index":202,"time_elapsed":1183421,"internal_node_id":"0.0-8.0-5.0"},{"rt":4625,"responses":"{\"Q0\":\"White-throated Sparrow\"}","answer":["White-throated Sparrow"],"trial_type":"image-multi-choice","trial_index":203,"time_elapsed":1189069,"internal_node_id":"0.0-8.0-6.0"},{"rt":5342,"responses":"{\"Q0\":\"Fox Sparrow\"}","answer":["Fox Sparrow"],"trial_type":"image-multi-choice","trial_index":204,"time_elapsed":1195446,"internal_node_id":"0.0-8.0-7.0"},{"rt":27009,"responses":"{\"Q0\":\"Lincoln's Sparrow\"}","answer":["Song Sparrow"],"trial_type":"image-multi-choice","trial_index":205,"time_elapsed":1223485,"internal_node_id":"0.0-8.0-8.0"},{"rt":4668,"responses":"{\"Q0\":\"Blackburnian Warbler\"}","answer":["Blackburnian Warbler"],"trial_type":"image-multi-choice","trial_index":206,"time_elapsed":1229189,"internal_node_id":"0.0-8.0-9.0"},{"rt":5193,"responses":"{\"Q0\":\"American Tree Sparrow\"}","answer":["Vesper Sparrow"],"trial_type":"image-multi-choice","trial_index":207,"time_elapsed":1235469,"internal_node_id":"0.0-8.0-10.0"},{"rt":3449,"responses":"{\"Q0\":\"White-crowned Sparrow\"}","answer":["White-crowned Sparrow"],"trial_type":"image-multi-choice","trial_index":208,"time_elapsed":1239965,"internal_node_id":"0.0-8.0-11.0"},{"rt":11080,"responses":"{\"Q0\":\"Chipping Sparrow\"}","answer":["American Tree Sparrow"],"trial_type":"image-multi-choice","trial_index":209,"time_elapsed":1252077,"internal_node_id":"0.0-8.0-12.0"},{"rt":30357,"responses":"{\"Q0\":\"Tennessee Warbler\"}","answer":["Tennessee Warbler"],"trial_type":"image-multi-choice","trial_index":210,"time_elapsed":1283469,"internal_node_id":"0.0-8.0-13.0"},{"rt":55509,"responses":"{\"Q0\":\"Magnolia Warbler\"}","answer":["Magnolia Warbler"],"trial_type":"image-multi-choice","trial_index":211,"time_elapsed":1340013,"internal_node_id":"0.0-8.0-14.0"},{"rt":6664,"responses":"{\"Q0\":\"Northern Waterthrush\"}","answer":["Northern Waterthrush"],"trial_type":"image-multi-choice","trial_index":212,"time_elapsed":1347709,"internal_node_id":"0.0-8.0-15.0"},{"rt":16252,"responses":"{\"Q0\":\"Chipping Sparrow\"}","answer":["Chipping Sparrow"],"trial_type":"image-multi-choice","trial_index":213,"time_elapsed":1364997,"internal_node_id":"0.0-8.0-16.0"},{"rt":39057,"responses":"{\"Q0\":\"Lincoln's Sparrow\"}","answer":["Swamp Sparrow"],"trial_type":"image-multi-choice","trial_index":214,"time_elapsed":1405077,"internal_node_id":"0.0-8.0-17.0"},{"rt":49069,"responses":"{\"Q0\":\"Vesper Sparrow\"}","answer":["Lincoln's Sparrow"],"trial_type":"image-multi-choice","trial_index":215,"time_elapsed":1455181,"internal_node_id":"0.0-8.0-18.0"},{"rt":3628,"responses":"{\"Q0\":\"Ovenbird\"}","answer":["Ovenbird"],"trial_type":"image-multi-choice","trial_index":216,"time_elapsed":1459844,"internal_node_id":"0.0-8.0-19.0"}]