[{"view_history":"[{\"page_index\":0,\"viewing_time\":3947}]","rt":3948,"trial_type":"instructions","trial_index":0,"time_elapsed":3950,"internal_node_id":"0.0-0.0"},{"sim_score":5,"rt":8479,"stimulus":"[\"img/bluejay1.jpg\",\"img/bluejay2.jpg\"]","trial_type":"similarity_demo","trial_index":1,"time_elapsed":13444,"internal_node_id":"0.0-1.0"},{"view_history":"[{\"page_index\":0,\"viewing_time\":6327}]","rt":6328,"trial_type":"instructions","trial_index":2,"time_elapsed":20774,"internal_node_id":"0.0-2.0"},{"sim_score":1,"rt":5461,"stimulus":"[\"img/bluejay1.jpg\",\"img/cardinal1.jpg\"]","trial_type":"similarity_demo","trial_index":3,"time_elapsed":27249,"internal_node_id":"0.0-3.0"},{"view_history":"[{\"page_index\":0,\"viewing_time\":5152}]","rt":5153,"trial_type":"instructions","trial_index":4,"time_elapsed":33403,"internal_node_id":"0.0-4.0"},{"view_history":"[{\"page_index\":0,\"viewing_time\":17307}]","rt":17308,"trial_type":"instructions","trial_index":5,"time_elapsed":51713,"internal_node_id":"0.0-5.0"},{"sim_score":3,"rt":7993,"stimulus":"[\"img/0868/179a5502-ab5c-478e-8263-5a1fbcc101d2.jpg\",\"img/0894/86201968-6e78-4d68-9b3a-d1692e066210.jpg\"]","trial_type":"similarity","trial_index":6,"time_elapsed":60717,"internal_node_id":"0.0-6.0-0.0"},{"sim_score":3,"rt":5558,"stimulus":"[\"img/0898/224c1572-56b9-4f16-a9e4-6f3bc9c114bd.jpg\",\"img/0758/65d426d6-3ff6-415d-8654-a43b83ecc4fe.jpg\"]","trial_type":"similarity","trial_index":7,"time_elapsed":67284,"internal_node_id":"0.0-6.0-1.0"},{"sim_score":5,"rt":4722,"stimulus":"[\"img/0903/b0a3c45f-467e-412f-a183-c9c1827f2e63.jpg\",\"img/0894/10f22b96-040c-44f4-950b-a4963f3f506c.jpg\"]","trial_type":"similarity","trial_index":8,"time_elapsed":73018,"internal_node_id":"0.0-6.0-2.0"},{"sim_score":3,"rt":8771,"stimulus":"[\"img/0881/c24f3051-eefa-42de-aba6-fccb56d93c70.jpg\",\"img/0766/535849cc-ff5d-4df9-8f31-0ce94a97d571.jpg\"]","trial_type":"similarity","trial_index":9,"time_elapsed":82798,"internal_node_id":"0.0-6.0-3.0"},{"sim_score":1,"rt":4907,"stimulus":"[\"img/0864/5f74a653-3bdc-4308-8cca-ac667dc22e1f.jpg\",\"img/0860/4f695df5-afac-4da7-9875-fee39b0b24ad.jpg\"]","trial_type":"similarity","trial_index":10,"time_elapsed":88714,"internal_node_id":"0.0-6.0-4.0"},{"sim_score":1,"rt":5672,"stimulus":"[\"img/0902/94198618-7047-4dc9-ad04-85f4ba913067.jpg\",\"img/0899/7f9d45d0-b2c6-40d3-aa41-c207db2c411b.jpg\"]","trial_type":"similarity","trial_index":11,"time_elapsed":95392,"internal_node_id":"0.0-6.0-5.0"},{"sim_score":1,"rt":4669,"stimulus":"[\"img/0868/6a28c3b0-3d76-498a-9fb7-ddafc665eca8.jpg\",\"img/0769/b664b502-a86c-46c1-ad6f-5ebffc2e1bd3.jpg\"]","trial_type":"similarity","trial_index":12,"time_elapsed":101068,"internal_node_id":"0.0-6.0-6.0"},{"sim_score":1,"rt":4428,"stimulus":"[\"img/0764/a3226bc4-dcc3-4608-bde8-1414d685ce5c.jpg\",\"img/0901/b123d109-47b4-4f9a-80c9-9bb16da42efa.jpg\"]","trial_type":"similarity","trial_index":13,"time_elapsed":106503,"internal_node_id":"0.0-6.0-7.0"},{"sim_score":2,"rt":6103,"stimulus":"[\"img/0881/e046471a-35b4-4159-bbf7-3cfd201bef66.jpg\",\"img/0866/d266fece-59b3-46fa-b69f-96f6efb81b59.jpg\"]","trial_type":"similarity","trial_index":14,"time_elapsed":113613,"internal_node_id":"0.0-6.0-8.0"},{"sim_score":1,"rt":3547,"stimulus":"[\"img/0867/1719a35d-f085-48c0-9099-16c94fe418b4.jpg\",\"img/0899/fd9efb43-701f-4cd6-baaa-4c38315f4bdc.jpg\"]","trial_type":"similarity","trial_index":15,"time_elapsed":118167,"internal_node_id":"0.0-6.0-9.0"},{"sim_score":2,"rt":9995,"stimulus":"[\"img/0875/8521fd58-3b1e-4dc5-97ae-804edfa6734a.jpg\",\"img/0766/aaec5f42-7f0a-4a16-aeca-488d757acbcc.jpg\"]","trial_type":"similarity","trial_index":16,"time_elapsed":129170,"internal_node_id":"0.0-6.0-10.0"},{"sim_score":1,"rt":3838,"stimulus":"[\"img/0901/0f670aef-ac36-496d-8142-ee5fdb21dd82.jpg\",\"img/0875/f87b67d7-c33e-40d1-b281-248c4be1cb6e.jpg\"]","trial_type":"similarity","trial_index":17,"time_elapsed":134016,"internal_node_id":"0.0-6.0-11.0"},{"sim_score":5,"rt":6114,"stimulus":"[\"img/0902/af45fe42-178c-4c1a-99ef-256e87e3b092.jpg\",\"img/0860/87039971-2210-4aab-93c0-8e9b5f1655b2.jpg\"]","trial_type":"similarity","trial_index":18,"time_elapsed":141138,"internal_node_id":"0.0-6.0-12.0"},{"sim_score":3,"rt":5639,"stimulus":"[\"img/0874/85eb9b8a-c4c6-4e5a-b8e7-363a87a82054.jpg\",\"img/0867/de92135f-5b65-4ed9-b245-188292c7c2f8.jpg\"]","trial_type":"similarity","trial_index":19,"time_elapsed":147783,"internal_node_id":"0.0-6.0-13.0"},{"sim_score":3,"rt":7144,"stimulus":"[\"img/0904/ba8e689e-9ca6-4608-a2a1-3b0940666ae6.jpg\",\"img/0866/bf14b5bd-fb55-47db-86b9-4f8aeb9a6dad.jpg\"]","trial_type":"similarity","trial_index":20,"time_elapsed":155934,"internal_node_id":"0.0-6.0-14.0"},{"sim_score":2,"rt":6082,"stimulus":"[\"img/0758/20497cbe-ddae-489e-86e2-ab06985ed07c.jpg\",\"img/0902/0c760cc9-10ac-429e-8957-a7d51fc99683.jpg\"]","trial_type":"similarity","trial_index":21,"time_elapsed":163023,"internal_node_id":"0.0-6.0-15.0"},{"sim_score":2,"rt":4582,"stimulus":"[\"img/0867/aa05d113-fc19-4756-a8eb-7878f580bc92.jpg\",\"img/0898/04e39a7a-fcf6-4156-ab0e-f5871f335e1c.jpg\"]","trial_type":"similarity","trial_index":22,"time_elapsed":168612,"internal_node_id":"0.0-6.0-16.0"},{"sim_score":5,"rt":4857,"stimulus":"[\"img/0904/9dd5708f-3f8b-46a9-b49f-2f2fab87b357.jpg\",\"img/0868/4bd5105a-d2c3-4f82-8c80-57196106ba53.jpg\"]","trial_type":"similarity","trial_index":23,"time_elapsed":174474,"internal_node_id":"0.0-6.0-17.0"},{"sim_score":7,"rt":6502,"stimulus":"[\"img/0766/af3be95e-e52e-4fae-899b-0ff02ec340aa.jpg\",\"img/0864/3d4de670-b290-4285-9c3d-12a0e3af44e9.jpg\"]","trial_type":"similarity","trial_index":24,"time_elapsed":181982,"internal_node_id":"0.0-6.0-18.0"},{"sim_score":4,"rt":5662,"stimulus":"[\"img/0899/ad8268c5-8199-48d0-ad70-c5b6d6c599ec.jpg\",\"img/0766/ba35c0fc-4d5b-490d-959e-c94b279cdd02.jpg\"]","trial_type":"similarity","trial_index":25,"time_elapsed":188652,"internal_node_id":"0.0-6.0-19.0"},{"sim_score":2,"rt":4069,"stimulus":"[\"img/0764/d7f3ac54-318a-4dac-a06b-62bed34d01a4.jpg\",\"img/0758/e1ba5e53-addc-436a-b428-d34fc1b130dc.jpg\"]","trial_type":"similarity","trial_index":26,"time_elapsed":193727,"internal_node_id":"0.0-6.0-20.0"},{"sim_score":2,"rt":4155,"stimulus":"[\"img/0901/a6776381-91fe-43f8-ab73-261d318f95fd.jpg\",\"img/0874/93d1f8dc-acf2-4f03-bd8d-8ec35df276ed.jpg\"]","trial_type":"similarity","trial_index":27,"time_elapsed":198889,"internal_node_id":"0.0-6.0-21.0"},{"sim_score":5,"rt":4804,"stimulus":"[\"img/0875/2c361b79-c3d1-4eda-812e-bf03192407bf.jpg\",\"img/0758/eabcd7a8-56ad-4fd2-bc24-90f6b7b33265.jpg\"]","trial_type":"similarity","trial_index":28,"time_elapsed":204701,"internal_node_id":"0.0-6.0-22.0"},{"sim_score":3,"rt":4850,"stimulus":"[\"img/0867/075e0f95-856b-4cbb-acf5-092393aaf04e.jpg\",\"img/0881/f62bdcd1-a4b7-4d48-83da-d9c9e01c8727.jpg\"]","trial_type":"similarity","trial_index":29,"time_elapsed":210558,"internal_node_id":"0.0-6.0-23.0"},{"sim_score":3,"rt":4480,"stimulus":"[\"img/0758/3ddd05d3-557e-4ee7-8b78-9d2d681d8ae2.jpg\",\"img/0901/62315ff5-ed95-46b4-b099-92552079659b.jpg\"]","trial_type":"similarity","trial_index":30,"time_elapsed":216044,"internal_node_id":"0.0-6.0-24.0"},{"sim_score":7,"rt":4363,"stimulus":"[\"img/0868/77091fc7-a590-4ebb-b915-fdb2483a2399.jpg\",\"img/0875/90da8d75-108a-44ad-b999-e21fee3860d3.jpg\"]","trial_type":"similarity","trial_index":31,"time_elapsed":221413,"internal_node_id":"0.0-6.0-25.0"},{"sim_score":5,"rt":5210,"stimulus":"[\"img/0903/d987e220-f3e6-4b6d-a270-fe6757041f6d.jpg\",\"img/0901/148b747a-7392-437e-8823-33053c5dff3f.jpg\"]","trial_type":"similarity","trial_index":32,"time_elapsed":227630,"internal_node_id":"0.0-6.0-26.0"},{"sim_score":1,"rt":6205,"stimulus":"[\"img/0894/76c1201f-8524-4865-85e6-dda8cb4ac986.jpg\",\"img/0899/06b0fc99-0581-461a-9913-d1a5a941ac61.jpg\"]","trial_type":"similarity","trial_index":33,"time_elapsed":234843,"internal_node_id":"0.0-6.0-27.0"},{"sim_score":1,"rt":7152,"stimulus":"[\"img/0862/f23038d4-c366-4f70-979f-66b62362efa4.jpg\",\"img/0867/85a96c62-548f-4994-9553-819e03c3135a.jpg\"]","trial_type":"similarity","trial_index":34,"time_elapsed":243002,"internal_node_id":"0.0-6.0-28.0"},{"sim_score":5,"rt":4744,"stimulus":"[\"img/0864/e02eddb5-f468-499c-91bf-f7be3ffe979b.jpg\",\"img/0875/3ecb367d-e9eb-4826-8aaa-7aa72fb98019.jpg\"]","trial_type":"similarity","trial_index":35,"time_elapsed":248752,"internal_node_id":"0.0-6.0-29.0"},{"sim_score":3,"rt":4966,"stimulus":"[\"img/0862/5d887e9f-89e2-4ebc-80a0-6d46fe6480db.jpg\",\"img/0874/3ce41e7c-40c8-4d58-a546-171114521796.jpg\"]","trial_type":"similarity","trial_index":36,"time_elapsed":254725,"internal_node_id":"0.0-6.0-30.0"},{"sim_score":1,"rt":3204,"stimulus":"[\"img/0903/f45a103c-9bfe-49fd-ad96-bdd8d2589195.jpg\",\"img/0758/7ee8bc8f-c40b-4b3a-84ec-3e83580622d4.jpg\"]","trial_type":"similarity","trial_index":37,"time_elapsed":258937,"internal_node_id":"0.0-6.0-31.0"},{"sim_score":1,"rt":4762,"stimulus":"[\"img/0866/a04d37f0-99dd-478a-b6c6-58b215138f84.jpg\",\"img/0901/58978a6d-a3e2-4c59-8d62-f60693ecc0f6.jpg\"]","trial_type":"similarity","trial_index":38,"time_elapsed":264704,"internal_node_id":"0.0-6.0-32.0"},{"sim_score":1,"rt":3999,"stimulus":"[\"img/0874/1016b306-087c-4afc-aa08-fa527b28dc76.jpg\",\"img/0899/b45c550b-96c3-4255-ad59-48a2b4db1c1e.jpg\"]","trial_type":"similarity","trial_index":39,"time_elapsed":269711,"internal_node_id":"0.0-6.0-33.0"},{"sim_score":7,"rt":5693,"stimulus":"[\"img/0903/e2e55a9e-0397-4dc0-8adf-4a54cfefe1fe.jpg\",\"img/0902/511abb54-0094-4f4d-b6dc-3f2c97050521.jpg\"]","trial_type":"similarity","trial_index":40,"time_elapsed":276409,"internal_node_id":"0.0-6.0-34.0"},{"sim_score":1,"rt":4066,"stimulus":"[\"img/0758/e38fd80d-18d0-42f3-b848-f930788e8bd7.jpg\",\"img/0866/8efcaa46-83ab-4dee-a35f-850402aa21ae.jpg\"]","trial_type":"similarity","trial_index":41,"time_elapsed":281481,"internal_node_id":"0.0-6.0-35.0"},{"sim_score":2,"rt":6072,"stimulus":"[\"img/0875/5a1e5100-0d94-4fec-bbe9-ca9894d2cf8e.jpg\",\"img/0903/b4a0f61e-a964-4b79-a9a7-f767a8f92f34.jpg\"]","trial_type":"similarity","trial_index":42,"time_elapsed":288561,"internal_node_id":"0.0-6.0-36.0"},{"sim_score":1,"rt":4500,"stimulus":"[\"img/0864/4bd81bc6-c13d-46df-95a9-485886dc7c1b.jpg\",\"img/0902/3f0eeac5-c996-4026-a376-563ce8f28521.jpg\"]","trial_type":"similarity","trial_index":43,"time_elapsed":305143,"internal_node_id":"0.0-6.0-37.0"},{"sim_score":3,"rt":6345,"stimulus":"[\"img/0901/7d4a3388-488d-4e9b-9d32-9d0def7aae8d.jpg\",\"img/0867/c66898ba-b71b-4d50-84f9-f7f84853a98d.jpg\"]","trial_type":"similarity","trial_index":44,"time_elapsed":312493,"internal_node_id":"0.0-6.0-38.0"},{"sim_score":7,"rt":4810,"stimulus":"[\"img/0862/064818ee-13d5-4618-bb24-21c7368ea278.jpg\",\"img/0860/c47fdead-eb02-4989-b078-26f4852f44fe.jpg\"]","trial_type":"similarity","trial_index":45,"time_elapsed":318311,"internal_node_id":"0.0-6.0-39.0"},{"sim_score":7,"rt":3692,"stimulus":"[\"img/0867/12264664-1860-46df-8c21-162b9817cdda.jpg\",\"img/0868/d98ca254-b195-477f-b57e-5760a2717db8.jpg\"]","trial_type":"similarity","trial_index":46,"time_elapsed":323010,"internal_node_id":"0.0-6.0-40.0"},{"sim_score":6,"rt":4640,"stimulus":"[\"img/0904/0d17b811-063e-416e-a23c-3b3cfa4fcce5.jpg\",\"img/0899/66bf4113-ee12-426c-84d2-ea410b6c803e.jpg\"]","trial_type":"similarity","trial_index":47,"time_elapsed":328656,"internal_node_id":"0.0-6.0-41.0"},{"sim_score":1,"rt":4125,"stimulus":"[\"img/0862/00c06b00-3b73-44e9-bc1e-c5aafb438321.jpg\",\"img/0894/2217bdcd-23a7-42d3-823b-23f2488d7e87.jpg\"]","trial_type":"similarity","trial_index":48,"time_elapsed":333788,"internal_node_id":"0.0-6.0-42.0"},{"sim_score":2,"rt":4672,"stimulus":"[\"img/0875/cff79b3a-a797-4393-9757-6275f999ec04.jpg\",\"img/0904/d23dd7be-7fe8-4435-82f7-bd592c01e6a1.jpg\"]","trial_type":"similarity","trial_index":49,"time_elapsed":339465,"internal_node_id":"0.0-6.0-43.0"},{"sim_score":1,"rt":4730,"stimulus":"[\"img/0874/31e22c7c-99aa-40b1-bf03-dd73fa2df4d6.jpg\",\"img/0898/e167334e-cc1d-4986-b3b1-c7bc7da64baa.jpg\"]","trial_type":"similarity","trial_index":50,"time_elapsed":345201,"internal_node_id":"0.0-6.0-44.0"},{"sim_score":5,"rt":5975,"stimulus":"[\"img/0898/f3a3f225-1248-4ac7-b93b-f0ff28485bf3.jpg\",\"img/0868/5fa7f9d0-f0e5-454c-8224-74d964818f56.jpg\"]","trial_type":"similarity","trial_index":51,"time_elapsed":352182,"internal_node_id":"0.0-6.0-45.0"},{"sim_score":2,"rt":4185,"stimulus":"[\"img/0901/4d1bed7e-3c4e-4f6c-ada9-4beb66ba9e39.jpg\",\"img/0860/c5ccd1a4-4bb7-48e1-9b25-72cfaf06909b.jpg\"]","trial_type":"similarity","trial_index":52,"time_elapsed":357373,"internal_node_id":"0.0-6.0-46.0"},{"sim_score":2,"rt":5811,"stimulus":"[\"img/0894/1b3888e6-cf36-4c4a-a039-187aa5cb71ac.jpg\",\"img/0902/95a36b6b-9601-4fa5-8fd9-606ea62f9425.jpg\"]","trial_type":"similarity","trial_index":53,"time_elapsed":364192,"internal_node_id":"0.0-6.0-47.0"},{"sim_score":1,"rt":4355,"stimulus":"[\"img/0764/56441045-b648-4ede-9632-3e9c0227080b.jpg\",\"img/0862/7918ca67-5bd3-4606-a5ea-c39fb11a9297.jpg\"]","trial_type":"similarity","trial_index":54,"time_elapsed":369553,"internal_node_id":"0.0-6.0-48.0"},{"sim_score":1,"rt":5099,"stimulus":"[\"img/0881/48ed65a5-471f-41af-86ec-3793805c116d.jpg\",\"img/0758/caa93da2-9edf-49fa-96b9-32dedd8f5078.jpg\"]","trial_type":"similarity","trial_index":55,"time_elapsed":375660,"internal_node_id":"0.0-6.0-49.0"},{"sim_score":6,"rt":5372,"stimulus":"[\"img/0766/e8052e17-9dae-4139-802b-6e590cb2d526.jpg\",\"img/0769/8c7cf147-1780-4d5c-8ddf-5ea23ff03ac9.jpg\"]","trial_type":"similarity","trial_index":56,"time_elapsed":382038,"internal_node_id":"0.0-6.0-50.0"},{"sim_score":7,"rt":4078,"stimulus":"[\"img/0875/5a7c4e35-6514-4e12-8879-d16071da4cd6.jpg\",\"img/0866/386235d2-6857-41e7-88a8-25cfc3430025.jpg\"]","trial_type":"similarity","trial_index":57,"time_elapsed":387122,"internal_node_id":"0.0-6.0-51.0"},{"sim_score":5,"rt":5512,"stimulus":"[\"img/0894/792c83e9-a747-4000-bc72-5663d2439edb.jpg\",\"img/0904/4d7d70a3-9477-4921-bda0-f9531d0a5c5b.jpg\"]","trial_type":"similarity","trial_index":58,"time_elapsed":393640,"internal_node_id":"0.0-6.0-52.0"},{"sim_score":1,"rt":3842,"stimulus":"[\"img/0758/7ffbc76b-1fc1-432c-8f7e-9ec8d1b3f643.jpg\",\"img/0769/662ab839-88d1-4ebf-af05-9b2980cad943.jpg\"]","trial_type":"similarity","trial_index":59,"time_elapsed":398489,"internal_node_id":"0.0-6.0-53.0"},{"sim_score":2,"rt":4569,"stimulus":"[\"img/0902/ca3160ba-ad5d-459f-a1b6-8b4f3c85ecd5.jpg\",\"img/0874/bf14b896-e930-4fd9-9c05-2e83317a2773.jpg\"]","trial_type":"similarity","trial_index":60,"time_elapsed":404065,"internal_node_id":"0.0-6.0-54.0"},{"sim_score":1,"rt":4380,"stimulus":"[\"img/0903/470acfd5-5571-4a7b-b3a4-28d87e098138.jpg\",\"img/0862/e0f1a4e9-e1b6-45f7-af67-89f334e6630d.jpg\"]","trial_type":"similarity","trial_index":61,"time_elapsed":409451,"internal_node_id":"0.0-6.0-55.0"},{"sim_score":2,"rt":4077,"stimulus":"[\"img/0866/945c6710-d15b-4a5b-a8f6-69af0850357f.jpg\",\"img/0894/38cf335f-f76f-4349-8d65-e20cd6859565.jpg\"]","trial_type":"similarity","trial_index":62,"time_elapsed":414536,"internal_node_id":"0.0-6.0-56.0"},{"sim_score":4,"rt":5591,"stimulus":"[\"img/0867/db7e032f-162b-46f5-ae67-2b29679adee4.jpg\",\"img/0904/1d10df11-b5c8-4370-9a6b-097a7f965895.jpg\"]","trial_type":"similarity","trial_index":63,"time_elapsed":421133,"internal_node_id":"0.0-6.0-57.0"},{"sim_score":1,"rt":4823,"stimulus":"[\"img/0875/527ced51-8e53-4aab-ab05-86df219104c0.jpg\",\"img/0881/f037e3b0-09cb-4a83-b2d9-6a71fe474e63.jpg\"]","trial_type":"similarity","trial_index":64,"time_elapsed":426964,"internal_node_id":"0.0-6.0-58.0"},{"sim_score":1,"rt":3945,"stimulus":"[\"img/0866/93a27239-8317-4e08-98ca-d8b1ff298e07.jpg\",\"img/0860/b03b963d-949b-4d8d-b19c-4950c89eeca2.jpg\"]","trial_type":"similarity","trial_index":65,"time_elapsed":431915,"internal_node_id":"0.0-6.0-59.0"},{"sim_score":2,"rt":5540,"stimulus":"[\"img/0903/bf0a7d60-eca5-44b0-bafd-baf21db9904b.jpg\",\"img/0866/6f2a90d7-14f1-4f1b-bd64-fc0af6b9fe44.jpg\"]","trial_type":"similarity","trial_index":66,"time_elapsed":438460,"internal_node_id":"0.0-6.0-60.0"},{"sim_score":7,"rt":4617,"stimulus":"[\"img/0860/31ff6436-98bf-4652-bed2-40f627229568.jpg\",\"img/0875/03c3c331-738b-4446-af92-3d7386b08c2e.jpg\"]","trial_type":"similarity","trial_index":67,"time_elapsed":444083,"internal_node_id":"0.0-6.0-61.0"},{"sim_score":1,"rt":4828,"stimulus":"[\"img/0898/5f699581-3853-4547-856c-12f419ba5af7.jpg\",\"img/0862/eefa5588-9efd-4591-aa5f-a2e17c7d7bcc.jpg\"]","trial_type":"similarity","trial_index":68,"time_elapsed":449918,"internal_node_id":"0.0-6.0-62.0"},{"sim_score":1,"rt":5253,"stimulus":"[\"img/0902/cdec1bc6-7f90-4f72-9e01-f5a4111bac1d.jpg\",\"img/0766/2da002a4-05c9-4f5c-9ed7-433b4183e273.jpg\"]","trial_type":"similarity","trial_index":69,"time_elapsed":456179,"internal_node_id":"0.0-6.0-63.0"},{"sim_score":1,"rt":4190,"stimulus":"[\"img/0758/9fb5b2fe-3f00-4fe6-973c-1ce10d5f4cd5.jpg\",\"img/0864/c22faebd-9c53-47bc-ada3-b9a30c688e75.jpg\"]","trial_type":"similarity","trial_index":70,"time_elapsed":461377,"internal_node_id":"0.0-6.0-64.0"},{"sim_score":1,"rt":4039,"stimulus":"[\"img/0894/133a1636-d123-4893-873c-1718050f832a.jpg\",\"img/0860/8277806e-b684-4474-8f7b-3fca946d7d4f.jpg\"]","trial_type":"similarity","trial_index":71,"time_elapsed":466422,"internal_node_id":"0.0-6.0-65.0"},{"sim_score":1,"rt":3872,"stimulus":"[\"img/0899/25ae6ec8-9565-49fe-a8bb-8d0666f52716.jpg\",\"img/0868/0d3abd3a-b6c3-4584-a9f7-e2da63748b3d.jpg\"]","trial_type":"similarity","trial_index":72,"time_elapsed":471300,"internal_node_id":"0.0-6.0-66.0"},{"sim_score":1,"rt":3778,"stimulus":"[\"img/0866/a15b02be-11bb-43e3-b0e0-ecc3bd7dfc49.jpg\",\"img/0862/de9ad88c-b522-430a-8ee9-eb06a9f85df5.jpg\"]","trial_type":"similarity","trial_index":73,"time_elapsed":476086,"internal_node_id":"0.0-6.0-67.0"},{"sim_score":1,"rt":3131,"stimulus":"[\"img/0860/524b2e98-5767-4d53-942c-ebae6925659b.jpg\",\"img/0758/7fba58df-2a7a-4b76-8a8f-62739f97f271.jpg\"]","trial_type":"similarity","trial_index":74,"time_elapsed":480225,"internal_node_id":"0.0-6.0-68.0"},{"sim_score":5,"rt":4259,"stimulus":"[\"img/0902/a6fb6dd5-696c-47ec-be7d-d7b88f1544f1.jpg\",\"img/0867/50a1b60e-3a29-44bf-b606-d4bd3746fea9.jpg\"]","trial_type":"similarity","trial_index":75,"time_elapsed":485492,"internal_node_id":"0.0-6.0-69.0"},{"sim_score":1,"rt":3504,"stimulus":"[\"img/0862/f188d4f0-76a4-4102-818c-a209969d73a5.jpg\",\"img/0901/b453df0b-4c39-49bb-8ced-6127efffa898.jpg\"]","trial_type":"similarity","trial_index":76,"time_elapsed":490005,"internal_node_id":"0.0-6.0-70.0"},{"sim_score":7,"rt":4628,"stimulus":"[\"img/0867/6e19c858-b606-45b2-a4c6-910a73f1d82c.jpg\",\"img/0866/be24ab58-230e-4db8-9f45-ff04c9aec6bb.jpg\"]","trial_type":"similarity","trial_index":77,"time_elapsed":495642,"internal_node_id":"0.0-6.0-71.0"},{"sim_score":2,"rt":5526,"stimulus":"[\"img/0860/4c530c3c-6aab-492a-94d1-9c01797bde40.jpg\",\"img/0904/e9423a8c-f946-43ad-ab7b-931acef870e2.jpg\"]","trial_type":"similarity","trial_index":78,"time_elapsed":502174,"internal_node_id":"0.0-6.0-72.0"},{"sim_score":5,"rt":5295,"stimulus":"[\"img/0875/a4935837-7d3c-4df6-88c1-36a94d4991ca.jpg\",\"img/0899/a048912c-b12c-40e3-90af-46b69b0cc4fe.jpg\"]","trial_type":"similarity","trial_index":79,"time_elapsed":508477,"internal_node_id":"0.0-6.0-73.0"},{"sim_score":2,"rt":5519,"stimulus":"[\"img/0899/0adc0bc3-6fca-4078-be6f-d45ddf1653d5.jpg\",\"img/0758/d57c2592-a317-4f63-91be-91a3a9afd222.jpg\"]","trial_type":"similarity","trial_index":80,"time_elapsed":515002,"internal_node_id":"0.0-6.0-74.0"},{"sim_score":7,"rt":3952,"stimulus":"[\"img/0862/e8cc3bdf-cc43-4565-bccf-492626c70953.jpg\",\"img/0875/fb732ab5-013a-4366-9f65-27811ed157e9.jpg\"]","trial_type":"similarity","trial_index":81,"time_elapsed":523635,"internal_node_id":"0.0-6.0-75.0"},{"sim_score":1,"rt":3489,"stimulus":"[\"img/0901/a9b9c0a0-8aed-4888-a78a-65fb7e764d13.jpg\",\"img/0894/492d2f29-d7b9-4422-8be8-47fd58bfaa8b.jpg\"]","trial_type":"similarity","trial_index":82,"time_elapsed":528130,"internal_node_id":"0.0-6.0-76.0"},{"sim_score":4,"rt":7131,"stimulus":"[\"img/0766/33519c22-aaa4-49d7-8d49-ab551db1945e.jpg\",\"img/0758/ddc336e9-a8b6-4bb9-937a-c7e25e0e9250.jpg\"]","trial_type":"similarity","trial_index":83,"time_elapsed":536268,"internal_node_id":"0.0-6.0-77.0"},{"sim_score":4,"rt":5153,"stimulus":"[\"img/0894/b422d5c6-3c5a-49ae-a53e-7e88ac993f49.jpg\",\"img/0764/e30dba15-e68a-4659-89db-e1654b52fe02.jpg\"]","trial_type":"similarity","trial_index":84,"time_elapsed":542428,"internal_node_id":"0.0-6.0-78.0"},{"sim_score":6,"rt":3559,"stimulus":"[\"img/0860/99c589b9-9140-4d17-90c0-b344323edcda.jpg\",\"img/0867/a498eef3-9fa4-4ab2-9778-4ae82ac40dc5.jpg\"]","trial_type":"similarity","trial_index":85,"time_elapsed":546993,"internal_node_id":"0.0-6.0-79.0"},{"sim_score":3,"rt":3946,"stimulus":"[\"img/0898/40f99fb2-64d2-4e72-8a7f-a1cf60741e69.jpg\",\"img/0901/ae1e6ce4-2e10-4ca9-b1e7-21628637ab74.jpg\"]","trial_type":"similarity","trial_index":86,"time_elapsed":551945,"internal_node_id":"0.0-6.0-80.0"},{"sim_score":2,"rt":3091,"stimulus":"[\"img/0874/7e4f2150-3b59-4a36-b5da-a4e0ba410531.jpg\",\"img/0764/ba0c0955-acbb-457d-b1c2-f006b88121d5.jpg\"]","trial_type":"similarity","trial_index":87,"time_elapsed":556042,"internal_node_id":"0.0-6.0-81.0"},{"sim_score":1,"rt":3214,"stimulus":"[\"img/0899/0e1d936a-dbe2-4afc-9f19-7b7a1ae6c9ed.jpg\",\"img/0862/1c20f772-3a51-4a80-aac0-f57dc9f86c28.jpg\"]","trial_type":"similarity","trial_index":88,"time_elapsed":560263,"internal_node_id":"0.0-6.0-82.0"},{"sim_score":1,"rt":3978,"stimulus":"[\"img/0766/db750ba0-ce04-46e1-b601-e1b80212bad2.jpg\",\"img/0901/0adb3bd6-d758-4ba7-9723-3ad6cac05bd5.jpg\"]","trial_type":"similarity","trial_index":89,"time_elapsed":565247,"internal_node_id":"0.0-6.0-83.0"},{"sim_score":2,"rt":4363,"stimulus":"[\"img/0881/54ea8e77-c7e5-4197-b7fa-00b7020849a7.jpg\",\"img/0898/01bfe666-3510-4fc7-964f-d00d28732dc8.jpg\"]","trial_type":"similarity","trial_index":90,"time_elapsed":570618,"internal_node_id":"0.0-6.0-84.0"},{"sim_score":4,"rt":5868,"stimulus":"[\"img/0868/7b212364-ff5f-4e28-9241-7eb6ea00161b.jpg\",\"img/0860/61fb959d-d4d9-4de4-9e4e-4fa62b4cfcd5.jpg\"]","trial_type":"similarity","trial_index":91,"time_elapsed":577493,"internal_node_id":"0.0-6.0-85.0"},{"sim_score":5,"rt":6628,"stimulus":"[\"img/0758/6cd8c362-ae2a-41eb-80a3-3a4f7ace1530.jpg\",\"img/0868/fd307a36-9a3a-47d7-ab7c-f810d0b35040.jpg\"]","trial_type":"similarity","trial_index":92,"time_elapsed":585129,"internal_node_id":"0.0-6.0-86.0"},{"sim_score":3,"rt":4838,"stimulus":"[\"img/0864/1d15626a-2f7c-410f-819c-0fa2c967e95e.jpg\",\"img/0894/bd34223a-2f66-4e16-9d18-193a746b69ff.jpg\"]","trial_type":"similarity","trial_index":93,"time_elapsed":590978,"internal_node_id":"0.0-6.0-87.0"},{"sim_score":2,"rt":5604,"stimulus":"[\"img/0866/f756f7d1-9ad8-4a34-9ef6-7a443d705bfe.jpg\",\"img/0902/c9c74d2d-9b82-42d7-a9d0-3b8ff67ff81e.jpg\"]","trial_type":"similarity","trial_index":94,"time_elapsed":597587,"internal_node_id":"0.0-6.0-88.0"},{"sim_score":4,"rt":5189,"stimulus":"[\"img/0769/458d9c77-b844-40b5-bb1b-1e3bbd4da64e.jpg\",\"img/0867/f8488a47-94ee-4166-952c-44e16cf172f6.jpg\"]","trial_type":"similarity","trial_index":95,"time_elapsed":603783,"internal_node_id":"0.0-6.0-89.0"},{"sim_score":2,"rt":4187,"stimulus":"[\"img/0874/767f289c-9814-4496-803f-745cc8913d1f.jpg\",\"img/0875/e7e66b13-b573-431e-b85e-288ce04a35a3.jpg\"]","trial_type":"similarity","trial_index":96,"time_elapsed":608975,"internal_node_id":"0.0-6.0-90.0"},{"sim_score":7,"rt":5237,"stimulus":"[\"img/0864/ea327690-500b-4137-bf91-451b309fe6a5.jpg\",\"img/0874/adf9a8f1-c40b-402b-b95b-1e85a54a7b62.jpg\"]","trial_type":"similarity","trial_index":97,"time_elapsed":615219,"internal_node_id":"0.0-6.0-91.0"},{"sim_score":2,"rt":3255,"stimulus":"[\"img/0881/667e2147-d457-4f32-aa5f-6ab86e5848f1.jpg\",\"img/0862/53a9cf7c-93c4-41b9-952f-07d17f7a17b2.jpg\"]","trial_type":"similarity","trial_index":98,"time_elapsed":619481,"internal_node_id":"0.0-6.0-92.0"},{"sim_score":7,"rt":4608,"stimulus":"[\"img/0864/87c467d3-abca-482f-ad80-3766c21b1bb3.jpg\",\"img/0881/d1982897-8d8d-4704-a940-1ee5d07a1f15.jpg\"]","trial_type":"similarity","trial_index":99,"time_elapsed":625096,"internal_node_id":"0.0-6.0-93.0"},{"sim_score":2,"rt":3933,"stimulus":"[\"img/0899/1b3457ea-87d4-4946-a01c-aac1863ed46c.jpg\",\"img/0901/5657dd86-0ff9-4753-ba2b-9dfb223e5c89.jpg\"]","trial_type":"similarity","trial_index":100,"time_elapsed":630035,"internal_node_id":"0.0-6.0-94.0"},{"sim_score":1,"rt":3676,"stimulus":"[\"img/0874/99f6563c-8a8d-4c1c-a41d-667b618c3fd5.jpg\",\"img/0766/33aa9ebb-c9f5-418f-8c8b-c77861889568.jpg\"]","trial_type":"similarity","trial_index":101,"time_elapsed":634718,"internal_node_id":"0.0-6.0-95.0"},{"sim_score":1,"rt":3571,"stimulus":"[\"img/0881/344de456-b358-4887-bd0e-e4c3278af887.jpg\",\"img/0899/66ab3178-c3fe-4455-ad17-d5952b08e018.jpg\"]","trial_type":"similarity","trial_index":102,"time_elapsed":639295,"internal_node_id":"0.0-6.0-96.0"},{"sim_score":6,"rt":5006,"stimulus":"[\"img/0862/47ed5efd-4ec9-4b74-bb4e-a5f5cf0c3e7d.jpg\",\"img/0902/71c03003-03ef-4b0f-8229-e0c857150a5d.jpg\"]","trial_type":"similarity","trial_index":103,"time_elapsed":645308,"internal_node_id":"0.0-6.0-97.0"},{"sim_score":5,"rt":6904,"stimulus":"[\"img/0899/76ad07e2-ca25-45eb-84f2-8d80b8ca3e26.jpg\",\"img/0764/23ea9375-f801-4a96-9925-7d453da887c7.jpg\"]","trial_type":"similarity","trial_index":104,"time_elapsed":653217,"internal_node_id":"0.0-6.0-98.0"},{"sim_score":7,"rt":4119,"stimulus":"[\"img/0758/6e95579b-5166-487c-b8cb-e417c6a218e3.jpg\",\"img/0862/92f0146c-20c4-482e-aef5-adb693790338.jpg\"]","trial_type":"similarity","trial_index":105,"time_elapsed":658342,"internal_node_id":"0.0-6.0-99.0"},{"sim_score":6,"rt":4938,"stimulus":"[\"img/0764/e0788029-9d7f-414c-b747-46d2a99f7c86.jpg\",\"img/0898/b3290bf9-215b-4b45-b21a-65bdf73f142f.jpg\"]","trial_type":"similarity","trial_index":106,"time_elapsed":664285,"internal_node_id":"0.0-6.0-100.0"},{"sim_score":7,"rt":4437,"stimulus":"[\"img/0901/4f9cffe0-c0be-4d7f-bacd-9d51efd19b4a.jpg\",\"img/0902/97022122-01e4-46c3-a34f-c6260ad28428.jpg\"]","trial_type":"similarity","trial_index":107,"time_elapsed":669729,"internal_node_id":"0.0-6.0-101.0"},{"sim_score":3,"rt":4134,"stimulus":"[\"img/0764/ca957454-126a-4bd3-b29c-7174a24c25dc.jpg\",\"img/0868/1a62b2b2-18f5-466e-b564-5176a57c565e.jpg\"]","trial_type":"similarity","trial_index":108,"time_elapsed":674869,"internal_node_id":"0.0-6.0-102.0"},{"sim_score":4,"rt":5164,"stimulus":"[\"img/0769/e31b3bd8-efcb-413e-aa8c-75fac2b8f2ac.jpg\",\"img/0881/f6bd3b96-dc40-4e99-8681-bc3a35cf896d.jpg\"]","trial_type":"similarity","trial_index":109,"time_elapsed":681041,"internal_node_id":"0.0-6.0-103.0"},{"sim_score":2,"rt":2308,"stimulus":"[\"img/0864/300bb811-8b3c-4c42-8653-6097c3725197.jpg\",\"img/0769/9ea27d61-3d55-418c-8d14-82e90f656f01.jpg\"]","trial_type":"similarity","trial_index":110,"time_elapsed":684355,"internal_node_id":"0.0-6.0-104.0"},{"sim_score":7,"rt":3816,"stimulus":"[\"img/0866/9b38d691-1802-4959-ab3f-fc902f0e4ea6.jpg\",\"img/0868/d6d1f30d-4323-435a-b194-7892521bc57e.jpg\"]","trial_type":"similarity","trial_index":111,"time_elapsed":689179,"internal_node_id":"0.0-6.0-105.0"},{"sim_score":2,"rt":4042,"stimulus":"[\"img/0868/e0aff734-077f-40dd-9781-74821abd3621.jpg\",\"img/0862/ba89835a-408c-480b-8594-ed4ffa97eb5c.jpg\"]","trial_type":"similarity","trial_index":112,"time_elapsed":694229,"internal_node_id":"0.0-6.0-106.0"},{"sim_score":1,"rt":3946,"stimulus":"[\"img/0766/a0270213-fa0e-4972-8b56-228c3e01ff90.jpg\",\"img/0898/c3cecf20-f7fd-45fa-97d0-dc0a63e8d6c0.jpg\"]","trial_type":"similarity","trial_index":113,"time_elapsed":699182,"internal_node_id":"0.0-6.0-107.0"},{"sim_score":6,"rt":5435,"stimulus":"[\"img/0898/08c72dac-f8ad-407a-9ce6-8c9a5d679c3a.jpg\",\"img/0864/6e846d43-94a6-4b37-a268-65eda979f052.jpg\"]","trial_type":"similarity","trial_index":114,"time_elapsed":705623,"internal_node_id":"0.0-6.0-108.0"},{"sim_score":1,"rt":5582,"stimulus":"[\"img/0868/15dd6fd7-791e-4b53-b203-195d617521a4.jpg\",\"img/0902/8af4182a-9af9-4212-a436-9195555112d6.jpg\"]","trial_type":"similarity","trial_index":115,"time_elapsed":712212,"internal_node_id":"0.0-6.0-109.0"},{"sim_score":5,"rt":5030,"stimulus":"[\"img/0904/2f88ce53-02d0-4f95-a082-182c56a0eeb4.jpg\",\"img/0764/03c07b98-3f18-4b71-bb70-ecff564a78d1.jpg\"]","trial_type":"similarity","trial_index":116,"time_elapsed":718248,"internal_node_id":"0.0-6.0-110.0"},{"sim_score":1,"rt":5693,"stimulus":"[\"img/0894/4739e06d-c31e-4bf1-bf91-c97fa9afb456.jpg\",\"img/0875/d59ff733-eaff-4ee2-9443-06954dd0bcb6.jpg\"]","trial_type":"similarity","trial_index":117,"time_elapsed":724947,"internal_node_id":"0.0-6.0-111.0"},{"sim_score":1,"rt":5564,"stimulus":"[\"img/0868/293079b8-7e0c-4afd-a390-1e5d35fe3ded.jpg\",\"img/0874/995f0332-0439-4eb4-add3-957335dbf6d9.jpg\"]","trial_type":"similarity","trial_index":118,"time_elapsed":731517,"internal_node_id":"0.0-6.0-112.0"},{"sim_score":7,"rt":4801,"stimulus":"[\"img/0904/696ebb60-8891-417a-91fd-c53218907a95.jpg\",\"img/0898/ec565187-2e31-4fdd-9a5c-153d0c789ae0.jpg\"]","trial_type":"similarity","trial_index":119,"time_elapsed":740616,"internal_node_id":"0.0-6.0-113.0"},{"sim_score":2,"rt":4041,"stimulus":"[\"img/0860/c7047cd2-7cc1-41b6-8a34-c0986774975f.jpg\",\"img/0766/b84598d0-5b41-4841-88b0-b441b48289f5.jpg\"]","trial_type":"similarity","trial_index":120,"time_elapsed":745665,"internal_node_id":"0.0-6.0-114.0"},{"sim_score":2,"rt":4941,"stimulus":"[\"img/0894/0130a973-d993-41f8-874a-fee23d9ac11f.jpg\",\"img/0874/a82926a3-0b43-4add-803c-d5f9ea7798ee.jpg\"]","trial_type":"similarity","trial_index":121,"time_elapsed":751613,"internal_node_id":"0.0-6.0-115.0"},{"sim_score":2,"rt":5445,"stimulus":"[\"img/0899/ddf96ade-692e-4602-bd22-dedbb46401bc.jpg\",\"img/0903/5995f4a8-fa82-46f8-8760-fd7800a5ca34.jpg\"]","trial_type":"similarity","trial_index":122,"time_elapsed":758063,"internal_node_id":"0.0-6.0-116.0"},{"sim_score":1,"rt":4727,"stimulus":"[\"img/0881/adc02f34-ce97-4aef-850f-00519df06fd7.jpg\",\"img/0764/952d7adc-dc40-4aee-acce-18c2a1d02ea1.jpg\"]","trial_type":"similarity","trial_index":123,"time_elapsed":763796,"internal_node_id":"0.0-6.0-117.0"},{"sim_score":5,"rt":4958,"stimulus":"[\"img/0903/6378ee1e-3d2b-48d2-87be-bebda32c8268.jpg\",\"img/0769/f73c5138-2f4c-4354-981c-129dff9cc734.jpg\"]","trial_type":"similarity","trial_index":124,"time_elapsed":769760,"internal_node_id":"0.0-6.0-118.0"},{"sim_score":7,"rt":4479,"stimulus":"[\"img/0901/5b97abf9-f0c8-4fd1-b921-36d574779078.jpg\",\"img/0904/0d25eb24-bb20-4e8d-9787-8b489558b4cb.jpg\"]","trial_type":"similarity","trial_index":125,"time_elapsed":775246,"internal_node_id":"0.0-6.0-119.0"},{"sim_score":1,"rt":4042,"stimulus":"[\"img/0860/94ef7afc-e0e6-4a15-98c6-0bfac82bc832.jpg\",\"img/0881/609a5e93-38b5-4940-8627-2bf8fad7f802.jpg\"]","trial_type":"similarity","trial_index":126,"time_elapsed":780295,"internal_node_id":"0.0-6.0-120.0"},{"sim_score":2,"rt":5427,"stimulus":"[\"img/0758/b76ceca7-95ac-46e4-ac13-da02c8e93be9.jpg\",\"img/0874/ca23d307-fc00-4d7d-9106-584c6eb21b4d.jpg\"]","trial_type":"similarity","trial_index":127,"time_elapsed":786729,"internal_node_id":"0.0-6.0-121.0"},{"sim_score":2,"rt":4335,"stimulus":"[\"img/0901/fb0a8e69-7f19-4e6e-a6bb-a48f97f9b4f3.jpg\",\"img/0769/f2740c58-7c02-433f-920b-746b0b75435b.jpg\"]","trial_type":"similarity","trial_index":128,"time_elapsed":792071,"internal_node_id":"0.0-6.0-122.0"},{"sim_score":2,"rt":5365,"stimulus":"[\"img/0902/04a6ad4a-afc6-4871-8225-56b299af7b6b.jpg\",\"img/0904/63dd06dd-dccb-47ba-9740-eb33239e18a7.jpg\"]","trial_type":"similarity","trial_index":129,"time_elapsed":798443,"internal_node_id":"0.0-6.0-123.0"},{"sim_score":5,"rt":5696,"stimulus":"[\"img/0899/0433d056-aa30-4f8a-9aa1-abbb951e4edd.jpg\",\"img/0864/65210d57-1153-4657-886a-32e758f49b4a.jpg\"]","trial_type":"similarity","trial_index":130,"time_elapsed":805147,"internal_node_id":"0.0-6.0-124.0"},{"sim_score":1,"rt":4353,"stimulus":"[\"img/0766/d512b99c-a2dc-40d7-8e86-827323a0cbcf.jpg\",\"img/0868/09a9ef4d-d000-4cfa-a6aa-ebec7c2edeb4.jpg\"]","trial_type":"similarity","trial_index":131,"time_elapsed":810507,"internal_node_id":"0.0-6.0-125.0"},{"sim_score":1,"rt":3317,"stimulus":"[\"img/0764/f9f890e6-3c2f-40cd-84e9-85e0b54cb28e.jpg\",\"img/0864/e336a4c5-6648-4fd7-b2f6-93a3fb83f8c6.jpg\"]","trial_type":"similarity","trial_index":132,"time_elapsed":814830,"internal_node_id":"0.0-6.0-126.0"},{"sim_score":2,"rt":4477,"stimulus":"[\"img/0899/d8f2dd94-570e-4e8c-a087-d96090fb9e8c.jpg\",\"img/0866/d493a2c8-66eb-44b4-be02-2f327b700b7c.jpg\"]","trial_type":"similarity","trial_index":133,"time_elapsed":820314,"internal_node_id":"0.0-6.0-127.0"},{"sim_score":1,"rt":4044,"stimulus":"[\"img/0901/77087ed2-6e12-4329-b2a5-605bca6d972d.jpg\",\"img/0881/5fe04dd0-5c74-47b7-99c8-b068db9ca26a.jpg\"]","trial_type":"similarity","trial_index":134,"time_elapsed":825366,"internal_node_id":"0.0-6.0-128.0"},{"sim_score":6,"rt":4284,"stimulus":"[\"img/0898/79233891-305a-4a6a-8ddf-5c8604858203.jpg\",\"img/0903/4cbdc464-e562-4ec2-9bb6-15f894fdf528.jpg\"]","trial_type":"similarity","trial_index":135,"time_elapsed":830659,"internal_node_id":"0.0-6.0-129.0"},{"sim_score":2,"rt":3540,"stimulus":"[\"img/0894/7fb082e0-ce79-485c-9109-04367fb32275.jpg\",\"img/0867/8ba0c5a7-c7e4-42cf-a80a-543763b90779.jpg\"]","trial_type":"similarity","trial_index":136,"time_elapsed":835205,"internal_node_id":"0.0-6.0-130.0"},{"sim_score":1,"rt":3424,"stimulus":"[\"img/0874/29830da7-be5f-44e5-b141-652a0ccf7269.jpg\",\"img/0903/5248eedd-7e6a-4d39-91b0-06ec227f3ed0.jpg\"]","trial_type":"similarity","trial_index":137,"time_elapsed":839635,"internal_node_id":"0.0-6.0-131.0"},{"sim_score":2,"rt":3302,"stimulus":"[\"img/0899/8de08897-b430-42fe-9d42-840670b80f94.jpg\",\"img/0898/81b08535-2020-4c15-9ce4-2f1e460755ae.jpg\"]","trial_type":"similarity","trial_index":138,"time_elapsed":843945,"internal_node_id":"0.0-6.0-132.0"},{"sim_score":2,"rt":3342,"stimulus":"[\"img/0867/a749dddb-69f0-44a6-acdc-2bf295cf6dcc.jpg\",\"img/0764/1f95ab5f-fb65-4d70-b5db-d6bd6351a8aa.jpg\"]","trial_type":"similarity","trial_index":139,"time_elapsed":848293,"internal_node_id":"0.0-6.0-133.0"},{"sim_score":1,"rt":4663,"stimulus":"[\"img/0866/23a224f3-2012-4fc8-8e0f-3c36f8de27fd.jpg\",\"img/0769/0fe124d3-bcad-45f6-b64d-8f6eb8ee5251.jpg\"]","trial_type":"similarity","trial_index":140,"time_elapsed":853962,"internal_node_id":"0.0-6.0-134.0"},{"sim_score":1,"rt":3135,"stimulus":"[\"img/0860/e8b8c51e-1834-4875-8b61-6c5bc9b178bd.jpg\",\"img/0898/8605a25b-6895-476d-8c13-df7a83f96093.jpg\"]","trial_type":"similarity","trial_index":141,"time_elapsed":858103,"internal_node_id":"0.0-6.0-135.0"},{"sim_score":2,"rt":3074,"stimulus":"[\"img/0881/7e822106-76f7-4b10-a805-14dc68b2cfaf.jpg\",\"img/0903/8635cf25-2648-4fe9-8c42-79d2598e999c.jpg\"]","trial_type":"similarity","trial_index":142,"time_elapsed":862182,"internal_node_id":"0.0-6.0-136.0"},{"sim_score":7,"rt":5168,"stimulus":"[\"img/0894/7f2f31fd-6618-41c6-b65a-0fd8b2851bc9.jpg\",\"img/0766/006035d8-c736-4daf-bbe4-a9e373af9da6.jpg\"]","trial_type":"similarity","trial_index":143,"time_elapsed":868356,"internal_node_id":"0.0-6.0-137.0"},{"sim_score":1,"rt":4467,"stimulus":"[\"img/0860/8a92e21b-6a32-4e4a-a445-2d5a487ed0a4.jpg\",\"img/0764/fb7d4a20-a475-465e-a74f-aa39a0d33d16.jpg\"]","trial_type":"similarity","trial_index":144,"time_elapsed":873829,"internal_node_id":"0.0-6.0-138.0"},{"sim_score":2,"rt":4524,"stimulus":"[\"img/0769/35364db7-e0d5-40ef-93dc-faf9dfb95136.jpg\",\"img/0902/e5a46bda-30d1-41ca-b36d-b8529b5a63d1.jpg\"]","trial_type":"similarity","trial_index":145,"time_elapsed":879360,"internal_node_id":"0.0-6.0-139.0"},{"sim_score":7,"rt":4942,"stimulus":"[\"img/0904/9b3568cc-3cf7-42be-9df3-fdafde7a58b8.jpg\",\"img/0903/59defeb8-98bd-4570-a2f8-9bd189e68ef4.jpg\"]","trial_type":"similarity","trial_index":146,"time_elapsed":885310,"internal_node_id":"0.0-6.0-140.0"},{"sim_score":7,"rt":4858,"stimulus":"[\"img/0764/4952d0a0-c9be-471a-8ec7-94a37bf4051d.jpg\",\"img/0769/688d0c52-ad73-4065-a5eb-f8c10d076bff.jpg\"]","trial_type":"similarity","trial_index":147,"time_elapsed":891176,"internal_node_id":"0.0-6.0-141.0"},{"sim_score":7,"rt":5413,"stimulus":"[\"img/0902/0db94c50-f1fb-4091-953c-29ca0466bee2.jpg\",\"img/0881/ee44e27f-d662-4608-b265-e7ffa19b216f.jpg\"]","trial_type":"similarity","trial_index":148,"time_elapsed":897595,"internal_node_id":"0.0-6.0-142.0"},{"sim_score":2,"rt":5864,"stimulus":"[\"img/0866/02f5e6b9-52b7-448c-9708-5b460d0c9a23.jpg\",\"img/0864/c3b63e8f-ea39-4d70-a1f2-b3fe4be8eb75.jpg\"]","trial_type":"similarity","trial_index":149,"time_elapsed":904466,"internal_node_id":"0.0-6.0-143.0"},{"sim_score":7,"rt":5209,"stimulus":"[\"img/0902/7499db23-3a41-41ea-ab5b-6ab4d4c3ed35.jpg\",\"img/0898/993d8f2d-bef7-4251-a193-0f93a32b7763.jpg\"]","trial_type":"similarity","trial_index":150,"time_elapsed":910681,"internal_node_id":"0.0-6.0-144.0"},{"sim_score":2,"rt":5872,"stimulus":"[\"img/0862/ee3b7bff-4a70-4e84-9bea-4a565e456acb.jpg\",\"img/0864/b3c4e378-28f0-4699-9338-2a257b4bca04.jpg\"]","trial_type":"similarity","trial_index":151,"time_elapsed":917559,"internal_node_id":"0.0-6.0-145.0"},{"sim_score":2,"rt":6978,"stimulus":"[\"img/0875/34132396-d896-4c2d-8087-646dd867e769.jpg\",\"img/0898/68476bbb-34a1-42d9-8bc1-deab783d4489.jpg\"]","trial_type":"similarity","trial_index":152,"time_elapsed":925544,"internal_node_id":"0.0-6.0-146.0"},{"sim_score":6,"rt":4033,"stimulus":"[\"img/0874/a3bc679d-619f-4db6-bb68-116dcb757d9c.jpg\",\"img/0881/dea58fad-b4f1-41d9-bd3f-916eff19a3fd.jpg\"]","trial_type":"similarity","trial_index":153,"time_elapsed":930583,"internal_node_id":"0.0-6.0-147.0"},{"sim_score":1,"rt":4278,"stimulus":"[\"img/0758/61d64021-9214-4951-bdf8-f871f9827cf9.jpg\",\"img/0894/5ff3c4f6-52e2-4075-8679-be0312e59703.jpg\"]","trial_type":"similarity","trial_index":154,"time_elapsed":935867,"internal_node_id":"0.0-6.0-148.0"},{"sim_score":2,"rt":5134,"stimulus":"[\"img/0904/96e503ea-6630-4996-85f2-0237688ce441.jpg\",\"img/0864/66091c27-e588-4476-8af9-265dc6be4156.jpg\"]","trial_type":"similarity","trial_index":155,"time_elapsed":942008,"internal_node_id":"0.0-6.0-149.0"},{"sim_score":7,"rt":4933,"stimulus":"[\"img/0769/4680bcc3-8fbc-4643-8f9a-12aa0e780b64.jpg\",\"img/0899/51a7a498-98c7-42d7-bca8-bc2d8f0b5831.jpg\"]","trial_type":"similarity","trial_index":156,"time_elapsed":947945,"internal_node_id":"0.0-6.0-150.0"},{"sim_score":2,"rt":4225,"stimulus":"[\"img/0764/55b3fab1-b809-4d38-a461-3f40ce062f52.jpg\",\"img/0903/647ce311-8c71-479a-8361-961db1457139.jpg\"]","trial_type":"similarity","trial_index":157,"time_elapsed":954996,"internal_node_id":"0.0-6.0-151.0"},{"sim_score":2,"rt":6882,"stimulus":"[\"img/0903/2c7b4aed-6038-4aac-958a-e3e58341c313.jpg\",\"img/0864/0f537697-a314-47c3-a8cc-8df23b7e536c.jpg\"]","trial_type":"similarity","trial_index":158,"time_elapsed":962883,"internal_node_id":"0.0-6.0-152.0"},{"sim_score":5,"rt":5277,"stimulus":"[\"img/0894/43216a7f-27bc-4b5a-8841-d122a30da9d9.jpg\",\"img/0881/f4e3e181-b3c9-4af2-a5a4-fc135ab70d2e.jpg\"]","trial_type":"similarity","trial_index":159,"time_elapsed":969166,"internal_node_id":"0.0-6.0-153.0"},{"sim_score":7,"rt":3050,"stimulus":"[\"img/0875/2e13d160-eea1-416b-aff1-d37ab99ecc1d.jpg\",\"img/0867/179ab87a-8eac-4c52-a41f-2e48e3120f09.jpg\"]","trial_type":"similarity","trial_index":160,"time_elapsed":973221,"internal_node_id":"0.0-6.0-154.0"},{"sim_score":1,"rt":2814,"stimulus":"[\"img/0867/f8159067-056c-41f1-a136-c529fe5e970a.jpg\",\"img/0758/d540bee6-b460-4c32-ac57-bc282742d7d4.jpg\"]","trial_type":"similarity","trial_index":161,"time_elapsed":977042,"internal_node_id":"0.0-6.0-155.0"},{"sim_score":1,"rt":3400,"stimulus":"[\"img/0868/3a62db2d-97e9-44a3-b8e3-a48c6f0e423b.jpg\",\"img/0901/00acf6c1-b66e-4060-bb04-4caf29b5a8b0.jpg\"]","trial_type":"similarity","trial_index":162,"time_elapsed":981448,"internal_node_id":"0.0-6.0-156.0"},{"sim_score":6,"rt":4269,"stimulus":"[\"img/0769/8598a429-c671-4d2f-842c-32f681f5e412.jpg\",\"img/0894/11674fa4-285d-44e2-939f-2228c6a64080.jpg\"]","trial_type":"similarity","trial_index":163,"time_elapsed":986721,"internal_node_id":"0.0-6.0-157.0"},{"sim_score":5,"rt":5023,"stimulus":"[\"img/0904/06dacdc5-2206-4fb8-92b7-88042d22833c.jpg\",\"img/0758/335851a0-a55b-46d8-ab05-8463eda48349.jpg\"]","trial_type":"similarity","trial_index":164,"time_elapsed":992751,"internal_node_id":"0.0-6.0-158.0"},{"sim_score":5,"rt":5506,"stimulus":"[\"img/0874/2c9464dd-8a23-4baa-ac94-1ba3af5c15cc.jpg\",\"img/0904/4b8daf2a-13a9-4ea9-9e0b-b265b6e933e7.jpg\"]","trial_type":"similarity","trial_index":165,"time_elapsed":999262,"internal_node_id":"0.0-6.0-159.0"},{"sim_score":2,"rt":3744,"stimulus":"[\"img/0864/9b2490c5-a282-400a-9736-e1a0ecbf1cb7.jpg\",\"img/0901/b13fa50f-dbe0-4d0f-8647-6ac0fd8f40bd.jpg\"]","trial_type":"similarity","trial_index":166,"time_elapsed":1004012,"internal_node_id":"0.0-6.0-160.0"},{"sim_score":1,"rt":2586,"stimulus":"[\"img/0898/cd3aaa3f-efa9-4ab3-8d6f-a6a9273ddf42.jpg\",\"img/0866/c446214b-a368-4c65-ae39-ea46894256ab.jpg\"]","trial_type":"similarity","trial_index":167,"time_elapsed":1007604,"internal_node_id":"0.0-6.0-161.0"},{"sim_score":5,"rt":4922,"stimulus":"[\"img/0766/75c3d627-4f3b-40d5-9d9c-10c8a62db644.jpg\",\"img/0903/71dbc325-b588-4297-a5cf-7f268a722ad9.jpg\"]","trial_type":"similarity","trial_index":168,"time_elapsed":1013533,"internal_node_id":"0.0-6.0-162.0"},{"sim_score":2,"rt":4677,"stimulus":"[\"img/0860/4a022222-056d-461c-ab02-39fac9647552.jpg\",\"img/0899/57476fed-5962-4272-8fc9-b317bb777b54.jpg\"]","trial_type":"similarity","trial_index":169,"time_elapsed":1019216,"internal_node_id":"0.0-6.0-163.0"},{"sim_score":5,"rt":5370,"stimulus":"[\"img/0766/6d32752d-aa05-40dc-9541-640b6e9d6fa1.jpg\",\"img/0862/ad593cc7-cabe-4bb7-8e14-8a447a0717b4.jpg\"]","trial_type":"similarity","trial_index":170,"time_elapsed":1025591,"internal_node_id":"0.0-6.0-164.0"},{"sim_score":2,"rt":3082,"stimulus":"[\"img/0898/b2732712-71c2-45d8-834f-2b2ed5504910.jpg\",\"img/0894/2d2db7b3-e8a3-499b-b63a-14f51bf73882.jpg\"]","trial_type":"similarity","trial_index":171,"time_elapsed":1029679,"internal_node_id":"0.0-6.0-165.0"},{"sim_score":1,"rt":6042,"stimulus":"[\"img/0867/c71dc569-f49c-4397-8381-68b8d726736d.jpg\",\"img/0766/fd064894-7147-4af5-97e9-2089d5472656.jpg\"]","trial_type":"similarity","trial_index":172,"time_elapsed":1036728,"internal_node_id":"0.0-6.0-166.0"},{"sim_score":3,"rt":4980,"stimulus":"[\"img/0904/4e58005d-a2ec-4aaa-b199-445343561396.jpg\",\"img/0862/847e5208-38ec-4f36-949c-296cdd7424ee.jpg\"]","trial_type":"similarity","trial_index":173,"time_elapsed":1042713,"internal_node_id":"0.0-6.0-167.0"},{"sim_score":5,"rt":4971,"stimulus":"[\"img/0866/07c9c966-3c8d-40e7-8128-92b2acbaed5d.jpg\",\"img/0874/8cdb1c07-1c32-46d2-981c-3636560fa6e5.jpg\"]","trial_type":"similarity","trial_index":174,"time_elapsed":1048689,"internal_node_id":"0.0-6.0-168.0"},{"sim_score":3,"rt":3321,"stimulus":"[\"img/0903/ea75f240-fb62-4edb-a709-83e858b202c0.jpg\",\"img/0868/8b0b8473-e2c0-4331-aa56-c3a5c29369da.jpg\"]","trial_type":"similarity","trial_index":175,"time_elapsed":1053017,"internal_node_id":"0.0-6.0-169.0"},{"sim_score":3,"rt":3705,"stimulus":"[\"img/0769/3adfa417-3b90-4aab-b437-5eaa474189cb.jpg\",\"img/0904/25365108-e038-4021-aac9-797f2063b337.jpg\"]","trial_type":"similarity","trial_index":176,"time_elapsed":1057729,"internal_node_id":"0.0-6.0-170.0"},{"sim_score":2,"rt":4495,"stimulus":"[\"img/0875/dbdd643e-6d0e-4a5c-ab57-b9c29b9c981a.jpg\",\"img/0764/50f1b062-d608-4bc0-ab25-b872dcf2ed93.jpg\"]","trial_type":"similarity","trial_index":177,"time_elapsed":1063231,"internal_node_id":"0.0-6.0-171.0"},{"sim_score":3,"rt":5800,"stimulus":"[\"img/0860/e14d67c1-6d92-4f1e-9257-c8607159c19c.jpg\",\"img/0903/12bd8657-92e6-4c36-a06c-597e7a1d51f3.jpg\"]","trial_type":"similarity","trial_index":178,"time_elapsed":1070037,"internal_node_id":"0.0-6.0-172.0"},{"sim_score":3,"rt":5120,"stimulus":"[\"img/0864/efcfbb1b-8197-44c9-b723-40d6c608dd3c.jpg\",\"img/0867/ac1797e4-8afc-48fe-b252-86d1defb1cca.jpg\"]","trial_type":"similarity","trial_index":179,"time_elapsed":1076164,"internal_node_id":"0.0-6.0-173.0"},{"sim_score":1,"rt":3538,"stimulus":"[\"img/0868/c8ac40c7-6904-4e13-8d61-c75d3052dc4e.jpg\",\"img/0864/5f33e097-23e3-4002-882d-76e8cb15f451.jpg\"]","trial_type":"similarity","trial_index":180,"time_elapsed":1080708,"internal_node_id":"0.0-6.0-174.0"},{"sim_score":4,"rt":5550,"stimulus":"[\"img/0898/6cd3830b-d44e-4915-be2b-88d31424b91c.jpg\",\"img/0769/47700831-0ca2-4fdd-a498-a3bc5a528f43.jpg\"]","trial_type":"similarity","trial_index":181,"time_elapsed":1087266,"internal_node_id":"0.0-6.0-175.0"},{"sim_score":2,"rt":4999,"stimulus":"[\"img/0766/5d6e0d1d-4369-41f0-a64c-91f3503055c7.jpg\",\"img/0764/e42c1dc9-7831-4995-be19-7ca7b4d141fc.jpg\"]","trial_type":"similarity","trial_index":182,"time_elapsed":1093271,"internal_node_id":"0.0-6.0-176.0"},{"sim_score":1,"rt":4014,"stimulus":"[\"img/0764/978aede9-4590-4ad0-b234-135c83e5d669.jpg\",\"img/0866/0207e9a2-7dbb-40b5-9459-b472aaeceb2a.jpg\"]","trial_type":"similarity","trial_index":183,"time_elapsed":1098291,"internal_node_id":"0.0-6.0-177.0"},{"sim_score":2,"rt":5129,"stimulus":"[\"img/0902/4e0baa32-988e-46f6-989d-f669225ab645.jpg\",\"img/0875/ebf7653f-ff45-4e9f-af58-2c042ab3cd2b.jpg\"]","trial_type":"similarity","trial_index":184,"time_elapsed":1104426,"internal_node_id":"0.0-6.0-178.0"},{"sim_score":5,"rt":4663,"stimulus":"[\"img/0881/292e9b4b-fca0-4ba8-87f1-4048f9e37b7d.jpg\",\"img/0904/56e73f28-7e64-489b-a161-e6b1a063878d.jpg\"]","trial_type":"similarity","trial_index":185,"time_elapsed":1110097,"internal_node_id":"0.0-6.0-179.0"},{"sim_score":2,"rt":3301,"stimulus":"[\"img/0874/ca76a855-4e77-4f2f-872a-0a718153e7ed.jpg\",\"img/0860/8fdba999-b946-4c7d-9891-336018b563ef.jpg\"]","trial_type":"similarity","trial_index":186,"time_elapsed":1114405,"internal_node_id":"0.0-6.0-180.0"},{"sim_score":2,"rt":4198,"stimulus":"[\"img/0769/878531fd-e0e8-4ad1-b9ad-f018bb104ca0.jpg\",\"img/0874/3f471690-9788-4d03-90c7-f615aecef149.jpg\"]","trial_type":"similarity","trial_index":187,"time_elapsed":1119611,"internal_node_id":"0.0-6.0-181.0"},{"sim_score":5,"rt":5253,"stimulus":"[\"img/0904/24fc38fe-842c-4831-ad8a-b1de5c25c0a8.jpg\",\"img/0766/ae0fce93-fe8d-4aa1-87ca-4c3e4b889f2f.jpg\"]","trial_type":"similarity","trial_index":188,"time_elapsed":1125870,"internal_node_id":"0.0-6.0-182.0"},{"sim_score":7,"rt":5252,"stimulus":"[\"img/0902/cf9dee9c-2bdf-4d64-9302-97f1660fe52c.jpg\",\"img/0764/e48e6c6f-9e28-420f-836a-8043b2319bb4.jpg\"]","trial_type":"similarity","trial_index":189,"time_elapsed":1132128,"internal_node_id":"0.0-6.0-183.0"},{"sim_score":1,"rt":3109,"stimulus":"[\"img/0769/ecda2fb3-556b-43ba-8a67-e87dd75ff2b4.jpg\",\"img/0875/99698b4d-b4a1-44bc-8c83-8ea755bbbf61.jpg\"]","trial_type":"similarity","trial_index":190,"time_elapsed":1136244,"internal_node_id":"0.0-6.0-184.0"},{"sim_score":3,"rt":3733,"stimulus":"[\"img/0867/bf560d4f-dee3-4f11-a385-705cc1aa5f3c.jpg\",\"img/0903/0a92ec52-4e87-410a-857a-4455cde56a70.jpg\"]","trial_type":"similarity","trial_index":191,"time_elapsed":1140984,"internal_node_id":"0.0-6.0-185.0"},{"sim_score":1,"rt":3862,"stimulus":"[\"img/0862/99a99e39-8355-44ec-b993-e7bcec111e1c.jpg\",\"img/0769/057eb0a0-aa5b-40c7-9852-21444f68d767.jpg\"]","trial_type":"similarity","trial_index":192,"time_elapsed":1145852,"internal_node_id":"0.0-6.0-186.0"},{"sim_score":1,"rt":3859,"stimulus":"[\"img/0766/d3bab2fc-ddcc-40a0-bb72-c0d0ebe19978.jpg\",\"img/0866/620cd1aa-0800-4414-8f6e-90342e7a99ad.jpg\"]","trial_type":"similarity","trial_index":193,"time_elapsed":1150718,"internal_node_id":"0.0-6.0-187.0"},{"sim_score":1,"rt":3700,"stimulus":"[\"img/0769/8056889f-2b14-4782-bb25-b4e8896ab65b.jpg\",\"img/0860/5bff793e-cbd5-4d7e-b628-0ac2b0e30b64.jpg\"]","trial_type":"similarity","trial_index":194,"time_elapsed":1155424,"internal_node_id":"0.0-6.0-188.0"},{"sim_score":3,"rt":3312,"stimulus":"[\"img/0881/1407b85b-a1c6-45b1-9884-3b24203efadb.jpg\",\"img/0868/83b4350a-3b70-4cea-b7f5-b5b56f3050a8.jpg\"]","trial_type":"similarity","trial_index":195,"time_elapsed":1165597,"internal_node_id":"0.0-6.0-189.0"},{"view_history":"[{\"page_index\":0,\"viewing_time\":11021}]","rt":11022,"trial_type":"instructions","trial_index":196,"time_elapsed":1177622,"internal_node_id":"0.0-7.0"},{"rt":29351,"responses":"{\"Q0\":\"Yellow Warbler\"}","answer":["Nashville Warbler"],"trial_type":"image-multi-choice","trial_index":197,"time_elapsed":1207998,"internal_node_id":"0.0-8.0-0.0"},{"rt":16075,"responses":"{\"Q0\":\"Blackburnian Warbler\"}","answer":["Black-and-white Warbler"],"trial_type":"image-multi-choice","trial_index":198,"time_elapsed":1225090,"internal_node_id":"0.0-8.0-1.0"},{"rt":26585,"responses":"{\"Q0\":\"Black-and-white Warbler\"}","answer":["Townsend's Warbler"],"trial_type":"image-multi-choice","trial_index":199,"time_elapsed":1252691,"internal_node_id":"0.0-8.0-2.0"},{"rt":21255,"responses":"{\"Q0\":\"White-throated Sparrow\"}","answer":["Lark Sparrow"],"trial_type":"image-multi-choice","trial_index":200,"time_elapsed":1274962,"internal_node_id":"0.0-8.0-3.0"},{"rt":10758,"responses":"{\"Q0\":\"Yellow Warbler\"}","answer":["Yellow Warbler"],"trial_type":"image-multi-choice","trial_index":201,"time_elapsed":1286737,"internal_node_id":"0.0-8.0-4.0"},{"rt":28916,"responses":"{\"Q0\":\"Townsend's Warbler\"}","answer":["Orange-crowned Warbler"],"trial_type":"image-multi-choice","trial_index":202,"time_elapsed":1316669,"internal_node_id":"0.0-8.0-5.0"},{"rt":7530,"responses":"{\"Q0\":\"White-throated Sparrow\"}","answer":["White-throated Sparrow"],"trial_type":"image-multi-choice","trial_index":203,"time_elapsed":1325217,"internal_node_id":"0.0-8.0-6.0"},{"rt":11540,"responses":"{\"Q0\":\"Northern Waterthrush\"}","answer":["Fox Sparrow"],"trial_type":"image-multi-choice","trial_index":204,"time_elapsed":1337774,"internal_node_id":"0.0-8.0-7.0"},{"rt":15389,"responses":"{\"Q0\":\"American Tree Sparrow\"}","answer":["Song Sparrow"],"trial_type":"image-multi-choice","trial_index":205,"time_elapsed":1354180,"internal_node_id":"0.0-8.0-8.0"},{"rt":7542,"responses":"{\"Q0\":\"Black-and-white Warbler\"}","answer":["Blackburnian Warbler"],"trial_type":"image-multi-choice","trial_index":206,"time_elapsed":1362734,"internal_node_id":"0.0-8.0-9.0"},{"rt":14381,"responses":"{\"Q0\":\"Ovenbird\"}","answer":["Vesper Sparrow"],"trial_type":"image-multi-choice","trial_index":207,"time_elapsed":1378133,"internal_node_id":"0.0-8.0-10.0"},{"rt":14739,"responses":"{\"Q0\":\"Ovenbird\"}","answer":["White-crowned Sparrow"],"trial_type":"image-multi-choice","trial_index":208,"time_elapsed":1393887,"internal_node_id":"0.0-8.0-11.0"},{"rt":13064,"responses":"{\"Q0\":\"Lark Sparrow\"}","answer":["American Tree Sparrow"],"trial_type":"image-multi-choice","trial_index":209,"time_elapsed":1407969,"internal_node_id":"0.0-8.0-12.0"},{"rt":18772,"responses":"{\"Q0\":\"Nashville Warbler\"}","answer":["Tennessee Warbler"],"trial_type":"image-multi-choice","trial_index":210,"time_elapsed":1427757,"internal_node_id":"0.0-8.0-13.0"},{"rt":5555,"responses":"{\"Q0\":\"Blackburnian Warbler\"}","answer":["Magnolia Warbler"],"trial_type":"image-multi-choice","trial_index":211,"time_elapsed":1434330,"internal_node_id":"0.0-8.0-14.0"},{"rt":11873,"responses":"{\"Q0\":\"Northern Waterthrush\"}","answer":["Northern Waterthrush"],"trial_type":"image-multi-choice","trial_index":212,"time_elapsed":1447219,"internal_node_id":"0.0-8.0-15.0"},{"rt":20888,"responses":"{\"Q0\":\"Song Sparrow\"}","answer":["Chipping Sparrow"],"trial_type":"image-multi-choice","trial_index":213,"time_elapsed":1469125,"internal_node_id":"0.0-8.0-16.0"},{"rt":7839,"responses":"{\"Q0\":\"Song Sparrow\"}","answer":["Swamp Sparrow"],"trial_type":"image-multi-choice","trial_index":214,"time_elapsed":1477982,"internal_node_id":"0.0-8.0-17.0"},{"rt":7657,"responses":"{\"Q0\":\"Lincoln's Sparrow\"}","answer":["Lincoln's Sparrow"],"trial_type":"image-multi-choice","trial_index":215,"time_elapsed":1486657,"internal_node_id":"0.0-8.0-18.0"},{"rt":16030,"responses":"{\"Q0\":\"Northern Waterthrush\"}","answer":["Ovenbird"],"trial_type":"image-multi-choice","trial_index":216,"time_elapsed":1503705,"internal_node_id":"0.0-8.0-19.0"}]