"view_history","rt","trial_type","trial_index","time_elapsed","internal_node_id","sim_score","stimulus","responses","answer"
"[{""page_index"":0,""viewing_time"":2366}]","2367","instructions","0","2368","0.0-0.0","","","",""
"","8873","similarity_demo","1","12251","0.0-1.0","7","[""img/bluejay1.jpg"",""img/bluejay2.jpg""]","",""
"[{""page_index"":0,""viewing_time"":6838}]","6838","instructions","2","20089","0.0-2.0","","","",""
"","10629","similarity_demo","3","31726","0.0-3.0","1","[""img/bluejay1.jpg"",""img/cardinal1.jpg""]","",""
"[{""page_index"":0,""viewing_time"":7828}]","7828","instructions","4","40555","0.0-4.0","","","",""
"[{""page_index"":0,""viewing_time"":18898}]","18898","instructions","5","60455","0.0-5.0","","","",""
"","5329","similarity","6","66791","0.0-6.0-0.0","1","[""img/0868/5fa7f9d0-f0e5-454c-8224-74d964818f56.jpg"",""img/0894/76c1201f-8524-4865-85e6-dda8cb4ac986.jpg""]","",""
"","5449","similarity","7","73246","0.0-6.0-1.0","1","[""img/0898/993d8f2d-bef7-4251-a193-0f93a32b7763.jpg"",""img/0758/d540bee6-b460-4c32-ac57-bc282742d7d4.jpg""]","",""
"","4260","similarity","8","78514","0.0-6.0-2.0","7","[""img/0903/f1fa0f8d-e62b-4b4a-a174-31a0fabfe61b.jpg"",""img/0894/5f15154e-e72e-4ce5-aafb-bce6f0564006.jpg""]","",""
"","4137","similarity","9","83658","0.0-6.0-3.0","1","[""img/0881/2a8413be-fec2-4de6-88ad-614dd4cccc9d.jpg"",""img/0766/989c5c7f-1aff-4442-ac63-9d46acf4a891.jpg""]","",""
"","3945","similarity","10","88607","0.0-6.0-4.0","3","[""img/0864/87c467d3-abca-482f-ad80-3766c21b1bb3.jpg"",""img/0860/c7047cd2-7cc1-41b6-8a34-c0986774975f.jpg""]","",""
"","4322","similarity","11","93934","0.0-6.0-5.0","5","[""img/0902/c018bd7a-d91a-4192-aea4-7259cfcdb6c4.jpg"",""img/0899/66ab3178-c3fe-4455-ad17-d5952b08e018.jpg""]","",""
"","3915","similarity","12","98852","0.0-6.0-6.0","1","[""img/0868/77091fc7-a590-4ebb-b915-fdb2483a2399.jpg"",""img/0769/0fe124d3-bcad-45f6-b64d-8f6eb8ee5251.jpg""]","",""
"","2931","similarity","13","102788","0.0-6.0-7.0","5","[""img/0764/21e3292f-01ad-4238-828b-61b817857d16.jpg"",""img/0901/1ede21d9-384f-4150-86b5-e1c57b5dc1d4.jpg""]","",""
"","6204","similarity","14","109996","0.0-6.0-8.0","5","[""img/0881/b1a136f7-8511-4d3a-a0f6-3879acf1e1a1.jpg"",""img/0866/23a224f3-2012-4fc8-8e0f-3c36f8de27fd.jpg""]","",""
"","3861","similarity","15","114862","0.0-6.0-9.0","1","[""img/0867/ac1797e4-8afc-48fe-b252-86d1defb1cca.jpg"",""img/0899/ddf96ade-692e-4602-bd22-dedbb46401bc.jpg""]","",""
"","3426","similarity","16","119292","0.0-6.0-10.0","1","[""img/0875/2c361b79-c3d1-4eda-812e-bf03192407bf.jpg"",""img/0766/d50d734f-285c-4840-bc7a-c8dd4aff391e.jpg""]","",""
"","4007","similarity","17","124306","0.0-6.0-11.0","1","[""img/0901/1b86f2fc-7a1d-4aa8-9252-114f92edef3b.jpg"",""img/0875/5a1e5100-0d94-4fec-bbe9-ca9894d2cf8e.jpg""]","",""
"","3249","similarity","18","128560","0.0-6.0-12.0","1","[""img/0902/cf9dee9c-2bdf-4d64-9302-97f1660fe52c.jpg"",""img/0860/29a21a9f-54bb-4093-ad3f-04823ceaa89f.jpg""]","",""
"","5304","similarity","19","134869","0.0-6.0-13.0","5","[""img/0874/995f0332-0439-4eb4-add3-957335dbf6d9.jpg"",""img/0867/6e19c858-b606-45b2-a4c6-910a73f1d82c.jpg""]","",""
"","5291","similarity","20","141176","0.0-6.0-14.0","1","[""img/0904/1d10df11-b5c8-4370-9a6b-097a7f965895.jpg"",""img/0866/945c6710-d15b-4a5b-a8f6-69af0850357f.jpg""]","",""
"","3171","similarity","21","145357","0.0-6.0-15.0","1","[""img/0758/61d64021-9214-4951-bdf8-f871f9827cf9.jpg"",""img/0902/eb3e7e71-8ff1-4b88-a6a7-47e2c1ce1683.jpg""]","",""
"","2418","similarity","22","148781","0.0-6.0-16.0","1","[""img/0867/aa05d113-fc19-4756-a8eb-7878f580bc92.jpg"",""img/0898/81b08535-2020-4c15-9ce4-2f1e460755ae.jpg""]","",""
"","2376","similarity","23","152161","0.0-6.0-17.0","1","[""img/0904/09934646-45d2-4147-8fec-64a22a5ac822.jpg"",""img/0868/4a8a45ed-2c4f-421b-9564-409a33ecd26c.jpg""]","",""
"","2546","similarity","24","155711","0.0-6.0-18.0","1","[""img/0766/d919cedb-f9b7-4f30-83bb-3e9c65001ceb.jpg"",""img/0864/9b2490c5-a282-400a-9736-e1a0ecbf1cb7.jpg""]","",""
"","2771","similarity","25","159485","0.0-6.0-19.0","5","[""img/0899/4408c14d-c168-4a7d-96f6-bc87bfb58f83.jpg"",""img/0766/f011ef45-fb48-44b8-8224-867ed2ccf786.jpg""]","",""
"","2436","similarity","26","162925","0.0-6.0-20.0","1","[""img/0764/e0788029-9d7f-414c-b747-46d2a99f7c86.jpg"",""img/0758/2fa3e613-e676-4e6e-bd12-705327eeb3e1.jpg""]","",""
"","2323","similarity","27","166251","0.0-6.0-21.0","1","[""img/0901/a373612d-67e2-4fec-9764-21d3d6ef6359.jpg"",""img/0874/3ce41e7c-40c8-4d58-a546-171114521796.jpg""]","",""
"","3782","similarity","28","171037","0.0-6.0-22.0","5","[""img/0875/8521fd58-3b1e-4dc5-97ae-804edfa6734a.jpg"",""img/0758/e1ba5e53-addc-436a-b428-d34fc1b130dc.jpg""]","",""
"","2894","similarity","29","174935","0.0-6.0-23.0","5","[""img/0867/98d8cd96-1476-4fe0-a3a3-04f875500a1b.jpg"",""img/0881/54ea8e77-c7e5-4197-b7fa-00b7020849a7.jpg""]","",""
"","3093","similarity","30","179033","0.0-6.0-24.0","1","[""img/0758/dd559618-7f09-4a07-8018-d311c4a5ea29.jpg"",""img/0901/33b51a81-06d9-46d9-9d4f-5a2d6d6b8058.jpg""]","",""
"","3375","similarity","31","183411","0.0-6.0-25.0","5","[""img/0868/179a5502-ab5c-478e-8263-5a1fbcc101d2.jpg"",""img/0875/2e13d160-eea1-416b-aff1-d37ab99ecc1d.jpg""]","",""
"","3806","similarity","32","188220","0.0-6.0-26.0","5","[""img/0903/39365c8e-a733-4801-ac7d-b87e38c3784b.jpg"",""img/0901/c6c877e0-dd63-4e00-9657-33af29d55aab.jpg""]","",""
"","2768","similarity","33","191994","0.0-6.0-27.0","5","[""img/0894/bd34223a-2f66-4e16-9d18-193a746b69ff.jpg"",""img/0899/0433d056-aa30-4f8a-9aa1-abbb951e4edd.jpg""]","",""
"","4764","similarity","34","197762","0.0-6.0-28.0","5","[""img/0862/e697469a-ec19-4414-b972-7b9f3564785b.jpg"",""img/0867/2e1a0b58-cdb1-4107-a14e-452530d7b9b0.jpg""]","",""
"","2330","similarity","35","201096","0.0-6.0-29.0","5","[""img/0864/0f537697-a314-47c3-a8cc-8df23b7e536c.jpg"",""img/0875/a4935837-7d3c-4df6-88c1-36a94d4991ca.jpg""]","",""
"","3032","similarity","36","205132","0.0-6.0-30.0","5","[""img/0862/ba89835a-408c-480b-8594-ed4ffa97eb5c.jpg"",""img/0874/8cdb1c07-1c32-46d2-981c-3636560fa6e5.jpg""]","",""
"","3063","similarity","37","209200","0.0-6.0-31.0","1","[""img/0903/5ea5bbe0-f238-4724-abe7-9ed8dee8c0ba.jpg"",""img/0758/a709631e-3705-4725-ac40-f0d916924f08.jpg""]","",""
"","2389","similarity","38","212594","0.0-6.0-32.0","1","[""img/0866/6f2a90d7-14f1-4f1b-bd64-fc0af6b9fe44.jpg"",""img/0901/693e0535-ef7e-4d60-af9d-fac2f38e8307.jpg""]","",""
"","2106","similarity","39","215704","0.0-6.0-33.0","1","[""img/0874/767f289c-9814-4496-803f-745cc8913d1f.jpg"",""img/0899/f58b8d2f-b19d-4b59-8b94-8834be92e4ba.jpg""]","",""
"","5058","similarity","40","221766","0.0-6.0-34.0","5","[""img/0903/2c7b4aed-6038-4aac-958a-e3e58341c313.jpg"",""img/0902/fbef27fa-ac83-4936-ab78-9d1c20a383e1.jpg""]","",""
"","3976","similarity","41","226746","0.0-6.0-35.0","5","[""img/0758/f61ecdf8-a7d4-4db0-b84d-be46f7cfaffc.jpg"",""img/0866/9b38d691-1802-4959-ab3f-fc902f0e4ea6.jpg""]","",""
"","2786","similarity","42","230536","0.0-6.0-36.0","1","[""img/0875/cff79b3a-a797-4393-9757-6275f999ec04.jpg"",""img/0903/f45a103c-9bfe-49fd-ad96-bdd8d2589195.jpg""]","",""
"","2901","similarity","43","240775","0.0-6.0-37.0","1","[""img/0864/1d15626a-2f7c-410f-819c-0fa2c967e95e.jpg"",""img/0902/51493fab-2a10-4385-aa88-bee3db441626.jpg""]","",""
"","3550","similarity","44","245330","0.0-6.0-38.0","1","[""img/0901/443f2e59-199b-4f7b-9de9-c44ad97326a5.jpg"",""img/0867/c66898ba-b71b-4d50-84f9-f7f84853a98d.jpg""]","",""
"","4525","similarity","45","250860","0.0-6.0-39.0","5","[""img/0862/cdaed51d-9e2f-4807-801a-4663c40077e2.jpg"",""img/0860/8a92e21b-6a32-4e4a-a445-2d5a487ed0a4.jpg""]","",""
"","4672","similarity","46","256536","0.0-6.0-40.0","7","[""img/0867/26611f4e-d694-4460-b7e2-43c62753ddc3.jpg"",""img/0868/83b4350a-3b70-4cea-b7f5-b5b56f3050a8.jpg""]","",""
"","3210","similarity","47","260752","0.0-6.0-41.0","5","[""img/0904/96e503ea-6630-4996-85f2-0237688ce441.jpg"",""img/0899/06b0fc99-0581-461a-9913-d1a5a941ac61.jpg""]","",""
"","3077","similarity","48","264835","0.0-6.0-42.0","1","[""img/0862/47ed5efd-4ec9-4b74-bb4e-a5f5cf0c3e7d.jpg"",""img/0894/7f2f31fd-6618-41c6-b65a-0fd8b2851bc9.jpg""]","",""
"","2307","similarity","49","268144","0.0-6.0-43.0","1","[""img/0875/5a716432-c6ca-4b1c-955a-2b8ac25198ee.jpg"",""img/0904/9b3568cc-3cf7-42be-9df3-fdafde7a58b8.jpg""]","",""
"","2739","similarity","50","271888","0.0-6.0-44.0","1","[""img/0874/93d1f8dc-acf2-4f03-bd8d-8ec35df276ed.jpg"",""img/0898/c3cecf20-f7fd-45fa-97d0-dc0a63e8d6c0.jpg""]","",""
"","3914","similarity","51","276808","0.0-6.0-45.0","1","[""img/0898/8605a25b-6895-476d-8c13-df7a83f96093.jpg"",""img/0868/1a62b2b2-18f5-466e-b564-5176a57c565e.jpg""]","",""
"","2366","similarity","52","280178","0.0-6.0-46.0","1","[""img/0901/233a6948-48eb-4b67-8259-222b916b2322.jpg"",""img/0860/f44ba3fb-03a2-42f0-8509-2c1ded493086.jpg""]","",""
"","3807","similarity","53","284988","0.0-6.0-47.0","5","[""img/0894/792c83e9-a747-4000-bc72-5663d2439edb.jpg"",""img/0902/cdec1bc6-7f90-4f72-9e01-f5a4111bac1d.jpg""]","",""
"","2397","similarity","54","288390","0.0-6.0-48.0","1","[""img/0764/f9f890e6-3c2f-40cd-84e9-85e0b54cb28e.jpg"",""img/0862/00c06b00-3b73-44e9-bc1e-c5aafb438321.jpg""]","",""
"","7393","similarity","55","296788","0.0-6.0-49.0","7","[""img/0881/4bd34581-94d8-4e88-8c89-5cef864ca3be.jpg"",""img/0758/7ffbc76b-1fc1-432c-8f7e-9ec8d1b3f643.jpg""]","",""
"","4968","similarity","56","302760","0.0-6.0-50.0","5","[""img/0766/00891401-e4c9-4ce1-bc19-f70740d174bc.jpg"",""img/0769/50985283-d353-4abc-9abe-14a91d56ebe6.jpg""]","",""
"","3737","similarity","57","307501","0.0-6.0-51.0","5","[""img/0875/e7e66b13-b573-431e-b85e-288ce04a35a3.jpg"",""img/0866/d266fece-59b3-46fa-b69f-96f6efb81b59.jpg""]","",""
"","6813","similarity","58","315319","0.0-6.0-52.0","6","[""img/0894/1b3888e6-cf36-4c4a-a039-187aa5cb71ac.jpg"",""img/0904/25365108-e038-4021-aac9-797f2063b337.jpg""]","",""
"","3529","similarity","59","319851","0.0-6.0-53.0","1","[""img/0758/67c0be2f-9e91-48b3-8219-70ac0a1802fa.jpg"",""img/0769/47700831-0ca2-4fdd-a498-a3bc5a528f43.jpg""]","",""
"","2740","similarity","60","323595","0.0-6.0-54.0","1","[""img/0902/2a7ac123-414a-476a-9a96-4757b924baef.jpg"",""img/0874/2c9464dd-8a23-4baa-ac94-1ba3af5c15cc.jpg""]","",""
"","3938","similarity","61","328537","0.0-6.0-55.0","1","[""img/0903/9b60ef5b-234f-4239-892b-3d4c412accc2.jpg"",""img/0862/92fcd8a4-8193-4a6a-ae09-dd4a6338b0df.jpg""]","",""
"","2846","similarity","62","332387","0.0-6.0-56.0","1","[""img/0866/386235d2-6857-41e7-88a8-25cfc3430025.jpg"",""img/0894/2217bdcd-23a7-42d3-823b-23f2488d7e87.jpg""]","",""
"","2158","similarity","63","335549","0.0-6.0-57.0","1","[""img/0867/a498eef3-9fa4-4ab2-9778-4ae82ac40dc5.jpg"",""img/0904/b5855d6a-7ef9-46ca-9215-6e9fa046e543.jpg""]","",""
"","3235","similarity","64","339787","0.0-6.0-58.0","5","[""img/0875/d59ff733-eaff-4ee2-9443-06954dd0bcb6.jpg"",""img/0881/c24f3051-eefa-42de-aba6-fccb56d93c70.jpg""]","",""
"","3404","similarity","65","344195","0.0-6.0-59.0","5","[""img/0866/07c9c966-3c8d-40e7-8128-92b2acbaed5d.jpg"",""img/0860/61fb959d-d4d9-4de4-9e4e-4fa62b4cfcd5.jpg""]","",""
"","2655","similarity","66","347856","0.0-6.0-60.0","1","[""img/0903/36e4ab1f-caa9-40b3-8616-faada076df94.jpg"",""img/0866/d493a2c8-66eb-44b4-be02-2f327b700b7c.jpg""]","",""
"","3140","similarity","67","351999","0.0-6.0-61.0","5","[""img/0860/15b24a61-25be-4356-9eac-5ce95d0cb4a4.jpg"",""img/0875/3ecb367d-e9eb-4826-8aaa-7aa72fb98019.jpg""]","",""
"","2568","similarity","68","355571","0.0-6.0-62.0","1","[""img/0898/f3a3f225-1248-4ac7-b93b-f0ff28485bf3.jpg"",""img/0862/57b6f83f-c763-4858-830d-102f97bfefbf.jpg""]","",""
"","2857","similarity","69","359432","0.0-6.0-63.0","5","[""img/0902/4e0baa32-988e-46f6-989d-f669225ab645.jpg"",""img/0766/e8052e17-9dae-4139-802b-6e590cb2d526.jpg""]","",""
"","3604","similarity","70","364039","0.0-6.0-64.0","5","[""img/0758/335851a0-a55b-46d8-ab05-8463eda48349.jpg"",""img/0864/6f631579-acf1-415c-a42c-1207f62a8d99.jpg""]","",""
"","2632","similarity","71","367674","0.0-6.0-65.0","1","[""img/0894/7dd6ff43-f8fc-408a-8a41-a2b261871820.jpg"",""img/0860/18dfed73-e36b-4487-a8bd-0b8cff8e3668.jpg""]","",""
"","3287","similarity","72","371966","0.0-6.0-66.0","1","[""img/0899/56a605c3-d0a2-4215-89e1-779279d85a7c.jpg"",""img/0868/09a9ef4d-d000-4cfa-a6aa-ebec7c2edeb4.jpg""]","",""
"","3177","similarity","73","376148","0.0-6.0-67.0","5","[""img/0866/f756f7d1-9ad8-4a34-9ef6-7a443d705bfe.jpg"",""img/0862/d0ca4c78-fc35-46ed-bdcc-8e124283c53e.jpg""]","",""
"","2894","similarity","74","380046","0.0-6.0-68.0","5","[""img/0860/b03b963d-949b-4d8d-b19c-4950c89eeca2.jpg"",""img/0758/65d426d6-3ff6-415d-8654-a43b83ecc4fe.jpg""]","",""
"","3521","similarity","75","384570","0.0-6.0-69.0","1","[""img/0902/e5a46bda-30d1-41ca-b36d-b8529b5a63d1.jpg"",""img/0867/f8488a47-94ee-4166-952c-44e16cf172f6.jpg""]","",""
"","2947","similarity","76","388522","0.0-6.0-70.0","1","[""img/0862/1c20f772-3a51-4a80-aac0-f57dc9f86c28.jpg"",""img/0901/b9141736-3041-4385-a586-b1fe911c76a5.jpg""]","",""
"","5492","similarity","77","395018","0.0-6.0-71.0","6","[""img/0867/de92135f-5b65-4ed9-b245-188292c7c2f8.jpg"",""img/0866/0207e9a2-7dbb-40b5-9459-b472aaeceb2a.jpg""]","",""
"","3335","similarity","78","399358","0.0-6.0-72.0","1","[""img/0860/87039971-2210-4aab-93c0-8e9b5f1655b2.jpg"",""img/0904/2fd488e9-960f-41f7-8a44-33375f7d5051.jpg""]","",""
"","2365","similarity","79","402728","0.0-6.0-73.0","1","[""img/0875/90da8d75-108a-44ad-b999-e21fee3860d3.jpg"",""img/0899/f95cbdb4-f804-4f5d-ad76-373ad343e658.jpg""]","",""
"","2839","similarity","80","406572","0.0-6.0-74.0","1","[""img/0899/25ae6ec8-9565-49fe-a8bb-8d0666f52716.jpg"",""img/0758/d41c06bf-ebaf-454b-91c6-1a17f917b659.jpg""]","",""
"","2671","similarity","81","412650","0.0-6.0-75.0","5","[""img/0862/99a99e39-8355-44ec-b993-e7bcec111e1c.jpg"",""img/0875/99698b4d-b4a1-44bc-8c83-8ea755bbbf61.jpg""]","",""
"","3196","similarity","82","416850","0.0-6.0-76.0","5","[""img/0901/50e1d53e-a49f-4806-8610-be6dec5a2475.jpg"",""img/0894/151063aa-6472-4745-837b-36603aba5966.jpg""]","",""
"","2732","similarity","83","420586","0.0-6.0-77.0","1","[""img/0766/26d3ae14-8275-4e08-99b2-a6598c193ddf.jpg"",""img/0758/7fba58df-2a7a-4b76-8a8f-62739f97f271.jpg""]","",""
"","2560","similarity","84","424150","0.0-6.0-78.0","5","[""img/0894/e5edf723-72a5-4673-8441-6c1734a8929b.jpg"",""img/0764/62fafeea-6274-48ce-976f-35d3d3484c65.jpg""]","",""
"","2554","similarity","85","427708","0.0-6.0-79.0","5","[""img/0860/e14d67c1-6d92-4f1e-9257-c8607159c19c.jpg"",""img/0867/7d1c497b-c1b3-4ed8-abb5-d7f73306015f.jpg""]","",""
"","2684","similarity","86","431396","0.0-6.0-80.0","5","[""img/0898/b3290bf9-215b-4b45-b21a-65bdf73f142f.jpg"",""img/0901/a6c90438-fa7c-4418-ac7c-16c2e772dd98.jpg""]","",""
"","2244","similarity","87","434644","0.0-6.0-81.0","1","[""img/0874/bf14b896-e930-4fd9-9c05-2e83317a2773.jpg"",""img/0764/952d7adc-dc40-4aee-acce-18c2a1d02ea1.jpg""]","",""
"","2339","similarity","88","437986","0.0-6.0-82.0","1","[""img/0899/d60714ae-98d7-4564-8c98-94dba1351135.jpg"",""img/0862/53a9cf7c-93c4-41b9-952f-07d17f7a17b2.jpg""]","",""
"","2536","similarity","89","441527","0.0-6.0-83.0","5","[""img/0766/71b81ebd-0937-4d7f-b8bf-c4e46a4728fd.jpg"",""img/0901/d6d15b1c-4a30-4f74-a3fd-d4c8ee4169ca.jpg""]","",""
"","2234","similarity","90","444766","0.0-6.0-84.0","1","[""img/0881/f62bdcd1-a4b7-4d48-83da-d9c9e01c8727.jpg"",""img/0898/ec565187-2e31-4fdd-9a5c-153d0c789ae0.jpg""]","",""
"","2578","similarity","91","448348","0.0-6.0-85.0","5","[""img/0868/293079b8-7e0c-4afd-a390-1e5d35fe3ded.jpg"",""img/0860/e8b8c51e-1834-4875-8b61-6c5bc9b178bd.jpg""]","",""
"","2317","similarity","92","451672","0.0-6.0-86.0","5","[""img/0758/e38fd80d-18d0-42f3-b848-f930788e8bd7.jpg"",""img/0868/3a62db2d-97e9-44a3-b8e3-a48c6f0e423b.jpg""]","",""
"","2590","similarity","93","455268","0.0-6.0-87.0","1","[""img/0864/ea327690-500b-4137-bf91-451b309fe6a5.jpg"",""img/0894/b2d2f66e-e480-46da-a02a-6d0c6b285d78.jpg""]","",""
"","2203","similarity","94","458478","0.0-6.0-88.0","1","[""img/0866/620cd1aa-0800-4414-8f6e-90342e7a99ad.jpg"",""img/0902/82d20e8c-2162-47a6-925b-52906558c046.jpg""]","",""
"","2669","similarity","95","462150","0.0-6.0-89.0","1","[""img/0769/ecda2fb3-556b-43ba-8a67-e87dd75ff2b4.jpg"",""img/0867/a749dddb-69f0-44a6-acdc-2bf295cf6dcc.jpg""]","",""
"","2625","similarity","96","465778","0.0-6.0-90.0","5","[""img/0874/85eb9b8a-c4c6-4e5a-b8e7-363a87a82054.jpg"",""img/0875/527ced51-8e53-4aab-ab05-86df219104c0.jpg""]","",""
"","2407","similarity","97","469188","0.0-6.0-91.0","5","[""img/0864/e02eddb5-f468-499c-91bf-f7be3ffe979b.jpg"",""img/0874/a82926a3-0b43-4add-803c-d5f9ea7798ee.jpg""]","",""
"","2477","similarity","98","472668","0.0-6.0-92.0","5","[""img/0881/0c7068da-d0d9-4103-bda1-74ef7a2b32c3.jpg"",""img/0862/a0a3a7ba-7798-46a3-b4ca-05e1f6e581d0.jpg""]","",""
"","2483","similarity","99","476156","0.0-6.0-93.0","5","[""img/0864/8ddd2e30-a1d0-479f-9cbe-591213023893.jpg"",""img/0881/adc02f34-ce97-4aef-850f-00519df06fd7.jpg""]","",""
"","2987","similarity","100","480146","0.0-6.0-94.0","5","[""img/0899/7f9d45d0-b2c6-40d3-aa41-c207db2c411b.jpg"",""img/0901/71e551a2-9ce2-409c-9c7c-dd556a0791e9.jpg""]","",""
"","2376","similarity","101","483526","0.0-6.0-95.0","1","[""img/0874/29830da7-be5f-44e5-b141-652a0ccf7269.jpg"",""img/0766/33aa9ebb-c9f5-418f-8c8b-c77861889568.jpg""]","",""
"","2266","similarity","102","486796","0.0-6.0-96.0","1","[""img/0881/14236cf2-6b95-48b8-9368-78af09d2d27f.jpg"",""img/0899/0e1d936a-dbe2-4afc-9f19-7b7a1ae6c9ed.jpg""]","",""
"","2475","similarity","103","490277","0.0-6.0-97.0","1","[""img/0862/eefa5588-9efd-4591-aa5f-a2e17c7d7bcc.jpg"",""img/0902/10d99c89-71f7-4c81-a31e-dfc7c59f5232.jpg""]","",""
"","2307","similarity","104","493587","0.0-6.0-98.0","5","[""img/0899/d8f2dd94-570e-4e8c-a087-d96090fb9e8c.jpg"",""img/0764/83c93cce-18d1-4aa7-9e23-2c268afe0a46.jpg""]","",""
"","2814","similarity","105","497407","0.0-6.0-99.0","5","[""img/0758/d57c2592-a317-4f63-91be-91a3a9afd222.jpg"",""img/0862/fad1d7c1-8187-43c3-942a-0fc12183e48e.jpg""]","",""
"","3459","similarity","106","501869","0.0-6.0-100.0","5","[""img/0764/23ea9375-f801-4a96-9925-7d453da887c7.jpg"",""img/0898/04e39a7a-fcf6-4156-ab0e-f5871f335e1c.jpg""]","",""
"","2955","similarity","107","505828","0.0-6.0-101.0","5","[""img/0901/ae1e6ce4-2e10-4ca9-b1e7-21628637ab74.jpg"",""img/0902/c9c74d2d-9b82-42d7-a9d0-3b8ff67ff81e.jpg""]","",""
"","2079","similarity","108","508913","0.0-6.0-102.0","1","[""img/0764/6fbd1902-fa2a-48d8-bc11-705b8ab68d8f.jpg"",""img/0868/0d3abd3a-b6c3-4584-a9f7-e2da63748b3d.jpg""]","",""
"","2753","similarity","109","512671","0.0-6.0-103.0","1","[""img/0769/3c1efec9-f8fd-487d-8955-4be88e48c832.jpg"",""img/0881/4da99fdd-1f40-4bbb-8e21-8833eef313f5.jpg""]","",""
"","2207","similarity","110","515881","0.0-6.0-104.0","1","[""img/0864/da39ad34-04e0-40d4-a724-c08d53e0ea09.jpg"",""img/0769/662ab839-88d1-4ebf-af05-9b2980cad943.jpg""]","",""
"","3520","similarity","111","520405","0.0-6.0-105.0","5","[""img/0866/11a1d141-be5e-443c-98c1-a9d4d9e3dec0.jpg"",""img/0868/e0aff734-077f-40dd-9781-74821abd3621.jpg""]","",""
"","3234","similarity","112","524643","0.0-6.0-106.0","5","[""img/0868/6a28c3b0-3d76-498a-9fb7-ddafc665eca8.jpg"",""img/0862/ad593cc7-cabe-4bb7-8e14-8a447a0717b4.jpg""]","",""
"","2413","similarity","113","528061","0.0-6.0-107.0","5","[""img/0766/f3276cc4-65de-4c2d-88d5-6cfebce14b8f.jpg"",""img/0898/cd3aaa3f-efa9-4ab3-8d6f-a6a9273ddf42.jpg""]","",""
"","2593","similarity","114","531657","0.0-6.0-108.0","1","[""img/0898/224c1572-56b9-4f16-a9e4-6f3bc9c114bd.jpg"",""img/0864/c22faebd-9c53-47bc-ada3-b9a30c688e75.jpg""]","",""
"","2280","similarity","115","534943","0.0-6.0-109.0","1","[""img/0868/fd307a36-9a3a-47d7-ab7c-f810d0b35040.jpg"",""img/0902/27b84584-948a-485b-8749-cb09929ef631.jpg""]","",""
"","5887","similarity","116","541833","0.0-6.0-110.0","7","[""img/0904/4e58005d-a2ec-4aaa-b199-445343561396.jpg"",""img/0764/fb7d4a20-a475-465e-a74f-aa39a0d33d16.jpg""]","",""
"","2640","similarity","117","545477","0.0-6.0-111.0","1","[""img/0894/38f5931f-926d-414e-b498-66b188978b7a.jpg"",""img/0875/f87b67d7-c33e-40d1-b281-248c4be1cb6e.jpg""]","",""
"","2885","similarity","118","549365","0.0-6.0-112.0","5","[""img/0868/4bd5105a-d2c3-4f82-8c80-57196106ba53.jpg"",""img/0874/3f471690-9788-4d03-90c7-f615aecef149.jpg""]","",""
"","3081","similarity","119","555428","0.0-6.0-113.0","5","[""img/0904/5cceabc9-de1d-4c67-989b-c28a4ef77e79.jpg"",""img/0898/08c72dac-f8ad-407a-9ce6-8c9a5d679c3a.jpg""]","",""
"","3004","similarity","120","559437","0.0-6.0-114.0","1","[""img/0860/c5ccd1a4-4bb7-48e1-9b25-72cfaf06909b.jpg"",""img/0766/0b48f9e0-7d37-4161-8adb-4e3f5b6b7583.jpg""]","",""
"","2118","similarity","121","562559","0.0-6.0-115.0","1","[""img/0894/b422d5c6-3c5a-49ae-a53e-7e88ac993f49.jpg"",""img/0874/ca76a855-4e77-4f2f-872a-0a718153e7ed.jpg""]","",""
"","2422","similarity","122","565985","0.0-6.0-116.0","5","[""img/0899/1b3457ea-87d4-4946-a01c-aac1863ed46c.jpg"",""img/0903/81368973-de81-46f4-844f-b901f3bfd66d.jpg""]","",""
"","2568","similarity","123","569557","0.0-6.0-117.0","1","[""img/0881/633c6f40-56d9-4b48-bf1c-ecd83116eabb.jpg"",""img/0764/c84fbfa8-521c-407a-9bd3-24f7308d896c.jpg""]","",""
"","4447","similarity","124","575009","0.0-6.0-118.0","5","[""img/0903/5248eedd-7e6a-4d39-91b0-06ec227f3ed0.jpg"",""img/0769/878531fd-e0e8-4ad1-b9ad-f018bb104ca0.jpg""]","",""
"","2864","similarity","125","578877","0.0-6.0-119.0","5","[""img/0901/168eb52c-c415-43f1-b5c8-e76e1a1ec247.jpg"",""img/0904/9d30eff1-46ef-4453-b11e-124ef8145c00.jpg""]","",""
"","2646","similarity","126","582527","0.0-6.0-120.0","5","[""img/0860/702bd09d-df3a-40aa-a267-5f04474305b5.jpg"",""img/0881/d373cb9f-a719-4549-a2a4-82def79fb2a5.jpg""]","",""
"","3110","similarity","127","586641","0.0-6.0-121.0","5","[""img/0758/ddc336e9-a8b6-4bb9-937a-c7e25e0e9250.jpg"",""img/0874/1016b306-087c-4afc-aa08-fa527b28dc76.jpg""]","",""
"","3280","similarity","128","590925","0.0-6.0-122.0","5","[""img/0901/deff6cfb-0072-4490-bc3e-206bbcd3e8bf.jpg"",""img/0769/9ea9ceb6-049e-4ad9-be8f-00645cd35803.jpg""]","",""
"","5206","similarity","129","597135","0.0-6.0-123.0","7","[""img/0902/794606a0-d8a8-4e58-8bf8-9d114ed5a548.jpg"",""img/0904/0d25eb24-bb20-4e8d-9787-8b489558b4cb.jpg""]","",""
"","2431","similarity","130","600569","0.0-6.0-124.0","1","[""img/0899/7b7380d5-d2be-44e5-a09a-c1756f87ef71.jpg"",""img/0864/5f74a653-3bdc-4308-8cca-ac667dc22e1f.jpg""]","",""
"","2321","similarity","131","603895","0.0-6.0-125.0","1","[""img/0766/2746b119-4bba-463e-acf0-88136dc6600c.jpg"",""img/0868/8b0b8473-e2c0-4331-aa56-c3a5c29369da.jpg""]","",""
"","2459","similarity","132","607359","0.0-6.0-126.0","1","[""img/0764/c80b3e06-2ee3-4326-9678-340607eb5348.jpg"",""img/0864/a248adb3-c70b-4652-b7a3-776d2a1e904b.jpg""]","",""
"","2315","similarity","133","610677","0.0-6.0-127.0","1","[""img/0899/a048912c-b12c-40e3-90af-46b69b0cc4fe.jpg"",""img/0866/8efcaa46-83ab-4dee-a35f-850402aa21ae.jpg""]","",""
"","2185","similarity","134","613865","0.0-6.0-128.0","1","[""img/0901/fb0a8e69-7f19-4e6e-a6bb-a48f97f9b4f3.jpg"",""img/0881/33d65d80-8a8e-4ecf-852d-0ad7725c17a2.jpg""]","",""
"","3959","similarity","135","618831","0.0-6.0-129.0","5","[""img/0898/01bfe666-3510-4fc7-964f-d00d28732dc8.jpg"",""img/0903/ea75f240-fb62-4edb-a709-83e858b202c0.jpg""]","",""
"","2121","similarity","136","621955","0.0-6.0-130.0","1","[""img/0894/3adef67d-7676-4995-80b2-bb31b8aca3ef.jpg"",""img/0867/5e07b34d-b40f-4b1c-ac10-49975bace45f.jpg""]","",""
"","1988","similarity","137","624947","0.0-6.0-131.0","1","[""img/0874/99f6563c-8a8d-4c1c-a41d-667b618c3fd5.jpg"",""img/0903/365f176c-25a4-4973-bd3c-279bf1b39476.jpg""]","",""
"","2285","similarity","138","628235","0.0-6.0-132.0","5","[""img/0899/9de5e857-aa9a-4e0c-8ba2-46d79bd069a4.jpg"",""img/0898/4184e5a2-84ea-4f36-9b42-ae58646f6f87.jpg""]","",""
"","2360","similarity","139","631599","0.0-6.0-133.0","1","[""img/0867/12264664-1860-46df-8c21-162b9817cdda.jpg"",""img/0764/438c0217-036f-43c9-9b87-f43144e46011.jpg""]","",""
"","2561","similarity","140","635165","0.0-6.0-134.0","1","[""img/0866/a04d37f0-99dd-478a-b6c6-58b215138f84.jpg"",""img/0769/057eb0a0-aa5b-40c7-9852-21444f68d767.jpg""]","",""
"","2298","similarity","141","638467","0.0-6.0-135.0","1","[""img/0860/4c530c3c-6aab-492a-94d1-9c01797bde40.jpg"",""img/0898/661621d4-a14e-487c-8c74-354134a29710.jpg""]","",""
"","3434","similarity","142","642905","0.0-6.0-136.0","1","[""img/0881/5fe04dd0-5c74-47b7-99c8-b068db9ca26a.jpg"",""img/0903/bf0a7d60-eca5-44b0-bafd-baf21db9904b.jpg""]","",""
"","4744","similarity","143","648653","0.0-6.0-137.0","5","[""img/0894/133a1636-d123-4893-873c-1718050f832a.jpg"",""img/0766/0bf3793e-c353-45e5-ac6f-753f5f484e10.jpg""]","",""
"","3288","similarity","144","652945","0.0-6.0-138.0","1","[""img/0860/5bff793e-cbd5-4d7e-b628-0ac2b0e30b64.jpg"",""img/0764/958b8576-3a3b-4acc-96dc-06b74de69f37.jpg""]","",""
"","2968","similarity","145","656920","0.0-6.0-139.0","5","[""img/0769/7c50e5f5-cc38-4d48-b009-fbe17bcea61c.jpg"",""img/0902/30c420f5-c714-4681-ae5a-c0ba8f636a26.jpg""]","",""
"","3945","similarity","146","661869","0.0-6.0-140.0","5","[""img/0904/fe746a3f-8458-48d0-8a13-8cba2a9df9f8.jpg"",""img/0903/8931c67c-a43d-47d3-a4c9-42aa2f81d344.jpg""]","",""
"","2283","similarity","147","665157","0.0-6.0-141.0","5","[""img/0764/17b088f8-3053-4140-b544-d15654cc79ef.jpg"",""img/0769/6c0bac4c-5f59-43c7-898c-3ca93cf55cfe.jpg""]","",""
"","2081","similarity","148","668243","0.0-6.0-142.0","1","[""img/0902/d3e55000-c839-4bf9-9b9b-4af0a9925af1.jpg"",""img/0881/344de456-b358-4887-bd0e-e4c3278af887.jpg""]","",""
"","2546","similarity","149","671792","0.0-6.0-143.0","5","[""img/0866/c446214b-a368-4c65-ae39-ea46894256ab.jpg"",""img/0864/1ebbc554-99fa-49f9-8799-317375a79820.jpg""]","",""
"","4023","similarity","150","676818","0.0-6.0-144.0","5","[""img/0902/6730b12a-f0a7-4587-8c10-a32fae16565b.jpg"",""img/0898/e167334e-cc1d-4986-b3b1-c7bc7da64baa.jpg""]","",""
"","2755","similarity","151","680576","0.0-6.0-145.0","5","[""img/0862/f23038d4-c366-4f70-979f-66b62362efa4.jpg"",""img/0864/efcfbb1b-8197-44c9-b723-40d6c608dd3c.jpg""]","",""
"","2516","similarity","152","684096","0.0-6.0-146.0","1","[""img/0875/ebf7653f-ff45-4e9f-af58-2c042ab3cd2b.jpg"",""img/0898/a8f16b02-e19f-423b-86c3-a36562ae1f9b.jpg""]","",""
"","4363","similarity","153","689464","0.0-6.0-147.0","5","[""img/0874/eba003b4-cdab-4eee-8bc3-f064c7d94165.jpg"",""img/0881/62a64f90-7a72-4aee-a1a1-0c548ac9bdda.jpg""]","",""
"","2631","similarity","154","693099","0.0-6.0-148.0","1","[""img/0758/9fb5b2fe-3f00-4fe6-973c-1ce10d5f4cd5.jpg"",""img/0894/5a49e858-2850-4892-9a06-e9f0efb5f94d.jpg""]","",""
"","2875","similarity","155","696980","0.0-6.0-149.0","1","[""img/0904/56e73f28-7e64-489b-a161-e6b1a063878d.jpg"",""img/0864/ef9cbca0-4be8-435d-ad49-977259e80409.jpg""]","",""
"","3374","similarity","156","701358","0.0-6.0-150.0","5","[""img/0769/aad494cc-674d-4a08-9bfa-24a88ebe3c79.jpg"",""img/0899/0adc0bc3-6fca-4078-be6f-d45ddf1653d5.jpg""]","",""
"","2815","similarity","157","706577","0.0-6.0-151.0","5","[""img/0764/d0bef2e0-e16b-4c82-9451-c1d16265eb67.jpg"",""img/0903/0a92ec52-4e87-410a-857a-4455cde56a70.jpg""]","",""
"","2021","similarity","158","709602","0.0-6.0-152.0","1","[""img/0903/47e39de8-6959-469f-8be9-6999a6db207c.jpg"",""img/0864/3651d070-2fc5-4848-b6a6-088a2d9ac5c9.jpg""]","",""
"","1879","similarity","159","712486","0.0-6.0-153.0","1","[""img/0894/86201968-6e78-4d68-9b3a-d1692e066210.jpg"",""img/0881/f6bd3b96-dc40-4e99-8681-bc3a35cf896d.jpg""]","",""
"","2716","similarity","160","716206","0.0-6.0-154.0","5","[""img/0875/42910c99-5463-450a-a0f8-d4d060a11455.jpg"",""img/0867/8ba0c5a7-c7e4-42cf-a80a-543763b90779.jpg""]","",""
"","2430","similarity","161","719640","0.0-6.0-155.0","5","[""img/0867/c71dc569-f49c-4397-8381-68b8d726736d.jpg"",""img/0758/53f35650-e455-4b53-8be4-c3c8271c6466.jpg""]","",""
"","2253","similarity","162","722896","0.0-6.0-156.0","1","[""img/0868/4e626425-63c8-484a-8a1d-e66ee4e0bef8.jpg"",""img/0901/12da1841-e611-435c-9719-109413d536a8.jpg""]","",""
"","3559","similarity","163","727458","0.0-6.0-157.0","5","[""img/0769/d1be2815-fa79-46e8-b5c3-7d81caaca490.jpg"",""img/0894/38cf335f-f76f-4349-8d65-e20cd6859565.jpg""]","",""
"","2229","similarity","164","730690","0.0-6.0-158.0","1","[""img/0904/0d17b811-063e-416e-a23c-3b3cfa4fcce5.jpg"",""img/0758/b76ceca7-95ac-46e4-ac13-da02c8e93be9.jpg""]","",""
"","2283","similarity","165","733978","0.0-6.0-159.0","1","[""img/0874/31e22c7c-99aa-40b1-bf03-dd73fa2df4d6.jpg"",""img/0904/4d7d70a3-9477-4921-bda0-f9531d0a5c5b.jpg""]","",""
"","2298","similarity","166","737280","0.0-6.0-160.0","1","[""img/0864/3d4de670-b290-4285-9c3d-12a0e3af44e9.jpg"",""img/0901/62315ff5-ed95-46b4-b099-92552079659b.jpg""]","",""
"","2803","similarity","167","741086","0.0-6.0-161.0","1","[""img/0898/26c41340-15bd-4ead-8fe4-c0d0ddca09c2.jpg"",""img/0866/02f5e6b9-52b7-448c-9708-5b460d0c9a23.jpg""]","",""
"","2442","similarity","168","744534","0.0-6.0-162.0","5","[""img/0766/f5f78e4e-d88f-4866-951a-118ba9fec4d0.jpg"",""img/0903/6378ee1e-3d2b-48d2-87be-bebda32c8268.jpg""]","",""
"","2183","similarity","169","747720","0.0-6.0-163.0","1","[""img/0860/fd4662f9-4c03-4d79-8593-06735e55a64b.jpg"",""img/0899/4f7bc593-8ddd-4da3-a0b9-84da730d3370.jpg""]","",""
"","2028","similarity","170","750752","0.0-6.0-164.0","1","[""img/0766/d5d38751-8fa5-476f-93e9-86ed2d9045ef.jpg"",""img/0862/4f0a3b4c-afbf-486e-b248-1d54982f54b4.jpg""]","",""
"","2586","similarity","171","754341","0.0-6.0-165.0","5","[""img/0898/5f699581-3853-4547-856c-12f419ba5af7.jpg"",""img/0894/2d2db7b3-e8a3-499b-b63a-14f51bf73882.jpg""]","",""
"","2159","similarity","172","757504","0.0-6.0-166.0","1","[""img/0867/075e0f95-856b-4cbb-acf5-092393aaf04e.jpg"",""img/0766/d3bab2fc-ddcc-40a0-bb72-c0d0ebe19978.jpg""]","",""
"","2599","similarity","173","761108","0.0-6.0-167.0","1","[""img/0904/6291eb43-c10c-4810-a36a-101d09868b04.jpg"",""img/0862/92f0146c-20c4-482e-aef5-adb693790338.jpg""]","",""
"","2956","similarity","174","765068","0.0-6.0-168.0","5","[""img/0866/a15b02be-11bb-43e3-b0e0-ecc3bd7dfc49.jpg"",""img/0874/adf9a8f1-c40b-402b-b95b-1e85a54a7b62.jpg""]","",""
"","2205","similarity","175","768276","0.0-6.0-169.0","1","[""img/0903/8635cf25-2648-4fe9-8c42-79d2598e999c.jpg"",""img/0868/d6d1f30d-4323-435a-b194-7892521bc57e.jpg""]","",""
"","3229","similarity","176","772508","0.0-6.0-170.0","5","[""img/0769/38a88f69-28fd-4bbd-99f0-f4c02bfd3995.jpg"",""img/0904/9dd5708f-3f8b-46a9-b49f-2f2fab87b357.jpg""]","",""
"","2931","similarity","177","776444","0.0-6.0-171.0","1","[""img/0875/34132396-d896-4c2d-8087-646dd867e769.jpg"",""img/0764/f713847b-4832-42d1-8fb3-e17e37fd745c.jpg""]","",""
"","2197","similarity","178","779646","0.0-6.0-172.0","1","[""img/0860/c3379ff7-0763-48fe-a1ec-7ea3d611bc7a.jpg"",""img/0903/97a42b34-5462-4665-88c7-83c014b33d24.jpg""]","",""
"","2554","similarity","179","783204","0.0-6.0-173.0","5","[""img/0864/e336a4c5-6648-4fd7-b2f6-93a3fb83f8c6.jpg"",""img/0867/85a96c62-548f-4994-9553-819e03c3135a.jpg""]","",""
"","2506","similarity","180","786714","0.0-6.0-174.0","5","[""img/0868/15dd6fd7-791e-4b53-b203-195d617521a4.jpg"",""img/0864/65210d57-1153-4657-886a-32e758f49b4a.jpg""]","",""
"","2375","similarity","181","790095","0.0-6.0-175.0","5","[""img/0898/82231d4c-218b-4d0a-b50d-35a49b524e97.jpg"",""img/0769/1afb527f-9887-428c-bd26-a12c2f9efb68.jpg""]","",""
"","3736","similarity","182","794834","0.0-6.0-176.0","5","[""img/0766/0025de5e-f620-4079-8a0f-00326ff3a6b0.jpg"",""img/0764/cffc80b0-4a90-4acb-a530-6f480f3ca303.jpg""]","",""
"","2360","similarity","183","798198","0.0-6.0-177.0","1","[""img/0764/da207710-e7e4-4f42-b2e6-99b5f357f433.jpg"",""img/0866/be24ab58-230e-4db8-9f45-ff04c9aec6bb.jpg""]","",""
"","2128","similarity","184","801330","0.0-6.0-178.0","1","[""img/0902/40d0b6ec-3907-4573-b227-e7d8e9cad1c3.jpg"",""img/0875/03c3c331-738b-4446-af92-3d7386b08c2e.jpg""]","",""
"","2307","similarity","185","804640","0.0-6.0-179.0","1","[""img/0881/84397291-bc14-4fbf-90e8-241e486ab0fe.jpg"",""img/0904/73920552-103b-4c9c-9ece-e0b8376b4504.jpg""]","",""
"","3597","similarity","186","809242","0.0-6.0-180.0","5","[""img/0874/c0378dac-9370-439a-8b79-db27c96fb390.jpg"",""img/0860/5383b320-1518-4095-a58e-5cc1ae30b64c.jpg""]","",""
"","3056","similarity","187","813302","0.0-6.0-181.0","1","[""img/0769/8c7cf147-1780-4d5c-8ddf-5ea23ff03ac9.jpg"",""img/0874/ca23d307-fc00-4d7d-9106-584c6eb21b4d.jpg""]","",""
"","3420","similarity","188","817726","0.0-6.0-182.0","5","[""img/0904/696ebb60-8891-417a-91fd-c53218907a95.jpg"",""img/0766/91fc8c4d-862f-4d2b-b1a1-2db8d729b6b7.jpg""]","",""
"","2965","similarity","189","821694","0.0-6.0-183.0","5","[""img/0902/0c760cc9-10ac-429e-8957-a7d51fc99683.jpg"",""img/0764/39a9fc7e-b863-432c-9374-de43983f31a5.jpg""]","",""
"","2592","similarity","190","825290","0.0-6.0-184.0","1","[""img/0769/8056889f-2b14-4782-bb25-b4e8896ab65b.jpg"",""img/0875/fb732ab5-013a-4366-9f65-27811ed157e9.jpg""]","",""
"","2908","similarity","191","829203","0.0-6.0-185.0","1","[""img/0867/1719a35d-f085-48c0-9099-16c94fe418b4.jpg"",""img/0903/aa842abe-6fa3-448a-bf71-88d3ad28663b.jpg""]","",""
"","2167","similarity","192","832374","0.0-6.0-186.0","1","[""img/0862/7918ca67-5bd3-4606-a5ea-c39fb11a9297.jpg"",""img/0769/8598a429-c671-4d2f-842c-32f681f5e412.jpg""]","",""
"","2059","similarity","193","835436","0.0-6.0-187.0","1","[""img/0766/db750ba0-ce04-46e1-b601-e1b80212bad2.jpg"",""img/0866/bf14b5bd-fb55-47db-86b9-4f8aeb9a6dad.jpg""]","",""
"","2206","similarity","194","838646","0.0-6.0-188.0","1","[""img/0769/5bd04f55-d091-4f57-85db-38426f26bd1a.jpg"",""img/0860/c47fdead-eb02-4989-b078-26f4852f44fe.jpg""]","",""
"","2258","similarity","195","846473","0.0-6.0-189.0","5","[""img/0881/19e82c47-8e4b-45d2-a6c8-74181eb4155e.jpg"",""img/0868/c8ac40c7-6904-4e13-8d61-c75d3052dc4e.jpg""]","",""
"[{""page_index"":0,""viewing_time"":4962}]","4963","instructions","196","852438","0.0-7.0","","","",""
"","21793","image-multi-choice","197","875248","0.0-8.0-0.0","","","{""Q0"":""Nashville Warbler""}","Nashville Warbler"
"","3774","image-multi-choice","198","880034","0.0-8.0-1.0","","","{""Q0"":""Black-and-white Warbler""}","Black-and-white Warbler"
"","7922","image-multi-choice","199","888969","0.0-8.0-2.0","","","{""Q0"":""Townsend's Warbler""}","Townsend's Warbler"
"","3783","image-multi-choice","200","893762","0.0-8.0-3.0","","","{""Q0"":""Lark Sparrow""}","Lark Sparrow"
"","3395","image-multi-choice","201","898171","0.0-8.0-4.0","","","{""Q0"":""Yellow Warbler""}","Yellow Warbler"
"","4502","image-multi-choice","202","903684","0.0-8.0-5.0","","","{""Q0"":""Orange-crowned Warbler""}","Orange-crowned Warbler"
"","4897","image-multi-choice","203","909594","0.0-8.0-6.0","","","{""Q0"":""White-throated Sparrow""}","White-throated Sparrow"
"","4031","image-multi-choice","204","914636","0.0-8.0-7.0","","","{""Q0"":""Fox Sparrow""}","Fox Sparrow"
"","6521","image-multi-choice","205","922168","0.0-8.0-8.0","","","{""Q0"":""Song Sparrow""}","Song Sparrow"
"","3777","image-multi-choice","206","926956","0.0-8.0-9.0","","","{""Q0"":""Blackburnian Warbler""}","Blackburnian Warbler"
"","3870","image-multi-choice","207","931836","0.0-8.0-10.0","","","{""Q0"":""Vesper Sparrow""}","Vesper Sparrow"
"","3096","image-multi-choice","208","935944","0.0-8.0-11.0","","","{""Q0"":""White-crowned Sparrow""}","White-crowned Sparrow"
"","3073","image-multi-choice","209","940028","0.0-8.0-12.0","","","{""Q0"":""American Tree Sparrow""}","American Tree Sparrow"
"","6528","image-multi-choice","210","947568","0.0-8.0-13.0","","","{""Q0"":""Tennessee Warbler""}","Tennessee Warbler"
"","3923","image-multi-choice","211","952502","0.0-8.0-14.0","","","{""Q0"":""Magnolia Warbler""}","Magnolia Warbler"
"","7024","image-multi-choice","212","960538","0.0-8.0-15.0","","","{""Q0"":""Northern Waterthrush""}","Northern Waterthrush"
"","6793","image-multi-choice","213","968342","0.0-8.0-16.0","","","{""Q0"":""Chipping Sparrow""}","Chipping Sparrow"
"","6436","image-multi-choice","214","975790","0.0-8.0-17.0","","","{""Q0"":""Swamp Sparrow""}","Swamp Sparrow"
"","3893","image-multi-choice","215","980695","0.0-8.0-18.0","","","{""Q0"":""Lincoln's Sparrow""}","Lincoln's Sparrow"
"","3590","image-multi-choice","216","985296","0.0-8.0-19.0","","","{""Q0"":""Ovenbird""}","Ovenbird"
