[{"view_history":"[{\"page_index\":0,\"viewing_time\":37319}]","rt":37321,"trial_type":"instructions","trial_index":0,"time_elapsed":37324,"internal_node_id":"0.0-0.0"},{"sim_score":7,"rt":6022,"stimulus":"[\"img/bluejay1.jpg\",\"img/bluejay2.jpg\"]","trial_type":"similarity_demo","trial_index":1,"time_elapsed":44364,"internal_node_id":"0.0-1.0"},{"view_history":"[{\"page_index\":0,\"viewing_time\":11039}]","rt":11041,"trial_type":"instructions","trial_index":2,"time_elapsed":56407,"internal_node_id":"0.0-2.0"},{"sim_score":2,"rt":6017,"stimulus":"[\"img/bluejay1.jpg\",\"img/cardinal1.jpg\"]","trial_type":"similarity_demo","trial_index":3,"time_elapsed":63433,"internal_node_id":"0.0-3.0"},{"view_history":"[{\"page_index\":0,\"viewing_time\":9883}]","rt":9884,"trial_type":"instructions","trial_index":4,"time_elapsed":74317,"internal_node_id":"0.0-4.0"},{"view_history":"[{\"page_index\":0,\"viewing_time\":15199}]","rt":15200,"trial_type":"instructions","trial_index":5,"time_elapsed":90518,"internal_node_id":"0.0-5.0"},{"sim_score":2,"rt":8553,"stimulus":"[\"img/0868/5fa7f9d0-f0e5-454c-8224-74d964818f56.jpg\",\"img/0894/05161000-f476-499b-a878-c13c7f347fd9.jpg\"]","trial_type":"similarity","trial_index":6,"time_elapsed":100081,"internal_node_id":"0.0-6.0-0.0"},{"sim_score":1,"rt":4984,"stimulus":"[\"img/0898/993d8f2d-bef7-4251-a193-0f93a32b7763.jpg\",\"img/0758/a085b443-b5d7-4cb2-9ad4-b9dab0fc23f1.jpg\"]","trial_type":"similarity","trial_index":7,"time_elapsed":106074,"internal_node_id":"0.0-6.0-1.0"},{"sim_score":3,"rt":4458,"stimulus":"[\"img/0903/47e39de8-6959-469f-8be9-6999a6db207c.jpg\",\"img/0894/86201968-6e78-4d68-9b3a-d1692e066210.jpg\"]","trial_type":"similarity","trial_index":8,"time_elapsed":111544,"internal_node_id":"0.0-6.0-2.0"},{"sim_score":2,"rt":4722,"stimulus":"[\"img/0881/445edb15-bd7f-4af3-8bd5-c6ad9677bb31.jpg\",\"img/0766/1bc0dccc-a5b5-4375-87fa-28360ca42b12.jpg\"]","trial_type":"similarity","trial_index":9,"time_elapsed":117273,"internal_node_id":"0.0-6.0-3.0"},{"sim_score":3,"rt":4359,"stimulus":"[\"img/0864/e8bd659f-aa43-4748-877e-3118e8b4e189.jpg\",\"img/0860/18dfed73-e36b-4487-a8bd-0b8cff8e3668.jpg\"]","trial_type":"similarity","trial_index":10,"time_elapsed":122642,"internal_node_id":"0.0-6.0-4.0"},{"sim_score":3,"rt":5644,"stimulus":"[\"img/0902/417d8b4a-3c72-4adc-ac78-820e833316f2.jpg\",\"img/0899/fd9efb43-701f-4cd6-baaa-4c38315f4bdc.jpg\"]","trial_type":"similarity","trial_index":11,"time_elapsed":129299,"internal_node_id":"0.0-6.0-5.0"},{"sim_score":1,"rt":4524,"stimulus":"[\"img/0868/77091fc7-a590-4ebb-b915-fdb2483a2399.jpg\",\"img/0769/f6396414-6788-4d59-9683-de153298d89c.jpg\"]","trial_type":"similarity","trial_index":12,"time_elapsed":134834,"internal_node_id":"0.0-6.0-6.0"},{"sim_score":3,"rt":3975,"stimulus":"[\"img/0764/fb92924f-5cfe-4b89-b130-0cce8cc5636b.jpg\",\"img/0901/1b86f2fc-7a1d-4aa8-9252-114f92edef3b.jpg\"]","trial_type":"similarity","trial_index":13,"time_elapsed":139818,"internal_node_id":"0.0-6.0-7.0"},{"sim_score":2,"rt":5623,"stimulus":"[\"img/0881/62a64f90-7a72-4aee-a1a1-0c548ac9bdda.jpg\",\"img/0866/8efcaa46-83ab-4dee-a35f-850402aa21ae.jpg\"]","trial_type":"similarity","trial_index":14,"time_elapsed":146449,"internal_node_id":"0.0-6.0-8.0"},{"sim_score":1,"rt":5537,"stimulus":"[\"img/0867/f8159067-056c-41f1-a136-c529fe5e970a.jpg\",\"img/0899/8de08897-b430-42fe-9d42-840670b80f94.jpg\"]","trial_type":"similarity","trial_index":15,"time_elapsed":152993,"internal_node_id":"0.0-6.0-9.0"},{"sim_score":1,"rt":5898,"stimulus":"[\"img/0875/2e13d160-eea1-416b-aff1-d37ab99ecc1d.jpg\",\"img/0766/f5f78e4e-d88f-4866-951a-118ba9fec4d0.jpg\"]","trial_type":"similarity","trial_index":16,"time_elapsed":159897,"internal_node_id":"0.0-6.0-10.0"},{"sim_score":1,"rt":4790,"stimulus":"[\"img/0901/d6d15b1c-4a30-4f74-a3fd-d4c8ee4169ca.jpg\",\"img/0875/34132396-d896-4c2d-8087-646dd867e769.jpg\"]","trial_type":"similarity","trial_index":17,"time_elapsed":165698,"internal_node_id":"0.0-6.0-11.0"},{"sim_score":2,"rt":6520,"stimulus":"[\"img/0902/b56db912-c3c0-4fc2-b325-d640acd7cb58.jpg\",\"img/0860/61fb959d-d4d9-4de4-9e4e-4fa62b4cfcd5.jpg\"]","trial_type":"similarity","trial_index":18,"time_elapsed":173224,"internal_node_id":"0.0-6.0-12.0"},{"sim_score":5,"rt":6987,"stimulus":"[\"img/0874/adf9a8f1-c40b-402b-b95b-1e85a54a7b62.jpg\",\"img/0867/1719a35d-f085-48c0-9099-16c94fe418b4.jpg\"]","trial_type":"similarity","trial_index":19,"time_elapsed":181220,"internal_node_id":"0.0-6.0-13.0"},{"sim_score":4,"rt":8656,"stimulus":"[\"img/0904/9dd5708f-3f8b-46a9-b49f-2f2fab87b357.jpg\",\"img/0866/11a1d141-be5e-443c-98c1-a9d4d9e3dec0.jpg\"]","trial_type":"similarity","trial_index":20,"time_elapsed":190882,"internal_node_id":"0.0-6.0-14.0"},{"sim_score":1,"rt":3928,"stimulus":"[\"img/0758/d540bee6-b460-4c32-ac57-bc282742d7d4.jpg\",\"img/0902/418b716e-63e5-4c77-93e9-95b1f5a3ddf0.jpg\"]","trial_type":"similarity","trial_index":21,"time_elapsed":195818,"internal_node_id":"0.0-6.0-15.0"},{"sim_score":2,"rt":4010,"stimulus":"[\"img/0867/12264664-1860-46df-8c21-162b9817cdda.jpg\",\"img/0898/04e39a7a-fcf6-4156-ab0e-f5871f335e1c.jpg\"]","trial_type":"similarity","trial_index":22,"time_elapsed":200833,"internal_node_id":"0.0-6.0-16.0"},{"sim_score":1,"rt":5472,"stimulus":"[\"img/0904/73920552-103b-4c9c-9ece-e0b8376b4504.jpg\",\"img/0868/179a5502-ab5c-478e-8263-5a1fbcc101d2.jpg\"]","trial_type":"similarity","trial_index":23,"time_elapsed":207314,"internal_node_id":"0.0-6.0-17.0"},{"sim_score":1,"rt":3594,"stimulus":"[\"img/0766/a754e4b6-5019-4cf4-8f58-34c20547a1f5.jpg\",\"img/0864/a248adb3-c70b-4652-b7a3-776d2a1e904b.jpg\"]","trial_type":"similarity","trial_index":24,"time_elapsed":211913,"internal_node_id":"0.0-6.0-18.0"},{"sim_score":3,"rt":3817,"stimulus":"[\"img/0899/06b0fc99-0581-461a-9913-d1a5a941ac61.jpg\",\"img/0766/2746b119-4bba-463e-acf0-88136dc6600c.jpg\"]","trial_type":"similarity","trial_index":25,"time_elapsed":216740,"internal_node_id":"0.0-6.0-19.0"},{"sim_score":1,"rt":3655,"stimulus":"[\"img/0764/f990b2e8-ecee-481e-be7c-0239fce350e2.jpg\",\"img/0758/7fba58df-2a7a-4b76-8a8f-62739f97f271.jpg\"]","trial_type":"similarity","trial_index":26,"time_elapsed":221402,"internal_node_id":"0.0-6.0-20.0"},{"sim_score":1,"rt":4825,"stimulus":"[\"img/0901/b123d109-47b4-4f9a-80c9-9bb16da42efa.jpg\",\"img/0874/a3bc679d-619f-4db6-bb68-116dcb757d9c.jpg\"]","trial_type":"similarity","trial_index":27,"time_elapsed":227234,"internal_node_id":"0.0-6.0-21.0"},{"sim_score":3,"rt":9513,"stimulus":"[\"img/0875/03c3c331-738b-4446-af92-3d7386b08c2e.jpg\",\"img/0758/9fb5b2fe-3f00-4fe6-973c-1ce10d5f4cd5.jpg\"]","trial_type":"similarity","trial_index":28,"time_elapsed":237755,"internal_node_id":"0.0-6.0-22.0"},{"sim_score":3,"rt":5440,"stimulus":"[\"img/0867/8ba0c5a7-c7e4-42cf-a80a-543763b90779.jpg\",\"img/0881/f7a8cc63-8842-40a4-9ff8-fe530310d62c.jpg\"]","trial_type":"similarity","trial_index":29,"time_elapsed":244203,"internal_node_id":"0.0-6.0-23.0"},{"sim_score":1,"rt":3248,"stimulus":"[\"img/0758/7ffbc76b-1fc1-432c-8f7e-9ec8d1b3f643.jpg\",\"img/0901/443f2e59-199b-4f7b-9de9-c44ad97326a5.jpg\"]","trial_type":"similarity","trial_index":30,"time_elapsed":248459,"internal_node_id":"0.0-6.0-24.0"},{"sim_score":5,"rt":4256,"stimulus":"[\"img/0868/6a28c3b0-3d76-498a-9fb7-ddafc665eca8.jpg\",\"img/0875/e7e66b13-b573-431e-b85e-288ce04a35a3.jpg\"]","trial_type":"similarity","trial_index":31,"time_elapsed":253723,"internal_node_id":"0.0-6.0-25.0"},{"sim_score":3,"rt":5617,"stimulus":"[\"img/0903/a0673b55-6040-47fe-9040-24bca27ca3c9.jpg\",\"img/0901/62315ff5-ed95-46b4-b099-92552079659b.jpg\"]","trial_type":"similarity","trial_index":32,"time_elapsed":260348,"internal_node_id":"0.0-6.0-26.0"},{"sim_score":3,"rt":4904,"stimulus":"[\"img/0894/3664e04c-c6d3-4c9b-afb6-25d89974b174.jpg\",\"img/0899/4408c14d-c168-4a7d-96f6-bc87bfb58f83.jpg\"]","trial_type":"similarity","trial_index":33,"time_elapsed":266259,"internal_node_id":"0.0-6.0-27.0"},{"sim_score":3,"rt":5106,"stimulus":"[\"img/0862/4f0a3b4c-afbf-486e-b248-1d54982f54b4.jpg\",\"img/0867/f8488a47-94ee-4166-952c-44e16cf172f6.jpg\"]","trial_type":"similarity","trial_index":34,"time_elapsed":272371,"internal_node_id":"0.0-6.0-28.0"},{"sim_score":3,"rt":4619,"stimulus":"[\"img/0864/3651d070-2fc5-4848-b6a6-088a2d9ac5c9.jpg\",\"img/0875/2c361b79-c3d1-4eda-812e-bf03192407bf.jpg\"]","trial_type":"similarity","trial_index":35,"time_elapsed":277995,"internal_node_id":"0.0-6.0-29.0"},{"sim_score":3,"rt":4745,"stimulus":"[\"img/0862/92fcd8a4-8193-4a6a-ae09-dd4a6338b0df.jpg\",\"img/0874/85eb9b8a-c4c6-4e5a-b8e7-363a87a82054.jpg\"]","trial_type":"similarity","trial_index":36,"time_elapsed":283747,"internal_node_id":"0.0-6.0-30.0"},{"sim_score":1,"rt":3985,"stimulus":"[\"img/0903/97a42b34-5462-4665-88c7-83c014b33d24.jpg\",\"img/0758/65d426d6-3ff6-415d-8654-a43b83ecc4fe.jpg\"]","trial_type":"similarity","trial_index":37,"time_elapsed":288739,"internal_node_id":"0.0-6.0-31.0"},{"sim_score":1,"rt":3393,"stimulus":"[\"img/0866/6f2a90d7-14f1-4f1b-bd64-fc0af6b9fe44.jpg\",\"img/0901/548d1110-7cb8-42a2-9927-9798875c8b5c.jpg\"]","trial_type":"similarity","trial_index":38,"time_elapsed":293139,"internal_node_id":"0.0-6.0-32.0"},{"sim_score":1,"rt":4032,"stimulus":"[\"img/0874/99f6563c-8a8d-4c1c-a41d-667b618c3fd5.jpg\",\"img/0899/51a7a498-98c7-42d7-bca8-bc2d8f0b5831.jpg\"]","trial_type":"similarity","trial_index":39,"time_elapsed":298180,"internal_node_id":"0.0-6.0-33.0"},{"sim_score":7,"rt":4497,"stimulus":"[\"img/0903/8931c67c-a43d-47d3-a4c9-42aa2f81d344.jpg\",\"img/0902/07437a16-3d0f-4a5c-89ec-36d0efa4b3b8.jpg\"]","trial_type":"similarity","trial_index":40,"time_elapsed":303683,"internal_node_id":"0.0-6.0-34.0"},{"sim_score":3,"rt":5985,"stimulus":"[\"img/0758/e1ba5e53-addc-436a-b428-d34fc1b130dc.jpg\",\"img/0866/d266fece-59b3-46fa-b69f-96f6efb81b59.jpg\"]","trial_type":"similarity","trial_index":41,"time_elapsed":310674,"internal_node_id":"0.0-6.0-35.0"},{"sim_score":1,"rt":3905,"stimulus":"[\"img/0875/3ecb367d-e9eb-4826-8aaa-7aa72fb98019.jpg\",\"img/0903/39365c8e-a733-4801-ac7d-b87e38c3784b.jpg\"]","trial_type":"similarity","trial_index":42,"time_elapsed":315588,"internal_node_id":"0.0-6.0-36.0"},{"sim_score":1,"rt":2849,"stimulus":"[\"img/0864/c22faebd-9c53-47bc-ada3-b9a30c688e75.jpg\",\"img/0902/4e0baa32-988e-46f6-989d-f669225ab645.jpg\"]","trial_type":"similarity","trial_index":43,"time_elapsed":332466,"internal_node_id":"0.0-6.0-37.0"},{"sim_score":2,"rt":6268,"stimulus":"[\"img/0901/b13fa50f-dbe0-4d0f-8647-6ac0fd8f40bd.jpg\",\"img/0867/ac1797e4-8afc-48fe-b252-86d1defb1cca.jpg\"]","trial_type":"similarity","trial_index":44,"time_elapsed":339740,"internal_node_id":"0.0-6.0-38.0"},{"sim_score":5,"rt":5738,"stimulus":"[\"img/0862/ee3b7bff-4a70-4e84-9bea-4a565e456acb.jpg\",\"img/0860/99c589b9-9140-4d17-90c0-b344323edcda.jpg\"]","trial_type":"similarity","trial_index":45,"time_elapsed":346484,"internal_node_id":"0.0-6.0-39.0"},{"sim_score":5,"rt":6025,"stimulus":"[\"img/0867/26611f4e-d694-4460-b7e2-43c62753ddc3.jpg\",\"img/0868/c8ac40c7-6904-4e13-8d61-c75d3052dc4e.jpg\"]","trial_type":"similarity","trial_index":46,"time_elapsed":353516,"internal_node_id":"0.0-6.0-40.0"},{"sim_score":5,"rt":4353,"stimulus":"[\"img/0904/696ebb60-8891-417a-91fd-c53218907a95.jpg\",\"img/0899/1b3457ea-87d4-4946-a01c-aac1863ed46c.jpg\"]","trial_type":"similarity","trial_index":47,"time_elapsed":358877,"internal_node_id":"0.0-6.0-41.0"},{"sim_score":3,"rt":4290,"stimulus":"[\"img/0862/d0ca4c78-fc35-46ed-bdcc-8e124283c53e.jpg\",\"img/0894/38cf335f-f76f-4349-8d65-e20cd6859565.jpg\"]","trial_type":"similarity","trial_index":48,"time_elapsed":364174,"internal_node_id":"0.0-6.0-42.0"},{"sim_score":1,"rt":4190,"stimulus":"[\"img/0875/8521fd58-3b1e-4dc5-97ae-804edfa6734a.jpg\",\"img/0904/2f88ce53-02d0-4f95-a082-182c56a0eeb4.jpg\"]","trial_type":"similarity","trial_index":49,"time_elapsed":369372,"internal_node_id":"0.0-6.0-43.0"},{"sim_score":1,"rt":3521,"stimulus":"[\"img/0874/995f0332-0439-4eb4-add3-957335dbf6d9.jpg\",\"img/0898/0c7dde4f-efce-4b7a-9387-6921635b7890.jpg\"]","trial_type":"similarity","trial_index":50,"time_elapsed":373900,"internal_node_id":"0.0-6.0-44.0"},{"sim_score":1,"rt":3624,"stimulus":"[\"img/0898/6cd3830b-d44e-4915-be2b-88d31424b91c.jpg\",\"img/0868/d98ca254-b195-477f-b57e-5760a2717db8.jpg\"]","trial_type":"similarity","trial_index":51,"time_elapsed":378531,"internal_node_id":"0.0-6.0-45.0"},{"sim_score":1,"rt":2876,"stimulus":"[\"img/0901/a2d7b2f6-396b-4d91-8403-de5361c74af7.jpg\",\"img/0860/4a022222-056d-461c-ab02-39fac9647552.jpg\"]","trial_type":"similarity","trial_index":52,"time_elapsed":382413,"internal_node_id":"0.0-6.0-46.0"},{"sim_score":5,"rt":5240,"stimulus":"[\"img/0894/7fb082e0-ce79-485c-9109-04367fb32275.jpg\",\"img/0902/168ebd47-9e82-4ab7-a18b-c3da85072db8.jpg\"]","trial_type":"similarity","trial_index":53,"time_elapsed":388661,"internal_node_id":"0.0-6.0-47.0"},{"sim_score":1,"rt":5147,"stimulus":"[\"img/0764/1def7b22-b054-4ec2-860b-73d25691823b.jpg\",\"img/0862/e0f1a4e9-e1b6-45f7-af67-89f334e6630d.jpg\"]","trial_type":"similarity","trial_index":54,"time_elapsed":394813,"internal_node_id":"0.0-6.0-48.0"},{"sim_score":5,"rt":6186,"stimulus":"[\"img/0881/c843e210-bdfe-4a7c-8bbe-fcea1f90fe1c.jpg\",\"img/0758/3ddd05d3-557e-4ee7-8b78-9d2d681d8ae2.jpg\"]","trial_type":"similarity","trial_index":55,"time_elapsed":402004,"internal_node_id":"0.0-6.0-49.0"},{"sim_score":5,"rt":6162,"stimulus":"[\"img/0766/e8052e17-9dae-4139-802b-6e590cb2d526.jpg\",\"img/0769/458d9c77-b844-40b5-bb1b-1e3bbd4da64e.jpg\"]","trial_type":"similarity","trial_index":56,"time_elapsed":409173,"internal_node_id":"0.0-6.0-50.0"},{"sim_score":5,"rt":4306,"stimulus":"[\"img/0875/f87b67d7-c33e-40d1-b281-248c4be1cb6e.jpg\",\"img/0866/bf14b5bd-fb55-47db-86b9-4f8aeb9a6dad.jpg\"]","trial_type":"similarity","trial_index":57,"time_elapsed":414487,"internal_node_id":"0.0-6.0-51.0"},{"sim_score":5,"rt":4222,"stimulus":"[\"img/0894/4739e06d-c31e-4bf1-bf91-c97fa9afb456.jpg\",\"img/0904/e9423a8c-f946-43ad-ab7b-931acef870e2.jpg\"]","trial_type":"similarity","trial_index":58,"time_elapsed":419717,"internal_node_id":"0.0-6.0-52.0"},{"sim_score":1,"rt":4361,"stimulus":"[\"img/0758/6cd8c362-ae2a-41eb-80a3-3a4f7ace1530.jpg\",\"img/0769/35f2dd39-40aa-498e-b401-9f1ef2622d00.jpg\"]","trial_type":"similarity","trial_index":59,"time_elapsed":425085,"internal_node_id":"0.0-6.0-53.0"},{"sim_score":1,"rt":3934,"stimulus":"[\"img/0902/0c760cc9-10ac-429e-8957-a7d51fc99683.jpg\",\"img/0874/3f471690-9788-4d03-90c7-f615aecef149.jpg\"]","trial_type":"similarity","trial_index":60,"time_elapsed":430024,"internal_node_id":"0.0-6.0-54.0"},{"sim_score":1,"rt":4663,"stimulus":"[\"img/0903/f1fa0f8d-e62b-4b4a-a174-31a0fabfe61b.jpg\",\"img/0862/de9ad88c-b522-430a-8ee9-eb06a9f85df5.jpg\"]","trial_type":"similarity","trial_index":61,"time_elapsed":435695,"internal_node_id":"0.0-6.0-55.0"},{"sim_score":1,"rt":3759,"stimulus":"[\"img/0866/d493a2c8-66eb-44b4-be02-2f327b700b7c.jpg\",\"img/0894/b422d5c6-3c5a-49ae-a53e-7e88ac993f49.jpg\"]","trial_type":"similarity","trial_index":62,"time_elapsed":440463,"internal_node_id":"0.0-6.0-56.0"},{"sim_score":1,"rt":4221,"stimulus":"[\"img/0867/db7e032f-162b-46f5-ae67-2b29679adee4.jpg\",\"img/0904/b5855d6a-7ef9-46ca-9215-6e9fa046e543.jpg\"]","trial_type":"similarity","trial_index":63,"time_elapsed":445693,"internal_node_id":"0.0-6.0-57.0"},{"sim_score":5,"rt":4170,"stimulus":"[\"img/0875/42910c99-5463-450a-a0f8-d4d060a11455.jpg\",\"img/0881/e046471a-35b4-4159-bbf7-3cfd201bef66.jpg\"]","trial_type":"similarity","trial_index":64,"time_elapsed":450869,"internal_node_id":"0.0-6.0-58.0"},{"sim_score":3,"rt":5706,"stimulus":"[\"img/0866/c446214b-a368-4c65-ae39-ea46894256ab.jpg\",\"img/0860/b03b963d-949b-4d8d-b19c-4950c89eeca2.jpg\"]","trial_type":"similarity","trial_index":65,"time_elapsed":457581,"internal_node_id":"0.0-6.0-59.0"},{"sim_score":1,"rt":3705,"stimulus":"[\"img/0903/b548d383-2a95-4575-8c13-647873751ff1.jpg\",\"img/0866/4a87911a-d5be-4d4e-ab8e-3d1f581bf507.jpg\"]","trial_type":"similarity","trial_index":66,"time_elapsed":462293,"internal_node_id":"0.0-6.0-60.0"},{"sim_score":5,"rt":5009,"stimulus":"[\"img/0860/5bff793e-cbd5-4d7e-b628-0ac2b0e30b64.jpg\",\"img/0875/5a716432-c6ca-4b1c-955a-2b8ac25198ee.jpg\"]","trial_type":"similarity","trial_index":67,"time_elapsed":468310,"internal_node_id":"0.0-6.0-61.0"},{"sim_score":3,"rt":4338,"stimulus":"[\"img/0898/b2732712-71c2-45d8-834f-2b2ed5504910.jpg\",\"img/0862/fb26cb07-d5a9-4653-813c-f41609f26cd5.jpg\"]","trial_type":"similarity","trial_index":68,"time_elapsed":473653,"internal_node_id":"0.0-6.0-62.0"},{"sim_score":5,"rt":3554,"stimulus":"[\"img/0902/aa6fca32-82b0-4414-b20a-8f6f8aa5a2d2.jpg\",\"img/0766/535849cc-ff5d-4df9-8f31-0ce94a97d571.jpg\"]","trial_type":"similarity","trial_index":69,"time_elapsed":478215,"internal_node_id":"0.0-6.0-63.0"},{"sim_score":5,"rt":4577,"stimulus":"[\"img/0758/f61ecdf8-a7d4-4db0-b84d-be46f7cfaffc.jpg\",\"img/0864/5f33e097-23e3-4002-882d-76e8cb15f451.jpg\"]","trial_type":"similarity","trial_index":70,"time_elapsed":483799,"internal_node_id":"0.0-6.0-64.0"},{"sim_score":1,"rt":5537,"stimulus":"[\"img/0894/10f22b96-040c-44f4-950b-a4963f3f506c.jpg\",\"img/0860/8277806e-b684-4474-8f7b-3fca946d7d4f.jpg\"]","trial_type":"similarity","trial_index":71,"time_elapsed":490342,"internal_node_id":"0.0-6.0-65.0"},{"sim_score":1,"rt":3569,"stimulus":"[\"img/0899/93494f3b-d539-4075-b027-d82e344563da.jpg\",\"img/0868/09a9ef4d-d000-4cfa-a6aa-ebec7c2edeb4.jpg\"]","trial_type":"similarity","trial_index":72,"time_elapsed":494918,"internal_node_id":"0.0-6.0-66.0"},{"sim_score":3,"rt":4944,"stimulus":"[\"img/0866/23a224f3-2012-4fc8-8e0f-3c36f8de27fd.jpg\",\"img/0862/00c06b00-3b73-44e9-bc1e-c5aafb438321.jpg\"]","trial_type":"similarity","trial_index":73,"time_elapsed":500870,"internal_node_id":"0.0-6.0-67.0"},{"sim_score":3,"rt":4410,"stimulus":"[\"img/0860/524b2e98-5767-4d53-942c-ebae6925659b.jpg\",\"img/0758/67c0be2f-9e91-48b3-8219-70ac0a1802fa.jpg\"]","trial_type":"similarity","trial_index":74,"time_elapsed":506286,"internal_node_id":"0.0-6.0-68.0"},{"sim_score":1,"rt":4489,"stimulus":"[\"img/0902/b76efc44-a50f-4dac-b997-ff0222376067.jpg\",\"img/0867/179ab87a-8eac-4c52-a41f-2e48e3120f09.jpg\"]","trial_type":"similarity","trial_index":75,"time_elapsed":511782,"internal_node_id":"0.0-6.0-69.0"},{"sim_score":1,"rt":3873,"stimulus":"[\"img/0862/e8cc3bdf-cc43-4565-bccf-492626c70953.jpg\",\"img/0901/f1116359-1ff1-4638-b3b3-700918d36d18.jpg\"]","trial_type":"similarity","trial_index":76,"time_elapsed":516662,"internal_node_id":"0.0-6.0-70.0"},{"sim_score":4,"rt":3969,"stimulus":"[\"img/0867/cc72ed48-7704-422c-86d6-467a1145287a.jpg\",\"img/0866/a04d37f0-99dd-478a-b6c6-58b215138f84.jpg\"]","trial_type":"similarity","trial_index":77,"time_elapsed":521639,"internal_node_id":"0.0-6.0-71.0"},{"sim_score":1,"rt":3642,"stimulus":"[\"img/0860/8fdba999-b946-4c7d-9891-336018b563ef.jpg\",\"img/0904/63dd06dd-dccb-47ba-9740-eb33239e18a7.jpg\"]","trial_type":"similarity","trial_index":78,"time_elapsed":526287,"internal_node_id":"0.0-6.0-72.0"},{"sim_score":1,"rt":3529,"stimulus":"[\"img/0875/dbdd643e-6d0e-4a5c-ab57-b9c29b9c981a.jpg\",\"img/0899/ad8268c5-8199-48d0-ad70-c5b6d6c599ec.jpg\"]","trial_type":"similarity","trial_index":79,"time_elapsed":530822,"internal_node_id":"0.0-6.0-73.0"},{"sim_score":1,"rt":2833,"stimulus":"[\"img/0899/d60714ae-98d7-4564-8c98-94dba1351135.jpg\",\"img/0758/dd559618-7f09-4a07-8018-d311c4a5ea29.jpg\"]","trial_type":"similarity","trial_index":80,"time_elapsed":534663,"internal_node_id":"0.0-6.0-74.0"},{"sim_score":5,"rt":6002,"stimulus":"[\"img/0862/92f0146c-20c4-482e-aef5-adb693790338.jpg\",\"img/0875/cff79b3a-a797-4393-9757-6275f999ec04.jpg\"]","trial_type":"similarity","trial_index":81,"time_elapsed":772066,"internal_node_id":"0.0-6.0-75.0"},{"sim_score":4,"rt":4345,"stimulus":"[\"img/0901/f469cb1d-6d81-4a45-bab5-cd0b650c2b4f.jpg\",\"img/0894/11674fa4-285d-44e2-939f-2228c6a64080.jpg\"]","trial_type":"similarity","trial_index":82,"time_elapsed":777421,"internal_node_id":"0.0-6.0-76.0"},{"sim_score":1,"rt":3792,"stimulus":"[\"img/0766/60033a74-9919-47e5-913c-71d0d483e7e5.jpg\",\"img/0758/2fa3e613-e676-4e6e-bd12-705327eeb3e1.jpg\"]","trial_type":"similarity","trial_index":83,"time_elapsed":782220,"internal_node_id":"0.0-6.0-77.0"},{"sim_score":5,"rt":4579,"stimulus":"[\"img/0894/0130a973-d993-41f8-874a-fee23d9ac11f.jpg\",\"img/0764/f2f23359-8e82-41d3-8900-5b9f4433991d.jpg\"]","trial_type":"similarity","trial_index":84,"time_elapsed":787803,"internal_node_id":"0.0-6.0-78.0"},{"sim_score":4,"rt":3593,"stimulus":"[\"img/0860/c7047cd2-7cc1-41b6-8a34-c0986774975f.jpg\",\"img/0867/6e19c858-b606-45b2-a4c6-910a73f1d82c.jpg\"]","trial_type":"similarity","trial_index":85,"time_elapsed":792404,"internal_node_id":"0.0-6.0-79.0"},{"sim_score":5,"rt":6353,"stimulus":"[\"img/0898/08c72dac-f8ad-407a-9ce6-8c9a5d679c3a.jpg\",\"img/0901/12da1841-e611-435c-9719-109413d536a8.jpg\"]","trial_type":"similarity","trial_index":86,"time_elapsed":799764,"internal_node_id":"0.0-6.0-80.0"},{"sim_score":1,"rt":3761,"stimulus":"[\"img/0874/ca23d307-fc00-4d7d-9106-584c6eb21b4d.jpg\",\"img/0764/b8e23f4f-ff19-4472-ad9b-2f85548ebca0.jpg\"]","trial_type":"similarity","trial_index":87,"time_elapsed":804532,"internal_node_id":"0.0-6.0-81.0"},{"sim_score":1,"rt":4480,"stimulus":"[\"img/0899/0433d056-aa30-4f8a-9aa1-abbb951e4edd.jpg\",\"img/0862/53a9cf7c-93c4-41b9-952f-07d17f7a17b2.jpg\"]","trial_type":"similarity","trial_index":88,"time_elapsed":810020,"internal_node_id":"0.0-6.0-82.0"},{"sim_score":4,"rt":6258,"stimulus":"[\"img/0766/f3276cc4-65de-4c2d-88d5-6cfebce14b8f.jpg\",\"img/0901/2a953e50-d237-405c-a38d-5ed21494c968.jpg\"]","trial_type":"similarity","trial_index":89,"time_elapsed":817283,"internal_node_id":"0.0-6.0-83.0"},{"sim_score":1,"rt":3489,"stimulus":"[\"img/0881/4da99fdd-1f40-4bbb-8e21-8833eef313f5.jpg\",\"img/0898/0af304a2-6a7a-4082-ab7c-4450cd08cc58.jpg\"]","trial_type":"similarity","trial_index":90,"time_elapsed":821778,"internal_node_id":"0.0-6.0-84.0"},{"sim_score":2,"rt":5875,"stimulus":"[\"img/0868/fd307a36-9a3a-47d7-ab7c-f810d0b35040.jpg\",\"img/0860/87039971-2210-4aab-93c0-8e9b5f1655b2.jpg\"]","trial_type":"similarity","trial_index":91,"time_elapsed":828660,"internal_node_id":"0.0-6.0-85.0"},{"sim_score":3,"rt":4378,"stimulus":"[\"img/0758/6e95579b-5166-487c-b8cb-e417c6a218e3.jpg\",\"img/0868/3a62db2d-97e9-44a3-b8e3-a48c6f0e423b.jpg\"]","trial_type":"similarity","trial_index":92,"time_elapsed":834044,"internal_node_id":"0.0-6.0-86.0"},{"sim_score":1,"rt":3506,"stimulus":"[\"img/0864/afcba0a3-7e27-4757-b254-e9f05fad27e2.jpg\",\"img/0894/7dd6ff43-f8fc-408a-8a41-a2b261871820.jpg\"]","trial_type":"similarity","trial_index":93,"time_elapsed":838556,"internal_node_id":"0.0-6.0-87.0"},{"sim_score":1,"rt":5145,"stimulus":"[\"img/0866/a15b02be-11bb-43e3-b0e0-ecc3bd7dfc49.jpg\",\"img/0902/01b41522-de46-4c3a-b0af-a61b2682b40e.jpg\"]","trial_type":"similarity","trial_index":94,"time_elapsed":844708,"internal_node_id":"0.0-6.0-88.0"},{"sim_score":1,"rt":2449,"stimulus":"[\"img/0769/1d8734c4-77ab-4165-9e71-5cfe672ff01c.jpg\",\"img/0867/98d8cd96-1476-4fe0-a3a3-04f875500a1b.jpg\"]","trial_type":"similarity","trial_index":95,"time_elapsed":848165,"internal_node_id":"0.0-6.0-89.0"},{"sim_score":5,"rt":3369,"stimulus":"[\"img/0874/ca76a855-4e77-4f2f-872a-0a718153e7ed.jpg\",\"img/0875/a4935837-7d3c-4df6-88c1-36a94d4991ca.jpg\"]","trial_type":"similarity","trial_index":96,"time_elapsed":852541,"internal_node_id":"0.0-6.0-90.0"},{"sim_score":5,"rt":5130,"stimulus":"[\"img/0864/1d15626a-2f7c-410f-819c-0fa2c967e95e.jpg\",\"img/0874/c0378dac-9370-439a-8b79-db27c96fb390.jpg\"]","trial_type":"similarity","trial_index":97,"time_elapsed":858677,"internal_node_id":"0.0-6.0-91.0"},{"sim_score":5,"rt":4298,"stimulus":"[\"img/0881/48ed65a5-471f-41af-86ec-3793805c116d.jpg\",\"img/0862/7918ca67-5bd3-4606-a5ea-c39fb11a9297.jpg\"]","trial_type":"similarity","trial_index":98,"time_elapsed":863981,"internal_node_id":"0.0-6.0-92.0"},{"sim_score":5,"rt":4402,"stimulus":"[\"img/0864/8ddd2e30-a1d0-479f-9cbe-591213023893.jpg\",\"img/0881/f037e3b0-09cb-4a83-b2d9-6a71fe474e63.jpg\"]","trial_type":"similarity","trial_index":99,"time_elapsed":869389,"internal_node_id":"0.0-6.0-93.0"},{"sim_score":5,"rt":3930,"stimulus":"[\"img/0899/0e1d936a-dbe2-4afc-9f19-7b7a1ae6c9ed.jpg\",\"img/0901/04a53755-6da5-44d4-a7a6-48a6bc0a2280.jpg\"]","trial_type":"similarity","trial_index":100,"time_elapsed":874324,"internal_node_id":"0.0-6.0-94.0"},{"sim_score":1,"rt":5899,"stimulus":"[\"img/0874/31e22c7c-99aa-40b1-bf03-dd73fa2df4d6.jpg\",\"img/0766/214866ee-423d-4629-9bb9-41572bdc7dac.jpg\"]","trial_type":"similarity","trial_index":101,"time_elapsed":881229,"internal_node_id":"0.0-6.0-95.0"},{"sim_score":1,"rt":3850,"stimulus":"[\"img/0881/e6746727-7f89-47ec-b939-d98abe78372d.jpg\",\"img/0899/565ccdd9-0933-4536-a625-3c0e25a713dd.jpg\"]","trial_type":"similarity","trial_index":102,"time_elapsed":886084,"internal_node_id":"0.0-6.0-96.0"},{"sim_score":1,"rt":3153,"stimulus":"[\"img/0862/99a99e39-8355-44ec-b993-e7bcec111e1c.jpg\",\"img/0902/3f0eeac5-c996-4026-a376-563ce8f28521.jpg\"]","trial_type":"similarity","trial_index":103,"time_elapsed":890245,"internal_node_id":"0.0-6.0-97.0"},{"sim_score":5,"rt":5400,"stimulus":"[\"img/0899/fef567a2-c121-4481-9af0-ff108d199bbf.jpg\",\"img/0764/55b3fab1-b809-4d38-a461-3f40ce062f52.jpg\"]","trial_type":"similarity","trial_index":104,"time_elapsed":896654,"internal_node_id":"0.0-6.0-98.0"},{"sim_score":5,"rt":4687,"stimulus":"[\"img/0758/335851a0-a55b-46d8-ab05-8463eda48349.jpg\",\"img/0862/fad1d7c1-8187-43c3-942a-0fc12183e48e.jpg\"]","trial_type":"similarity","trial_index":105,"time_elapsed":902349,"internal_node_id":"0.0-6.0-99.0"},{"sim_score":6,"rt":4570,"stimulus":"[\"img/0764/29072395-f595-4e3c-83d3-ff87010039fa.jpg\",\"img/0898/f3a3f225-1248-4ac7-b93b-f0ff28485bf3.jpg\"]","trial_type":"similarity","trial_index":106,"time_elapsed":907924,"internal_node_id":"0.0-6.0-100.0"},{"sim_score":5,"rt":3419,"stimulus":"[\"img/0901/a0d65c84-3f20-476a-92d1-0c01e8019cf4.jpg\",\"img/0902/a6fb6dd5-696c-47ec-be7d-d7b88f1544f1.jpg\"]","trial_type":"similarity","trial_index":107,"time_elapsed":912350,"internal_node_id":"0.0-6.0-101.0"},{"sim_score":1,"rt":3753,"stimulus":"[\"img/0764/62fafeea-6274-48ce-976f-35d3d3484c65.jpg\",\"img/0868/4a8a45ed-2c4f-421b-9564-409a33ecd26c.jpg\"]","trial_type":"similarity","trial_index":108,"time_elapsed":917110,"internal_node_id":"0.0-6.0-102.0"},{"sim_score":1,"rt":4674,"stimulus":"[\"img/0769/1ca58b80-2365-446d-9616-6c1719e6c46f.jpg\",\"img/0881/5fe04dd0-5c74-47b7-99c8-b068db9ca26a.jpg\"]","trial_type":"similarity","trial_index":109,"time_elapsed":922790,"internal_node_id":"0.0-6.0-103.0"},{"sim_score":1,"rt":2953,"stimulus":"[\"img/0864/300bb811-8b3c-4c42-8653-6097c3725197.jpg\",\"img/0769/96556ef3-7fac-4c9d-8281-1cb0ea5081bc.jpg\"]","trial_type":"similarity","trial_index":110,"time_elapsed":926749,"internal_node_id":"0.0-6.0-104.0"},{"sim_score":6,"rt":4651,"stimulus":"[\"img/0866/9b38d691-1802-4959-ab3f-fc902f0e4ea6.jpg\",\"img/0868/293079b8-7e0c-4afd-a390-1e5d35fe3ded.jpg\"]","trial_type":"similarity","trial_index":111,"time_elapsed":932406,"internal_node_id":"0.0-6.0-105.0"},{"sim_score":4,"rt":3368,"stimulus":"[\"img/0868/7b212364-ff5f-4e28-9241-7eb6ea00161b.jpg\",\"img/0862/1c20f772-3a51-4a80-aac0-f57dc9f86c28.jpg\"]","trial_type":"similarity","trial_index":112,"time_elapsed":936782,"internal_node_id":"0.0-6.0-106.0"},{"sim_score":4,"rt":4226,"stimulus":"[\"img/0766/d3bab2fc-ddcc-40a0-bb72-c0d0ebe19978.jpg\",\"img/0898/5f699581-3853-4547-856c-12f419ba5af7.jpg\"]","trial_type":"similarity","trial_index":113,"time_elapsed":942013,"internal_node_id":"0.0-6.0-107.0"},{"sim_score":1,"rt":3243,"stimulus":"[\"img/0898/c3cecf20-f7fd-45fa-97d0-dc0a63e8d6c0.jpg\",\"img/0864/3d4de670-b290-4285-9c3d-12a0e3af44e9.jpg\"]","trial_type":"similarity","trial_index":114,"time_elapsed":946262,"internal_node_id":"0.0-6.0-108.0"},{"sim_score":1,"rt":5138,"stimulus":"[\"img/0868/4e626425-63c8-484a-8a1d-e66ee4e0bef8.jpg\",\"img/0902/6c2c243a-f663-45db-baf5-038d3d58c589.jpg\"]","trial_type":"similarity","trial_index":115,"time_elapsed":952406,"internal_node_id":"0.0-6.0-109.0"},{"sim_score":5,"rt":4153,"stimulus":"[\"img/0904/24fc38fe-842c-4831-ad8a-b1de5c25c0a8.jpg\",\"img/0764/bd2eaa3e-95a9-4a59-a78e-3f81c766eea9.jpg\"]","trial_type":"similarity","trial_index":116,"time_elapsed":957566,"internal_node_id":"0.0-6.0-110.0"},{"sim_score":1,"rt":3594,"stimulus":"[\"img/0894/e6385e52-6c35-43bd-b0af-bc803d107b11.jpg\",\"img/0875/99698b4d-b4a1-44bc-8c83-8ea755bbbf61.jpg\"]","trial_type":"similarity","trial_index":117,"time_elapsed":962166,"internal_node_id":"0.0-6.0-111.0"},{"sim_score":5,"rt":3665,"stimulus":"[\"img/0868/1a62b2b2-18f5-466e-b564-5176a57c565e.jpg\",\"img/0874/3ce41e7c-40c8-4d58-a546-171114521796.jpg\"]","trial_type":"similarity","trial_index":118,"time_elapsed":966838,"internal_node_id":"0.0-6.0-112.0"},{"sim_score":5,"rt":3746,"stimulus":"[\"img/0904/a8c3c7d2-9bcf-4347-9e03-8203adfc1fc5.jpg\",\"img/0898/661621d4-a14e-487c-8c74-354134a29710.jpg\"]","trial_type":"similarity","trial_index":119,"time_elapsed":977372,"internal_node_id":"0.0-6.0-113.0"},{"sim_score":1,"rt":3724,"stimulus":"[\"img/0860/5383b320-1518-4095-a58e-5cc1ae30b64c.jpg\",\"img/0766/d512b99c-a2dc-40d7-8e86-827323a0cbcf.jpg\"]","trial_type":"similarity","trial_index":120,"time_elapsed":982102,"internal_node_id":"0.0-6.0-114.0"},{"sim_score":1,"rt":4226,"stimulus":"[\"img/0894/6aa5545f-fa7d-4286-bbaa-aaf34dc7ec96.jpg\",\"img/0874/767f289c-9814-4496-803f-745cc8913d1f.jpg\"]","trial_type":"similarity","trial_index":121,"time_elapsed":987334,"internal_node_id":"0.0-6.0-115.0"},{"sim_score":5,"rt":3739,"stimulus":"[\"img/0899/0adc0bc3-6fca-4078-be6f-d45ddf1653d5.jpg\",\"img/0903/4cbdc464-e562-4ec2-9bb6-15f894fdf528.jpg\"]","trial_type":"similarity","trial_index":122,"time_elapsed":992079,"internal_node_id":"0.0-6.0-116.0"},{"sim_score":1,"rt":5009,"stimulus":"[\"img/0881/6b1189e6-232d-4042-8885-16dc7b10e0d4.jpg\",\"img/0764/50f1b062-d608-4bc0-ab25-b872dcf2ed93.jpg\"]","trial_type":"similarity","trial_index":123,"time_elapsed":998094,"internal_node_id":"0.0-6.0-117.0"},{"sim_score":5,"rt":8410,"stimulus":"[\"img/0903/36e4ab1f-caa9-40b3-8616-faada076df94.jpg\",\"img/0769/662ab839-88d1-4ebf-af05-9b2980cad943.jpg\"]","trial_type":"similarity","trial_index":124,"time_elapsed":1007509,"internal_node_id":"0.0-6.0-118.0"},{"sim_score":5,"rt":3092,"stimulus":"[\"img/0901/00acf6c1-b66e-4060-bb04-4caf29b5a8b0.jpg\",\"img/0904/4b8daf2a-13a9-4ea9-9e0b-b265b6e933e7.jpg\"]","trial_type":"similarity","trial_index":125,"time_elapsed":1011606,"internal_node_id":"0.0-6.0-119.0"},{"sim_score":5,"rt":4042,"stimulus":"[\"img/0860/c47fdead-eb02-4989-b078-26f4852f44fe.jpg\",\"img/0881/c24f3051-eefa-42de-aba6-fccb56d93c70.jpg\"]","trial_type":"similarity","trial_index":126,"time_elapsed":1016655,"internal_node_id":"0.0-6.0-120.0"},{"sim_score":7,"rt":5242,"stimulus":"[\"img/0758/d41c06bf-ebaf-454b-91c6-1a17f917b659.jpg\",\"img/0874/1016b306-087c-4afc-aa08-fa527b28dc76.jpg\"]","trial_type":"similarity","trial_index":127,"time_elapsed":1022903,"internal_node_id":"0.0-6.0-121.0"},{"sim_score":5,"rt":7833,"stimulus":"[\"img/0901/8bb79e82-9c43-4b6f-a655-40655519598b.jpg\",\"img/0769/11518cb3-13ea-4dd0-890c-30cfab728ade.jpg\"]","trial_type":"similarity","trial_index":128,"time_elapsed":1031743,"internal_node_id":"0.0-6.0-122.0"},{"sim_score":6,"rt":6082,"stimulus":"[\"img/0902/fbef27fa-ac83-4936-ab78-9d1c20a383e1.jpg\",\"img/0904/1d10df11-b5c8-4370-9a6b-097a7f965895.jpg\"]","trial_type":"similarity","trial_index":129,"time_elapsed":1038832,"internal_node_id":"0.0-6.0-123.0"},{"sim_score":1,"rt":4945,"stimulus":"[\"img/0899/a048912c-b12c-40e3-90af-46b69b0cc4fe.jpg\",\"img/0864/66091c27-e588-4476-8af9-265dc6be4156.jpg\"]","trial_type":"similarity","trial_index":130,"time_elapsed":1044785,"internal_node_id":"0.0-6.0-124.0"},{"sim_score":1,"rt":4263,"stimulus":"[\"img/0766/717fd72f-a281-499b-a5ba-5e2ecc4d4866.jpg\",\"img/0868/15dd6fd7-791e-4b53-b203-195d617521a4.jpg\"]","trial_type":"similarity","trial_index":131,"time_elapsed":1050057,"internal_node_id":"0.0-6.0-125.0"},{"sim_score":1,"rt":3365,"stimulus":"[\"img/0764/bc3865c9-9004-4582-88a7-048478673f97.jpg\",\"img/0864/f92649a2-0590-4d31-9a7a-1bfb81666a2d.jpg\"]","trial_type":"similarity","trial_index":132,"time_elapsed":1054431,"internal_node_id":"0.0-6.0-126.0"},{"sim_score":1,"rt":2865,"stimulus":"[\"img/0899/9de5e857-aa9a-4e0c-8ba2-46d79bd069a4.jpg\",\"img/0866/620cd1aa-0800-4414-8f6e-90342e7a99ad.jpg\"]","trial_type":"similarity","trial_index":133,"time_elapsed":1058303,"internal_node_id":"0.0-6.0-127.0"},{"sim_score":1,"rt":4562,"stimulus":"[\"img/0901/b453df0b-4c39-49bb-8ced-6127efffa898.jpg\",\"img/0881/0c7068da-d0d9-4103-bda1-74ef7a2b32c3.jpg\"]","trial_type":"similarity","trial_index":134,"time_elapsed":1063872,"internal_node_id":"0.0-6.0-128.0"},{"sim_score":6,"rt":4226,"stimulus":"[\"img/0898/b3290bf9-215b-4b45-b21a-65bdf73f142f.jpg\",\"img/0903/2a9c8033-3e70-47fa-816d-97ee1813a3a3.jpg\"]","trial_type":"similarity","trial_index":135,"time_elapsed":1069106,"internal_node_id":"0.0-6.0-129.0"},{"sim_score":1,"rt":6312,"stimulus":"[\"img/0894/661b9f9f-4bde-487a-b1ed-87085fde6948.jpg\",\"img/0867/a498eef3-9fa4-4ab2-9778-4ae82ac40dc5.jpg\"]","trial_type":"similarity","trial_index":136,"time_elapsed":1076424,"internal_node_id":"0.0-6.0-130.0"},{"sim_score":1,"rt":3354,"stimulus":"[\"img/0874/29830da7-be5f-44e5-b141-652a0ccf7269.jpg\",\"img/0903/2c7b4aed-6038-4aac-958a-e3e58341c313.jpg\"]","trial_type":"similarity","trial_index":137,"time_elapsed":1080784,"internal_node_id":"0.0-6.0-131.0"},{"sim_score":3,"rt":3722,"stimulus":"[\"img/0899/b45c550b-96c3-4255-ad59-48a2b4db1c1e.jpg\",\"img/0898/68476bbb-34a1-42d9-8bc1-deab783d4489.jpg\"]","trial_type":"similarity","trial_index":138,"time_elapsed":1085512,"internal_node_id":"0.0-6.0-132.0"},{"sim_score":1,"rt":3650,"stimulus":"[\"img/0867/075e0f95-856b-4cbb-acf5-092393aaf04e.jpg\",\"img/0764/03c07b98-3f18-4b71-bb70-ecff564a78d1.jpg\"]","trial_type":"similarity","trial_index":139,"time_elapsed":1090168,"internal_node_id":"0.0-6.0-133.0"},{"sim_score":2,"rt":4762,"stimulus":"[\"img/0866/be24ab58-230e-4db8-9f45-ff04c9aec6bb.jpg\",\"img/0769/e8ed913b-8a88-44f6-9327-d34afec3116b.jpg\"]","trial_type":"similarity","trial_index":140,"time_elapsed":1095936,"internal_node_id":"0.0-6.0-134.0"},{"sim_score":1,"rt":3738,"stimulus":"[\"img/0860/d9a0d117-6d1d-41c0-8fec-9aff0fd9e9f2.jpg\",\"img/0898/4184e5a2-84ea-4f36-9b42-ae58646f6f87.jpg\"]","trial_type":"similarity","trial_index":141,"time_elapsed":1100681,"internal_node_id":"0.0-6.0-135.0"},{"sim_score":1,"rt":2970,"stimulus":"[\"img/0881/dea58fad-b4f1-41d9-bd3f-916eff19a3fd.jpg\",\"img/0903/70d764d9-1f35-4da7-a35d-4cc39834d270.jpg\"]","trial_type":"similarity","trial_index":142,"time_elapsed":1104657,"internal_node_id":"0.0-6.0-136.0"},{"sim_score":5,"rt":4041,"stimulus":"[\"img/0894/c505c65a-cde2-4f2c-8cde-f8676f7c894d.jpg\",\"img/0766/0b48f9e0-7d37-4161-8adb-4e3f5b6b7583.jpg\"]","trial_type":"similarity","trial_index":143,"time_elapsed":1109704,"internal_node_id":"0.0-6.0-137.0"},{"sim_score":1,"rt":5427,"stimulus":"[\"img/0860/f44ba3fb-03a2-42f0-8509-2c1ded493086.jpg\",\"img/0764/d7f3ac54-318a-4dac-a06b-62bed34d01a4.jpg\"]","trial_type":"similarity","trial_index":144,"time_elapsed":1116136,"internal_node_id":"0.0-6.0-138.0"},{"sim_score":6,"rt":4114,"stimulus":"[\"img/0769/aad494cc-674d-4a08-9bfa-24a88ebe3c79.jpg\",\"img/0902/bd89a85f-3853-4786-acd6-98818ee29f1c.jpg\"]","trial_type":"similarity","trial_index":145,"time_elapsed":1121257,"internal_node_id":"0.0-6.0-139.0"},{"sim_score":2,"rt":6002,"stimulus":"[\"img/0904/da170c1b-9651-4f08-b231-2bdd1d9a046f.jpg\",\"img/0903/43ffd882-077a-40dd-a264-e58d519420a1.jpg\"]","trial_type":"similarity","trial_index":146,"time_elapsed":1128265,"internal_node_id":"0.0-6.0-140.0"},{"sim_score":5,"rt":4522,"stimulus":"[\"img/0764/ca957454-126a-4bd3-b29c-7174a24c25dc.jpg\",\"img/0769/180213e5-1e50-4b4e-87b6-add77ba04d39.jpg\"]","trial_type":"similarity","trial_index":147,"time_elapsed":1133793,"internal_node_id":"0.0-6.0-141.0"},{"sim_score":1,"rt":3850,"stimulus":"[\"img/0902/94ee9c53-a9a2-4f95-b9b7-794a5fc62bb6.jpg\",\"img/0881/f6bd3b96-dc40-4e99-8681-bc3a35cf896d.jpg\"]","trial_type":"similarity","trial_index":148,"time_elapsed":1138649,"internal_node_id":"0.0-6.0-142.0"},{"sim_score":5,"rt":5139,"stimulus":"[\"img/0866/07c9c966-3c8d-40e7-8128-92b2acbaed5d.jpg\",\"img/0864/9b2490c5-a282-400a-9736-e1a0ecbf1cb7.jpg\"]","trial_type":"similarity","trial_index":149,"time_elapsed":1144793,"internal_node_id":"0.0-6.0-143.0"},{"sim_score":6,"rt":5713,"stimulus":"[\"img/0902/10d99c89-71f7-4c81-a31e-dfc7c59f5232.jpg\",\"img/0898/a8f16b02-e19f-423b-86c3-a36562ae1f9b.jpg\"]","trial_type":"similarity","trial_index":150,"time_elapsed":1151513,"internal_node_id":"0.0-6.0-144.0"},{"sim_score":5,"rt":5778,"stimulus":"[\"img/0862/ad593cc7-cabe-4bb7-8e14-8a447a0717b4.jpg\",\"img/0864/ea327690-500b-4137-bf91-451b309fe6a5.jpg\"]","trial_type":"similarity","trial_index":151,"time_elapsed":1158297,"internal_node_id":"0.0-6.0-145.0"},{"sim_score":1,"rt":4154,"stimulus":"[\"img/0875/d59ff733-eaff-4ee2-9443-06954dd0bcb6.jpg\",\"img/0898/82231d4c-218b-4d0a-b50d-35a49b524e97.jpg\"]","trial_type":"similarity","trial_index":152,"time_elapsed":1163457,"internal_node_id":"0.0-6.0-146.0"},{"sim_score":5,"rt":6139,"stimulus":"[\"img/0874/2c9464dd-8a23-4baa-ac94-1ba3af5c15cc.jpg\",\"img/0881/d1982897-8d8d-4704-a940-1ee5d07a1f15.jpg\"]","trial_type":"similarity","trial_index":153,"time_elapsed":1170602,"internal_node_id":"0.0-6.0-147.0"},{"sim_score":1,"rt":3463,"stimulus":"[\"img/0758/eabcd7a8-56ad-4fd2-bc24-90f6b7b33265.jpg\",\"img/0894/e2446cf5-cd48-486a-badc-76498e087fbe.jpg\"]","trial_type":"similarity","trial_index":154,"time_elapsed":1175073,"internal_node_id":"0.0-6.0-148.0"},{"sim_score":1,"rt":6723,"stimulus":"[\"img/0904/fe746a3f-8458-48d0-8a13-8cba2a9df9f8.jpg\",\"img/0864/87c467d3-abca-482f-ad80-3766c21b1bb3.jpg\"]","trial_type":"similarity","trial_index":155,"time_elapsed":1182802,"internal_node_id":"0.0-6.0-149.0"},{"sim_score":5,"rt":5106,"stimulus":"[\"img/0769/8056889f-2b14-4782-bb25-b4e8896ab65b.jpg\",\"img/0899/8abe6c69-822c-436c-9bf2-96c818b49ba5.jpg\"]","trial_type":"similarity","trial_index":156,"time_elapsed":1188913,"internal_node_id":"0.0-6.0-150.0"},{"sim_score":5,"rt":3434,"stimulus":"[\"img/0764/0e7ed062-f798-4366-8a24-6f430926f919.jpg\",\"img/0903/0fb24af7-9a26-4e9d-aadc-959a36f683e2.jpg\"]","trial_type":"similarity","trial_index":157,"time_elapsed":1196400,"internal_node_id":"0.0-6.0-151.0"},{"sim_score":1,"rt":4476,"stimulus":"[\"img/0903/71dbc325-b588-4297-a5cf-7f268a722ad9.jpg\",\"img/0864/65210d57-1153-4657-886a-32e758f49b4a.jpg\"]","trial_type":"similarity","trial_index":158,"time_elapsed":1201883,"internal_node_id":"0.0-6.0-152.0"},{"sim_score":1,"rt":3615,"stimulus":"[\"img/0894/9b1333fd-3561-43bf-aee5-99b7b7ca3dc3.jpg\",\"img/0881/ee44e27f-d662-4608-b265-e7ffa19b216f.jpg\"]","trial_type":"similarity","trial_index":159,"time_elapsed":1206506,"internal_node_id":"0.0-6.0-153.0"},{"sim_score":6,"rt":4001,"stimulus":"[\"img/0875/527ced51-8e53-4aab-ab05-86df219104c0.jpg\",\"img/0867/de92135f-5b65-4ed9-b245-188292c7c2f8.jpg\"]","trial_type":"similarity","trial_index":160,"time_elapsed":1211516,"internal_node_id":"0.0-6.0-154.0"},{"sim_score":5,"rt":3358,"stimulus":"[\"img/0867/f26f6b60-f772-4f4c-95a4-addc62cfd692.jpg\",\"img/0758/821c68d3-5cb0-4eae-8659-30e6263fca39.jpg\"]","trial_type":"similarity","trial_index":161,"time_elapsed":1215881,"internal_node_id":"0.0-6.0-155.0"},{"sim_score":1,"rt":5890,"stimulus":"[\"img/0868/e0aff734-077f-40dd-9781-74821abd3621.jpg\",\"img/0901/50e1d53e-a49f-4806-8610-be6dec5a2475.jpg\"]","trial_type":"similarity","trial_index":162,"time_elapsed":1222778,"internal_node_id":"0.0-6.0-156.0"},{"sim_score":5,"rt":6842,"stimulus":"[\"img/0769/75f7e514-0548-4329-b1e4-93c05e74f038.jpg\",\"img/0894/151063aa-6472-4745-837b-36603aba5966.jpg\"]","trial_type":"similarity","trial_index":163,"time_elapsed":1230627,"internal_node_id":"0.0-6.0-157.0"},{"sim_score":1,"rt":6017,"stimulus":"[\"img/0904/09934646-45d2-4147-8fec-64a22a5ac822.jpg\",\"img/0758/20497cbe-ddae-489e-86e2-ab06985ed07c.jpg\"]","trial_type":"similarity","trial_index":164,"time_elapsed":1237650,"internal_node_id":"0.0-6.0-158.0"},{"sim_score":1,"rt":4314,"stimulus":"[\"img/0874/93d1f8dc-acf2-4f03-bd8d-8ec35df276ed.jpg\",\"img/0904/4d7d70a3-9477-4921-bda0-f9531d0a5c5b.jpg\"]","trial_type":"similarity","trial_index":165,"time_elapsed":1242970,"internal_node_id":"0.0-6.0-159.0"},{"sim_score":1,"rt":3194,"stimulus":"[\"img/0864/49150900-7f25-4ce8-8d10-9b47a71d1997.jpg\",\"img/0901/0adb3bd6-d758-4ba7-9723-3ad6cac05bd5.jpg\"]","trial_type":"similarity","trial_index":166,"time_elapsed":1247170,"internal_node_id":"0.0-6.0-160.0"},{"sim_score":1,"rt":4069,"stimulus":"[\"img/0898/a114b375-cb89-44ba-9498-74213f1ecdee.jpg\",\"img/0866/f756f7d1-9ad8-4a34-9ef6-7a443d705bfe.jpg\"]","trial_type":"similarity","trial_index":167,"time_elapsed":1252250,"internal_node_id":"0.0-6.0-161.0"},{"sim_score":5,"rt":4723,"stimulus":"[\"img/0766/3c526a07-9e0a-4ae2-8142-00085f0127da.jpg\",\"img/0903/647ce311-8c71-479a-8361-961db1457139.jpg\"]","trial_type":"similarity","trial_index":168,"time_elapsed":1257979,"internal_node_id":"0.0-6.0-162.0"},{"sim_score":6,"rt":5034,"stimulus":"[\"img/0860/fd4662f9-4c03-4d79-8593-06735e55a64b.jpg\",\"img/0899/d8f2dd94-570e-4e8c-a087-d96090fb9e8c.jpg\"]","trial_type":"similarity","trial_index":169,"time_elapsed":1264019,"internal_node_id":"0.0-6.0-163.0"},{"sim_score":1,"rt":3394,"stimulus":"[\"img/0766/a1ed3f0f-e338-4a26-8fe4-4370f0c9fa6e.jpg\",\"img/0862/57b6f83f-c763-4858-830d-102f97bfefbf.jpg\"]","trial_type":"similarity","trial_index":170,"time_elapsed":1268419,"internal_node_id":"0.0-6.0-164.0"},{"sim_score":5,"rt":4986,"stimulus":"[\"img/0898/ec565187-2e31-4fdd-9a5c-153d0c789ae0.jpg\",\"img/0894/1a010553-d598-4b06-a772-81f1e7b3addb.jpg\"]","trial_type":"similarity","trial_index":171,"time_elapsed":1274411,"internal_node_id":"0.0-6.0-165.0"},{"sim_score":1,"rt":3722,"stimulus":"[\"img/0867/85a96c62-548f-4994-9553-819e03c3135a.jpg\",\"img/0766/006035d8-c736-4daf-bbe4-a9e373af9da6.jpg\"]","trial_type":"similarity","trial_index":172,"time_elapsed":1279139,"internal_node_id":"0.0-6.0-166.0"},{"sim_score":1,"rt":3458,"stimulus":"[\"img/0904/5aec2708-cf14-4a58-aa30-9a8a61c1be0e.jpg\",\"img/0862/e697469a-ec19-4414-b972-7b9f3564785b.jpg\"]","trial_type":"similarity","trial_index":173,"time_elapsed":1283603,"internal_node_id":"0.0-6.0-167.0"},{"sim_score":5,"rt":5265,"stimulus":"[\"img/0866/945c6710-d15b-4a5b-a8f6-69af0850357f.jpg\",\"img/0874/8cdb1c07-1c32-46d2-981c-3636560fa6e5.jpg\"]","trial_type":"similarity","trial_index":174,"time_elapsed":1289874,"internal_node_id":"0.0-6.0-168.0"},{"sim_score":1,"rt":5570,"stimulus":"[\"img/0903/8635cf25-2648-4fe9-8c42-79d2598e999c.jpg\",\"img/0868/4bd5105a-d2c3-4f82-8c80-57196106ba53.jpg\"]","trial_type":"similarity","trial_index":175,"time_elapsed":1296451,"internal_node_id":"0.0-6.0-169.0"},{"sim_score":5,"rt":3682,"stimulus":"[\"img/0769/f229321f-04dd-42d7-b14a-ffad6b509862.jpg\",\"img/0904/ba8e689e-9ca6-4608-a2a1-3b0940666ae6.jpg\"]","trial_type":"similarity","trial_index":176,"time_elapsed":1301140,"internal_node_id":"0.0-6.0-170.0"},{"sim_score":1,"rt":3642,"stimulus":"[\"img/0875/5a7c4e35-6514-4e12-8879-d16071da4cd6.jpg\",\"img/0764/ba0c0955-acbb-457d-b1c2-f006b88121d5.jpg\"]","trial_type":"similarity","trial_index":177,"time_elapsed":1305787,"internal_node_id":"0.0-6.0-171.0"},{"sim_score":1,"rt":3657,"stimulus":"[\"img/0860/e8b8c51e-1834-4875-8b61-6c5bc9b178bd.jpg\",\"img/0903/0a92ec52-4e87-410a-857a-4455cde56a70.jpg\"]","trial_type":"similarity","trial_index":178,"time_elapsed":1310462,"internal_node_id":"0.0-6.0-172.0"},{"sim_score":5,"rt":2883,"stimulus":"[\"img/0864/c3b63e8f-ea39-4d70-a1f2-b3fe4be8eb75.jpg\",\"img/0867/aa05d113-fc19-4756-a8eb-7878f580bc92.jpg\"]","trial_type":"similarity","trial_index":179,"time_elapsed":1314354,"internal_node_id":"0.0-6.0-173.0"},{"sim_score":5,"rt":3939,"stimulus":"[\"img/0868/d6d1f30d-4323-435a-b194-7892521bc57e.jpg\",\"img/0864/da39ad34-04e0-40d4-a724-c08d53e0ea09.jpg\"]","trial_type":"similarity","trial_index":180,"time_elapsed":1319300,"internal_node_id":"0.0-6.0-174.0"},{"sim_score":5,"rt":4202,"stimulus":"[\"img/0898/224c1572-56b9-4f16-a9e4-6f3bc9c114bd.jpg\",\"img/0769/878531fd-e0e8-4ad1-b9ad-f018bb104ca0.jpg\"]","trial_type":"similarity","trial_index":181,"time_elapsed":1324508,"internal_node_id":"0.0-6.0-175.0"},{"sim_score":5,"rt":4337,"stimulus":"[\"img/0766/a0270213-fa0e-4972-8b56-228c3e01ff90.jpg\",\"img/0764/4952d0a0-c9be-471a-8ec7-94a37bf4051d.jpg\"]","trial_type":"similarity","trial_index":182,"time_elapsed":1329852,"internal_node_id":"0.0-6.0-176.0"},{"sim_score":1,"rt":3562,"stimulus":"[\"img/0764/83c93cce-18d1-4aa7-9e23-2c268afe0a46.jpg\",\"img/0866/386235d2-6857-41e7-88a8-25cfc3430025.jpg\"]","trial_type":"similarity","trial_index":183,"time_elapsed":1334420,"internal_node_id":"0.0-6.0-177.0"},{"sim_score":1,"rt":3474,"stimulus":"[\"img/0902/d49743d6-67ae-4c2e-a939-8fd895a0f18e.jpg\",\"img/0875/fb732ab5-013a-4366-9f65-27811ed157e9.jpg\"]","trial_type":"similarity","trial_index":184,"time_elapsed":1338900,"internal_node_id":"0.0-6.0-178.0"},{"sim_score":1,"rt":2795,"stimulus":"[\"img/0881/4bd34581-94d8-4e88-8c89-5cef864ca3be.jpg\",\"img/0904/25365108-e038-4021-aac9-797f2063b337.jpg\"]","trial_type":"similarity","trial_index":185,"time_elapsed":1342701,"internal_node_id":"0.0-6.0-179.0"},{"sim_score":5,"rt":3946,"stimulus":"[\"img/0874/a82926a3-0b43-4add-803c-d5f9ea7798ee.jpg\",\"img/0860/31ff6436-98bf-4652-bed2-40f627229568.jpg\"]","trial_type":"similarity","trial_index":186,"time_elapsed":1347652,"internal_node_id":"0.0-6.0-180.0"},{"sim_score":3,"rt":5721,"stimulus":"[\"img/0769/8598a429-c671-4d2f-842c-32f681f5e412.jpg\",\"img/0874/7e4f2150-3b59-4a36-b5da-a4e0ba410531.jpg\"]","trial_type":"similarity","trial_index":187,"time_elapsed":1354380,"internal_node_id":"0.0-6.0-181.0"},{"sim_score":5,"rt":3969,"stimulus":"[\"img/0904/9d30eff1-46ef-4453-b11e-124ef8145c00.jpg\",\"img/0766/aaec5f42-7f0a-4a16-aeca-488d757acbcc.jpg\"]","trial_type":"similarity","trial_index":188,"time_elapsed":1359356,"internal_node_id":"0.0-6.0-182.0"},{"sim_score":5,"rt":4282,"stimulus":"[\"img/0902/af45fe42-178c-4c1a-99ef-256e87e3b092.jpg\",\"img/0764/ca9829fe-aaf8-45b8-b98a-6bae751c63dd.jpg\"]","trial_type":"similarity","trial_index":189,"time_elapsed":1364644,"internal_node_id":"0.0-6.0-183.0"},{"sim_score":1,"rt":3970,"stimulus":"[\"img/0769/f73c5138-2f4c-4354-981c-129dff9cc734.jpg\",\"img/0875/ebf7653f-ff45-4e9f-af58-2c042ab3cd2b.jpg\"]","trial_type":"similarity","trial_index":190,"time_elapsed":1369620,"internal_node_id":"0.0-6.0-184.0"},{"sim_score":1,"rt":2850,"stimulus":"[\"img/0867/a749dddb-69f0-44a6-acdc-2bf295cf6dcc.jpg\",\"img/0903/b7e3723f-fd03-4f3d-8820-f19496463a34.jpg\"]","trial_type":"similarity","trial_index":191,"time_elapsed":1373476,"internal_node_id":"0.0-6.0-185.0"},{"sim_score":1,"rt":3266,"stimulus":"[\"img/0862/847e5208-38ec-4f36-949c-296cdd7424ee.jpg\",\"img/0769/e31b3bd8-efcb-413e-aa8c-75fac2b8f2ac.jpg\"]","trial_type":"similarity","trial_index":192,"time_elapsed":1377749,"internal_node_id":"0.0-6.0-186.0"},{"sim_score":1,"rt":5425,"stimulus":"[\"img/0766/d5d38751-8fa5-476f-93e9-86ed2d9045ef.jpg\",\"img/0866/93a27239-8317-4e08-98ca-d8b1ff298e07.jpg\"]","trial_type":"similarity","trial_index":193,"time_elapsed":1384181,"internal_node_id":"0.0-6.0-187.0"},{"sim_score":1,"rt":3659,"stimulus":"[\"img/0769/1afb527f-9887-428c-bd26-a12c2f9efb68.jpg\",\"img/0860/15b24a61-25be-4356-9eac-5ce95d0cb4a4.jpg\"]","trial_type":"similarity","trial_index":194,"time_elapsed":1388845,"internal_node_id":"0.0-6.0-188.0"},{"sim_score":5,"rt":4828,"stimulus":"[\"img/0881/667e2147-d457-4f32-aa5f-6ab86e5848f1.jpg\",\"img/0868/8b0b8473-e2c0-4331-aa56-c3a5c29369da.jpg\"]","trial_type":"similarity","trial_index":195,"time_elapsed":1398099,"internal_node_id":"0.0-6.0-189.0"},{"view_history":"[{\"page_index\":0,\"viewing_time\":54456}]","rt":54457,"trial_type":"instructions","trial_index":196,"time_elapsed":1453558,"internal_node_id":"0.0-7.0"},{"rt":14018,"responses":"{\"Q0\":\"Orange-crowned Warbler\"}","answer":["Nashville Warbler"],"trial_type":"image-multi-choice","trial_index":197,"time_elapsed":1468602,"internal_node_id":"0.0-8.0-0.0"},{"rt":6666,"responses":"{\"Q0\":\"Black-and-white Warbler\"}","answer":["Black-and-white Warbler"],"trial_type":"image-multi-choice","trial_index":198,"time_elapsed":1476287,"internal_node_id":"0.0-8.0-1.0"},{"rt":36834,"responses":"{\"Q0\":\"Townsend's Warbler\"}","answer":["Townsend's Warbler"],"trial_type":"image-multi-choice","trial_index":199,"time_elapsed":1514136,"internal_node_id":"0.0-8.0-2.0"},{"rt":5761,"responses":"{\"Q0\":\"Lark Sparrow\"}","answer":["Lark Sparrow"],"trial_type":"image-multi-choice","trial_index":200,"time_elapsed":1520911,"internal_node_id":"0.0-8.0-3.0"},{"rt":6999,"responses":"{\"Q0\":\"Yellow Warbler\"}","answer":["Yellow Warbler"],"trial_type":"image-multi-choice","trial_index":201,"time_elapsed":1528927,"internal_node_id":"0.0-8.0-4.0"},{"rt":12011,"responses":"{\"Q0\":\"Tennessee Warbler\"}","answer":["Orange-crowned Warbler"],"trial_type":"image-multi-choice","trial_index":202,"time_elapsed":1541959,"internal_node_id":"0.0-8.0-5.0"},{"rt":7041,"responses":"{\"Q0\":\"White-throated Sparrow\"}","answer":["White-throated Sparrow"],"trial_type":"image-multi-choice","trial_index":203,"time_elapsed":1550016,"internal_node_id":"0.0-8.0-6.0"},{"rt":6633,"responses":"{\"Q0\":\"Fox Sparrow\"}","answer":["Fox Sparrow"],"trial_type":"image-multi-choice","trial_index":204,"time_elapsed":1557664,"internal_node_id":"0.0-8.0-7.0"},{"rt":25656,"responses":"{\"Q0\":\"Lincoln's Sparrow\"}","answer":["Song Sparrow"],"trial_type":"image-multi-choice","trial_index":205,"time_elapsed":1584336,"internal_node_id":"0.0-8.0-8.0"},{"rt":8969,"responses":"{\"Q0\":\"Blackburnian Warbler\"}","answer":["Blackburnian Warbler"],"trial_type":"image-multi-choice","trial_index":206,"time_elapsed":1594320,"internal_node_id":"0.0-8.0-9.0"},{"rt":36867,"responses":"{\"Q0\":\"Lincoln's Sparrow\"}","answer":["Vesper Sparrow"],"trial_type":"image-multi-choice","trial_index":207,"time_elapsed":1632200,"internal_node_id":"0.0-8.0-10.0"},{"rt":6372,"responses":"{\"Q0\":\"White-crowned Sparrow\"}","answer":["White-crowned Sparrow"],"trial_type":"image-multi-choice","trial_index":208,"time_elapsed":1639585,"internal_node_id":"0.0-8.0-11.0"},{"rt":15073,"responses":"{\"Q0\":\"Swamp Sparrow\"}","answer":["American Tree Sparrow"],"trial_type":"image-multi-choice","trial_index":209,"time_elapsed":1655673,"internal_node_id":"0.0-8.0-12.0"},{"rt":22958,"responses":"{\"Q0\":\"Tennessee Warbler\"}","answer":["Tennessee Warbler"],"trial_type":"image-multi-choice","trial_index":210,"time_elapsed":1679648,"internal_node_id":"0.0-8.0-13.0"},{"rt":16684,"responses":"{\"Q0\":\"Magnolia Warbler\"}","answer":["Magnolia Warbler"],"trial_type":"image-multi-choice","trial_index":211,"time_elapsed":1697346,"internal_node_id":"0.0-8.0-14.0"},{"rt":13025,"responses":"{\"Q0\":\"Northern Waterthrush\"}","answer":["Northern Waterthrush"],"trial_type":"image-multi-choice","trial_index":212,"time_elapsed":1711387,"internal_node_id":"0.0-8.0-15.0"},{"rt":41597,"responses":"{\"Q0\":\"Chipping Sparrow\"}","answer":["Chipping Sparrow"],"trial_type":"image-multi-choice","trial_index":213,"time_elapsed":1754003,"internal_node_id":"0.0-8.0-16.0"},{"rt":17788,"responses":"{\"Q0\":\"American Tree Sparrow\"}","answer":["Swamp Sparrow"],"trial_type":"image-multi-choice","trial_index":214,"time_elapsed":1772811,"internal_node_id":"0.0-8.0-17.0"},{"rt":67712,"responses":"{\"Q0\":\"Vesper Sparrow\"}","answer":["Lincoln's Sparrow"],"trial_type":"image-multi-choice","trial_index":215,"time_elapsed":1841541,"internal_node_id":"0.0-8.0-18.0"},{"rt":6134,"responses":"{\"Q0\":\"Ovenbird\"}","answer":["Ovenbird"],"trial_type":"image-multi-choice","trial_index":216,"time_elapsed":1848692,"internal_node_id":"0.0-8.0-19.0"}]