"view_history","rt","trial_type","trial_index","time_elapsed","internal_node_id","sim_score","stimulus","responses","answer"
"[{""page_index"":0,""viewing_time"":37319}]","37321","instructions","0","37324","0.0-0.0","","","",""
"","6022","similarity_demo","1","44364","0.0-1.0","7","[""img/bluejay1.jpg"",""img/bluejay2.jpg""]","",""
"[{""page_index"":0,""viewing_time"":11039}]","11041","instructions","2","56407","0.0-2.0","","","",""
"","6017","similarity_demo","3","63433","0.0-3.0","2","[""img/bluejay1.jpg"",""img/cardinal1.jpg""]","",""
"[{""page_index"":0,""viewing_time"":9883}]","9884","instructions","4","74317","0.0-4.0","","","",""
"[{""page_index"":0,""viewing_time"":15199}]","15200","instructions","5","90518","0.0-5.0","","","",""
"","8553","similarity","6","100081","0.0-6.0-0.0","2","[""img/0868/5fa7f9d0-f0e5-454c-8224-74d964818f56.jpg"",""img/0894/05161000-f476-499b-a878-c13c7f347fd9.jpg""]","",""
"","4984","similarity","7","106074","0.0-6.0-1.0","1","[""img/0898/993d8f2d-bef7-4251-a193-0f93a32b7763.jpg"",""img/0758/a085b443-b5d7-4cb2-9ad4-b9dab0fc23f1.jpg""]","",""
"","4458","similarity","8","111544","0.0-6.0-2.0","3","[""img/0903/47e39de8-6959-469f-8be9-6999a6db207c.jpg"",""img/0894/86201968-6e78-4d68-9b3a-d1692e066210.jpg""]","",""
"","4722","similarity","9","117273","0.0-6.0-3.0","2","[""img/0881/445edb15-bd7f-4af3-8bd5-c6ad9677bb31.jpg"",""img/0766/1bc0dccc-a5b5-4375-87fa-28360ca42b12.jpg""]","",""
"","4359","similarity","10","122642","0.0-6.0-4.0","3","[""img/0864/e8bd659f-aa43-4748-877e-3118e8b4e189.jpg"",""img/0860/18dfed73-e36b-4487-a8bd-0b8cff8e3668.jpg""]","",""
"","5644","similarity","11","129299","0.0-6.0-5.0","3","[""img/0902/417d8b4a-3c72-4adc-ac78-820e833316f2.jpg"",""img/0899/fd9efb43-701f-4cd6-baaa-4c38315f4bdc.jpg""]","",""
"","4524","similarity","12","134834","0.0-6.0-6.0","1","[""img/0868/77091fc7-a590-4ebb-b915-fdb2483a2399.jpg"",""img/0769/f6396414-6788-4d59-9683-de153298d89c.jpg""]","",""
"","3975","similarity","13","139818","0.0-6.0-7.0","3","[""img/0764/fb92924f-5cfe-4b89-b130-0cce8cc5636b.jpg"",""img/0901/1b86f2fc-7a1d-4aa8-9252-114f92edef3b.jpg""]","",""
"","5623","similarity","14","146449","0.0-6.0-8.0","2","[""img/0881/62a64f90-7a72-4aee-a1a1-0c548ac9bdda.jpg"",""img/0866/8efcaa46-83ab-4dee-a35f-850402aa21ae.jpg""]","",""
"","5537","similarity","15","152993","0.0-6.0-9.0","1","[""img/0867/f8159067-056c-41f1-a136-c529fe5e970a.jpg"",""img/0899/8de08897-b430-42fe-9d42-840670b80f94.jpg""]","",""
"","5898","similarity","16","159897","0.0-6.0-10.0","1","[""img/0875/2e13d160-eea1-416b-aff1-d37ab99ecc1d.jpg"",""img/0766/f5f78e4e-d88f-4866-951a-118ba9fec4d0.jpg""]","",""
"","4790","similarity","17","165698","0.0-6.0-11.0","1","[""img/0901/d6d15b1c-4a30-4f74-a3fd-d4c8ee4169ca.jpg"",""img/0875/34132396-d896-4c2d-8087-646dd867e769.jpg""]","",""
"","6520","similarity","18","173224","0.0-6.0-12.0","2","[""img/0902/b56db912-c3c0-4fc2-b325-d640acd7cb58.jpg"",""img/0860/61fb959d-d4d9-4de4-9e4e-4fa62b4cfcd5.jpg""]","",""
"","6987","similarity","19","181220","0.0-6.0-13.0","5","[""img/0874/adf9a8f1-c40b-402b-b95b-1e85a54a7b62.jpg"",""img/0867/1719a35d-f085-48c0-9099-16c94fe418b4.jpg""]","",""
"","8656","similarity","20","190882","0.0-6.0-14.0","4","[""img/0904/9dd5708f-3f8b-46a9-b49f-2f2fab87b357.jpg"",""img/0866/11a1d141-be5e-443c-98c1-a9d4d9e3dec0.jpg""]","",""
"","3928","similarity","21","195818","0.0-6.0-15.0","1","[""img/0758/d540bee6-b460-4c32-ac57-bc282742d7d4.jpg"",""img/0902/418b716e-63e5-4c77-93e9-95b1f5a3ddf0.jpg""]","",""
"","4010","similarity","22","200833","0.0-6.0-16.0","2","[""img/0867/12264664-1860-46df-8c21-162b9817cdda.jpg"",""img/0898/04e39a7a-fcf6-4156-ab0e-f5871f335e1c.jpg""]","",""
"","5472","similarity","23","207314","0.0-6.0-17.0","1","[""img/0904/73920552-103b-4c9c-9ece-e0b8376b4504.jpg"",""img/0868/179a5502-ab5c-478e-8263-5a1fbcc101d2.jpg""]","",""
"","3594","similarity","24","211913","0.0-6.0-18.0","1","[""img/0766/a754e4b6-5019-4cf4-8f58-34c20547a1f5.jpg"",""img/0864/a248adb3-c70b-4652-b7a3-776d2a1e904b.jpg""]","",""
"","3817","similarity","25","216740","0.0-6.0-19.0","3","[""img/0899/06b0fc99-0581-461a-9913-d1a5a941ac61.jpg"",""img/0766/2746b119-4bba-463e-acf0-88136dc6600c.jpg""]","",""
"","3655","similarity","26","221402","0.0-6.0-20.0","1","[""img/0764/f990b2e8-ecee-481e-be7c-0239fce350e2.jpg"",""img/0758/7fba58df-2a7a-4b76-8a8f-62739f97f271.jpg""]","",""
"","4825","similarity","27","227234","0.0-6.0-21.0","1","[""img/0901/b123d109-47b4-4f9a-80c9-9bb16da42efa.jpg"",""img/0874/a3bc679d-619f-4db6-bb68-116dcb757d9c.jpg""]","",""
"","9513","similarity","28","237755","0.0-6.0-22.0","3","[""img/0875/03c3c331-738b-4446-af92-3d7386b08c2e.jpg"",""img/0758/9fb5b2fe-3f00-4fe6-973c-1ce10d5f4cd5.jpg""]","",""
"","5440","similarity","29","244203","0.0-6.0-23.0","3","[""img/0867/8ba0c5a7-c7e4-42cf-a80a-543763b90779.jpg"",""img/0881/f7a8cc63-8842-40a4-9ff8-fe530310d62c.jpg""]","",""
"","3248","similarity","30","248459","0.0-6.0-24.0","1","[""img/0758/7ffbc76b-1fc1-432c-8f7e-9ec8d1b3f643.jpg"",""img/0901/443f2e59-199b-4f7b-9de9-c44ad97326a5.jpg""]","",""
"","4256","similarity","31","253723","0.0-6.0-25.0","5","[""img/0868/6a28c3b0-3d76-498a-9fb7-ddafc665eca8.jpg"",""img/0875/e7e66b13-b573-431e-b85e-288ce04a35a3.jpg""]","",""
"","5617","similarity","32","260348","0.0-6.0-26.0","3","[""img/0903/a0673b55-6040-47fe-9040-24bca27ca3c9.jpg"",""img/0901/62315ff5-ed95-46b4-b099-92552079659b.jpg""]","",""
"","4904","similarity","33","266259","0.0-6.0-27.0","3","[""img/0894/3664e04c-c6d3-4c9b-afb6-25d89974b174.jpg"",""img/0899/4408c14d-c168-4a7d-96f6-bc87bfb58f83.jpg""]","",""
"","5106","similarity","34","272371","0.0-6.0-28.0","3","[""img/0862/4f0a3b4c-afbf-486e-b248-1d54982f54b4.jpg"",""img/0867/f8488a47-94ee-4166-952c-44e16cf172f6.jpg""]","",""
"","4619","similarity","35","277995","0.0-6.0-29.0","3","[""img/0864/3651d070-2fc5-4848-b6a6-088a2d9ac5c9.jpg"",""img/0875/2c361b79-c3d1-4eda-812e-bf03192407bf.jpg""]","",""
"","4745","similarity","36","283747","0.0-6.0-30.0","3","[""img/0862/92fcd8a4-8193-4a6a-ae09-dd4a6338b0df.jpg"",""img/0874/85eb9b8a-c4c6-4e5a-b8e7-363a87a82054.jpg""]","",""
"","3985","similarity","37","288739","0.0-6.0-31.0","1","[""img/0903/97a42b34-5462-4665-88c7-83c014b33d24.jpg"",""img/0758/65d426d6-3ff6-415d-8654-a43b83ecc4fe.jpg""]","",""
"","3393","similarity","38","293139","0.0-6.0-32.0","1","[""img/0866/6f2a90d7-14f1-4f1b-bd64-fc0af6b9fe44.jpg"",""img/0901/548d1110-7cb8-42a2-9927-9798875c8b5c.jpg""]","",""
"","4032","similarity","39","298180","0.0-6.0-33.0","1","[""img/0874/99f6563c-8a8d-4c1c-a41d-667b618c3fd5.jpg"",""img/0899/51a7a498-98c7-42d7-bca8-bc2d8f0b5831.jpg""]","",""
"","4497","similarity","40","303683","0.0-6.0-34.0","7","[""img/0903/8931c67c-a43d-47d3-a4c9-42aa2f81d344.jpg"",""img/0902/07437a16-3d0f-4a5c-89ec-36d0efa4b3b8.jpg""]","",""
"","5985","similarity","41","310674","0.0-6.0-35.0","3","[""img/0758/e1ba5e53-addc-436a-b428-d34fc1b130dc.jpg"",""img/0866/d266fece-59b3-46fa-b69f-96f6efb81b59.jpg""]","",""
"","3905","similarity","42","315588","0.0-6.0-36.0","1","[""img/0875/3ecb367d-e9eb-4826-8aaa-7aa72fb98019.jpg"",""img/0903/39365c8e-a733-4801-ac7d-b87e38c3784b.jpg""]","",""
"","2849","similarity","43","332466","0.0-6.0-37.0","1","[""img/0864/c22faebd-9c53-47bc-ada3-b9a30c688e75.jpg"",""img/0902/4e0baa32-988e-46f6-989d-f669225ab645.jpg""]","",""
"","6268","similarity","44","339740","0.0-6.0-38.0","2","[""img/0901/b13fa50f-dbe0-4d0f-8647-6ac0fd8f40bd.jpg"",""img/0867/ac1797e4-8afc-48fe-b252-86d1defb1cca.jpg""]","",""
"","5738","similarity","45","346484","0.0-6.0-39.0","5","[""img/0862/ee3b7bff-4a70-4e84-9bea-4a565e456acb.jpg"",""img/0860/99c589b9-9140-4d17-90c0-b344323edcda.jpg""]","",""
"","6025","similarity","46","353516","0.0-6.0-40.0","5","[""img/0867/26611f4e-d694-4460-b7e2-43c62753ddc3.jpg"",""img/0868/c8ac40c7-6904-4e13-8d61-c75d3052dc4e.jpg""]","",""
"","4353","similarity","47","358877","0.0-6.0-41.0","5","[""img/0904/696ebb60-8891-417a-91fd-c53218907a95.jpg"",""img/0899/1b3457ea-87d4-4946-a01c-aac1863ed46c.jpg""]","",""
"","4290","similarity","48","364174","0.0-6.0-42.0","3","[""img/0862/d0ca4c78-fc35-46ed-bdcc-8e124283c53e.jpg"",""img/0894/38cf335f-f76f-4349-8d65-e20cd6859565.jpg""]","",""
"","4190","similarity","49","369372","0.0-6.0-43.0","1","[""img/0875/8521fd58-3b1e-4dc5-97ae-804edfa6734a.jpg"",""img/0904/2f88ce53-02d0-4f95-a082-182c56a0eeb4.jpg""]","",""
"","3521","similarity","50","373900","0.0-6.0-44.0","1","[""img/0874/995f0332-0439-4eb4-add3-957335dbf6d9.jpg"",""img/0898/0c7dde4f-efce-4b7a-9387-6921635b7890.jpg""]","",""
"","3624","similarity","51","378531","0.0-6.0-45.0","1","[""img/0898/6cd3830b-d44e-4915-be2b-88d31424b91c.jpg"",""img/0868/d98ca254-b195-477f-b57e-5760a2717db8.jpg""]","",""
"","2876","similarity","52","382413","0.0-6.0-46.0","1","[""img/0901/a2d7b2f6-396b-4d91-8403-de5361c74af7.jpg"",""img/0860/4a022222-056d-461c-ab02-39fac9647552.jpg""]","",""
"","5240","similarity","53","388661","0.0-6.0-47.0","5","[""img/0894/7fb082e0-ce79-485c-9109-04367fb32275.jpg"",""img/0902/168ebd47-9e82-4ab7-a18b-c3da85072db8.jpg""]","",""
"","5147","similarity","54","394813","0.0-6.0-48.0","1","[""img/0764/1def7b22-b054-4ec2-860b-73d25691823b.jpg"",""img/0862/e0f1a4e9-e1b6-45f7-af67-89f334e6630d.jpg""]","",""
"","6186","similarity","55","402004","0.0-6.0-49.0","5","[""img/0881/c843e210-bdfe-4a7c-8bbe-fcea1f90fe1c.jpg"",""img/0758/3ddd05d3-557e-4ee7-8b78-9d2d681d8ae2.jpg""]","",""
"","6162","similarity","56","409173","0.0-6.0-50.0","5","[""img/0766/e8052e17-9dae-4139-802b-6e590cb2d526.jpg"",""img/0769/458d9c77-b844-40b5-bb1b-1e3bbd4da64e.jpg""]","",""
"","4306","similarity","57","414487","0.0-6.0-51.0","5","[""img/0875/f87b67d7-c33e-40d1-b281-248c4be1cb6e.jpg"",""img/0866/bf14b5bd-fb55-47db-86b9-4f8aeb9a6dad.jpg""]","",""
"","4222","similarity","58","419717","0.0-6.0-52.0","5","[""img/0894/4739e06d-c31e-4bf1-bf91-c97fa9afb456.jpg"",""img/0904/e9423a8c-f946-43ad-ab7b-931acef870e2.jpg""]","",""
"","4361","similarity","59","425085","0.0-6.0-53.0","1","[""img/0758/6cd8c362-ae2a-41eb-80a3-3a4f7ace1530.jpg"",""img/0769/35f2dd39-40aa-498e-b401-9f1ef2622d00.jpg""]","",""
"","3934","similarity","60","430024","0.0-6.0-54.0","1","[""img/0902/0c760cc9-10ac-429e-8957-a7d51fc99683.jpg"",""img/0874/3f471690-9788-4d03-90c7-f615aecef149.jpg""]","",""
"","4663","similarity","61","435695","0.0-6.0-55.0","1","[""img/0903/f1fa0f8d-e62b-4b4a-a174-31a0fabfe61b.jpg"",""img/0862/de9ad88c-b522-430a-8ee9-eb06a9f85df5.jpg""]","",""
"","3759","similarity","62","440463","0.0-6.0-56.0","1","[""img/0866/d493a2c8-66eb-44b4-be02-2f327b700b7c.jpg"",""img/0894/b422d5c6-3c5a-49ae-a53e-7e88ac993f49.jpg""]","",""
"","4221","similarity","63","445693","0.0-6.0-57.0","1","[""img/0867/db7e032f-162b-46f5-ae67-2b29679adee4.jpg"",""img/0904/b5855d6a-7ef9-46ca-9215-6e9fa046e543.jpg""]","",""
"","4170","similarity","64","450869","0.0-6.0-58.0","5","[""img/0875/42910c99-5463-450a-a0f8-d4d060a11455.jpg"",""img/0881/e046471a-35b4-4159-bbf7-3cfd201bef66.jpg""]","",""
"","5706","similarity","65","457581","0.0-6.0-59.0","3","[""img/0866/c446214b-a368-4c65-ae39-ea46894256ab.jpg"",""img/0860/b03b963d-949b-4d8d-b19c-4950c89eeca2.jpg""]","",""
"","3705","similarity","66","462293","0.0-6.0-60.0","1","[""img/0903/b548d383-2a95-4575-8c13-647873751ff1.jpg"",""img/0866/4a87911a-d5be-4d4e-ab8e-3d1f581bf507.jpg""]","",""
"","5009","similarity","67","468310","0.0-6.0-61.0","5","[""img/0860/5bff793e-cbd5-4d7e-b628-0ac2b0e30b64.jpg"",""img/0875/5a716432-c6ca-4b1c-955a-2b8ac25198ee.jpg""]","",""
"","4338","similarity","68","473653","0.0-6.0-62.0","3","[""img/0898/b2732712-71c2-45d8-834f-2b2ed5504910.jpg"",""img/0862/fb26cb07-d5a9-4653-813c-f41609f26cd5.jpg""]","",""
"","3554","similarity","69","478215","0.0-6.0-63.0","5","[""img/0902/aa6fca32-82b0-4414-b20a-8f6f8aa5a2d2.jpg"",""img/0766/535849cc-ff5d-4df9-8f31-0ce94a97d571.jpg""]","",""
"","4577","similarity","70","483799","0.0-6.0-64.0","5","[""img/0758/f61ecdf8-a7d4-4db0-b84d-be46f7cfaffc.jpg"",""img/0864/5f33e097-23e3-4002-882d-76e8cb15f451.jpg""]","",""
"","5537","similarity","71","490342","0.0-6.0-65.0","1","[""img/0894/10f22b96-040c-44f4-950b-a4963f3f506c.jpg"",""img/0860/8277806e-b684-4474-8f7b-3fca946d7d4f.jpg""]","",""
"","3569","similarity","72","494918","0.0-6.0-66.0","1","[""img/0899/93494f3b-d539-4075-b027-d82e344563da.jpg"",""img/0868/09a9ef4d-d000-4cfa-a6aa-ebec7c2edeb4.jpg""]","",""
"","4944","similarity","73","500870","0.0-6.0-67.0","3","[""img/0866/23a224f3-2012-4fc8-8e0f-3c36f8de27fd.jpg"",""img/0862/00c06b00-3b73-44e9-bc1e-c5aafb438321.jpg""]","",""
"","4410","similarity","74","506286","0.0-6.0-68.0","3","[""img/0860/524b2e98-5767-4d53-942c-ebae6925659b.jpg"",""img/0758/67c0be2f-9e91-48b3-8219-70ac0a1802fa.jpg""]","",""
"","4489","similarity","75","511782","0.0-6.0-69.0","1","[""img/0902/b76efc44-a50f-4dac-b997-ff0222376067.jpg"",""img/0867/179ab87a-8eac-4c52-a41f-2e48e3120f09.jpg""]","",""
"","3873","similarity","76","516662","0.0-6.0-70.0","1","[""img/0862/e8cc3bdf-cc43-4565-bccf-492626c70953.jpg"",""img/0901/f1116359-1ff1-4638-b3b3-700918d36d18.jpg""]","",""
"","3969","similarity","77","521639","0.0-6.0-71.0","4","[""img/0867/cc72ed48-7704-422c-86d6-467a1145287a.jpg"",""img/0866/a04d37f0-99dd-478a-b6c6-58b215138f84.jpg""]","",""
"","3642","similarity","78","526287","0.0-6.0-72.0","1","[""img/0860/8fdba999-b946-4c7d-9891-336018b563ef.jpg"",""img/0904/63dd06dd-dccb-47ba-9740-eb33239e18a7.jpg""]","",""
"","3529","similarity","79","530822","0.0-6.0-73.0","1","[""img/0875/dbdd643e-6d0e-4a5c-ab57-b9c29b9c981a.jpg"",""img/0899/ad8268c5-8199-48d0-ad70-c5b6d6c599ec.jpg""]","",""
"","2833","similarity","80","534663","0.0-6.0-74.0","1","[""img/0899/d60714ae-98d7-4564-8c98-94dba1351135.jpg"",""img/0758/dd559618-7f09-4a07-8018-d311c4a5ea29.jpg""]","",""
"","6002","similarity","81","772066","0.0-6.0-75.0","5","[""img/0862/92f0146c-20c4-482e-aef5-adb693790338.jpg"",""img/0875/cff79b3a-a797-4393-9757-6275f999ec04.jpg""]","",""
"","4345","similarity","82","777421","0.0-6.0-76.0","4","[""img/0901/f469cb1d-6d81-4a45-bab5-cd0b650c2b4f.jpg"",""img/0894/11674fa4-285d-44e2-939f-2228c6a64080.jpg""]","",""
"","3792","similarity","83","782220","0.0-6.0-77.0","1","[""img/0766/60033a74-9919-47e5-913c-71d0d483e7e5.jpg"",""img/0758/2fa3e613-e676-4e6e-bd12-705327eeb3e1.jpg""]","",""
"","4579","similarity","84","787803","0.0-6.0-78.0","5","[""img/0894/0130a973-d993-41f8-874a-fee23d9ac11f.jpg"",""img/0764/f2f23359-8e82-41d3-8900-5b9f4433991d.jpg""]","",""
"","3593","similarity","85","792404","0.0-6.0-79.0","4","[""img/0860/c7047cd2-7cc1-41b6-8a34-c0986774975f.jpg"",""img/0867/6e19c858-b606-45b2-a4c6-910a73f1d82c.jpg""]","",""
"","6353","similarity","86","799764","0.0-6.0-80.0","5","[""img/0898/08c72dac-f8ad-407a-9ce6-8c9a5d679c3a.jpg"",""img/0901/12da1841-e611-435c-9719-109413d536a8.jpg""]","",""
"","3761","similarity","87","804532","0.0-6.0-81.0","1","[""img/0874/ca23d307-fc00-4d7d-9106-584c6eb21b4d.jpg"",""img/0764/b8e23f4f-ff19-4472-ad9b-2f85548ebca0.jpg""]","",""
"","4480","similarity","88","810020","0.0-6.0-82.0","1","[""img/0899/0433d056-aa30-4f8a-9aa1-abbb951e4edd.jpg"",""img/0862/53a9cf7c-93c4-41b9-952f-07d17f7a17b2.jpg""]","",""
"","6258","similarity","89","817283","0.0-6.0-83.0","4","[""img/0766/f3276cc4-65de-4c2d-88d5-6cfebce14b8f.jpg"",""img/0901/2a953e50-d237-405c-a38d-5ed21494c968.jpg""]","",""
"","3489","similarity","90","821778","0.0-6.0-84.0","1","[""img/0881/4da99fdd-1f40-4bbb-8e21-8833eef313f5.jpg"",""img/0898/0af304a2-6a7a-4082-ab7c-4450cd08cc58.jpg""]","",""
"","5875","similarity","91","828660","0.0-6.0-85.0","2","[""img/0868/fd307a36-9a3a-47d7-ab7c-f810d0b35040.jpg"",""img/0860/87039971-2210-4aab-93c0-8e9b5f1655b2.jpg""]","",""
"","4378","similarity","92","834044","0.0-6.0-86.0","3","[""img/0758/6e95579b-5166-487c-b8cb-e417c6a218e3.jpg"",""img/0868/3a62db2d-97e9-44a3-b8e3-a48c6f0e423b.jpg""]","",""
"","3506","similarity","93","838556","0.0-6.0-87.0","1","[""img/0864/afcba0a3-7e27-4757-b254-e9f05fad27e2.jpg"",""img/0894/7dd6ff43-f8fc-408a-8a41-a2b261871820.jpg""]","",""
"","5145","similarity","94","844708","0.0-6.0-88.0","1","[""img/0866/a15b02be-11bb-43e3-b0e0-ecc3bd7dfc49.jpg"",""img/0902/01b41522-de46-4c3a-b0af-a61b2682b40e.jpg""]","",""
"","2449","similarity","95","848165","0.0-6.0-89.0","1","[""img/0769/1d8734c4-77ab-4165-9e71-5cfe672ff01c.jpg"",""img/0867/98d8cd96-1476-4fe0-a3a3-04f875500a1b.jpg""]","",""
"","3369","similarity","96","852541","0.0-6.0-90.0","5","[""img/0874/ca76a855-4e77-4f2f-872a-0a718153e7ed.jpg"",""img/0875/a4935837-7d3c-4df6-88c1-36a94d4991ca.jpg""]","",""
"","5130","similarity","97","858677","0.0-6.0-91.0","5","[""img/0864/1d15626a-2f7c-410f-819c-0fa2c967e95e.jpg"",""img/0874/c0378dac-9370-439a-8b79-db27c96fb390.jpg""]","",""
"","4298","similarity","98","863981","0.0-6.0-92.0","5","[""img/0881/48ed65a5-471f-41af-86ec-3793805c116d.jpg"",""img/0862/7918ca67-5bd3-4606-a5ea-c39fb11a9297.jpg""]","",""
"","4402","similarity","99","869389","0.0-6.0-93.0","5","[""img/0864/8ddd2e30-a1d0-479f-9cbe-591213023893.jpg"",""img/0881/f037e3b0-09cb-4a83-b2d9-6a71fe474e63.jpg""]","",""
"","3930","similarity","100","874324","0.0-6.0-94.0","5","[""img/0899/0e1d936a-dbe2-4afc-9f19-7b7a1ae6c9ed.jpg"",""img/0901/04a53755-6da5-44d4-a7a6-48a6bc0a2280.jpg""]","",""
"","5899","similarity","101","881229","0.0-6.0-95.0","1","[""img/0874/31e22c7c-99aa-40b1-bf03-dd73fa2df4d6.jpg"",""img/0766/214866ee-423d-4629-9bb9-41572bdc7dac.jpg""]","",""
"","3850","similarity","102","886084","0.0-6.0-96.0","1","[""img/0881/e6746727-7f89-47ec-b939-d98abe78372d.jpg"",""img/0899/565ccdd9-0933-4536-a625-3c0e25a713dd.jpg""]","",""
"","3153","similarity","103","890245","0.0-6.0-97.0","1","[""img/0862/99a99e39-8355-44ec-b993-e7bcec111e1c.jpg"",""img/0902/3f0eeac5-c996-4026-a376-563ce8f28521.jpg""]","",""
"","5400","similarity","104","896654","0.0-6.0-98.0","5","[""img/0899/fef567a2-c121-4481-9af0-ff108d199bbf.jpg"",""img/0764/55b3fab1-b809-4d38-a461-3f40ce062f52.jpg""]","",""
"","4687","similarity","105","902349","0.0-6.0-99.0","5","[""img/0758/335851a0-a55b-46d8-ab05-8463eda48349.jpg"",""img/0862/fad1d7c1-8187-43c3-942a-0fc12183e48e.jpg""]","",""
"","4570","similarity","106","907924","0.0-6.0-100.0","6","[""img/0764/29072395-f595-4e3c-83d3-ff87010039fa.jpg"",""img/0898/f3a3f225-1248-4ac7-b93b-f0ff28485bf3.jpg""]","",""
"","3419","similarity","107","912350","0.0-6.0-101.0","5","[""img/0901/a0d65c84-3f20-476a-92d1-0c01e8019cf4.jpg"",""img/0902/a6fb6dd5-696c-47ec-be7d-d7b88f1544f1.jpg""]","",""
"","3753","similarity","108","917110","0.0-6.0-102.0","1","[""img/0764/62fafeea-6274-48ce-976f-35d3d3484c65.jpg"",""img/0868/4a8a45ed-2c4f-421b-9564-409a33ecd26c.jpg""]","",""
"","4674","similarity","109","922790","0.0-6.0-103.0","1","[""img/0769/1ca58b80-2365-446d-9616-6c1719e6c46f.jpg"",""img/0881/5fe04dd0-5c74-47b7-99c8-b068db9ca26a.jpg""]","",""
"","2953","similarity","110","926749","0.0-6.0-104.0","1","[""img/0864/300bb811-8b3c-4c42-8653-6097c3725197.jpg"",""img/0769/96556ef3-7fac-4c9d-8281-1cb0ea5081bc.jpg""]","",""
"","4651","similarity","111","932406","0.0-6.0-105.0","6","[""img/0866/9b38d691-1802-4959-ab3f-fc902f0e4ea6.jpg"",""img/0868/293079b8-7e0c-4afd-a390-1e5d35fe3ded.jpg""]","",""
"","3368","similarity","112","936782","0.0-6.0-106.0","4","[""img/0868/7b212364-ff5f-4e28-9241-7eb6ea00161b.jpg"",""img/0862/1c20f772-3a51-4a80-aac0-f57dc9f86c28.jpg""]","",""
"","4226","similarity","113","942013","0.0-6.0-107.0","4","[""img/0766/d3bab2fc-ddcc-40a0-bb72-c0d0ebe19978.jpg"",""img/0898/5f699581-3853-4547-856c-12f419ba5af7.jpg""]","",""
"","3243","similarity","114","946262","0.0-6.0-108.0","1","[""img/0898/c3cecf20-f7fd-45fa-97d0-dc0a63e8d6c0.jpg"",""img/0864/3d4de670-b290-4285-9c3d-12a0e3af44e9.jpg""]","",""
"","5138","similarity","115","952406","0.0-6.0-109.0","1","[""img/0868/4e626425-63c8-484a-8a1d-e66ee4e0bef8.jpg"",""img/0902/6c2c243a-f663-45db-baf5-038d3d58c589.jpg""]","",""
"","4153","similarity","116","957566","0.0-6.0-110.0","5","[""img/0904/24fc38fe-842c-4831-ad8a-b1de5c25c0a8.jpg"",""img/0764/bd2eaa3e-95a9-4a59-a78e-3f81c766eea9.jpg""]","",""
"","3594","similarity","117","962166","0.0-6.0-111.0","1","[""img/0894/e6385e52-6c35-43bd-b0af-bc803d107b11.jpg"",""img/0875/99698b4d-b4a1-44bc-8c83-8ea755bbbf61.jpg""]","",""
"","3665","similarity","118","966838","0.0-6.0-112.0","5","[""img/0868/1a62b2b2-18f5-466e-b564-5176a57c565e.jpg"",""img/0874/3ce41e7c-40c8-4d58-a546-171114521796.jpg""]","",""
"","3746","similarity","119","977372","0.0-6.0-113.0","5","[""img/0904/a8c3c7d2-9bcf-4347-9e03-8203adfc1fc5.jpg"",""img/0898/661621d4-a14e-487c-8c74-354134a29710.jpg""]","",""
"","3724","similarity","120","982102","0.0-6.0-114.0","1","[""img/0860/5383b320-1518-4095-a58e-5cc1ae30b64c.jpg"",""img/0766/d512b99c-a2dc-40d7-8e86-827323a0cbcf.jpg""]","",""
"","4226","similarity","121","987334","0.0-6.0-115.0","1","[""img/0894/6aa5545f-fa7d-4286-bbaa-aaf34dc7ec96.jpg"",""img/0874/767f289c-9814-4496-803f-745cc8913d1f.jpg""]","",""
"","3739","similarity","122","992079","0.0-6.0-116.0","5","[""img/0899/0adc0bc3-6fca-4078-be6f-d45ddf1653d5.jpg"",""img/0903/4cbdc464-e562-4ec2-9bb6-15f894fdf528.jpg""]","",""
"","5009","similarity","123","998094","0.0-6.0-117.0","1","[""img/0881/6b1189e6-232d-4042-8885-16dc7b10e0d4.jpg"",""img/0764/50f1b062-d608-4bc0-ab25-b872dcf2ed93.jpg""]","",""
"","8410","similarity","124","1007509","0.0-6.0-118.0","5","[""img/0903/36e4ab1f-caa9-40b3-8616-faada076df94.jpg"",""img/0769/662ab839-88d1-4ebf-af05-9b2980cad943.jpg""]","",""
"","3092","similarity","125","1011606","0.0-6.0-119.0","5","[""img/0901/00acf6c1-b66e-4060-bb04-4caf29b5a8b0.jpg"",""img/0904/4b8daf2a-13a9-4ea9-9e0b-b265b6e933e7.jpg""]","",""
"","4042","similarity","126","1016655","0.0-6.0-120.0","5","[""img/0860/c47fdead-eb02-4989-b078-26f4852f44fe.jpg"",""img/0881/c24f3051-eefa-42de-aba6-fccb56d93c70.jpg""]","",""
"","5242","similarity","127","1022903","0.0-6.0-121.0","7","[""img/0758/d41c06bf-ebaf-454b-91c6-1a17f917b659.jpg"",""img/0874/1016b306-087c-4afc-aa08-fa527b28dc76.jpg""]","",""
"","7833","similarity","128","1031743","0.0-6.0-122.0","5","[""img/0901/8bb79e82-9c43-4b6f-a655-40655519598b.jpg"",""img/0769/11518cb3-13ea-4dd0-890c-30cfab728ade.jpg""]","",""
"","6082","similarity","129","1038832","0.0-6.0-123.0","6","[""img/0902/fbef27fa-ac83-4936-ab78-9d1c20a383e1.jpg"",""img/0904/1d10df11-b5c8-4370-9a6b-097a7f965895.jpg""]","",""
"","4945","similarity","130","1044785","0.0-6.0-124.0","1","[""img/0899/a048912c-b12c-40e3-90af-46b69b0cc4fe.jpg"",""img/0864/66091c27-e588-4476-8af9-265dc6be4156.jpg""]","",""
"","4263","similarity","131","1050057","0.0-6.0-125.0","1","[""img/0766/717fd72f-a281-499b-a5ba-5e2ecc4d4866.jpg"",""img/0868/15dd6fd7-791e-4b53-b203-195d617521a4.jpg""]","",""
"","3365","similarity","132","1054431","0.0-6.0-126.0","1","[""img/0764/bc3865c9-9004-4582-88a7-048478673f97.jpg"",""img/0864/f92649a2-0590-4d31-9a7a-1bfb81666a2d.jpg""]","",""
"","2865","similarity","133","1058303","0.0-6.0-127.0","1","[""img/0899/9de5e857-aa9a-4e0c-8ba2-46d79bd069a4.jpg"",""img/0866/620cd1aa-0800-4414-8f6e-90342e7a99ad.jpg""]","",""
"","4562","similarity","134","1063872","0.0-6.0-128.0","1","[""img/0901/b453df0b-4c39-49bb-8ced-6127efffa898.jpg"",""img/0881/0c7068da-d0d9-4103-bda1-74ef7a2b32c3.jpg""]","",""
"","4226","similarity","135","1069106","0.0-6.0-129.0","6","[""img/0898/b3290bf9-215b-4b45-b21a-65bdf73f142f.jpg"",""img/0903/2a9c8033-3e70-47fa-816d-97ee1813a3a3.jpg""]","",""
"","6312","similarity","136","1076424","0.0-6.0-130.0","1","[""img/0894/661b9f9f-4bde-487a-b1ed-87085fde6948.jpg"",""img/0867/a498eef3-9fa4-4ab2-9778-4ae82ac40dc5.jpg""]","",""
"","3354","similarity","137","1080784","0.0-6.0-131.0","1","[""img/0874/29830da7-be5f-44e5-b141-652a0ccf7269.jpg"",""img/0903/2c7b4aed-6038-4aac-958a-e3e58341c313.jpg""]","",""
"","3722","similarity","138","1085512","0.0-6.0-132.0","3","[""img/0899/b45c550b-96c3-4255-ad59-48a2b4db1c1e.jpg"",""img/0898/68476bbb-34a1-42d9-8bc1-deab783d4489.jpg""]","",""
"","3650","similarity","139","1090168","0.0-6.0-133.0","1","[""img/0867/075e0f95-856b-4cbb-acf5-092393aaf04e.jpg"",""img/0764/03c07b98-3f18-4b71-bb70-ecff564a78d1.jpg""]","",""
"","4762","similarity","140","1095936","0.0-6.0-134.0","2","[""img/0866/be24ab58-230e-4db8-9f45-ff04c9aec6bb.jpg"",""img/0769/e8ed913b-8a88-44f6-9327-d34afec3116b.jpg""]","",""
"","3738","similarity","141","1100681","0.0-6.0-135.0","1","[""img/0860/d9a0d117-6d1d-41c0-8fec-9aff0fd9e9f2.jpg"",""img/0898/4184e5a2-84ea-4f36-9b42-ae58646f6f87.jpg""]","",""
"","2970","similarity","142","1104657","0.0-6.0-136.0","1","[""img/0881/dea58fad-b4f1-41d9-bd3f-916eff19a3fd.jpg"",""img/0903/70d764d9-1f35-4da7-a35d-4cc39834d270.jpg""]","",""
"","4041","similarity","143","1109704","0.0-6.0-137.0","5","[""img/0894/c505c65a-cde2-4f2c-8cde-f8676f7c894d.jpg"",""img/0766/0b48f9e0-7d37-4161-8adb-4e3f5b6b7583.jpg""]","",""
"","5427","similarity","144","1116136","0.0-6.0-138.0","1","[""img/0860/f44ba3fb-03a2-42f0-8509-2c1ded493086.jpg"",""img/0764/d7f3ac54-318a-4dac-a06b-62bed34d01a4.jpg""]","",""
"","4114","similarity","145","1121257","0.0-6.0-139.0","6","[""img/0769/aad494cc-674d-4a08-9bfa-24a88ebe3c79.jpg"",""img/0902/bd89a85f-3853-4786-acd6-98818ee29f1c.jpg""]","",""
"","6002","similarity","146","1128265","0.0-6.0-140.0","2","[""img/0904/da170c1b-9651-4f08-b231-2bdd1d9a046f.jpg"",""img/0903/43ffd882-077a-40dd-a264-e58d519420a1.jpg""]","",""
"","4522","similarity","147","1133793","0.0-6.0-141.0","5","[""img/0764/ca957454-126a-4bd3-b29c-7174a24c25dc.jpg"",""img/0769/180213e5-1e50-4b4e-87b6-add77ba04d39.jpg""]","",""
"","3850","similarity","148","1138649","0.0-6.0-142.0","1","[""img/0902/94ee9c53-a9a2-4f95-b9b7-794a5fc62bb6.jpg"",""img/0881/f6bd3b96-dc40-4e99-8681-bc3a35cf896d.jpg""]","",""
"","5139","similarity","149","1144793","0.0-6.0-143.0","5","[""img/0866/07c9c966-3c8d-40e7-8128-92b2acbaed5d.jpg"",""img/0864/9b2490c5-a282-400a-9736-e1a0ecbf1cb7.jpg""]","",""
"","5713","similarity","150","1151513","0.0-6.0-144.0","6","[""img/0902/10d99c89-71f7-4c81-a31e-dfc7c59f5232.jpg"",""img/0898/a8f16b02-e19f-423b-86c3-a36562ae1f9b.jpg""]","",""
"","5778","similarity","151","1158297","0.0-6.0-145.0","5","[""img/0862/ad593cc7-cabe-4bb7-8e14-8a447a0717b4.jpg"",""img/0864/ea327690-500b-4137-bf91-451b309fe6a5.jpg""]","",""
"","4154","similarity","152","1163457","0.0-6.0-146.0","1","[""img/0875/d59ff733-eaff-4ee2-9443-06954dd0bcb6.jpg"",""img/0898/82231d4c-218b-4d0a-b50d-35a49b524e97.jpg""]","",""
"","6139","similarity","153","1170602","0.0-6.0-147.0","5","[""img/0874/2c9464dd-8a23-4baa-ac94-1ba3af5c15cc.jpg"",""img/0881/d1982897-8d8d-4704-a940-1ee5d07a1f15.jpg""]","",""
"","3463","similarity","154","1175073","0.0-6.0-148.0","1","[""img/0758/eabcd7a8-56ad-4fd2-bc24-90f6b7b33265.jpg"",""img/0894/e2446cf5-cd48-486a-badc-76498e087fbe.jpg""]","",""
"","6723","similarity","155","1182802","0.0-6.0-149.0","1","[""img/0904/fe746a3f-8458-48d0-8a13-8cba2a9df9f8.jpg"",""img/0864/87c467d3-abca-482f-ad80-3766c21b1bb3.jpg""]","",""
"","5106","similarity","156","1188913","0.0-6.0-150.0","5","[""img/0769/8056889f-2b14-4782-bb25-b4e8896ab65b.jpg"",""img/0899/8abe6c69-822c-436c-9bf2-96c818b49ba5.jpg""]","",""
"","3434","similarity","157","1196400","0.0-6.0-151.0","5","[""img/0764/0e7ed062-f798-4366-8a24-6f430926f919.jpg"",""img/0903/0fb24af7-9a26-4e9d-aadc-959a36f683e2.jpg""]","",""
"","4476","similarity","158","1201883","0.0-6.0-152.0","1","[""img/0903/71dbc325-b588-4297-a5cf-7f268a722ad9.jpg"",""img/0864/65210d57-1153-4657-886a-32e758f49b4a.jpg""]","",""
"","3615","similarity","159","1206506","0.0-6.0-153.0","1","[""img/0894/9b1333fd-3561-43bf-aee5-99b7b7ca3dc3.jpg"",""img/0881/ee44e27f-d662-4608-b265-e7ffa19b216f.jpg""]","",""
"","4001","similarity","160","1211516","0.0-6.0-154.0","6","[""img/0875/527ced51-8e53-4aab-ab05-86df219104c0.jpg"",""img/0867/de92135f-5b65-4ed9-b245-188292c7c2f8.jpg""]","",""
"","3358","similarity","161","1215881","0.0-6.0-155.0","5","[""img/0867/f26f6b60-f772-4f4c-95a4-addc62cfd692.jpg"",""img/0758/821c68d3-5cb0-4eae-8659-30e6263fca39.jpg""]","",""
"","5890","similarity","162","1222778","0.0-6.0-156.0","1","[""img/0868/e0aff734-077f-40dd-9781-74821abd3621.jpg"",""img/0901/50e1d53e-a49f-4806-8610-be6dec5a2475.jpg""]","",""
"","6842","similarity","163","1230627","0.0-6.0-157.0","5","[""img/0769/75f7e514-0548-4329-b1e4-93c05e74f038.jpg"",""img/0894/151063aa-6472-4745-837b-36603aba5966.jpg""]","",""
"","6017","similarity","164","1237650","0.0-6.0-158.0","1","[""img/0904/09934646-45d2-4147-8fec-64a22a5ac822.jpg"",""img/0758/20497cbe-ddae-489e-86e2-ab06985ed07c.jpg""]","",""
"","4314","similarity","165","1242970","0.0-6.0-159.0","1","[""img/0874/93d1f8dc-acf2-4f03-bd8d-8ec35df276ed.jpg"",""img/0904/4d7d70a3-9477-4921-bda0-f9531d0a5c5b.jpg""]","",""
"","3194","similarity","166","1247170","0.0-6.0-160.0","1","[""img/0864/49150900-7f25-4ce8-8d10-9b47a71d1997.jpg"",""img/0901/0adb3bd6-d758-4ba7-9723-3ad6cac05bd5.jpg""]","",""
"","4069","similarity","167","1252250","0.0-6.0-161.0","1","[""img/0898/a114b375-cb89-44ba-9498-74213f1ecdee.jpg"",""img/0866/f756f7d1-9ad8-4a34-9ef6-7a443d705bfe.jpg""]","",""
"","4723","similarity","168","1257979","0.0-6.0-162.0","5","[""img/0766/3c526a07-9e0a-4ae2-8142-00085f0127da.jpg"",""img/0903/647ce311-8c71-479a-8361-961db1457139.jpg""]","",""
"","5034","similarity","169","1264019","0.0-6.0-163.0","6","[""img/0860/fd4662f9-4c03-4d79-8593-06735e55a64b.jpg"",""img/0899/d8f2dd94-570e-4e8c-a087-d96090fb9e8c.jpg""]","",""
"","3394","similarity","170","1268419","0.0-6.0-164.0","1","[""img/0766/a1ed3f0f-e338-4a26-8fe4-4370f0c9fa6e.jpg"",""img/0862/57b6f83f-c763-4858-830d-102f97bfefbf.jpg""]","",""
"","4986","similarity","171","1274411","0.0-6.0-165.0","5","[""img/0898/ec565187-2e31-4fdd-9a5c-153d0c789ae0.jpg"",""img/0894/1a010553-d598-4b06-a772-81f1e7b3addb.jpg""]","",""
"","3722","similarity","172","1279139","0.0-6.0-166.0","1","[""img/0867/85a96c62-548f-4994-9553-819e03c3135a.jpg"",""img/0766/006035d8-c736-4daf-bbe4-a9e373af9da6.jpg""]","",""
"","3458","similarity","173","1283603","0.0-6.0-167.0","1","[""img/0904/5aec2708-cf14-4a58-aa30-9a8a61c1be0e.jpg"",""img/0862/e697469a-ec19-4414-b972-7b9f3564785b.jpg""]","",""
"","5265","similarity","174","1289874","0.0-6.0-168.0","5","[""img/0866/945c6710-d15b-4a5b-a8f6-69af0850357f.jpg"",""img/0874/8cdb1c07-1c32-46d2-981c-3636560fa6e5.jpg""]","",""
"","5570","similarity","175","1296451","0.0-6.0-169.0","1","[""img/0903/8635cf25-2648-4fe9-8c42-79d2598e999c.jpg"",""img/0868/4bd5105a-d2c3-4f82-8c80-57196106ba53.jpg""]","",""
"","3682","similarity","176","1301140","0.0-6.0-170.0","5","[""img/0769/f229321f-04dd-42d7-b14a-ffad6b509862.jpg"",""img/0904/ba8e689e-9ca6-4608-a2a1-3b0940666ae6.jpg""]","",""
"","3642","similarity","177","1305787","0.0-6.0-171.0","1","[""img/0875/5a7c4e35-6514-4e12-8879-d16071da4cd6.jpg"",""img/0764/ba0c0955-acbb-457d-b1c2-f006b88121d5.jpg""]","",""
"","3657","similarity","178","1310462","0.0-6.0-172.0","1","[""img/0860/e8b8c51e-1834-4875-8b61-6c5bc9b178bd.jpg"",""img/0903/0a92ec52-4e87-410a-857a-4455cde56a70.jpg""]","",""
"","2883","similarity","179","1314354","0.0-6.0-173.0","5","[""img/0864/c3b63e8f-ea39-4d70-a1f2-b3fe4be8eb75.jpg"",""img/0867/aa05d113-fc19-4756-a8eb-7878f580bc92.jpg""]","",""
"","3939","similarity","180","1319300","0.0-6.0-174.0","5","[""img/0868/d6d1f30d-4323-435a-b194-7892521bc57e.jpg"",""img/0864/da39ad34-04e0-40d4-a724-c08d53e0ea09.jpg""]","",""
"","4202","similarity","181","1324508","0.0-6.0-175.0","5","[""img/0898/224c1572-56b9-4f16-a9e4-6f3bc9c114bd.jpg"",""img/0769/878531fd-e0e8-4ad1-b9ad-f018bb104ca0.jpg""]","",""
"","4337","similarity","182","1329852","0.0-6.0-176.0","5","[""img/0766/a0270213-fa0e-4972-8b56-228c3e01ff90.jpg"",""img/0764/4952d0a0-c9be-471a-8ec7-94a37bf4051d.jpg""]","",""
"","3562","similarity","183","1334420","0.0-6.0-177.0","1","[""img/0764/83c93cce-18d1-4aa7-9e23-2c268afe0a46.jpg"",""img/0866/386235d2-6857-41e7-88a8-25cfc3430025.jpg""]","",""
"","3474","similarity","184","1338900","0.0-6.0-178.0","1","[""img/0902/d49743d6-67ae-4c2e-a939-8fd895a0f18e.jpg"",""img/0875/fb732ab5-013a-4366-9f65-27811ed157e9.jpg""]","",""
"","2795","similarity","185","1342701","0.0-6.0-179.0","1","[""img/0881/4bd34581-94d8-4e88-8c89-5cef864ca3be.jpg"",""img/0904/25365108-e038-4021-aac9-797f2063b337.jpg""]","",""
"","3946","similarity","186","1347652","0.0-6.0-180.0","5","[""img/0874/a82926a3-0b43-4add-803c-d5f9ea7798ee.jpg"",""img/0860/31ff6436-98bf-4652-bed2-40f627229568.jpg""]","",""
"","5721","similarity","187","1354380","0.0-6.0-181.0","3","[""img/0769/8598a429-c671-4d2f-842c-32f681f5e412.jpg"",""img/0874/7e4f2150-3b59-4a36-b5da-a4e0ba410531.jpg""]","",""
"","3969","similarity","188","1359356","0.0-6.0-182.0","5","[""img/0904/9d30eff1-46ef-4453-b11e-124ef8145c00.jpg"",""img/0766/aaec5f42-7f0a-4a16-aeca-488d757acbcc.jpg""]","",""
"","4282","similarity","189","1364644","0.0-6.0-183.0","5","[""img/0902/af45fe42-178c-4c1a-99ef-256e87e3b092.jpg"",""img/0764/ca9829fe-aaf8-45b8-b98a-6bae751c63dd.jpg""]","",""
"","3970","similarity","190","1369620","0.0-6.0-184.0","1","[""img/0769/f73c5138-2f4c-4354-981c-129dff9cc734.jpg"",""img/0875/ebf7653f-ff45-4e9f-af58-2c042ab3cd2b.jpg""]","",""
"","2850","similarity","191","1373476","0.0-6.0-185.0","1","[""img/0867/a749dddb-69f0-44a6-acdc-2bf295cf6dcc.jpg"",""img/0903/b7e3723f-fd03-4f3d-8820-f19496463a34.jpg""]","",""
"","3266","similarity","192","1377749","0.0-6.0-186.0","1","[""img/0862/847e5208-38ec-4f36-949c-296cdd7424ee.jpg"",""img/0769/e31b3bd8-efcb-413e-aa8c-75fac2b8f2ac.jpg""]","",""
"","5425","similarity","193","1384181","0.0-6.0-187.0","1","[""img/0766/d5d38751-8fa5-476f-93e9-86ed2d9045ef.jpg"",""img/0866/93a27239-8317-4e08-98ca-d8b1ff298e07.jpg""]","",""
"","3659","similarity","194","1388845","0.0-6.0-188.0","1","[""img/0769/1afb527f-9887-428c-bd26-a12c2f9efb68.jpg"",""img/0860/15b24a61-25be-4356-9eac-5ce95d0cb4a4.jpg""]","",""
"","4828","similarity","195","1398099","0.0-6.0-189.0","5","[""img/0881/667e2147-d457-4f32-aa5f-6ab86e5848f1.jpg"",""img/0868/8b0b8473-e2c0-4331-aa56-c3a5c29369da.jpg""]","",""
"[{""page_index"":0,""viewing_time"":54456}]","54457","instructions","196","1453558","0.0-7.0","","","",""
"","14018","image-multi-choice","197","1468602","0.0-8.0-0.0","","","{""Q0"":""Orange-crowned Warbler""}","Nashville Warbler"
"","6666","image-multi-choice","198","1476287","0.0-8.0-1.0","","","{""Q0"":""Black-and-white Warbler""}","Black-and-white Warbler"
"","36834","image-multi-choice","199","1514136","0.0-8.0-2.0","","","{""Q0"":""Townsend's Warbler""}","Townsend's Warbler"
"","5761","image-multi-choice","200","1520911","0.0-8.0-3.0","","","{""Q0"":""Lark Sparrow""}","Lark Sparrow"
"","6999","image-multi-choice","201","1528927","0.0-8.0-4.0","","","{""Q0"":""Yellow Warbler""}","Yellow Warbler"
"","12011","image-multi-choice","202","1541959","0.0-8.0-5.0","","","{""Q0"":""Tennessee Warbler""}","Orange-crowned Warbler"
"","7041","image-multi-choice","203","1550016","0.0-8.0-6.0","","","{""Q0"":""White-throated Sparrow""}","White-throated Sparrow"
"","6633","image-multi-choice","204","1557664","0.0-8.0-7.0","","","{""Q0"":""Fox Sparrow""}","Fox Sparrow"
"","25656","image-multi-choice","205","1584336","0.0-8.0-8.0","","","{""Q0"":""Lincoln's Sparrow""}","Song Sparrow"
"","8969","image-multi-choice","206","1594320","0.0-8.0-9.0","","","{""Q0"":""Blackburnian Warbler""}","Blackburnian Warbler"
"","36867","image-multi-choice","207","1632200","0.0-8.0-10.0","","","{""Q0"":""Lincoln's Sparrow""}","Vesper Sparrow"
"","6372","image-multi-choice","208","1639585","0.0-8.0-11.0","","","{""Q0"":""White-crowned Sparrow""}","White-crowned Sparrow"
"","15073","image-multi-choice","209","1655673","0.0-8.0-12.0","","","{""Q0"":""Swamp Sparrow""}","American Tree Sparrow"
"","22958","image-multi-choice","210","1679648","0.0-8.0-13.0","","","{""Q0"":""Tennessee Warbler""}","Tennessee Warbler"
"","16684","image-multi-choice","211","1697346","0.0-8.0-14.0","","","{""Q0"":""Magnolia Warbler""}","Magnolia Warbler"
"","13025","image-multi-choice","212","1711387","0.0-8.0-15.0","","","{""Q0"":""Northern Waterthrush""}","Northern Waterthrush"
"","41597","image-multi-choice","213","1754003","0.0-8.0-16.0","","","{""Q0"":""Chipping Sparrow""}","Chipping Sparrow"
"","17788","image-multi-choice","214","1772811","0.0-8.0-17.0","","","{""Q0"":""American Tree Sparrow""}","Swamp Sparrow"
"","67712","image-multi-choice","215","1841541","0.0-8.0-18.0","","","{""Q0"":""Vesper Sparrow""}","Lincoln's Sparrow"
"","6134","image-multi-choice","216","1848692","0.0-8.0-19.0","","","{""Q0"":""Ovenbird""}","Ovenbird"
