[{"view_history":"[{\"page_index\":0,\"viewing_time\":11798}]","rt":11798,"trial_type":"instructions","trial_index":0,"time_elapsed":11800,"internal_node_id":"0.0-0.0"},{"sim_score":7,"rt":7174,"stimulus":"[\"img/bluejay1.jpg\",\"img/bluejay2.jpg\"]","trial_type":"similarity_demo","trial_index":1,"time_elapsed":19981,"internal_node_id":"0.0-1.0"},{"view_history":"[{\"page_index\":0,\"viewing_time\":8411}]","rt":8411,"trial_type":"instructions","trial_index":2,"time_elapsed":29394,"internal_node_id":"0.0-2.0"},{"sim_score":5,"rt":6916,"stimulus":"[\"img/bluejay1.jpg\",\"img/cardinal1.jpg\"]","trial_type":"similarity_demo","trial_index":3,"time_elapsed":37319,"internal_node_id":"0.0-3.0"},{"view_history":"[{\"page_index\":0,\"viewing_time\":5527}]","rt":5527,"trial_type":"instructions","trial_index":4,"time_elapsed":43846,"internal_node_id":"0.0-4.0"},{"view_history":"[{\"page_index\":0,\"viewing_time\":27441}]","rt":27442,"trial_type":"instructions","trial_index":5,"time_elapsed":72297,"internal_node_id":"0.0-5.0"},{"sim_score":3,"rt":4157,"stimulus":"[\"img/0868/8b0b8473-e2c0-4331-aa56-c3a5c29369da.jpg\",\"img/0894/7dd6ff43-f8fc-408a-8a41-a2b261871820.jpg\"]","trial_type":"similarity","trial_index":6,"time_elapsed":77461,"internal_node_id":"0.0-6.0-0.0"},{"sim_score":3,"rt":4847,"stimulus":"[\"img/0898/4184e5a2-84ea-4f36-9b42-ae58646f6f87.jpg\",\"img/0758/7fba58df-2a7a-4b76-8a8f-62739f97f271.jpg\"]","trial_type":"similarity","trial_index":7,"time_elapsed":83321,"internal_node_id":"0.0-6.0-1.0"},{"sim_score":5,"rt":3720,"stimulus":"[\"img/0903/6b5dcc60-3ad3-4962-93e5-e6cf768477af.jpg\",\"img/0894/86201968-6e78-4d68-9b3a-d1692e066210.jpg\"]","trial_type":"similarity","trial_index":8,"time_elapsed":88051,"internal_node_id":"0.0-6.0-2.0"},{"sim_score":3,"rt":4185,"stimulus":"[\"img/0881/f7a8cc63-8842-40a4-9ff8-fe530310d62c.jpg\",\"img/0766/ea09dd5a-d24d-4e97-a099-7da3db1baef1.jpg\"]","trial_type":"similarity","trial_index":9,"time_elapsed":93241,"internal_node_id":"0.0-6.0-3.0"},{"sim_score":1,"rt":4851,"stimulus":"[\"img/0864/f92649a2-0590-4d31-9a7a-1bfb81666a2d.jpg\",\"img/0860/5383b320-1518-4095-a58e-5cc1ae30b64c.jpg\"]","trial_type":"similarity","trial_index":10,"time_elapsed":99101,"internal_node_id":"0.0-6.0-4.0"},{"sim_score":5,"rt":3873,"stimulus":"[\"img/0902/9f543501-3cf1-45a7-a2f1-eeca87cc15b9.jpg\",\"img/0899/57476fed-5962-4272-8fc9-b317bb777b54.jpg\"]","trial_type":"similarity","trial_index":11,"time_elapsed":103991,"internal_node_id":"0.0-6.0-5.0"},{"sim_score":1,"rt":4093,"stimulus":"[\"img/0868/7b212364-ff5f-4e28-9241-7eb6ea00161b.jpg\",\"img/0769/8c7cf147-1780-4d5c-8ddf-5ea23ff03ac9.jpg\"]","trial_type":"similarity","trial_index":12,"time_elapsed":109096,"internal_node_id":"0.0-6.0-6.0"},{"sim_score":5,"rt":5050,"stimulus":"[\"img/0764/83c93cce-18d1-4aa7-9e23-2c268afe0a46.jpg\",\"img/0901/71e551a2-9ce2-409c-9c7c-dd556a0791e9.jpg\"]","trial_type":"similarity","trial_index":13,"time_elapsed":115153,"internal_node_id":"0.0-6.0-7.0"},{"sim_score":5,"rt":3919,"stimulus":"[\"img/0881/4bd34581-94d8-4e88-8c89-5cef864ca3be.jpg\",\"img/0866/4a87911a-d5be-4d4e-ab8e-3d1f581bf507.jpg\"]","trial_type":"similarity","trial_index":14,"time_elapsed":120090,"internal_node_id":"0.0-6.0-8.0"},{"sim_score":1,"rt":5158,"stimulus":"[\"img/0867/a498eef3-9fa4-4ab2-9778-4ae82ac40dc5.jpg\",\"img/0899/ad8268c5-8199-48d0-ad70-c5b6d6c599ec.jpg\"]","trial_type":"similarity","trial_index":15,"time_elapsed":126262,"internal_node_id":"0.0-6.0-9.0"},{"sim_score":2,"rt":3132,"stimulus":"[\"img/0875/90da8d75-108a-44ad-b999-e21fee3860d3.jpg\",\"img/0766/214866ee-423d-4629-9bb9-41572bdc7dac.jpg\"]","trial_type":"similarity","trial_index":16,"time_elapsed":130399,"internal_node_id":"0.0-6.0-10.0"},{"sim_score":2,"rt":4387,"stimulus":"[\"img/0901/04a53755-6da5-44d4-a7a6-48a6bc0a2280.jpg\",\"img/0875/527ced51-8e53-4aab-ab05-86df219104c0.jpg\"]","trial_type":"similarity","trial_index":17,"time_elapsed":135797,"internal_node_id":"0.0-6.0-11.0"},{"sim_score":3,"rt":4131,"stimulus":"[\"img/0902/b03129ba-b087-4558-af37-e8399d6217d6.jpg\",\"img/0860/4c530c3c-6aab-492a-94d1-9c01797bde40.jpg\"]","trial_type":"similarity","trial_index":18,"time_elapsed":140935,"internal_node_id":"0.0-6.0-12.0"},{"sim_score":5,"rt":5172,"stimulus":"[\"img/0874/2c9464dd-8a23-4baa-ac94-1ba3af5c15cc.jpg\",\"img/0867/5e07b34d-b40f-4b1c-ac10-49975bace45f.jpg\"]","trial_type":"similarity","trial_index":19,"time_elapsed":147124,"internal_node_id":"0.0-6.0-13.0"},{"sim_score":3,"rt":3234,"stimulus":"[\"img/0904/ba8e689e-9ca6-4608-a2a1-3b0940666ae6.jpg\",\"img/0866/386235d2-6857-41e7-88a8-25cfc3430025.jpg\"]","trial_type":"similarity","trial_index":20,"time_elapsed":151378,"internal_node_id":"0.0-6.0-14.0"},{"sim_score":3,"rt":3201,"stimulus":"[\"img/0758/d540bee6-b460-4c32-ac57-bc282742d7d4.jpg\",\"img/0902/30c420f5-c714-4681-ae5a-c0ba8f636a26.jpg\"]","trial_type":"similarity","trial_index":21,"time_elapsed":155593,"internal_node_id":"0.0-6.0-15.0"},{"sim_score":3,"rt":3541,"stimulus":"[\"img/0867/c66898ba-b71b-4d50-84f9-f7f84853a98d.jpg\",\"img/0898/40f99fb2-64d2-4e72-8a7f-a1cf60741e69.jpg\"]","trial_type":"similarity","trial_index":22,"time_elapsed":160138,"internal_node_id":"0.0-6.0-16.0"},{"sim_score":3,"rt":4236,"stimulus":"[\"img/0904/09934646-45d2-4147-8fec-64a22a5ac822.jpg\",\"img/0868/d6d1f30d-4323-435a-b194-7892521bc57e.jpg\"]","trial_type":"similarity","trial_index":23,"time_elapsed":165390,"internal_node_id":"0.0-6.0-17.0"},{"sim_score":3,"rt":3711,"stimulus":"[\"img/0766/908bc45b-7c9e-4f95-806e-86b196ebcb2c.jpg\",\"img/0864/66091c27-e588-4476-8af9-265dc6be4156.jpg\"]","trial_type":"similarity","trial_index":24,"time_elapsed":170120,"internal_node_id":"0.0-6.0-18.0"},{"sim_score":5,"rt":3502,"stimulus":"[\"img/0899/d60714ae-98d7-4564-8c98-94dba1351135.jpg\",\"img/0766/91fc8c4d-862f-4d2b-b1a1-2db8d729b6b7.jpg\"]","trial_type":"similarity","trial_index":25,"time_elapsed":174638,"internal_node_id":"0.0-6.0-19.0"},{"sim_score":3,"rt":3308,"stimulus":"[\"img/0764/d0bef2e0-e16b-4c82-9451-c1d16265eb67.jpg\",\"img/0758/335851a0-a55b-46d8-ab05-8463eda48349.jpg\"]","trial_type":"similarity","trial_index":26,"time_elapsed":178959,"internal_node_id":"0.0-6.0-20.0"},{"sim_score":3,"rt":2990,"stimulus":"[\"img/0901/31c032fd-3c3d-4882-a226-da9a80198937.jpg\",\"img/0874/3f471690-9788-4d03-90c7-f615aecef149.jpg\"]","trial_type":"similarity","trial_index":27,"time_elapsed":182968,"internal_node_id":"0.0-6.0-21.0"},{"sim_score":5,"rt":3426,"stimulus":"[\"img/0875/f87b67d7-c33e-40d1-b281-248c4be1cb6e.jpg\",\"img/0758/53f35650-e455-4b53-8be4-c3c8271c6466.jpg\"]","trial_type":"similarity","trial_index":28,"time_elapsed":187408,"internal_node_id":"0.0-6.0-22.0"},{"sim_score":5,"rt":3228,"stimulus":"[\"img/0867/7d1c497b-c1b3-4ed8-abb5-d7f73306015f.jpg\",\"img/0881/4da99fdd-1f40-4bbb-8e21-8833eef313f5.jpg\"]","trial_type":"similarity","trial_index":29,"time_elapsed":191640,"internal_node_id":"0.0-6.0-23.0"},{"sim_score":3,"rt":4745,"stimulus":"[\"img/0758/61d64021-9214-4951-bdf8-f871f9827cf9.jpg\",\"img/0901/233a6948-48eb-4b67-8259-222b916b2322.jpg\"]","trial_type":"similarity","trial_index":30,"time_elapsed":197401,"internal_node_id":"0.0-6.0-24.0"},{"sim_score":6,"rt":3294,"stimulus":"[\"img/0868/83b4350a-3b70-4cea-b7f5-b5b56f3050a8.jpg\",\"img/0875/5a7c4e35-6514-4e12-8879-d16071da4cd6.jpg\"]","trial_type":"similarity","trial_index":31,"time_elapsed":201699,"internal_node_id":"0.0-6.0-25.0"},{"sim_score":5,"rt":4332,"stimulus":"[\"img/0903/ea75f240-fb62-4edb-a709-83e858b202c0.jpg\",\"img/0901/548d1110-7cb8-42a2-9927-9798875c8b5c.jpg\"]","trial_type":"similarity","trial_index":32,"time_elapsed":207044,"internal_node_id":"0.0-6.0-26.0"},{"sim_score":5,"rt":2853,"stimulus":"[\"img/0894/bd34223a-2f66-4e16-9d18-193a746b69ff.jpg\",\"img/0899/66bf4113-ee12-426c-84d2-ea410b6c803e.jpg\"]","trial_type":"similarity","trial_index":33,"time_elapsed":210917,"internal_node_id":"0.0-6.0-27.0"},{"sim_score":3,"rt":5034,"stimulus":"[\"img/0862/de9ad88c-b522-430a-8ee9-eb06a9f85df5.jpg\",\"img/0867/db7e032f-162b-46f5-ae67-2b29679adee4.jpg\"]","trial_type":"similarity","trial_index":34,"time_elapsed":216957,"internal_node_id":"0.0-6.0-28.0"},{"sim_score":5,"rt":3845,"stimulus":"[\"img/0864/a248adb3-c70b-4652-b7a3-776d2a1e904b.jpg\",\"img/0875/2c361b79-c3d1-4eda-812e-bf03192407bf.jpg\"]","trial_type":"similarity","trial_index":35,"time_elapsed":221818,"internal_node_id":"0.0-6.0-29.0"},{"sim_score":5,"rt":4823,"stimulus":"[\"img/0862/47ed5efd-4ec9-4b74-bb4e-a5f5cf0c3e7d.jpg\",\"img/0874/99f6563c-8a8d-4c1c-a41d-667b618c3fd5.jpg\"]","trial_type":"similarity","trial_index":36,"time_elapsed":227646,"internal_node_id":"0.0-6.0-30.0"},{"sim_score":3,"rt":2423,"stimulus":"[\"img/0903/59defeb8-98bd-4570-a2f8-9bd189e68ef4.jpg\",\"img/0758/d57c2592-a317-4f63-91be-91a3a9afd222.jpg\"]","trial_type":"similarity","trial_index":37,"time_elapsed":231082,"internal_node_id":"0.0-6.0-31.0"},{"sim_score":3,"rt":2692,"stimulus":"[\"img/0866/c446214b-a368-4c65-ae39-ea46894256ab.jpg\",\"img/0901/ae1e6ce4-2e10-4ca9-b1e7-21628637ab74.jpg\"]","trial_type":"similarity","trial_index":38,"time_elapsed":234790,"internal_node_id":"0.0-6.0-32.0"},{"sim_score":3,"rt":2687,"stimulus":"[\"img/0874/a3bc679d-619f-4db6-bb68-116dcb757d9c.jpg\",\"img/0899/56a605c3-d0a2-4215-89e1-779279d85a7c.jpg\"]","trial_type":"similarity","trial_index":39,"time_elapsed":238489,"internal_node_id":"0.0-6.0-33.0"},{"sim_score":6,"rt":3706,"stimulus":"[\"img/0903/72197c2b-403e-4a26-b391-f1aa8dea4b76.jpg\",\"img/0902/0c760cc9-10ac-429e-8957-a7d51fc99683.jpg\"]","trial_type":"similarity","trial_index":40,"time_elapsed":243214,"internal_node_id":"0.0-6.0-34.0"},{"sim_score":5,"rt":3386,"stimulus":"[\"img/0758/a085b443-b5d7-4cb2-9ad4-b9dab0fc23f1.jpg\",\"img/0866/945c6710-d15b-4a5b-a8f6-69af0850357f.jpg\"]","trial_type":"similarity","trial_index":41,"time_elapsed":247610,"internal_node_id":"0.0-6.0-35.0"},{"sim_score":2,"rt":5083,"stimulus":"[\"img/0875/e7e66b13-b573-431e-b85e-288ce04a35a3.jpg\",\"img/0903/b548d383-2a95-4575-8c13-647873751ff1.jpg\"]","trial_type":"similarity","trial_index":42,"time_elapsed":253709,"internal_node_id":"0.0-6.0-36.0"},{"sim_score":3,"rt":3634,"stimulus":"[\"img/0864/da39ad34-04e0-40d4-a724-c08d53e0ea09.jpg\",\"img/0902/1a120fb9-dbd6-443e-ba91-b4aceab963da.jpg\"]","trial_type":"similarity","trial_index":43,"time_elapsed":265473,"internal_node_id":"0.0-6.0-37.0"},{"sim_score":1,"rt":4029,"stimulus":"[\"img/0901/a9b9c0a0-8aed-4888-a78a-65fb7e764d13.jpg\",\"img/0867/075e0f95-856b-4cbb-acf5-092393aaf04e.jpg\"]","trial_type":"similarity","trial_index":44,"time_elapsed":270521,"internal_node_id":"0.0-6.0-38.0"},{"sim_score":6,"rt":3746,"stimulus":"[\"img/0862/92f0146c-20c4-482e-aef5-adb693790338.jpg\",\"img/0860/8277806e-b684-4474-8f7b-3fca946d7d4f.jpg\"]","trial_type":"similarity","trial_index":45,"time_elapsed":275286,"internal_node_id":"0.0-6.0-39.0"},{"sim_score":7,"rt":3691,"stimulus":"[\"img/0867/179ab87a-8eac-4c52-a41f-2e48e3120f09.jpg\",\"img/0868/5fa7f9d0-f0e5-454c-8224-74d964818f56.jpg\"]","trial_type":"similarity","trial_index":46,"time_elapsed":279983,"internal_node_id":"0.0-6.0-40.0"},{"sim_score":5,"rt":3902,"stimulus":"[\"img/0904/4d7d70a3-9477-4921-bda0-f9531d0a5c5b.jpg\",\"img/0899/66ab3178-c3fe-4455-ad17-d5952b08e018.jpg\"]","trial_type":"similarity","trial_index":47,"time_elapsed":284894,"internal_node_id":"0.0-6.0-41.0"},{"sim_score":3,"rt":3183,"stimulus":"[\"img/0862/fb26cb07-d5a9-4653-813c-f41609f26cd5.jpg\",\"img/0894/10f22b96-040c-44f4-950b-a4963f3f506c.jpg\"]","trial_type":"similarity","trial_index":48,"time_elapsed":289087,"internal_node_id":"0.0-6.0-42.0"},{"sim_score":3,"rt":2967,"stimulus":"[\"img/0875/d59ff733-eaff-4ee2-9443-06954dd0bcb6.jpg\",\"img/0904/73920552-103b-4c9c-9ece-e0b8376b4504.jpg\"]","trial_type":"similarity","trial_index":49,"time_elapsed":293058,"internal_node_id":"0.0-6.0-43.0"},{"sim_score":1,"rt":3621,"stimulus":"[\"img/0874/ca76a855-4e77-4f2f-872a-0a718153e7ed.jpg\",\"img/0898/a114b375-cb89-44ba-9498-74213f1ecdee.jpg\"]","trial_type":"similarity","trial_index":50,"time_elapsed":297697,"internal_node_id":"0.0-6.0-44.0"},{"sim_score":1,"rt":2904,"stimulus":"[\"img/0898/a8f16b02-e19f-423b-86c3-a36562ae1f9b.jpg\",\"img/0868/4a8a45ed-2c4f-421b-9564-409a33ecd26c.jpg\"]","trial_type":"similarity","trial_index":51,"time_elapsed":301610,"internal_node_id":"0.0-6.0-45.0"},{"sim_score":5,"rt":3133,"stimulus":"[\"img/0901/b123d109-47b4-4f9a-80c9-9bb16da42efa.jpg\",\"img/0860/99c589b9-9140-4d17-90c0-b344323edcda.jpg\"]","trial_type":"similarity","trial_index":52,"time_elapsed":305755,"internal_node_id":"0.0-6.0-46.0"},{"sim_score":6,"rt":3583,"stimulus":"[\"img/0894/76c1201f-8524-4865-85e6-dda8cb4ac986.jpg\",\"img/0902/0db94c50-f1fb-4091-953c-29ca0466bee2.jpg\"]","trial_type":"similarity","trial_index":53,"time_elapsed":310354,"internal_node_id":"0.0-6.0-47.0"},{"sim_score":3,"rt":2964,"stimulus":"[\"img/0764/bc3865c9-9004-4582-88a7-048478673f97.jpg\",\"img/0862/5d887e9f-89e2-4ebc-80a0-6d46fe6480db.jpg\"]","trial_type":"similarity","trial_index":54,"time_elapsed":314324,"internal_node_id":"0.0-6.0-48.0"},{"sim_score":7,"rt":3334,"stimulus":"[\"img/0881/1407b85b-a1c6-45b1-9884-3b24203efadb.jpg\",\"img/0758/821c68d3-5cb0-4eae-8659-30e6263fca39.jpg\"]","trial_type":"similarity","trial_index":55,"time_elapsed":318662,"internal_node_id":"0.0-6.0-49.0"},{"sim_score":5,"rt":3501,"stimulus":"[\"img/0766/ba35c0fc-4d5b-490d-959e-c94b279cdd02.jpg\",\"img/0769/4680bcc3-8fbc-4643-8f9a-12aa0e780b64.jpg\"]","trial_type":"similarity","trial_index":56,"time_elapsed":323167,"internal_node_id":"0.0-6.0-50.0"},{"sim_score":5,"rt":3240,"stimulus":"[\"img/0875/5a1e5100-0d94-4fec-bbe9-ca9894d2cf8e.jpg\",\"img/0866/d493a2c8-66eb-44b4-be02-2f327b700b7c.jpg\"]","trial_type":"similarity","trial_index":57,"time_elapsed":327417,"internal_node_id":"0.0-6.0-51.0"},{"sim_score":7,"rt":3948,"stimulus":"[\"img/0894/a98416c0-51e2-4960-85da-d81d8688b9d5.jpg\",\"img/0904/2c98dc56-88d1-4fb5-a999-b6a7861f65f0.jpg\"]","trial_type":"similarity","trial_index":58,"time_elapsed":332369,"internal_node_id":"0.0-6.0-52.0"},{"sim_score":3,"rt":2562,"stimulus":"[\"img/0758/6e95579b-5166-487c-b8cb-e417c6a218e3.jpg\",\"img/0769/75f7e514-0548-4329-b1e4-93c05e74f038.jpg\"]","trial_type":"similarity","trial_index":59,"time_elapsed":335950,"internal_node_id":"0.0-6.0-53.0"},{"sim_score":1,"rt":3188,"stimulus":"[\"img/0902/12452bb1-b8c0-4e4d-ad4d-47e279e5933c.jpg\",\"img/0874/767f289c-9814-4496-803f-745cc8913d1f.jpg\"]","trial_type":"similarity","trial_index":60,"time_elapsed":340143,"internal_node_id":"0.0-6.0-54.0"},{"sim_score":1,"rt":2617,"stimulus":"[\"img/0903/f1fa0f8d-e62b-4b4a-a174-31a0fabfe61b.jpg\",\"img/0862/d0ca4c78-fc35-46ed-bdcc-8e124283c53e.jpg\"]","trial_type":"similarity","trial_index":61,"time_elapsed":343764,"internal_node_id":"0.0-6.0-55.0"},{"sim_score":2,"rt":3123,"stimulus":"[\"img/0866/02f5e6b9-52b7-448c-9708-5b460d0c9a23.jpg\",\"img/0894/5ff3c4f6-52e2-4075-8679-be0312e59703.jpg\"]","trial_type":"similarity","trial_index":62,"time_elapsed":347890,"internal_node_id":"0.0-6.0-56.0"},{"sim_score":2,"rt":2717,"stimulus":"[\"img/0867/de92135f-5b65-4ed9-b245-188292c7c2f8.jpg\",\"img/0904/0d25eb24-bb20-4e8d-9787-8b489558b4cb.jpg\"]","trial_type":"similarity","trial_index":63,"time_elapsed":351620,"internal_node_id":"0.0-6.0-57.0"},{"sim_score":5,"rt":2922,"stimulus":"[\"img/0875/42910c99-5463-450a-a0f8-d4d060a11455.jpg\",\"img/0881/b549bc99-a61c-4450-bab5-9efc3a197bf0.jpg\"]","trial_type":"similarity","trial_index":64,"time_elapsed":355551,"internal_node_id":"0.0-6.0-58.0"},{"sim_score":5,"rt":2765,"stimulus":"[\"img/0866/6f2a90d7-14f1-4f1b-bd64-fc0af6b9fe44.jpg\",\"img/0860/9593362c-9fe5-4d12-9735-6000a11f6aa5.jpg\"]","trial_type":"similarity","trial_index":65,"time_elapsed":359320,"internal_node_id":"0.0-6.0-59.0"},{"sim_score":1,"rt":2984,"stimulus":"[\"img/0903/2c7b4aed-6038-4aac-958a-e3e58341c313.jpg\",\"img/0866/8efcaa46-83ab-4dee-a35f-850402aa21ae.jpg\"]","trial_type":"similarity","trial_index":66,"time_elapsed":363315,"internal_node_id":"0.0-6.0-60.0"},{"sim_score":5,"rt":2941,"stimulus":"[\"img/0860/4a022222-056d-461c-ab02-39fac9647552.jpg\",\"img/0875/99698b4d-b4a1-44bc-8c83-8ea755bbbf61.jpg\"]","trial_type":"similarity","trial_index":67,"time_elapsed":367261,"internal_node_id":"0.0-6.0-61.0"},{"sim_score":2,"rt":3024,"stimulus":"[\"img/0898/79233891-305a-4a6a-8ddf-5c8604858203.jpg\",\"img/0862/fad1d7c1-8187-43c3-942a-0fc12183e48e.jpg\"]","trial_type":"similarity","trial_index":68,"time_elapsed":371290,"internal_node_id":"0.0-6.0-62.0"},{"sim_score":5,"rt":2710,"stimulus":"[\"img/0902/4e0baa32-988e-46f6-989d-f669225ab645.jpg\",\"img/0766/535849cc-ff5d-4df9-8f31-0ce94a97d571.jpg\"]","trial_type":"similarity","trial_index":69,"time_elapsed":375009,"internal_node_id":"0.0-6.0-63.0"},{"sim_score":6,"rt":3670,"stimulus":"[\"img/0758/ddc336e9-a8b6-4bb9-937a-c7e25e0e9250.jpg\",\"img/0864/c22faebd-9c53-47bc-ada3-b9a30c688e75.jpg\"]","trial_type":"similarity","trial_index":70,"time_elapsed":379697,"internal_node_id":"0.0-6.0-64.0"},{"sim_score":6,"rt":4593,"stimulus":"[\"img/0894/5c7677b0-a4f1-479e-b274-7822c415175a.jpg\",\"img/0860/fd4662f9-4c03-4d79-8593-06735e55a64b.jpg\"]","trial_type":"similarity","trial_index":71,"time_elapsed":385295,"internal_node_id":"0.0-6.0-65.0"},{"sim_score":3,"rt":3213,"stimulus":"[\"img/0899/a048912c-b12c-40e3-90af-46b69b0cc4fe.jpg\",\"img/0868/3a62db2d-97e9-44a3-b8e3-a48c6f0e423b.jpg\"]","trial_type":"similarity","trial_index":72,"time_elapsed":389510,"internal_node_id":"0.0-6.0-66.0"},{"sim_score":5,"rt":2521,"stimulus":"[\"img/0866/23a224f3-2012-4fc8-8e0f-3c36f8de27fd.jpg\",\"img/0862/eefa5588-9efd-4591-aa5f-a2e17c7d7bcc.jpg\"]","trial_type":"similarity","trial_index":73,"time_elapsed":393034,"internal_node_id":"0.0-6.0-67.0"},{"sim_score":6,"rt":2966,"stimulus":"[\"img/0860/c5ccd1a4-4bb7-48e1-9b25-72cfaf06909b.jpg\",\"img/0758/a709631e-3705-4725-ac40-f0d916924f08.jpg\"]","trial_type":"similarity","trial_index":74,"time_elapsed":397005,"internal_node_id":"0.0-6.0-68.0"},{"sim_score":2,"rt":2598,"stimulus":"[\"img/0902/b03fee99-d5ca-4bf8-871c-a4a743a39842.jpg\",\"img/0867/f8159067-056c-41f1-a136-c529fe5e970a.jpg\"]","trial_type":"similarity","trial_index":75,"time_elapsed":400607,"internal_node_id":"0.0-6.0-69.0"},{"sim_score":1,"rt":3074,"stimulus":"[\"img/0862/f43ceabf-acc1-4107-b857-5d1849808f93.jpg\",\"img/0901/c6c877e0-dd63-4e00-9657-33af29d55aab.jpg\"]","trial_type":"similarity","trial_index":76,"time_elapsed":404693,"internal_node_id":"0.0-6.0-70.0"},{"sim_score":7,"rt":2820,"stimulus":"[\"img/0867/98d8cd96-1476-4fe0-a3a3-04f875500a1b.jpg\",\"img/0866/a15b02be-11bb-43e3-b0e0-ecc3bd7dfc49.jpg\"]","trial_type":"similarity","trial_index":77,"time_elapsed":408517,"internal_node_id":"0.0-6.0-71.0"},{"sim_score":3,"rt":3001,"stimulus":"[\"img/0860/61fb959d-d4d9-4de4-9e4e-4fa62b4cfcd5.jpg\",\"img/0904/9dd5708f-3f8b-46a9-b49f-2f2fab87b357.jpg\"]","trial_type":"similarity","trial_index":78,"time_elapsed":412534,"internal_node_id":"0.0-6.0-72.0"},{"sim_score":1,"rt":2955,"stimulus":"[\"img/0875/5a716432-c6ca-4b1c-955a-2b8ac25198ee.jpg\",\"img/0899/0433d056-aa30-4f8a-9aa1-abbb951e4edd.jpg\"]","trial_type":"similarity","trial_index":79,"time_elapsed":416495,"internal_node_id":"0.0-6.0-73.0"},{"sim_score":1,"rt":2869,"stimulus":"[\"img/0899/7b7380d5-d2be-44e5-a09a-c1756f87ef71.jpg\",\"img/0758/20497cbe-ddae-489e-86e2-ab06985ed07c.jpg\"]","trial_type":"similarity","trial_index":80,"time_elapsed":420369,"internal_node_id":"0.0-6.0-74.0"},{"sim_score":5,"rt":4157,"stimulus":"[\"img/0862/4f0a3b4c-afbf-486e-b248-1d54982f54b4.jpg\",\"img/0875/cff79b3a-a797-4393-9757-6275f999ec04.jpg\"]","trial_type":"similarity","trial_index":81,"time_elapsed":429139,"internal_node_id":"0.0-6.0-75.0"},{"sim_score":3,"rt":3158,"stimulus":"[\"img/0901/443f2e59-199b-4f7b-9de9-c44ad97326a5.jpg\",\"img/0894/c505c65a-cde2-4f2c-8cde-f8676f7c894d.jpg\"]","trial_type":"similarity","trial_index":82,"time_elapsed":433312,"internal_node_id":"0.0-6.0-76.0"},{"sim_score":2,"rt":3044,"stimulus":"[\"img/0766/33aa9ebb-c9f5-418f-8c8b-c77861889568.jpg\",\"img/0758/3ddd05d3-557e-4ee7-8b78-9d2d681d8ae2.jpg\"]","trial_type":"similarity","trial_index":83,"time_elapsed":437361,"internal_node_id":"0.0-6.0-77.0"},{"sim_score":5,"rt":3224,"stimulus":"[\"img/0894/8cadb87a-7001-4e47-99fb-1867bebf1668.jpg\",\"img/0764/6fbd1902-fa2a-48d8-bc11-705b8ab68d8f.jpg\"]","trial_type":"similarity","trial_index":84,"time_elapsed":441590,"internal_node_id":"0.0-6.0-78.0"},{"sim_score":5,"rt":2577,"stimulus":"[\"img/0860/8a92e21b-6a32-4e4a-a445-2d5a487ed0a4.jpg\",\"img/0867/6e19c858-b606-45b2-a4c6-910a73f1d82c.jpg\"]","trial_type":"similarity","trial_index":85,"time_elapsed":445172,"internal_node_id":"0.0-6.0-79.0"},{"sim_score":5,"rt":3260,"stimulus":"[\"img/0898/b3290bf9-215b-4b45-b21a-65bdf73f142f.jpg\",\"img/0901/4d1bed7e-3c4e-4f6c-ada9-4beb66ba9e39.jpg\"]","trial_type":"similarity","trial_index":86,"time_elapsed":449451,"internal_node_id":"0.0-6.0-80.0"},{"sim_score":3,"rt":3072,"stimulus":"[\"img/0874/8cdb1c07-1c32-46d2-981c-3636560fa6e5.jpg\",\"img/0764/b887d7c6-aa81-4637-af8e-05135757ac59.jpg\"]","trial_type":"similarity","trial_index":87,"time_elapsed":453538,"internal_node_id":"0.0-6.0-81.0"},{"sim_score":1,"rt":3130,"stimulus":"[\"img/0899/a05bea16-2bb4-4cb9-b8fb-4ff975db6971.jpg\",\"img/0862/cdaed51d-9e2f-4807-801a-4663c40077e2.jpg\"]","trial_type":"similarity","trial_index":88,"time_elapsed":457674,"internal_node_id":"0.0-6.0-82.0"},{"sim_score":5,"rt":3137,"stimulus":"[\"img/0766/6d32752d-aa05-40dc-9541-640b6e9d6fa1.jpg\",\"img/0901/fb0a8e69-7f19-4e6e-a6bb-a48f97f9b4f3.jpg\"]","trial_type":"similarity","trial_index":89,"time_elapsed":461829,"internal_node_id":"0.0-6.0-83.0"},{"sim_score":3,"rt":2976,"stimulus":"[\"img/0881/20af39f5-373d-4a55-a437-2dc4c0382c46.jpg\",\"img/0898/08c72dac-f8ad-407a-9ce6-8c9a5d679c3a.jpg\"]","trial_type":"similarity","trial_index":90,"time_elapsed":465819,"internal_node_id":"0.0-6.0-84.0"},{"sim_score":5,"rt":2513,"stimulus":"[\"img/0868/1a62b2b2-18f5-466e-b564-5176a57c565e.jpg\",\"img/0860/c3379ff7-0763-48fe-a1ec-7ea3d611bc7a.jpg\"]","trial_type":"similarity","trial_index":91,"time_elapsed":469335,"internal_node_id":"0.0-6.0-85.0"},{"sim_score":6,"rt":2816,"stimulus":"[\"img/0758/e1ba5e53-addc-436a-b428-d34fc1b130dc.jpg\",\"img/0868/4bd5105a-d2c3-4f82-8c80-57196106ba53.jpg\"]","trial_type":"similarity","trial_index":92,"time_elapsed":473154,"internal_node_id":"0.0-6.0-86.0"},{"sim_score":3,"rt":3211,"stimulus":"[\"img/0864/ef9cbca0-4be8-435d-ad49-977259e80409.jpg\",\"img/0894/a3d4170b-b7d8-40e3-955f-87e76ed745fc.jpg\"]","trial_type":"similarity","trial_index":93,"time_elapsed":477386,"internal_node_id":"0.0-6.0-87.0"},{"sim_score":3,"rt":2090,"stimulus":"[\"img/0866/be24ab58-230e-4db8-9f45-ff04c9aec6bb.jpg\",\"img/0902/c920f0e1-1c81-480f-a164-c77f2dc6ce9a.jpg\"]","trial_type":"similarity","trial_index":94,"time_elapsed":480495,"internal_node_id":"0.0-6.0-88.0"},{"sim_score":2,"rt":2662,"stimulus":"[\"img/0769/387a9744-d6a7-42b8-bab8-33007ec434aa.jpg\",\"img/0867/aa05d113-fc19-4756-a8eb-7878f580bc92.jpg\"]","trial_type":"similarity","trial_index":95,"time_elapsed":484166,"internal_node_id":"0.0-6.0-89.0"},{"sim_score":5,"rt":2848,"stimulus":"[\"img/0874/c0378dac-9370-439a-8b79-db27c96fb390.jpg\",\"img/0875/3ecb367d-e9eb-4826-8aaa-7aa72fb98019.jpg\"]","trial_type":"similarity","trial_index":96,"time_elapsed":488032,"internal_node_id":"0.0-6.0-90.0"},{"sim_score":7,"rt":3143,"stimulus":"[\"img/0864/e02eddb5-f468-499c-91bf-f7be3ffe979b.jpg\",\"img/0874/7e4f2150-3b59-4a36-b5da-a4e0ba410531.jpg\"]","trial_type":"similarity","trial_index":97,"time_elapsed":492187,"internal_node_id":"0.0-6.0-91.0"},{"sim_score":5,"rt":2680,"stimulus":"[\"img/0881/f62bdcd1-a4b7-4d48-83da-d9c9e01c8727.jpg\",\"img/0862/e8cc3bdf-cc43-4565-bccf-492626c70953.jpg\"]","trial_type":"similarity","trial_index":98,"time_elapsed":495878,"internal_node_id":"0.0-6.0-92.0"},{"sim_score":6,"rt":4054,"stimulus":"[\"img/0864/3d4de670-b290-4285-9c3d-12a0e3af44e9.jpg\",\"img/0881/84397291-bc14-4fbf-90e8-241e486ab0fe.jpg\"]","trial_type":"similarity","trial_index":99,"time_elapsed":500944,"internal_node_id":"0.0-6.0-93.0"},{"sim_score":5,"rt":2584,"stimulus":"[\"img/0899/00715b3f-851b-420b-a26b-d7f79f7759a9.jpg\",\"img/0901/8bb79e82-9c43-4b6f-a655-40655519598b.jpg\"]","trial_type":"similarity","trial_index":100,"time_elapsed":504548,"internal_node_id":"0.0-6.0-94.0"},{"sim_score":3,"rt":2652,"stimulus":"[\"img/0874/995f0332-0439-4eb4-add3-957335dbf6d9.jpg\",\"img/0766/af3be95e-e52e-4fae-899b-0ff02ec340aa.jpg\"]","trial_type":"similarity","trial_index":101,"time_elapsed":508209,"internal_node_id":"0.0-6.0-95.0"},{"sim_score":2,"rt":3824,"stimulus":"[\"img/0881/db77fe00-aeb0-4d1d-aa66-f3a96fd077e4.jpg\",\"img/0899/7f9d45d0-b2c6-40d3-aa41-c207db2c411b.jpg\"]","trial_type":"similarity","trial_index":102,"time_elapsed":513043,"internal_node_id":"0.0-6.0-96.0"},{"sim_score":7,"rt":5872,"stimulus":"[\"img/0862/7918ca67-5bd3-4606-a5ea-c39fb11a9297.jpg\",\"img/0902/3b243e54-0803-4c29-af42-4037c2118495.jpg\"]","trial_type":"similarity","trial_index":103,"time_elapsed":519921,"internal_node_id":"0.0-6.0-97.0"},{"sim_score":6,"rt":2821,"stimulus":"[\"img/0899/b45c550b-96c3-4255-ad59-48a2b4db1c1e.jpg\",\"img/0764/f713847b-4832-42d1-8fb3-e17e37fd745c.jpg\"]","trial_type":"similarity","trial_index":104,"time_elapsed":523748,"internal_node_id":"0.0-6.0-98.0"},{"sim_score":5,"rt":3138,"stimulus":"[\"img/0758/eabcd7a8-56ad-4fd2-bc24-90f6b7b33265.jpg\",\"img/0862/064818ee-13d5-4618-bb24-21c7368ea278.jpg\"]","trial_type":"similarity","trial_index":105,"time_elapsed":527903,"internal_node_id":"0.0-6.0-99.0"},{"sim_score":6,"rt":2779,"stimulus":"[\"img/0764/e48e6c6f-9e28-420f-836a-8043b2319bb4.jpg\",\"img/0898/5f699581-3853-4547-856c-12f419ba5af7.jpg\"]","trial_type":"similarity","trial_index":106,"time_elapsed":531692,"internal_node_id":"0.0-6.0-100.0"},{"sim_score":6,"rt":2679,"stimulus":"[\"img/0901/00acf6c1-b66e-4060-bb04-4caf29b5a8b0.jpg\",\"img/0902/07437a16-3d0f-4a5c-89ec-36d0efa4b3b8.jpg\"]","trial_type":"similarity","trial_index":107,"time_elapsed":535380,"internal_node_id":"0.0-6.0-101.0"},{"sim_score":3,"rt":3336,"stimulus":"[\"img/0764/ca9829fe-aaf8-45b8-b98a-6bae751c63dd.jpg\",\"img/0868/fd307a36-9a3a-47d7-ab7c-f810d0b35040.jpg\"]","trial_type":"similarity","trial_index":108,"time_elapsed":539729,"internal_node_id":"0.0-6.0-102.0"},{"sim_score":2,"rt":2906,"stimulus":"[\"img/0769/878531fd-e0e8-4ad1-b9ad-f018bb104ca0.jpg\",\"img/0881/44e09805-5a25-4f17-a716-4ad4a331b174.jpg\"]","trial_type":"similarity","trial_index":109,"time_elapsed":543643,"internal_node_id":"0.0-6.0-103.0"},{"sim_score":3,"rt":3203,"stimulus":"[\"img/0864/1ebbc554-99fa-49f9-8799-317375a79820.jpg\",\"img/0769/458d9c77-b844-40b5-bb1b-1e3bbd4da64e.jpg\"]","trial_type":"similarity","trial_index":110,"time_elapsed":547854,"internal_node_id":"0.0-6.0-104.0"},{"sim_score":7,"rt":3044,"stimulus":"[\"img/0866/bf14b5bd-fb55-47db-86b9-4f8aeb9a6dad.jpg\",\"img/0868/15dd6fd7-791e-4b53-b203-195d617521a4.jpg\"]","trial_type":"similarity","trial_index":111,"time_elapsed":551903,"internal_node_id":"0.0-6.0-105.0"},{"sim_score":5,"rt":3725,"stimulus":"[\"img/0868/09a9ef4d-d000-4cfa-a6aa-ebec7c2edeb4.jpg\",\"img/0862/e0f1a4e9-e1b6-45f7-af67-89f334e6630d.jpg\"]","trial_type":"similarity","trial_index":112,"time_elapsed":556632,"internal_node_id":"0.0-6.0-106.0"},{"sim_score":5,"rt":2797,"stimulus":"[\"img/0766/2da002a4-05c9-4f5c-9ed7-433b4183e273.jpg\",\"img/0898/e167334e-cc1d-4986-b3b1-c7bc7da64baa.jpg\"]","trial_type":"similarity","trial_index":113,"time_elapsed":560439,"internal_node_id":"0.0-6.0-107.0"},{"sim_score":3,"rt":2631,"stimulus":"[\"img/0898/82231d4c-218b-4d0a-b50d-35a49b524e97.jpg\",\"img/0864/b3c4e378-28f0-4699-9338-2a257b4bca04.jpg\"]","trial_type":"similarity","trial_index":114,"time_elapsed":564079,"internal_node_id":"0.0-6.0-108.0"},{"sim_score":2,"rt":2801,"stimulus":"[\"img/0868/293079b8-7e0c-4afd-a390-1e5d35fe3ded.jpg\",\"img/0902/af45fe42-178c-4c1a-99ef-256e87e3b092.jpg\"]","trial_type":"similarity","trial_index":115,"time_elapsed":567886,"internal_node_id":"0.0-6.0-109.0"},{"sim_score":5,"rt":2607,"stimulus":"[\"img/0904/60d1a521-edf7-4696-9263-f21ac0e62a01.jpg\",\"img/0764/978aede9-4590-4ad0-b234-135c83e5d669.jpg\"]","trial_type":"similarity","trial_index":116,"time_elapsed":571501,"internal_node_id":"0.0-6.0-110.0"},{"sim_score":3,"rt":2451,"stimulus":"[\"img/0894/05161000-f476-499b-a878-c13c7f347fd9.jpg\",\"img/0875/ebf7653f-ff45-4e9f-af58-2c042ab3cd2b.jpg\"]","trial_type":"similarity","trial_index":117,"time_elapsed":574958,"internal_node_id":"0.0-6.0-111.0"},{"sim_score":2,"rt":3260,"stimulus":"[\"img/0868/d98ca254-b195-477f-b57e-5760a2717db8.jpg\",\"img/0874/ca23d307-fc00-4d7d-9106-584c6eb21b4d.jpg\"]","trial_type":"similarity","trial_index":118,"time_elapsed":579231,"internal_node_id":"0.0-6.0-112.0"},{"sim_score":5,"rt":3640,"stimulus":"[\"img/0904/24fc38fe-842c-4831-ad8a-b1de5c25c0a8.jpg\",\"img/0898/26c41340-15bd-4ead-8fe4-c0d0ddca09c2.jpg\"]","trial_type":"similarity","trial_index":119,"time_elapsed":588742,"internal_node_id":"0.0-6.0-113.0"},{"sim_score":3,"rt":3223,"stimulus":"[\"img/0860/31ff6436-98bf-4652-bed2-40f627229568.jpg\",\"img/0766/a754e4b6-5019-4cf4-8f58-34c20547a1f5.jpg\"]","trial_type":"similarity","trial_index":120,"time_elapsed":592975,"internal_node_id":"0.0-6.0-114.0"},{"sim_score":2,"rt":3128,"stimulus":"[\"img/0894/b2d2f66e-e480-46da-a02a-6d0c6b285d78.jpg\",\"img/0874/a82926a3-0b43-4add-803c-d5f9ea7798ee.jpg\"]","trial_type":"similarity","trial_index":121,"time_elapsed":597110,"internal_node_id":"0.0-6.0-115.0"},{"sim_score":5,"rt":4279,"stimulus":"[\"img/0899/fef567a2-c121-4481-9af0-ff108d199bbf.jpg\",\"img/0903/36e4ab1f-caa9-40b3-8616-faada076df94.jpg\"]","trial_type":"similarity","trial_index":122,"time_elapsed":602398,"internal_node_id":"0.0-6.0-116.0"},{"sim_score":2,"rt":3196,"stimulus":"[\"img/0881/33d65d80-8a8e-4ecf-852d-0ad7725c17a2.jpg\",\"img/0764/4bec8d92-75aa-475a-954d-8215dbe538f5.jpg\"]","trial_type":"similarity","trial_index":123,"time_elapsed":606613,"internal_node_id":"0.0-6.0-117.0"},{"sim_score":5,"rt":2948,"stimulus":"[\"img/0903/e2e55a9e-0397-4dc0-8adf-4a54cfefe1fe.jpg\",\"img/0769/a3cfbdeb-acb3-4eac-87fb-4b117f42d4f8.jpg\"]","trial_type":"similarity","trial_index":124,"time_elapsed":610565,"internal_node_id":"0.0-6.0-118.0"},{"sim_score":5,"rt":2333,"stimulus":"[\"img/0901/7c16dd9c-44ad-4d5b-990c-6a0b9b48b1b1.jpg\",\"img/0904/25365108-e038-4021-aac9-797f2063b337.jpg\"]","trial_type":"similarity","trial_index":125,"time_elapsed":613907,"internal_node_id":"0.0-6.0-119.0"},{"sim_score":5,"rt":4227,"stimulus":"[\"img/0860/29a21a9f-54bb-4093-ad3f-04823ceaa89f.jpg\",\"img/0881/14236cf2-6b95-48b8-9368-78af09d2d27f.jpg\"]","trial_type":"similarity","trial_index":126,"time_elapsed":619138,"internal_node_id":"0.0-6.0-120.0"},{"sim_score":5,"rt":2692,"stimulus":"[\"img/0758/f61ecdf8-a7d4-4db0-b84d-be46f7cfaffc.jpg\",\"img/0874/adf9a8f1-c40b-402b-b95b-1e85a54a7b62.jpg\"]","trial_type":"similarity","trial_index":127,"time_elapsed":622850,"internal_node_id":"0.0-6.0-121.0"},{"sim_score":5,"rt":3734,"stimulus":"[\"img/0901/f469cb1d-6d81-4a45-bab5-cd0b650c2b4f.jpg\",\"img/0769/91acb237-65a3-4d0b-9748-af5c7b83d3c7.jpg\"]","trial_type":"similarity","trial_index":128,"time_elapsed":627596,"internal_node_id":"0.0-6.0-122.0"},{"sim_score":5,"rt":3156,"stimulus":"[\"img/0902/22ed3536-288b-452e-9777-0fa0ab94deb0.jpg\",\"img/0904/06dacdc5-2206-4fb8-92b7-88042d22833c.jpg\"]","trial_type":"similarity","trial_index":129,"time_elapsed":631772,"internal_node_id":"0.0-6.0-123.0"},{"sim_score":3,"rt":2183,"stimulus":"[\"img/0899/0e1d936a-dbe2-4afc-9f19-7b7a1ae6c9ed.jpg\",\"img/0864/300bb811-8b3c-4c42-8653-6097c3725197.jpg\"]","trial_type":"similarity","trial_index":130,"time_elapsed":634968,"internal_node_id":"0.0-6.0-124.0"},{"sim_score":1,"rt":2611,"stimulus":"[\"img/0766/1bc0dccc-a5b5-4375-87fa-28360ca42b12.jpg\",\"img/0868/c8ac40c7-6904-4e13-8d61-c75d3052dc4e.jpg\"]","trial_type":"similarity","trial_index":131,"time_elapsed":638593,"internal_node_id":"0.0-6.0-125.0"},{"sim_score":2,"rt":3159,"stimulus":"[\"img/0764/5d6fa3ce-9083-410c-bbdb-336a49b94cfc.jpg\",\"img/0864/e336a4c5-6648-4fd7-b2f6-93a3fb83f8c6.jpg\"]","trial_type":"similarity","trial_index":132,"time_elapsed":642767,"internal_node_id":"0.0-6.0-126.0"},{"sim_score":3,"rt":2809,"stimulus":"[\"img/0899/1b3457ea-87d4-4946-a01c-aac1863ed46c.jpg\",\"img/0866/f756f7d1-9ad8-4a34-9ef6-7a443d705bfe.jpg\"]","trial_type":"similarity","trial_index":133,"time_elapsed":646593,"internal_node_id":"0.0-6.0-127.0"},{"sim_score":1,"rt":2472,"stimulus":"[\"img/0901/a6c90438-fa7c-4418-ac7c-16c2e772dd98.jpg\",\"img/0881/dea58fad-b4f1-41d9-bd3f-916eff19a3fd.jpg\"]","trial_type":"similarity","trial_index":134,"time_elapsed":650082,"internal_node_id":"0.0-6.0-128.0"},{"sim_score":4,"rt":3752,"stimulus":"[\"img/0898/661621d4-a14e-487c-8c74-354134a29710.jpg\",\"img/0903/3e9ee8a5-eb66-47f5-8973-8a5af1ddc87e.jpg\"]","trial_type":"similarity","trial_index":135,"time_elapsed":654839,"internal_node_id":"0.0-6.0-129.0"},{"sim_score":3,"rt":2892,"stimulus":"[\"img/0894/0130a973-d993-41f8-874a-fee23d9ac11f.jpg\",\"img/0867/cc72ed48-7704-422c-86d6-467a1145287a.jpg\"]","trial_type":"similarity","trial_index":136,"time_elapsed":658752,"internal_node_id":"0.0-6.0-130.0"},{"sim_score":2,"rt":2852,"stimulus":"[\"img/0874/93d1f8dc-acf2-4f03-bd8d-8ec35df276ed.jpg\",\"img/0903/45e2d600-57ff-4d69-b22c-0c7896cd38f0.jpg\"]","trial_type":"similarity","trial_index":137,"time_elapsed":662618,"internal_node_id":"0.0-6.0-131.0"},{"sim_score":7,"rt":3025,"stimulus":"[\"img/0899/8de08897-b430-42fe-9d42-840670b80f94.jpg\",\"img/0898/993d8f2d-bef7-4251-a193-0f93a32b7763.jpg\"]","trial_type":"similarity","trial_index":138,"time_elapsed":666657,"internal_node_id":"0.0-6.0-132.0"},{"sim_score":3,"rt":2858,"stimulus":"[\"img/0867/1719a35d-f085-48c0-9099-16c94fe418b4.jpg\",\"img/0764/ec2dd087-c471-4370-b570-95a542506a96.jpg\"]","trial_type":"similarity","trial_index":139,"time_elapsed":670523,"internal_node_id":"0.0-6.0-133.0"},{"sim_score":3,"rt":2840,"stimulus":"[\"img/0866/0207e9a2-7dbb-40b5-9459-b472aaeceb2a.jpg\",\"img/0769/3c1efec9-f8fd-487d-8955-4be88e48c832.jpg\"]","trial_type":"similarity","trial_index":140,"time_elapsed":674369,"internal_node_id":"0.0-6.0-134.0"},{"sim_score":2,"rt":2693,"stimulus":"[\"img/0860/f44ba3fb-03a2-42f0-8509-2c1ded493086.jpg\",\"img/0898/0c7dde4f-efce-4b7a-9387-6921635b7890.jpg\"]","trial_type":"similarity","trial_index":141,"time_elapsed":678080,"internal_node_id":"0.0-6.0-135.0"},{"sim_score":1,"rt":2224,"stimulus":"[\"img/0881/c24f3051-eefa-42de-aba6-fccb56d93c70.jpg\",\"img/0903/470acfd5-5571-4a7b-b3a4-28d87e098138.jpg\"]","trial_type":"similarity","trial_index":142,"time_elapsed":681316,"internal_node_id":"0.0-6.0-136.0"},{"sim_score":6,"rt":3091,"stimulus":"[\"img/0894/4739e06d-c31e-4bf1-bf91-c97fa9afb456.jpg\",\"img/0766/e8052e17-9dae-4139-802b-6e590cb2d526.jpg\"]","trial_type":"similarity","trial_index":143,"time_elapsed":685412,"internal_node_id":"0.0-6.0-137.0"},{"sim_score":2,"rt":2821,"stimulus":"[\"img/0860/d9a0d117-6d1d-41c0-8fec-9aff0fd9e9f2.jpg\",\"img/0764/8740679b-b56f-4292-aece-14063457113a.jpg\"]","trial_type":"similarity","trial_index":144,"time_elapsed":689238,"internal_node_id":"0.0-6.0-138.0"},{"sim_score":6,"rt":3994,"stimulus":"[\"img/0769/8598a429-c671-4d2f-842c-32f681f5e412.jpg\",\"img/0902/24d10fe7-314f-4d5a-8c7b-b43121bba0a4.jpg\"]","trial_type":"similarity","trial_index":145,"time_elapsed":694248,"internal_node_id":"0.0-6.0-139.0"},{"sim_score":7,"rt":2678,"stimulus":"[\"img/0904/2f88ce53-02d0-4f95-a082-182c56a0eeb4.jpg\",\"img/0903/4cbdc464-e562-4ec2-9bb6-15f894fdf528.jpg\"]","trial_type":"similarity","trial_index":146,"time_elapsed":697930,"internal_node_id":"0.0-6.0-140.0"},{"sim_score":5,"rt":2665,"stimulus":"[\"img/0764/f64dfa83-333d-494c-87b5-73e942f1766e.jpg\",\"img/0769/6c0bac4c-5f59-43c7-898c-3ca93cf55cfe.jpg\"]","trial_type":"similarity","trial_index":147,"time_elapsed":701601,"internal_node_id":"0.0-6.0-141.0"},{"sim_score":3,"rt":2375,"stimulus":"[\"img/0902/168ebd47-9e82-4ab7-a18b-c3da85072db8.jpg\",\"img/0881/0c7068da-d0d9-4103-bda1-74ef7a2b32c3.jpg\"]","trial_type":"similarity","trial_index":148,"time_elapsed":704982,"internal_node_id":"0.0-6.0-142.0"},{"sim_score":1,"rt":2480,"stimulus":"[\"img/0866/93a27239-8317-4e08-98ca-d8b1ff298e07.jpg\",\"img/0864/49150900-7f25-4ce8-8d10-9b47a71d1997.jpg\"]","trial_type":"similarity","trial_index":149,"time_elapsed":708480,"internal_node_id":"0.0-6.0-143.0"},{"sim_score":5,"rt":3114,"stimulus":"[\"img/0902/a323b62d-2fd5-4ac8-acc6-35b768f3c3f2.jpg\",\"img/0898/68476bbb-34a1-42d9-8bc1-deab783d4489.jpg\"]","trial_type":"similarity","trial_index":150,"time_elapsed":712597,"internal_node_id":"0.0-6.0-144.0"},{"sim_score":5,"rt":3672,"stimulus":"[\"img/0862/f23038d4-c366-4f70-979f-66b62362efa4.jpg\",\"img/0864/e8bd659f-aa43-4748-877e-3118e8b4e189.jpg\"]","trial_type":"similarity","trial_index":151,"time_elapsed":717277,"internal_node_id":"0.0-6.0-145.0"},{"sim_score":3,"rt":3279,"stimulus":"[\"img/0875/34132396-d896-4c2d-8087-646dd867e769.jpg\",\"img/0898/8605a25b-6895-476d-8c13-df7a83f96093.jpg\"]","trial_type":"similarity","trial_index":152,"time_elapsed":721561,"internal_node_id":"0.0-6.0-146.0"},{"sim_score":7,"rt":2264,"stimulus":"[\"img/0874/3ce41e7c-40c8-4d58-a546-171114521796.jpg\",\"img/0881/633c6f40-56d9-4b48-bf1c-ecd83116eabb.jpg\"]","trial_type":"similarity","trial_index":153,"time_elapsed":724838,"internal_node_id":"0.0-6.0-147.0"},{"sim_score":3,"rt":2675,"stimulus":"[\"img/0758/67c0be2f-9e91-48b3-8219-70ac0a1802fa.jpg\",\"img/0894/792c83e9-a747-4000-bc72-5663d2439edb.jpg\"]","trial_type":"similarity","trial_index":154,"time_elapsed":728530,"internal_node_id":"0.0-6.0-148.0"},{"sim_score":1,"rt":2522,"stimulus":"[\"img/0904/0d17b811-063e-416e-a23c-3b3cfa4fcce5.jpg\",\"img/0864/65210d57-1153-4657-886a-32e758f49b4a.jpg\"]","trial_type":"similarity","trial_index":155,"time_elapsed":732058,"internal_node_id":"0.0-6.0-149.0"},{"sim_score":5,"rt":4701,"stimulus":"[\"img/0769/c7cfacc3-7f07-46ff-9f5d-8073f4c4679b.jpg\",\"img/0899/93494f3b-d539-4075-b027-d82e344563da.jpg\"]","trial_type":"similarity","trial_index":156,"time_elapsed":737776,"internal_node_id":"0.0-6.0-150.0"},{"sim_score":5,"rt":2775,"stimulus":"[\"img/0764/b8e23f4f-ff19-4472-ad9b-2f85548ebca0.jpg\",\"img/0903/14f179a2-8786-48a2-8377-88d1d404341b.jpg\"]","trial_type":"similarity","trial_index":157,"time_elapsed":743386,"internal_node_id":"0.0-6.0-151.0"},{"sim_score":1,"rt":3662,"stimulus":"[\"img/0903/0a92ec52-4e87-410a-857a-4455cde56a70.jpg\",\"img/0864/8ddd2e30-a1d0-479f-9cbe-591213023893.jpg\"]","trial_type":"similarity","trial_index":158,"time_elapsed":748067,"internal_node_id":"0.0-6.0-152.0"},{"sim_score":2,"rt":3737,"stimulus":"[\"img/0894/7fb082e0-ce79-485c-9109-04367fb32275.jpg\",\"img/0881/adc02f34-ce97-4aef-850f-00519df06fd7.jpg\"]","trial_type":"similarity","trial_index":159,"time_elapsed":752816,"internal_node_id":"0.0-6.0-153.0"},{"sim_score":5,"rt":2356,"stimulus":"[\"img/0875/03c3c331-738b-4446-af92-3d7386b08c2e.jpg\",\"img/0867/2e1a0b58-cdb1-4107-a14e-452530d7b9b0.jpg\"]","trial_type":"similarity","trial_index":160,"time_elapsed":756179,"internal_node_id":"0.0-6.0-154.0"},{"sim_score":4,"rt":4131,"stimulus":"[\"img/0867/50a1b60e-3a29-44bf-b606-d4bd3746fea9.jpg\",\"img/0758/6cd8c362-ae2a-41eb-80a3-3a4f7ace1530.jpg\"]","trial_type":"similarity","trial_index":161,"time_elapsed":761323,"internal_node_id":"0.0-6.0-155.0"},{"sim_score":1,"rt":5172,"stimulus":"[\"img/0868/e0aff734-077f-40dd-9781-74821abd3621.jpg\",\"img/0901/3db47171-0139-4235-82cd-0b1787b6775f.jpg\"]","trial_type":"similarity","trial_index":162,"time_elapsed":767499,"internal_node_id":"0.0-6.0-156.0"},{"sim_score":7,"rt":4336,"stimulus":"[\"img/0769/c34b7763-8ff2-46d5-9e92-f1d8f3bedbd8.jpg\",\"img/0894/9b1333fd-3561-43bf-aee5-99b7b7ca3dc3.jpg\"]","trial_type":"similarity","trial_index":163,"time_elapsed":772838,"internal_node_id":"0.0-6.0-157.0"},{"sim_score":3,"rt":2590,"stimulus":"[\"img/0904/63dd06dd-dccb-47ba-9740-eb33239e18a7.jpg\",\"img/0758/7ffbc76b-1fc1-432c-8f7e-9ec8d1b3f643.jpg\"]","trial_type":"similarity","trial_index":164,"time_elapsed":776443,"internal_node_id":"0.0-6.0-158.0"},{"sim_score":2,"rt":3136,"stimulus":"[\"img/0874/85eb9b8a-c4c6-4e5a-b8e7-363a87a82054.jpg\",\"img/0904/96e503ea-6630-4996-85f2-0237688ce441.jpg\"]","trial_type":"similarity","trial_index":165,"time_elapsed":780582,"internal_node_id":"0.0-6.0-159.0"},{"sim_score":1,"rt":2995,"stimulus":"[\"img/0864/5f33e097-23e3-4002-882d-76e8cb15f451.jpg\",\"img/0901/58ec7fa9-b466-4651-90aa-c082df0972de.jpg\"]","trial_type":"similarity","trial_index":166,"time_elapsed":784593,"internal_node_id":"0.0-6.0-160.0"},{"sim_score":3,"rt":3124,"stimulus":"[\"img/0898/0af304a2-6a7a-4082-ab7c-4450cd08cc58.jpg\",\"img/0866/a04d37f0-99dd-478a-b6c6-58b215138f84.jpg\"]","trial_type":"similarity","trial_index":167,"time_elapsed":788730,"internal_node_id":"0.0-6.0-161.0"},{"sim_score":5,"rt":4872,"stimulus":"[\"img/0766/33519c22-aaa4-49d7-8d49-ab551db1945e.jpg\",\"img/0903/97a42b34-5462-4665-88c7-83c014b33d24.jpg\"]","trial_type":"similarity","trial_index":168,"time_elapsed":794614,"internal_node_id":"0.0-6.0-162.0"},{"sim_score":2,"rt":2633,"stimulus":"[\"img/0860/71e1aad0-2cdf-43bb-94a4-a8c016997c30.jpg\",\"img/0899/76ad07e2-ca25-45eb-84f2-8d80b8ca3e26.jpg\"]","trial_type":"similarity","trial_index":169,"time_elapsed":798259,"internal_node_id":"0.0-6.0-163.0"},{"sim_score":2,"rt":3028,"stimulus":"[\"img/0766/0bf3793e-c353-45e5-ac6f-753f5f484e10.jpg\",\"img/0862/f188d4f0-76a4-4102-818c-a209969d73a5.jpg\"]","trial_type":"similarity","trial_index":170,"time_elapsed":802298,"internal_node_id":"0.0-6.0-164.0"},{"sim_score":6,"rt":3881,"stimulus":"[\"img/0898/f3a3f225-1248-4ac7-b93b-f0ff28485bf3.jpg\",\"img/0894/e5edf723-72a5-4673-8441-6c1734a8929b.jpg\"]","trial_type":"similarity","trial_index":171,"time_elapsed":807183,"internal_node_id":"0.0-6.0-165.0"},{"sim_score":2,"rt":2898,"stimulus":"[\"img/0867/a749dddb-69f0-44a6-acdc-2bf295cf6dcc.jpg\",\"img/0766/aaec5f42-7f0a-4a16-aeca-488d757acbcc.jpg\"]","trial_type":"similarity","trial_index":172,"time_elapsed":811099,"internal_node_id":"0.0-6.0-166.0"},{"sim_score":3,"rt":2614,"stimulus":"[\"img/0904/d23dd7be-7fe8-4435-82f7-bd592c01e6a1.jpg\",\"img/0862/ee3b7bff-4a70-4e84-9bea-4a565e456acb.jpg\"]","trial_type":"similarity","trial_index":173,"time_elapsed":814724,"internal_node_id":"0.0-6.0-167.0"},{"sim_score":5,"rt":3572,"stimulus":"[\"img/0866/11a1d141-be5e-443c-98c1-a9d4d9e3dec0.jpg\",\"img/0874/eba003b4-cdab-4eee-8bc3-f064c7d94165.jpg\"]","trial_type":"similarity","trial_index":174,"time_elapsed":819309,"internal_node_id":"0.0-6.0-168.0"},{"sim_score":2,"rt":3291,"stimulus":"[\"img/0903/005ad0de-4f52-433c-b515-dbe8d46184a3.jpg\",\"img/0868/6a28c3b0-3d76-498a-9fb7-ddafc665eca8.jpg\"]","trial_type":"similarity","trial_index":175,"time_elapsed":823602,"internal_node_id":"0.0-6.0-169.0"},{"sim_score":5,"rt":2474,"stimulus":"[\"img/0769/5bd04f55-d091-4f57-85db-38426f26bd1a.jpg\",\"img/0904/9b3568cc-3cf7-42be-9df3-fdafde7a58b8.jpg\"]","trial_type":"similarity","trial_index":176,"time_elapsed":827091,"internal_node_id":"0.0-6.0-170.0"},{"sim_score":2,"rt":2430,"stimulus":"[\"img/0875/2e13d160-eea1-416b-aff1-d37ab99ecc1d.jpg\",\"img/0764/8389e74f-e0e0-435d-945f-da1f4c92ccb6.jpg\"]","trial_type":"similarity","trial_index":177,"time_elapsed":830532,"internal_node_id":"0.0-6.0-171.0"},{"sim_score":2,"rt":3393,"stimulus":"[\"img/0860/18dfed73-e36b-4487-a8bd-0b8cff8e3668.jpg\",\"img/0903/47e39de8-6959-469f-8be9-6999a6db207c.jpg\"]","trial_type":"similarity","trial_index":178,"time_elapsed":834934,"internal_node_id":"0.0-6.0-172.0"},{"sim_score":5,"rt":2822,"stimulus":"[\"img/0864/6e846d43-94a6-4b37-a268-65eda979f052.jpg\",\"img/0867/ac1797e4-8afc-48fe-b252-86d1defb1cca.jpg\"]","trial_type":"similarity","trial_index":179,"time_elapsed":838771,"internal_node_id":"0.0-6.0-173.0"},{"sim_score":5,"rt":2902,"stimulus":"[\"img/0868/0d3abd3a-b6c3-4584-a9f7-e2da63748b3d.jpg\",\"img/0864/6f631579-acf1-415c-a42c-1207f62a8d99.jpg\"]","trial_type":"similarity","trial_index":180,"time_elapsed":842680,"internal_node_id":"0.0-6.0-174.0"},{"sim_score":5,"rt":2886,"stimulus":"[\"img/0898/c3cecf20-f7fd-45fa-97d0-dc0a63e8d6c0.jpg\",\"img/0769/f73c5138-2f4c-4354-981c-129dff9cc734.jpg\"]","trial_type":"similarity","trial_index":181,"time_elapsed":846577,"internal_node_id":"0.0-6.0-175.0"},{"sim_score":7,"rt":3453,"stimulus":"[\"img/0766/1865bfc9-2410-4765-a804-3ae4ba2393d0.jpg\",\"img/0764/cffc80b0-4a90-4acb-a530-6f480f3ca303.jpg\"]","trial_type":"similarity","trial_index":182,"time_elapsed":851034,"internal_node_id":"0.0-6.0-176.0"},{"sim_score":2,"rt":3446,"stimulus":"[\"img/0764/21e3292f-01ad-4238-828b-61b817857d16.jpg\",\"img/0866/d266fece-59b3-46fa-b69f-96f6efb81b59.jpg\"]","trial_type":"similarity","trial_index":183,"time_elapsed":855484,"internal_node_id":"0.0-6.0-177.0"},{"sim_score":1,"rt":2747,"stimulus":"[\"img/0902/aa6fca32-82b0-4414-b20a-8f6f8aa5a2d2.jpg\",\"img/0875/a4935837-7d3c-4df6-88c1-36a94d4991ca.jpg\"]","trial_type":"similarity","trial_index":184,"time_elapsed":859245,"internal_node_id":"0.0-6.0-178.0"},{"sim_score":5,"rt":2517,"stimulus":"[\"img/0881/2a8413be-fec2-4de6-88ad-614dd4cccc9d.jpg\",\"img/0904/da170c1b-9651-4f08-b231-2bdd1d9a046f.jpg\"]","trial_type":"similarity","trial_index":185,"time_elapsed":862774,"internal_node_id":"0.0-6.0-179.0"},{"sim_score":5,"rt":3143,"stimulus":"[\"img/0874/29830da7-be5f-44e5-b141-652a0ccf7269.jpg\",\"img/0860/e8b8c51e-1834-4875-8b61-6c5bc9b178bd.jpg\"]","trial_type":"similarity","trial_index":186,"time_elapsed":866930,"internal_node_id":"0.0-6.0-180.0"},{"sim_score":6,"rt":2479,"stimulus":"[\"img/0769/b664b502-a86c-46c1-ad6f-5ebffc2e1bd3.jpg\",\"img/0874/bf14b896-e930-4fd9-9c05-2e83317a2773.jpg\"]","trial_type":"similarity","trial_index":187,"time_elapsed":870419,"internal_node_id":"0.0-6.0-181.0"},{"sim_score":5,"rt":3395,"stimulus":"[\"img/0904/56e73f28-7e64-489b-a161-e6b1a063878d.jpg\",\"img/0766/3c526a07-9e0a-4ae2-8142-00085f0127da.jpg\"]","trial_type":"similarity","trial_index":188,"time_elapsed":874817,"internal_node_id":"0.0-6.0-182.0"},{"sim_score":3,"rt":3468,"stimulus":"[\"img/0902/94198618-7047-4dc9-ad04-85f4ba913067.jpg\",\"img/0764/bd2eaa3e-95a9-4a59-a78e-3f81c766eea9.jpg\"]","trial_type":"similarity","trial_index":189,"time_elapsed":879294,"internal_node_id":"0.0-6.0-183.0"},{"sim_score":3,"rt":2805,"stimulus":"[\"img/0769/76eaa4a3-dfe9-4dc1-9efb-caebe86264e1.jpg\",\"img/0875/8521fd58-3b1e-4dc5-97ae-804edfa6734a.jpg\"]","trial_type":"similarity","trial_index":190,"time_elapsed":883103,"internal_node_id":"0.0-6.0-184.0"},{"sim_score":3,"rt":4306,"stimulus":"[\"img/0867/26611f4e-d694-4460-b7e2-43c62753ddc3.jpg\",\"img/0903/c3cb4a01-2797-43ca-b216-88c67b323fbb.jpg\"]","trial_type":"similarity","trial_index":191,"time_elapsed":888422,"internal_node_id":"0.0-6.0-185.0"},{"sim_score":3,"rt":2563,"stimulus":"[\"img/0862/847e5208-38ec-4f36-949c-296cdd7424ee.jpg\",\"img/0769/e8ed913b-8a88-44f6-9327-d34afec3116b.jpg\"]","trial_type":"similarity","trial_index":192,"time_elapsed":891990,"internal_node_id":"0.0-6.0-186.0"},{"sim_score":1,"rt":3820,"stimulus":"[\"img/0766/110832e5-2646-4bd0-a94e-5df8cc314269.jpg\",\"img/0866/9b38d691-1802-4959-ab3f-fc902f0e4ea6.jpg\"]","trial_type":"similarity","trial_index":193,"time_elapsed":896814,"internal_node_id":"0.0-6.0-187.0"},{"sim_score":2,"rt":3482,"stimulus":"[\"img/0769/50985283-d353-4abc-9abe-14a91d56ebe6.jpg\",\"img/0860/87039971-2210-4aab-93c0-8e9b5f1655b2.jpg\"]","trial_type":"similarity","trial_index":194,"time_elapsed":901301,"internal_node_id":"0.0-6.0-188.0"},{"sim_score":5,"rt":2985,"stimulus":"[\"img/0881/609a5e93-38b5-4940-8627-2bf8fad7f802.jpg\",\"img/0868/77091fc7-a590-4ebb-b915-fdb2483a2399.jpg\"]","trial_type":"similarity","trial_index":195,"time_elapsed":906591,"internal_node_id":"0.0-6.0-189.0"},{"view_history":"[{\"page_index\":0,\"viewing_time\":2914}]","rt":2915,"trial_type":"instructions","trial_index":196,"time_elapsed":910507,"internal_node_id":"0.0-7.0"},{"rt":39385,"responses":"{\"Q0\":\"Tennessee Warbler\"}","answer":["Nashville Warbler"],"trial_type":"image-multi-choice","trial_index":197,"time_elapsed":950917,"internal_node_id":"0.0-8.0-0.0"},{"rt":6381,"responses":"{\"Q0\":\"Black-and-white Warbler\"}","answer":["Black-and-white Warbler"],"trial_type":"image-multi-choice","trial_index":198,"time_elapsed":958311,"internal_node_id":"0.0-8.0-1.0"},{"rt":31783,"responses":"{\"Q0\":\"Magnolia Warbler\"}","answer":["Townsend's Warbler"],"trial_type":"image-multi-choice","trial_index":199,"time_elapsed":991101,"internal_node_id":"0.0-8.0-2.0"},{"rt":5939,"responses":"{\"Q0\":\"Lark Sparrow\"}","answer":["Lark Sparrow"],"trial_type":"image-multi-choice","trial_index":200,"time_elapsed":998064,"internal_node_id":"0.0-8.0-3.0"},{"rt":4406,"responses":"{\"Q0\":\"Yellow Warbler\"}","answer":["Yellow Warbler"],"trial_type":"image-multi-choice","trial_index":201,"time_elapsed":1003481,"internal_node_id":"0.0-8.0-4.0"},{"rt":9484,"responses":"{\"Q0\":\"Orange-crowned Warbler\"}","answer":["Orange-crowned Warbler"],"trial_type":"image-multi-choice","trial_index":202,"time_elapsed":1013977,"internal_node_id":"0.0-8.0-5.0"},{"rt":7412,"responses":"{\"Q0\":\"White-throated Sparrow\"}","answer":["White-throated Sparrow"],"trial_type":"image-multi-choice","trial_index":203,"time_elapsed":1022403,"internal_node_id":"0.0-8.0-6.0"},{"rt":5169,"responses":"{\"Q0\":\"Fox Sparrow\"}","answer":["Fox Sparrow"],"trial_type":"image-multi-choice","trial_index":204,"time_elapsed":1028590,"internal_node_id":"0.0-8.0-7.0"},{"rt":9796,"responses":"{\"Q0\":\"Song Sparrow\"}","answer":["Song Sparrow"],"trial_type":"image-multi-choice","trial_index":205,"time_elapsed":1039407,"internal_node_id":"0.0-8.0-8.0"},{"rt":25452,"responses":"{\"Q0\":\"Townsend's Warbler\"}","answer":["Blackburnian Warbler"],"trial_type":"image-multi-choice","trial_index":206,"time_elapsed":1065879,"internal_node_id":"0.0-8.0-9.0"},{"rt":9458,"responses":"{\"Q0\":\"Vesper Sparrow\"}","answer":["Vesper Sparrow"],"trial_type":"image-multi-choice","trial_index":207,"time_elapsed":1076358,"internal_node_id":"0.0-8.0-10.0"},{"rt":4003,"responses":"{\"Q0\":\"White-crowned Sparrow\"}","answer":["White-crowned Sparrow"],"trial_type":"image-multi-choice","trial_index":208,"time_elapsed":1081383,"internal_node_id":"0.0-8.0-11.0"},{"rt":5657,"responses":"{\"Q0\":\"American Tree Sparrow\"}","answer":["American Tree Sparrow"],"trial_type":"image-multi-choice","trial_index":209,"time_elapsed":1088056,"internal_node_id":"0.0-8.0-12.0"},{"rt":12988,"responses":"{\"Q0\":\"Nashville Warbler\"}","answer":["Tennessee Warbler"],"trial_type":"image-multi-choice","trial_index":210,"time_elapsed":1102054,"internal_node_id":"0.0-8.0-13.0"},{"rt":21028,"responses":"{\"Q0\":\"Magnolia Warbler\"}","answer":["Magnolia Warbler"],"trial_type":"image-multi-choice","trial_index":211,"time_elapsed":1124095,"internal_node_id":"0.0-8.0-14.0"},{"rt":11658,"responses":"{\"Q0\":\"Northern Waterthrush\"}","answer":["Northern Waterthrush"],"trial_type":"image-multi-choice","trial_index":212,"time_elapsed":1136763,"internal_node_id":"0.0-8.0-15.0"},{"rt":11291,"responses":"{\"Q0\":\"Chipping Sparrow\"}","answer":["Chipping Sparrow"],"trial_type":"image-multi-choice","trial_index":213,"time_elapsed":1149070,"internal_node_id":"0.0-8.0-16.0"},{"rt":26071,"responses":"{\"Q0\":\"Lincoln's Sparrow\"}","answer":["Swamp Sparrow"],"trial_type":"image-multi-choice","trial_index":214,"time_elapsed":1176164,"internal_node_id":"0.0-8.0-17.0"},{"rt":5819,"responses":"{\"Q0\":\"Lincoln's Sparrow\"}","answer":["Lincoln's Sparrow"],"trial_type":"image-multi-choice","trial_index":215,"time_elapsed":1183002,"internal_node_id":"0.0-8.0-18.0"},{"rt":4308,"responses":"{\"Q0\":\"Ovenbird\"}","answer":["Ovenbird"],"trial_type":"image-multi-choice","trial_index":216,"time_elapsed":1188320,"internal_node_id":"0.0-8.0-19.0"}]