[{"view_history":"[{\"page_index\":0,\"viewing_time\":19187}]","rt":19188,"trial_type":"instructions","trial_index":0,"time_elapsed":19190,"internal_node_id":"0.0-0.0"},{"sim_score":6,"rt":6711,"stimulus":"[\"img/bluejay1.jpg\",\"img/bluejay2.jpg\"]","trial_type":"similarity_demo","trial_index":1,"time_elapsed":26920,"internal_node_id":"0.0-1.0"},{"view_history":"[{\"page_index\":0,\"viewing_time\":10183}]","rt":10184,"trial_type":"instructions","trial_index":2,"time_elapsed":38107,"internal_node_id":"0.0-2.0"},{"sim_score":2,"rt":5550,"stimulus":"[\"img/bluejay1.jpg\",\"img/cardinal1.jpg\"]","trial_type":"similarity_demo","trial_index":3,"time_elapsed":44669,"internal_node_id":"0.0-3.0"},{"view_history":"[{\"page_index\":0,\"viewing_time\":5546}]","rt":5546,"trial_type":"instructions","trial_index":4,"time_elapsed":51219,"internal_node_id":"0.0-4.0"},{"view_history":"[{\"page_index\":0,\"viewing_time\":29809}]","rt":29810,"trial_type":"instructions","trial_index":5,"time_elapsed":82041,"internal_node_id":"0.0-5.0"},{"sim_score":5,"rt":6823,"stimulus":"[\"img/0868/5fa7f9d0-f0e5-454c-8224-74d964818f56.jpg\",\"img/0894/2217bdcd-23a7-42d3-823b-23f2488d7e87.jpg\"]","trial_type":"similarity","trial_index":6,"time_elapsed":89884,"internal_node_id":"0.0-6.0-0.0"},{"sim_score":3,"rt":5153,"stimulus":"[\"img/0898/b2732712-71c2-45d8-834f-2b2ed5504910.jpg\",\"img/0758/d41c06bf-ebaf-454b-91c6-1a17f917b659.jpg\"]","trial_type":"similarity","trial_index":7,"time_elapsed":96044,"internal_node_id":"0.0-6.0-1.0"},{"sim_score":5,"rt":5404,"stimulus":"[\"img/0903/680ed18e-b311-4ecf-9b00-7dea32128334.jpg\",\"img/0894/661b9f9f-4bde-487a-b1ed-87085fde6948.jpg\"]","trial_type":"similarity","trial_index":8,"time_elapsed":102460,"internal_node_id":"0.0-6.0-2.0"},{"sim_score":3,"rt":5347,"stimulus":"[\"img/0881/f6bd3b96-dc40-4e99-8681-bc3a35cf896d.jpg\",\"img/0766/2746b119-4bba-463e-acf0-88136dc6600c.jpg\"]","trial_type":"similarity","trial_index":9,"time_elapsed":108812,"internal_node_id":"0.0-6.0-3.0"},{"sim_score":2,"rt":4570,"stimulus":"[\"img/0864/9b2490c5-a282-400a-9736-e1a0ecbf1cb7.jpg\",\"img/0860/8277806e-b684-4474-8f7b-3fca946d7d4f.jpg\"]","trial_type":"similarity","trial_index":10,"time_elapsed":114389,"internal_node_id":"0.0-6.0-4.0"},{"sim_score":2,"rt":5096,"stimulus":"[\"img/0902/cf9dee9c-2bdf-4d64-9302-97f1660fe52c.jpg\",\"img/0899/25ae6ec8-9565-49fe-a8bb-8d0666f52716.jpg\"]","trial_type":"similarity","trial_index":11,"time_elapsed":120493,"internal_node_id":"0.0-6.0-5.0"},{"sim_score":2,"rt":4074,"stimulus":"[\"img/0868/77091fc7-a590-4ebb-b915-fdb2483a2399.jpg\",\"img/0769/4a1d0b52-3fe8-40fb-bb1c-c814fe49a68c.jpg\"]","trial_type":"similarity","trial_index":12,"time_elapsed":125571,"internal_node_id":"0.0-6.0-6.0"},{"sim_score":5,"rt":5448,"stimulus":"[\"img/0764/4bec8d92-75aa-475a-954d-8215dbe538f5.jpg\",\"img/0901/a373612d-67e2-4fec-9764-21d3d6ef6359.jpg\"]","trial_type":"similarity","trial_index":13,"time_elapsed":132029,"internal_node_id":"0.0-6.0-7.0"},{"sim_score":2,"rt":7904,"stimulus":"[\"img/0881/b1a136f7-8511-4d3a-a0f6-3879acf1e1a1.jpg\",\"img/0866/4a87911a-d5be-4d4e-ab8e-3d1f581bf507.jpg\"]","trial_type":"similarity","trial_index":14,"time_elapsed":140939,"internal_node_id":"0.0-6.0-8.0"},{"sim_score":2,"rt":3791,"stimulus":"[\"img/0867/8ba0c5a7-c7e4-42cf-a80a-543763b90779.jpg\",\"img/0899/f95cbdb4-f804-4f5d-ad76-373ad343e658.jpg\"]","trial_type":"similarity","trial_index":15,"time_elapsed":145740,"internal_node_id":"0.0-6.0-9.0"},{"sim_score":2,"rt":4330,"stimulus":"[\"img/0875/a4935837-7d3c-4df6-88c1-36a94d4991ca.jpg\",\"img/0766/33519c22-aaa4-49d7-8d49-ab551db1945e.jpg\"]","trial_type":"similarity","trial_index":16,"time_elapsed":151075,"internal_node_id":"0.0-6.0-10.0"},{"sim_score":2,"rt":4554,"stimulus":"[\"img/0901/8bb79e82-9c43-4b6f-a655-40655519598b.jpg\",\"img/0875/d59ff733-eaff-4ee2-9443-06954dd0bcb6.jpg\"]","trial_type":"similarity","trial_index":17,"time_elapsed":156637,"internal_node_id":"0.0-6.0-11.0"},{"sim_score":5,"rt":4649,"stimulus":"[\"img/0902/bd89a85f-3853-4786-acd6-98818ee29f1c.jpg\",\"img/0860/4c530c3c-6aab-492a-94d1-9c01797bde40.jpg\"]","trial_type":"similarity","trial_index":18,"time_elapsed":162292,"internal_node_id":"0.0-6.0-12.0"},{"sim_score":2,"rt":5011,"stimulus":"[\"img/0874/adf9a8f1-c40b-402b-b95b-1e85a54a7b62.jpg\",\"img/0867/de92135f-5b65-4ed9-b245-188292c7c2f8.jpg\"]","trial_type":"similarity","trial_index":19,"time_elapsed":168308,"internal_node_id":"0.0-6.0-13.0"},{"sim_score":2,"rt":5899,"stimulus":"[\"img/0904/b5855d6a-7ef9-46ca-9215-6e9fa046e543.jpg\",\"img/0866/a15b02be-11bb-43e3-b0e0-ecc3bd7dfc49.jpg\"]","trial_type":"similarity","trial_index":20,"time_elapsed":175211,"internal_node_id":"0.0-6.0-14.0"},{"sim_score":3,"rt":5900,"stimulus":"[\"img/0758/6e95579b-5166-487c-b8cb-e417c6a218e3.jpg\",\"img/0902/d2c34af0-8c50-437d-8cc3-619195a3e8ba.jpg\"]","trial_type":"similarity","trial_index":21,"time_elapsed":182116,"internal_node_id":"0.0-6.0-15.0"},{"sim_score":2,"rt":3649,"stimulus":"[\"img/0867/12264664-1860-46df-8c21-162b9817cdda.jpg\",\"img/0898/224c1572-56b9-4f16-a9e4-6f3bc9c114bd.jpg\"]","trial_type":"similarity","trial_index":22,"time_elapsed":186771,"internal_node_id":"0.0-6.0-16.0"},{"sim_score":2,"rt":4825,"stimulus":"[\"img/0904/60d1a521-edf7-4696-9263-f21ac0e62a01.jpg\",\"img/0868/4bd5105a-d2c3-4f82-8c80-57196106ba53.jpg\"]","trial_type":"similarity","trial_index":23,"time_elapsed":192603,"internal_node_id":"0.0-6.0-17.0"},{"sim_score":2,"rt":4602,"stimulus":"[\"img/0766/2da002a4-05c9-4f5c-9ed7-433b4183e273.jpg\",\"img/0864/e336a4c5-6648-4fd7-b2f6-93a3fb83f8c6.jpg\"]","trial_type":"similarity","trial_index":24,"time_elapsed":198211,"internal_node_id":"0.0-6.0-18.0"},{"sim_score":6,"rt":6601,"stimulus":"[\"img/0899/d8f2dd94-570e-4e8c-a087-d96090fb9e8c.jpg\",\"img/0766/ea09dd5a-d24d-4e97-a099-7da3db1baef1.jpg\"]","trial_type":"similarity","trial_index":25,"time_elapsed":205820,"internal_node_id":"0.0-6.0-19.0"},{"sim_score":5,"rt":6283,"stimulus":"[\"img/0764/b328441c-f81c-486c-9eae-b947c70ba7cd.jpg\",\"img/0758/dd559618-7f09-4a07-8018-d311c4a5ea29.jpg\"]","trial_type":"similarity","trial_index":26,"time_elapsed":213107,"internal_node_id":"0.0-6.0-20.0"},{"sim_score":2,"rt":3818,"stimulus":"[\"img/0901/b453df0b-4c39-49bb-8ced-6127efffa898.jpg\",\"img/0874/99f6563c-8a8d-4c1c-a41d-667b618c3fd5.jpg\"]","trial_type":"similarity","trial_index":27,"time_elapsed":217931,"internal_node_id":"0.0-6.0-21.0"},{"sim_score":2,"rt":3754,"stimulus":"[\"img/0875/99698b4d-b4a1-44bc-8c83-8ea755bbbf61.jpg\",\"img/0758/a085b443-b5d7-4cb2-9ad4-b9dab0fc23f1.jpg\"]","trial_type":"similarity","trial_index":28,"time_elapsed":222691,"internal_node_id":"0.0-6.0-22.0"},{"sim_score":2,"rt":3875,"stimulus":"[\"img/0867/26611f4e-d694-4460-b7e2-43c62753ddc3.jpg\",\"img/0881/4bd34581-94d8-4e88-8c89-5cef864ca3be.jpg\"]","trial_type":"similarity","trial_index":29,"time_elapsed":227571,"internal_node_id":"0.0-6.0-23.0"},{"sim_score":2,"rt":4937,"stimulus":"[\"img/0758/7ee8bc8f-c40b-4b3a-84ec-3e83580622d4.jpg\",\"img/0901/a2d7b2f6-396b-4d91-8403-de5361c74af7.jpg\"]","trial_type":"similarity","trial_index":30,"time_elapsed":233516,"internal_node_id":"0.0-6.0-24.0"},{"sim_score":5,"rt":5866,"stimulus":"[\"img/0868/3a62db2d-97e9-44a3-b8e3-a48c6f0e423b.jpg\",\"img/0875/ebf7653f-ff45-4e9f-af58-2c042ab3cd2b.jpg\"]","trial_type":"similarity","trial_index":31,"time_elapsed":240387,"internal_node_id":"0.0-6.0-25.0"},{"sim_score":3,"rt":6034,"stimulus":"[\"img/0903/2c7b4aed-6038-4aac-958a-e3e58341c313.jpg\",\"img/0901/a6c90438-fa7c-4418-ac7c-16c2e772dd98.jpg\"]","trial_type":"similarity","trial_index":32,"time_elapsed":247427,"internal_node_id":"0.0-6.0-26.0"},{"sim_score":3,"rt":4745,"stimulus":"[\"img/0894/c505c65a-cde2-4f2c-8cde-f8676f7c894d.jpg\",\"img/0899/4f7bc593-8ddd-4da3-a0b9-84da730d3370.jpg\"]","trial_type":"similarity","trial_index":33,"time_elapsed":253180,"internal_node_id":"0.0-6.0-27.0"},{"sim_score":2,"rt":3707,"stimulus":"[\"img/0862/92f0146c-20c4-482e-aef5-adb693790338.jpg\",\"img/0867/cc72ed48-7704-422c-86d6-467a1145287a.jpg\"]","trial_type":"similarity","trial_index":34,"time_elapsed":257891,"internal_node_id":"0.0-6.0-28.0"},{"sim_score":2,"rt":5169,"stimulus":"[\"img/0864/5f74a653-3bdc-4308-8cca-ac667dc22e1f.jpg\",\"img/0875/34132396-d896-4c2d-8087-646dd867e769.jpg\"]","trial_type":"similarity","trial_index":35,"time_elapsed":264067,"internal_node_id":"0.0-6.0-29.0"},{"sim_score":2,"rt":6706,"stimulus":"[\"img/0862/5d887e9f-89e2-4ebc-80a0-6d46fe6480db.jpg\",\"img/0874/3ce41e7c-40c8-4d58-a546-171114521796.jpg\"]","trial_type":"similarity","trial_index":36,"time_elapsed":271780,"internal_node_id":"0.0-6.0-30.0"},{"sim_score":2,"rt":4418,"stimulus":"[\"img/0903/6b5dcc60-3ad3-4962-93e5-e6cf768477af.jpg\",\"img/0758/67c0be2f-9e91-48b3-8219-70ac0a1802fa.jpg\"]","trial_type":"similarity","trial_index":37,"time_elapsed":277203,"internal_node_id":"0.0-6.0-31.0"},{"sim_score":2,"rt":3439,"stimulus":"[\"img/0866/f756f7d1-9ad8-4a34-9ef6-7a443d705bfe.jpg\",\"img/0901/d6d15b1c-4a30-4f74-a3fd-d4c8ee4169ca.jpg\"]","trial_type":"similarity","trial_index":38,"time_elapsed":281651,"internal_node_id":"0.0-6.0-32.0"},{"sim_score":5,"rt":6359,"stimulus":"[\"img/0874/29830da7-be5f-44e5-b141-652a0ccf7269.jpg\",\"img/0899/fd9efb43-701f-4cd6-baaa-4c38315f4bdc.jpg\"]","trial_type":"similarity","trial_index":39,"time_elapsed":289019,"internal_node_id":"0.0-6.0-33.0"},{"sim_score":5,"rt":5298,"stimulus":"[\"img/0903/f67c4ab9-f8c2-4fcd-848a-a54a7b031002.jpg\",\"img/0902/c9c74d2d-9b82-42d7-a9d0-3b8ff67ff81e.jpg\"]","trial_type":"similarity","trial_index":40,"time_elapsed":295323,"internal_node_id":"0.0-6.0-34.0"},{"sim_score":2,"rt":3572,"stimulus":"[\"img/0758/f61ecdf8-a7d4-4db0-b84d-be46f7cfaffc.jpg\",\"img/0866/6f2a90d7-14f1-4f1b-bd64-fc0af6b9fe44.jpg\"]","trial_type":"similarity","trial_index":41,"time_elapsed":299899,"internal_node_id":"0.0-6.0-35.0"},{"sim_score":2,"rt":5023,"stimulus":"[\"img/0875/cff79b3a-a797-4393-9757-6275f999ec04.jpg\",\"img/0903/47e39de8-6959-469f-8be9-6999a6db207c.jpg\"]","trial_type":"similarity","trial_index":42,"time_elapsed":305931,"internal_node_id":"0.0-6.0-36.0"},{"sim_score":2,"rt":5432,"stimulus":"[\"img/0864/0116ca98-293d-4fa6-a93b-5a6144ef64cc.jpg\",\"img/0902/962f645e-9b55-4628-9b50-c703422bfe1a.jpg\"]","trial_type":"similarity","trial_index":43,"time_elapsed":320666,"internal_node_id":"0.0-6.0-37.0"},{"sim_score":2,"rt":5804,"stimulus":"[\"img/0901/12da1841-e611-435c-9719-109413d536a8.jpg\",\"img/0867/5e07b34d-b40f-4b1c-ac10-49975bace45f.jpg\"]","trial_type":"similarity","trial_index":44,"time_elapsed":327476,"internal_node_id":"0.0-6.0-38.0"},{"sim_score":5,"rt":6276,"stimulus":"[\"img/0862/24cdc752-c2e5-4a17-86a6-6f2045d8553b.jpg\",\"img/0860/e8b8c51e-1834-4875-8b61-6c5bc9b178bd.jpg\"]","trial_type":"similarity","trial_index":45,"time_elapsed":334755,"internal_node_id":"0.0-6.0-39.0"},{"sim_score":6,"rt":5523,"stimulus":"[\"img/0867/98d8cd96-1476-4fe0-a3a3-04f875500a1b.jpg\",\"img/0868/c8ac40c7-6904-4e13-8d61-c75d3052dc4e.jpg\"]","trial_type":"similarity","trial_index":46,"time_elapsed":341284,"internal_node_id":"0.0-6.0-40.0"},{"sim_score":5,"rt":6763,"stimulus":"[\"img/0904/65e2b70a-b184-4da3-b5c0-5038bdf9469a.jpg\",\"img/0899/fef567a2-c121-4481-9af0-ff108d199bbf.jpg\"]","trial_type":"similarity","trial_index":47,"time_elapsed":349052,"internal_node_id":"0.0-6.0-41.0"},{"sim_score":3,"rt":4835,"stimulus":"[\"img/0862/cdaed51d-9e2f-4807-801a-4663c40077e2.jpg\",\"img/0894/7fb082e0-ce79-485c-9109-04367fb32275.jpg\"]","trial_type":"similarity","trial_index":48,"time_elapsed":354892,"internal_node_id":"0.0-6.0-42.0"},{"sim_score":3,"rt":4347,"stimulus":"[\"img/0875/5a716432-c6ca-4b1c-955a-2b8ac25198ee.jpg\",\"img/0904/a8c3c7d2-9bcf-4347-9e03-8203adfc1fc5.jpg\"]","trial_type":"similarity","trial_index":49,"time_elapsed":360245,"internal_node_id":"0.0-6.0-43.0"},{"sim_score":2,"rt":3490,"stimulus":"[\"img/0874/1016b306-087c-4afc-aa08-fa527b28dc76.jpg\",\"img/0898/e167334e-cc1d-4986-b3b1-c7bc7da64baa.jpg\"]","trial_type":"similarity","trial_index":50,"time_elapsed":364740,"internal_node_id":"0.0-6.0-44.0"},{"sim_score":2,"rt":3444,"stimulus":"[\"img/0898/26c41340-15bd-4ead-8fe4-c0d0ddca09c2.jpg\",\"img/0868/8b0b8473-e2c0-4331-aa56-c3a5c29369da.jpg\"]","trial_type":"similarity","trial_index":51,"time_elapsed":369187,"internal_node_id":"0.0-6.0-45.0"},{"sim_score":3,"rt":5040,"stimulus":"[\"img/0901/fb0a8e69-7f19-4e6e-a6bb-a48f97f9b4f3.jpg\",\"img/0860/8a92e21b-6a32-4e4a-a445-2d5a487ed0a4.jpg\"]","trial_type":"similarity","trial_index":52,"time_elapsed":375235,"internal_node_id":"0.0-6.0-46.0"},{"sim_score":2,"rt":3735,"stimulus":"[\"img/0894/38cf335f-f76f-4349-8d65-e20cd6859565.jpg\",\"img/0902/3f0eeac5-c996-4026-a376-563ce8f28521.jpg\"]","trial_type":"similarity","trial_index":53,"time_elapsed":379979,"internal_node_id":"0.0-6.0-47.0"},{"sim_score":2,"rt":5585,"stimulus":"[\"img/0764/5c8fbafc-e62e-43ed-9b37-f73e8e45147d.jpg\",\"img/0862/ad593cc7-cabe-4bb7-8e14-8a447a0717b4.jpg\"]","trial_type":"similarity","trial_index":54,"time_elapsed":386571,"internal_node_id":"0.0-6.0-48.0"},{"sim_score":2,"rt":4467,"stimulus":"[\"img/0881/20af39f5-373d-4a55-a437-2dc4c0382c46.jpg\",\"img/0758/d540bee6-b460-4c32-ac57-bc282742d7d4.jpg\"]","trial_type":"similarity","trial_index":55,"time_elapsed":392043,"internal_node_id":"0.0-6.0-49.0"},{"sim_score":5,"rt":4959,"stimulus":"[\"img/0766/dd3e18d0-0c98-4d05-b850-69976ee8cd75.jpg\",\"img/0769/48a1144d-fbda-4809-991b-fc8424a32ee4.jpg\"]","trial_type":"similarity","trial_index":56,"time_elapsed":398011,"internal_node_id":"0.0-6.0-50.0"},{"sim_score":2,"rt":4661,"stimulus":"[\"img/0875/fb732ab5-013a-4366-9f65-27811ed157e9.jpg\",\"img/0866/be24ab58-230e-4db8-9f45-ff04c9aec6bb.jpg\"]","trial_type":"similarity","trial_index":57,"time_elapsed":403676,"internal_node_id":"0.0-6.0-51.0"},{"sim_score":5,"rt":6001,"stimulus":"[\"img/0894/10f22b96-040c-44f4-950b-a4963f3f506c.jpg\",\"img/0904/5cceabc9-de1d-4c67-989b-c28a4ef77e79.jpg\"]","trial_type":"similarity","trial_index":58,"time_elapsed":410683,"internal_node_id":"0.0-6.0-52.0"},{"sim_score":2,"rt":4953,"stimulus":"[\"img/0758/ddc336e9-a8b6-4bb9-937a-c7e25e0e9250.jpg\",\"img/0769/76eaa4a3-dfe9-4dc1-9efb-caebe86264e1.jpg\"]","trial_type":"similarity","trial_index":59,"time_elapsed":416644,"internal_node_id":"0.0-6.0-53.0"},{"sim_score":2,"rt":3480,"stimulus":"[\"img/0902/0eb85fbc-27c8-41df-9d0b-a5f9efd417d1.jpg\",\"img/0874/a3bc679d-619f-4db6-bb68-116dcb757d9c.jpg\"]","trial_type":"similarity","trial_index":60,"time_elapsed":421132,"internal_node_id":"0.0-6.0-54.0"},{"sim_score":2,"rt":5230,"stimulus":"[\"img/0903/9b60ef5b-234f-4239-892b-3d4c412accc2.jpg\",\"img/0862/f43ceabf-acc1-4107-b857-5d1849808f93.jpg\"]","trial_type":"similarity","trial_index":61,"time_elapsed":427371,"internal_node_id":"0.0-6.0-55.0"},{"sim_score":2,"rt":4267,"stimulus":"[\"img/0866/d493a2c8-66eb-44b4-be02-2f327b700b7c.jpg\",\"img/0894/5f15154e-e72e-4ce5-aafb-bce6f0564006.jpg\"]","trial_type":"similarity","trial_index":62,"time_elapsed":432644,"internal_node_id":"0.0-6.0-56.0"},{"sim_score":2,"rt":3754,"stimulus":"[\"img/0867/179ab87a-8eac-4c52-a41f-2e48e3120f09.jpg\",\"img/0904/9d30eff1-46ef-4453-b11e-124ef8145c00.jpg\"]","trial_type":"similarity","trial_index":63,"time_elapsed":437403,"internal_node_id":"0.0-6.0-57.0"},{"sim_score":2,"rt":3817,"stimulus":"[\"img/0875/527ced51-8e53-4aab-ab05-86df219104c0.jpg\",\"img/0881/f037e3b0-09cb-4a83-b2d9-6a71fe474e63.jpg\"]","trial_type":"similarity","trial_index":64,"time_elapsed":442227,"internal_node_id":"0.0-6.0-58.0"},{"sim_score":2,"rt":4026,"stimulus":"[\"img/0866/386235d2-6857-41e7-88a8-25cfc3430025.jpg\",\"img/0860/15b24a61-25be-4356-9eac-5ce95d0cb4a4.jpg\"]","trial_type":"similarity","trial_index":65,"time_elapsed":447260,"internal_node_id":"0.0-6.0-59.0"},{"sim_score":2,"rt":3763,"stimulus":"[\"img/0903/6378ee1e-3d2b-48d2-87be-bebda32c8268.jpg\",\"img/0866/8efcaa46-83ab-4dee-a35f-850402aa21ae.jpg\"]","trial_type":"similarity","trial_index":66,"time_elapsed":452028,"internal_node_id":"0.0-6.0-60.0"},{"sim_score":2,"rt":3794,"stimulus":"[\"img/0860/e14d67c1-6d92-4f1e-9257-c8607159c19c.jpg\",\"img/0875/e7e66b13-b573-431e-b85e-288ce04a35a3.jpg\"]","trial_type":"similarity","trial_index":67,"time_elapsed":456829,"internal_node_id":"0.0-6.0-61.0"},{"sim_score":5,"rt":7081,"stimulus":"[\"img/0898/6cd3830b-d44e-4915-be2b-88d31424b91c.jpg\",\"img/0862/00c06b00-3b73-44e9-bc1e-c5aafb438321.jpg\"]","trial_type":"similarity","trial_index":68,"time_elapsed":464915,"internal_node_id":"0.0-6.0-62.0"},{"sim_score":2,"rt":4219,"stimulus":"[\"img/0902/d5e25767-e8ec-45f3-ac0a-7b4a6f7a9edc.jpg\",\"img/0766/af3be95e-e52e-4fae-899b-0ff02ec340aa.jpg\"]","trial_type":"similarity","trial_index":69,"time_elapsed":470140,"internal_node_id":"0.0-6.0-63.0"},{"sim_score":5,"rt":4338,"stimulus":"[\"img/0758/6cd8c362-ae2a-41eb-80a3-3a4f7ace1530.jpg\",\"img/0864/ef9cbca0-4be8-435d-ad49-977259e80409.jpg\"]","trial_type":"similarity","trial_index":70,"time_elapsed":475484,"internal_node_id":"0.0-6.0-64.0"},{"sim_score":2,"rt":3634,"stimulus":"[\"img/0894/5c7677b0-a4f1-479e-b274-7822c415175a.jpg\",\"img/0860/c47fdead-eb02-4989-b078-26f4852f44fe.jpg\"]","trial_type":"similarity","trial_index":71,"time_elapsed":480124,"internal_node_id":"0.0-6.0-65.0"},{"sim_score":2,"rt":4097,"stimulus":"[\"img/0899/a048912c-b12c-40e3-90af-46b69b0cc4fe.jpg\",\"img/0868/7b212364-ff5f-4e28-9241-7eb6ea00161b.jpg\"]","trial_type":"similarity","trial_index":72,"time_elapsed":485227,"internal_node_id":"0.0-6.0-66.0"},{"sim_score":3,"rt":6119,"stimulus":"[\"img/0866/0207e9a2-7dbb-40b5-9459-b472aaeceb2a.jpg\",\"img/0862/f188d4f0-76a4-4102-818c-a209969d73a5.jpg\"]","trial_type":"similarity","trial_index":73,"time_elapsed":492355,"internal_node_id":"0.0-6.0-67.0"},{"sim_score":2,"rt":3531,"stimulus":"[\"img/0860/99c589b9-9140-4d17-90c0-b344323edcda.jpg\",\"img/0758/61d64021-9214-4951-bdf8-f871f9827cf9.jpg\"]","trial_type":"similarity","trial_index":74,"time_elapsed":496892,"internal_node_id":"0.0-6.0-68.0"},{"sim_score":2,"rt":3540,"stimulus":"[\"img/0902/04a6ad4a-afc6-4871-8225-56b299af7b6b.jpg\",\"img/0867/1719a35d-f085-48c0-9099-16c94fe418b4.jpg\"]","trial_type":"similarity","trial_index":75,"time_elapsed":501436,"internal_node_id":"0.0-6.0-69.0"},{"sim_score":2,"rt":6112,"stimulus":"[\"img/0862/847e5208-38ec-4f36-949c-296cdd7424ee.jpg\",\"img/0901/1e23ffbd-19de-4c4f-aa23-c54aaa3319a3.jpg\"]","trial_type":"similarity","trial_index":76,"time_elapsed":508556,"internal_node_id":"0.0-6.0-70.0"},{"sim_score":3,"rt":5964,"stimulus":"[\"img/0867/c66898ba-b71b-4d50-84f9-f7f84853a98d.jpg\",\"img/0866/11a1d141-be5e-443c-98c1-a9d4d9e3dec0.jpg\"]","trial_type":"similarity","trial_index":77,"time_elapsed":515524,"internal_node_id":"0.0-6.0-71.0"},{"sim_score":3,"rt":5642,"stimulus":"[\"img/0860/8fdba999-b946-4c7d-9891-336018b563ef.jpg\",\"img/0904/09dac84f-3d1c-4445-a68e-d0389fdbf1e9.jpg\"]","trial_type":"similarity","trial_index":78,"time_elapsed":522171,"internal_node_id":"0.0-6.0-72.0"},{"sim_score":2,"rt":3867,"stimulus":"[\"img/0875/2c361b79-c3d1-4eda-812e-bf03192407bf.jpg\",\"img/0899/0adc0bc3-6fca-4078-be6f-d45ddf1653d5.jpg\"]","trial_type":"similarity","trial_index":79,"time_elapsed":527043,"internal_node_id":"0.0-6.0-73.0"},{"sim_score":3,"rt":6650,"stimulus":"[\"img/0899/66bf4113-ee12-426c-84d2-ea410b6c803e.jpg\",\"img/0758/9fb5b2fe-3f00-4fe6-973c-1ce10d5f4cd5.jpg\"]","trial_type":"similarity","trial_index":80,"time_elapsed":534698,"internal_node_id":"0.0-6.0-74.0"},{"sim_score":2,"rt":4099,"stimulus":"[\"img/0862/fad1d7c1-8187-43c3-942a-0fc12183e48e.jpg\",\"img/0875/dbdd643e-6d0e-4a5c-ab57-b9c29b9c981a.jpg\"]","trial_type":"similarity","trial_index":81,"time_elapsed":546569,"internal_node_id":"0.0-6.0-75.0"},{"sim_score":2,"rt":4645,"stimulus":"[\"img/0901/c6df1a21-44ed-47c2-960e-7c52220e329e.jpg\",\"img/0894/7f2f31fd-6618-41c6-b65a-0fd8b2851bc9.jpg\"]","trial_type":"similarity","trial_index":82,"time_elapsed":552219,"internal_node_id":"0.0-6.0-76.0"},{"sim_score":2,"rt":4796,"stimulus":"[\"img/0766/d512b99c-a2dc-40d7-8e86-827323a0cbcf.jpg\",\"img/0758/a709631e-3705-4725-ac40-f0d916924f08.jpg\"]","trial_type":"similarity","trial_index":83,"time_elapsed":558018,"internal_node_id":"0.0-6.0-77.0"},{"sim_score":5,"rt":4409,"stimulus":"[\"img/0894/b2d2f66e-e480-46da-a02a-6d0c6b285d78.jpg\",\"img/0764/ec2dd087-c471-4370-b570-95a542506a96.jpg\"]","trial_type":"similarity","trial_index":84,"time_elapsed":563435,"internal_node_id":"0.0-6.0-78.0"},{"sim_score":2,"rt":3226,"stimulus":"[\"img/0860/9593362c-9fe5-4d12-9735-6000a11f6aa5.jpg\",\"img/0867/f26f6b60-f772-4f4c-95a4-addc62cfd692.jpg\"]","trial_type":"similarity","trial_index":85,"time_elapsed":567667,"internal_node_id":"0.0-6.0-79.0"},{"sim_score":3,"rt":5739,"stimulus":"[\"img/0898/04e39a7a-fcf6-4156-ab0e-f5871f335e1c.jpg\",\"img/0901/effc03f6-8f9d-46db-a66c-16fc83891c5c.jpg\"]","trial_type":"similarity","trial_index":86,"time_elapsed":574410,"internal_node_id":"0.0-6.0-80.0"},{"sim_score":2,"rt":2978,"stimulus":"[\"img/0874/995f0332-0439-4eb4-add3-957335dbf6d9.jpg\",\"img/0764/c0b03adb-bd0a-4b96-a915-a827c2fd5211.jpg\"]","trial_type":"similarity","trial_index":87,"time_elapsed":578394,"internal_node_id":"0.0-6.0-81.0"},{"sim_score":2,"rt":4490,"stimulus":"[\"img/0899/51a7a498-98c7-42d7-bca8-bc2d8f0b5831.jpg\",\"img/0862/f23038d4-c366-4f70-979f-66b62362efa4.jpg\"]","trial_type":"similarity","trial_index":88,"time_elapsed":583891,"internal_node_id":"0.0-6.0-82.0"},{"sim_score":2,"rt":3308,"stimulus":"[\"img/0766/60033a74-9919-47e5-913c-71d0d483e7e5.jpg\",\"img/0901/2a953e50-d237-405c-a38d-5ed21494c968.jpg\"]","trial_type":"similarity","trial_index":89,"time_elapsed":588204,"internal_node_id":"0.0-6.0-83.0"},{"sim_score":2,"rt":4424,"stimulus":"[\"img/0881/405484ae-0d00-4b05-bc57-6420a36adfac.jpg\",\"img/0898/881e2a85-d5c2-49be-a0c6-8a6ce2c4af08.jpg\"]","trial_type":"similarity","trial_index":90,"time_elapsed":593636,"internal_node_id":"0.0-6.0-84.0"},{"sim_score":2,"rt":3978,"stimulus":"[\"img/0868/d98ca254-b195-477f-b57e-5760a2717db8.jpg\",\"img/0860/29a21a9f-54bb-4093-ad3f-04823ceaa89f.jpg\"]","trial_type":"similarity","trial_index":91,"time_elapsed":598619,"internal_node_id":"0.0-6.0-85.0"},{"sim_score":2,"rt":3383,"stimulus":"[\"img/0758/7ffbc76b-1fc1-432c-8f7e-9ec8d1b3f643.jpg\",\"img/0868/6a28c3b0-3d76-498a-9fb7-ddafc665eca8.jpg\"]","trial_type":"similarity","trial_index":92,"time_elapsed":603012,"internal_node_id":"0.0-6.0-86.0"},{"sim_score":2,"rt":2873,"stimulus":"[\"img/0864/0f537697-a314-47c3-a8cc-8df23b7e536c.jpg\",\"img/0894/bd34223a-2f66-4e16-9d18-193a746b69ff.jpg\"]","trial_type":"similarity","trial_index":93,"time_elapsed":606891,"internal_node_id":"0.0-6.0-87.0"},{"sim_score":2,"rt":3868,"stimulus":"[\"img/0866/9b38d691-1802-4959-ab3f-fc902f0e4ea6.jpg\",\"img/0902/94198618-7047-4dc9-ad04-85f4ba913067.jpg\"]","trial_type":"similarity","trial_index":94,"time_elapsed":611763,"internal_node_id":"0.0-6.0-88.0"},{"sim_score":2,"rt":3458,"stimulus":"[\"img/0769/458d9c77-b844-40b5-bb1b-1e3bbd4da64e.jpg\",\"img/0867/aa05d113-fc19-4756-a8eb-7878f580bc92.jpg\"]","trial_type":"similarity","trial_index":95,"time_elapsed":616227,"internal_node_id":"0.0-6.0-89.0"},{"sim_score":2,"rt":2722,"stimulus":"[\"img/0874/85eb9b8a-c4c6-4e5a-b8e7-363a87a82054.jpg\",\"img/0875/5a7c4e35-6514-4e12-8879-d16071da4cd6.jpg\"]","trial_type":"similarity","trial_index":96,"time_elapsed":619955,"internal_node_id":"0.0-6.0-90.0"},{"sim_score":5,"rt":6009,"stimulus":"[\"img/0864/c3b63e8f-ea39-4d70-a1f2-b3fe4be8eb75.jpg\",\"img/0874/8cdb1c07-1c32-46d2-981c-3636560fa6e5.jpg\"]","trial_type":"similarity","trial_index":97,"time_elapsed":626971,"internal_node_id":"0.0-6.0-91.0"},{"sim_score":2,"rt":3986,"stimulus":"[\"img/0881/adc02f34-ce97-4aef-850f-00519df06fd7.jpg\",\"img/0862/e8cc3bdf-cc43-4565-bccf-492626c70953.jpg\"]","trial_type":"similarity","trial_index":98,"time_elapsed":631963,"internal_node_id":"0.0-6.0-92.0"},{"sim_score":2,"rt":5112,"stimulus":"[\"img/0864/65210d57-1153-4657-886a-32e758f49b4a.jpg\",\"img/0881/609a5e93-38b5-4940-8627-2bf8fad7f802.jpg\"]","trial_type":"similarity","trial_index":99,"time_elapsed":638084,"internal_node_id":"0.0-6.0-93.0"},{"sim_score":2,"rt":4890,"stimulus":"[\"img/0899/b45c550b-96c3-4255-ad59-48a2b4db1c1e.jpg\",\"img/0901/6e2957f8-f5ab-46f4-87cc-bb50155a098b.jpg\"]","trial_type":"similarity","trial_index":100,"time_elapsed":643979,"internal_node_id":"0.0-6.0-94.0"},{"sim_score":5,"rt":5994,"stimulus":"[\"img/0874/ca23d307-fc00-4d7d-9106-584c6eb21b4d.jpg\",\"img/0766/214866ee-423d-4629-9bb9-41572bdc7dac.jpg\"]","trial_type":"similarity","trial_index":101,"time_elapsed":650980,"internal_node_id":"0.0-6.0-95.0"},{"sim_score":5,"rt":4803,"stimulus":"[\"img/0881/ed4c971f-0873-4fc8-b6d6-e8bbd82f0bcc.jpg\",\"img/0899/76ad07e2-ca25-45eb-84f2-8d80b8ca3e26.jpg\"]","trial_type":"similarity","trial_index":102,"time_elapsed":656788,"internal_node_id":"0.0-6.0-96.0"},{"sim_score":3,"rt":5563,"stimulus":"[\"img/0862/1c20f772-3a51-4a80-aac0-f57dc9f86c28.jpg\",\"img/0902/31abfa33-7cdb-44ad-968e-9f7b324d577a.jpg\"]","trial_type":"similarity","trial_index":103,"time_elapsed":663356,"internal_node_id":"0.0-6.0-97.0"},{"sim_score":5,"rt":5684,"stimulus":"[\"img/0899/0e1d936a-dbe2-4afc-9f19-7b7a1ae6c9ed.jpg\",\"img/0764/7f4ee8e3-9315-4a57-be7d-db8454b33766.jpg\"]","trial_type":"similarity","trial_index":104,"time_elapsed":670044,"internal_node_id":"0.0-6.0-98.0"},{"sim_score":2,"rt":4995,"stimulus":"[\"img/0758/821c68d3-5cb0-4eae-8659-30e6263fca39.jpg\",\"img/0862/4f0a3b4c-afbf-486e-b248-1d54982f54b4.jpg\"]","trial_type":"similarity","trial_index":105,"time_elapsed":676044,"internal_node_id":"0.0-6.0-99.0"},{"sim_score":2,"rt":3392,"stimulus":"[\"img/0764/d0bef2e0-e16b-4c82-9451-c1d16265eb67.jpg\",\"img/0898/ec565187-2e31-4fdd-9a5c-153d0c789ae0.jpg\"]","trial_type":"similarity","trial_index":106,"time_elapsed":680445,"internal_node_id":"0.0-6.0-100.0"},{"sim_score":2,"rt":5231,"stimulus":"[\"img/0901/ae1e6ce4-2e10-4ca9-b1e7-21628637ab74.jpg\",\"img/0902/01b41522-de46-4c3a-b0af-a61b2682b40e.jpg\"]","trial_type":"similarity","trial_index":107,"time_elapsed":686684,"internal_node_id":"0.0-6.0-101.0"},{"sim_score":2,"rt":3327,"stimulus":"[\"img/0764/cffc80b0-4a90-4acb-a530-6f480f3ca303.jpg\",\"img/0868/e0aff734-077f-40dd-9781-74821abd3621.jpg\"]","trial_type":"similarity","trial_index":108,"time_elapsed":691020,"internal_node_id":"0.0-6.0-102.0"},{"sim_score":3,"rt":6019,"stimulus":"[\"img/0769/387a9744-d6a7-42b8-bab8-33007ec434aa.jpg\",\"img/0881/2a8413be-fec2-4de6-88ad-614dd4cccc9d.jpg\"]","trial_type":"similarity","trial_index":109,"time_elapsed":698043,"internal_node_id":"0.0-6.0-103.0"},{"sim_score":2,"rt":3506,"stimulus":"[\"img/0864/300bb811-8b3c-4c42-8653-6097c3725197.jpg\",\"img/0769/7c50e5f5-cc38-4d48-b009-fbe17bcea61c.jpg\"]","trial_type":"similarity","trial_index":110,"time_elapsed":702556,"internal_node_id":"0.0-6.0-104.0"},{"sim_score":3,"rt":5521,"stimulus":"[\"img/0866/d266fece-59b3-46fa-b69f-96f6efb81b59.jpg\",\"img/0868/83b4350a-3b70-4cea-b7f5-b5b56f3050a8.jpg\"]","trial_type":"similarity","trial_index":111,"time_elapsed":709083,"internal_node_id":"0.0-6.0-105.0"},{"sim_score":2,"rt":3825,"stimulus":"[\"img/0868/0d3abd3a-b6c3-4584-a9f7-e2da63748b3d.jpg\",\"img/0862/ba89835a-408c-480b-8594-ed4ffa97eb5c.jpg\"]","trial_type":"similarity","trial_index":112,"time_elapsed":713915,"internal_node_id":"0.0-6.0-106.0"},{"sim_score":2,"rt":4337,"stimulus":"[\"img/0766/ef3b15ce-abb7-4292-ad93-aec8e8b50520.jpg\",\"img/0898/993d8f2d-bef7-4251-a193-0f93a32b7763.jpg\"]","trial_type":"similarity","trial_index":113,"time_elapsed":719258,"internal_node_id":"0.0-6.0-107.0"},{"sim_score":2,"rt":5632,"stimulus":"[\"img/0898/01bfe666-3510-4fc7-964f-d00d28732dc8.jpg\",\"img/0864/49150900-7f25-4ce8-8d10-9b47a71d1997.jpg\"]","trial_type":"similarity","trial_index":114,"time_elapsed":725898,"internal_node_id":"0.0-6.0-108.0"},{"sim_score":2,"rt":3459,"stimulus":"[\"img/0868/293079b8-7e0c-4afd-a390-1e5d35fe3ded.jpg\",\"img/0902/82d20e8c-2162-47a6-925b-52906558c046.jpg\"]","trial_type":"similarity","trial_index":115,"time_elapsed":730363,"internal_node_id":"0.0-6.0-109.0"},{"sim_score":3,"rt":6474,"stimulus":"[\"img/0904/0d17b811-063e-416e-a23c-3b3cfa4fcce5.jpg\",\"img/0764/23ea9375-f801-4a96-9925-7d453da887c7.jpg\"]","trial_type":"similarity","trial_index":116,"time_elapsed":737843,"internal_node_id":"0.0-6.0-110.0"},{"sim_score":2,"rt":3627,"stimulus":"[\"img/0894/76c1201f-8524-4865-85e6-dda8cb4ac986.jpg\",\"img/0875/90da8d75-108a-44ad-b999-e21fee3860d3.jpg\"]","trial_type":"similarity","trial_index":117,"time_elapsed":742474,"internal_node_id":"0.0-6.0-111.0"},{"sim_score":2,"rt":3023,"stimulus":"[\"img/0868/1a62b2b2-18f5-466e-b564-5176a57c565e.jpg\",\"img/0874/767f289c-9814-4496-803f-745cc8913d1f.jpg\"]","trial_type":"similarity","trial_index":118,"time_elapsed":746507,"internal_node_id":"0.0-6.0-112.0"},{"sim_score":5,"rt":5522,"stimulus":"[\"img/0904/0d25eb24-bb20-4e8d-9787-8b489558b4cb.jpg\",\"img/0898/f3a3f225-1248-4ac7-b93b-f0ff28485bf3.jpg\"]","trial_type":"similarity","trial_index":119,"time_elapsed":757265,"internal_node_id":"0.0-6.0-113.0"},{"sim_score":2,"rt":4741,"stimulus":"[\"img/0860/61fb959d-d4d9-4de4-9e4e-4fa62b4cfcd5.jpg\",\"img/0766/33aa9ebb-c9f5-418f-8c8b-c77861889568.jpg\"]","trial_type":"similarity","trial_index":120,"time_elapsed":763010,"internal_node_id":"0.0-6.0-114.0"},{"sim_score":2,"rt":5148,"stimulus":"[\"img/0894/2d2db7b3-e8a3-499b-b63a-14f51bf73882.jpg\",\"img/0874/2c9464dd-8a23-4baa-ac94-1ba3af5c15cc.jpg\"]","trial_type":"similarity","trial_index":121,"time_elapsed":769163,"internal_node_id":"0.0-6.0-115.0"},{"sim_score":2,"rt":4156,"stimulus":"[\"img/0899/93494f3b-d539-4075-b027-d82e344563da.jpg\",\"img/0903/0e5c2854-42aa-48c0-9c3d-6e1ad2a400bd.jpg\"]","trial_type":"similarity","trial_index":122,"time_elapsed":774323,"internal_node_id":"0.0-6.0-116.0"},{"sim_score":2,"rt":4995,"stimulus":"[\"img/0881/ee44e27f-d662-4608-b265-e7ffa19b216f.jpg\",\"img/0764/cbdc4f20-3a9a-4211-9b40-090699e0abcc.jpg\"]","trial_type":"similarity","trial_index":123,"time_elapsed":780323,"internal_node_id":"0.0-6.0-117.0"},{"sim_score":2,"rt":5305,"stimulus":"[\"img/0903/31b5a5f4-b695-4af1-bad2-a19650a05498.jpg\",\"img/0769/1afb527f-9887-428c-bd26-a12c2f9efb68.jpg\"]","trial_type":"similarity","trial_index":124,"time_elapsed":786635,"internal_node_id":"0.0-6.0-118.0"},{"sim_score":2,"rt":4722,"stimulus":"[\"img/0901/da4fe30f-d12a-491e-96a2-5ab8ebaadd09.jpg\",\"img/0904/96e503ea-6630-4996-85f2-0237688ce441.jpg\"]","trial_type":"similarity","trial_index":125,"time_elapsed":792362,"internal_node_id":"0.0-6.0-119.0"},{"sim_score":2,"rt":3100,"stimulus":"[\"img/0860/4a022222-056d-461c-ab02-39fac9647552.jpg\",\"img/0881/e6746727-7f89-47ec-b939-d98abe78372d.jpg\"]","trial_type":"similarity","trial_index":126,"time_elapsed":796466,"internal_node_id":"0.0-6.0-120.0"},{"sim_score":3,"rt":8185,"stimulus":"[\"img/0758/b76ceca7-95ac-46e4-ac13-da02c8e93be9.jpg\",\"img/0874/c0378dac-9370-439a-8b79-db27c96fb390.jpg\"]","trial_type":"similarity","trial_index":127,"time_elapsed":805659,"internal_node_id":"0.0-6.0-121.0"},{"sim_score":2,"rt":3058,"stimulus":"[\"img/0901/0f670aef-ac36-496d-8142-ee5fdb21dd82.jpg\",\"img/0769/965c3c44-d9e5-47c5-b61a-2bbdf4215d9a.jpg\"]","trial_type":"similarity","trial_index":128,"time_elapsed":809723,"internal_node_id":"0.0-6.0-122.0"},{"sim_score":3,"rt":6520,"stimulus":"[\"img/0902/ca3160ba-ad5d-459f-a1b6-8b4f3c85ecd5.jpg\",\"img/0904/56e73f28-7e64-489b-a161-e6b1a063878d.jpg\"]","trial_type":"similarity","trial_index":129,"time_elapsed":817251,"internal_node_id":"0.0-6.0-123.0"},{"sim_score":5,"rt":6747,"stimulus":"[\"img/0899/ddf96ade-692e-4602-bd22-dedbb46401bc.jpg\",\"img/0864/b3c4e378-28f0-4699-9338-2a257b4bca04.jpg\"]","trial_type":"similarity","trial_index":130,"time_elapsed":825003,"internal_node_id":"0.0-6.0-124.0"},{"sim_score":2,"rt":3125,"stimulus":"[\"img/0766/110832e5-2646-4bd0-a94e-5df8cc314269.jpg\",\"img/0868/fd307a36-9a3a-47d7-ab7c-f810d0b35040.jpg\"]","trial_type":"similarity","trial_index":131,"time_elapsed":829132,"internal_node_id":"0.0-6.0-125.0"},{"sim_score":3,"rt":6018,"stimulus":"[\"img/0764/e48e6c6f-9e28-420f-836a-8043b2319bb4.jpg\",\"img/0864/a248adb3-c70b-4652-b7a3-776d2a1e904b.jpg\"]","trial_type":"similarity","trial_index":132,"time_elapsed":836155,"internal_node_id":"0.0-6.0-126.0"},{"sim_score":2,"rt":3908,"stimulus":"[\"img/0899/7b7380d5-d2be-44e5-a09a-c1756f87ef71.jpg\",\"img/0866/bf14b5bd-fb55-47db-86b9-4f8aeb9a6dad.jpg\"]","trial_type":"similarity","trial_index":133,"time_elapsed":841067,"internal_node_id":"0.0-6.0-127.0"},{"sim_score":2,"rt":4377,"stimulus":"[\"img/0901/f1116359-1ff1-4638-b3b3-700918d36d18.jpg\",\"img/0881/7e822106-76f7-4b10-a805-14dc68b2cfaf.jpg\"]","trial_type":"similarity","trial_index":134,"time_elapsed":846452,"internal_node_id":"0.0-6.0-128.0"},{"sim_score":5,"rt":5162,"stimulus":"[\"img/0898/82231d4c-218b-4d0a-b50d-35a49b524e97.jpg\",\"img/0903/8635cf25-2648-4fe9-8c42-79d2598e999c.jpg\"]","trial_type":"similarity","trial_index":135,"time_elapsed":852621,"internal_node_id":"0.0-6.0-129.0"},{"sim_score":2,"rt":4161,"stimulus":"[\"img/0894/6aa5545f-fa7d-4286-bbaa-aaf34dc7ec96.jpg\",\"img/0867/a498eef3-9fa4-4ab2-9778-4ae82ac40dc5.jpg\"]","trial_type":"similarity","trial_index":136,"time_elapsed":857787,"internal_node_id":"0.0-6.0-130.0"},{"sim_score":2,"rt":3498,"stimulus":"[\"img/0874/a82926a3-0b43-4add-803c-d5f9ea7798ee.jpg\",\"img/0903/f45a103c-9bfe-49fd-ad96-bdd8d2589195.jpg\"]","trial_type":"similarity","trial_index":137,"time_elapsed":862291,"internal_node_id":"0.0-6.0-131.0"},{"sim_score":2,"rt":4961,"stimulus":"[\"img/0899/d60714ae-98d7-4564-8c98-94dba1351135.jpg\",\"img/0898/08c72dac-f8ad-407a-9ce6-8c9a5d679c3a.jpg\"]","trial_type":"similarity","trial_index":138,"time_elapsed":868260,"internal_node_id":"0.0-6.0-132.0"},{"sim_score":2,"rt":3203,"stimulus":"[\"img/0867/50a1b60e-3a29-44bf-b606-d4bd3746fea9.jpg\",\"img/0764/f713847b-4832-42d1-8fb3-e17e37fd745c.jpg\"]","trial_type":"similarity","trial_index":139,"time_elapsed":872468,"internal_node_id":"0.0-6.0-133.0"},{"sim_score":2,"rt":3778,"stimulus":"[\"img/0866/c446214b-a368-4c65-ae39-ea46894256ab.jpg\",\"img/0769/b664b502-a86c-46c1-ad6f-5ebffc2e1bd3.jpg\"]","trial_type":"similarity","trial_index":140,"time_elapsed":877251,"internal_node_id":"0.0-6.0-134.0"},{"sim_score":2,"rt":7768,"stimulus":"[\"img/0860/4f695df5-afac-4da7-9875-fee39b0b24ad.jpg\",\"img/0898/c3cecf20-f7fd-45fa-97d0-dc0a63e8d6c0.jpg\"]","trial_type":"similarity","trial_index":141,"time_elapsed":886028,"internal_node_id":"0.0-6.0-135.0"},{"sim_score":2,"rt":4242,"stimulus":"[\"img/0881/633c6f40-56d9-4b48-bf1c-ecd83116eabb.jpg\",\"img/0903/365f176c-25a4-4973-bd3c-279bf1b39476.jpg\"]","trial_type":"similarity","trial_index":142,"time_elapsed":891275,"internal_node_id":"0.0-6.0-136.0"},{"sim_score":5,"rt":6831,"stimulus":"[\"img/0894/4739e06d-c31e-4bf1-bf91-c97fa9afb456.jpg\",\"img/0766/d50d734f-285c-4840-bc7a-c8dd4aff391e.jpg\"]","trial_type":"similarity","trial_index":143,"time_elapsed":899115,"internal_node_id":"0.0-6.0-137.0"},{"sim_score":2,"rt":3181,"stimulus":"[\"img/0860/c5ccd1a4-4bb7-48e1-9b25-72cfaf06909b.jpg\",\"img/0764/e30dba15-e68a-4659-89db-e1654b52fe02.jpg\"]","trial_type":"similarity","trial_index":144,"time_elapsed":903299,"internal_node_id":"0.0-6.0-138.0"},{"sim_score":3,"rt":7449,"stimulus":"[\"img/0769/ebef2ddc-ba59-4e0e-97f8-927864eb5081.jpg\",\"img/0902/0c760cc9-10ac-429e-8957-a7d51fc99683.jpg\"]","trial_type":"similarity","trial_index":145,"time_elapsed":911754,"internal_node_id":"0.0-6.0-139.0"},{"sim_score":3,"rt":5760,"stimulus":"[\"img/0904/6291eb43-c10c-4810-a36a-101d09868b04.jpg\",\"img/0903/d987e220-f3e6-4b6d-a270-fe6757041f6d.jpg\"]","trial_type":"similarity","trial_index":146,"time_elapsed":918523,"internal_node_id":"0.0-6.0-140.0"},{"sim_score":3,"rt":6227,"stimulus":"[\"img/0764/f990b2e8-ecee-481e-be7c-0239fce350e2.jpg\",\"img/0769/8056889f-2b14-4782-bb25-b4e8896ab65b.jpg\"]","trial_type":"similarity","trial_index":147,"time_elapsed":925755,"internal_node_id":"0.0-6.0-141.0"},{"sim_score":2,"rt":5330,"stimulus":"[\"img/0902/168ebd47-9e82-4ab7-a18b-c3da85072db8.jpg\",\"img/0881/344de456-b358-4887-bd0e-e4c3278af887.jpg\"]","trial_type":"similarity","trial_index":148,"time_elapsed":932090,"internal_node_id":"0.0-6.0-142.0"},{"sim_score":2,"rt":2864,"stimulus":"[\"img/0866/620cd1aa-0800-4414-8f6e-90342e7a99ad.jpg\",\"img/0864/3651d070-2fc5-4848-b6a6-088a2d9ac5c9.jpg\"]","trial_type":"similarity","trial_index":149,"time_elapsed":935962,"internal_node_id":"0.0-6.0-143.0"},{"sim_score":5,"rt":5442,"stimulus":"[\"img/0902/40d0b6ec-3907-4573-b227-e7d8e9cad1c3.jpg\",\"img/0898/81b08535-2020-4c15-9ce4-2f1e460755ae.jpg\"]","trial_type":"similarity","trial_index":150,"time_elapsed":942410,"internal_node_id":"0.0-6.0-144.0"},{"sim_score":5,"rt":7437,"stimulus":"[\"img/0862/7918ca67-5bd3-4606-a5ea-c39fb11a9297.jpg\",\"img/0864/6f631579-acf1-415c-a42c-1207f62a8d99.jpg\"]","trial_type":"similarity","trial_index":151,"time_elapsed":950852,"internal_node_id":"0.0-6.0-145.0"},{"sim_score":2,"rt":4132,"stimulus":"[\"img/0875/03c3c331-738b-4446-af92-3d7386b08c2e.jpg\",\"img/0898/0c7dde4f-efce-4b7a-9387-6921635b7890.jpg\"]","trial_type":"similarity","trial_index":152,"time_elapsed":955987,"internal_node_id":"0.0-6.0-146.0"},{"sim_score":5,"rt":5274,"stimulus":"[\"img/0874/eba003b4-cdab-4eee-8bc3-f064c7d94165.jpg\",\"img/0881/e046471a-35b4-4159-bbf7-3cfd201bef66.jpg\"]","trial_type":"similarity","trial_index":153,"time_elapsed":962268,"internal_node_id":"0.0-6.0-147.0"},{"sim_score":2,"rt":3187,"stimulus":"[\"img/0758/2fa3e613-e676-4e6e-bd12-705327eeb3e1.jpg\",\"img/0894/7dd6ff43-f8fc-408a-8a41-a2b261871820.jpg\"]","trial_type":"similarity","trial_index":154,"time_elapsed":966460,"internal_node_id":"0.0-6.0-148.0"},{"sim_score":2,"rt":4313,"stimulus":"[\"img/0904/09934646-45d2-4147-8fec-64a22a5ac822.jpg\",\"img/0864/f92649a2-0590-4d31-9a7a-1bfb81666a2d.jpg\"]","trial_type":"similarity","trial_index":155,"time_elapsed":971779,"internal_node_id":"0.0-6.0-149.0"},{"sim_score":3,"rt":8874,"stimulus":"[\"img/0769/35364db7-e0d5-40ef-93dc-faf9dfb95136.jpg\",\"img/0899/0433d056-aa30-4f8a-9aa1-abbb951e4edd.jpg\"]","trial_type":"similarity","trial_index":156,"time_elapsed":981660,"internal_node_id":"0.0-6.0-150.0"},{"sim_score":5,"rt":5651,"stimulus":"[\"img/0764/f2f23359-8e82-41d3-8900-5b9f4433991d.jpg\",\"img/0903/70d764d9-1f35-4da7-a35d-4cc39834d270.jpg\"]","trial_type":"similarity","trial_index":157,"time_elapsed":992803,"internal_node_id":"0.0-6.0-151.0"},{"sim_score":5,"rt":6028,"stimulus":"[\"img/0903/39365c8e-a733-4801-ac7d-b87e38c3784b.jpg\",\"img/0864/da39ad34-04e0-40d4-a724-c08d53e0ea09.jpg\"]","trial_type":"similarity","trial_index":158,"time_elapsed":999835,"internal_node_id":"0.0-6.0-152.0"},{"sim_score":2,"rt":5093,"stimulus":"[\"img/0894/1a010553-d598-4b06-a772-81f1e7b3addb.jpg\",\"img/0881/0c7068da-d0d9-4103-bda1-74ef7a2b32c3.jpg\"]","trial_type":"similarity","trial_index":159,"time_elapsed":1005934,"internal_node_id":"0.0-6.0-153.0"},{"sim_score":5,"rt":5652,"stimulus":"[\"img/0875/2e13d160-eea1-416b-aff1-d37ab99ecc1d.jpg\",\"img/0867/bf560d4f-dee3-4f11-a385-705cc1aa5f3c.jpg\"]","trial_type":"similarity","trial_index":160,"time_elapsed":1012590,"internal_node_id":"0.0-6.0-154.0"},{"sim_score":2,"rt":3016,"stimulus":"[\"img/0867/c71dc569-f49c-4397-8381-68b8d726736d.jpg\",\"img/0758/65d426d6-3ff6-415d-8654-a43b83ecc4fe.jpg\"]","trial_type":"similarity","trial_index":161,"time_elapsed":1016612,"internal_node_id":"0.0-6.0-155.0"},{"sim_score":2,"rt":3019,"stimulus":"[\"img/0868/179a5502-ab5c-478e-8263-5a1fbcc101d2.jpg\",\"img/0901/deff6cfb-0072-4490-bc3e-206bbcd3e8bf.jpg\"]","trial_type":"similarity","trial_index":162,"time_elapsed":1020637,"internal_node_id":"0.0-6.0-156.0"},{"sim_score":5,"rt":5475,"stimulus":"[\"img/0769/022c7e3b-c3f2-4119-b4bc-f22fa7cae18c.jpg\",\"img/0894/e6385e52-6c35-43bd-b0af-bc803d107b11.jpg\"]","trial_type":"similarity","trial_index":163,"time_elapsed":1027116,"internal_node_id":"0.0-6.0-157.0"},{"sim_score":2,"rt":3212,"stimulus":"[\"img/0904/2fd488e9-960f-41f7-8a44-33375f7d5051.jpg\",\"img/0758/d57c2592-a317-4f63-91be-91a3a9afd222.jpg\"]","trial_type":"similarity","trial_index":164,"time_elapsed":1031332,"internal_node_id":"0.0-6.0-158.0"},{"sim_score":2,"rt":4132,"stimulus":"[\"img/0874/ca76a855-4e77-4f2f-872a-0a718153e7ed.jpg\",\"img/0904/9dd5708f-3f8b-46a9-b49f-2f2fab87b357.jpg\"]","trial_type":"similarity","trial_index":165,"time_elapsed":1036467,"internal_node_id":"0.0-6.0-159.0"},{"sim_score":2,"rt":3732,"stimulus":"[\"img/0864/66091c27-e588-4476-8af9-265dc6be4156.jpg\",\"img/0901/62315ff5-ed95-46b4-b099-92552079659b.jpg\"]","trial_type":"similarity","trial_index":166,"time_elapsed":1041203,"internal_node_id":"0.0-6.0-160.0"},{"sim_score":2,"rt":4744,"stimulus":"[\"img/0898/a114b375-cb89-44ba-9498-74213f1ecdee.jpg\",\"img/0866/93a27239-8317-4e08-98ca-d8b1ff298e07.jpg\"]","trial_type":"similarity","trial_index":167,"time_elapsed":1046956,"internal_node_id":"0.0-6.0-161.0"},{"sim_score":2,"rt":4651,"stimulus":"[\"img/0766/908bc45b-7c9e-4f95-806e-86b196ebcb2c.jpg\",\"img/0903/a0673b55-6040-47fe-9040-24bca27ca3c9.jpg\"]","trial_type":"similarity","trial_index":168,"time_elapsed":1052611,"internal_node_id":"0.0-6.0-162.0"},{"sim_score":2,"rt":3428,"stimulus":"[\"img/0860/524b2e98-5767-4d53-942c-ebae6925659b.jpg\",\"img/0899/56a605c3-d0a2-4215-89e1-779279d85a7c.jpg\"]","trial_type":"similarity","trial_index":169,"time_elapsed":1057043,"internal_node_id":"0.0-6.0-163.0"},{"sim_score":2,"rt":4412,"stimulus":"[\"img/0766/989c5c7f-1aff-4442-ac63-9d46acf4a891.jpg\",\"img/0862/ee3b7bff-4a70-4e84-9bea-4a565e456acb.jpg\"]","trial_type":"similarity","trial_index":170,"time_elapsed":1062460,"internal_node_id":"0.0-6.0-164.0"},{"sim_score":2,"rt":5195,"stimulus":"[\"img/0898/a8f16b02-e19f-423b-86c3-a36562ae1f9b.jpg\",\"img/0894/05161000-f476-499b-a878-c13c7f347fd9.jpg\"]","trial_type":"similarity","trial_index":171,"time_elapsed":1068660,"internal_node_id":"0.0-6.0-165.0"},{"sim_score":2,"rt":3258,"stimulus":"[\"img/0867/85a96c62-548f-4994-9553-819e03c3135a.jpg\",\"img/0766/d5d38751-8fa5-476f-93e9-86ed2d9045ef.jpg\"]","trial_type":"similarity","trial_index":172,"time_elapsed":1072924,"internal_node_id":"0.0-6.0-166.0"},{"sim_score":2,"rt":5435,"stimulus":"[\"img/0904/06dacdc5-2206-4fb8-92b7-88042d22833c.jpg\",\"img/0862/fb26cb07-d5a9-4653-813c-f41609f26cd5.jpg\"]","trial_type":"similarity","trial_index":173,"time_elapsed":1079363,"internal_node_id":"0.0-6.0-167.0"},{"sim_score":2,"rt":5609,"stimulus":"[\"img/0866/07c9c966-3c8d-40e7-8128-92b2acbaed5d.jpg\",\"img/0874/93d1f8dc-acf2-4f03-bd8d-8ec35df276ed.jpg\"]","trial_type":"similarity","trial_index":174,"time_elapsed":1085979,"internal_node_id":"0.0-6.0-168.0"},{"sim_score":2,"rt":4610,"stimulus":"[\"img/0903/8f7f9939-b8e6-433f-93dd-b362496c80a7.jpg\",\"img/0868/d6d1f30d-4323-435a-b194-7892521bc57e.jpg\"]","trial_type":"similarity","trial_index":175,"time_elapsed":1091595,"internal_node_id":"0.0-6.0-169.0"},{"sim_score":3,"rt":12378,"stimulus":"[\"img/0769/8598a429-c671-4d2f-842c-32f681f5e412.jpg\",\"img/0904/73920552-103b-4c9c-9ece-e0b8376b4504.jpg\"]","trial_type":"similarity","trial_index":176,"time_elapsed":1104980,"internal_node_id":"0.0-6.0-170.0"},{"sim_score":2,"rt":3224,"stimulus":"[\"img/0875/8521fd58-3b1e-4dc5-97ae-804edfa6734a.jpg\",\"img/0764/83c93cce-18d1-4aa7-9e23-2c268afe0a46.jpg\"]","trial_type":"similarity","trial_index":177,"time_elapsed":1109211,"internal_node_id":"0.0-6.0-171.0"},{"sim_score":2,"rt":5043,"stimulus":"[\"img/0860/17b44a7d-c5ca-479f-9e87-f65a64f5c80e.jpg\",\"img/0903/b4a0f61e-a964-4b79-a9a7-f767a8f92f34.jpg\"]","trial_type":"similarity","trial_index":178,"time_elapsed":1115260,"internal_node_id":"0.0-6.0-172.0"},{"sim_score":2,"rt":3388,"stimulus":"[\"img/0864/4bd81bc6-c13d-46df-95a9-485886dc7c1b.jpg\",\"img/0867/7d1c497b-c1b3-4ed8-abb5-d7f73306015f.jpg\"]","trial_type":"similarity","trial_index":179,"time_elapsed":1119652,"internal_node_id":"0.0-6.0-173.0"},{"sim_score":2,"rt":5576,"stimulus":"[\"img/0868/4e626425-63c8-484a-8a1d-e66ee4e0bef8.jpg\",\"img/0864/87c467d3-abca-482f-ad80-3766c21b1bb3.jpg\"]","trial_type":"similarity","trial_index":180,"time_elapsed":1126235,"internal_node_id":"0.0-6.0-174.0"},{"sim_score":3,"rt":5762,"stimulus":"[\"img/0898/cd3aaa3f-efa9-4ab3-8d6f-a6a9273ddf42.jpg\",\"img/0769/82ab9db6-4578-4e79-874f-f09100439f09.jpg\"]","trial_type":"similarity","trial_index":181,"time_elapsed":1133004,"internal_node_id":"0.0-6.0-175.0"},{"sim_score":6,"rt":6779,"stimulus":"[\"img/0766/d3bab2fc-ddcc-40a0-bb72-c0d0ebe19978.jpg\",\"img/0764/b8e23f4f-ff19-4472-ad9b-2f85548ebca0.jpg\"]","trial_type":"similarity","trial_index":182,"time_elapsed":1140788,"internal_node_id":"0.0-6.0-176.0"},{"sim_score":2,"rt":4907,"stimulus":"[\"img/0764/bc3865c9-9004-4582-88a7-048478673f97.jpg\",\"img/0866/02f5e6b9-52b7-448c-9708-5b460d0c9a23.jpg\"]","trial_type":"similarity","trial_index":183,"time_elapsed":1146699,"internal_node_id":"0.0-6.0-177.0"},{"sim_score":2,"rt":3674,"stimulus":"[\"img/0902/417d8b4a-3c72-4adc-ac78-820e833316f2.jpg\",\"img/0875/f87b67d7-c33e-40d1-b281-248c4be1cb6e.jpg\"]","trial_type":"similarity","trial_index":184,"time_elapsed":1151380,"internal_node_id":"0.0-6.0-178.0"},{"sim_score":2,"rt":4908,"stimulus":"[\"img/0881/f62bdcd1-a4b7-4d48-83da-d9c9e01c8727.jpg\",\"img/0904/4e58005d-a2ec-4aaa-b199-445343561396.jpg\"]","trial_type":"similarity","trial_index":185,"time_elapsed":1157291,"internal_node_id":"0.0-6.0-179.0"},{"sim_score":3,"rt":6746,"stimulus":"[\"img/0874/3f471690-9788-4d03-90c7-f615aecef149.jpg\",\"img/0860/c7047cd2-7cc1-41b6-8a34-c0986774975f.jpg\"]","trial_type":"similarity","trial_index":186,"time_elapsed":1165044,"internal_node_id":"0.0-6.0-180.0"},{"sim_score":2,"rt":5931,"stimulus":"[\"img/0769/da36e3f7-2337-434f-ab57-11822dd7eed7.jpg\",\"img/0874/31e22c7c-99aa-40b1-bf03-dd73fa2df4d6.jpg\"]","trial_type":"similarity","trial_index":187,"time_elapsed":1171979,"internal_node_id":"0.0-6.0-181.0"},{"sim_score":3,"rt":6744,"stimulus":"[\"img/0904/ba8e689e-9ca6-4608-a2a1-3b0940666ae6.jpg\",\"img/0766/fd064894-7147-4af5-97e9-2089d5472656.jpg\"]","trial_type":"similarity","trial_index":188,"time_elapsed":1179732,"internal_node_id":"0.0-6.0-182.0"},{"sim_score":5,"rt":9226,"stimulus":"[\"img/0902/f3cfec34-482c-4bdb-9c92-19ea6cfce183.jpg\",\"img/0764/06ea144f-f4f3-4a14-ba47-f20f35c561e0.jpg\"]","trial_type":"similarity","trial_index":189,"time_elapsed":1189964,"internal_node_id":"0.0-6.0-183.0"},{"sim_score":2,"rt":3956,"stimulus":"[\"img/0769/75f7e514-0548-4329-b1e4-93c05e74f038.jpg\",\"img/0875/3ecb367d-e9eb-4826-8aaa-7aa72fb98019.jpg\"]","trial_type":"similarity","trial_index":190,"time_elapsed":1194924,"internal_node_id":"0.0-6.0-184.0"},{"sim_score":2,"rt":3515,"stimulus":"[\"img/0867/f8159067-056c-41f1-a136-c529fe5e970a.jpg\",\"img/0903/c3cb4a01-2797-43ca-b216-88c67b323fbb.jpg\"]","trial_type":"similarity","trial_index":191,"time_elapsed":1199443,"internal_node_id":"0.0-6.0-185.0"},{"sim_score":2,"rt":4127,"stimulus":"[\"img/0862/eefa5588-9efd-4591-aa5f-a2e17c7d7bcc.jpg\",\"img/0769/662ab839-88d1-4ebf-af05-9b2980cad943.jpg\"]","trial_type":"similarity","trial_index":192,"time_elapsed":1204580,"internal_node_id":"0.0-6.0-186.0"},{"sim_score":2,"rt":3307,"stimulus":"[\"img/0766/5d6e0d1d-4369-41f0-a64c-91f3503055c7.jpg\",\"img/0866/a04d37f0-99dd-478a-b6c6-58b215138f84.jpg\"]","trial_type":"similarity","trial_index":193,"time_elapsed":1208891,"internal_node_id":"0.0-6.0-187.0"},{"sim_score":2,"rt":4280,"stimulus":"[\"img/0769/35f2dd39-40aa-498e-b401-9f1ef2622d00.jpg\",\"img/0860/94ef7afc-e0e6-4a15-98c6-0bfac82bc832.jpg\"]","trial_type":"similarity","trial_index":194,"time_elapsed":1214179,"internal_node_id":"0.0-6.0-188.0"},{"sim_score":2,"rt":3898,"stimulus":"[\"img/0881/c843e210-bdfe-4a7c-8bbe-fcea1f90fe1c.jpg\",\"img/0868/15dd6fd7-791e-4b53-b203-195d617521a4.jpg\"]","trial_type":"similarity","trial_index":195,"time_elapsed":1225059,"internal_node_id":"0.0-6.0-189.0"},{"view_history":"[{\"page_index\":0,\"viewing_time\":7175}]","rt":7176,"trial_type":"instructions","trial_index":196,"time_elapsed":1233235,"internal_node_id":"0.0-7.0"},{"rt":28987,"responses":"{\"Q0\":\"Nashville Warbler\"}","answer":["Nashville Warbler"],"trial_type":"image-multi-choice","trial_index":197,"time_elapsed":1263280,"internal_node_id":"0.0-8.0-0.0"},{"rt":15300,"responses":"{\"Q0\":\"Black-and-white Warbler\"}","answer":["Black-and-white Warbler"],"trial_type":"image-multi-choice","trial_index":198,"time_elapsed":1279597,"internal_node_id":"0.0-8.0-1.0"},{"rt":23113,"responses":"{\"Q0\":\"Blackburnian Warbler\"}","answer":["Townsend's Warbler"],"trial_type":"image-multi-choice","trial_index":199,"time_elapsed":1303725,"internal_node_id":"0.0-8.0-2.0"},{"rt":17920,"responses":"{\"Q0\":\"Lark Sparrow\"}","answer":["Lark Sparrow"],"trial_type":"image-multi-choice","trial_index":200,"time_elapsed":1322661,"internal_node_id":"0.0-8.0-3.0"},{"rt":9480,"responses":"{\"Q0\":\"Yellow Warbler\"}","answer":["Yellow Warbler"],"trial_type":"image-multi-choice","trial_index":201,"time_elapsed":1333156,"internal_node_id":"0.0-8.0-4.0"},{"rt":16594,"responses":"{\"Q0\":\"Orange-crowned Warbler\"}","answer":["Orange-crowned Warbler"],"trial_type":"image-multi-choice","trial_index":202,"time_elapsed":1350764,"internal_node_id":"0.0-8.0-5.0"},{"rt":21665,"responses":"{\"Q0\":\"White-throated Sparrow\"}","answer":["White-throated Sparrow"],"trial_type":"image-multi-choice","trial_index":203,"time_elapsed":1373445,"internal_node_id":"0.0-8.0-6.0"},{"rt":26287,"responses":"{\"Q0\":\"Fox Sparrow\"}","answer":["Fox Sparrow"],"trial_type":"image-multi-choice","trial_index":204,"time_elapsed":1400747,"internal_node_id":"0.0-8.0-7.0"},{"rt":24137,"responses":"{\"Q0\":\"Song Sparrow\"}","answer":["Song Sparrow"],"trial_type":"image-multi-choice","trial_index":205,"time_elapsed":1425899,"internal_node_id":"0.0-8.0-8.0"},{"rt":46594,"responses":"{\"Q0\":\"Blackburnian Warbler\"}","answer":["Blackburnian Warbler"],"trial_type":"image-multi-choice","trial_index":206,"time_elapsed":1473507,"internal_node_id":"0.0-8.0-9.0"},{"rt":25625,"responses":"{\"Q0\":\"American Tree Sparrow\"}","answer":["Vesper Sparrow"],"trial_type":"image-multi-choice","trial_index":207,"time_elapsed":1500147,"internal_node_id":"0.0-8.0-10.0"},{"rt":8641,"responses":"{\"Q0\":\"White-crowned Sparrow\"}","answer":["White-crowned Sparrow"],"trial_type":"image-multi-choice","trial_index":208,"time_elapsed":1509803,"internal_node_id":"0.0-8.0-11.0"},{"rt":30442,"responses":"{\"Q0\":\"American Tree Sparrow\"}","answer":["American Tree Sparrow"],"trial_type":"image-multi-choice","trial_index":209,"time_elapsed":1541261,"internal_node_id":"0.0-8.0-12.0"},{"rt":11854,"responses":"{\"Q0\":\"Tennessee Warbler\"}","answer":["Tennessee Warbler"],"trial_type":"image-multi-choice","trial_index":210,"time_elapsed":1554132,"internal_node_id":"0.0-8.0-13.0"},{"rt":8568,"responses":"{\"Q0\":\"Magnolia Warbler\"}","answer":["Magnolia Warbler"],"trial_type":"image-multi-choice","trial_index":211,"time_elapsed":1563716,"internal_node_id":"0.0-8.0-14.0"},{"rt":12769,"responses":"{\"Q0\":\"Northern Waterthrush\"}","answer":["Northern Waterthrush"],"trial_type":"image-multi-choice","trial_index":212,"time_elapsed":1577501,"internal_node_id":"0.0-8.0-15.0"},{"rt":14217,"responses":"{\"Q0\":\"Chipping Sparrow\"}","answer":["Chipping Sparrow"],"trial_type":"image-multi-choice","trial_index":213,"time_elapsed":1592732,"internal_node_id":"0.0-8.0-16.0"},{"rt":22160,"responses":"{\"Q0\":\"Swamp Sparrow\"}","answer":["Swamp Sparrow"],"trial_type":"image-multi-choice","trial_index":214,"time_elapsed":1615908,"internal_node_id":"0.0-8.0-17.0"},{"rt":8082,"responses":"{\"Q0\":\"Vesper Sparrow\"}","answer":["Lincoln's Sparrow"],"trial_type":"image-multi-choice","trial_index":215,"time_elapsed":1625004,"internal_node_id":"0.0-8.0-18.0"},{"rt":26057,"responses":"{\"Q0\":\"Ovenbird\"}","answer":["Ovenbird"],"trial_type":"image-multi-choice","trial_index":216,"time_elapsed":1652076,"internal_node_id":"0.0-8.0-19.0"}]