[{"view_history":"[{\"page_index\":0,\"viewing_time\":31305}]","rt":31306,"trial_type":"instructions","trial_index":0,"time_elapsed":31307,"internal_node_id":"0.0-0.0"},{"sim_score":7,"rt":7006,"stimulus":"[\"img/bluejay1.jpg\",\"img/bluejay2.jpg\"]","trial_type":"similarity_demo","trial_index":1,"time_elapsed":39350,"internal_node_id":"0.0-1.0"},{"view_history":"[{\"page_index\":0,\"viewing_time\":15378}]","rt":15378,"trial_type":"instructions","trial_index":2,"time_elapsed":55738,"internal_node_id":"0.0-2.0"},{"sim_score":5,"rt":4904,"stimulus":"[\"img/bluejay1.jpg\",\"img/cardinal1.jpg\"]","trial_type":"similarity_demo","trial_index":3,"time_elapsed":61661,"internal_node_id":"0.0-3.0"},{"view_history":"[{\"page_index\":0,\"viewing_time\":4879}]","rt":4879,"trial_type":"instructions","trial_index":4,"time_elapsed":67562,"internal_node_id":"0.0-4.0"},{"view_history":"[{\"page_index\":0,\"viewing_time\":68072}]","rt":68073,"trial_type":"instructions","trial_index":5,"time_elapsed":136669,"internal_node_id":"0.0-5.0"},{"sim_score":5,"rt":5106,"stimulus":"[\"img/0868/e0aff734-077f-40dd-9781-74821abd3621.jpg\",\"img/0894/3adef67d-7676-4995-80b2-bb31b8aca3ef.jpg\"]","trial_type":"similarity","trial_index":6,"time_elapsed":142813,"internal_node_id":"0.0-6.0-0.0"},{"sim_score":2,"rt":5069,"stimulus":"[\"img/0898/40f99fb2-64d2-4e72-8a7f-a1cf60741e69.jpg\",\"img/0758/f61ecdf8-a7d4-4db0-b84d-be46f7cfaffc.jpg\"]","trial_type":"similarity","trial_index":7,"time_elapsed":148926,"internal_node_id":"0.0-6.0-1.0"},{"sim_score":5,"rt":7814,"stimulus":"[\"img/0903/39365c8e-a733-4801-ac7d-b87e38c3784b.jpg\",\"img/0894/7f2f31fd-6618-41c6-b65a-0fd8b2851bc9.jpg\"]","trial_type":"similarity","trial_index":8,"time_elapsed":157776,"internal_node_id":"0.0-6.0-2.0"},{"sim_score":3,"rt":5107,"stimulus":"[\"img/0881/c24f3051-eefa-42de-aba6-fccb56d93c70.jpg\",\"img/0766/908bc45b-7c9e-4f95-806e-86b196ebcb2c.jpg\"]","trial_type":"similarity","trial_index":9,"time_elapsed":163914,"internal_node_id":"0.0-6.0-3.0"},{"sim_score":2,"rt":4437,"stimulus":"[\"img/0864/9b2490c5-a282-400a-9736-e1a0ecbf1cb7.jpg\",\"img/0860/8277806e-b684-4474-8f7b-3fca946d7d4f.jpg\"]","trial_type":"similarity","trial_index":10,"time_elapsed":169372,"internal_node_id":"0.0-6.0-4.0"},{"sim_score":1,"rt":6012,"stimulus":"[\"img/0902/2db723b6-130f-454c-8c8d-88829edbcd65.jpg\",\"img/0899/a048912c-b12c-40e3-90af-46b69b0cc4fe.jpg\"]","trial_type":"similarity","trial_index":11,"time_elapsed":176416,"internal_node_id":"0.0-6.0-5.0"},{"sim_score":1,"rt":4622,"stimulus":"[\"img/0868/4a8a45ed-2c4f-421b-9564-409a33ecd26c.jpg\",\"img/0769/35f2dd39-40aa-498e-b401-9f1ef2622d00.jpg\"]","trial_type":"similarity","trial_index":12,"time_elapsed":182078,"internal_node_id":"0.0-6.0-6.0"},{"sim_score":1,"rt":4443,"stimulus":"[\"img/0764/5c8fbafc-e62e-43ed-9b37-f73e8e45147d.jpg\",\"img/0901/1ede21d9-384f-4150-86b5-e1c57b5dc1d4.jpg\"]","trial_type":"similarity","trial_index":13,"time_elapsed":187554,"internal_node_id":"0.0-6.0-7.0"},{"sim_score":1,"rt":2970,"stimulus":"[\"img/0881/633c6f40-56d9-4b48-bf1c-ecd83116eabb.jpg\",\"img/0866/bf14b5bd-fb55-47db-86b9-4f8aeb9a6dad.jpg\"]","trial_type":"similarity","trial_index":14,"time_elapsed":191554,"internal_node_id":"0.0-6.0-8.0"},{"sim_score":2,"rt":3909,"stimulus":"[\"img/0867/6e19c858-b606-45b2-a4c6-910a73f1d82c.jpg\",\"img/0899/ad8268c5-8199-48d0-ad70-c5b6d6c599ec.jpg\"]","trial_type":"similarity","trial_index":15,"time_elapsed":196509,"internal_node_id":"0.0-6.0-9.0"},{"sim_score":1,"rt":2874,"stimulus":"[\"img/0875/dbdd643e-6d0e-4a5c-ab57-b9c29b9c981a.jpg\",\"img/0766/5d1b8041-c5a1-4b02-b4fe-3453d98a0d72.jpg\"]","trial_type":"similarity","trial_index":16,"time_elapsed":200419,"internal_node_id":"0.0-6.0-10.0"},{"sim_score":1,"rt":3783,"stimulus":"[\"img/0901/168eb52c-c415-43f1-b5c8-e76e1a1ec247.jpg\",\"img/0875/90da8d75-108a-44ad-b999-e21fee3860d3.jpg\"]","trial_type":"similarity","trial_index":17,"time_elapsed":205221,"internal_node_id":"0.0-6.0-11.0"},{"sim_score":1,"rt":4657,"stimulus":"[\"img/0902/31abfa33-7cdb-44ad-968e-9f7b324d577a.jpg\",\"img/0860/4c530c3c-6aab-492a-94d1-9c01797bde40.jpg\"]","trial_type":"similarity","trial_index":18,"time_elapsed":210917,"internal_node_id":"0.0-6.0-12.0"},{"sim_score":2,"rt":4124,"stimulus":"[\"img/0874/3f471690-9788-4d03-90c7-f615aecef149.jpg\",\"img/0867/26611f4e-d694-4460-b7e2-43c62753ddc3.jpg\"]","trial_type":"similarity","trial_index":19,"time_elapsed":216083,"internal_node_id":"0.0-6.0-13.0"},{"sim_score":4,"rt":5426,"stimulus":"[\"img/0904/1d10df11-b5c8-4370-9a6b-097a7f965895.jpg\",\"img/0866/93a27239-8317-4e08-98ca-d8b1ff298e07.jpg\"]","trial_type":"similarity","trial_index":20,"time_elapsed":222542,"internal_node_id":"0.0-6.0-14.0"},{"sim_score":2,"rt":3480,"stimulus":"[\"img/0758/b76ceca7-95ac-46e4-ac13-da02c8e93be9.jpg\",\"img/0902/82d20e8c-2162-47a6-925b-52906558c046.jpg\"]","trial_type":"similarity","trial_index":21,"time_elapsed":227054,"internal_node_id":"0.0-6.0-15.0"},{"sim_score":1,"rt":3280,"stimulus":"[\"img/0867/f8488a47-94ee-4166-952c-44e16cf172f6.jpg\",\"img/0898/c3cecf20-f7fd-45fa-97d0-dc0a63e8d6c0.jpg\"]","trial_type":"similarity","trial_index":22,"time_elapsed":231362,"internal_node_id":"0.0-6.0-16.0"},{"sim_score":2,"rt":2893,"stimulus":"[\"img/0904/09dac84f-3d1c-4445-a68e-d0389fdbf1e9.jpg\",\"img/0868/fd307a36-9a3a-47d7-ab7c-f810d0b35040.jpg\"]","trial_type":"similarity","trial_index":23,"time_elapsed":235289,"internal_node_id":"0.0-6.0-17.0"},{"sim_score":1,"rt":3175,"stimulus":"[\"img/0766/26d3ae14-8275-4e08-99b2-a6598c193ddf.jpg\",\"img/0864/0f537697-a314-47c3-a8cc-8df23b7e536c.jpg\"]","trial_type":"similarity","trial_index":24,"time_elapsed":239497,"internal_node_id":"0.0-6.0-18.0"},{"sim_score":3,"rt":4535,"stimulus":"[\"img/0899/0e1d936a-dbe2-4afc-9f19-7b7a1ae6c9ed.jpg\",\"img/0766/27f54113-8561-4568-9ffe-0a1650ae65ec.jpg\"]","trial_type":"similarity","trial_index":25,"time_elapsed":245073,"internal_node_id":"0.0-6.0-19.0"},{"sim_score":3,"rt":3485,"stimulus":"[\"img/0764/8389e74f-e0e0-435d-945f-da1f4c92ccb6.jpg\",\"img/0758/7ffbc76b-1fc1-432c-8f7e-9ec8d1b3f643.jpg\"]","trial_type":"similarity","trial_index":26,"time_elapsed":249575,"internal_node_id":"0.0-6.0-20.0"},{"sim_score":1,"rt":4738,"stimulus":"[\"img/0901/b9141736-3041-4385-a586-b1fe911c76a5.jpg\",\"img/0874/eba003b4-cdab-4eee-8bc3-f064c7d94165.jpg\"]","trial_type":"similarity","trial_index":27,"time_elapsed":255345,"internal_node_id":"0.0-6.0-21.0"},{"sim_score":1,"rt":2604,"stimulus":"[\"img/0875/cff79b3a-a797-4393-9757-6275f999ec04.jpg\",\"img/0758/e1ba5e53-addc-436a-b428-d34fc1b130dc.jpg\"]","trial_type":"similarity","trial_index":28,"time_elapsed":258967,"internal_node_id":"0.0-6.0-22.0"},{"sim_score":1,"rt":2486,"stimulus":"[\"img/0867/98d8cd96-1476-4fe0-a3a3-04f875500a1b.jpg\",\"img/0881/566f45f8-5fed-4479-a60f-26377e60a62d.jpg\"]","trial_type":"similarity","trial_index":29,"time_elapsed":262495,"internal_node_id":"0.0-6.0-23.0"},{"sim_score":1,"rt":3201,"stimulus":"[\"img/0758/335851a0-a55b-46d8-ab05-8463eda48349.jpg\",\"img/0901/00acf6c1-b66e-4060-bb04-4caf29b5a8b0.jpg\"]","trial_type":"similarity","trial_index":30,"time_elapsed":266727,"internal_node_id":"0.0-6.0-24.0"},{"sim_score":5,"rt":3393,"stimulus":"[\"img/0868/15dd6fd7-791e-4b53-b203-195d617521a4.jpg\",\"img/0875/5a716432-c6ca-4b1c-955a-2b8ac25198ee.jpg\"]","trial_type":"similarity","trial_index":31,"time_elapsed":271144,"internal_node_id":"0.0-6.0-25.0"},{"sim_score":4,"rt":3708,"stimulus":"[\"img/0903/2a9c8033-3e70-47fa-816d-97ee1813a3a3.jpg\",\"img/0901/da4fe30f-d12a-491e-96a2-5ab8ebaadd09.jpg\"]","trial_type":"similarity","trial_index":32,"time_elapsed":275891,"internal_node_id":"0.0-6.0-26.0"},{"sim_score":5,"rt":4479,"stimulus":"[\"img/0894/2217bdcd-23a7-42d3-823b-23f2488d7e87.jpg\",\"img/0899/66ab3178-c3fe-4455-ad17-d5952b08e018.jpg\"]","trial_type":"similarity","trial_index":33,"time_elapsed":281389,"internal_node_id":"0.0-6.0-27.0"},{"sim_score":1,"rt":2606,"stimulus":"[\"img/0862/92f0146c-20c4-482e-aef5-adb693790338.jpg\",\"img/0867/bf560d4f-dee3-4f11-a385-705cc1aa5f3c.jpg\"]","trial_type":"similarity","trial_index":34,"time_elapsed":285038,"internal_node_id":"0.0-6.0-28.0"},{"sim_score":1,"rt":2750,"stimulus":"[\"img/0864/65210d57-1153-4657-886a-32e758f49b4a.jpg\",\"img/0875/03c3c331-738b-4446-af92-3d7386b08c2e.jpg\"]","trial_type":"similarity","trial_index":35,"time_elapsed":288821,"internal_node_id":"0.0-6.0-29.0"},{"sim_score":5,"rt":3751,"stimulus":"[\"img/0862/fb26cb07-d5a9-4653-813c-f41609f26cd5.jpg\",\"img/0874/85eb9b8a-c4c6-4e5a-b8e7-363a87a82054.jpg\"]","trial_type":"similarity","trial_index":36,"time_elapsed":293609,"internal_node_id":"0.0-6.0-30.0"},{"sim_score":1,"rt":2738,"stimulus":"[\"img/0903/5ea5bbe0-f238-4724-abe7-9ed8dee8c0ba.jpg\",\"img/0758/53f35650-e455-4b53-8be4-c3c8271c6466.jpg\"]","trial_type":"similarity","trial_index":37,"time_elapsed":297376,"internal_node_id":"0.0-6.0-31.0"},{"sim_score":3,"rt":6270,"stimulus":"[\"img/0866/a15b02be-11bb-43e3-b0e0-ecc3bd7dfc49.jpg\",\"img/0901/b453df0b-4c39-49bb-8ced-6127efffa898.jpg\"]","trial_type":"similarity","trial_index":38,"time_elapsed":304675,"internal_node_id":"0.0-6.0-32.0"},{"sim_score":6,"rt":3692,"stimulus":"[\"img/0874/bf14b896-e930-4fd9-9c05-2e83317a2773.jpg\",\"img/0899/fd9efb43-701f-4cd6-baaa-4c38315f4bdc.jpg\"]","trial_type":"similarity","trial_index":39,"time_elapsed":309400,"internal_node_id":"0.0-6.0-33.0"},{"sim_score":6,"rt":4716,"stimulus":"[\"img/0903/36e4ab1f-caa9-40b3-8616-faada076df94.jpg\",\"img/0902/8065aa6b-4aef-4368-afa2-02c6465ca582.jpg\"]","trial_type":"similarity","trial_index":40,"time_elapsed":315150,"internal_node_id":"0.0-6.0-34.0"},{"sim_score":1,"rt":2807,"stimulus":"[\"img/0758/821c68d3-5cb0-4eae-8659-30e6263fca39.jpg\",\"img/0866/a04d37f0-99dd-478a-b6c6-58b215138f84.jpg\"]","trial_type":"similarity","trial_index":41,"time_elapsed":318980,"internal_node_id":"0.0-6.0-35.0"},{"sim_score":3,"rt":3651,"stimulus":"[\"img/0875/3ecb367d-e9eb-4826-8aaa-7aa72fb98019.jpg\",\"img/0903/470acfd5-5571-4a7b-b3a4-28d87e098138.jpg\"]","trial_type":"similarity","trial_index":42,"time_elapsed":323645,"internal_node_id":"0.0-6.0-36.0"},{"sim_score":5,"rt":8275,"stimulus":"[\"img/0864/66091c27-e588-4476-8af9-265dc6be4156.jpg\",\"img/0902/30c420f5-c714-4681-ae5a-c0ba8f636a26.jpg\"]","trial_type":"similarity","trial_index":43,"time_elapsed":340315,"internal_node_id":"0.0-6.0-37.0"},{"sim_score":2,"rt":5018,"stimulus":"[\"img/0901/3db47171-0139-4235-82cd-0b1787b6775f.jpg\",\"img/0867/a498eef3-9fa4-4ab2-9778-4ae82ac40dc5.jpg\"]","trial_type":"similarity","trial_index":44,"time_elapsed":346378,"internal_node_id":"0.0-6.0-38.0"},{"sim_score":1,"rt":3545,"stimulus":"[\"img/0862/00c06b00-3b73-44e9-bc1e-c5aafb438321.jpg\",\"img/0860/c3379ff7-0763-48fe-a1ec-7ea3d611bc7a.jpg\"]","trial_type":"similarity","trial_index":45,"time_elapsed":350950,"internal_node_id":"0.0-6.0-39.0"},{"sim_score":6,"rt":3056,"stimulus":"[\"img/0867/075e0f95-856b-4cbb-acf5-092393aaf04e.jpg\",\"img/0868/d98ca254-b195-477f-b57e-5760a2717db8.jpg\"]","trial_type":"similarity","trial_index":46,"time_elapsed":355038,"internal_node_id":"0.0-6.0-40.0"},{"sim_score":5,"rt":3857,"stimulus":"[\"img/0904/06dacdc5-2206-4fb8-92b7-88042d22833c.jpg\",\"img/0899/7f9d45d0-b2c6-40d3-aa41-c207db2c411b.jpg\"]","trial_type":"similarity","trial_index":47,"time_elapsed":359918,"internal_node_id":"0.0-6.0-41.0"},{"sim_score":2,"rt":2697,"stimulus":"[\"img/0862/4f0a3b4c-afbf-486e-b248-1d54982f54b4.jpg\",\"img/0894/2d2db7b3-e8a3-499b-b63a-14f51bf73882.jpg\"]","trial_type":"similarity","trial_index":48,"time_elapsed":363644,"internal_node_id":"0.0-6.0-42.0"},{"sim_score":1,"rt":2976,"stimulus":"[\"img/0875/d59ff733-eaff-4ee2-9443-06954dd0bcb6.jpg\",\"img/0904/0d17b811-063e-416e-a23c-3b3cfa4fcce5.jpg\"]","trial_type":"similarity","trial_index":49,"time_elapsed":367656,"internal_node_id":"0.0-6.0-43.0"},{"sim_score":3,"rt":4131,"stimulus":"[\"img/0874/2c9464dd-8a23-4baa-ac94-1ba3af5c15cc.jpg\",\"img/0898/6cd3830b-d44e-4915-be2b-88d31424b91c.jpg\"]","trial_type":"similarity","trial_index":50,"time_elapsed":372813,"internal_node_id":"0.0-6.0-44.0"},{"sim_score":1,"rt":2344,"stimulus":"[\"img/0898/ec565187-2e31-4fdd-9a5c-153d0c789ae0.jpg\",\"img/0868/179a5502-ab5c-478e-8263-5a1fbcc101d2.jpg\"]","trial_type":"similarity","trial_index":51,"time_elapsed":376174,"internal_node_id":"0.0-6.0-45.0"},{"sim_score":2,"rt":6629,"stimulus":"[\"img/0901/04a53755-6da5-44d4-a7a6-48a6bc0a2280.jpg\",\"img/0860/99c589b9-9140-4d17-90c0-b344323edcda.jpg\"]","trial_type":"similarity","trial_index":52,"time_elapsed":383828,"internal_node_id":"0.0-6.0-46.0"},{"sim_score":1,"rt":3316,"stimulus":"[\"img/0894/b422d5c6-3c5a-49ae-a53e-7e88ac993f49.jpg\",\"img/0902/511abb54-0094-4f4d-b6dc-3f2c97050521.jpg\"]","trial_type":"similarity","trial_index":53,"time_elapsed":388172,"internal_node_id":"0.0-6.0-47.0"},{"sim_score":1,"rt":2792,"stimulus":"[\"img/0764/6ef77040-1fae-4afa-bfe7-eda98e6d0376.jpg\",\"img/0862/92fcd8a4-8193-4a6a-ae09-dd4a6338b0df.jpg\"]","trial_type":"similarity","trial_index":54,"time_elapsed":392002,"internal_node_id":"0.0-6.0-48.0"},{"sim_score":2,"rt":4120,"stimulus":"[\"img/0881/f7a8cc63-8842-40a4-9ff8-fe530310d62c.jpg\",\"img/0758/20497cbe-ddae-489e-86e2-ab06985ed07c.jpg\"]","trial_type":"similarity","trial_index":55,"time_elapsed":397152,"internal_node_id":"0.0-6.0-49.0"},{"sim_score":2,"rt":6381,"stimulus":"[\"img/0766/b84598d0-5b41-4841-88b0-b441b48289f5.jpg\",\"img/0769/c34b7763-8ff2-46d5-9e92-f1d8f3bedbd8.jpg\"]","trial_type":"similarity","trial_index":56,"time_elapsed":404546,"internal_node_id":"0.0-6.0-50.0"},{"sim_score":2,"rt":4656,"stimulus":"[\"img/0875/8521fd58-3b1e-4dc5-97ae-804edfa6734a.jpg\",\"img/0866/0207e9a2-7dbb-40b5-9459-b472aaeceb2a.jpg\"]","trial_type":"similarity","trial_index":57,"time_elapsed":410239,"internal_node_id":"0.0-6.0-51.0"},{"sim_score":5,"rt":3439,"stimulus":"[\"img/0894/a98416c0-51e2-4960-85da-d81d8688b9d5.jpg\",\"img/0904/2c98dc56-88d1-4fb5-a999-b6a7861f65f0.jpg\"]","trial_type":"similarity","trial_index":58,"time_elapsed":414709,"internal_node_id":"0.0-6.0-52.0"},{"sim_score":2,"rt":5384,"stimulus":"[\"img/0758/d41c06bf-ebaf-454b-91c6-1a17f917b659.jpg\",\"img/0769/da36e3f7-2337-434f-ab57-11822dd7eed7.jpg\"]","trial_type":"similarity","trial_index":59,"time_elapsed":421116,"internal_node_id":"0.0-6.0-53.0"},{"sim_score":1,"rt":4695,"stimulus":"[\"img/0902/7499db23-3a41-41ea-ab5b-6ab4d4c3ed35.jpg\",\"img/0874/93d1f8dc-acf2-4f03-bd8d-8ec35df276ed.jpg\"]","trial_type":"similarity","trial_index":60,"time_elapsed":426847,"internal_node_id":"0.0-6.0-54.0"},{"sim_score":4,"rt":5789,"stimulus":"[\"img/0903/14f179a2-8786-48a2-8377-88d1d404341b.jpg\",\"img/0862/847e5208-38ec-4f36-949c-296cdd7424ee.jpg\"]","trial_type":"similarity","trial_index":61,"time_elapsed":433666,"internal_node_id":"0.0-6.0-55.0"},{"sim_score":2,"rt":6055,"stimulus":"[\"img/0866/620cd1aa-0800-4414-8f6e-90342e7a99ad.jpg\",\"img/0894/bd34223a-2f66-4e16-9d18-193a746b69ff.jpg\"]","trial_type":"similarity","trial_index":62,"time_elapsed":440740,"internal_node_id":"0.0-6.0-56.0"},{"sim_score":1,"rt":2848,"stimulus":"[\"img/0867/5e07b34d-b40f-4b1c-ac10-49975bace45f.jpg\",\"img/0904/9b3568cc-3cf7-42be-9df3-fdafde7a58b8.jpg\"]","trial_type":"similarity","trial_index":63,"time_elapsed":444614,"internal_node_id":"0.0-6.0-57.0"},{"sim_score":1,"rt":2582,"stimulus":"[\"img/0875/34132396-d896-4c2d-8087-646dd867e769.jpg\",\"img/0881/dea58fad-b4f1-41d9-bd3f-916eff19a3fd.jpg\"]","trial_type":"similarity","trial_index":64,"time_elapsed":448234,"internal_node_id":"0.0-6.0-58.0"},{"sim_score":1,"rt":2383,"stimulus":"[\"img/0866/945c6710-d15b-4a5b-a8f6-69af0850357f.jpg\",\"img/0860/b03b963d-949b-4d8d-b19c-4950c89eeca2.jpg\"]","trial_type":"similarity","trial_index":65,"time_elapsed":451651,"internal_node_id":"0.0-6.0-59.0"},{"sim_score":1,"rt":3233,"stimulus":"[\"img/0903/4cbdc464-e562-4ec2-9bb6-15f894fdf528.jpg\",\"img/0866/9b38d691-1802-4959-ab3f-fc902f0e4ea6.jpg\"]","trial_type":"similarity","trial_index":66,"time_elapsed":455930,"internal_node_id":"0.0-6.0-60.0"},{"sim_score":1,"rt":2084,"stimulus":"[\"img/0860/e8b8c51e-1834-4875-8b61-6c5bc9b178bd.jpg\",\"img/0875/99698b4d-b4a1-44bc-8c83-8ea755bbbf61.jpg\"]","trial_type":"similarity","trial_index":67,"time_elapsed":459038,"internal_node_id":"0.0-6.0-61.0"},{"sim_score":3,"rt":4111,"stimulus":"[\"img/0898/e167334e-cc1d-4986-b3b1-c7bc7da64baa.jpg\",\"img/0862/1c20f772-3a51-4a80-aac0-f57dc9f86c28.jpg\"]","trial_type":"similarity","trial_index":68,"time_elapsed":464179,"internal_node_id":"0.0-6.0-62.0"},{"sim_score":1,"rt":2957,"stimulus":"[\"img/0902/07437a16-3d0f-4a5c-89ec-36d0efa4b3b8.jpg\",\"img/0766/c23b5a20-e50f-4d85-841f-cf89212a4348.jpg\"]","trial_type":"similarity","trial_index":69,"time_elapsed":468170,"internal_node_id":"0.0-6.0-63.0"},{"sim_score":1,"rt":3514,"stimulus":"[\"img/0758/6e95579b-5166-487c-b8cb-e417c6a218e3.jpg\",\"img/0864/87c467d3-abca-482f-ad80-3766c21b1bb3.jpg\"]","trial_type":"similarity","trial_index":70,"time_elapsed":472704,"internal_node_id":"0.0-6.0-64.0"},{"sim_score":2,"rt":3695,"stimulus":"[\"img/0894/492d2f29-d7b9-4422-8be8-47fd58bfaa8b.jpg\",\"img/0860/18dfed73-e36b-4487-a8bd-0b8cff8e3668.jpg\"]","trial_type":"similarity","trial_index":71,"time_elapsed":477425,"internal_node_id":"0.0-6.0-65.0"},{"sim_score":1,"rt":2655,"stimulus":"[\"img/0899/f95cbdb4-f804-4f5d-ad76-373ad343e658.jpg\",\"img/0868/7b212364-ff5f-4e28-9241-7eb6ea00161b.jpg\"]","trial_type":"similarity","trial_index":72,"time_elapsed":481097,"internal_node_id":"0.0-6.0-66.0"},{"sim_score":1,"rt":2986,"stimulus":"[\"img/0866/c446214b-a368-4c65-ae39-ea46894256ab.jpg\",\"img/0862/fad1d7c1-8187-43c3-942a-0fc12183e48e.jpg\"]","trial_type":"similarity","trial_index":73,"time_elapsed":485108,"internal_node_id":"0.0-6.0-67.0"},{"sim_score":1,"rt":2715,"stimulus":"[\"img/0860/94ef7afc-e0e6-4a15-98c6-0bfac82bc832.jpg\",\"img/0758/caa93da2-9edf-49fa-96b9-32dedd8f5078.jpg\"]","trial_type":"similarity","trial_index":74,"time_elapsed":488877,"internal_node_id":"0.0-6.0-68.0"},{"sim_score":1,"rt":2883,"stimulus":"[\"img/0902/3f0eeac5-c996-4026-a376-563ce8f28521.jpg\",\"img/0867/179ab87a-8eac-4c52-a41f-2e48e3120f09.jpg\"]","trial_type":"similarity","trial_index":75,"time_elapsed":492789,"internal_node_id":"0.0-6.0-69.0"},{"sim_score":2,"rt":3652,"stimulus":"[\"img/0862/d0ca4c78-fc35-46ed-bdcc-8e124283c53e.jpg\",\"img/0901/b123d109-47b4-4f9a-80c9-9bb16da42efa.jpg\"]","trial_type":"similarity","trial_index":76,"time_elapsed":497474,"internal_node_id":"0.0-6.0-70.0"},{"sim_score":5,"rt":4054,"stimulus":"[\"img/0867/c66898ba-b71b-4d50-84f9-f7f84853a98d.jpg\",\"img/0866/11a1d141-be5e-443c-98c1-a9d4d9e3dec0.jpg\"]","trial_type":"similarity","trial_index":77,"time_elapsed":502559,"internal_node_id":"0.0-6.0-71.0"},{"sim_score":1,"rt":3390,"stimulus":"[\"img/0860/17b44a7d-c5ca-479f-9e87-f65a64f5c80e.jpg\",\"img/0904/696ebb60-8891-417a-91fd-c53218907a95.jpg\"]","trial_type":"similarity","trial_index":78,"time_elapsed":506994,"internal_node_id":"0.0-6.0-72.0"},{"sim_score":1,"rt":2820,"stimulus":"[\"img/0875/f87b67d7-c33e-40d1-b281-248c4be1cb6e.jpg\",\"img/0899/5b56dd3e-3f49-47cc-af84-16da6457753b.jpg\"]","trial_type":"similarity","trial_index":79,"time_elapsed":510837,"internal_node_id":"0.0-6.0-73.0"},{"sim_score":5,"rt":3823,"stimulus":"[\"img/0899/d60714ae-98d7-4564-8c98-94dba1351135.jpg\",\"img/0758/dd559618-7f09-4a07-8018-d311c4a5ea29.jpg\"]","trial_type":"similarity","trial_index":80,"time_elapsed":515694,"internal_node_id":"0.0-6.0-74.0"},{"sim_score":1,"rt":3053,"stimulus":"[\"img/0862/ba89835a-408c-480b-8594-ed4ffa97eb5c.jpg\",\"img/0875/5a1e5100-0d94-4fec-bbe9-ca9894d2cf8e.jpg\"]","trial_type":"similarity","trial_index":81,"time_elapsed":522731,"internal_node_id":"0.0-6.0-75.0"},{"sim_score":1,"rt":3092,"stimulus":"[\"img/0901/a6776381-91fe-43f8-ab73-261d318f95fd.jpg\",\"img/0894/b2d2f66e-e480-46da-a02a-6d0c6b285d78.jpg\"]","trial_type":"similarity","trial_index":82,"time_elapsed":526866,"internal_node_id":"0.0-6.0-76.0"},{"sim_score":1,"rt":2874,"stimulus":"[\"img/0766/110832e5-2646-4bd0-a94e-5df8cc314269.jpg\",\"img/0758/a709631e-3705-4725-ac40-f0d916924f08.jpg\"]","trial_type":"similarity","trial_index":83,"time_elapsed":530782,"internal_node_id":"0.0-6.0-77.0"},{"sim_score":5,"rt":4095,"stimulus":"[\"img/0894/e6385e52-6c35-43bd-b0af-bc803d107b11.jpg\",\"img/0764/c80b3e06-2ee3-4326-9678-340607eb5348.jpg\"]","trial_type":"similarity","trial_index":84,"time_elapsed":535929,"internal_node_id":"0.0-6.0-78.0"},{"sim_score":1,"rt":2630,"stimulus":"[\"img/0860/4a022222-056d-461c-ab02-39fac9647552.jpg\",\"img/0867/cc72ed48-7704-422c-86d6-467a1145287a.jpg\"]","trial_type":"similarity","trial_index":85,"time_elapsed":539581,"internal_node_id":"0.0-6.0-79.0"},{"sim_score":5,"rt":3443,"stimulus":"[\"img/0898/993d8f2d-bef7-4251-a193-0f93a32b7763.jpg\",\"img/0901/58ec7fa9-b466-4651-90aa-c082df0972de.jpg\"]","trial_type":"similarity","trial_index":86,"time_elapsed":544092,"internal_node_id":"0.0-6.0-80.0"},{"sim_score":1,"rt":3694,"stimulus":"[\"img/0874/29830da7-be5f-44e5-b141-652a0ccf7269.jpg\",\"img/0764/fb7d4a20-a475-465e-a74f-aa39a0d33d16.jpg\"]","trial_type":"similarity","trial_index":87,"time_elapsed":548801,"internal_node_id":"0.0-6.0-81.0"},{"sim_score":1,"rt":3742,"stimulus":"[\"img/0899/1b3457ea-87d4-4946-a01c-aac1863ed46c.jpg\",\"img/0862/f188d4f0-76a4-4102-818c-a209969d73a5.jpg\"]","trial_type":"similarity","trial_index":88,"time_elapsed":553576,"internal_node_id":"0.0-6.0-82.0"},{"sim_score":1,"rt":2260,"stimulus":"[\"img/0766/ba35c0fc-4d5b-490d-959e-c94b279cdd02.jpg\",\"img/0901/693e0535-ef7e-4d60-af9d-fac2f38e8307.jpg\"]","trial_type":"similarity","trial_index":89,"time_elapsed":556868,"internal_node_id":"0.0-6.0-83.0"},{"sim_score":1,"rt":2911,"stimulus":"[\"img/0881/33d65d80-8a8e-4ecf-852d-0ad7725c17a2.jpg\",\"img/0898/82231d4c-218b-4d0a-b50d-35a49b524e97.jpg\"]","trial_type":"similarity","trial_index":90,"time_elapsed":560809,"internal_node_id":"0.0-6.0-84.0"},{"sim_score":1,"rt":2493,"stimulus":"[\"img/0868/d6d1f30d-4323-435a-b194-7892521bc57e.jpg\",\"img/0860/f44ba3fb-03a2-42f0-8509-2c1ded493086.jpg\"]","trial_type":"similarity","trial_index":91,"time_elapsed":564341,"internal_node_id":"0.0-6.0-85.0"},{"sim_score":1,"rt":2657,"stimulus":"[\"img/0758/a085b443-b5d7-4cb2-9ad4-b9dab0fc23f1.jpg\",\"img/0868/4e626425-63c8-484a-8a1d-e66ee4e0bef8.jpg\"]","trial_type":"similarity","trial_index":92,"time_elapsed":568027,"internal_node_id":"0.0-6.0-86.0"},{"sim_score":1,"rt":2990,"stimulus":"[\"img/0864/c3b63e8f-ea39-4d70-a1f2-b3fe4be8eb75.jpg\",\"img/0894/38cf335f-f76f-4349-8d65-e20cd6859565.jpg\"]","trial_type":"similarity","trial_index":93,"time_elapsed":572044,"internal_node_id":"0.0-6.0-87.0"},{"sim_score":1,"rt":2690,"stimulus":"[\"img/0866/6f2a90d7-14f1-4f1b-bd64-fc0af6b9fe44.jpg\",\"img/0902/1a120fb9-dbd6-443e-ba91-b4aceab963da.jpg\"]","trial_type":"similarity","trial_index":94,"time_elapsed":575765,"internal_node_id":"0.0-6.0-88.0"},{"sim_score":1,"rt":2402,"stimulus":"[\"img/0769/47700831-0ca2-4fdd-a498-a3bc5a528f43.jpg\",\"img/0867/8ba0c5a7-c7e4-42cf-a80a-543763b90779.jpg\"]","trial_type":"similarity","trial_index":95,"time_elapsed":579187,"internal_node_id":"0.0-6.0-89.0"},{"sim_score":1,"rt":2116,"stimulus":"[\"img/0874/3ce41e7c-40c8-4d58-a546-171114521796.jpg\",\"img/0875/2e13d160-eea1-416b-aff1-d37ab99ecc1d.jpg\"]","trial_type":"similarity","trial_index":96,"time_elapsed":582341,"internal_node_id":"0.0-6.0-90.0"},{"sim_score":4,"rt":5717,"stimulus":"[\"img/0864/c22faebd-9c53-47bc-ada3-b9a30c688e75.jpg\",\"img/0874/767f289c-9814-4496-803f-745cc8913d1f.jpg\"]","trial_type":"similarity","trial_index":97,"time_elapsed":589097,"internal_node_id":"0.0-6.0-91.0"},{"sim_score":5,"rt":3434,"stimulus":"[\"img/0881/d373cb9f-a719-4549-a2a4-82def79fb2a5.jpg\",\"img/0862/47ed5efd-4ec9-4b74-bb4e-a5f5cf0c3e7d.jpg\"]","trial_type":"similarity","trial_index":98,"time_elapsed":593559,"internal_node_id":"0.0-6.0-92.0"},{"sim_score":4,"rt":4809,"stimulus":"[\"img/0864/3651d070-2fc5-4848-b6a6-088a2d9ac5c9.jpg\",\"img/0881/f4e3e181-b3c9-4af2-a5a4-fc135ab70d2e.jpg\"]","trial_type":"similarity","trial_index":99,"time_elapsed":599404,"internal_node_id":"0.0-6.0-93.0"},{"sim_score":1,"rt":2563,"stimulus":"[\"img/0899/9de5e857-aa9a-4e0c-8ba2-46d79bd069a4.jpg\",\"img/0901/77087ed2-6e12-4329-b2a5-605bca6d972d.jpg\"]","trial_type":"similarity","trial_index":100,"time_elapsed":602983,"internal_node_id":"0.0-6.0-94.0"},{"sim_score":1,"rt":3754,"stimulus":"[\"img/0874/a3bc679d-619f-4db6-bb68-116dcb757d9c.jpg\",\"img/0766/5d6e0d1d-4369-41f0-a64c-91f3503055c7.jpg\"]","trial_type":"similarity","trial_index":101,"time_elapsed":607755,"internal_node_id":"0.0-6.0-95.0"},{"sim_score":5,"rt":4996,"stimulus":"[\"img/0881/4da99fdd-1f40-4bbb-8e21-8833eef313f5.jpg\",\"img/0899/a05bea16-2bb4-4cb9-b8fb-4ff975db6971.jpg\"]","trial_type":"similarity","trial_index":102,"time_elapsed":613780,"internal_node_id":"0.0-6.0-96.0"},{"sim_score":2,"rt":4452,"stimulus":"[\"img/0862/5d887e9f-89e2-4ebc-80a0-6d46fe6480db.jpg\",\"img/0902/d2c34af0-8c50-437d-8cc3-619195a3e8ba.jpg\"]","trial_type":"similarity","trial_index":103,"time_elapsed":619274,"internal_node_id":"0.0-6.0-97.0"},{"sim_score":5,"rt":5243,"stimulus":"[\"img/0899/7b7380d5-d2be-44e5-a09a-c1756f87ef71.jpg\",\"img/0764/06ea144f-f4f3-4a14-ba47-f20f35c561e0.jpg\"]","trial_type":"similarity","trial_index":104,"time_elapsed":625547,"internal_node_id":"0.0-6.0-98.0"},{"sim_score":1,"rt":2541,"stimulus":"[\"img/0758/eabcd7a8-56ad-4fd2-bc24-90f6b7b33265.jpg\",\"img/0862/a0a3a7ba-7798-46a3-b4ca-05e1f6e581d0.jpg\"]","trial_type":"similarity","trial_index":105,"time_elapsed":629125,"internal_node_id":"0.0-6.0-99.0"},{"sim_score":1,"rt":3319,"stimulus":"[\"img/0764/fb92924f-5cfe-4b89-b130-0cce8cc5636b.jpg\",\"img/0898/0af304a2-6a7a-4082-ab7c-4450cd08cc58.jpg\"]","trial_type":"similarity","trial_index":106,"time_elapsed":633473,"internal_node_id":"0.0-6.0-100.0"},{"sim_score":1,"rt":2620,"stimulus":"[\"img/0901/0f670aef-ac36-496d-8142-ee5fdb21dd82.jpg\",\"img/0902/cdec1bc6-7f90-4f72-9e01-f5a4111bac1d.jpg\"]","trial_type":"similarity","trial_index":107,"time_elapsed":637110,"internal_node_id":"0.0-6.0-101.0"},{"sim_score":1,"rt":3050,"stimulus":"[\"img/0764/f64dfa83-333d-494c-87b5-73e942f1766e.jpg\",\"img/0868/293079b8-7e0c-4afd-a390-1e5d35fe3ded.jpg\"]","trial_type":"similarity","trial_index":108,"time_elapsed":641175,"internal_node_id":"0.0-6.0-102.0"},{"sim_score":2,"rt":4574,"stimulus":"[\"img/0769/d1be2815-fa79-46e8-b5c3-7d81caaca490.jpg\",\"img/0881/609a5e93-38b5-4940-8627-2bf8fad7f802.jpg\"]","trial_type":"similarity","trial_index":109,"time_elapsed":646773,"internal_node_id":"0.0-6.0-103.0"},{"sim_score":1,"rt":3119,"stimulus":"[\"img/0864/e336a4c5-6648-4fd7-b2f6-93a3fb83f8c6.jpg\",\"img/0769/bb8c4e53-6f32-4814-97ee-392d4decfb2e.jpg\"]","trial_type":"similarity","trial_index":110,"time_elapsed":650919,"internal_node_id":"0.0-6.0-104.0"},{"sim_score":6,"rt":3521,"stimulus":"[\"img/0866/be24ab58-230e-4db8-9f45-ff04c9aec6bb.jpg\",\"img/0868/83b4350a-3b70-4cea-b7f5-b5b56f3050a8.jpg\"]","trial_type":"similarity","trial_index":111,"time_elapsed":655472,"internal_node_id":"0.0-6.0-105.0"},{"sim_score":1,"rt":2416,"stimulus":"[\"img/0868/4bd5105a-d2c3-4f82-8c80-57196106ba53.jpg\",\"img/0862/e0f1a4e9-e1b6-45f7-af67-89f334e6630d.jpg\"]","trial_type":"similarity","trial_index":112,"time_elapsed":658924,"internal_node_id":"0.0-6.0-106.0"},{"sim_score":1,"rt":2297,"stimulus":"[\"img/0766/535849cc-ff5d-4df9-8f31-0ce94a97d571.jpg\",\"img/0898/b3290bf9-215b-4b45-b21a-65bdf73f142f.jpg\"]","trial_type":"similarity","trial_index":113,"time_elapsed":662250,"internal_node_id":"0.0-6.0-107.0"},{"sim_score":1,"rt":2985,"stimulus":"[\"img/0898/26c41340-15bd-4ead-8fe4-c0d0ddca09c2.jpg\",\"img/0864/8ddd2e30-a1d0-479f-9cbe-591213023893.jpg\"]","trial_type":"similarity","trial_index":114,"time_elapsed":666273,"internal_node_id":"0.0-6.0-108.0"},{"sim_score":1,"rt":2005,"stimulus":"[\"img/0868/6a28c3b0-3d76-498a-9fb7-ddafc665eca8.jpg\",\"img/0902/40d0b6ec-3907-4573-b227-e7d8e9cad1c3.jpg\"]","trial_type":"similarity","trial_index":115,"time_elapsed":669303,"internal_node_id":"0.0-6.0-109.0"},{"sim_score":5,"rt":2920,"stimulus":"[\"img/0904/24fc38fe-842c-4831-ad8a-b1de5c25c0a8.jpg\",\"img/0764/cbdc4f20-3a9a-4211-9b40-090699e0abcc.jpg\"]","trial_type":"similarity","trial_index":116,"time_elapsed":673243,"internal_node_id":"0.0-6.0-110.0"},{"sim_score":3,"rt":4638,"stimulus":"[\"img/0894/11674fa4-285d-44e2-939f-2228c6a64080.jpg\",\"img/0875/5a7c4e35-6514-4e12-8879-d16071da4cd6.jpg\"]","trial_type":"similarity","trial_index":117,"time_elapsed":678912,"internal_node_id":"0.0-6.0-111.0"},{"sim_score":1,"rt":2239,"stimulus":"[\"img/0868/c8ac40c7-6904-4e13-8d61-c75d3052dc4e.jpg\",\"img/0874/7e4f2150-3b59-4a36-b5da-a4e0ba410531.jpg\"]","trial_type":"similarity","trial_index":118,"time_elapsed":682189,"internal_node_id":"0.0-6.0-112.0"},{"sim_score":5,"rt":3837,"stimulus":"[\"img/0904/0d25eb24-bb20-4e8d-9787-8b489558b4cb.jpg\",\"img/0898/f3a3f225-1248-4ac7-b93b-f0ff28485bf3.jpg\"]","trial_type":"similarity","trial_index":119,"time_elapsed":691065,"internal_node_id":"0.0-6.0-113.0"},{"sim_score":1,"rt":3224,"stimulus":"[\"img/0860/71e1aad0-2cdf-43bb-94a4-a8c016997c30.jpg\",\"img/0766/d3bab2fc-ddcc-40a0-bb72-c0d0ebe19978.jpg\"]","trial_type":"similarity","trial_index":120,"time_elapsed":695316,"internal_node_id":"0.0-6.0-114.0"},{"sim_score":1,"rt":2626,"stimulus":"[\"img/0894/a3d4170b-b7d8-40e3-955f-87e76ed745fc.jpg\",\"img/0874/ca76a855-4e77-4f2f-872a-0a718153e7ed.jpg\"]","trial_type":"similarity","trial_index":121,"time_elapsed":698968,"internal_node_id":"0.0-6.0-115.0"},{"sim_score":2,"rt":4586,"stimulus":"[\"img/0899/f58b8d2f-b19d-4b59-8b94-8834be92e4ba.jpg\",\"img/0903/f45a103c-9bfe-49fd-ad96-bdd8d2589195.jpg\"]","trial_type":"similarity","trial_index":122,"time_elapsed":704596,"internal_node_id":"0.0-6.0-116.0"},{"sim_score":1,"rt":4704,"stimulus":"[\"img/0881/405484ae-0d00-4b05-bc57-6420a36adfac.jpg\",\"img/0764/4bec8d92-75aa-475a-954d-8215dbe538f5.jpg\"]","trial_type":"similarity","trial_index":123,"time_elapsed":710328,"internal_node_id":"0.0-6.0-117.0"},{"sim_score":2,"rt":4978,"stimulus":"[\"img/0903/150cf64c-0bd2-4674-abbb-a1387cf1f3e9.jpg\",\"img/0769/e31b3bd8-efcb-413e-aa8c-75fac2b8f2ac.jpg\"]","trial_type":"similarity","trial_index":124,"time_elapsed":716344,"internal_node_id":"0.0-6.0-118.0"},{"sim_score":1,"rt":3160,"stimulus":"[\"img/0901/50e1d53e-a49f-4806-8610-be6dec5a2475.jpg\",\"img/0904/4d7d70a3-9477-4921-bda0-f9531d0a5c5b.jpg\"]","trial_type":"similarity","trial_index":125,"time_elapsed":720533,"internal_node_id":"0.0-6.0-119.0"},{"sim_score":1,"rt":2826,"stimulus":"[\"img/0860/4f695df5-afac-4da7-9875-fee39b0b24ad.jpg\",\"img/0881/445edb15-bd7f-4af3-8bd5-c6ad9677bb31.jpg\"]","trial_type":"similarity","trial_index":126,"time_elapsed":724395,"internal_node_id":"0.0-6.0-120.0"},{"sim_score":5,"rt":4403,"stimulus":"[\"img/0758/ddc336e9-a8b6-4bb9-937a-c7e25e0e9250.jpg\",\"img/0874/31e22c7c-99aa-40b1-bf03-dd73fa2df4d6.jpg\"]","trial_type":"similarity","trial_index":127,"time_elapsed":729849,"internal_node_id":"0.0-6.0-121.0"},{"sim_score":1,"rt":2639,"stimulus":"[\"img/0901/548d1110-7cb8-42a2-9927-9798875c8b5c.jpg\",\"img/0769/82ab9db6-4578-4e79-874f-f09100439f09.jpg\"]","trial_type":"similarity","trial_index":128,"time_elapsed":733521,"internal_node_id":"0.0-6.0-122.0"},{"sim_score":5,"rt":2718,"stimulus":"[\"img/0902/e5a46bda-30d1-41ca-b36d-b8529b5a63d1.jpg\",\"img/0904/2f88ce53-02d0-4f95-a082-182c56a0eeb4.jpg\"]","trial_type":"similarity","trial_index":129,"time_elapsed":737265,"internal_node_id":"0.0-6.0-123.0"},{"sim_score":4,"rt":2711,"stimulus":"[\"img/0899/57476fed-5962-4272-8fc9-b317bb777b54.jpg\",\"img/0864/f92649a2-0590-4d31-9a7a-1bfb81666a2d.jpg\"]","trial_type":"similarity","trial_index":130,"time_elapsed":741015,"internal_node_id":"0.0-6.0-124.0"},{"sim_score":1,"rt":2486,"stimulus":"[\"img/0766/006035d8-c736-4daf-bbe4-a9e373af9da6.jpg\",\"img/0868/09a9ef4d-d000-4cfa-a6aa-ebec7c2edeb4.jpg\"]","trial_type":"similarity","trial_index":131,"time_elapsed":744535,"internal_node_id":"0.0-6.0-125.0"},{"sim_score":1,"rt":2877,"stimulus":"[\"img/0764/0e7ed062-f798-4366-8a24-6f430926f919.jpg\",\"img/0864/300bb811-8b3c-4c42-8653-6097c3725197.jpg\"]","trial_type":"similarity","trial_index":132,"time_elapsed":748436,"internal_node_id":"0.0-6.0-126.0"},{"sim_score":1,"rt":2734,"stimulus":"[\"img/0899/25ae6ec8-9565-49fe-a8bb-8d0666f52716.jpg\",\"img/0866/d493a2c8-66eb-44b4-be02-2f327b700b7c.jpg\"]","trial_type":"similarity","trial_index":133,"time_elapsed":752213,"internal_node_id":"0.0-6.0-127.0"},{"sim_score":1,"rt":2605,"stimulus":"[\"img/0901/7d4a3388-488d-4e9b-9d32-9d0def7aae8d.jpg\",\"img/0881/667e2147-d457-4f32-aa5f-6ab86e5848f1.jpg\"]","trial_type":"similarity","trial_index":134,"time_elapsed":755850,"internal_node_id":"0.0-6.0-128.0"},{"sim_score":5,"rt":4045,"stimulus":"[\"img/0898/5f699581-3853-4547-856c-12f419ba5af7.jpg\",\"img/0903/ea75f240-fb62-4edb-a709-83e858b202c0.jpg\"]","trial_type":"similarity","trial_index":135,"time_elapsed":760937,"internal_node_id":"0.0-6.0-129.0"},{"sim_score":2,"rt":4156,"stimulus":"[\"img/0894/7dd6ff43-f8fc-408a-8a41-a2b261871820.jpg\",\"img/0867/85a96c62-548f-4994-9553-819e03c3135a.jpg\"]","trial_type":"similarity","trial_index":136,"time_elapsed":766131,"internal_node_id":"0.0-6.0-130.0"},{"sim_score":2,"rt":7083,"stimulus":"[\"img/0874/adf9a8f1-c40b-402b-b95b-1e85a54a7b62.jpg\",\"img/0903/9b60ef5b-234f-4239-892b-3d4c412accc2.jpg\"]","trial_type":"similarity","trial_index":137,"time_elapsed":774249,"internal_node_id":"0.0-6.0-131.0"},{"sim_score":3,"rt":4956,"stimulus":"[\"img/0899/4f7bc593-8ddd-4da3-a0b9-84da730d3370.jpg\",\"img/0898/a8f16b02-e19f-423b-86c3-a36562ae1f9b.jpg\"]","trial_type":"similarity","trial_index":138,"time_elapsed":780235,"internal_node_id":"0.0-6.0-132.0"},{"sim_score":1,"rt":2625,"stimulus":"[\"img/0867/f26f6b60-f772-4f4c-95a4-addc62cfd692.jpg\",\"img/0764/974d52cc-6318-4e7a-b294-2f3e92ff800f.jpg\"]","trial_type":"similarity","trial_index":139,"time_elapsed":783889,"internal_node_id":"0.0-6.0-133.0"},{"sim_score":5,"rt":2944,"stimulus":"[\"img/0866/02f5e6b9-52b7-448c-9708-5b460d0c9a23.jpg\",\"img/0769/35364db7-e0d5-40ef-93dc-faf9dfb95136.jpg\"]","trial_type":"similarity","trial_index":140,"time_elapsed":787861,"internal_node_id":"0.0-6.0-134.0"},{"sim_score":1,"rt":3044,"stimulus":"[\"img/0860/e14d67c1-6d92-4f1e-9257-c8607159c19c.jpg\",\"img/0898/01bfe666-3510-4fc7-964f-d00d28732dc8.jpg\"]","trial_type":"similarity","trial_index":141,"time_elapsed":791940,"internal_node_id":"0.0-6.0-135.0"},{"sim_score":1,"rt":3197,"stimulus":"[\"img/0881/adc02f34-ce97-4aef-850f-00519df06fd7.jpg\",\"img/0903/f67c4ab9-f8c2-4fcd-848a-a54a7b031002.jpg\"]","trial_type":"similarity","trial_index":142,"time_elapsed":796169,"internal_node_id":"0.0-6.0-136.0"},{"sim_score":1,"rt":2056,"stimulus":"[\"img/0894/5a49e858-2850-4892-9a06-e9f0efb5f94d.jpg\",\"img/0766/79767d11-b612-4e8a-9e4b-a8ac95bb6a54.jpg\"]","trial_type":"similarity","trial_index":143,"time_elapsed":799252,"internal_node_id":"0.0-6.0-137.0"},{"sim_score":1,"rt":2316,"stimulus":"[\"img/0860/9593362c-9fe5-4d12-9735-6000a11f6aa5.jpg\",\"img/0764/b8e23f4f-ff19-4472-ad9b-2f85548ebca0.jpg\"]","trial_type":"similarity","trial_index":144,"time_elapsed":802582,"internal_node_id":"0.0-6.0-138.0"},{"sim_score":1,"rt":2725,"stimulus":"[\"img/0769/662ab839-88d1-4ebf-af05-9b2980cad943.jpg\",\"img/0902/b03129ba-b087-4558-af37-e8399d6217d6.jpg\"]","trial_type":"similarity","trial_index":145,"time_elapsed":806349,"internal_node_id":"0.0-6.0-139.0"},{"sim_score":5,"rt":3882,"stimulus":"[\"img/0904/25365108-e038-4021-aac9-797f2063b337.jpg\",\"img/0903/a0673b55-6040-47fe-9040-24bca27ca3c9.jpg\"]","trial_type":"similarity","trial_index":146,"time_elapsed":811271,"internal_node_id":"0.0-6.0-140.0"},{"sim_score":5,"rt":3055,"stimulus":"[\"img/0764/f713847b-4832-42d1-8fb3-e17e37fd745c.jpg\",\"img/0769/878531fd-e0e8-4ad1-b9ad-f018bb104ca0.jpg\"]","trial_type":"similarity","trial_index":147,"time_elapsed":815351,"internal_node_id":"0.0-6.0-141.0"},{"sim_score":2,"rt":5607,"stimulus":"[\"img/0902/eb3e7e71-8ff1-4b88-a6a7-47e2c1ce1683.jpg\",\"img/0881/ee44e27f-d662-4608-b265-e7ffa19b216f.jpg\"]","trial_type":"similarity","trial_index":148,"time_elapsed":821997,"internal_node_id":"0.0-6.0-142.0"},{"sim_score":1,"rt":2619,"stimulus":"[\"img/0866/8efcaa46-83ab-4dee-a35f-850402aa21ae.jpg\",\"img/0864/efcfbb1b-8197-44c9-b723-40d6c608dd3c.jpg\"]","trial_type":"similarity","trial_index":149,"time_elapsed":825633,"internal_node_id":"0.0-6.0-143.0"},{"sim_score":4,"rt":3039,"stimulus":"[\"img/0902/b03fee99-d5ca-4bf8-871c-a4a743a39842.jpg\",\"img/0898/a114b375-cb89-44ba-9498-74213f1ecdee.jpg\"]","trial_type":"similarity","trial_index":150,"time_elapsed":829700,"internal_node_id":"0.0-6.0-144.0"},{"sim_score":5,"rt":3772,"stimulus":"[\"img/0862/ad593cc7-cabe-4bb7-8e14-8a447a0717b4.jpg\",\"img/0864/afcba0a3-7e27-4757-b254-e9f05fad27e2.jpg\"]","trial_type":"similarity","trial_index":151,"time_elapsed":834523,"internal_node_id":"0.0-6.0-145.0"},{"sim_score":1,"rt":2467,"stimulus":"[\"img/0875/e7e66b13-b573-431e-b85e-288ce04a35a3.jpg\",\"img/0898/661621d4-a14e-487c-8c74-354134a29710.jpg\"]","trial_type":"similarity","trial_index":152,"time_elapsed":838021,"internal_node_id":"0.0-6.0-146.0"},{"sim_score":6,"rt":3569,"stimulus":"[\"img/0874/995f0332-0439-4eb4-add3-957335dbf6d9.jpg\",\"img/0881/b549bc99-a61c-4450-bab5-9efc3a197bf0.jpg\"]","trial_type":"similarity","trial_index":153,"time_elapsed":842616,"internal_node_id":"0.0-6.0-147.0"},{"sim_score":1,"rt":2461,"stimulus":"[\"img/0758/61d64021-9214-4951-bdf8-f871f9827cf9.jpg\",\"img/0894/661b9f9f-4bde-487a-b1ed-87085fde6948.jpg\"]","trial_type":"similarity","trial_index":154,"time_elapsed":846113,"internal_node_id":"0.0-6.0-148.0"},{"sim_score":1,"rt":2899,"stimulus":"[\"img/0904/9dd5708f-3f8b-46a9-b49f-2f2fab87b357.jpg\",\"img/0864/e8bd659f-aa43-4748-877e-3118e8b4e189.jpg\"]","trial_type":"similarity","trial_index":155,"time_elapsed":850042,"internal_node_id":"0.0-6.0-149.0"},{"sim_score":1,"rt":3596,"stimulus":"[\"img/0769/50985283-d353-4abc-9abe-14a91d56ebe6.jpg\",\"img/0899/ddf96ade-692e-4602-bd22-dedbb46401bc.jpg\"]","trial_type":"similarity","trial_index":156,"time_elapsed":854656,"internal_node_id":"0.0-6.0-150.0"},{"sim_score":1,"rt":2566,"stimulus":"[\"img/0764/21e3292f-01ad-4238-828b-61b817857d16.jpg\",\"img/0903/0a92ec52-4e87-410a-857a-4455cde56a70.jpg\"]","trial_type":"similarity","trial_index":157,"time_elapsed":861370,"internal_node_id":"0.0-6.0-151.0"},{"sim_score":1,"rt":3127,"stimulus":"[\"img/0903/6a87dbad-9b8d-4ff5-9c41-03c9aa24f0c3.jpg\",\"img/0864/6e846d43-94a6-4b37-a268-65eda979f052.jpg\"]","trial_type":"similarity","trial_index":158,"time_elapsed":865529,"internal_node_id":"0.0-6.0-152.0"},{"sim_score":2,"rt":3085,"stimulus":"[\"img/0894/5f15154e-e72e-4ce5-aafb-bce6f0564006.jpg\",\"img/0881/19e82c47-8e4b-45d2-a6c8-74181eb4155e.jpg\"]","trial_type":"similarity","trial_index":159,"time_elapsed":869650,"internal_node_id":"0.0-6.0-153.0"},{"sim_score":2,"rt":5121,"stimulus":"[\"img/0875/fb732ab5-013a-4366-9f65-27811ed157e9.jpg\",\"img/0867/c71dc569-f49c-4397-8381-68b8d726736d.jpg\"]","trial_type":"similarity","trial_index":160,"time_elapsed":875813,"internal_node_id":"0.0-6.0-154.0"},{"sim_score":1,"rt":2293,"stimulus":"[\"img/0867/a749dddb-69f0-44a6-acdc-2bf295cf6dcc.jpg\",\"img/0758/9fb5b2fe-3f00-4fe6-973c-1ce10d5f4cd5.jpg\"]","trial_type":"similarity","trial_index":161,"time_elapsed":879128,"internal_node_id":"0.0-6.0-155.0"},{"sim_score":1,"rt":2741,"stimulus":"[\"img/0868/3a62db2d-97e9-44a3-b8e3-a48c6f0e423b.jpg\",\"img/0901/6e2957f8-f5ab-46f4-87cc-bb50155a098b.jpg\"]","trial_type":"similarity","trial_index":162,"time_elapsed":882893,"internal_node_id":"0.0-6.0-156.0"},{"sim_score":5,"rt":2693,"stimulus":"[\"img/0769/11518cb3-13ea-4dd0-890c-30cfab728ade.jpg\",\"img/0894/c505c65a-cde2-4f2c-8cde-f8676f7c894d.jpg\"]","trial_type":"similarity","trial_index":163,"time_elapsed":886615,"internal_node_id":"0.0-6.0-157.0"},{"sim_score":1,"rt":2471,"stimulus":"[\"img/0904/96e503ea-6630-4996-85f2-0237688ce441.jpg\",\"img/0758/7fba58df-2a7a-4b76-8a8f-62739f97f271.jpg\"]","trial_type":"similarity","trial_index":164,"time_elapsed":890115,"internal_node_id":"0.0-6.0-158.0"},{"sim_score":2,"rt":3010,"stimulus":"[\"img/0874/c0378dac-9370-439a-8b79-db27c96fb390.jpg\",\"img/0904/09934646-45d2-4147-8fec-64a22a5ac822.jpg\"]","trial_type":"similarity","trial_index":165,"time_elapsed":894161,"internal_node_id":"0.0-6.0-159.0"},{"sim_score":2,"rt":3489,"stimulus":"[\"img/0864/0116ca98-293d-4fa6-a93b-5a6144ef64cc.jpg\",\"img/0901/5657dd86-0ff9-4753-ba2b-9dfb223e5c89.jpg\"]","trial_type":"similarity","trial_index":166,"time_elapsed":898684,"internal_node_id":"0.0-6.0-160.0"},{"sim_score":1,"rt":3681,"stimulus":"[\"img/0898/79233891-305a-4a6a-8ddf-5c8604858203.jpg\",\"img/0866/d266fece-59b3-46fa-b69f-96f6efb81b59.jpg\"]","trial_type":"similarity","trial_index":167,"time_elapsed":903397,"internal_node_id":"0.0-6.0-161.0"},{"sim_score":1,"rt":2497,"stimulus":"[\"img/0766/dd3e18d0-0c98-4d05-b850-69976ee8cd75.jpg\",\"img/0903/b7e3723f-fd03-4f3d-8820-f19496463a34.jpg\"]","trial_type":"similarity","trial_index":168,"time_elapsed":906927,"internal_node_id":"0.0-6.0-162.0"},{"sim_score":2,"rt":3218,"stimulus":"[\"img/0860/61fb959d-d4d9-4de4-9e4e-4fa62b4cfcd5.jpg\",\"img/0899/8de08897-b430-42fe-9d42-840670b80f94.jpg\"]","trial_type":"similarity","trial_index":169,"time_elapsed":911187,"internal_node_id":"0.0-6.0-163.0"},{"sim_score":1,"rt":3709,"stimulus":"[\"img/0766/51d3aab4-3d09-4dda-b99d-3dc7aaabc6f2.jpg\",\"img/0862/f23038d4-c366-4f70-979f-66b62362efa4.jpg\"]","trial_type":"similarity","trial_index":170,"time_elapsed":915922,"internal_node_id":"0.0-6.0-164.0"},{"sim_score":5,"rt":3159,"stimulus":"[\"img/0898/224c1572-56b9-4f16-a9e4-6f3bc9c114bd.jpg\",\"img/0894/8cadb87a-7001-4e47-99fb-1867bebf1668.jpg\"]","trial_type":"similarity","trial_index":171,"time_elapsed":920121,"internal_node_id":"0.0-6.0-165.0"},{"sim_score":1,"rt":2072,"stimulus":"[\"img/0867/1719a35d-f085-48c0-9099-16c94fe418b4.jpg\",\"img/0766/d50d734f-285c-4840-bc7a-c8dd4aff391e.jpg\"]","trial_type":"similarity","trial_index":172,"time_elapsed":923221,"internal_node_id":"0.0-6.0-166.0"},{"sim_score":1,"rt":4863,"stimulus":"[\"img/0904/fe746a3f-8458-48d0-8a13-8cba2a9df9f8.jpg\",\"img/0862/de9ad88c-b522-430a-8ee9-eb06a9f85df5.jpg\"]","trial_type":"similarity","trial_index":173,"time_elapsed":929122,"internal_node_id":"0.0-6.0-167.0"},{"sim_score":1,"rt":2434,"stimulus":"[\"img/0866/23a224f3-2012-4fc8-8e0f-3c36f8de27fd.jpg\",\"img/0874/a82926a3-0b43-4add-803c-d5f9ea7798ee.jpg\"]","trial_type":"similarity","trial_index":174,"time_elapsed":932574,"internal_node_id":"0.0-6.0-168.0"},{"sim_score":2,"rt":2847,"stimulus":"[\"img/0903/12bd8657-92e6-4c36-a06c-597e7a1d51f3.jpg\",\"img/0868/0d3abd3a-b6c3-4584-a9f7-e2da63748b3d.jpg\"]","trial_type":"similarity","trial_index":175,"time_elapsed":936445,"internal_node_id":"0.0-6.0-169.0"},{"sim_score":6,"rt":3489,"stimulus":"[\"img/0769/3c1203c5-2ce7-466e-957a-8d77b5905460.jpg\",\"img/0904/5cceabc9-de1d-4c67-989b-c28a4ef77e79.jpg\"]","trial_type":"similarity","trial_index":176,"time_elapsed":940960,"internal_node_id":"0.0-6.0-170.0"},{"sim_score":1,"rt":2328,"stimulus":"[\"img/0875/2c361b79-c3d1-4eda-812e-bf03192407bf.jpg\",\"img/0764/83c93cce-18d1-4aa7-9e23-2c268afe0a46.jpg\"]","trial_type":"similarity","trial_index":177,"time_elapsed":944326,"internal_node_id":"0.0-6.0-171.0"},{"sim_score":5,"rt":2901,"stimulus":"[\"img/0860/c7047cd2-7cc1-41b6-8a34-c0986774975f.jpg\",\"img/0903/47e39de8-6959-469f-8be9-6999a6db207c.jpg\"]","trial_type":"similarity","trial_index":178,"time_elapsed":948263,"internal_node_id":"0.0-6.0-172.0"},{"sim_score":1,"rt":2354,"stimulus":"[\"img/0864/49150900-7f25-4ce8-8d10-9b47a71d1997.jpg\",\"img/0867/f8159067-056c-41f1-a136-c529fe5e970a.jpg\"]","trial_type":"similarity","trial_index":179,"time_elapsed":951645,"internal_node_id":"0.0-6.0-173.0"},{"sim_score":1,"rt":2048,"stimulus":"[\"img/0868/5fa7f9d0-f0e5-454c-8224-74d964818f56.jpg\",\"img/0864/1d15626a-2f7c-410f-819c-0fa2c967e95e.jpg\"]","trial_type":"similarity","trial_index":180,"time_elapsed":954725,"internal_node_id":"0.0-6.0-174.0"},{"sim_score":5,"rt":2718,"stimulus":"[\"img/0898/4184e5a2-84ea-4f36-9b42-ae58646f6f87.jpg\",\"img/0769/5bd04f55-d091-4f57-85db-38426f26bd1a.jpg\"]","trial_type":"similarity","trial_index":181,"time_elapsed":958480,"internal_node_id":"0.0-6.0-175.0"},{"sim_score":4,"rt":4629,"stimulus":"[\"img/0766/ae0fce93-fe8d-4aa1-87ca-4c3e4b889f2f.jpg\",\"img/0764/4952d0a0-c9be-471a-8ec7-94a37bf4051d.jpg\"]","trial_type":"similarity","trial_index":182,"time_elapsed":964146,"internal_node_id":"0.0-6.0-176.0"},{"sim_score":1,"rt":2871,"stimulus":"[\"img/0764/b328441c-f81c-486c-9eae-b947c70ba7cd.jpg\",\"img/0866/386235d2-6857-41e7-88a8-25cfc3430025.jpg\"]","trial_type":"similarity","trial_index":183,"time_elapsed":968043,"internal_node_id":"0.0-6.0-177.0"},{"sim_score":1,"rt":3505,"stimulus":"[\"img/0902/22ed3536-288b-452e-9777-0fa0ab94deb0.jpg\",\"img/0875/a4935837-7d3c-4df6-88c1-36a94d4991ca.jpg\"]","trial_type":"similarity","trial_index":184,"time_elapsed":972562,"internal_node_id":"0.0-6.0-178.0"},{"sim_score":1,"rt":3212,"stimulus":"[\"img/0881/292e9b4b-fca0-4ba8-87f1-4048f9e37b7d.jpg\",\"img/0904/60d1a521-edf7-4696-9263-f21ac0e62a01.jpg\"]","trial_type":"similarity","trial_index":185,"time_elapsed":976804,"internal_node_id":"0.0-6.0-179.0"},{"sim_score":1,"rt":2379,"stimulus":"[\"img/0874/99f6563c-8a8d-4c1c-a41d-667b618c3fd5.jpg\",\"img/0860/d9a0d117-6d1d-41c0-8fec-9aff0fd9e9f2.jpg\"]","trial_type":"similarity","trial_index":186,"time_elapsed":980201,"internal_node_id":"0.0-6.0-180.0"},{"sim_score":2,"rt":2969,"stimulus":"[\"img/0769/aad494cc-674d-4a08-9bfa-24a88ebe3c79.jpg\",\"img/0874/1016b306-087c-4afc-aa08-fa527b28dc76.jpg\"]","trial_type":"similarity","trial_index":187,"time_elapsed":984195,"internal_node_id":"0.0-6.0-181.0"},{"sim_score":3,"rt":3633,"stimulus":"[\"img/0904/6291eb43-c10c-4810-a36a-101d09868b04.jpg\",\"img/0766/fd74fdbb-ea40-4f3a-a091-38d08dfd636e.jpg\"]","trial_type":"similarity","trial_index":188,"time_elapsed":988875,"internal_node_id":"0.0-6.0-182.0"},{"sim_score":2,"rt":3725,"stimulus":"[\"img/0902/71c03003-03ef-4b0f-8229-e0c857150a5d.jpg\",\"img/0764/ca957454-126a-4bd3-b29c-7174a24c25dc.jpg\"]","trial_type":"similarity","trial_index":189,"time_elapsed":993637,"internal_node_id":"0.0-6.0-183.0"},{"sim_score":1,"rt":2754,"stimulus":"[\"img/0769/4680bcc3-8fbc-4643-8f9a-12aa0e780b64.jpg\",\"img/0875/ebf7653f-ff45-4e9f-af58-2c042ab3cd2b.jpg\"]","trial_type":"similarity","trial_index":190,"time_elapsed":997425,"internal_node_id":"0.0-6.0-184.0"},{"sim_score":3,"rt":2768,"stimulus":"[\"img/0867/ac1797e4-8afc-48fe-b252-86d1defb1cca.jpg\",\"img/0903/43ffd882-077a-40dd-a264-e58d519420a1.jpg\"]","trial_type":"similarity","trial_index":191,"time_elapsed":1001214,"internal_node_id":"0.0-6.0-185.0"},{"sim_score":4,"rt":3527,"stimulus":"[\"img/0862/e697469a-ec19-4414-b972-7b9f3564785b.jpg\",\"img/0769/f229321f-04dd-42d7-b14a-ffad6b509862.jpg\"]","trial_type":"similarity","trial_index":192,"time_elapsed":1005788,"internal_node_id":"0.0-6.0-186.0"},{"sim_score":1,"rt":2408,"stimulus":"[\"img/0766/2746b119-4bba-463e-acf0-88136dc6600c.jpg\",\"img/0866/f756f7d1-9ad8-4a34-9ef6-7a443d705bfe.jpg\"]","trial_type":"similarity","trial_index":193,"time_elapsed":1009237,"internal_node_id":"0.0-6.0-187.0"},{"sim_score":1,"rt":3280,"stimulus":"[\"img/0769/387a9744-d6a7-42b8-bab8-33007ec434aa.jpg\",\"img/0860/87039971-2210-4aab-93c0-8e9b5f1655b2.jpg\"]","trial_type":"similarity","trial_index":194,"time_elapsed":1013550,"internal_node_id":"0.0-6.0-188.0"},{"sim_score":1,"rt":2714,"stimulus":"[\"img/0881/48ed65a5-471f-41af-86ec-3793805c116d.jpg\",\"img/0868/1a62b2b2-18f5-466e-b564-5176a57c565e.jpg\"]","trial_type":"similarity","trial_index":195,"time_elapsed":1021236,"internal_node_id":"0.0-6.0-189.0"},{"view_history":"[{\"page_index\":0,\"viewing_time\":8034}]","rt":8035,"trial_type":"instructions","trial_index":196,"time_elapsed":1030286,"internal_node_id":"0.0-7.0"},{"rt":84311,"responses":"{\"Q0\":\"Nashville Warbler\"}","answer":["Nashville Warbler"],"trial_type":"image-multi-choice","trial_index":197,"time_elapsed":1115693,"internal_node_id":"0.0-8.0-0.0"},{"rt":8157,"responses":"{\"Q0\":\"Black-and-white Warbler\"}","answer":["Black-and-white Warbler"],"trial_type":"image-multi-choice","trial_index":198,"time_elapsed":1124921,"internal_node_id":"0.0-8.0-1.0"},{"rt":23238,"responses":"{\"Q0\":\"Townsend's Warbler\"}","answer":["Townsend's Warbler"],"trial_type":"image-multi-choice","trial_index":199,"time_elapsed":1149213,"internal_node_id":"0.0-8.0-2.0"},{"rt":5037,"responses":"{\"Q0\":\"Lark Sparrow\"}","answer":["Lark Sparrow"],"trial_type":"image-multi-choice","trial_index":200,"time_elapsed":1155331,"internal_node_id":"0.0-8.0-3.0"},{"rt":4247,"responses":"{\"Q0\":\"Yellow Warbler\"}","answer":["Yellow Warbler"],"trial_type":"image-multi-choice","trial_index":201,"time_elapsed":1160648,"internal_node_id":"0.0-8.0-4.0"},{"rt":20845,"responses":"{\"Q0\":\"Orange-crowned Warbler\"}","answer":["Orange-crowned Warbler"],"trial_type":"image-multi-choice","trial_index":202,"time_elapsed":1182586,"internal_node_id":"0.0-8.0-5.0"},{"rt":3547,"responses":"{\"Q0\":\"White-throated Sparrow\"}","answer":["White-throated Sparrow"],"trial_type":"image-multi-choice","trial_index":203,"time_elapsed":1187203,"internal_node_id":"0.0-8.0-6.0"},{"rt":3962,"responses":"{\"Q0\":\"Fox Sparrow\"}","answer":["Fox Sparrow"],"trial_type":"image-multi-choice","trial_index":204,"time_elapsed":1192226,"internal_node_id":"0.0-8.0-7.0"},{"rt":8801,"responses":"{\"Q0\":\"Song Sparrow\"}","answer":["Song Sparrow"],"trial_type":"image-multi-choice","trial_index":205,"time_elapsed":1202108,"internal_node_id":"0.0-8.0-8.0"},{"rt":7547,"responses":"{\"Q0\":\"Blackburnian Warbler\"}","answer":["Blackburnian Warbler"],"trial_type":"image-multi-choice","trial_index":206,"time_elapsed":1210736,"internal_node_id":"0.0-8.0-9.0"},{"rt":29652,"responses":"{\"Q0\":\"Vesper Sparrow\"}","answer":["Vesper Sparrow"],"trial_type":"image-multi-choice","trial_index":207,"time_elapsed":1241465,"internal_node_id":"0.0-8.0-10.0"},{"rt":3071,"responses":"{\"Q0\":\"White-crowned Sparrow\"}","answer":["White-crowned Sparrow"],"trial_type":"image-multi-choice","trial_index":208,"time_elapsed":1245632,"internal_node_id":"0.0-8.0-11.0"},{"rt":7205,"responses":"{\"Q0\":\"American Tree Sparrow\"}","answer":["American Tree Sparrow"],"trial_type":"image-multi-choice","trial_index":209,"time_elapsed":1253901,"internal_node_id":"0.0-8.0-12.0"},{"rt":25884,"responses":"{\"Q0\":\"Tennessee Warbler\"}","answer":["Tennessee Warbler"],"trial_type":"image-multi-choice","trial_index":210,"time_elapsed":1280865,"internal_node_id":"0.0-8.0-13.0"},{"rt":6372,"responses":"{\"Q0\":\"Magnolia Warbler\"}","answer":["Magnolia Warbler"],"trial_type":"image-multi-choice","trial_index":211,"time_elapsed":1288339,"internal_node_id":"0.0-8.0-14.0"},{"rt":5349,"responses":"{\"Q0\":\"Northern Waterthrush\"}","answer":["Northern Waterthrush"],"trial_type":"image-multi-choice","trial_index":212,"time_elapsed":1294784,"internal_node_id":"0.0-8.0-15.0"},{"rt":55421,"responses":"{\"Q0\":\"Swamp Sparrow\"}","answer":["Chipping Sparrow"],"trial_type":"image-multi-choice","trial_index":213,"time_elapsed":1351279,"internal_node_id":"0.0-8.0-16.0"},{"rt":4918,"responses":"{\"Q0\":\"Lincoln's Sparrow\"}","answer":["Swamp Sparrow"],"trial_type":"image-multi-choice","trial_index":214,"time_elapsed":1357283,"internal_node_id":"0.0-8.0-17.0"},{"rt":9923,"responses":"{\"Q0\":\"Lincoln's Sparrow\"}","answer":["Lincoln's Sparrow"],"trial_type":"image-multi-choice","trial_index":215,"time_elapsed":1368270,"internal_node_id":"0.0-8.0-18.0"},{"rt":3859,"responses":"{\"Q0\":\"Ovenbird\"}","answer":["Ovenbird"],"trial_type":"image-multi-choice","trial_index":216,"time_elapsed":1373205,"internal_node_id":"0.0-8.0-19.0"}]