"view_history","rt","trial_type","trial_index","time_elapsed","internal_node_id","sim_score","stimulus","responses","answer"
"[{""page_index"":0,""viewing_time"":22262}]","22263","instructions","0","22265","0.0-0.0","","","",""
"","12326","similarity_demo","1","35596","0.0-1.0","7","[""img/bluejay1.jpg"",""img/bluejay2.jpg""]","",""
"[{""page_index"":0,""viewing_time"":10382}]","10382","instructions","2","46979","0.0-2.0","","","",""
"","8515","similarity_demo","3","56498","0.0-3.0","3","[""img/bluejay1.jpg"",""img/cardinal1.jpg""]","",""
"[{""page_index"":0,""viewing_time"":6265}]","6266","instructions","4","63765","0.0-4.0","","","",""
"[{""page_index"":0,""viewing_time"":65477}]","65477","instructions","5","130243","0.0-5.0","","","",""
"","6433","similarity","6","137681","0.0-6.0-0.0","3","[""img/0868/293079b8-7e0c-4afd-a390-1e5d35fe3ded.jpg"",""img/0894/2217bdcd-23a7-42d3-823b-23f2488d7e87.jpg""]","",""
"","5408","similarity","7","144093","0.0-6.0-1.0","3","[""img/0898/0af304a2-6a7a-4082-ab7c-4450cd08cc58.jpg"",""img/0758/9fb5b2fe-3f00-4fe6-973c-1ce10d5f4cd5.jpg""]","",""
"","4430","similarity","8","149527","0.0-6.0-2.0","5","[""img/0903/c708d08f-a108-4e04-8288-c3fcf6375db4.jpg"",""img/0894/7f2f31fd-6618-41c6-b65a-0fd8b2851bc9.jpg""]","",""
"","6658","similarity","9","157189","0.0-6.0-3.0","5","[""img/0881/c24f3051-eefa-42de-aba6-fccb56d93c70.jpg"",""img/0766/a754e4b6-5019-4cf4-8f58-34c20547a1f5.jpg""]","",""
"","5747","similarity","10","163939","0.0-6.0-4.0","2","[""img/0864/0f537697-a314-47c3-a8cc-8df23b7e536c.jpg"",""img/0860/5bff793e-cbd5-4d7e-b628-0ac2b0e30b64.jpg""]","",""
"","4508","similarity","11","169452","0.0-6.0-5.0","5","[""img/0902/cf9dee9c-2bdf-4d64-9302-97f1660fe52c.jpg"",""img/0899/7b7380d5-d2be-44e5-a09a-c1756f87ef71.jpg""]","",""
"","4801","similarity","12","175257","0.0-6.0-6.0","3","[""img/0868/0d3abd3a-b6c3-4584-a9f7-e2da63748b3d.jpg"",""img/0769/14d393ce-e5be-4ca1-86ce-cc27d4b6074c.jpg""]","",""
"","4667","similarity","13","180927","0.0-6.0-7.0","2","[""img/0764/a3226bc4-dcc3-4608-bde8-1414d685ce5c.jpg"",""img/0901/33b51a81-06d9-46d9-9d4f-5a2d6d6b8058.jpg""]","",""
"","4419","similarity","14","186349","0.0-6.0-8.0","5","[""img/0881/b549bc99-a61c-4450-bab5-9efc3a197bf0.jpg"",""img/0866/0207e9a2-7dbb-40b5-9459-b472aaeceb2a.jpg""]","",""
"","3924","similarity","15","191277","0.0-6.0-9.0","4","[""img/0867/26611f4e-d694-4460-b7e2-43c62753ddc3.jpg"",""img/0899/565ccdd9-0933-4536-a625-3c0e25a713dd.jpg""]","",""
"","4149","similarity","16","196430","0.0-6.0-10.0","3","[""img/0875/3ecb367d-e9eb-4826-8aaa-7aa72fb98019.jpg"",""img/0766/214866ee-423d-4629-9bb9-41572bdc7dac.jpg""]","",""
"","3756","similarity","17","201189","0.0-6.0-11.0","3","[""img/0901/875dedb9-24c9-4443-9f8c-85e97d70ee5a.jpg"",""img/0875/a4935837-7d3c-4df6-88c1-36a94d4991ca.jpg""]","",""
"","4239","similarity","18","206431","0.0-6.0-12.0","3","[""img/0902/af40b98b-3d23-4d95-b401-49ba5783ce39.jpg"",""img/0860/524b2e98-5767-4d53-942c-ebae6925659b.jpg""]","",""
"","3599","similarity","19","211033","0.0-6.0-13.0","4","[""img/0874/7e4f2150-3b59-4a36-b5da-a4e0ba410531.jpg"",""img/0867/8ba0c5a7-c7e4-42cf-a80a-543763b90779.jpg""]","",""
"","3857","similarity","20","215893","0.0-6.0-14.0","3","[""img/0904/73920552-103b-4c9c-9ece-e0b8376b4504.jpg"",""img/0866/6f2a90d7-14f1-4f1b-bd64-fc0af6b9fe44.jpg""]","",""
"","4678","similarity","21","221574","0.0-6.0-15.0","3","[""img/0758/e1ba5e53-addc-436a-b428-d34fc1b130dc.jpg"",""img/0902/9f543501-3cf1-45a7-a2f1-eeca87cc15b9.jpg""]","",""
"","3935","similarity","22","226513","0.0-6.0-16.0","3","[""img/0867/12264664-1860-46df-8c21-162b9817cdda.jpg"",""img/0898/68476bbb-34a1-42d9-8bc1-deab783d4489.jpg""]","",""
"","3475","similarity","23","230991","0.0-6.0-17.0","3","[""img/0904/4d7d70a3-9477-4921-bda0-f9531d0a5c5b.jpg"",""img/0868/7b212364-ff5f-4e28-9241-7eb6ea00161b.jpg""]","",""
"","3881","similarity","24","235874","0.0-6.0-18.0","5","[""img/0766/e8052e17-9dae-4139-802b-6e590cb2d526.jpg"",""img/0864/8ddd2e30-a1d0-479f-9cbe-591213023893.jpg""]","",""
"","4419","similarity","25","241296","0.0-6.0-19.0","5","[""img/0899/93494f3b-d539-4075-b027-d82e344563da.jpg"",""img/0766/a1ed3f0f-e338-4a26-8fe4-4370f0c9fa6e.jpg""]","",""
"","4329","similarity","26","246629","0.0-6.0-20.0","5","[""img/0764/d0bef2e0-e16b-4c82-9451-c1d16265eb67.jpg"",""img/0758/a709631e-3705-4725-ac40-f0d916924f08.jpg""]","",""
"","3205","similarity","27","250837","0.0-6.0-21.0","4","[""img/0901/d4d09bf5-093e-4050-838e-7c738be8e63c.jpg"",""img/0874/eba003b4-cdab-4eee-8bc3-f064c7d94165.jpg""]","",""
"","4003","similarity","28","255843","0.0-6.0-22.0","4","[""img/0875/527ced51-8e53-4aab-ab05-86df219104c0.jpg"",""img/0758/eabcd7a8-56ad-4fd2-bc24-90f6b7b33265.jpg""]","",""
"","6445","similarity","29","263291","0.0-6.0-23.0","5","[""img/0867/5e07b34d-b40f-4b1c-ac10-49975bace45f.jpg"",""img/0881/db77fe00-aeb0-4d1d-aa66-f3a96fd077e4.jpg""]","",""
"","3913","similarity","30","268207","0.0-6.0-24.0","3","[""img/0758/3ddd05d3-557e-4ee7-8b78-9d2d681d8ae2.jpg"",""img/0901/a6c90438-fa7c-4418-ac7c-16c2e772dd98.jpg""]","",""
"","9730","similarity","31","278940","0.0-6.0-25.0","4","[""img/0868/c8ac40c7-6904-4e13-8d61-c75d3052dc4e.jpg"",""img/0875/90da8d75-108a-44ad-b999-e21fee3860d3.jpg""]","",""
"","4307","similarity","32","284250","0.0-6.0-26.0","3","[""img/0903/005ad0de-4f52-433c-b515-dbe8d46184a3.jpg"",""img/0901/08d6d1d1-c043-43c4-bb08-d45e062822b9.jpg""]","",""
"","3801","similarity","33","289054","0.0-6.0-27.0","5","[""img/0894/76c1201f-8524-4865-85e6-dda8cb4ac986.jpg"",""img/0899/ddf96ade-692e-4602-bd22-dedbb46401bc.jpg""]","",""
"","6254","similarity","34","296311","0.0-6.0-28.0","5","[""img/0862/92fcd8a4-8193-4a6a-ae09-dd4a6338b0df.jpg"",""img/0867/c66898ba-b71b-4d50-84f9-f7f84853a98d.jpg""]","",""
"","3058","similarity","35","300372","0.0-6.0-29.0","4","[""img/0864/9b2490c5-a282-400a-9736-e1a0ecbf1cb7.jpg"",""img/0875/5a716432-c6ca-4b1c-955a-2b8ac25198ee.jpg""]","",""
"","3700","similarity","36","305075","0.0-6.0-30.0","4","[""img/0862/53a9cf7c-93c4-41b9-952f-07d17f7a17b2.jpg"",""img/0874/1016b306-087c-4afc-aa08-fa527b28dc76.jpg""]","",""
"","3789","similarity","37","309868","0.0-6.0-31.0","4","[""img/0903/e2e55a9e-0397-4dc0-8adf-4a54cfefe1fe.jpg"",""img/0758/b76ceca7-95ac-46e4-ac13-da02c8e93be9.jpg""]","",""
"","4813","similarity","38","315684","0.0-6.0-32.0","3","[""img/0866/8efcaa46-83ab-4dee-a35f-850402aa21ae.jpg"",""img/0901/1ede21d9-384f-4150-86b5-e1c57b5dc1d4.jpg""]","",""
"","4836","similarity","39","321523","0.0-6.0-33.0","3","[""img/0874/ca76a855-4e77-4f2f-872a-0a718153e7ed.jpg"",""img/0899/51a7a498-98c7-42d7-bca8-bc2d8f0b5831.jpg""]","",""
"","4071","similarity","40","326597","0.0-6.0-34.0","4","[""img/0903/72197c2b-403e-4a26-b391-f1aa8dea4b76.jpg"",""img/0902/d5e25767-e8ec-45f3-ac0a-7b4a6f7a9edc.jpg""]","",""
"","4554","similarity","41","332154","0.0-6.0-35.0","3","[""img/0758/53f35650-e455-4b53-8be4-c3c8271c6466.jpg"",""img/0866/23a224f3-2012-4fc8-8e0f-3c36f8de27fd.jpg""]","",""
"","4015","similarity","42","337172","0.0-6.0-36.0","4","[""img/0875/5a1e5100-0d94-4fec-bbe9-ca9894d2cf8e.jpg"",""img/0903/8fcafe03-43df-4c45-9da5-0df3a1eeccc5.jpg""]","",""
"","3767","similarity","43","358750","0.0-6.0-37.0","3","[""img/0864/5f33e097-23e3-4002-882d-76e8cb15f451.jpg"",""img/0902/2a7ac123-414a-476a-9a96-4757b924baef.jpg""]","",""
"","5388","similarity","44","365140","0.0-6.0-38.0","3","[""img/0901/233a6948-48eb-4b67-8259-222b916b2322.jpg"",""img/0867/50a1b60e-3a29-44bf-b606-d4bd3746fea9.jpg""]","",""
"","4554","similarity","45","370698","0.0-6.0-39.0","7","[""img/0862/e697469a-ec19-4414-b972-7b9f3564785b.jpg"",""img/0860/18dfed73-e36b-4487-a8bd-0b8cff8e3668.jpg""]","",""
"","3621","similarity","46","375322","0.0-6.0-40.0","6","[""img/0867/f8159067-056c-41f1-a136-c529fe5e970a.jpg"",""img/0868/8b0b8473-e2c0-4331-aa56-c3a5c29369da.jpg""]","",""
"","4251","similarity","47","380576","0.0-6.0-41.0","5","[""img/0904/b5855d6a-7ef9-46ca-9215-6e9fa046e543.jpg"",""img/0899/0433d056-aa30-4f8a-9aa1-abbb951e4edd.jpg""]","",""
"","3341","similarity","48","384918","0.0-6.0-42.0","4","[""img/0862/92f0146c-20c4-482e-aef5-adb693790338.jpg"",""img/0894/3664e04c-c6d3-4c9b-afb6-25d89974b174.jpg""]","",""
"","5106","similarity","49","391027","0.0-6.0-43.0","4","[""img/0875/2c361b79-c3d1-4eda-812e-bf03192407bf.jpg"",""img/0904/5cceabc9-de1d-4c67-989b-c28a4ef77e79.jpg""]","",""
"","4971","similarity","50","397001","0.0-6.0-44.0","3","[""img/0874/93d1f8dc-acf2-4f03-bd8d-8ec35df276ed.jpg"",""img/0898/40f99fb2-64d2-4e72-8a7f-a1cf60741e69.jpg""]","",""
"","4205","similarity","51","402210","0.0-6.0-45.0","4","[""img/0898/881e2a85-d5c2-49be-a0c6-8a6ce2c4af08.jpg"",""img/0868/fd307a36-9a3a-47d7-ab7c-f810d0b35040.jpg""]","",""
"","6400","similarity","52","409613","0.0-6.0-46.0","6","[""img/0901/b123d109-47b4-4f9a-80c9-9bb16da42efa.jpg"",""img/0860/71e1aad0-2cdf-43bb-94a4-a8c016997c30.jpg""]","",""
"","3632","similarity","53","414248","0.0-6.0-47.0","4","[""img/0894/7fb082e0-ce79-485c-9109-04367fb32275.jpg"",""img/0902/c018bd7a-d91a-4192-aea4-7259cfcdb6c4.jpg""]","",""
"","5567","similarity","54","420818","0.0-6.0-48.0","3","[""img/0764/39a9fc7e-b863-432c-9374-de43983f31a5.jpg"",""img/0862/00c06b00-3b73-44e9-bc1e-c5aafb438321.jpg""]","",""
"","6501","similarity","55","428322","0.0-6.0-49.0","5","[""img/0881/f037e3b0-09cb-4a83-b2d9-6a71fe474e63.jpg"",""img/0758/2fa3e613-e676-4e6e-bd12-705327eeb3e1.jpg""]","",""
"","3880","similarity","56","433205","0.0-6.0-50.0","5","[""img/0766/26d3ae14-8275-4e08-99b2-a6598c193ddf.jpg"",""img/0769/3c1efec9-f8fd-487d-8955-4be88e48c832.jpg""]","",""
"","3273","similarity","57","437480","0.0-6.0-51.0","6","[""img/0875/d59ff733-eaff-4ee2-9443-06954dd0bcb6.jpg"",""img/0866/be24ab58-230e-4db8-9f45-ff04c9aec6bb.jpg""]","",""
"","2643","similarity","58","441125","0.0-6.0-52.0","4","[""img/0894/c505c65a-cde2-4f2c-8cde-f8676f7c894d.jpg"",""img/0904/0d17b811-063e-416e-a23c-3b3cfa4fcce5.jpg""]","",""
"","3925","similarity","59","446053","0.0-6.0-53.0","3","[""img/0758/7ffbc76b-1fc1-432c-8f7e-9ec8d1b3f643.jpg"",""img/0769/aad494cc-674d-4a08-9bfa-24a88ebe3c79.jpg""]","",""
"","3993","similarity","60","451048","0.0-6.0-54.0","3","[""img/0902/962f645e-9b55-4628-9b50-c703422bfe1a.jpg"",""img/0874/995f0332-0439-4eb4-add3-957335dbf6d9.jpg""]","",""
"","3960","similarity","61","456011","0.0-6.0-55.0","3","[""img/0903/81368973-de81-46f4-844f-b901f3bfd66d.jpg"",""img/0862/de9ad88c-b522-430a-8ee9-eb06a9f85df5.jpg""]","",""
"","3856","similarity","62","460870","0.0-6.0-56.0","3","[""img/0866/07c9c966-3c8d-40e7-8128-92b2acbaed5d.jpg"",""img/0894/11674fa4-285d-44e2-939f-2228c6a64080.jpg""]","",""
"","3891","similarity","63","465764","0.0-6.0-57.0","3","[""img/0867/7d1c497b-c1b3-4ed8-abb5-d7f73306015f.jpg"",""img/0904/4b8daf2a-13a9-4ea9-9e0b-b265b6e933e7.jpg""]","",""
"","3914","similarity","64","470680","0.0-6.0-58.0","3","[""img/0875/99698b4d-b4a1-44bc-8c83-8ea755bbbf61.jpg"",""img/0881/405484ae-0d00-4b05-bc57-6420a36adfac.jpg""]","",""
"","5804","similarity","65","477487","0.0-6.0-59.0","3","[""img/0866/f756f7d1-9ad8-4a34-9ef6-7a443d705bfe.jpg"",""img/0860/c5ccd1a4-4bb7-48e1-9b25-72cfaf06909b.jpg""]","",""
"","6534","similarity","66","485024","0.0-6.0-60.0","6","[""img/0903/470acfd5-5571-4a7b-b3a4-28d87e098138.jpg"",""img/0866/02f5e6b9-52b7-448c-9708-5b460d0c9a23.jpg""]","",""
"","3948","similarity","67","489974","0.0-6.0-61.0","4","[""img/0860/17b44a7d-c5ca-479f-9e87-f65a64f5c80e.jpg"",""img/0875/8521fd58-3b1e-4dc5-97ae-804edfa6734a.jpg""]","",""
"","4049","similarity","68","495026","0.0-6.0-62.0","5","[""img/0898/01bfe666-3510-4fc7-964f-d00d28732dc8.jpg"",""img/0862/ad593cc7-cabe-4bb7-8e14-8a447a0717b4.jpg""]","",""
"","4420","similarity","69","500449","0.0-6.0-63.0","6","[""img/0902/511abb54-0094-4f4d-b6dc-3f2c97050521.jpg"",""img/0766/f5f78e4e-d88f-4866-951a-118ba9fec4d0.jpg""]","",""
"","4329","similarity","70","505781","0.0-6.0-64.0","7","[""img/0758/335851a0-a55b-46d8-ab05-8463eda48349.jpg"",""img/0864/0116ca98-293d-4fa6-a93b-5a6144ef64cc.jpg""]","",""
"","3779","similarity","71","510563","0.0-6.0-65.0","5","[""img/0894/e6385e52-6c35-43bd-b0af-bc803d107b11.jpg"",""img/0860/8277806e-b684-4474-8f7b-3fca946d7d4f.jpg""]","",""
"","3362","similarity","72","514928","0.0-6.0-66.0","3","[""img/0899/8abe6c69-822c-436c-9bf2-96c818b49ba5.jpg"",""img/0868/4a8a45ed-2c4f-421b-9564-409a33ecd26c.jpg""]","",""
"","4363","similarity","73","520294","0.0-6.0-67.0","4","[""img/0866/a04d37f0-99dd-478a-b6c6-58b215138f84.jpg"",""img/0862/064818ee-13d5-4618-bb24-21c7368ea278.jpg""]","",""
"","4420","similarity","74","525717","0.0-6.0-68.0","5","[""img/0860/8fdba999-b946-4c7d-9891-336018b563ef.jpg"",""img/0758/caa93da2-9edf-49fa-96b9-32dedd8f5078.jpg""]","",""
"","3418","similarity","75","530138","0.0-6.0-69.0","4","[""img/0902/417d8b4a-3c72-4adc-ac78-820e833316f2.jpg"",""img/0867/2e1a0b58-cdb1-4107-a14e-452530d7b9b0.jpg""]","",""
"","4634","similarity","76","535775","0.0-6.0-70.0","6","[""img/0862/847e5208-38ec-4f36-949c-296cdd7424ee.jpg"",""img/0901/ae1e6ce4-2e10-4ca9-b1e7-21628637ab74.jpg""]","",""
"","4802","similarity","77","541580","0.0-6.0-71.0","7","[""img/0867/de92135f-5b65-4ed9-b245-188292c7c2f8.jpg"",""img/0866/386235d2-6857-41e7-88a8-25cfc3430025.jpg""]","",""
"","4386","similarity","78","546969","0.0-6.0-72.0","5","[""img/0860/31ff6436-98bf-4652-bed2-40f627229568.jpg"",""img/0904/0d25eb24-bb20-4e8d-9787-8b489558b4cb.jpg""]","",""
"","3733","similarity","79","551705","0.0-6.0-73.0","3","[""img/0875/cff79b3a-a797-4393-9757-6275f999ec04.jpg"",""img/0899/9de5e857-aa9a-4e0c-8ba2-46d79bd069a4.jpg""]","",""
"","3441","similarity","80","556149","0.0-6.0-74.0","3","[""img/0899/d60714ae-98d7-4564-8c98-94dba1351135.jpg"",""img/0758/d41c06bf-ebaf-454b-91c6-1a17f917b659.jpg""]","",""
"","4060","similarity","81","569311","0.0-6.0-75.0","3","[""img/0862/57b6f83f-c763-4858-830d-102f97bfefbf.jpg"",""img/0875/5a7c4e35-6514-4e12-8879-d16071da4cd6.jpg""]","",""
"","5118","similarity","82","575432","0.0-6.0-76.0","4","[""img/0901/b453df0b-4c39-49bb-8ced-6127efffa898.jpg"",""img/0894/5ff3c4f6-52e2-4075-8679-be0312e59703.jpg""]","",""
"","3026","similarity","83","579460","0.0-6.0-77.0","3","[""img/0766/09f646c8-a69e-4ed3-879c-8d29b04ad7f9.jpg"",""img/0758/67c0be2f-9e91-48b3-8219-70ac0a1802fa.jpg""]","",""
"","4690","similarity","84","585153","0.0-6.0-78.0","5","[""img/0894/b422d5c6-3c5a-49ae-a53e-7e88ac993f49.jpg"",""img/0764/0e7ed062-f798-4366-8a24-6f430926f919.jpg""]","",""
"","3283","similarity","85","589439","0.0-6.0-79.0","3","[""img/0860/b03b963d-949b-4d8d-b19c-4950c89eeca2.jpg"",""img/0867/f8488a47-94ee-4166-952c-44e16cf172f6.jpg""]","",""
"","3958","similarity","86","594400","0.0-6.0-80.0","5","[""img/0898/26c41340-15bd-4ead-8fe4-c0d0ddca09c2.jpg"",""img/0901/548d1110-7cb8-42a2-9927-9798875c8b5c.jpg""]","",""
"","7840","similarity","87","603243","0.0-6.0-81.0","5","[""img/0874/3f471690-9788-4d03-90c7-f615aecef149.jpg"",""img/0764/ef0e64c6-d0dd-4dc6-87b6-ce5c0665f421.jpg""]","",""
"","4273","similarity","88","608519","0.0-6.0-82.0","3","[""img/0899/1b3457ea-87d4-4946-a01c-aac1863ed46c.jpg"",""img/0862/ee3b7bff-4a70-4e84-9bea-4a565e456acb.jpg""]","",""
"","3982","similarity","89","613503","0.0-6.0-83.0","6","[""img/0766/79767d11-b612-4e8a-9e4b-a8ac95bb6a54.jpg"",""img/0901/58978a6d-a3e2-4c59-8d62-f60693ecc0f6.jpg""]","",""
"","3295","similarity","90","617801","0.0-6.0-84.0","4","[""img/0881/0c7068da-d0d9-4103-bda1-74ef7a2b32c3.jpg"",""img/0898/6cd3830b-d44e-4915-be2b-88d31424b91c.jpg""]","",""
"","4183","similarity","91","622987","0.0-6.0-85.0","5","[""img/0868/179a5502-ab5c-478e-8263-5a1fbcc101d2.jpg"",""img/0860/5383b320-1518-4095-a58e-5cc1ae30b64c.jpg""]","",""
"","4071","similarity","92","628061","0.0-6.0-86.0","6","[""img/0758/61d64021-9214-4951-bdf8-f871f9827cf9.jpg"",""img/0868/77091fc7-a590-4ebb-b915-fdb2483a2399.jpg""]","",""
"","3644","similarity","93","632708","0.0-6.0-87.0","3","[""img/0864/e02eddb5-f468-499c-91bf-f7be3ffe979b.jpg"",""img/0894/6aa5545f-fa7d-4286-bbaa-aaf34dc7ec96.jpg""]","",""
"","4015","similarity","94","637725","0.0-6.0-88.0","3","[""img/0866/d266fece-59b3-46fa-b69f-96f6efb81b59.jpg"",""img/0902/95a36b6b-9601-4fa5-8fd9-606ea62f9425.jpg""]","",""
"","3554","similarity","95","642282","0.0-6.0-89.0","3","[""img/0769/387a9744-d6a7-42b8-bab8-33007ec434aa.jpg"",""img/0867/a498eef3-9fa4-4ab2-9778-4ae82ac40dc5.jpg""]","",""
"","4094","similarity","96","647378","0.0-6.0-90.0","5","[""img/0874/31e22c7c-99aa-40b1-bf03-dd73fa2df4d6.jpg"",""img/0875/f87b67d7-c33e-40d1-b281-248c4be1cb6e.jpg""]","",""
"","4195","similarity","97","652576","0.0-6.0-91.0","6","[""img/0864/e336a4c5-6648-4fd7-b2f6-93a3fb83f8c6.jpg"",""img/0874/85eb9b8a-c4c6-4e5a-b8e7-363a87a82054.jpg""]","",""
"","4432","similarity","98","658010","0.0-6.0-92.0","5","[""img/0881/62a64f90-7a72-4aee-a1a1-0c548ac9bdda.jpg"",""img/0862/47ed5efd-4ec9-4b74-bb4e-a5f5cf0c3e7d.jpg""]","",""
"","3476","similarity","99","662487","0.0-6.0-93.0","7","[""img/0864/6f631579-acf1-415c-a42c-1207f62a8d99.jpg"",""img/0881/adc02f34-ce97-4aef-850f-00519df06fd7.jpg""]","",""
"","3655","similarity","100","667145","0.0-6.0-94.0","6","[""img/0899/0adc0bc3-6fca-4078-be6f-d45ddf1653d5.jpg"",""img/0901/12da1841-e611-435c-9719-109413d536a8.jpg""]","",""
"","5275","similarity","101","673423","0.0-6.0-95.0","4","[""img/0874/29830da7-be5f-44e5-b141-652a0ccf7269.jpg"",""img/0766/5d1b8041-c5a1-4b02-b4fe-3453d98a0d72.jpg""]","",""
"","3418","similarity","102","677844","0.0-6.0-96.0","3","[""img/0881/5fe04dd0-5c74-47b7-99c8-b068db9ca26a.jpg"",""img/0899/8de08897-b430-42fe-9d42-840670b80f94.jpg""]","",""
"","3396","similarity","103","682243","0.0-6.0-97.0","3","[""img/0862/5d887e9f-89e2-4ebc-80a0-6d46fe6480db.jpg"",""img/0902/bd89a85f-3853-4786-acd6-98818ee29f1c.jpg""]","",""
"","4397","similarity","104","687643","0.0-6.0-98.0","7","[""img/0899/fd9efb43-701f-4cd6-baaa-4c38315f4bdc.jpg"",""img/0764/5d6fa3ce-9083-410c-bbdb-336a49b94cfc.jpg""]","",""
"","5501","similarity","105","694146","0.0-6.0-99.0","6","[""img/0758/d57c2592-a317-4f63-91be-91a3a9afd222.jpg"",""img/0862/f188d4f0-76a4-4102-818c-a209969d73a5.jpg""]","",""
"","5466","similarity","106","700615","0.0-6.0-100.0","7","[""img/0764/1f95ab5f-fb65-4d70-b5db-d6bd6351a8aa.jpg"",""img/0898/08c72dac-f8ad-407a-9ce6-8c9a5d679c3a.jpg""]","",""
"","5141","similarity","107","706757","0.0-6.0-101.0","7","[""img/0901/4ca4f962-40c0-4c59-b14a-3cd7b8c9029b.jpg"",""img/0902/94198618-7047-4dc9-ad04-85f4ba913067.jpg""]","",""
"","4342","similarity","108","712102","0.0-6.0-102.0","5","[""img/0764/c01e2d65-6586-441b-bef5-3c96fcd85380.jpg"",""img/0868/5fa7f9d0-f0e5-454c-8224-74d964818f56.jpg""]","",""
"","3947","similarity","109","717052","0.0-6.0-103.0","6","[""img/0769/bb8c4e53-6f32-4814-97ee-392d4decfb2e.jpg"",""img/0881/292e9b4b-fca0-4ba8-87f1-4048f9e37b7d.jpg""]","",""
"","4443","similarity","110","722497","0.0-6.0-104.0","3","[""img/0864/300bb811-8b3c-4c42-8653-6097c3725197.jpg"",""img/0769/a1ce8d07-ba37-40de-bade-2778805521e0.jpg""]","",""
"","3993","similarity","111","727492","0.0-6.0-105.0","7","[""img/0866/620cd1aa-0800-4414-8f6e-90342e7a99ad.jpg"",""img/0868/15dd6fd7-791e-4b53-b203-195d617521a4.jpg""]","",""
"","4285","similarity","112","732780","0.0-6.0-106.0","5","[""img/0868/d98ca254-b195-477f-b57e-5760a2717db8.jpg"",""img/0862/e0f1a4e9-e1b6-45f7-af67-89f334e6630d.jpg""]","",""
"","4194","similarity","113","737977","0.0-6.0-107.0","4","[""img/0766/989c5c7f-1aff-4442-ac63-9d46acf4a891.jpg"",""img/0898/81b08535-2020-4c15-9ce4-2f1e460755ae.jpg""]","",""
"","3655","similarity","114","742635","0.0-6.0-108.0","3","[""img/0898/04e39a7a-fcf6-4156-ab0e-f5871f335e1c.jpg"",""img/0864/87c467d3-abca-482f-ad80-3766c21b1bb3.jpg""]","",""
"","4690","similarity","115","748328","0.0-6.0-109.0","3","[""img/0868/d6d1f30d-4323-435a-b194-7892521bc57e.jpg"",""img/0902/1f4a4c62-68c1-4993-b213-05652a173ed1.jpg""]","",""
"","3328","similarity","116","752659","0.0-6.0-110.0","6","[""img/0904/ba8e689e-9ca6-4608-a2a1-3b0940666ae6.jpg"",""img/0764/e48e6c6f-9e28-420f-836a-8043b2319bb4.jpg""]","",""
"","2822","similarity","117","756484","0.0-6.0-111.0","3","[""img/0894/661b9f9f-4bde-487a-b1ed-87085fde6948.jpg"",""img/0875/e7e66b13-b573-431e-b85e-288ce04a35a3.jpg""]","",""
"","4465","similarity","118","761952","0.0-6.0-112.0","4","[""img/0868/6a28c3b0-3d76-498a-9fb7-ddafc665eca8.jpg"",""img/0874/bf14b896-e930-4fd9-9c05-2e83317a2773.jpg""]","",""
"","2642","similarity","119","776194","0.0-6.0-113.0","7","[""img/0904/60d1a521-edf7-4696-9263-f21ac0e62a01.jpg"",""img/0898/b3290bf9-215b-4b45-b21a-65bdf73f142f.jpg""]","",""
"","5377","similarity","120","782574","0.0-6.0-114.0","3","[""img/0860/99c589b9-9140-4d17-90c0-b344323edcda.jpg"",""img/0766/b84598d0-5b41-4841-88b0-b441b48289f5.jpg""]","",""
"","3339","similarity","121","786916","0.0-6.0-115.0","3","[""img/0894/38cf335f-f76f-4349-8d65-e20cd6859565.jpg"",""img/0874/99f6563c-8a8d-4c1c-a41d-667b618c3fd5.jpg""]","",""
"","3531","similarity","122","791450","0.0-6.0-116.0","6","[""img/0899/7f9d45d0-b2c6-40d3-aa41-c207db2c411b.jpg"",""img/0903/f1fa0f8d-e62b-4b4a-a174-31a0fabfe61b.jpg""]","",""
"","3576","similarity","123","796029","0.0-6.0-117.0","3","[""img/0881/f7a8cc63-8842-40a4-9ff8-fe530310d62c.jpg"",""img/0764/4bec8d92-75aa-475a-954d-8215dbe538f5.jpg""]","",""
"","3486","similarity","124","800518","0.0-6.0-118.0","6","[""img/0903/45e2d600-57ff-4d69-b22c-0c7896cd38f0.jpg"",""img/0769/35364db7-e0d5-40ef-93dc-faf9dfb95136.jpg""]","",""
"","3160","similarity","125","804681","0.0-6.0-119.0","6","[""img/0901/77087ed2-6e12-4329-b2a5-605bca6d972d.jpg"",""img/0904/09934646-45d2-4147-8fec-64a22a5ac822.jpg""]","",""
"","4510","similarity","126","810193","0.0-6.0-120.0","5","[""img/0860/8a92e21b-6a32-4e4a-a445-2d5a487ed0a4.jpg"",""img/0881/6b1189e6-232d-4042-8885-16dc7b10e0d4.jpg""]","",""
"","3936","similarity","127","815132","0.0-6.0-121.0","6","[""img/0758/7fba58df-2a7a-4b76-8a8f-62739f97f271.jpg"",""img/0874/c0378dac-9370-439a-8b79-db27c96fb390.jpg""]","",""
"","4499","similarity","128","820634","0.0-6.0-122.0","6","[""img/0901/7d4a3388-488d-4e9b-9d32-9d0def7aae8d.jpg"",""img/0769/db94b61b-a5a7-4861-9d32-7b02ad194fb0.jpg""]","",""
"","3981","similarity","129","825617","0.0-6.0-123.0","6","[""img/0902/24d10fe7-314f-4d5a-8c7b-b43121bba0a4.jpg"",""img/0904/56e73f28-7e64-489b-a161-e6b1a063878d.jpg""]","",""
"","3655","similarity","130","830275","0.0-6.0-124.0","6","[""img/0899/25ae6ec8-9565-49fe-a8bb-8d0666f52716.jpg"",""img/0864/3651d070-2fc5-4848-b6a6-088a2d9ac5c9.jpg""]","",""
"","4230","similarity","131","835507","0.0-6.0-125.0","3","[""img/0766/2746b119-4bba-463e-acf0-88136dc6600c.jpg"",""img/0868/e0aff734-077f-40dd-9781-74821abd3621.jpg""]","",""
"","3384","similarity","132","839894","0.0-6.0-126.0","7","[""img/0764/21e3292f-01ad-4238-828b-61b817857d16.jpg"",""img/0864/ea327690-500b-4137-bf91-451b309fe6a5.jpg""]","",""
"","4229","similarity","133","845125","0.0-6.0-127.0","2","[""img/0899/b45c550b-96c3-4255-ad59-48a2b4db1c1e.jpg"",""img/0866/4a87911a-d5be-4d4e-ab8e-3d1f581bf507.jpg""]","",""
"","4499","similarity","134","850627","0.0-6.0-128.0","6","[""img/0901/31c032fd-3c3d-4882-a226-da9a80198937.jpg"",""img/0881/f62bdcd1-a4b7-4d48-83da-d9c9e01c8727.jpg""]","",""
"","6074","similarity","135","857703","0.0-6.0-129.0","7","[""img/0898/82231d4c-218b-4d0a-b50d-35a49b524e97.jpg"",""img/0903/6b5dcc60-3ad3-4962-93e5-e6cf768477af.jpg""]","",""
"","3205","similarity","136","861911","0.0-6.0-130.0","5","[""img/0894/10f22b96-040c-44f4-950b-a4963f3f506c.jpg"",""img/0867/a749dddb-69f0-44a6-acdc-2bf295cf6dcc.jpg""]","",""
"","3094","similarity","137","866006","0.0-6.0-131.0","6","[""img/0874/ca23d307-fc00-4d7d-9106-584c6eb21b4d.jpg"",""img/0903/8c358e9e-a4f4-466e-8b93-7aec0d2358e8.jpg""]","",""
"","3869","similarity","138","870877","0.0-6.0-132.0","7","[""img/0899/fef567a2-c121-4481-9af0-ff108d199bbf.jpg"",""img/0898/e167334e-cc1d-4986-b3b1-c7bc7da64baa.jpg""]","",""
"","3937","similarity","139","875816","0.0-6.0-133.0","3","[""img/0867/cc72ed48-7704-422c-86d6-467a1145287a.jpg"",""img/0764/8389e74f-e0e0-435d-945f-da1f4c92ccb6.jpg""]","",""
"","4003","similarity","140","880823","0.0-6.0-134.0","5","[""img/0866/c446214b-a368-4c65-ae39-ea46894256ab.jpg"",""img/0769/878531fd-e0e8-4ad1-b9ad-f018bb104ca0.jpg""]","",""
"","3857","similarity","141","885683","0.0-6.0-135.0","6","[""img/0860/4c530c3c-6aab-492a-94d1-9c01797bde40.jpg"",""img/0898/a114b375-cb89-44ba-9498-74213f1ecdee.jpg""]","",""
"","3621","similarity","142","890307","0.0-6.0-136.0","3","[""img/0881/44e09805-5a25-4f17-a716-4ad4a331b174.jpg"",""img/0903/b7e3723f-fd03-4f3d-8820-f19496463a34.jpg""]","",""
"","3734","similarity","143","895043","0.0-6.0-137.0","7","[""img/0894/3adef67d-7676-4995-80b2-bb31b8aca3ef.jpg"",""img/0766/fd064894-7147-4af5-97e9-2089d5472656.jpg""]","",""
"","4949","similarity","144","900995","0.0-6.0-138.0","3","[""img/0860/61fb959d-d4d9-4de4-9e4e-4fa62b4cfcd5.jpg"",""img/0764/b887d7c6-aa81-4637-af8e-05135757ac59.jpg""]","",""
"","3126","similarity","145","905124","0.0-6.0-139.0","4","[""img/0769/35f2dd39-40aa-498e-b401-9f1ef2622d00.jpg"",""img/0902/a6fb6dd5-696c-47ec-be7d-d7b88f1544f1.jpg""]","",""
"","5432","similarity","146","911559","0.0-6.0-140.0","7","[""img/0904/9b3568cc-3cf7-42be-9df3-fdafde7a58b8.jpg"",""img/0903/5248eedd-7e6a-4d39-91b0-06ec227f3ed0.jpg""]","",""
"","4420","similarity","147","916982","0.0-6.0-141.0","7","[""img/0764/3297a811-ea8b-4d74-9547-59cecab7293a.jpg"",""img/0769/f2740c58-7c02-433f-920b-746b0b75435b.jpg""]","",""
"","4138","similarity","148","922123","0.0-6.0-142.0","3","[""img/0902/d3e55000-c839-4bf9-9b9b-4af0a9925af1.jpg"",""img/0881/dea58fad-b4f1-41d9-bd3f-916eff19a3fd.jpg""]","",""
"","5331","similarity","149","928457","0.0-6.0-143.0","3","[""img/0866/bf14b5bd-fb55-47db-86b9-4f8aeb9a6dad.jpg"",""img/0864/da39ad34-04e0-40d4-a724-c08d53e0ea09.jpg""]","",""
"","3858","similarity","150","933317","0.0-6.0-144.0","3","[""img/0902/22ed3536-288b-452e-9777-0fa0ab94deb0.jpg"",""img/0898/0c7dde4f-efce-4b7a-9387-6921635b7890.jpg""]","",""
"","4927","similarity","151","939246","0.0-6.0-145.0","3","[""img/0862/7918ca67-5bd3-4606-a5ea-c39fb11a9297.jpg"",""img/0864/c3b63e8f-ea39-4d70-a1f2-b3fe4be8eb75.jpg""]","",""
"","5062","similarity","152","945310","0.0-6.0-146.0","2","[""img/0875/03c3c331-738b-4446-af92-3d7386b08c2e.jpg"",""img/0898/5f699581-3853-4547-856c-12f419ba5af7.jpg""]","",""
"","5467","similarity","153","951779","0.0-6.0-147.0","6","[""img/0874/8cdb1c07-1c32-46d2-981c-3636560fa6e5.jpg"",""img/0881/d373cb9f-a719-4549-a2a4-82def79fb2a5.jpg""]","",""
"","3589","similarity","154","956369","0.0-6.0-148.0","3","[""img/0758/6cd8c362-ae2a-41eb-80a3-3a4f7ace1530.jpg"",""img/0894/4739e06d-c31e-4bf1-bf91-c97fa9afb456.jpg""]","",""
"","2924","similarity","155","960296","0.0-6.0-149.0","2","[""img/0904/25365108-e038-4021-aac9-797f2063b337.jpg"",""img/0864/5f74a653-3bdc-4308-8cca-ac667dc22e1f.jpg""]","",""
"","5613","similarity","156","966911","0.0-6.0-150.0","5","[""img/0769/8598a429-c671-4d2f-842c-32f681f5e412.jpg"",""img/0899/4f7bc593-8ddd-4da3-a0b9-84da730d3370.jpg""]","",""
"","5073","similarity","157","978375","0.0-6.0-151.0","6","[""img/0764/fb92924f-5cfe-4b89-b130-0cce8cc5636b.jpg"",""img/0903/6a87dbad-9b8d-4ff5-9c41-03c9aa24f0c3.jpg""]","",""
"","2868","similarity","158","982245","0.0-6.0-152.0","3","[""img/0903/0a92ec52-4e87-410a-857a-4455cde56a70.jpg"",""img/0864/49150900-7f25-4ce8-8d10-9b47a71d1997.jpg""]","",""
"","3655","similarity","159","986903","0.0-6.0-153.0","2","[""img/0894/86201968-6e78-4d68-9b3a-d1692e066210.jpg"",""img/0881/20af39f5-373d-4a55-a437-2dc4c0382c46.jpg""]","",""
"","3981","similarity","160","991887","0.0-6.0-154.0","7","[""img/0875/42910c99-5463-450a-a0f8-d4d060a11455.jpg"",""img/0867/98d8cd96-1476-4fe0-a3a3-04f875500a1b.jpg""]","",""
"","2991","similarity","161","995881","0.0-6.0-155.0","5","[""img/0867/db7e032f-162b-46f5-ae67-2b29679adee4.jpg"",""img/0758/20497cbe-ddae-489e-86e2-ab06985ed07c.jpg""]","",""
"","2608","similarity","162","999492","0.0-6.0-156.0","3","[""img/0868/4e626425-63c8-484a-8a1d-e66ee4e0bef8.jpg"",""img/0901/443f2e59-199b-4f7b-9de9-c44ad97326a5.jpg""]","",""
"","3801","similarity","163","1004296","0.0-6.0-157.0","3","[""img/0769/e8ed913b-8a88-44f6-9327-d34afec3116b.jpg"",""img/0894/a3d4170b-b7d8-40e3-955f-87e76ed745fc.jpg""]","",""
"","3542","similarity","164","1008841","0.0-6.0-158.0","3","[""img/0904/2c98dc56-88d1-4fb5-a999-b6a7861f65f0.jpg"",""img/0758/dd559618-7f09-4a07-8018-d311c4a5ea29.jpg""]","",""
"","3307","similarity","165","1013150","0.0-6.0-159.0","2","[""img/0874/767f289c-9814-4496-803f-745cc8913d1f.jpg"",""img/0904/da170c1b-9651-4f08-b231-2bdd1d9a046f.jpg""]","",""
"","3768","similarity","166","1017920","0.0-6.0-160.0","2","[""img/0864/65210d57-1153-4657-886a-32e758f49b4a.jpg"",""img/0901/62315ff5-ed95-46b4-b099-92552079659b.jpg""]","",""
"","4578","similarity","167","1023500","0.0-6.0-161.0","5","[""img/0898/cd3aaa3f-efa9-4ab3-8d6f-a6a9273ddf42.jpg"",""img/0866/93a27239-8317-4e08-98ca-d8b1ff298e07.jpg""]","",""
"","3339","similarity","168","1027843","0.0-6.0-162.0","6","[""img/0766/110832e5-2646-4bd0-a94e-5df8cc314269.jpg"",""img/0903/d987e220-f3e6-4b6d-a270-fe6757041f6d.jpg""]","",""
"","4184","similarity","169","1033029","0.0-6.0-163.0","6","[""img/0860/fd4662f9-4c03-4d79-8593-06735e55a64b.jpg"",""img/0899/66ab3178-c3fe-4455-ad17-d5952b08e018.jpg""]","",""
"","6894","similarity","170","1040927","0.0-6.0-164.0","5","[""img/0766/c23b5a20-e50f-4d85-841f-cf89212a4348.jpg"",""img/0862/cdaed51d-9e2f-4807-801a-4663c40077e2.jpg""]","",""
"","3397","similarity","171","1045326","0.0-6.0-165.0","6","[""img/0898/c3cecf20-f7fd-45fa-97d0-dc0a63e8d6c0.jpg"",""img/0894/1b3888e6-cf36-4c4a-a039-187aa5cb71ac.jpg""]","",""
"","3903","similarity","172","1050231","0.0-6.0-166.0","3","[""img/0867/f26f6b60-f772-4f4c-95a4-addc62cfd692.jpg"",""img/0766/006035d8-c736-4daf-bbe4-a9e373af9da6.jpg""]","",""
"","3655","similarity","173","1054889","0.0-6.0-167.0","6","[""img/0904/2fd488e9-960f-41f7-8a44-33375f7d5051.jpg"",""img/0862/1c20f772-3a51-4a80-aac0-f57dc9f86c28.jpg""]","",""
"","3486","similarity","174","1059378","0.0-6.0-168.0","6","[""img/0866/d493a2c8-66eb-44b4-be02-2f327b700b7c.jpg"",""img/0874/a82926a3-0b43-4add-803c-d5f9ea7798ee.jpg""]","",""
"","3160","similarity","175","1063540","0.0-6.0-169.0","3","[""img/0903/5ea5bbe0-f238-4724-abe7-9ed8dee8c0ba.jpg"",""img/0868/3a62db2d-97e9-44a3-b8e3-a48c6f0e423b.jpg""]","",""
"","6277","similarity","176","1070819","0.0-6.0-170.0","6","[""img/0769/3c1203c5-2ce7-466e-957a-8d77b5905460.jpg"",""img/0904/6291eb43-c10c-4810-a36a-101d09868b04.jpg""]","",""
"","4813","similarity","177","1076636","0.0-6.0-171.0","3","[""img/0875/dbdd643e-6d0e-4a5c-ab57-b9c29b9c981a.jpg"",""img/0764/f713847b-4832-42d1-8fb3-e17e37fd745c.jpg""]","",""
"","3328","similarity","178","1080967","0.0-6.0-172.0","2","[""img/0860/702bd09d-df3a-40aa-a267-5f04474305b5.jpg"",""img/0903/39365c8e-a733-4801-ac7d-b87e38c3784b.jpg""]","",""
"","6108","similarity","179","1088078","0.0-6.0-173.0","5","[""img/0864/1d15626a-2f7c-410f-819c-0fa2c967e95e.jpg"",""img/0867/c71dc569-f49c-4397-8381-68b8d726736d.jpg""]","",""
"","4240","similarity","180","1093320","0.0-6.0-174.0","5","[""img/0868/4bd5105a-d2c3-4f82-8c80-57196106ba53.jpg"",""img/0864/a248adb3-c70b-4652-b7a3-776d2a1e904b.jpg""]","",""
"","4094","similarity","181","1098417","0.0-6.0-175.0","7","[""img/0898/993d8f2d-bef7-4251-a193-0f93a32b7763.jpg"",""img/0769/f229321f-04dd-42d7-b14a-ffad6b509862.jpg""]","",""
"","5342","similarity","182","1104762","0.0-6.0-176.0","6","[""img/0766/d14acac4-7db1-4b07-8f8f-302437326fc0.jpg"",""img/0764/da207710-e7e4-4f42-b2e6-99b5f357f433.jpg""]","",""
"","3362","similarity","183","1109127","0.0-6.0-177.0","3","[""img/0764/06ea144f-f4f3-4a14-ba47-f20f35c561e0.jpg"",""img/0866/a15b02be-11bb-43e3-b0e0-ecc3bd7dfc49.jpg""]","",""
"","4139","similarity","184","1114269","0.0-6.0-178.0","3","[""img/0902/40d0b6ec-3907-4573-b227-e7d8e9cad1c3.jpg"",""img/0875/2e13d160-eea1-416b-aff1-d37ab99ecc1d.jpg""]","",""
"","4048","similarity","185","1119320","0.0-6.0-179.0","2","[""img/0881/54ea8e77-c7e5-4197-b7fa-00b7020849a7.jpg"",""img/0904/96e503ea-6630-4996-85f2-0237688ce441.jpg""]","",""
"","4927","similarity","186","1125249","0.0-6.0-180.0","3","[""img/0874/a3bc679d-619f-4db6-bb68-116dcb757d9c.jpg"",""img/0860/c3379ff7-0763-48fe-a1ec-7ea3d611bc7a.jpg""]","",""
"","3463","similarity","187","1129715","0.0-6.0-181.0","3","[""img/0769/ebef2ddc-ba59-4e0e-97f8-927864eb5081.jpg"",""img/0874/2c9464dd-8a23-4baa-ac94-1ba3af5c15cc.jpg""]","",""
"","4724","similarity","188","1135442","0.0-6.0-182.0","6","[""img/0904/06dacdc5-2206-4fb8-92b7-88042d22833c.jpg"",""img/0766/f3276cc4-65de-4c2d-88d5-6cfebce14b8f.jpg""]","",""
"","3048","similarity","189","1139492","0.0-6.0-183.0","6","[""img/0902/1a120fb9-dbd6-443e-ba91-b4aceab963da.jpg"",""img/0764/23ea9375-f801-4a96-9925-7d453da887c7.jpg""]","",""
"","3677","similarity","190","1144172","0.0-6.0-184.0","2","[""img/0769/7c50e5f5-cc38-4d48-b009-fbe17bcea61c.jpg"",""img/0875/ebf7653f-ff45-4e9f-af58-2c042ab3cd2b.jpg""]","",""
"","3542","similarity","191","1148717","0.0-6.0-185.0","2","[""img/0867/bf560d4f-dee3-4f11-a385-705cc1aa5f3c.jpg"",""img/0903/31b5a5f4-b695-4af1-bad2-a19650a05498.jpg""]","",""
"","4105","similarity","192","1153824","0.0-6.0-186.0","2","[""img/0862/fb26cb07-d5a9-4653-813c-f41609f26cd5.jpg"",""img/0769/8056889f-2b14-4782-bb25-b4e8896ab65b.jpg""]","",""
"","3846","similarity","193","1158673","0.0-6.0-187.0","2","[""img/0766/ef3b15ce-abb7-4292-ad93-aec8e8b50520.jpg"",""img/0866/9b38d691-1802-4959-ab3f-fc902f0e4ea6.jpg""]","",""
"","3733","similarity","194","1163410","0.0-6.0-188.0","2","[""img/0769/3adfa417-3b90-4aab-b437-5eaa474189cb.jpg"",""img/0860/9593362c-9fe5-4d12-9735-6000a11f6aa5.jpg""]","",""
"","4667","similarity","195","1178001","0.0-6.0-189.0","3","[""img/0881/609a5e93-38b5-4940-8627-2bf8fad7f802.jpg"",""img/0868/09a9ef4d-d000-4cfa-a6aa-ebec7c2edeb4.jpg""]","",""
"[{""page_index"":0,""viewing_time"":7503}]","7504","instructions","196","1186506","0.0-7.0","","","",""
"","41395","image-multi-choice","197","1228911","0.0-8.0-0.0","","","{""Q0"":""Yellow Warbler""}","Nashville Warbler"
"","19331","image-multi-choice","198","1249250","0.0-8.0-1.0","","","{""Q0"":""Black-and-white Warbler""}","Black-and-white Warbler"
"","35465","image-multi-choice","199","1285723","0.0-8.0-2.0","","","{""Q0"":""Magnolia Warbler""}","Townsend's Warbler"
"","35792","image-multi-choice","200","1322522","0.0-8.0-3.0","","","{""Q0"":""White-throated Sparrow""}","Lark Sparrow"
"","94980","image-multi-choice","201","1418509","0.0-8.0-4.0","","","{""Q0"":""Nashville Warbler""}","Yellow Warbler"
"","33451","image-multi-choice","202","1452968","0.0-8.0-5.0","","","{""Q0"":""Tennessee Warbler""}","Orange-crowned Warbler"
"","16138","image-multi-choice","203","1470113","0.0-8.0-6.0","","","{""Q0"":""Chipping Sparrow""}","White-throated Sparrow"
"","98208","image-multi-choice","204","1569329","0.0-8.0-7.0","","","{""Q0"":""Ovenbird""}","Fox Sparrow"
"","25608","image-multi-choice","205","1595947","0.0-8.0-8.0","","","{}","Song Sparrow"
"","58159","image-multi-choice","206","1655112","0.0-8.0-9.0","","","{""Q0"":""Townsend's Warbler""}","Blackburnian Warbler"
"","52792","image-multi-choice","207","1708910","0.0-8.0-10.0","","","{""Q0"":""Swamp Sparrow""}","Vesper Sparrow"
"","17725","image-multi-choice","208","1727642","0.0-8.0-11.0","","","{""Q0"":""White-crowned Sparrow""}","White-crowned Sparrow"
"","19512","image-multi-choice","209","1748162","0.0-8.0-12.0","","","{""Q0"":""Chipping Sparrow""}","American Tree Sparrow"
"","53319","image-multi-choice","210","1802489","0.0-8.0-13.0","","","{""Q0"":""Nashville Warbler""}","Tennessee Warbler"
"","23001","image-multi-choice","211","1826497","0.0-8.0-14.0","","","{""Q0"":""Orange-crowned Warbler""}","Magnolia Warbler"
"","5654","image-multi-choice","212","1833157","0.0-8.0-15.0","","","{""Q0"":""Northern Waterthrush""}","Northern Waterthrush"
"","24745","image-multi-choice","213","1858909","0.0-8.0-16.0","","","{""Q0"":""Song Sparrow""}","Chipping Sparrow"
"","12290","image-multi-choice","214","1872206","0.0-8.0-17.0","","","{""Q0"":""American Tree Sparrow""}","Swamp Sparrow"
"","13258","image-multi-choice","215","1886471","0.0-8.0-18.0","","","{""Q0"":""Vesper Sparrow""}","Lincoln's Sparrow"
"","7128","image-multi-choice","216","1894605","0.0-8.0-19.0","","","{""Q0"":""Ovenbird""}","Ovenbird"
