"view_history","rt","trial_type","trial_index","time_elapsed","internal_node_id","sim_score","stimulus","responses","answer"
"[{""page_index"":0,""viewing_time"":9764}]","9768","instructions","0","9770","0.0-0.0","","","",""
"","4611","similarity_demo","1","15403","0.0-1.0","7","[""img/bluejay1.jpg"",""img/bluejay2.jpg""]","",""
"[{""page_index"":0,""viewing_time"":2146}]","2146","instructions","2","18550","0.0-2.0","","","",""
"","3267","similarity_demo","3","22824","0.0-3.0","5","[""img/bluejay1.jpg"",""img/cardinal1.jpg""]","",""
"[{""page_index"":0,""viewing_time"":2589}]","2590","instructions","4","26414","0.0-4.0","","","",""
"[{""page_index"":0,""viewing_time"":7207}]","7208","instructions","5","34622","0.0-5.0","","","",""
"","4162","similarity","6","39792","0.0-6.0-0.0","3","[""img/0868/7b212364-ff5f-4e28-9241-7eb6ea00161b.jpg"",""img/0894/492d2f29-d7b9-4422-8be8-47fd58bfaa8b.jpg""]","",""
"","3706","similarity","7","44505","0.0-6.0-1.0","2","[""img/0898/661621d4-a14e-487c-8c74-354134a29710.jpg"",""img/0758/821c68d3-5cb0-4eae-8659-30e6263fca39.jpg""]","",""
"","4179","similarity","8","49698","0.0-6.0-2.0","4","[""img/0903/005ad0de-4f52-433c-b515-dbe8d46184a3.jpg"",""img/0894/9b1333fd-3561-43bf-aee5-99b7b7ca3dc3.jpg""]","",""
"","3574","similarity","9","54281","0.0-6.0-3.0","2","[""img/0881/44e09805-5a25-4f17-a716-4ad4a331b174.jpg"",""img/0766/26d3ae14-8275-4e08-99b2-a6598c193ddf.jpg""]","",""
"","4043","similarity","10","59336","0.0-6.0-4.0","4","[""img/0864/ea327690-500b-4137-bf91-451b309fe6a5.jpg"",""img/0860/15b24a61-25be-4356-9eac-5ce95d0cb4a4.jpg""]","",""
"","3934","similarity","11","64289","0.0-6.0-5.0","5","[""img/0902/94ee9c53-a9a2-4f95-b9b7-794a5fc62bb6.jpg"",""img/0899/d60714ae-98d7-4564-8c98-94dba1351135.jpg""]","",""
"","3650","similarity","12","68953","0.0-6.0-6.0","4","[""img/0868/4a8a45ed-2c4f-421b-9564-409a33ecd26c.jpg"",""img/0769/3adfa417-3b90-4aab-b437-5eaa474189cb.jpg""]","",""
"","3159","similarity","13","73120","0.0-6.0-7.0","5","[""img/0764/29072395-f595-4e3c-83d3-ff87010039fa.jpg"",""img/0901/f469cb1d-6d81-4a45-bab5-cd0b650c2b4f.jpg""]","",""
"","4818","similarity","14","78944","0.0-6.0-8.0","5","[""img/0881/405484ae-0d00-4b05-bc57-6420a36adfac.jpg"",""img/0866/386235d2-6857-41e7-88a8-25cfc3430025.jpg""]","",""
"","4624","similarity","15","84575","0.0-6.0-9.0","4","[""img/0867/6e19c858-b606-45b2-a4c6-910a73f1d82c.jpg"",""img/0899/8abe6c69-822c-436c-9bf2-96c818b49ba5.jpg""]","",""
"","3354","similarity","16","88941","0.0-6.0-10.0","3","[""img/0875/2c361b79-c3d1-4eda-812e-bf03192407bf.jpg"",""img/0766/71b81ebd-0937-4d7f-b8bf-c4e46a4728fd.jpg""]","",""
"","2708","similarity","17","92656","0.0-6.0-11.0","3","[""img/0901/7d4a3388-488d-4e9b-9d32-9d0def7aae8d.jpg"",""img/0875/dbdd643e-6d0e-4a5c-ab57-b9c29b9c981a.jpg""]","",""
"","3817","similarity","18","97482","0.0-6.0-12.0","4","[""img/0902/22ed3536-288b-452e-9777-0fa0ab94deb0.jpg"",""img/0860/9593362c-9fe5-4d12-9735-6000a11f6aa5.jpg""]","",""
"","3383","similarity","19","101871","0.0-6.0-13.0","5","[""img/0874/a3bc679d-619f-4db6-bb68-116dcb757d9c.jpg"",""img/0867/aa05d113-fc19-4756-a8eb-7878f580bc92.jpg""]","",""
"","3742","similarity","20","106634","0.0-6.0-14.0","4","[""img/0904/da170c1b-9651-4f08-b231-2bdd1d9a046f.jpg"",""img/0866/02f5e6b9-52b7-448c-9708-5b460d0c9a23.jpg""]","",""
"","3439","similarity","21","111080","0.0-6.0-15.0","4","[""img/0758/ddc336e9-a8b6-4bb9-937a-c7e25e0e9250.jpg"",""img/0902/af45fe42-178c-4c1a-99ef-256e87e3b092.jpg""]","",""
"","3967","similarity","22","116056","0.0-6.0-16.0","3","[""img/0867/179ab87a-8eac-4c52-a41f-2e48e3120f09.jpg"",""img/0898/01bfe666-3510-4fc7-964f-d00d28732dc8.jpg""]","",""
"","2994","similarity","23","120055","0.0-6.0-17.0","4","[""img/0904/06dacdc5-2206-4fb8-92b7-88042d22833c.jpg"",""img/0868/83b4350a-3b70-4cea-b7f5-b5b56f3050a8.jpg""]","",""
"","3796","similarity","24","124869","0.0-6.0-18.0","3","[""img/0766/dd3e18d0-0c98-4d05-b850-69976ee8cd75.jpg"",""img/0864/5f33e097-23e3-4002-882d-76e8cb15f451.jpg""]","",""
"","3861","similarity","25","129738","0.0-6.0-19.0","5","[""img/0899/4408c14d-c168-4a7d-96f6-bc87bfb58f83.jpg"",""img/0766/a754e4b6-5019-4cf4-8f58-34c20547a1f5.jpg""]","",""
"","2753","similarity","26","133495","0.0-6.0-20.0","3","[""img/0764/bc3865c9-9004-4582-88a7-048478673f97.jpg"",""img/0758/e1ba5e53-addc-436a-b428-d34fc1b130dc.jpg""]","",""
"","4109","similarity","27","138615","0.0-6.0-21.0","4","[""img/0901/3db47171-0139-4235-82cd-0b1787b6775f.jpg"",""img/0874/1016b306-087c-4afc-aa08-fa527b28dc76.jpg""]","",""
"","3371","similarity","28","142991","0.0-6.0-22.0","6","[""img/0875/527ced51-8e53-4aab-ab05-86df219104c0.jpg"",""img/0758/3ddd05d3-557e-4ee7-8b78-9d2d681d8ae2.jpg""]","",""
"","4468","similarity","29","148465","0.0-6.0-23.0","5","[""img/0867/ac1797e4-8afc-48fe-b252-86d1defb1cca.jpg"",""img/0881/b549bc99-a61c-4450-bab5-9efc3a197bf0.jpg""]","",""
"","4265","similarity","30","153736","0.0-6.0-24.0","2","[""img/0758/7ffbc76b-1fc1-432c-8f7e-9ec8d1b3f643.jpg"",""img/0901/33b51a81-06d9-46d9-9d4f-5a2d6d6b8058.jpg""]","",""
"","4603","similarity","31","159344","0.0-6.0-25.0","5","[""img/0868/4bd5105a-d2c3-4f82-8c80-57196106ba53.jpg"",""img/0875/cff79b3a-a797-4393-9757-6275f999ec04.jpg""]","",""
"","4848","similarity","32","165199","0.0-6.0-26.0","6","[""img/0903/647ce311-8c71-479a-8361-961db1457139.jpg"",""img/0901/5657dd86-0ff9-4753-ba2b-9dfb223e5c89.jpg""]","",""
"","3691","similarity","33","169899","0.0-6.0-27.0","6","[""img/0894/3adef67d-7676-4995-80b2-bb31b8aca3ef.jpg"",""img/0899/00715b3f-851b-420b-a26b-d7f79f7759a9.jpg""]","",""
"","3772","similarity","34","174679","0.0-6.0-28.0","4","[""img/0862/fad1d7c1-8187-43c3-942a-0fc12183e48e.jpg"",""img/0867/a749dddb-69f0-44a6-acdc-2bf295cf6dcc.jpg""]","",""
"","3644","similarity","35","179326","0.0-6.0-29.0","5","[""img/0864/3651d070-2fc5-4848-b6a6-088a2d9ac5c9.jpg"",""img/0875/5a7c4e35-6514-4e12-8879-d16071da4cd6.jpg""]","",""
"","4827","similarity","36","185159","0.0-6.0-30.0","5","[""img/0862/064818ee-13d5-4618-bb24-21c7368ea278.jpg"",""img/0874/93d1f8dc-acf2-4f03-bd8d-8ec35df276ed.jpg""]","",""
"","3577","similarity","37","189743","0.0-6.0-31.0","3","[""img/0903/31b5a5f4-b695-4af1-bad2-a19650a05498.jpg"",""img/0758/f61ecdf8-a7d4-4db0-b84d-be46f7cfaffc.jpg""]","",""
"","3180","similarity","38","193939","0.0-6.0-32.0","3","[""img/0866/d493a2c8-66eb-44b4-be02-2f327b700b7c.jpg"",""img/0901/d6d15b1c-4a30-4f74-a3fd-d4c8ee4169ca.jpg""]","",""
"","4584","similarity","39","199531","0.0-6.0-33.0","3","[""img/0874/31e22c7c-99aa-40b1-bf03-dd73fa2df4d6.jpg"",""img/0899/fef567a2-c121-4481-9af0-ff108d199bbf.jpg""]","",""
"","4038","similarity","40","204579","0.0-6.0-34.0","6","[""img/0903/4cbdc464-e562-4ec2-9bb6-15f894fdf528.jpg"",""img/0902/31abfa33-7cdb-44ad-968e-9f7b324d577a.jpg""]","",""
"","3856","similarity","41","209440","0.0-6.0-35.0","3","[""img/0758/7fba58df-2a7a-4b76-8a8f-62739f97f271.jpg"",""img/0866/be24ab58-230e-4db8-9f45-ff04c9aec6bb.jpg""]","",""
"","3236","similarity","42","213679","0.0-6.0-36.0","3","[""img/0875/a4935837-7d3c-4df6-88c1-36a94d4991ca.jpg"",""img/0903/0a92ec52-4e87-410a-857a-4455cde56a70.jpg""]","",""
"","3260","similarity","43","222142","0.0-6.0-37.0","2","[""img/0864/da39ad34-04e0-40d4-a724-c08d53e0ea09.jpg"",""img/0902/a323b62d-2fd5-4ac8-acc6-35b768f3c3f2.jpg""]","",""
"","5106","similarity","44","228256","0.0-6.0-38.0","2","[""img/0901/08d6d1d1-c043-43c4-bb08-d45e062822b9.jpg"",""img/0867/5e07b34d-b40f-4b1c-ac10-49975bace45f.jpg""]","",""
"","5610","similarity","45","234870","0.0-6.0-39.0","6","[""img/0862/00c06b00-3b73-44e9-bc1e-c5aafb438321.jpg"",""img/0860/99c589b9-9140-4d17-90c0-b344323edcda.jpg""]","",""
"","4170","similarity","46","240047","0.0-6.0-40.0","6","[""img/0867/26611f4e-d694-4460-b7e2-43c62753ddc3.jpg"",""img/0868/179a5502-ab5c-478e-8263-5a1fbcc101d2.jpg""]","",""
"","4688","similarity","47","245746","0.0-6.0-41.0","4","[""img/0904/25365108-e038-4021-aac9-797f2063b337.jpg"",""img/0899/66ab3178-c3fe-4455-ad17-d5952b08e018.jpg""]","",""
"","4200","similarity","48","250950","0.0-6.0-42.0","2","[""img/0862/f188d4f0-76a4-4102-818c-a209969d73a5.jpg"",""img/0894/2217bdcd-23a7-42d3-823b-23f2488d7e87.jpg""]","",""
"","3400","similarity","49","255358","0.0-6.0-43.0","2","[""img/0875/8521fd58-3b1e-4dc5-97ae-804edfa6734a.jpg"",""img/0904/fe746a3f-8458-48d0-8a13-8cba2a9df9f8.jpg""]","",""
"","3552","similarity","50","259919","0.0-6.0-44.0","3","[""img/0874/3f471690-9788-4d03-90c7-f615aecef149.jpg"",""img/0898/5f699581-3853-4547-856c-12f419ba5af7.jpg""]","",""
"","3136","similarity","51","264062","0.0-6.0-45.0","1","[""img/0898/6cd3830b-d44e-4915-be2b-88d31424b91c.jpg"",""img/0868/6a28c3b0-3d76-498a-9fb7-ddafc665eca8.jpg""]","",""
"","3908","similarity","52","268974","0.0-6.0-46.0","2","[""img/0901/693e0535-ef7e-4d60-af9d-fac2f38e8307.jpg"",""img/0860/702bd09d-df3a-40aa-a267-5f04474305b5.jpg""]","",""
"","3964","similarity","53","273942","0.0-6.0-47.0","4","[""img/0894/b2d2f66e-e480-46da-a02a-6d0c6b285d78.jpg"",""img/0902/94198618-7047-4dc9-ad04-85f4ba913067.jpg""]","",""
"","3101","similarity","54","278046","0.0-6.0-48.0","3","[""img/0764/8740679b-b56f-4292-aece-14063457113a.jpg"",""img/0862/fb26cb07-d5a9-4653-813c-f41609f26cd5.jpg""]","",""
"","4180","similarity","55","283231","0.0-6.0-49.0","6","[""img/0881/7e31e5dc-2240-4b1b-b5a0-3acd980099ef.jpg"",""img/0758/53f35650-e455-4b53-8be4-c3c8271c6466.jpg""]","",""
"","3619","similarity","56","287854","0.0-6.0-50.0","5","[""img/0766/a0270213-fa0e-4972-8b56-228c3e01ff90.jpg"",""img/0769/38a88f69-28fd-4bbd-99f0-f4c02bfd3995.jpg""]","",""
"","4764","similarity","57","293625","0.0-6.0-51.0","6","[""img/0875/42910c99-5463-450a-a0f8-d4d060a11455.jpg"",""img/0866/c446214b-a368-4c65-ae39-ea46894256ab.jpg""]","",""
"","4730","similarity","58","299358","0.0-6.0-52.0","5","[""img/0894/792c83e9-a747-4000-bc72-5663d2439edb.jpg"",""img/0904/b7c2a2c8-df33-4473-b3d4-ff7147c60db3.jpg""]","",""
"","4060","similarity","59","304422","0.0-6.0-53.0","4","[""img/0758/20497cbe-ddae-489e-86e2-ab06985ed07c.jpg"",""img/0769/a3cfbdeb-acb3-4eac-87fb-4b117f42d4f8.jpg""]","",""
"","3604","similarity","60","309036","0.0-6.0-54.0","2","[""img/0902/01b41522-de46-4c3a-b0af-a61b2682b40e.jpg"",""img/0874/7e4f2150-3b59-4a36-b5da-a4e0ba410531.jpg""]","",""
"","4351","similarity","61","314391","0.0-6.0-55.0","4","[""img/0903/776b74ee-a8ab-4ab8-a78d-097c0747538d.jpg"",""img/0862/e8cc3bdf-cc43-4565-bccf-492626c70953.jpg""]","",""
"","3587","similarity","62","318986","0.0-6.0-56.0","2","[""img/0866/23a224f3-2012-4fc8-8e0f-3c36f8de27fd.jpg"",""img/0894/10f22b96-040c-44f4-950b-a4963f3f506c.jpg""]","",""
"","4281","similarity","63","324270","0.0-6.0-57.0","3","[""img/0867/7d1c497b-c1b3-4ed8-abb5-d7f73306015f.jpg"",""img/0904/2c98dc56-88d1-4fb5-a999-b6a7861f65f0.jpg""]","",""
"","3916","similarity","64","329191","0.0-6.0-58.0","5","[""img/0875/d59ff733-eaff-4ee2-9443-06954dd0bcb6.jpg"",""img/0881/e6746727-7f89-47ec-b939-d98abe78372d.jpg""]","",""
"","3916","similarity","65","334111","0.0-6.0-59.0","2","[""img/0866/93a27239-8317-4e08-98ca-d8b1ff298e07.jpg"",""img/0860/c7047cd2-7cc1-41b6-8a34-c0986774975f.jpg""]","",""
"","3108","similarity","66","338222","0.0-6.0-60.0","1","[""img/0903/f67c4ab9-f8c2-4fcd-848a-a54a7b031002.jpg"",""img/0866/620cd1aa-0800-4414-8f6e-90342e7a99ad.jpg""]","",""
"","4364","similarity","67","343597","0.0-6.0-61.0","5","[""img/0860/5bff793e-cbd5-4d7e-b628-0ac2b0e30b64.jpg"",""img/0875/2e13d160-eea1-416b-aff1-d37ab99ecc1d.jpg""]","",""
"","4390","similarity","68","348992","0.0-6.0-62.0","3","[""img/0898/ec565187-2e31-4fdd-9a5c-153d0c789ae0.jpg"",""img/0862/f43ceabf-acc1-4107-b857-5d1849808f93.jpg""]","",""
"","3954","similarity","69","353964","0.0-6.0-63.0","3","[""img/0902/62f11694-7ed7-4cb7-8a73-9e95c43824e7.jpg"",""img/0766/d5d38751-8fa5-476f-93e9-86ed2d9045ef.jpg""]","",""
"","6078","similarity","70","361046","0.0-6.0-64.0","3","[""img/0758/61d64021-9214-4951-bdf8-f871f9827cf9.jpg"",""img/0864/4bd81bc6-c13d-46df-95a9-485886dc7c1b.jpg""]","",""
"","4053","similarity","71","366103","0.0-6.0-65.0","1","[""img/0894/5f15154e-e72e-4ce5-aafb-bce6f0564006.jpg"",""img/0860/61fb959d-d4d9-4de4-9e4e-4fa62b4cfcd5.jpg""]","",""
"","3251","similarity","72","370359","0.0-6.0-66.0","1","[""img/0899/7b7380d5-d2be-44e5-a09a-c1756f87ef71.jpg"",""img/0868/09a9ef4d-d000-4cfa-a6aa-ebec7c2edeb4.jpg""]","",""
"","4476","similarity","73","375838","0.0-6.0-67.0","4","[""img/0866/d266fece-59b3-46fa-b69f-96f6efb81b59.jpg"",""img/0862/e0f1a4e9-e1b6-45f7-af67-89f334e6630d.jpg""]","",""
"","3812","similarity","74","380654","0.0-6.0-68.0","2","[""img/0860/d9a0d117-6d1d-41c0-8fec-9aff0fd9e9f2.jpg"",""img/0758/d41c06bf-ebaf-454b-91c6-1a17f917b659.jpg""]","",""
"","3453","similarity","75","385110","0.0-6.0-69.0","2","[""img/0902/ca3160ba-ad5d-459f-a1b6-8b4f3c85ecd5.jpg"",""img/0867/8ba0c5a7-c7e4-42cf-a80a-543763b90779.jpg""]","",""
"","3053","similarity","76","389167","0.0-6.0-70.0","2","[""img/0862/f23038d4-c366-4f70-979f-66b62362efa4.jpg"",""img/0901/1b86f2fc-7a1d-4aa8-9252-114f92edef3b.jpg""]","",""
"","4108","similarity","77","394278","0.0-6.0-71.0","5","[""img/0867/2e1a0b58-cdb1-4107-a14e-452530d7b9b0.jpg"",""img/0866/0207e9a2-7dbb-40b5-9459-b472aaeceb2a.jpg""]","",""
"","3221","similarity","78","398503","0.0-6.0-72.0","3","[""img/0860/fd4662f9-4c03-4d79-8593-06735e55a64b.jpg"",""img/0904/0d25eb24-bb20-4e8d-9787-8b489558b4cb.jpg""]","",""
"","3845","similarity","79","403350","0.0-6.0-73.0","1","[""img/0875/fb732ab5-013a-4366-9f65-27811ed157e9.jpg"",""img/0899/66bf4113-ee12-426c-84d2-ea410b6c803e.jpg""]","",""
"","5060","similarity","80","409414","0.0-6.0-74.0","2","[""img/0899/f58b8d2f-b19d-4b59-8b94-8834be92e4ba.jpg"",""img/0758/d57c2592-a317-4f63-91be-91a3a9afd222.jpg""]","",""
"","4228","similarity","81","416375","0.0-6.0-75.0","3","[""img/0862/ad593cc7-cabe-4bb7-8e14-8a447a0717b4.jpg"",""img/0875/ebf7653f-ff45-4e9f-af58-2c042ab3cd2b.jpg""]","",""
"","3860","similarity","82","421238","0.0-6.0-76.0","2","[""img/0901/bc47e078-bda4-40ed-b89a-bbd819164b95.jpg"",""img/0894/6aa5545f-fa7d-4286-bbaa-aaf34dc7ec96.jpg""]","",""
"","3132","similarity","83","425374","0.0-6.0-77.0","1","[""img/0766/006035d8-c736-4daf-bbe4-a9e373af9da6.jpg"",""img/0758/b76ceca7-95ac-46e4-ac13-da02c8e93be9.jpg""]","",""
"","4731","similarity","84","431111","0.0-6.0-78.0","2","[""img/0894/1b3888e6-cf36-4c4a-a039-187aa5cb71ac.jpg"",""img/0764/e48e6c6f-9e28-420f-836a-8043b2319bb4.jpg""]","",""
"","4788","similarity","85","436902","0.0-6.0-79.0","3","[""img/0860/87039971-2210-4aab-93c0-8e9b5f1655b2.jpg"",""img/0867/de92135f-5b65-4ed9-b245-188292c7c2f8.jpg""]","",""
"","3781","similarity","86","441686","0.0-6.0-80.0","3","[""img/0898/b3290bf9-215b-4b45-b21a-65bdf73f142f.jpg"",""img/0901/148b747a-7392-437e-8823-33053c5dff3f.jpg""]","",""
"","4004","similarity","87","446694","0.0-6.0-81.0","2","[""img/0874/bf14b896-e930-4fd9-9c05-2e83317a2773.jpg"",""img/0764/4952d0a0-c9be-471a-8ec7-94a37bf4051d.jpg""]","",""
"","4884","similarity","88","452582","0.0-6.0-82.0","3","[""img/0899/8de08897-b430-42fe-9d42-840670b80f94.jpg"",""img/0862/5d887e9f-89e2-4ebc-80a0-6d46fe6480db.jpg""]","",""
"","4573","similarity","89","458158","0.0-6.0-83.0","3","[""img/0766/aaec5f42-7f0a-4a16-aeca-488d757acbcc.jpg"",""img/0901/233a6948-48eb-4b67-8259-222b916b2322.jpg""]","",""
"","4204","similarity","90","463366","0.0-6.0-84.0","3","[""img/0881/d373cb9f-a719-4549-a2a4-82def79fb2a5.jpg"",""img/0898/cd3aaa3f-efa9-4ab3-8d6f-a6a9273ddf42.jpg""]","",""
"","4324","similarity","91","468694","0.0-6.0-85.0","2","[""img/0868/fd307a36-9a3a-47d7-ab7c-f810d0b35040.jpg"",""img/0860/4c530c3c-6aab-492a-94d1-9c01797bde40.jpg""]","",""
"","4005","similarity","92","473702","0.0-6.0-86.0","2","[""img/0758/caa93da2-9edf-49fa-96b9-32dedd8f5078.jpg"",""img/0868/0d3abd3a-b6c3-4584-a9f7-e2da63748b3d.jpg""]","",""
"","3637","similarity","93","478342","0.0-6.0-87.0","1","[""img/0864/efcfbb1b-8197-44c9-b723-40d6c608dd3c.jpg"",""img/0894/151063aa-6472-4745-837b-36603aba5966.jpg""]","",""
"","3180","similarity","94","482526","0.0-6.0-88.0","2","[""img/0866/bf14b5bd-fb55-47db-86b9-4f8aeb9a6dad.jpg"",""img/0902/d2c34af0-8c50-437d-8cc3-619195a3e8ba.jpg""]","",""
"","3821","similarity","95","487351","0.0-6.0-89.0","2","[""img/0769/aad494cc-674d-4a08-9bfa-24a88ebe3c79.jpg"",""img/0867/85a96c62-548f-4994-9553-819e03c3135a.jpg""]","",""
"","4395","similarity","96","492752","0.0-6.0-90.0","2","[""img/0874/99f6563c-8a8d-4c1c-a41d-667b618c3fd5.jpg"",""img/0875/f87b67d7-c33e-40d1-b281-248c4be1cb6e.jpg""]","",""
"","4514","similarity","97","498270","0.0-6.0-91.0","3","[""img/0864/f92649a2-0590-4d31-9a7a-1bfb81666a2d.jpg"",""img/0874/a82926a3-0b43-4add-803c-d5f9ea7798ee.jpg""]","",""
"","3309","similarity","98","502582","0.0-6.0-92.0","2","[""img/0881/6b1189e6-232d-4042-8885-16dc7b10e0d4.jpg"",""img/0862/47ed5efd-4ec9-4b74-bb4e-a5f5cf0c3e7d.jpg""]","",""
"","3925","similarity","99","507510","0.0-6.0-93.0","1","[""img/0864/0116ca98-293d-4fa6-a93b-5a6144ef64cc.jpg"",""img/0881/48ed65a5-471f-41af-86ec-3793805c116d.jpg""]","",""
"","5085","similarity","100","513598","0.0-6.0-94.0","1","[""img/0899/4f7bc593-8ddd-4da3-a0b9-84da730d3370.jpg"",""img/0901/a6c90438-fa7c-4418-ac7c-16c2e772dd98.jpg""]","",""
"","4148","similarity","101","518750","0.0-6.0-95.0","3","[""img/0874/ca23d307-fc00-4d7d-9106-584c6eb21b4d.jpg"",""img/0766/60033a74-9919-47e5-913c-71d0d483e7e5.jpg""]","",""
"","3301","similarity","102","523054","0.0-6.0-96.0","5","[""img/0881/19e82c47-8e4b-45d2-a6c8-74181eb4155e.jpg"",""img/0899/ad8268c5-8199-48d0-ad70-c5b6d6c599ec.jpg""]","",""
"","4149","similarity","103","528206","0.0-6.0-97.0","4","[""img/0862/7918ca67-5bd3-4606-a5ea-c39fb11a9297.jpg"",""img/0902/d1083f2c-5520-44ec-81a8-3f856fbf0e80.jpg""]","",""
"","4164","similarity","104","533376","0.0-6.0-98.0","4","[""img/0899/25ae6ec8-9565-49fe-a8bb-8d0666f52716.jpg"",""img/0764/7f4ee8e3-9315-4a57-be7d-db8454b33766.jpg""]","",""
"","4651","similarity","105","539030","0.0-6.0-99.0","3","[""img/0758/9fb5b2fe-3f00-4fe6-973c-1ce10d5f4cd5.jpg"",""img/0862/4f0a3b4c-afbf-486e-b248-1d54982f54b4.jpg""]","",""
"","4261","similarity","106","544294","0.0-6.0-100.0","5","[""img/0764/6fbd1902-fa2a-48d8-bc11-705b8ab68d8f.jpg"",""img/0898/8605a25b-6895-476d-8c13-df7a83f96093.jpg""]","",""
"","4124","similarity","107","549422","0.0-6.0-101.0","6","[""img/0901/1e23ffbd-19de-4c4f-aa23-c54aaa3319a3.jpg"",""img/0902/fbef27fa-ac83-4936-ab78-9d1c20a383e1.jpg""]","",""
"","4221","similarity","108","554646","0.0-6.0-102.0","2","[""img/0764/f64dfa83-333d-494c-87b5-73e942f1766e.jpg"",""img/0868/1a62b2b2-18f5-466e-b564-5176a57c565e.jpg""]","",""
"","4509","similarity","109","560161","0.0-6.0-103.0","5","[""img/0769/47700831-0ca2-4fdd-a498-a3bc5a528f43.jpg"",""img/0881/0c7068da-d0d9-4103-bda1-74ef7a2b32c3.jpg""]","",""
"","3761","similarity","110","564928","0.0-6.0-104.0","2","[""img/0864/6e846d43-94a6-4b37-a268-65eda979f052.jpg"",""img/0769/50985283-d353-4abc-9abe-14a91d56ebe6.jpg""]","",""
"","4960","similarity","111","570895","0.0-6.0-105.0","5","[""img/0866/11a1d141-be5e-443c-98c1-a9d4d9e3dec0.jpg"",""img/0868/8b0b8473-e2c0-4331-aa56-c3a5c29369da.jpg""]","",""
"","4484","similarity","112","576382","0.0-6.0-106.0","2","[""img/0868/15dd6fd7-791e-4b53-b203-195d617521a4.jpg"",""img/0862/847e5208-38ec-4f36-949c-296cdd7424ee.jpg""]","",""
"","3540","similarity","113","580926","0.0-6.0-107.0","2","[""img/0766/af3be95e-e52e-4fae-899b-0ff02ec340aa.jpg"",""img/0898/08c72dac-f8ad-407a-9ce6-8c9a5d679c3a.jpg""]","",""
"","4012","similarity","114","585942","0.0-6.0-108.0","2","[""img/0898/40f99fb2-64d2-4e72-8a7f-a1cf60741e69.jpg"",""img/0864/a248adb3-c70b-4652-b7a3-776d2a1e904b.jpg""]","",""
"","3924","similarity","115","590871","0.0-6.0-109.0","1","[""img/0868/4e626425-63c8-484a-8a1d-e66ee4e0bef8.jpg"",""img/0902/b56db912-c3c0-4fc2-b325-d640acd7cb58.jpg""]","",""
"","4161","similarity","116","596039","0.0-6.0-110.0","3","[""img/0904/696ebb60-8891-417a-91fd-c53218907a95.jpg"",""img/0764/958b8576-3a3b-4acc-96dc-06b74de69f37.jpg""]","",""
"","3860","similarity","117","600902","0.0-6.0-111.0","2","[""img/0894/7f2f31fd-6618-41c6-b65a-0fd8b2851bc9.jpg"",""img/0875/99698b4d-b4a1-44bc-8c83-8ea755bbbf61.jpg""]","",""
"","4097","similarity","118","606006","0.0-6.0-112.0","2","[""img/0868/d98ca254-b195-477f-b57e-5760a2717db8.jpg"",""img/0874/ca76a855-4e77-4f2f-872a-0a718153e7ed.jpg""]","",""
"","3925","similarity","119","612325","0.0-6.0-113.0","3","[""img/0904/e9423a8c-f946-43ad-ab7b-931acef870e2.jpg"",""img/0898/a114b375-cb89-44ba-9498-74213f1ecdee.jpg""]","",""
"","3886","similarity","120","617216","0.0-6.0-114.0","1","[""img/0860/71e1aad0-2cdf-43bb-94a4-a8c016997c30.jpg"",""img/0766/214866ee-423d-4629-9bb9-41572bdc7dac.jpg""]","",""
"","3227","similarity","121","621446","0.0-6.0-115.0","2","[""img/0894/7fb082e0-ce79-485c-9109-04367fb32275.jpg"",""img/0874/2c9464dd-8a23-4baa-ac94-1ba3af5c15cc.jpg""]","",""
"","2685","similarity","122","625134","0.0-6.0-116.0","3","[""img/0899/06b0fc99-0581-461a-9913-d1a5a941ac61.jpg"",""img/0903/d987e220-f3e6-4b6d-a270-fe6757041f6d.jpg""]","",""
"","5061","similarity","123","631198","0.0-6.0-117.0","3","[""img/0881/20af39f5-373d-4a55-a437-2dc4c0382c46.jpg"",""img/0764/5d83b9db-3b2b-4dc8-9bd1-2b515b19c858.jpg""]","",""
"","4060","similarity","124","636264","0.0-6.0-118.0","5","[""img/0903/bf0a7d60-eca5-44b0-bafd-baf21db9904b.jpg"",""img/0769/3c1efec9-f8fd-487d-8955-4be88e48c832.jpg""]","",""
"","4291","similarity","125","641558","0.0-6.0-119.0","4","[""img/0901/04a53755-6da5-44d4-a7a6-48a6bc0a2280.jpg"",""img/0904/b5855d6a-7ef9-46ca-9215-6e9fa046e543.jpg""]","",""
"","4733","similarity","126","647294","0.0-6.0-120.0","3","[""img/0860/18dfed73-e36b-4487-a8bd-0b8cff8e3668.jpg"",""img/0881/4bd34581-94d8-4e88-8c89-5cef864ca3be.jpg""]","",""
"","4100","similarity","127","652398","0.0-6.0-121.0","5","[""img/0758/67c0be2f-9e91-48b3-8219-70ac0a1802fa.jpg"",""img/0874/29830da7-be5f-44e5-b141-652a0ccf7269.jpg""]","",""
"","4660","similarity","128","658062","0.0-6.0-122.0","3","[""img/0901/a0d65c84-3f20-476a-92d1-0c01e8019cf4.jpg"",""img/0769/04347740-f8f6-48bb-887a-f68babd0a0d4.jpg""]","",""
"","4805","similarity","129","663870","0.0-6.0-123.0","4","[""img/0902/2a7ac123-414a-476a-9a96-4757b924baef.jpg"",""img/0904/5aec2708-cf14-4a58-aa30-9a8a61c1be0e.jpg""]","",""
"","4045","similarity","130","668918","0.0-6.0-124.0","3","[""img/0899/51a7a498-98c7-42d7-bca8-bc2d8f0b5831.jpg"",""img/0864/300bb811-8b3c-4c42-8653-6097c3725197.jpg""]","",""
"","3684","similarity","131","673606","0.0-6.0-125.0","1","[""img/0766/2e1cf445-9aef-40e7-92f4-5facf48b64c5.jpg"",""img/0868/d6d1f30d-4323-435a-b194-7892521bc57e.jpg""]","",""
"","4284","similarity","132","678894","0.0-6.0-126.0","2","[""img/0764/5d6fa3ce-9083-410c-bbdb-336a49b94cfc.jpg"",""img/0864/0f537697-a314-47c3-a8cc-8df23b7e536c.jpg""]","",""
"","3733","similarity","133","683630","0.0-6.0-127.0","2","[""img/0899/5b56dd3e-3f49-47cc-af84-16da6457753b.jpg"",""img/0866/8efcaa46-83ab-4dee-a35f-850402aa21ae.jpg""]","",""
"","2804","similarity","134","687438","0.0-6.0-128.0","1","[""img/0901/2a953e50-d237-405c-a38d-5ed21494c968.jpg"",""img/0881/db77fe00-aeb0-4d1d-aa66-f3a96fd077e4.jpg""]","",""
"","3924","similarity","135","692366","0.0-6.0-129.0","6","[""img/0898/c3cecf20-f7fd-45fa-97d0-dc0a63e8d6c0.jpg"",""img/0903/0e5c2854-42aa-48c0-9c3d-6e1ad2a400bd.jpg""]","",""
"","3844","similarity","136","697214","0.0-6.0-130.0","2","[""img/0894/38cf335f-f76f-4349-8d65-e20cd6859565.jpg"",""img/0867/12264664-1860-46df-8c21-162b9817cdda.jpg""]","",""
"","4989","similarity","137","703206","0.0-6.0-131.0","2","[""img/0874/adf9a8f1-c40b-402b-b95b-1e85a54a7b62.jpg"",""img/0903/150cf64c-0bd2-4674-abbb-a1387cf1f3e9.jpg""]","",""
"","5492","similarity","138","709702","0.0-6.0-132.0","5","[""img/0899/1b3457ea-87d4-4946-a01c-aac1863ed46c.jpg"",""img/0898/0c7dde4f-efce-4b7a-9387-6921635b7890.jpg""]","",""
"","4869","similarity","139","715574","0.0-6.0-133.0","1","[""img/0867/f8488a47-94ee-4166-952c-44e16cf172f6.jpg"",""img/0764/fb7d4a20-a475-465e-a74f-aa39a0d33d16.jpg""]","",""
"","5548","similarity","140","722126","0.0-6.0-134.0","4","[""img/0866/4a87911a-d5be-4d4e-ab8e-3d1f581bf507.jpg"",""img/0769/8c7cf147-1780-4d5c-8ddf-5ea23ff03ac9.jpg""]","",""
"","4724","similarity","141","727854","0.0-6.0-135.0","4","[""img/0860/c47fdead-eb02-4989-b078-26f4852f44fe.jpg"",""img/0898/26c41340-15bd-4ead-8fe4-c0d0ddca09c2.jpg""]","",""
"","3141","similarity","142","731998","0.0-6.0-136.0","2","[""img/0881/344de456-b358-4887-bd0e-e4c3278af887.jpg"",""img/0903/71dbc325-b588-4297-a5cf-7f268a722ad9.jpg""]","",""
"","4677","similarity","143","737678","0.0-6.0-137.0","4","[""img/0894/0130a973-d993-41f8-874a-fee23d9ac11f.jpg"",""img/0766/1865bfc9-2410-4765-a804-3ae4ba2393d0.jpg""]","",""
"","3532","similarity","144","742214","0.0-6.0-138.0","2","[""img/0860/8fdba999-b946-4c7d-9891-336018b563ef.jpg"",""img/0764/f990b2e8-ecee-481e-be7c-0239fce350e2.jpg""]","",""
"","4005","similarity","145","747222","0.0-6.0-139.0","2","[""img/0769/1d8734c4-77ab-4165-9e71-5cfe672ff01c.jpg"",""img/0902/d49743d6-67ae-4c2e-a939-8fd895a0f18e.jpg""]","",""
"","3293","similarity","146","751519","0.0-6.0-140.0","6","[""img/0904/5cceabc9-de1d-4c67-989b-c28a4ef77e79.jpg"",""img/0903/2a9c8033-3e70-47fa-816d-97ee1813a3a3.jpg""]","",""
"","4109","similarity","147","756631","0.0-6.0-141.0","5","[""img/0764/17b088f8-3053-4140-b544-d15654cc79ef.jpg"",""img/0769/c34b7763-8ff2-46d5-9e92-f1d8f3bedbd8.jpg""]","",""
"","4332","similarity","148","761966","0.0-6.0-142.0","2","[""img/0902/0eb85fbc-27c8-41df-9d0b-a5f9efd417d1.jpg"",""img/0881/445edb15-bd7f-4af3-8bd5-c6ad9677bb31.jpg""]","",""
"","4501","similarity","149","767470","0.0-6.0-143.0","2","[""img/0866/a04d37f0-99dd-478a-b6c6-58b215138f84.jpg"",""img/0864/c3b63e8f-ea39-4d70-a1f2-b3fe4be8eb75.jpg""]","",""
"","3653","similarity","150","772126","0.0-6.0-144.0","6","[""img/0902/40d0b6ec-3907-4573-b227-e7d8e9cad1c3.jpg"",""img/0898/f3a3f225-1248-4ac7-b93b-f0ff28485bf3.jpg""]","",""
"","5228","similarity","151","778358","0.0-6.0-145.0","3","[""img/0862/eefa5588-9efd-4591-aa5f-a2e17c7d7bcc.jpg"",""img/0864/6f631579-acf1-415c-a42c-1207f62a8d99.jpg""]","",""
"","4821","similarity","152","784182","0.0-6.0-146.0","2","[""img/0875/5a716432-c6ca-4b1c-955a-2b8ac25198ee.jpg"",""img/0898/993d8f2d-bef7-4251-a193-0f93a32b7763.jpg""]","",""
"","4133","similarity","153","789318","0.0-6.0-147.0","6","[""img/0874/767f289c-9814-4496-803f-745cc8913d1f.jpg"",""img/0881/7e822106-76f7-4b10-a805-14dc68b2cfaf.jpg""]","",""
"","3980","similarity","154","794302","0.0-6.0-148.0","2","[""img/0758/6e95579b-5166-487c-b8cb-e417c6a218e3.jpg"",""img/0894/4739e06d-c31e-4bf1-bf91-c97fa9afb456.jpg""]","",""
"","3013","similarity","155","798318","0.0-6.0-149.0","2","[""img/0904/4e58005d-a2ec-4aaa-b199-445343561396.jpg"",""img/0864/5f74a653-3bdc-4308-8cca-ac667dc22e1f.jpg""]","",""
"","4709","similarity","156","804030","0.0-6.0-150.0","7","[""img/0769/4680bcc3-8fbc-4643-8f9a-12aa0e780b64.jpg"",""img/0899/93494f3b-d539-4075-b027-d82e344563da.jpg""]","",""
"","5109","similarity","157","811877","0.0-6.0-151.0","4","[""img/0764/952d7adc-dc40-4aee-acce-18c2a1d02ea1.jpg"",""img/0903/14f179a2-8786-48a2-8377-88d1d404341b.jpg""]","",""
"","4453","similarity","158","817334","0.0-6.0-152.0","1","[""img/0903/6138142e-c84e-45fc-9487-c974f3d4968a.jpg"",""img/0864/49150900-7f25-4ce8-8d10-9b47a71d1997.jpg""]","",""
"","4205","similarity","159","822542","0.0-6.0-153.0","2","[""img/0894/b422d5c6-3c5a-49ae-a53e-7e88ac993f49.jpg"",""img/0881/d1982897-8d8d-4704-a940-1ee5d07a1f15.jpg""]","",""
"","4276","similarity","160","827822","0.0-6.0-154.0","5","[""img/0875/90da8d75-108a-44ad-b999-e21fee3860d3.jpg"",""img/0867/bf560d4f-dee3-4f11-a385-705cc1aa5f3c.jpg""]","",""
"","4652","similarity","161","833478","0.0-6.0-155.0","2","[""img/0867/a498eef3-9fa4-4ab2-9778-4ae82ac40dc5.jpg"",""img/0758/7ee8bc8f-c40b-4b3a-84ec-3e83580622d4.jpg""]","",""
"","5423","similarity","162","839904","0.0-6.0-156.0","3","[""img/0868/3a62db2d-97e9-44a3-b8e3-a48c6f0e423b.jpg"",""img/0901/50e1d53e-a49f-4806-8610-be6dec5a2475.jpg""]","",""
"","4842","similarity","163","845750","0.0-6.0-157.0","4","[""img/0769/4a1d0b52-3fe8-40fb-bb1c-c814fe49a68c.jpg"",""img/0894/5ff3c4f6-52e2-4075-8679-be0312e59703.jpg""]","",""
"","3516","similarity","164","850271","0.0-6.0-158.0","2","[""img/0904/9d30eff1-46ef-4453-b11e-124ef8145c00.jpg"",""img/0758/335851a0-a55b-46d8-ab05-8463eda48349.jpg""]","",""
"","4732","similarity","165","856006","0.0-6.0-159.0","1","[""img/0874/8cdb1c07-1c32-46d2-981c-3636560fa6e5.jpg"",""img/0904/2fd488e9-960f-41f7-8a44-33375f7d5051.jpg""]","",""
"","3629","similarity","166","860638","0.0-6.0-160.0","2","[""img/0864/65210d57-1153-4657-886a-32e758f49b4a.jpg"",""img/0901/c6df1a21-44ed-47c2-960e-7c52220e329e.jpg""]","",""
"","4500","similarity","167","866142","0.0-6.0-161.0","2","[""img/0898/82231d4c-218b-4d0a-b50d-35a49b524e97.jpg"",""img/0866/07c9c966-3c8d-40e7-8128-92b2acbaed5d.jpg""]","",""
"","5172","similarity","168","872318","0.0-6.0-162.0","2","[""img/0766/69e486f7-dbef-456b-9d48-53d814248a28.jpg"",""img/0903/e2e55a9e-0397-4dc0-8adf-4a54cfefe1fe.jpg""]","",""
"","3431","similarity","169","876753","0.0-6.0-163.0","1","[""img/0860/e8b8c51e-1834-4875-8b61-6c5bc9b178bd.jpg"",""img/0899/f95cbdb4-f804-4f5d-ad76-373ad343e658.jpg""]","",""
"","3098","similarity","170","880855","0.0-6.0-164.0","1","[""img/0766/d512b99c-a2dc-40d7-8e86-827323a0cbcf.jpg"",""img/0862/ba89835a-408c-480b-8594-ed4ffa97eb5c.jpg""]","",""
"","4812","similarity","171","886670","0.0-6.0-165.0","3","[""img/0898/224c1572-56b9-4f16-a9e4-6f3bc9c114bd.jpg"",""img/0894/a3d4170b-b7d8-40e3-955f-87e76ed745fc.jpg""]","",""
"","3213","similarity","172","890886","0.0-6.0-166.0","1","[""img/0867/f8159067-056c-41f1-a136-c529fe5e970a.jpg"",""img/0766/00891401-e4c9-4ce1-bc19-f70740d174bc.jpg""]","",""
"","3773","similarity","173","895666","0.0-6.0-167.0","5","[""img/0904/6291eb43-c10c-4810-a36a-101d09868b04.jpg"",""img/0862/e697469a-ec19-4414-b972-7b9f3564785b.jpg""]","",""
"","5353","similarity","174","902022","0.0-6.0-168.0","3","[""img/0866/6f2a90d7-14f1-4f1b-bd64-fc0af6b9fe44.jpg"",""img/0874/c0378dac-9370-439a-8b79-db27c96fb390.jpg""]","",""
"","2829","similarity","175","905855","0.0-6.0-169.0","2","[""img/0903/47e39de8-6959-469f-8be9-6999a6db207c.jpg"",""img/0868/77091fc7-a590-4ebb-b915-fdb2483a2399.jpg""]","",""
"","4349","similarity","176","911206","0.0-6.0-170.0","6","[""img/0769/965c3c44-d9e5-47c5-b61a-2bbdf4215d9a.jpg"",""img/0904/4d7d70a3-9477-4921-bda0-f9531d0a5c5b.jpg""]","",""
"","2796","similarity","177","915006","0.0-6.0-171.0","1","[""img/0875/03c3c331-738b-4446-af92-3d7386b08c2e.jpg"",""img/0764/b328441c-f81c-486c-9eae-b947c70ba7cd.jpg""]","",""
"","4108","similarity","178","920118","0.0-6.0-172.0","3","[""img/0860/b03b963d-949b-4d8d-b19c-4950c89eeca2.jpg"",""img/0903/5995f4a8-fa82-46f8-8760-fd7800a5ca34.jpg""]","",""
"","2933","similarity","179","924054","0.0-6.0-173.0","3","[""img/0864/e8bd659f-aa43-4748-877e-3118e8b4e189.jpg"",""img/0867/98d8cd96-1476-4fe0-a3a3-04f875500a1b.jpg""]","",""
"","4085","similarity","180","929142","0.0-6.0-174.0","2","[""img/0868/e0aff734-077f-40dd-9781-74821abd3621.jpg"",""img/0864/87c467d3-abca-482f-ad80-3766c21b1bb3.jpg""]","",""
"","4692","similarity","181","934838","0.0-6.0-175.0","5","[""img/0898/68476bbb-34a1-42d9-8bc1-deab783d4489.jpg"",""img/0769/48a1144d-fbda-4809-991b-fc8424a32ee4.jpg""]","",""
"","4291","similarity","182","940134","0.0-6.0-176.0","6","[""img/0766/db750ba0-ce04-46e1-b601-e1b80212bad2.jpg"",""img/0764/d7f3ac54-318a-4dac-a06b-62bed34d01a4.jpg""]","",""
"","3661","similarity","183","944798","0.0-6.0-177.0","2","[""img/0764/cffc80b0-4a90-4acb-a530-6f480f3ca303.jpg"",""img/0866/f756f7d1-9ad8-4a34-9ef6-7a443d705bfe.jpg""]","",""
"","2892","similarity","184","948694","0.0-6.0-178.0","1","[""img/0902/24d10fe7-314f-4d5a-8c7b-b43121bba0a4.jpg"",""img/0875/3ecb367d-e9eb-4826-8aaa-7aa72fb98019.jpg""]","",""
"","3332","similarity","185","953030","0.0-6.0-179.0","2","[""img/0881/f4e3e181-b3c9-4af2-a5a4-fc135ab70d2e.jpg"",""img/0904/a8c3c7d2-9bcf-4347-9e03-8203adfc1fc5.jpg""]","",""
"","4645","similarity","186","958678","0.0-6.0-180.0","2","[""img/0874/3ce41e7c-40c8-4d58-a546-171114521796.jpg"",""img/0860/4a022222-056d-461c-ab02-39fac9647552.jpg""]","",""
"","3429","similarity","187","963110","0.0-6.0-181.0","3","[""img/0769/9ea27d61-3d55-418c-8d14-82e90f656f01.jpg"",""img/0874/85eb9b8a-c4c6-4e5a-b8e7-363a87a82054.jpg""]","",""
"","3573","similarity","188","967686","0.0-6.0-182.0","5","[""img/0904/9b3568cc-3cf7-42be-9df3-fdafde7a58b8.jpg"",""img/0766/d14acac4-7db1-4b07-8f8f-302437326fc0.jpg""]","",""
"","4404","similarity","189","973096","0.0-6.0-183.0","5","[""img/0902/962f645e-9b55-4628-9b50-c703422bfe1a.jpg"",""img/0764/438c0217-036f-43c9-9b87-f43144e46011.jpg""]","",""
"","3827","similarity","190","977926","0.0-6.0-184.0","2","[""img/0769/da36e3f7-2337-434f-ab57-11822dd7eed7.jpg"",""img/0875/5a1e5100-0d94-4fec-bbe9-ca9894d2cf8e.jpg""]","",""
"","2933","similarity","191","981862","0.0-6.0-185.0","1","[""img/0867/db7e032f-162b-46f5-ae67-2b29679adee4.jpg"",""img/0903/b0a3c45f-467e-412f-a183-c9c1827f2e63.jpg""]","",""
"","4028","similarity","192","986895","0.0-6.0-186.0","4","[""img/0862/92fcd8a4-8193-4a6a-ae09-dd4a6338b0df.jpg"",""img/0769/ecda2fb3-556b-43ba-8a67-e87dd75ff2b4.jpg""]","",""
"","3124","similarity","193","991022","0.0-6.0-187.0","1","[""img/0766/e8052e17-9dae-4139-802b-6e590cb2d526.jpg"",""img/0866/a15b02be-11bb-43e3-b0e0-ecc3bd7dfc49.jpg""]","",""
"","3029","similarity","194","995054","0.0-6.0-188.0","2","[""img/0769/35364db7-e0d5-40ef-93dc-faf9dfb95136.jpg"",""img/0860/524b2e98-5767-4d53-942c-ebae6925659b.jpg""]","",""
"","3621","similarity","195","1001245","0.0-6.0-189.0","2","[""img/0881/4da99fdd-1f40-4bbb-8e21-8833eef313f5.jpg"",""img/0868/c8ac40c7-6904-4e13-8d61-c75d3052dc4e.jpg""]","",""
"[{""page_index"":0,""viewing_time"":2223}]","2224","instructions","196","1004471","0.0-7.0","","","",""
"","12445","image-multi-choice","197","1017946","0.0-8.0-0.0","","","{""Q0"":""Orange-crowned Warbler""}","Nashville Warbler"
"","3321","image-multi-choice","198","1022308","0.0-8.0-1.0","","","{""Q0"":""Black-and-white Warbler""}","Black-and-white Warbler"
"","14657","image-multi-choice","199","1037994","0.0-8.0-2.0","","","{""Q0"":""Blackburnian Warbler""}","Townsend's Warbler"
"","7605","image-multi-choice","200","1046627","0.0-8.0-3.0","","","{""Q0"":""Lark Sparrow""}","Lark Sparrow"
"","4510","image-multi-choice","201","1052170","0.0-8.0-4.0","","","{""Q0"":""Yellow Warbler""}","Yellow Warbler"
"","31909","image-multi-choice","202","1085112","0.0-8.0-5.0","","","{""Q0"":""Tennessee Warbler""}","Orange-crowned Warbler"
"","4965","image-multi-choice","203","1091124","0.0-8.0-6.0","","","{""Q0"":""White-throated Sparrow""}","White-throated Sparrow"
"","5014","image-multi-choice","204","1097162","0.0-8.0-7.0","","","{""Q0"":""Fox Sparrow""}","Fox Sparrow"
"","16252","image-multi-choice","205","1114451","0.0-8.0-8.0","","","{""Q0"":""Swamp Sparrow""}","Song Sparrow"
"","53215","image-multi-choice","206","1168703","0.0-8.0-9.0","","","{""Q0"":""Townsend's Warbler""}","Blackburnian Warbler"
"","10402","image-multi-choice","207","1180149","0.0-8.0-10.0","","","{""Q0"":""Vesper Sparrow""}","Vesper Sparrow"
"","3309","image-multi-choice","208","1184490","0.0-8.0-11.0","","","{""Q0"":""White-crowned Sparrow""}","White-crowned Sparrow"
"","6332","image-multi-choice","209","1191850","0.0-8.0-12.0","","","{""Q0"":""American Tree Sparrow""}","American Tree Sparrow"
"","17885","image-multi-choice","210","1210775","0.0-8.0-13.0","","","{""Q0"":""Tennessee Warbler""}","Tennessee Warbler"
"","10915","image-multi-choice","211","1222738","0.0-8.0-14.0","","","{""Q0"":""Magnolia Warbler""}","Magnolia Warbler"
"","9904","image-multi-choice","212","1233683","0.0-8.0-15.0","","","{""Q0"":""Northern Waterthrush""}","Northern Waterthrush"
"","8902","image-multi-choice","213","1243611","0.0-8.0-16.0","","","{""Q0"":""Chipping Sparrow""}","Chipping Sparrow"
"","10438","image-multi-choice","214","1255082","0.0-8.0-17.0","","","{""Q0"":""Swamp Sparrow""}","Swamp Sparrow"
"","6500","image-multi-choice","215","1262651","0.0-8.0-18.0","","","{""Q0"":""Lincoln's Sparrow""}","Lincoln's Sparrow"
"","3828","image-multi-choice","216","1267506","0.0-8.0-19.0","","","{""Q0"":""Ovenbird""}","Ovenbird"
