[{"view_history":"[{\"page_index\":0,\"viewing_time\":9764}]","rt":9768,"trial_type":"instructions","trial_index":0,"time_elapsed":9770,"internal_node_id":"0.0-0.0"},{"sim_score":7,"rt":4611,"stimulus":"[\"img/bluejay1.jpg\",\"img/bluejay2.jpg\"]","trial_type":"similarity_demo","trial_index":1,"time_elapsed":15403,"internal_node_id":"0.0-1.0"},{"view_history":"[{\"page_index\":0,\"viewing_time\":2146}]","rt":2146,"trial_type":"instructions","trial_index":2,"time_elapsed":18550,"internal_node_id":"0.0-2.0"},{"sim_score":5,"rt":3267,"stimulus":"[\"img/bluejay1.jpg\",\"img/cardinal1.jpg\"]","trial_type":"similarity_demo","trial_index":3,"time_elapsed":22824,"internal_node_id":"0.0-3.0"},{"view_history":"[{\"page_index\":0,\"viewing_time\":2589}]","rt":2590,"trial_type":"instructions","trial_index":4,"time_elapsed":26414,"internal_node_id":"0.0-4.0"},{"view_history":"[{\"page_index\":0,\"viewing_time\":7207}]","rt":7208,"trial_type":"instructions","trial_index":5,"time_elapsed":34622,"internal_node_id":"0.0-5.0"},{"sim_score":3,"rt":4162,"stimulus":"[\"img/0868/7b212364-ff5f-4e28-9241-7eb6ea00161b.jpg\",\"img/0894/492d2f29-d7b9-4422-8be8-47fd58bfaa8b.jpg\"]","trial_type":"similarity","trial_index":6,"time_elapsed":39792,"internal_node_id":"0.0-6.0-0.0"},{"sim_score":2,"rt":3706,"stimulus":"[\"img/0898/661621d4-a14e-487c-8c74-354134a29710.jpg\",\"img/0758/821c68d3-5cb0-4eae-8659-30e6263fca39.jpg\"]","trial_type":"similarity","trial_index":7,"time_elapsed":44505,"internal_node_id":"0.0-6.0-1.0"},{"sim_score":4,"rt":4179,"stimulus":"[\"img/0903/005ad0de-4f52-433c-b515-dbe8d46184a3.jpg\",\"img/0894/9b1333fd-3561-43bf-aee5-99b7b7ca3dc3.jpg\"]","trial_type":"similarity","trial_index":8,"time_elapsed":49698,"internal_node_id":"0.0-6.0-2.0"},{"sim_score":2,"rt":3574,"stimulus":"[\"img/0881/44e09805-5a25-4f17-a716-4ad4a331b174.jpg\",\"img/0766/26d3ae14-8275-4e08-99b2-a6598c193ddf.jpg\"]","trial_type":"similarity","trial_index":9,"time_elapsed":54281,"internal_node_id":"0.0-6.0-3.0"},{"sim_score":4,"rt":4043,"stimulus":"[\"img/0864/ea327690-500b-4137-bf91-451b309fe6a5.jpg\",\"img/0860/15b24a61-25be-4356-9eac-5ce95d0cb4a4.jpg\"]","trial_type":"similarity","trial_index":10,"time_elapsed":59336,"internal_node_id":"0.0-6.0-4.0"},{"sim_score":5,"rt":3934,"stimulus":"[\"img/0902/94ee9c53-a9a2-4f95-b9b7-794a5fc62bb6.jpg\",\"img/0899/d60714ae-98d7-4564-8c98-94dba1351135.jpg\"]","trial_type":"similarity","trial_index":11,"time_elapsed":64289,"internal_node_id":"0.0-6.0-5.0"},{"sim_score":4,"rt":3650,"stimulus":"[\"img/0868/4a8a45ed-2c4f-421b-9564-409a33ecd26c.jpg\",\"img/0769/3adfa417-3b90-4aab-b437-5eaa474189cb.jpg\"]","trial_type":"similarity","trial_index":12,"time_elapsed":68953,"internal_node_id":"0.0-6.0-6.0"},{"sim_score":5,"rt":3159,"stimulus":"[\"img/0764/29072395-f595-4e3c-83d3-ff87010039fa.jpg\",\"img/0901/f469cb1d-6d81-4a45-bab5-cd0b650c2b4f.jpg\"]","trial_type":"similarity","trial_index":13,"time_elapsed":73120,"internal_node_id":"0.0-6.0-7.0"},{"sim_score":5,"rt":4818,"stimulus":"[\"img/0881/405484ae-0d00-4b05-bc57-6420a36adfac.jpg\",\"img/0866/386235d2-6857-41e7-88a8-25cfc3430025.jpg\"]","trial_type":"similarity","trial_index":14,"time_elapsed":78944,"internal_node_id":"0.0-6.0-8.0"},{"sim_score":4,"rt":4624,"stimulus":"[\"img/0867/6e19c858-b606-45b2-a4c6-910a73f1d82c.jpg\",\"img/0899/8abe6c69-822c-436c-9bf2-96c818b49ba5.jpg\"]","trial_type":"similarity","trial_index":15,"time_elapsed":84575,"internal_node_id":"0.0-6.0-9.0"},{"sim_score":3,"rt":3354,"stimulus":"[\"img/0875/2c361b79-c3d1-4eda-812e-bf03192407bf.jpg\",\"img/0766/71b81ebd-0937-4d7f-b8bf-c4e46a4728fd.jpg\"]","trial_type":"similarity","trial_index":16,"time_elapsed":88941,"internal_node_id":"0.0-6.0-10.0"},{"sim_score":3,"rt":2708,"stimulus":"[\"img/0901/7d4a3388-488d-4e9b-9d32-9d0def7aae8d.jpg\",\"img/0875/dbdd643e-6d0e-4a5c-ab57-b9c29b9c981a.jpg\"]","trial_type":"similarity","trial_index":17,"time_elapsed":92656,"internal_node_id":"0.0-6.0-11.0"},{"sim_score":4,"rt":3817,"stimulus":"[\"img/0902/22ed3536-288b-452e-9777-0fa0ab94deb0.jpg\",\"img/0860/9593362c-9fe5-4d12-9735-6000a11f6aa5.jpg\"]","trial_type":"similarity","trial_index":18,"time_elapsed":97482,"internal_node_id":"0.0-6.0-12.0"},{"sim_score":5,"rt":3383,"stimulus":"[\"img/0874/a3bc679d-619f-4db6-bb68-116dcb757d9c.jpg\",\"img/0867/aa05d113-fc19-4756-a8eb-7878f580bc92.jpg\"]","trial_type":"similarity","trial_index":19,"time_elapsed":101871,"internal_node_id":"0.0-6.0-13.0"},{"sim_score":4,"rt":3742,"stimulus":"[\"img/0904/da170c1b-9651-4f08-b231-2bdd1d9a046f.jpg\",\"img/0866/02f5e6b9-52b7-448c-9708-5b460d0c9a23.jpg\"]","trial_type":"similarity","trial_index":20,"time_elapsed":106634,"internal_node_id":"0.0-6.0-14.0"},{"sim_score":4,"rt":3439,"stimulus":"[\"img/0758/ddc336e9-a8b6-4bb9-937a-c7e25e0e9250.jpg\",\"img/0902/af45fe42-178c-4c1a-99ef-256e87e3b092.jpg\"]","trial_type":"similarity","trial_index":21,"time_elapsed":111080,"internal_node_id":"0.0-6.0-15.0"},{"sim_score":3,"rt":3967,"stimulus":"[\"img/0867/179ab87a-8eac-4c52-a41f-2e48e3120f09.jpg\",\"img/0898/01bfe666-3510-4fc7-964f-d00d28732dc8.jpg\"]","trial_type":"similarity","trial_index":22,"time_elapsed":116056,"internal_node_id":"0.0-6.0-16.0"},{"sim_score":4,"rt":2994,"stimulus":"[\"img/0904/06dacdc5-2206-4fb8-92b7-88042d22833c.jpg\",\"img/0868/83b4350a-3b70-4cea-b7f5-b5b56f3050a8.jpg\"]","trial_type":"similarity","trial_index":23,"time_elapsed":120055,"internal_node_id":"0.0-6.0-17.0"},{"sim_score":3,"rt":3796,"stimulus":"[\"img/0766/dd3e18d0-0c98-4d05-b850-69976ee8cd75.jpg\",\"img/0864/5f33e097-23e3-4002-882d-76e8cb15f451.jpg\"]","trial_type":"similarity","trial_index":24,"time_elapsed":124869,"internal_node_id":"0.0-6.0-18.0"},{"sim_score":5,"rt":3861,"stimulus":"[\"img/0899/4408c14d-c168-4a7d-96f6-bc87bfb58f83.jpg\",\"img/0766/a754e4b6-5019-4cf4-8f58-34c20547a1f5.jpg\"]","trial_type":"similarity","trial_index":25,"time_elapsed":129738,"internal_node_id":"0.0-6.0-19.0"},{"sim_score":3,"rt":2753,"stimulus":"[\"img/0764/bc3865c9-9004-4582-88a7-048478673f97.jpg\",\"img/0758/e1ba5e53-addc-436a-b428-d34fc1b130dc.jpg\"]","trial_type":"similarity","trial_index":26,"time_elapsed":133495,"internal_node_id":"0.0-6.0-20.0"},{"sim_score":4,"rt":4109,"stimulus":"[\"img/0901/3db47171-0139-4235-82cd-0b1787b6775f.jpg\",\"img/0874/1016b306-087c-4afc-aa08-fa527b28dc76.jpg\"]","trial_type":"similarity","trial_index":27,"time_elapsed":138615,"internal_node_id":"0.0-6.0-21.0"},{"sim_score":6,"rt":3371,"stimulus":"[\"img/0875/527ced51-8e53-4aab-ab05-86df219104c0.jpg\",\"img/0758/3ddd05d3-557e-4ee7-8b78-9d2d681d8ae2.jpg\"]","trial_type":"similarity","trial_index":28,"time_elapsed":142991,"internal_node_id":"0.0-6.0-22.0"},{"sim_score":5,"rt":4468,"stimulus":"[\"img/0867/ac1797e4-8afc-48fe-b252-86d1defb1cca.jpg\",\"img/0881/b549bc99-a61c-4450-bab5-9efc3a197bf0.jpg\"]","trial_type":"similarity","trial_index":29,"time_elapsed":148465,"internal_node_id":"0.0-6.0-23.0"},{"sim_score":2,"rt":4265,"stimulus":"[\"img/0758/7ffbc76b-1fc1-432c-8f7e-9ec8d1b3f643.jpg\",\"img/0901/33b51a81-06d9-46d9-9d4f-5a2d6d6b8058.jpg\"]","trial_type":"similarity","trial_index":30,"time_elapsed":153736,"internal_node_id":"0.0-6.0-24.0"},{"sim_score":5,"rt":4603,"stimulus":"[\"img/0868/4bd5105a-d2c3-4f82-8c80-57196106ba53.jpg\",\"img/0875/cff79b3a-a797-4393-9757-6275f999ec04.jpg\"]","trial_type":"similarity","trial_index":31,"time_elapsed":159344,"internal_node_id":"0.0-6.0-25.0"},{"sim_score":6,"rt":4848,"stimulus":"[\"img/0903/647ce311-8c71-479a-8361-961db1457139.jpg\",\"img/0901/5657dd86-0ff9-4753-ba2b-9dfb223e5c89.jpg\"]","trial_type":"similarity","trial_index":32,"time_elapsed":165199,"internal_node_id":"0.0-6.0-26.0"},{"sim_score":6,"rt":3691,"stimulus":"[\"img/0894/3adef67d-7676-4995-80b2-bb31b8aca3ef.jpg\",\"img/0899/00715b3f-851b-420b-a26b-d7f79f7759a9.jpg\"]","trial_type":"similarity","trial_index":33,"time_elapsed":169899,"internal_node_id":"0.0-6.0-27.0"},{"sim_score":4,"rt":3772,"stimulus":"[\"img/0862/fad1d7c1-8187-43c3-942a-0fc12183e48e.jpg\",\"img/0867/a749dddb-69f0-44a6-acdc-2bf295cf6dcc.jpg\"]","trial_type":"similarity","trial_index":34,"time_elapsed":174679,"internal_node_id":"0.0-6.0-28.0"},{"sim_score":5,"rt":3644,"stimulus":"[\"img/0864/3651d070-2fc5-4848-b6a6-088a2d9ac5c9.jpg\",\"img/0875/5a7c4e35-6514-4e12-8879-d16071da4cd6.jpg\"]","trial_type":"similarity","trial_index":35,"time_elapsed":179326,"internal_node_id":"0.0-6.0-29.0"},{"sim_score":5,"rt":4827,"stimulus":"[\"img/0862/064818ee-13d5-4618-bb24-21c7368ea278.jpg\",\"img/0874/93d1f8dc-acf2-4f03-bd8d-8ec35df276ed.jpg\"]","trial_type":"similarity","trial_index":36,"time_elapsed":185159,"internal_node_id":"0.0-6.0-30.0"},{"sim_score":3,"rt":3577,"stimulus":"[\"img/0903/31b5a5f4-b695-4af1-bad2-a19650a05498.jpg\",\"img/0758/f61ecdf8-a7d4-4db0-b84d-be46f7cfaffc.jpg\"]","trial_type":"similarity","trial_index":37,"time_elapsed":189743,"internal_node_id":"0.0-6.0-31.0"},{"sim_score":3,"rt":3180,"stimulus":"[\"img/0866/d493a2c8-66eb-44b4-be02-2f327b700b7c.jpg\",\"img/0901/d6d15b1c-4a30-4f74-a3fd-d4c8ee4169ca.jpg\"]","trial_type":"similarity","trial_index":38,"time_elapsed":193939,"internal_node_id":"0.0-6.0-32.0"},{"sim_score":3,"rt":4584,"stimulus":"[\"img/0874/31e22c7c-99aa-40b1-bf03-dd73fa2df4d6.jpg\",\"img/0899/fef567a2-c121-4481-9af0-ff108d199bbf.jpg\"]","trial_type":"similarity","trial_index":39,"time_elapsed":199531,"internal_node_id":"0.0-6.0-33.0"},{"sim_score":6,"rt":4038,"stimulus":"[\"img/0903/4cbdc464-e562-4ec2-9bb6-15f894fdf528.jpg\",\"img/0902/31abfa33-7cdb-44ad-968e-9f7b324d577a.jpg\"]","trial_type":"similarity","trial_index":40,"time_elapsed":204579,"internal_node_id":"0.0-6.0-34.0"},{"sim_score":3,"rt":3856,"stimulus":"[\"img/0758/7fba58df-2a7a-4b76-8a8f-62739f97f271.jpg\",\"img/0866/be24ab58-230e-4db8-9f45-ff04c9aec6bb.jpg\"]","trial_type":"similarity","trial_index":41,"time_elapsed":209440,"internal_node_id":"0.0-6.0-35.0"},{"sim_score":3,"rt":3236,"stimulus":"[\"img/0875/a4935837-7d3c-4df6-88c1-36a94d4991ca.jpg\",\"img/0903/0a92ec52-4e87-410a-857a-4455cde56a70.jpg\"]","trial_type":"similarity","trial_index":42,"time_elapsed":213679,"internal_node_id":"0.0-6.0-36.0"},{"sim_score":2,"rt":3260,"stimulus":"[\"img/0864/da39ad34-04e0-40d4-a724-c08d53e0ea09.jpg\",\"img/0902/a323b62d-2fd5-4ac8-acc6-35b768f3c3f2.jpg\"]","trial_type":"similarity","trial_index":43,"time_elapsed":222142,"internal_node_id":"0.0-6.0-37.0"},{"sim_score":2,"rt":5106,"stimulus":"[\"img/0901/08d6d1d1-c043-43c4-bb08-d45e062822b9.jpg\",\"img/0867/5e07b34d-b40f-4b1c-ac10-49975bace45f.jpg\"]","trial_type":"similarity","trial_index":44,"time_elapsed":228256,"internal_node_id":"0.0-6.0-38.0"},{"sim_score":6,"rt":5610,"stimulus":"[\"img/0862/00c06b00-3b73-44e9-bc1e-c5aafb438321.jpg\",\"img/0860/99c589b9-9140-4d17-90c0-b344323edcda.jpg\"]","trial_type":"similarity","trial_index":45,"time_elapsed":234870,"internal_node_id":"0.0-6.0-39.0"},{"sim_score":6,"rt":4170,"stimulus":"[\"img/0867/26611f4e-d694-4460-b7e2-43c62753ddc3.jpg\",\"img/0868/179a5502-ab5c-478e-8263-5a1fbcc101d2.jpg\"]","trial_type":"similarity","trial_index":46,"time_elapsed":240047,"internal_node_id":"0.0-6.0-40.0"},{"sim_score":4,"rt":4688,"stimulus":"[\"img/0904/25365108-e038-4021-aac9-797f2063b337.jpg\",\"img/0899/66ab3178-c3fe-4455-ad17-d5952b08e018.jpg\"]","trial_type":"similarity","trial_index":47,"time_elapsed":245746,"internal_node_id":"0.0-6.0-41.0"},{"sim_score":2,"rt":4200,"stimulus":"[\"img/0862/f188d4f0-76a4-4102-818c-a209969d73a5.jpg\",\"img/0894/2217bdcd-23a7-42d3-823b-23f2488d7e87.jpg\"]","trial_type":"similarity","trial_index":48,"time_elapsed":250950,"internal_node_id":"0.0-6.0-42.0"},{"sim_score":2,"rt":3400,"stimulus":"[\"img/0875/8521fd58-3b1e-4dc5-97ae-804edfa6734a.jpg\",\"img/0904/fe746a3f-8458-48d0-8a13-8cba2a9df9f8.jpg\"]","trial_type":"similarity","trial_index":49,"time_elapsed":255358,"internal_node_id":"0.0-6.0-43.0"},{"sim_score":3,"rt":3552,"stimulus":"[\"img/0874/3f471690-9788-4d03-90c7-f615aecef149.jpg\",\"img/0898/5f699581-3853-4547-856c-12f419ba5af7.jpg\"]","trial_type":"similarity","trial_index":50,"time_elapsed":259919,"internal_node_id":"0.0-6.0-44.0"},{"sim_score":1,"rt":3136,"stimulus":"[\"img/0898/6cd3830b-d44e-4915-be2b-88d31424b91c.jpg\",\"img/0868/6a28c3b0-3d76-498a-9fb7-ddafc665eca8.jpg\"]","trial_type":"similarity","trial_index":51,"time_elapsed":264062,"internal_node_id":"0.0-6.0-45.0"},{"sim_score":2,"rt":3908,"stimulus":"[\"img/0901/693e0535-ef7e-4d60-af9d-fac2f38e8307.jpg\",\"img/0860/702bd09d-df3a-40aa-a267-5f04474305b5.jpg\"]","trial_type":"similarity","trial_index":52,"time_elapsed":268974,"internal_node_id":"0.0-6.0-46.0"},{"sim_score":4,"rt":3964,"stimulus":"[\"img/0894/b2d2f66e-e480-46da-a02a-6d0c6b285d78.jpg\",\"img/0902/94198618-7047-4dc9-ad04-85f4ba913067.jpg\"]","trial_type":"similarity","trial_index":53,"time_elapsed":273942,"internal_node_id":"0.0-6.0-47.0"},{"sim_score":3,"rt":3101,"stimulus":"[\"img/0764/8740679b-b56f-4292-aece-14063457113a.jpg\",\"img/0862/fb26cb07-d5a9-4653-813c-f41609f26cd5.jpg\"]","trial_type":"similarity","trial_index":54,"time_elapsed":278046,"internal_node_id":"0.0-6.0-48.0"},{"sim_score":6,"rt":4180,"stimulus":"[\"img/0881/7e31e5dc-2240-4b1b-b5a0-3acd980099ef.jpg\",\"img/0758/53f35650-e455-4b53-8be4-c3c8271c6466.jpg\"]","trial_type":"similarity","trial_index":55,"time_elapsed":283231,"internal_node_id":"0.0-6.0-49.0"},{"sim_score":5,"rt":3619,"stimulus":"[\"img/0766/a0270213-fa0e-4972-8b56-228c3e01ff90.jpg\",\"img/0769/38a88f69-28fd-4bbd-99f0-f4c02bfd3995.jpg\"]","trial_type":"similarity","trial_index":56,"time_elapsed":287854,"internal_node_id":"0.0-6.0-50.0"},{"sim_score":6,"rt":4764,"stimulus":"[\"img/0875/42910c99-5463-450a-a0f8-d4d060a11455.jpg\",\"img/0866/c446214b-a368-4c65-ae39-ea46894256ab.jpg\"]","trial_type":"similarity","trial_index":57,"time_elapsed":293625,"internal_node_id":"0.0-6.0-51.0"},{"sim_score":5,"rt":4730,"stimulus":"[\"img/0894/792c83e9-a747-4000-bc72-5663d2439edb.jpg\",\"img/0904/b7c2a2c8-df33-4473-b3d4-ff7147c60db3.jpg\"]","trial_type":"similarity","trial_index":58,"time_elapsed":299358,"internal_node_id":"0.0-6.0-52.0"},{"sim_score":4,"rt":4060,"stimulus":"[\"img/0758/20497cbe-ddae-489e-86e2-ab06985ed07c.jpg\",\"img/0769/a3cfbdeb-acb3-4eac-87fb-4b117f42d4f8.jpg\"]","trial_type":"similarity","trial_index":59,"time_elapsed":304422,"internal_node_id":"0.0-6.0-53.0"},{"sim_score":2,"rt":3604,"stimulus":"[\"img/0902/01b41522-de46-4c3a-b0af-a61b2682b40e.jpg\",\"img/0874/7e4f2150-3b59-4a36-b5da-a4e0ba410531.jpg\"]","trial_type":"similarity","trial_index":60,"time_elapsed":309036,"internal_node_id":"0.0-6.0-54.0"},{"sim_score":4,"rt":4351,"stimulus":"[\"img/0903/776b74ee-a8ab-4ab8-a78d-097c0747538d.jpg\",\"img/0862/e8cc3bdf-cc43-4565-bccf-492626c70953.jpg\"]","trial_type":"similarity","trial_index":61,"time_elapsed":314391,"internal_node_id":"0.0-6.0-55.0"},{"sim_score":2,"rt":3587,"stimulus":"[\"img/0866/23a224f3-2012-4fc8-8e0f-3c36f8de27fd.jpg\",\"img/0894/10f22b96-040c-44f4-950b-a4963f3f506c.jpg\"]","trial_type":"similarity","trial_index":62,"time_elapsed":318986,"internal_node_id":"0.0-6.0-56.0"},{"sim_score":3,"rt":4281,"stimulus":"[\"img/0867/7d1c497b-c1b3-4ed8-abb5-d7f73306015f.jpg\",\"img/0904/2c98dc56-88d1-4fb5-a999-b6a7861f65f0.jpg\"]","trial_type":"similarity","trial_index":63,"time_elapsed":324270,"internal_node_id":"0.0-6.0-57.0"},{"sim_score":5,"rt":3916,"stimulus":"[\"img/0875/d59ff733-eaff-4ee2-9443-06954dd0bcb6.jpg\",\"img/0881/e6746727-7f89-47ec-b939-d98abe78372d.jpg\"]","trial_type":"similarity","trial_index":64,"time_elapsed":329191,"internal_node_id":"0.0-6.0-58.0"},{"sim_score":2,"rt":3916,"stimulus":"[\"img/0866/93a27239-8317-4e08-98ca-d8b1ff298e07.jpg\",\"img/0860/c7047cd2-7cc1-41b6-8a34-c0986774975f.jpg\"]","trial_type":"similarity","trial_index":65,"time_elapsed":334111,"internal_node_id":"0.0-6.0-59.0"},{"sim_score":1,"rt":3108,"stimulus":"[\"img/0903/f67c4ab9-f8c2-4fcd-848a-a54a7b031002.jpg\",\"img/0866/620cd1aa-0800-4414-8f6e-90342e7a99ad.jpg\"]","trial_type":"similarity","trial_index":66,"time_elapsed":338222,"internal_node_id":"0.0-6.0-60.0"},{"sim_score":5,"rt":4364,"stimulus":"[\"img/0860/5bff793e-cbd5-4d7e-b628-0ac2b0e30b64.jpg\",\"img/0875/2e13d160-eea1-416b-aff1-d37ab99ecc1d.jpg\"]","trial_type":"similarity","trial_index":67,"time_elapsed":343597,"internal_node_id":"0.0-6.0-61.0"},{"sim_score":3,"rt":4390,"stimulus":"[\"img/0898/ec565187-2e31-4fdd-9a5c-153d0c789ae0.jpg\",\"img/0862/f43ceabf-acc1-4107-b857-5d1849808f93.jpg\"]","trial_type":"similarity","trial_index":68,"time_elapsed":348992,"internal_node_id":"0.0-6.0-62.0"},{"sim_score":3,"rt":3954,"stimulus":"[\"img/0902/62f11694-7ed7-4cb7-8a73-9e95c43824e7.jpg\",\"img/0766/d5d38751-8fa5-476f-93e9-86ed2d9045ef.jpg\"]","trial_type":"similarity","trial_index":69,"time_elapsed":353964,"internal_node_id":"0.0-6.0-63.0"},{"sim_score":3,"rt":6078,"stimulus":"[\"img/0758/61d64021-9214-4951-bdf8-f871f9827cf9.jpg\",\"img/0864/4bd81bc6-c13d-46df-95a9-485886dc7c1b.jpg\"]","trial_type":"similarity","trial_index":70,"time_elapsed":361046,"internal_node_id":"0.0-6.0-64.0"},{"sim_score":1,"rt":4053,"stimulus":"[\"img/0894/5f15154e-e72e-4ce5-aafb-bce6f0564006.jpg\",\"img/0860/61fb959d-d4d9-4de4-9e4e-4fa62b4cfcd5.jpg\"]","trial_type":"similarity","trial_index":71,"time_elapsed":366103,"internal_node_id":"0.0-6.0-65.0"},{"sim_score":1,"rt":3251,"stimulus":"[\"img/0899/7b7380d5-d2be-44e5-a09a-c1756f87ef71.jpg\",\"img/0868/09a9ef4d-d000-4cfa-a6aa-ebec7c2edeb4.jpg\"]","trial_type":"similarity","trial_index":72,"time_elapsed":370359,"internal_node_id":"0.0-6.0-66.0"},{"sim_score":4,"rt":4476,"stimulus":"[\"img/0866/d266fece-59b3-46fa-b69f-96f6efb81b59.jpg\",\"img/0862/e0f1a4e9-e1b6-45f7-af67-89f334e6630d.jpg\"]","trial_type":"similarity","trial_index":73,"time_elapsed":375838,"internal_node_id":"0.0-6.0-67.0"},{"sim_score":2,"rt":3812,"stimulus":"[\"img/0860/d9a0d117-6d1d-41c0-8fec-9aff0fd9e9f2.jpg\",\"img/0758/d41c06bf-ebaf-454b-91c6-1a17f917b659.jpg\"]","trial_type":"similarity","trial_index":74,"time_elapsed":380654,"internal_node_id":"0.0-6.0-68.0"},{"sim_score":2,"rt":3453,"stimulus":"[\"img/0902/ca3160ba-ad5d-459f-a1b6-8b4f3c85ecd5.jpg\",\"img/0867/8ba0c5a7-c7e4-42cf-a80a-543763b90779.jpg\"]","trial_type":"similarity","trial_index":75,"time_elapsed":385110,"internal_node_id":"0.0-6.0-69.0"},{"sim_score":2,"rt":3053,"stimulus":"[\"img/0862/f23038d4-c366-4f70-979f-66b62362efa4.jpg\",\"img/0901/1b86f2fc-7a1d-4aa8-9252-114f92edef3b.jpg\"]","trial_type":"similarity","trial_index":76,"time_elapsed":389167,"internal_node_id":"0.0-6.0-70.0"},{"sim_score":5,"rt":4108,"stimulus":"[\"img/0867/2e1a0b58-cdb1-4107-a14e-452530d7b9b0.jpg\",\"img/0866/0207e9a2-7dbb-40b5-9459-b472aaeceb2a.jpg\"]","trial_type":"similarity","trial_index":77,"time_elapsed":394278,"internal_node_id":"0.0-6.0-71.0"},{"sim_score":3,"rt":3221,"stimulus":"[\"img/0860/fd4662f9-4c03-4d79-8593-06735e55a64b.jpg\",\"img/0904/0d25eb24-bb20-4e8d-9787-8b489558b4cb.jpg\"]","trial_type":"similarity","trial_index":78,"time_elapsed":398503,"internal_node_id":"0.0-6.0-72.0"},{"sim_score":1,"rt":3845,"stimulus":"[\"img/0875/fb732ab5-013a-4366-9f65-27811ed157e9.jpg\",\"img/0899/66bf4113-ee12-426c-84d2-ea410b6c803e.jpg\"]","trial_type":"similarity","trial_index":79,"time_elapsed":403350,"internal_node_id":"0.0-6.0-73.0"},{"sim_score":2,"rt":5060,"stimulus":"[\"img/0899/f58b8d2f-b19d-4b59-8b94-8834be92e4ba.jpg\",\"img/0758/d57c2592-a317-4f63-91be-91a3a9afd222.jpg\"]","trial_type":"similarity","trial_index":80,"time_elapsed":409414,"internal_node_id":"0.0-6.0-74.0"},{"sim_score":3,"rt":4228,"stimulus":"[\"img/0862/ad593cc7-cabe-4bb7-8e14-8a447a0717b4.jpg\",\"img/0875/ebf7653f-ff45-4e9f-af58-2c042ab3cd2b.jpg\"]","trial_type":"similarity","trial_index":81,"time_elapsed":416375,"internal_node_id":"0.0-6.0-75.0"},{"sim_score":2,"rt":3860,"stimulus":"[\"img/0901/bc47e078-bda4-40ed-b89a-bbd819164b95.jpg\",\"img/0894/6aa5545f-fa7d-4286-bbaa-aaf34dc7ec96.jpg\"]","trial_type":"similarity","trial_index":82,"time_elapsed":421238,"internal_node_id":"0.0-6.0-76.0"},{"sim_score":1,"rt":3132,"stimulus":"[\"img/0766/006035d8-c736-4daf-bbe4-a9e373af9da6.jpg\",\"img/0758/b76ceca7-95ac-46e4-ac13-da02c8e93be9.jpg\"]","trial_type":"similarity","trial_index":83,"time_elapsed":425374,"internal_node_id":"0.0-6.0-77.0"},{"sim_score":2,"rt":4731,"stimulus":"[\"img/0894/1b3888e6-cf36-4c4a-a039-187aa5cb71ac.jpg\",\"img/0764/e48e6c6f-9e28-420f-836a-8043b2319bb4.jpg\"]","trial_type":"similarity","trial_index":84,"time_elapsed":431111,"internal_node_id":"0.0-6.0-78.0"},{"sim_score":3,"rt":4788,"stimulus":"[\"img/0860/87039971-2210-4aab-93c0-8e9b5f1655b2.jpg\",\"img/0867/de92135f-5b65-4ed9-b245-188292c7c2f8.jpg\"]","trial_type":"similarity","trial_index":85,"time_elapsed":436902,"internal_node_id":"0.0-6.0-79.0"},{"sim_score":3,"rt":3781,"stimulus":"[\"img/0898/b3290bf9-215b-4b45-b21a-65bdf73f142f.jpg\",\"img/0901/148b747a-7392-437e-8823-33053c5dff3f.jpg\"]","trial_type":"similarity","trial_index":86,"time_elapsed":441686,"internal_node_id":"0.0-6.0-80.0"},{"sim_score":2,"rt":4004,"stimulus":"[\"img/0874/bf14b896-e930-4fd9-9c05-2e83317a2773.jpg\",\"img/0764/4952d0a0-c9be-471a-8ec7-94a37bf4051d.jpg\"]","trial_type":"similarity","trial_index":87,"time_elapsed":446694,"internal_node_id":"0.0-6.0-81.0"},{"sim_score":3,"rt":4884,"stimulus":"[\"img/0899/8de08897-b430-42fe-9d42-840670b80f94.jpg\",\"img/0862/5d887e9f-89e2-4ebc-80a0-6d46fe6480db.jpg\"]","trial_type":"similarity","trial_index":88,"time_elapsed":452582,"internal_node_id":"0.0-6.0-82.0"},{"sim_score":3,"rt":4573,"stimulus":"[\"img/0766/aaec5f42-7f0a-4a16-aeca-488d757acbcc.jpg\",\"img/0901/233a6948-48eb-4b67-8259-222b916b2322.jpg\"]","trial_type":"similarity","trial_index":89,"time_elapsed":458158,"internal_node_id":"0.0-6.0-83.0"},{"sim_score":3,"rt":4204,"stimulus":"[\"img/0881/d373cb9f-a719-4549-a2a4-82def79fb2a5.jpg\",\"img/0898/cd3aaa3f-efa9-4ab3-8d6f-a6a9273ddf42.jpg\"]","trial_type":"similarity","trial_index":90,"time_elapsed":463366,"internal_node_id":"0.0-6.0-84.0"},{"sim_score":2,"rt":4324,"stimulus":"[\"img/0868/fd307a36-9a3a-47d7-ab7c-f810d0b35040.jpg\",\"img/0860/4c530c3c-6aab-492a-94d1-9c01797bde40.jpg\"]","trial_type":"similarity","trial_index":91,"time_elapsed":468694,"internal_node_id":"0.0-6.0-85.0"},{"sim_score":2,"rt":4005,"stimulus":"[\"img/0758/caa93da2-9edf-49fa-96b9-32dedd8f5078.jpg\",\"img/0868/0d3abd3a-b6c3-4584-a9f7-e2da63748b3d.jpg\"]","trial_type":"similarity","trial_index":92,"time_elapsed":473702,"internal_node_id":"0.0-6.0-86.0"},{"sim_score":1,"rt":3637,"stimulus":"[\"img/0864/efcfbb1b-8197-44c9-b723-40d6c608dd3c.jpg\",\"img/0894/151063aa-6472-4745-837b-36603aba5966.jpg\"]","trial_type":"similarity","trial_index":93,"time_elapsed":478342,"internal_node_id":"0.0-6.0-87.0"},{"sim_score":2,"rt":3180,"stimulus":"[\"img/0866/bf14b5bd-fb55-47db-86b9-4f8aeb9a6dad.jpg\",\"img/0902/d2c34af0-8c50-437d-8cc3-619195a3e8ba.jpg\"]","trial_type":"similarity","trial_index":94,"time_elapsed":482526,"internal_node_id":"0.0-6.0-88.0"},{"sim_score":2,"rt":3821,"stimulus":"[\"img/0769/aad494cc-674d-4a08-9bfa-24a88ebe3c79.jpg\",\"img/0867/85a96c62-548f-4994-9553-819e03c3135a.jpg\"]","trial_type":"similarity","trial_index":95,"time_elapsed":487351,"internal_node_id":"0.0-6.0-89.0"},{"sim_score":2,"rt":4395,"stimulus":"[\"img/0874/99f6563c-8a8d-4c1c-a41d-667b618c3fd5.jpg\",\"img/0875/f87b67d7-c33e-40d1-b281-248c4be1cb6e.jpg\"]","trial_type":"similarity","trial_index":96,"time_elapsed":492752,"internal_node_id":"0.0-6.0-90.0"},{"sim_score":3,"rt":4514,"stimulus":"[\"img/0864/f92649a2-0590-4d31-9a7a-1bfb81666a2d.jpg\",\"img/0874/a82926a3-0b43-4add-803c-d5f9ea7798ee.jpg\"]","trial_type":"similarity","trial_index":97,"time_elapsed":498270,"internal_node_id":"0.0-6.0-91.0"},{"sim_score":2,"rt":3309,"stimulus":"[\"img/0881/6b1189e6-232d-4042-8885-16dc7b10e0d4.jpg\",\"img/0862/47ed5efd-4ec9-4b74-bb4e-a5f5cf0c3e7d.jpg\"]","trial_type":"similarity","trial_index":98,"time_elapsed":502582,"internal_node_id":"0.0-6.0-92.0"},{"sim_score":1,"rt":3925,"stimulus":"[\"img/0864/0116ca98-293d-4fa6-a93b-5a6144ef64cc.jpg\",\"img/0881/48ed65a5-471f-41af-86ec-3793805c116d.jpg\"]","trial_type":"similarity","trial_index":99,"time_elapsed":507510,"internal_node_id":"0.0-6.0-93.0"},{"sim_score":1,"rt":5085,"stimulus":"[\"img/0899/4f7bc593-8ddd-4da3-a0b9-84da730d3370.jpg\",\"img/0901/a6c90438-fa7c-4418-ac7c-16c2e772dd98.jpg\"]","trial_type":"similarity","trial_index":100,"time_elapsed":513598,"internal_node_id":"0.0-6.0-94.0"},{"sim_score":3,"rt":4148,"stimulus":"[\"img/0874/ca23d307-fc00-4d7d-9106-584c6eb21b4d.jpg\",\"img/0766/60033a74-9919-47e5-913c-71d0d483e7e5.jpg\"]","trial_type":"similarity","trial_index":101,"time_elapsed":518750,"internal_node_id":"0.0-6.0-95.0"},{"sim_score":5,"rt":3301,"stimulus":"[\"img/0881/19e82c47-8e4b-45d2-a6c8-74181eb4155e.jpg\",\"img/0899/ad8268c5-8199-48d0-ad70-c5b6d6c599ec.jpg\"]","trial_type":"similarity","trial_index":102,"time_elapsed":523054,"internal_node_id":"0.0-6.0-96.0"},{"sim_score":4,"rt":4149,"stimulus":"[\"img/0862/7918ca67-5bd3-4606-a5ea-c39fb11a9297.jpg\",\"img/0902/d1083f2c-5520-44ec-81a8-3f856fbf0e80.jpg\"]","trial_type":"similarity","trial_index":103,"time_elapsed":528206,"internal_node_id":"0.0-6.0-97.0"},{"sim_score":4,"rt":4164,"stimulus":"[\"img/0899/25ae6ec8-9565-49fe-a8bb-8d0666f52716.jpg\",\"img/0764/7f4ee8e3-9315-4a57-be7d-db8454b33766.jpg\"]","trial_type":"similarity","trial_index":104,"time_elapsed":533376,"internal_node_id":"0.0-6.0-98.0"},{"sim_score":3,"rt":4651,"stimulus":"[\"img/0758/9fb5b2fe-3f00-4fe6-973c-1ce10d5f4cd5.jpg\",\"img/0862/4f0a3b4c-afbf-486e-b248-1d54982f54b4.jpg\"]","trial_type":"similarity","trial_index":105,"time_elapsed":539030,"internal_node_id":"0.0-6.0-99.0"},{"sim_score":5,"rt":4261,"stimulus":"[\"img/0764/6fbd1902-fa2a-48d8-bc11-705b8ab68d8f.jpg\",\"img/0898/8605a25b-6895-476d-8c13-df7a83f96093.jpg\"]","trial_type":"similarity","trial_index":106,"time_elapsed":544294,"internal_node_id":"0.0-6.0-100.0"},{"sim_score":6,"rt":4124,"stimulus":"[\"img/0901/1e23ffbd-19de-4c4f-aa23-c54aaa3319a3.jpg\",\"img/0902/fbef27fa-ac83-4936-ab78-9d1c20a383e1.jpg\"]","trial_type":"similarity","trial_index":107,"time_elapsed":549422,"internal_node_id":"0.0-6.0-101.0"},{"sim_score":2,"rt":4221,"stimulus":"[\"img/0764/f64dfa83-333d-494c-87b5-73e942f1766e.jpg\",\"img/0868/1a62b2b2-18f5-466e-b564-5176a57c565e.jpg\"]","trial_type":"similarity","trial_index":108,"time_elapsed":554646,"internal_node_id":"0.0-6.0-102.0"},{"sim_score":5,"rt":4509,"stimulus":"[\"img/0769/47700831-0ca2-4fdd-a498-a3bc5a528f43.jpg\",\"img/0881/0c7068da-d0d9-4103-bda1-74ef7a2b32c3.jpg\"]","trial_type":"similarity","trial_index":109,"time_elapsed":560161,"internal_node_id":"0.0-6.0-103.0"},{"sim_score":2,"rt":3761,"stimulus":"[\"img/0864/6e846d43-94a6-4b37-a268-65eda979f052.jpg\",\"img/0769/50985283-d353-4abc-9abe-14a91d56ebe6.jpg\"]","trial_type":"similarity","trial_index":110,"time_elapsed":564928,"internal_node_id":"0.0-6.0-104.0"},{"sim_score":5,"rt":4960,"stimulus":"[\"img/0866/11a1d141-be5e-443c-98c1-a9d4d9e3dec0.jpg\",\"img/0868/8b0b8473-e2c0-4331-aa56-c3a5c29369da.jpg\"]","trial_type":"similarity","trial_index":111,"time_elapsed":570895,"internal_node_id":"0.0-6.0-105.0"},{"sim_score":2,"rt":4484,"stimulus":"[\"img/0868/15dd6fd7-791e-4b53-b203-195d617521a4.jpg\",\"img/0862/847e5208-38ec-4f36-949c-296cdd7424ee.jpg\"]","trial_type":"similarity","trial_index":112,"time_elapsed":576382,"internal_node_id":"0.0-6.0-106.0"},{"sim_score":2,"rt":3540,"stimulus":"[\"img/0766/af3be95e-e52e-4fae-899b-0ff02ec340aa.jpg\",\"img/0898/08c72dac-f8ad-407a-9ce6-8c9a5d679c3a.jpg\"]","trial_type":"similarity","trial_index":113,"time_elapsed":580926,"internal_node_id":"0.0-6.0-107.0"},{"sim_score":2,"rt":4012,"stimulus":"[\"img/0898/40f99fb2-64d2-4e72-8a7f-a1cf60741e69.jpg\",\"img/0864/a248adb3-c70b-4652-b7a3-776d2a1e904b.jpg\"]","trial_type":"similarity","trial_index":114,"time_elapsed":585942,"internal_node_id":"0.0-6.0-108.0"},{"sim_score":1,"rt":3924,"stimulus":"[\"img/0868/4e626425-63c8-484a-8a1d-e66ee4e0bef8.jpg\",\"img/0902/b56db912-c3c0-4fc2-b325-d640acd7cb58.jpg\"]","trial_type":"similarity","trial_index":115,"time_elapsed":590871,"internal_node_id":"0.0-6.0-109.0"},{"sim_score":3,"rt":4161,"stimulus":"[\"img/0904/696ebb60-8891-417a-91fd-c53218907a95.jpg\",\"img/0764/958b8576-3a3b-4acc-96dc-06b74de69f37.jpg\"]","trial_type":"similarity","trial_index":116,"time_elapsed":596039,"internal_node_id":"0.0-6.0-110.0"},{"sim_score":2,"rt":3860,"stimulus":"[\"img/0894/7f2f31fd-6618-41c6-b65a-0fd8b2851bc9.jpg\",\"img/0875/99698b4d-b4a1-44bc-8c83-8ea755bbbf61.jpg\"]","trial_type":"similarity","trial_index":117,"time_elapsed":600902,"internal_node_id":"0.0-6.0-111.0"},{"sim_score":2,"rt":4097,"stimulus":"[\"img/0868/d98ca254-b195-477f-b57e-5760a2717db8.jpg\",\"img/0874/ca76a855-4e77-4f2f-872a-0a718153e7ed.jpg\"]","trial_type":"similarity","trial_index":118,"time_elapsed":606006,"internal_node_id":"0.0-6.0-112.0"},{"sim_score":3,"rt":3925,"stimulus":"[\"img/0904/e9423a8c-f946-43ad-ab7b-931acef870e2.jpg\",\"img/0898/a114b375-cb89-44ba-9498-74213f1ecdee.jpg\"]","trial_type":"similarity","trial_index":119,"time_elapsed":612325,"internal_node_id":"0.0-6.0-113.0"},{"sim_score":1,"rt":3886,"stimulus":"[\"img/0860/71e1aad0-2cdf-43bb-94a4-a8c016997c30.jpg\",\"img/0766/214866ee-423d-4629-9bb9-41572bdc7dac.jpg\"]","trial_type":"similarity","trial_index":120,"time_elapsed":617216,"internal_node_id":"0.0-6.0-114.0"},{"sim_score":2,"rt":3227,"stimulus":"[\"img/0894/7fb082e0-ce79-485c-9109-04367fb32275.jpg\",\"img/0874/2c9464dd-8a23-4baa-ac94-1ba3af5c15cc.jpg\"]","trial_type":"similarity","trial_index":121,"time_elapsed":621446,"internal_node_id":"0.0-6.0-115.0"},{"sim_score":3,"rt":2685,"stimulus":"[\"img/0899/06b0fc99-0581-461a-9913-d1a5a941ac61.jpg\",\"img/0903/d987e220-f3e6-4b6d-a270-fe6757041f6d.jpg\"]","trial_type":"similarity","trial_index":122,"time_elapsed":625134,"internal_node_id":"0.0-6.0-116.0"},{"sim_score":3,"rt":5061,"stimulus":"[\"img/0881/20af39f5-373d-4a55-a437-2dc4c0382c46.jpg\",\"img/0764/5d83b9db-3b2b-4dc8-9bd1-2b515b19c858.jpg\"]","trial_type":"similarity","trial_index":123,"time_elapsed":631198,"internal_node_id":"0.0-6.0-117.0"},{"sim_score":5,"rt":4060,"stimulus":"[\"img/0903/bf0a7d60-eca5-44b0-bafd-baf21db9904b.jpg\",\"img/0769/3c1efec9-f8fd-487d-8955-4be88e48c832.jpg\"]","trial_type":"similarity","trial_index":124,"time_elapsed":636264,"internal_node_id":"0.0-6.0-118.0"},{"sim_score":4,"rt":4291,"stimulus":"[\"img/0901/04a53755-6da5-44d4-a7a6-48a6bc0a2280.jpg\",\"img/0904/b5855d6a-7ef9-46ca-9215-6e9fa046e543.jpg\"]","trial_type":"similarity","trial_index":125,"time_elapsed":641558,"internal_node_id":"0.0-6.0-119.0"},{"sim_score":3,"rt":4733,"stimulus":"[\"img/0860/18dfed73-e36b-4487-a8bd-0b8cff8e3668.jpg\",\"img/0881/4bd34581-94d8-4e88-8c89-5cef864ca3be.jpg\"]","trial_type":"similarity","trial_index":126,"time_elapsed":647294,"internal_node_id":"0.0-6.0-120.0"},{"sim_score":5,"rt":4100,"stimulus":"[\"img/0758/67c0be2f-9e91-48b3-8219-70ac0a1802fa.jpg\",\"img/0874/29830da7-be5f-44e5-b141-652a0ccf7269.jpg\"]","trial_type":"similarity","trial_index":127,"time_elapsed":652398,"internal_node_id":"0.0-6.0-121.0"},{"sim_score":3,"rt":4660,"stimulus":"[\"img/0901/a0d65c84-3f20-476a-92d1-0c01e8019cf4.jpg\",\"img/0769/04347740-f8f6-48bb-887a-f68babd0a0d4.jpg\"]","trial_type":"similarity","trial_index":128,"time_elapsed":658062,"internal_node_id":"0.0-6.0-122.0"},{"sim_score":4,"rt":4805,"stimulus":"[\"img/0902/2a7ac123-414a-476a-9a96-4757b924baef.jpg\",\"img/0904/5aec2708-cf14-4a58-aa30-9a8a61c1be0e.jpg\"]","trial_type":"similarity","trial_index":129,"time_elapsed":663870,"internal_node_id":"0.0-6.0-123.0"},{"sim_score":3,"rt":4045,"stimulus":"[\"img/0899/51a7a498-98c7-42d7-bca8-bc2d8f0b5831.jpg\",\"img/0864/300bb811-8b3c-4c42-8653-6097c3725197.jpg\"]","trial_type":"similarity","trial_index":130,"time_elapsed":668918,"internal_node_id":"0.0-6.0-124.0"},{"sim_score":1,"rt":3684,"stimulus":"[\"img/0766/2e1cf445-9aef-40e7-92f4-5facf48b64c5.jpg\",\"img/0868/d6d1f30d-4323-435a-b194-7892521bc57e.jpg\"]","trial_type":"similarity","trial_index":131,"time_elapsed":673606,"internal_node_id":"0.0-6.0-125.0"},{"sim_score":2,"rt":4284,"stimulus":"[\"img/0764/5d6fa3ce-9083-410c-bbdb-336a49b94cfc.jpg\",\"img/0864/0f537697-a314-47c3-a8cc-8df23b7e536c.jpg\"]","trial_type":"similarity","trial_index":132,"time_elapsed":678894,"internal_node_id":"0.0-6.0-126.0"},{"sim_score":2,"rt":3733,"stimulus":"[\"img/0899/5b56dd3e-3f49-47cc-af84-16da6457753b.jpg\",\"img/0866/8efcaa46-83ab-4dee-a35f-850402aa21ae.jpg\"]","trial_type":"similarity","trial_index":133,"time_elapsed":683630,"internal_node_id":"0.0-6.0-127.0"},{"sim_score":1,"rt":2804,"stimulus":"[\"img/0901/2a953e50-d237-405c-a38d-5ed21494c968.jpg\",\"img/0881/db77fe00-aeb0-4d1d-aa66-f3a96fd077e4.jpg\"]","trial_type":"similarity","trial_index":134,"time_elapsed":687438,"internal_node_id":"0.0-6.0-128.0"},{"sim_score":6,"rt":3924,"stimulus":"[\"img/0898/c3cecf20-f7fd-45fa-97d0-dc0a63e8d6c0.jpg\",\"img/0903/0e5c2854-42aa-48c0-9c3d-6e1ad2a400bd.jpg\"]","trial_type":"similarity","trial_index":135,"time_elapsed":692366,"internal_node_id":"0.0-6.0-129.0"},{"sim_score":2,"rt":3844,"stimulus":"[\"img/0894/38cf335f-f76f-4349-8d65-e20cd6859565.jpg\",\"img/0867/12264664-1860-46df-8c21-162b9817cdda.jpg\"]","trial_type":"similarity","trial_index":136,"time_elapsed":697214,"internal_node_id":"0.0-6.0-130.0"},{"sim_score":2,"rt":4989,"stimulus":"[\"img/0874/adf9a8f1-c40b-402b-b95b-1e85a54a7b62.jpg\",\"img/0903/150cf64c-0bd2-4674-abbb-a1387cf1f3e9.jpg\"]","trial_type":"similarity","trial_index":137,"time_elapsed":703206,"internal_node_id":"0.0-6.0-131.0"},{"sim_score":5,"rt":5492,"stimulus":"[\"img/0899/1b3457ea-87d4-4946-a01c-aac1863ed46c.jpg\",\"img/0898/0c7dde4f-efce-4b7a-9387-6921635b7890.jpg\"]","trial_type":"similarity","trial_index":138,"time_elapsed":709702,"internal_node_id":"0.0-6.0-132.0"},{"sim_score":1,"rt":4869,"stimulus":"[\"img/0867/f8488a47-94ee-4166-952c-44e16cf172f6.jpg\",\"img/0764/fb7d4a20-a475-465e-a74f-aa39a0d33d16.jpg\"]","trial_type":"similarity","trial_index":139,"time_elapsed":715574,"internal_node_id":"0.0-6.0-133.0"},{"sim_score":4,"rt":5548,"stimulus":"[\"img/0866/4a87911a-d5be-4d4e-ab8e-3d1f581bf507.jpg\",\"img/0769/8c7cf147-1780-4d5c-8ddf-5ea23ff03ac9.jpg\"]","trial_type":"similarity","trial_index":140,"time_elapsed":722126,"internal_node_id":"0.0-6.0-134.0"},{"sim_score":4,"rt":4724,"stimulus":"[\"img/0860/c47fdead-eb02-4989-b078-26f4852f44fe.jpg\",\"img/0898/26c41340-15bd-4ead-8fe4-c0d0ddca09c2.jpg\"]","trial_type":"similarity","trial_index":141,"time_elapsed":727854,"internal_node_id":"0.0-6.0-135.0"},{"sim_score":2,"rt":3141,"stimulus":"[\"img/0881/344de456-b358-4887-bd0e-e4c3278af887.jpg\",\"img/0903/71dbc325-b588-4297-a5cf-7f268a722ad9.jpg\"]","trial_type":"similarity","trial_index":142,"time_elapsed":731998,"internal_node_id":"0.0-6.0-136.0"},{"sim_score":4,"rt":4677,"stimulus":"[\"img/0894/0130a973-d993-41f8-874a-fee23d9ac11f.jpg\",\"img/0766/1865bfc9-2410-4765-a804-3ae4ba2393d0.jpg\"]","trial_type":"similarity","trial_index":143,"time_elapsed":737678,"internal_node_id":"0.0-6.0-137.0"},{"sim_score":2,"rt":3532,"stimulus":"[\"img/0860/8fdba999-b946-4c7d-9891-336018b563ef.jpg\",\"img/0764/f990b2e8-ecee-481e-be7c-0239fce350e2.jpg\"]","trial_type":"similarity","trial_index":144,"time_elapsed":742214,"internal_node_id":"0.0-6.0-138.0"},{"sim_score":2,"rt":4005,"stimulus":"[\"img/0769/1d8734c4-77ab-4165-9e71-5cfe672ff01c.jpg\",\"img/0902/d49743d6-67ae-4c2e-a939-8fd895a0f18e.jpg\"]","trial_type":"similarity","trial_index":145,"time_elapsed":747222,"internal_node_id":"0.0-6.0-139.0"},{"sim_score":6,"rt":3293,"stimulus":"[\"img/0904/5cceabc9-de1d-4c67-989b-c28a4ef77e79.jpg\",\"img/0903/2a9c8033-3e70-47fa-816d-97ee1813a3a3.jpg\"]","trial_type":"similarity","trial_index":146,"time_elapsed":751519,"internal_node_id":"0.0-6.0-140.0"},{"sim_score":5,"rt":4109,"stimulus":"[\"img/0764/17b088f8-3053-4140-b544-d15654cc79ef.jpg\",\"img/0769/c34b7763-8ff2-46d5-9e92-f1d8f3bedbd8.jpg\"]","trial_type":"similarity","trial_index":147,"time_elapsed":756631,"internal_node_id":"0.0-6.0-141.0"},{"sim_score":2,"rt":4332,"stimulus":"[\"img/0902/0eb85fbc-27c8-41df-9d0b-a5f9efd417d1.jpg\",\"img/0881/445edb15-bd7f-4af3-8bd5-c6ad9677bb31.jpg\"]","trial_type":"similarity","trial_index":148,"time_elapsed":761966,"internal_node_id":"0.0-6.0-142.0"},{"sim_score":2,"rt":4501,"stimulus":"[\"img/0866/a04d37f0-99dd-478a-b6c6-58b215138f84.jpg\",\"img/0864/c3b63e8f-ea39-4d70-a1f2-b3fe4be8eb75.jpg\"]","trial_type":"similarity","trial_index":149,"time_elapsed":767470,"internal_node_id":"0.0-6.0-143.0"},{"sim_score":6,"rt":3653,"stimulus":"[\"img/0902/40d0b6ec-3907-4573-b227-e7d8e9cad1c3.jpg\",\"img/0898/f3a3f225-1248-4ac7-b93b-f0ff28485bf3.jpg\"]","trial_type":"similarity","trial_index":150,"time_elapsed":772126,"internal_node_id":"0.0-6.0-144.0"},{"sim_score":3,"rt":5228,"stimulus":"[\"img/0862/eefa5588-9efd-4591-aa5f-a2e17c7d7bcc.jpg\",\"img/0864/6f631579-acf1-415c-a42c-1207f62a8d99.jpg\"]","trial_type":"similarity","trial_index":151,"time_elapsed":778358,"internal_node_id":"0.0-6.0-145.0"},{"sim_score":2,"rt":4821,"stimulus":"[\"img/0875/5a716432-c6ca-4b1c-955a-2b8ac25198ee.jpg\",\"img/0898/993d8f2d-bef7-4251-a193-0f93a32b7763.jpg\"]","trial_type":"similarity","trial_index":152,"time_elapsed":784182,"internal_node_id":"0.0-6.0-146.0"},{"sim_score":6,"rt":4133,"stimulus":"[\"img/0874/767f289c-9814-4496-803f-745cc8913d1f.jpg\",\"img/0881/7e822106-76f7-4b10-a805-14dc68b2cfaf.jpg\"]","trial_type":"similarity","trial_index":153,"time_elapsed":789318,"internal_node_id":"0.0-6.0-147.0"},{"sim_score":2,"rt":3980,"stimulus":"[\"img/0758/6e95579b-5166-487c-b8cb-e417c6a218e3.jpg\",\"img/0894/4739e06d-c31e-4bf1-bf91-c97fa9afb456.jpg\"]","trial_type":"similarity","trial_index":154,"time_elapsed":794302,"internal_node_id":"0.0-6.0-148.0"},{"sim_score":2,"rt":3013,"stimulus":"[\"img/0904/4e58005d-a2ec-4aaa-b199-445343561396.jpg\",\"img/0864/5f74a653-3bdc-4308-8cca-ac667dc22e1f.jpg\"]","trial_type":"similarity","trial_index":155,"time_elapsed":798318,"internal_node_id":"0.0-6.0-149.0"},{"sim_score":7,"rt":4709,"stimulus":"[\"img/0769/4680bcc3-8fbc-4643-8f9a-12aa0e780b64.jpg\",\"img/0899/93494f3b-d539-4075-b027-d82e344563da.jpg\"]","trial_type":"similarity","trial_index":156,"time_elapsed":804030,"internal_node_id":"0.0-6.0-150.0"},{"sim_score":4,"rt":5109,"stimulus":"[\"img/0764/952d7adc-dc40-4aee-acce-18c2a1d02ea1.jpg\",\"img/0903/14f179a2-8786-48a2-8377-88d1d404341b.jpg\"]","trial_type":"similarity","trial_index":157,"time_elapsed":811877,"internal_node_id":"0.0-6.0-151.0"},{"sim_score":1,"rt":4453,"stimulus":"[\"img/0903/6138142e-c84e-45fc-9487-c974f3d4968a.jpg\",\"img/0864/49150900-7f25-4ce8-8d10-9b47a71d1997.jpg\"]","trial_type":"similarity","trial_index":158,"time_elapsed":817334,"internal_node_id":"0.0-6.0-152.0"},{"sim_score":2,"rt":4205,"stimulus":"[\"img/0894/b422d5c6-3c5a-49ae-a53e-7e88ac993f49.jpg\",\"img/0881/d1982897-8d8d-4704-a940-1ee5d07a1f15.jpg\"]","trial_type":"similarity","trial_index":159,"time_elapsed":822542,"internal_node_id":"0.0-6.0-153.0"},{"sim_score":5,"rt":4276,"stimulus":"[\"img/0875/90da8d75-108a-44ad-b999-e21fee3860d3.jpg\",\"img/0867/bf560d4f-dee3-4f11-a385-705cc1aa5f3c.jpg\"]","trial_type":"similarity","trial_index":160,"time_elapsed":827822,"internal_node_id":"0.0-6.0-154.0"},{"sim_score":2,"rt":4652,"stimulus":"[\"img/0867/a498eef3-9fa4-4ab2-9778-4ae82ac40dc5.jpg\",\"img/0758/7ee8bc8f-c40b-4b3a-84ec-3e83580622d4.jpg\"]","trial_type":"similarity","trial_index":161,"time_elapsed":833478,"internal_node_id":"0.0-6.0-155.0"},{"sim_score":3,"rt":5423,"stimulus":"[\"img/0868/3a62db2d-97e9-44a3-b8e3-a48c6f0e423b.jpg\",\"img/0901/50e1d53e-a49f-4806-8610-be6dec5a2475.jpg\"]","trial_type":"similarity","trial_index":162,"time_elapsed":839904,"internal_node_id":"0.0-6.0-156.0"},{"sim_score":4,"rt":4842,"stimulus":"[\"img/0769/4a1d0b52-3fe8-40fb-bb1c-c814fe49a68c.jpg\",\"img/0894/5ff3c4f6-52e2-4075-8679-be0312e59703.jpg\"]","trial_type":"similarity","trial_index":163,"time_elapsed":845750,"internal_node_id":"0.0-6.0-157.0"},{"sim_score":2,"rt":3516,"stimulus":"[\"img/0904/9d30eff1-46ef-4453-b11e-124ef8145c00.jpg\",\"img/0758/335851a0-a55b-46d8-ab05-8463eda48349.jpg\"]","trial_type":"similarity","trial_index":164,"time_elapsed":850271,"internal_node_id":"0.0-6.0-158.0"},{"sim_score":1,"rt":4732,"stimulus":"[\"img/0874/8cdb1c07-1c32-46d2-981c-3636560fa6e5.jpg\",\"img/0904/2fd488e9-960f-41f7-8a44-33375f7d5051.jpg\"]","trial_type":"similarity","trial_index":165,"time_elapsed":856006,"internal_node_id":"0.0-6.0-159.0"},{"sim_score":2,"rt":3629,"stimulus":"[\"img/0864/65210d57-1153-4657-886a-32e758f49b4a.jpg\",\"img/0901/c6df1a21-44ed-47c2-960e-7c52220e329e.jpg\"]","trial_type":"similarity","trial_index":166,"time_elapsed":860638,"internal_node_id":"0.0-6.0-160.0"},{"sim_score":2,"rt":4500,"stimulus":"[\"img/0898/82231d4c-218b-4d0a-b50d-35a49b524e97.jpg\",\"img/0866/07c9c966-3c8d-40e7-8128-92b2acbaed5d.jpg\"]","trial_type":"similarity","trial_index":167,"time_elapsed":866142,"internal_node_id":"0.0-6.0-161.0"},{"sim_score":2,"rt":5172,"stimulus":"[\"img/0766/69e486f7-dbef-456b-9d48-53d814248a28.jpg\",\"img/0903/e2e55a9e-0397-4dc0-8adf-4a54cfefe1fe.jpg\"]","trial_type":"similarity","trial_index":168,"time_elapsed":872318,"internal_node_id":"0.0-6.0-162.0"},{"sim_score":1,"rt":3431,"stimulus":"[\"img/0860/e8b8c51e-1834-4875-8b61-6c5bc9b178bd.jpg\",\"img/0899/f95cbdb4-f804-4f5d-ad76-373ad343e658.jpg\"]","trial_type":"similarity","trial_index":169,"time_elapsed":876753,"internal_node_id":"0.0-6.0-163.0"},{"sim_score":1,"rt":3098,"stimulus":"[\"img/0766/d512b99c-a2dc-40d7-8e86-827323a0cbcf.jpg\",\"img/0862/ba89835a-408c-480b-8594-ed4ffa97eb5c.jpg\"]","trial_type":"similarity","trial_index":170,"time_elapsed":880855,"internal_node_id":"0.0-6.0-164.0"},{"sim_score":3,"rt":4812,"stimulus":"[\"img/0898/224c1572-56b9-4f16-a9e4-6f3bc9c114bd.jpg\",\"img/0894/a3d4170b-b7d8-40e3-955f-87e76ed745fc.jpg\"]","trial_type":"similarity","trial_index":171,"time_elapsed":886670,"internal_node_id":"0.0-6.0-165.0"},{"sim_score":1,"rt":3213,"stimulus":"[\"img/0867/f8159067-056c-41f1-a136-c529fe5e970a.jpg\",\"img/0766/00891401-e4c9-4ce1-bc19-f70740d174bc.jpg\"]","trial_type":"similarity","trial_index":172,"time_elapsed":890886,"internal_node_id":"0.0-6.0-166.0"},{"sim_score":5,"rt":3773,"stimulus":"[\"img/0904/6291eb43-c10c-4810-a36a-101d09868b04.jpg\",\"img/0862/e697469a-ec19-4414-b972-7b9f3564785b.jpg\"]","trial_type":"similarity","trial_index":173,"time_elapsed":895666,"internal_node_id":"0.0-6.0-167.0"},{"sim_score":3,"rt":5353,"stimulus":"[\"img/0866/6f2a90d7-14f1-4f1b-bd64-fc0af6b9fe44.jpg\",\"img/0874/c0378dac-9370-439a-8b79-db27c96fb390.jpg\"]","trial_type":"similarity","trial_index":174,"time_elapsed":902022,"internal_node_id":"0.0-6.0-168.0"},{"sim_score":2,"rt":2829,"stimulus":"[\"img/0903/47e39de8-6959-469f-8be9-6999a6db207c.jpg\",\"img/0868/77091fc7-a590-4ebb-b915-fdb2483a2399.jpg\"]","trial_type":"similarity","trial_index":175,"time_elapsed":905855,"internal_node_id":"0.0-6.0-169.0"},{"sim_score":6,"rt":4349,"stimulus":"[\"img/0769/965c3c44-d9e5-47c5-b61a-2bbdf4215d9a.jpg\",\"img/0904/4d7d70a3-9477-4921-bda0-f9531d0a5c5b.jpg\"]","trial_type":"similarity","trial_index":176,"time_elapsed":911206,"internal_node_id":"0.0-6.0-170.0"},{"sim_score":1,"rt":2796,"stimulus":"[\"img/0875/03c3c331-738b-4446-af92-3d7386b08c2e.jpg\",\"img/0764/b328441c-f81c-486c-9eae-b947c70ba7cd.jpg\"]","trial_type":"similarity","trial_index":177,"time_elapsed":915006,"internal_node_id":"0.0-6.0-171.0"},{"sim_score":3,"rt":4108,"stimulus":"[\"img/0860/b03b963d-949b-4d8d-b19c-4950c89eeca2.jpg\",\"img/0903/5995f4a8-fa82-46f8-8760-fd7800a5ca34.jpg\"]","trial_type":"similarity","trial_index":178,"time_elapsed":920118,"internal_node_id":"0.0-6.0-172.0"},{"sim_score":3,"rt":2933,"stimulus":"[\"img/0864/e8bd659f-aa43-4748-877e-3118e8b4e189.jpg\",\"img/0867/98d8cd96-1476-4fe0-a3a3-04f875500a1b.jpg\"]","trial_type":"similarity","trial_index":179,"time_elapsed":924054,"internal_node_id":"0.0-6.0-173.0"},{"sim_score":2,"rt":4085,"stimulus":"[\"img/0868/e0aff734-077f-40dd-9781-74821abd3621.jpg\",\"img/0864/87c467d3-abca-482f-ad80-3766c21b1bb3.jpg\"]","trial_type":"similarity","trial_index":180,"time_elapsed":929142,"internal_node_id":"0.0-6.0-174.0"},{"sim_score":5,"rt":4692,"stimulus":"[\"img/0898/68476bbb-34a1-42d9-8bc1-deab783d4489.jpg\",\"img/0769/48a1144d-fbda-4809-991b-fc8424a32ee4.jpg\"]","trial_type":"similarity","trial_index":181,"time_elapsed":934838,"internal_node_id":"0.0-6.0-175.0"},{"sim_score":6,"rt":4291,"stimulus":"[\"img/0766/db750ba0-ce04-46e1-b601-e1b80212bad2.jpg\",\"img/0764/d7f3ac54-318a-4dac-a06b-62bed34d01a4.jpg\"]","trial_type":"similarity","trial_index":182,"time_elapsed":940134,"internal_node_id":"0.0-6.0-176.0"},{"sim_score":2,"rt":3661,"stimulus":"[\"img/0764/cffc80b0-4a90-4acb-a530-6f480f3ca303.jpg\",\"img/0866/f756f7d1-9ad8-4a34-9ef6-7a443d705bfe.jpg\"]","trial_type":"similarity","trial_index":183,"time_elapsed":944798,"internal_node_id":"0.0-6.0-177.0"},{"sim_score":1,"rt":2892,"stimulus":"[\"img/0902/24d10fe7-314f-4d5a-8c7b-b43121bba0a4.jpg\",\"img/0875/3ecb367d-e9eb-4826-8aaa-7aa72fb98019.jpg\"]","trial_type":"similarity","trial_index":184,"time_elapsed":948694,"internal_node_id":"0.0-6.0-178.0"},{"sim_score":2,"rt":3332,"stimulus":"[\"img/0881/f4e3e181-b3c9-4af2-a5a4-fc135ab70d2e.jpg\",\"img/0904/a8c3c7d2-9bcf-4347-9e03-8203adfc1fc5.jpg\"]","trial_type":"similarity","trial_index":185,"time_elapsed":953030,"internal_node_id":"0.0-6.0-179.0"},{"sim_score":2,"rt":4645,"stimulus":"[\"img/0874/3ce41e7c-40c8-4d58-a546-171114521796.jpg\",\"img/0860/4a022222-056d-461c-ab02-39fac9647552.jpg\"]","trial_type":"similarity","trial_index":186,"time_elapsed":958678,"internal_node_id":"0.0-6.0-180.0"},{"sim_score":3,"rt":3429,"stimulus":"[\"img/0769/9ea27d61-3d55-418c-8d14-82e90f656f01.jpg\",\"img/0874/85eb9b8a-c4c6-4e5a-b8e7-363a87a82054.jpg\"]","trial_type":"similarity","trial_index":187,"time_elapsed":963110,"internal_node_id":"0.0-6.0-181.0"},{"sim_score":5,"rt":3573,"stimulus":"[\"img/0904/9b3568cc-3cf7-42be-9df3-fdafde7a58b8.jpg\",\"img/0766/d14acac4-7db1-4b07-8f8f-302437326fc0.jpg\"]","trial_type":"similarity","trial_index":188,"time_elapsed":967686,"internal_node_id":"0.0-6.0-182.0"},{"sim_score":5,"rt":4404,"stimulus":"[\"img/0902/962f645e-9b55-4628-9b50-c703422bfe1a.jpg\",\"img/0764/438c0217-036f-43c9-9b87-f43144e46011.jpg\"]","trial_type":"similarity","trial_index":189,"time_elapsed":973096,"internal_node_id":"0.0-6.0-183.0"},{"sim_score":2,"rt":3827,"stimulus":"[\"img/0769/da36e3f7-2337-434f-ab57-11822dd7eed7.jpg\",\"img/0875/5a1e5100-0d94-4fec-bbe9-ca9894d2cf8e.jpg\"]","trial_type":"similarity","trial_index":190,"time_elapsed":977926,"internal_node_id":"0.0-6.0-184.0"},{"sim_score":1,"rt":2933,"stimulus":"[\"img/0867/db7e032f-162b-46f5-ae67-2b29679adee4.jpg\",\"img/0903/b0a3c45f-467e-412f-a183-c9c1827f2e63.jpg\"]","trial_type":"similarity","trial_index":191,"time_elapsed":981862,"internal_node_id":"0.0-6.0-185.0"},{"sim_score":4,"rt":4028,"stimulus":"[\"img/0862/92fcd8a4-8193-4a6a-ae09-dd4a6338b0df.jpg\",\"img/0769/ecda2fb3-556b-43ba-8a67-e87dd75ff2b4.jpg\"]","trial_type":"similarity","trial_index":192,"time_elapsed":986895,"internal_node_id":"0.0-6.0-186.0"},{"sim_score":1,"rt":3124,"stimulus":"[\"img/0766/e8052e17-9dae-4139-802b-6e590cb2d526.jpg\",\"img/0866/a15b02be-11bb-43e3-b0e0-ecc3bd7dfc49.jpg\"]","trial_type":"similarity","trial_index":193,"time_elapsed":991022,"internal_node_id":"0.0-6.0-187.0"},{"sim_score":2,"rt":3029,"stimulus":"[\"img/0769/35364db7-e0d5-40ef-93dc-faf9dfb95136.jpg\",\"img/0860/524b2e98-5767-4d53-942c-ebae6925659b.jpg\"]","trial_type":"similarity","trial_index":194,"time_elapsed":995054,"internal_node_id":"0.0-6.0-188.0"},{"sim_score":2,"rt":3621,"stimulus":"[\"img/0881/4da99fdd-1f40-4bbb-8e21-8833eef313f5.jpg\",\"img/0868/c8ac40c7-6904-4e13-8d61-c75d3052dc4e.jpg\"]","trial_type":"similarity","trial_index":195,"time_elapsed":1001245,"internal_node_id":"0.0-6.0-189.0"},{"view_history":"[{\"page_index\":0,\"viewing_time\":2223}]","rt":2224,"trial_type":"instructions","trial_index":196,"time_elapsed":1004471,"internal_node_id":"0.0-7.0"},{"rt":12445,"responses":"{\"Q0\":\"Orange-crowned Warbler\"}","answer":["Nashville Warbler"],"trial_type":"image-multi-choice","trial_index":197,"time_elapsed":1017946,"internal_node_id":"0.0-8.0-0.0"},{"rt":3321,"responses":"{\"Q0\":\"Black-and-white Warbler\"}","answer":["Black-and-white Warbler"],"trial_type":"image-multi-choice","trial_index":198,"time_elapsed":1022308,"internal_node_id":"0.0-8.0-1.0"},{"rt":14657,"responses":"{\"Q0\":\"Blackburnian Warbler\"}","answer":["Townsend's Warbler"],"trial_type":"image-multi-choice","trial_index":199,"time_elapsed":1037994,"internal_node_id":"0.0-8.0-2.0"},{"rt":7605,"responses":"{\"Q0\":\"Lark Sparrow\"}","answer":["Lark Sparrow"],"trial_type":"image-multi-choice","trial_index":200,"time_elapsed":1046627,"internal_node_id":"0.0-8.0-3.0"},{"rt":4510,"responses":"{\"Q0\":\"Yellow Warbler\"}","answer":["Yellow Warbler"],"trial_type":"image-multi-choice","trial_index":201,"time_elapsed":1052170,"internal_node_id":"0.0-8.0-4.0"},{"rt":31909,"responses":"{\"Q0\":\"Tennessee Warbler\"}","answer":["Orange-crowned Warbler"],"trial_type":"image-multi-choice","trial_index":202,"time_elapsed":1085112,"internal_node_id":"0.0-8.0-5.0"},{"rt":4965,"responses":"{\"Q0\":\"White-throated Sparrow\"}","answer":["White-throated Sparrow"],"trial_type":"image-multi-choice","trial_index":203,"time_elapsed":1091124,"internal_node_id":"0.0-8.0-6.0"},{"rt":5014,"responses":"{\"Q0\":\"Fox Sparrow\"}","answer":["Fox Sparrow"],"trial_type":"image-multi-choice","trial_index":204,"time_elapsed":1097162,"internal_node_id":"0.0-8.0-7.0"},{"rt":16252,"responses":"{\"Q0\":\"Swamp Sparrow\"}","answer":["Song Sparrow"],"trial_type":"image-multi-choice","trial_index":205,"time_elapsed":1114451,"internal_node_id":"0.0-8.0-8.0"},{"rt":53215,"responses":"{\"Q0\":\"Townsend's Warbler\"}","answer":["Blackburnian Warbler"],"trial_type":"image-multi-choice","trial_index":206,"time_elapsed":1168703,"internal_node_id":"0.0-8.0-9.0"},{"rt":10402,"responses":"{\"Q0\":\"Vesper Sparrow\"}","answer":["Vesper Sparrow"],"trial_type":"image-multi-choice","trial_index":207,"time_elapsed":1180149,"internal_node_id":"0.0-8.0-10.0"},{"rt":3309,"responses":"{\"Q0\":\"White-crowned Sparrow\"}","answer":["White-crowned Sparrow"],"trial_type":"image-multi-choice","trial_index":208,"time_elapsed":1184490,"internal_node_id":"0.0-8.0-11.0"},{"rt":6332,"responses":"{\"Q0\":\"American Tree Sparrow\"}","answer":["American Tree Sparrow"],"trial_type":"image-multi-choice","trial_index":209,"time_elapsed":1191850,"internal_node_id":"0.0-8.0-12.0"},{"rt":17885,"responses":"{\"Q0\":\"Tennessee Warbler\"}","answer":["Tennessee Warbler"],"trial_type":"image-multi-choice","trial_index":210,"time_elapsed":1210775,"internal_node_id":"0.0-8.0-13.0"},{"rt":10915,"responses":"{\"Q0\":\"Magnolia Warbler\"}","answer":["Magnolia Warbler"],"trial_type":"image-multi-choice","trial_index":211,"time_elapsed":1222738,"internal_node_id":"0.0-8.0-14.0"},{"rt":9904,"responses":"{\"Q0\":\"Northern Waterthrush\"}","answer":["Northern Waterthrush"],"trial_type":"image-multi-choice","trial_index":212,"time_elapsed":1233683,"internal_node_id":"0.0-8.0-15.0"},{"rt":8902,"responses":"{\"Q0\":\"Chipping Sparrow\"}","answer":["Chipping Sparrow"],"trial_type":"image-multi-choice","trial_index":213,"time_elapsed":1243611,"internal_node_id":"0.0-8.0-16.0"},{"rt":10438,"responses":"{\"Q0\":\"Swamp Sparrow\"}","answer":["Swamp Sparrow"],"trial_type":"image-multi-choice","trial_index":214,"time_elapsed":1255082,"internal_node_id":"0.0-8.0-17.0"},{"rt":6500,"responses":"{\"Q0\":\"Lincoln's Sparrow\"}","answer":["Lincoln's Sparrow"],"trial_type":"image-multi-choice","trial_index":215,"time_elapsed":1262651,"internal_node_id":"0.0-8.0-18.0"},{"rt":3828,"responses":"{\"Q0\":\"Ovenbird\"}","answer":["Ovenbird"],"trial_type":"image-multi-choice","trial_index":216,"time_elapsed":1267506,"internal_node_id":"0.0-8.0-19.0"}]