[{"view_history":"[{\"page_index\":0,\"viewing_time\":3581}]","rt":3581,"trial_type":"instructions","trial_index":0,"time_elapsed":3583,"internal_node_id":"0.0-0.0"},{"sim_score":7,"rt":5681,"stimulus":"[\"img/bluejay1.jpg\",\"img/bluejay2.jpg\"]","trial_type":"similarity_demo","trial_index":1,"time_elapsed":10283,"internal_node_id":"0.0-1.0"},{"view_history":"[{\"page_index\":0,\"viewing_time\":1448}]","rt":1448,"trial_type":"instructions","trial_index":2,"time_elapsed":12735,"internal_node_id":"0.0-2.0"},{"sim_score":3,"rt":3488,"stimulus":"[\"img/bluejay1.jpg\",\"img/cardinal1.jpg\"]","trial_type":"similarity_demo","trial_index":3,"time_elapsed":17234,"internal_node_id":"0.0-3.0"},{"view_history":"[{\"page_index\":0,\"viewing_time\":2002}]","rt":2003,"trial_type":"instructions","trial_index":4,"time_elapsed":20248,"internal_node_id":"0.0-4.0"},{"view_history":"[{\"page_index\":0,\"viewing_time\":8595}]","rt":8599,"trial_type":"instructions","trial_index":5,"time_elapsed":29847,"internal_node_id":"0.0-5.0"},{"sim_score":2,"rt":6674,"stimulus":"[\"img/0868/d98ca254-b195-477f-b57e-5760a2717db8.jpg\",\"img/0894/b2d2f66e-e480-46da-a02a-6d0c6b285d78.jpg\"]","trial_type":"similarity","trial_index":6,"time_elapsed":37530,"internal_node_id":"0.0-6.0-0.0"},{"sim_score":3,"rt":5976,"stimulus":"[\"img/0898/81b08535-2020-4c15-9ce4-2f1e460755ae.jpg\",\"img/0758/d41c06bf-ebaf-454b-91c6-1a17f917b659.jpg\"]","trial_type":"similarity","trial_index":7,"time_elapsed":44521,"internal_node_id":"0.0-6.0-1.0"},{"sim_score":5,"rt":5378,"stimulus":"[\"img/0903/b7e3723f-fd03-4f3d-8820-f19496463a34.jpg\",\"img/0894/43216a7f-27bc-4b5a-8841-d122a30da9d9.jpg\"]","trial_type":"similarity","trial_index":8,"time_elapsed":50912,"internal_node_id":"0.0-6.0-2.0"},{"sim_score":5,"rt":6379,"stimulus":"[\"img/0881/609a5e93-38b5-4940-8627-2bf8fad7f802.jpg\",\"img/0766/ba35c0fc-4d5b-490d-959e-c94b279cdd02.jpg\"]","trial_type":"similarity","trial_index":9,"time_elapsed":58301,"internal_node_id":"0.0-6.0-3.0"},{"sim_score":5,"rt":6353,"stimulus":"[\"img/0864/afcba0a3-7e27-4757-b254-e9f05fad27e2.jpg\",\"img/0860/c47fdead-eb02-4989-b078-26f4852f44fe.jpg\"]","trial_type":"similarity","trial_index":10,"time_elapsed":65663,"internal_node_id":"0.0-6.0-4.0"},{"sim_score":3,"rt":6580,"stimulus":"[\"img/0902/6c2c243a-f663-45db-baf5-038d3d58c589.jpg\",\"img/0899/ad8268c5-8199-48d0-ad70-c5b6d6c599ec.jpg\"]","trial_type":"similarity","trial_index":11,"time_elapsed":73259,"internal_node_id":"0.0-6.0-5.0"},{"sim_score":1,"rt":7301,"stimulus":"[\"img/0868/fd307a36-9a3a-47d7-ab7c-f810d0b35040.jpg\",\"img/0769/458d9c77-b844-40b5-bb1b-1e3bbd4da64e.jpg\"]","trial_type":"similarity","trial_index":12,"time_elapsed":81575,"internal_node_id":"0.0-6.0-6.0"},{"sim_score":3,"rt":6539,"stimulus":"[\"img/0764/29072395-f595-4e3c-83d3-ff87010039fa.jpg\",\"img/0901/3db47171-0139-4235-82cd-0b1787b6775f.jpg\"]","trial_type":"similarity","trial_index":13,"time_elapsed":89118,"internal_node_id":"0.0-6.0-7.0"},{"sim_score":1,"rt":5086,"stimulus":"[\"img/0881/1407b85b-a1c6-45b1-9884-3b24203efadb.jpg\",\"img/0866/be24ab58-230e-4db8-9f45-ff04c9aec6bb.jpg\"]","trial_type":"similarity","trial_index":14,"time_elapsed":95208,"internal_node_id":"0.0-6.0-8.0"},{"sim_score":2,"rt":6453,"stimulus":"[\"img/0867/50a1b60e-3a29-44bf-b606-d4bd3746fea9.jpg\",\"img/0899/4408c14d-c168-4a7d-96f6-bc87bfb58f83.jpg\"]","trial_type":"similarity","trial_index":15,"time_elapsed":102671,"internal_node_id":"0.0-6.0-9.0"},{"sim_score":5,"rt":7359,"stimulus":"[\"img/0875/2c361b79-c3d1-4eda-812e-bf03192407bf.jpg\",\"img/0766/79767d11-b612-4e8a-9e4b-a8ac95bb6a54.jpg\"]","trial_type":"similarity","trial_index":16,"time_elapsed":111036,"internal_node_id":"0.0-6.0-10.0"},{"sim_score":5,"rt":5322,"stimulus":"[\"img/0901/7c16dd9c-44ad-4d5b-990c-6a0b9b48b1b1.jpg\",\"img/0875/cff79b3a-a797-4393-9757-6275f999ec04.jpg\"]","trial_type":"similarity","trial_index":17,"time_elapsed":117361,"internal_node_id":"0.0-6.0-11.0"},{"sim_score":5,"rt":6030,"stimulus":"[\"img/0902/fbef27fa-ac83-4936-ab78-9d1c20a383e1.jpg\",\"img/0860/f44ba3fb-03a2-42f0-8509-2c1ded493086.jpg\"]","trial_type":"similarity","trial_index":18,"time_elapsed":124394,"internal_node_id":"0.0-6.0-12.0"},{"sim_score":1,"rt":4461,"stimulus":"[\"img/0874/eba003b4-cdab-4eee-8bc3-f064c7d94165.jpg\",\"img/0867/f26f6b60-f772-4f4c-95a4-addc62cfd692.jpg\"]","trial_type":"similarity","trial_index":19,"time_elapsed":129856,"internal_node_id":"0.0-6.0-13.0"},{"sim_score":4,"rt":6118,"stimulus":"[\"img/0904/56e73f28-7e64-489b-a161-e6b1a063878d.jpg\",\"img/0866/02f5e6b9-52b7-448c-9708-5b460d0c9a23.jpg\"]","trial_type":"similarity","trial_index":20,"time_elapsed":136990,"internal_node_id":"0.0-6.0-14.0"},{"sim_score":7,"rt":5052,"stimulus":"[\"img/0758/821c68d3-5cb0-4eae-8659-30e6263fca39.jpg\",\"img/0902/cf9dee9c-2bdf-4d64-9302-97f1660fe52c.jpg\"]","trial_type":"similarity","trial_index":21,"time_elapsed":143046,"internal_node_id":"0.0-6.0-15.0"},{"sim_score":5,"rt":5264,"stimulus":"[\"img/0867/cc72ed48-7704-422c-86d6-467a1145287a.jpg\",\"img/0898/0af304a2-6a7a-4082-ab7c-4450cd08cc58.jpg\"]","trial_type":"similarity","trial_index":22,"time_elapsed":149317,"internal_node_id":"0.0-6.0-16.0"},{"sim_score":2,"rt":5279,"stimulus":"[\"img/0904/4e58005d-a2ec-4aaa-b199-445343561396.jpg\",\"img/0868/3a62db2d-97e9-44a3-b8e3-a48c6f0e423b.jpg\"]","trial_type":"similarity","trial_index":23,"time_elapsed":155611,"internal_node_id":"0.0-6.0-17.0"},{"sim_score":6,"rt":7333,"stimulus":"[\"img/0766/535849cc-ff5d-4df9-8f31-0ce94a97d571.jpg\",\"img/0864/5f74a653-3bdc-4308-8cca-ac667dc22e1f.jpg\"]","trial_type":"similarity","trial_index":24,"time_elapsed":163946,"internal_node_id":"0.0-6.0-18.0"},{"sim_score":2,"rt":6397,"stimulus":"[\"img/0899/93494f3b-d539-4075-b027-d82e344563da.jpg\",\"img/0766/00891401-e4c9-4ce1-bc19-f70740d174bc.jpg\"]","trial_type":"similarity","trial_index":25,"time_elapsed":171356,"internal_node_id":"0.0-6.0-19.0"},{"sim_score":5,"rt":6655,"stimulus":"[\"img/0764/50f1b062-d608-4bc0-ab25-b872dcf2ed93.jpg\",\"img/0758/d57c2592-a317-4f63-91be-91a3a9afd222.jpg\"]","trial_type":"similarity","trial_index":26,"time_elapsed":179023,"internal_node_id":"0.0-6.0-20.0"},{"sim_score":2,"rt":5400,"stimulus":"[\"img/0901/5b97abf9-f0c8-4fd1-b921-36d574779078.jpg\",\"img/0874/7e4f2150-3b59-4a36-b5da-a4e0ba410531.jpg\"]","trial_type":"similarity","trial_index":27,"time_elapsed":185433,"internal_node_id":"0.0-6.0-21.0"},{"sim_score":4,"rt":4266,"stimulus":"[\"img/0875/fb732ab5-013a-4366-9f65-27811ed157e9.jpg\",\"img/0758/61d64021-9214-4951-bdf8-f871f9827cf9.jpg\"]","trial_type":"similarity","trial_index":28,"time_elapsed":190703,"internal_node_id":"0.0-6.0-22.0"},{"sim_score":4,"rt":4189,"stimulus":"[\"img/0867/2e1a0b58-cdb1-4107-a14e-452530d7b9b0.jpg\",\"img/0881/4bd34581-94d8-4e88-8c89-5cef864ca3be.jpg\"]","trial_type":"similarity","trial_index":29,"time_elapsed":195905,"internal_node_id":"0.0-6.0-23.0"},{"sim_score":3,"rt":6135,"stimulus":"[\"img/0758/7ee8bc8f-c40b-4b3a-84ec-3e83580622d4.jpg\",\"img/0901/168eb52c-c415-43f1-b5c8-e76e1a1ec247.jpg\"]","trial_type":"similarity","trial_index":30,"time_elapsed":203042,"internal_node_id":"0.0-6.0-24.0"},{"sim_score":3,"rt":6106,"stimulus":"[\"img/0868/c8ac40c7-6904-4e13-8d61-c75d3052dc4e.jpg\",\"img/0875/527ced51-8e53-4aab-ab05-86df219104c0.jpg\"]","trial_type":"similarity","trial_index":31,"time_elapsed":210161,"internal_node_id":"0.0-6.0-25.0"},{"sim_score":5,"rt":6239,"stimulus":"[\"img/0903/470acfd5-5571-4a7b-b3a4-28d87e098138.jpg\",\"img/0901/148b747a-7392-437e-8823-33053c5dff3f.jpg\"]","trial_type":"similarity","trial_index":32,"time_elapsed":217405,"internal_node_id":"0.0-6.0-26.0"},{"sim_score":6,"rt":5634,"stimulus":"[\"img/0894/1b3888e6-cf36-4c4a-a039-187aa5cb71ac.jpg\",\"img/0899/8abe6c69-822c-436c-9bf2-96c818b49ba5.jpg\"]","trial_type":"similarity","trial_index":33,"time_elapsed":224042,"internal_node_id":"0.0-6.0-27.0"},{"sim_score":2,"rt":4899,"stimulus":"[\"img/0862/ad593cc7-cabe-4bb7-8e14-8a447a0717b4.jpg\",\"img/0867/a498eef3-9fa4-4ab2-9778-4ae82ac40dc5.jpg\"]","trial_type":"similarity","trial_index":34,"time_elapsed":229944,"internal_node_id":"0.0-6.0-28.0"},{"sim_score":6,"rt":6261,"stimulus":"[\"img/0864/0f537697-a314-47c3-a8cc-8df23b7e536c.jpg\",\"img/0875/a4935837-7d3c-4df6-88c1-36a94d4991ca.jpg\"]","trial_type":"similarity","trial_index":35,"time_elapsed":237207,"internal_node_id":"0.0-6.0-29.0"},{"sim_score":1,"rt":4709,"stimulus":"[\"img/0862/24cdc752-c2e5-4a17-86a6-6f2045d8553b.jpg\",\"img/0874/767f289c-9814-4496-803f-745cc8913d1f.jpg\"]","trial_type":"similarity","trial_index":36,"time_elapsed":242919,"internal_node_id":"0.0-6.0-30.0"},{"sim_score":4,"rt":5354,"stimulus":"[\"img/0903/b0a3c45f-467e-412f-a183-c9c1827f2e63.jpg\",\"img/0758/dd559618-7f09-4a07-8018-d311c4a5ea29.jpg\"]","trial_type":"similarity","trial_index":37,"time_elapsed":249276,"internal_node_id":"0.0-6.0-31.0"},{"sim_score":5,"rt":5781,"stimulus":"[\"img/0866/bf14b5bd-fb55-47db-86b9-4f8aeb9a6dad.jpg\",\"img/0901/c6df1a21-44ed-47c2-960e-7c52220e329e.jpg\"]","trial_type":"similarity","trial_index":38,"time_elapsed":256061,"internal_node_id":"0.0-6.0-32.0"},{"sim_score":3,"rt":5874,"stimulus":"[\"img/0874/3f471690-9788-4d03-90c7-f615aecef149.jpg\",\"img/0899/565ccdd9-0933-4536-a625-3c0e25a713dd.jpg\"]","trial_type":"similarity","trial_index":39,"time_elapsed":262951,"internal_node_id":"0.0-6.0-33.0"},{"sim_score":3,"rt":5506,"stimulus":"[\"img/0903/776b74ee-a8ab-4ab8-a78d-097c0747538d.jpg\",\"img/0902/2a7ac123-414a-476a-9a96-4757b924baef.jpg\"]","trial_type":"similarity","trial_index":40,"time_elapsed":269462,"internal_node_id":"0.0-6.0-34.0"},{"sim_score":1,"rt":4958,"stimulus":"[\"img/0758/d540bee6-b460-4c32-ac57-bc282742d7d4.jpg\",\"img/0866/945c6710-d15b-4a5b-a8f6-69af0850357f.jpg\"]","trial_type":"similarity","trial_index":41,"time_elapsed":275424,"internal_node_id":"0.0-6.0-35.0"},{"sim_score":3,"rt":5271,"stimulus":"[\"img/0875/42910c99-5463-450a-a0f8-d4d060a11455.jpg\",\"img/0903/97a42b34-5462-4665-88c7-83c014b33d24.jpg\"]","trial_type":"similarity","trial_index":42,"time_elapsed":281710,"internal_node_id":"0.0-6.0-36.0"},{"sim_score":5,"rt":5666,"stimulus":"[\"img/0864/b3c4e378-28f0-4699-9338-2a257b4bca04.jpg\",\"img/0902/d49743d6-67ae-4c2e-a939-8fd895a0f18e.jpg\"]","trial_type":"similarity","trial_index":43,"time_elapsed":292765,"internal_node_id":"0.0-6.0-37.0"},{"sim_score":5,"rt":5589,"stimulus":"[\"img/0901/a6c90438-fa7c-4418-ac7c-16c2e772dd98.jpg\",\"img/0867/075e0f95-856b-4cbb-acf5-092393aaf04e.jpg\"]","trial_type":"similarity","trial_index":44,"time_elapsed":299357,"internal_node_id":"0.0-6.0-38.0"},{"sim_score":3,"rt":4601,"stimulus":"[\"img/0862/de9ad88c-b522-430a-8ee9-eb06a9f85df5.jpg\",\"img/0860/e14d67c1-6d92-4f1e-9257-c8607159c19c.jpg\"]","trial_type":"similarity","trial_index":45,"time_elapsed":304961,"internal_node_id":"0.0-6.0-39.0"},{"sim_score":6,"rt":4608,"stimulus":"[\"img/0867/f8488a47-94ee-4166-952c-44e16cf172f6.jpg\",\"img/0868/0d3abd3a-b6c3-4584-a9f7-e2da63748b3d.jpg\"]","trial_type":"similarity","trial_index":46,"time_elapsed":310582,"internal_node_id":"0.0-6.0-40.0"},{"sim_score":2,"rt":5581,"stimulus":"[\"img/0904/9d30eff1-46ef-4453-b11e-124ef8145c00.jpg\",\"img/0899/0433d056-aa30-4f8a-9aa1-abbb951e4edd.jpg\"]","trial_type":"similarity","trial_index":47,"time_elapsed":317175,"internal_node_id":"0.0-6.0-41.0"},{"sim_score":5,"rt":4318,"stimulus":"[\"img/0862/d0ca4c78-fc35-46ed-bdcc-8e124283c53e.jpg\",\"img/0894/76c1201f-8524-4865-85e6-dda8cb4ac986.jpg\"]","trial_type":"similarity","trial_index":48,"time_elapsed":322500,"internal_node_id":"0.0-6.0-42.0"},{"sim_score":3,"rt":4913,"stimulus":"[\"img/0875/90da8d75-108a-44ad-b999-e21fee3860d3.jpg\",\"img/0904/1d10df11-b5c8-4370-9a6b-097a7f965895.jpg\"]","trial_type":"similarity","trial_index":49,"time_elapsed":328425,"internal_node_id":"0.0-6.0-43.0"},{"sim_score":1,"rt":4580,"stimulus":"[\"img/0874/a3bc679d-619f-4db6-bb68-116dcb757d9c.jpg\",\"img/0898/b2732712-71c2-45d8-834f-2b2ed5504910.jpg\"]","trial_type":"similarity","trial_index":50,"time_elapsed":334008,"internal_node_id":"0.0-6.0-44.0"},{"sim_score":2,"rt":4708,"stimulus":"[\"img/0898/26c41340-15bd-4ead-8fe4-c0d0ddca09c2.jpg\",\"img/0868/6a28c3b0-3d76-498a-9fb7-ddafc665eca8.jpg\"]","trial_type":"similarity","trial_index":51,"time_elapsed":339726,"internal_node_id":"0.0-6.0-45.0"},{"sim_score":5,"rt":5381,"stimulus":"[\"img/0901/b123d109-47b4-4f9a-80c9-9bb16da42efa.jpg\",\"img/0860/b03b963d-949b-4d8d-b19c-4950c89eeca2.jpg\"]","trial_type":"similarity","trial_index":52,"time_elapsed":346109,"internal_node_id":"0.0-6.0-46.0"},{"sim_score":5,"rt":5171,"stimulus":"[\"img/0894/661b9f9f-4bde-487a-b1ed-87085fde6948.jpg\",\"img/0902/94198618-7047-4dc9-ad04-85f4ba913067.jpg\"]","trial_type":"similarity","trial_index":53,"time_elapsed":352285,"internal_node_id":"0.0-6.0-47.0"},{"sim_score":6,"rt":5625,"stimulus":"[\"img/0764/fb7d4a20-a475-465e-a74f-aa39a0d33d16.jpg\",\"img/0862/ee3b7bff-4a70-4e84-9bea-4a565e456acb.jpg\"]","trial_type":"similarity","trial_index":54,"time_elapsed":358914,"internal_node_id":"0.0-6.0-48.0"},{"sim_score":1,"rt":6359,"stimulus":"[\"img/0881/54ea8e77-c7e5-4197-b7fa-00b7020849a7.jpg\",\"img/0758/335851a0-a55b-46d8-ab05-8463eda48349.jpg\"]","trial_type":"similarity","trial_index":55,"time_elapsed":366276,"internal_node_id":"0.0-6.0-49.0"},{"sim_score":5,"rt":5914,"stimulus":"[\"img/0766/110832e5-2646-4bd0-a94e-5df8cc314269.jpg\",\"img/0769/3c1203c5-2ce7-466e-957a-8d77b5905460.jpg\"]","trial_type":"similarity","trial_index":56,"time_elapsed":373193,"internal_node_id":"0.0-6.0-50.0"},{"sim_score":5,"rt":6028,"stimulus":"[\"img/0875/8521fd58-3b1e-4dc5-97ae-804edfa6734a.jpg\",\"img/0866/11a1d141-be5e-443c-98c1-a9d4d9e3dec0.jpg\"]","trial_type":"similarity","trial_index":57,"time_elapsed":380223,"internal_node_id":"0.0-6.0-51.0"},{"sim_score":5,"rt":4436,"stimulus":"[\"img/0894/5f15154e-e72e-4ce5-aafb-bce6f0564006.jpg\",\"img/0904/9dd5708f-3f8b-46a9-b49f-2f2fab87b357.jpg\"]","trial_type":"similarity","trial_index":58,"time_elapsed":385673,"internal_node_id":"0.0-6.0-52.0"},{"sim_score":3,"rt":6088,"stimulus":"[\"img/0758/7ffbc76b-1fc1-432c-8f7e-9ec8d1b3f643.jpg\",\"img/0769/14d393ce-e5be-4ca1-86ce-cc27d4b6074c.jpg\"]","trial_type":"similarity","trial_index":59,"time_elapsed":392767,"internal_node_id":"0.0-6.0-53.0"},{"sim_score":2,"rt":6202,"stimulus":"[\"img/0902/82d20e8c-2162-47a6-925b-52906558c046.jpg\",\"img/0874/93d1f8dc-acf2-4f03-bd8d-8ec35df276ed.jpg\"]","trial_type":"similarity","trial_index":60,"time_elapsed":399987,"internal_node_id":"0.0-6.0-54.0"},{"sim_score":5,"rt":4090,"stimulus":"[\"img/0903/6b5dcc60-3ad3-4962-93e5-e6cf768477af.jpg\",\"img/0862/e8cc3bdf-cc43-4565-bccf-492626c70953.jpg\"]","trial_type":"similarity","trial_index":61,"time_elapsed":405094,"internal_node_id":"0.0-6.0-55.0"},{"sim_score":7,"rt":5051,"stimulus":"[\"img/0866/d493a2c8-66eb-44b4-be02-2f327b700b7c.jpg\",\"img/0894/7dd6ff43-f8fc-408a-8a41-a2b261871820.jpg\"]","trial_type":"similarity","trial_index":62,"time_elapsed":411148,"internal_node_id":"0.0-6.0-56.0"},{"sim_score":5,"rt":4502,"stimulus":"[\"img/0867/ac1797e4-8afc-48fe-b252-86d1defb1cca.jpg\",\"img/0904/0d17b811-063e-416e-a23c-3b3cfa4fcce5.jpg\"]","trial_type":"similarity","trial_index":63,"time_elapsed":416659,"internal_node_id":"0.0-6.0-57.0"},{"sim_score":6,"rt":4534,"stimulus":"[\"img/0875/d59ff733-eaff-4ee2-9443-06954dd0bcb6.jpg\",\"img/0881/d1982897-8d8d-4704-a940-1ee5d07a1f15.jpg\"]","trial_type":"similarity","trial_index":64,"time_elapsed":422197,"internal_node_id":"0.0-6.0-58.0"},{"sim_score":2,"rt":7163,"stimulus":"[\"img/0866/d266fece-59b3-46fa-b69f-96f6efb81b59.jpg\",\"img/0860/9593362c-9fe5-4d12-9735-6000a11f6aa5.jpg\"]","trial_type":"similarity","trial_index":65,"time_elapsed":430364,"internal_node_id":"0.0-6.0-59.0"},{"sim_score":2,"rt":4545,"stimulus":"[\"img/0903/b548d383-2a95-4575-8c13-647873751ff1.jpg\",\"img/0866/a04d37f0-99dd-478a-b6c6-58b215138f84.jpg\"]","trial_type":"similarity","trial_index":66,"time_elapsed":435925,"internal_node_id":"0.0-6.0-60.0"},{"sim_score":2,"rt":4124,"stimulus":"[\"img/0860/18dfed73-e36b-4487-a8bd-0b8cff8e3668.jpg\",\"img/0875/99698b4d-b4a1-44bc-8c83-8ea755bbbf61.jpg\"]","trial_type":"similarity","trial_index":67,"time_elapsed":441064,"internal_node_id":"0.0-6.0-61.0"},{"sim_score":4,"rt":6534,"stimulus":"[\"img/0898/661621d4-a14e-487c-8c74-354134a29710.jpg\",\"img/0862/cdaed51d-9e2f-4807-801a-4663c40077e2.jpg\"]","trial_type":"similarity","trial_index":68,"time_elapsed":448615,"internal_node_id":"0.0-6.0-62.0"},{"sim_score":2,"rt":4517,"stimulus":"[\"img/0902/eb3e7e71-8ff1-4b88-a6a7-47e2c1ce1683.jpg\",\"img/0766/d5d38751-8fa5-476f-93e9-86ed2d9045ef.jpg\"]","trial_type":"similarity","trial_index":69,"time_elapsed":454135,"internal_node_id":"0.0-6.0-63.0"},{"sim_score":2,"rt":5100,"stimulus":"[\"img/0758/7fba58df-2a7a-4b76-8a8f-62739f97f271.jpg\",\"img/0864/c3b63e8f-ea39-4d70-a1f2-b3fe4be8eb75.jpg\"]","trial_type":"similarity","trial_index":70,"time_elapsed":460238,"internal_node_id":"0.0-6.0-64.0"},{"sim_score":1,"rt":4540,"stimulus":"[\"img/0894/767a0eec-1064-46b1-b1aa-dfa02b0cd74e.jpg\",\"img/0860/29a21a9f-54bb-4093-ad3f-04823ceaa89f.jpg\"]","trial_type":"similarity","trial_index":71,"time_elapsed":465780,"internal_node_id":"0.0-6.0-65.0"},{"sim_score":1,"rt":4029,"stimulus":"[\"img/0899/57476fed-5962-4272-8fc9-b317bb777b54.jpg\",\"img/0868/4e626425-63c8-484a-8a1d-e66ee4e0bef8.jpg\"]","trial_type":"similarity","trial_index":72,"time_elapsed":470825,"internal_node_id":"0.0-6.0-66.0"},{"sim_score":1,"rt":4119,"stimulus":"[\"img/0866/6f2a90d7-14f1-4f1b-bd64-fc0af6b9fe44.jpg\",\"img/0862/47ed5efd-4ec9-4b74-bb4e-a5f5cf0c3e7d.jpg\"]","trial_type":"similarity","trial_index":73,"time_elapsed":475951,"internal_node_id":"0.0-6.0-67.0"},{"sim_score":2,"rt":4460,"stimulus":"[\"img/0860/61fb959d-d4d9-4de4-9e4e-4fa62b4cfcd5.jpg\",\"img/0758/f61ecdf8-a7d4-4db0-b84d-be46f7cfaffc.jpg\"]","trial_type":"similarity","trial_index":74,"time_elapsed":481415,"internal_node_id":"0.0-6.0-68.0"},{"sim_score":3,"rt":4562,"stimulus":"[\"img/0902/b03129ba-b087-4558-af37-e8399d6217d6.jpg\",\"img/0867/8ba0c5a7-c7e4-42cf-a80a-543763b90779.jpg\"]","trial_type":"similarity","trial_index":75,"time_elapsed":486979,"internal_node_id":"0.0-6.0-69.0"},{"sim_score":6,"rt":6912,"stimulus":"[\"img/0862/064818ee-13d5-4618-bb24-21c7368ea278.jpg\",\"img/0901/f1116359-1ff1-4638-b3b3-700918d36d18.jpg\"]","trial_type":"similarity","trial_index":76,"time_elapsed":494893,"internal_node_id":"0.0-6.0-70.0"},{"sim_score":7,"rt":3922,"stimulus":"[\"img/0867/aa05d113-fc19-4756-a8eb-7878f580bc92.jpg\",\"img/0866/9b38d691-1802-4959-ab3f-fc902f0e4ea6.jpg\"]","trial_type":"similarity","trial_index":77,"time_elapsed":499817,"internal_node_id":"0.0-6.0-71.0"},{"sim_score":4,"rt":6769,"stimulus":"[\"img/0860/8277806e-b684-4474-8f7b-3fca946d7d4f.jpg\",\"img/0904/4b8daf2a-13a9-4ea9-9e0b-b265b6e933e7.jpg\"]","trial_type":"similarity","trial_index":78,"time_elapsed":507597,"internal_node_id":"0.0-6.0-72.0"},{"sim_score":1,"rt":3584,"stimulus":"[\"img/0875/e7e66b13-b573-431e-b85e-288ce04a35a3.jpg\",\"img/0899/25ae6ec8-9565-49fe-a8bb-8d0666f52716.jpg\"]","trial_type":"similarity","trial_index":79,"time_elapsed":512184,"internal_node_id":"0.0-6.0-73.0"},{"sim_score":1,"rt":5015,"stimulus":"[\"img/0899/4f7bc593-8ddd-4da3-a0b9-84da730d3370.jpg\",\"img/0758/20497cbe-ddae-489e-86e2-ab06985ed07c.jpg\"]","trial_type":"similarity","trial_index":80,"time_elapsed":518207,"internal_node_id":"0.0-6.0-74.0"},{"sim_score":5,"rt":4131,"stimulus":"[\"img/0862/847e5208-38ec-4f36-949c-296cdd7424ee.jpg\",\"img/0875/ebf7653f-ff45-4e9f-af58-2c042ab3cd2b.jpg\"]","trial_type":"similarity","trial_index":81,"time_elapsed":525440,"internal_node_id":"0.0-6.0-75.0"},{"sim_score":5,"rt":4353,"stimulus":"[\"img/0901/f469cb1d-6d81-4a45-bab5-cd0b650c2b4f.jpg\",\"img/0894/7fb082e0-ce79-485c-9109-04367fb32275.jpg\"]","trial_type":"similarity","trial_index":82,"time_elapsed":530805,"internal_node_id":"0.0-6.0-76.0"},{"sim_score":1,"rt":5139,"stimulus":"[\"img/0766/0bf3793e-c353-45e5-ac6f-753f5f484e10.jpg\",\"img/0758/6cd8c362-ae2a-41eb-80a3-3a4f7ace1530.jpg\"]","trial_type":"similarity","trial_index":83,"time_elapsed":536948,"internal_node_id":"0.0-6.0-77.0"},{"sim_score":1,"rt":5586,"stimulus":"[\"img/0894/792c83e9-a747-4000-bc72-5663d2439edb.jpg\",\"img/0764/62fafeea-6274-48ce-976f-35d3d3484c65.jpg\"]","trial_type":"similarity","trial_index":84,"time_elapsed":543550,"internal_node_id":"0.0-6.0-78.0"},{"sim_score":2,"rt":4955,"stimulus":"[\"img/0860/4a022222-056d-461c-ab02-39fac9647552.jpg\",\"img/0867/12264664-1860-46df-8c21-162b9817cdda.jpg\"]","trial_type":"similarity","trial_index":85,"time_elapsed":549518,"internal_node_id":"0.0-6.0-79.0"},{"sim_score":2,"rt":4158,"stimulus":"[\"img/0898/04e39a7a-fcf6-4156-ab0e-f5871f335e1c.jpg\",\"img/0901/62315ff5-ed95-46b4-b099-92552079659b.jpg\"]","trial_type":"similarity","trial_index":86,"time_elapsed":554681,"internal_node_id":"0.0-6.0-80.0"},{"sim_score":2,"rt":3966,"stimulus":"[\"img/0874/99f6563c-8a8d-4c1c-a41d-667b618c3fd5.jpg\",\"img/0764/713cc27e-2338-4486-bfe9-5f5725fbd7a0.jpg\"]","trial_type":"similarity","trial_index":87,"time_elapsed":559662,"internal_node_id":"0.0-6.0-81.0"},{"sim_score":2,"rt":3936,"stimulus":"[\"img/0899/66ab3178-c3fe-4455-ad17-d5952b08e018.jpg\",\"img/0862/5d887e9f-89e2-4ebc-80a0-6d46fe6480db.jpg\"]","trial_type":"similarity","trial_index":88,"time_elapsed":564603,"internal_node_id":"0.0-6.0-82.0"},{"sim_score":3,"rt":4399,"stimulus":"[\"img/0766/26d3ae14-8275-4e08-99b2-a6598c193ddf.jpg\",\"img/0901/d4d09bf5-093e-4050-838e-7c738be8e63c.jpg\"]","trial_type":"similarity","trial_index":89,"time_elapsed":570006,"internal_node_id":"0.0-6.0-83.0"},{"sim_score":1,"rt":4659,"stimulus":"[\"img/0881/c843e210-bdfe-4a7c-8bbe-fcea1f90fe1c.jpg\",\"img/0898/b3290bf9-215b-4b45-b21a-65bdf73f142f.jpg\"]","trial_type":"similarity","trial_index":90,"time_elapsed":575668,"internal_node_id":"0.0-6.0-84.0"},{"sim_score":2,"rt":5340,"stimulus":"[\"img/0868/83b4350a-3b70-4cea-b7f5-b5b56f3050a8.jpg\",\"img/0860/8a92e21b-6a32-4e4a-a445-2d5a487ed0a4.jpg\"]","trial_type":"similarity","trial_index":91,"time_elapsed":582010,"internal_node_id":"0.0-6.0-85.0"},{"sim_score":4,"rt":206,"stimulus":"[\"img/0758/2fa3e613-e676-4e6e-bd12-705327eeb3e1.jpg\",\"img/0868/15dd6fd7-791e-4b53-b203-195d617521a4.jpg\"]","trial_type":"similarity","trial_index":92,"time_elapsed":583222,"internal_node_id":"0.0-6.0-86.0"},{"sim_score":2,"rt":5244,"stimulus":"[\"img/0864/efcfbb1b-8197-44c9-b723-40d6c608dd3c.jpg\",\"img/0894/7f2f31fd-6618-41c6-b65a-0fd8b2851bc9.jpg\"]","trial_type":"similarity","trial_index":93,"time_elapsed":589472,"internal_node_id":"0.0-6.0-87.0"},{"sim_score":2,"rt":4705,"stimulus":"[\"img/0866/f756f7d1-9ad8-4a34-9ef6-7a443d705bfe.jpg\",\"img/0902/40d0b6ec-3907-4573-b227-e7d8e9cad1c3.jpg\"]","trial_type":"similarity","trial_index":94,"time_elapsed":595180,"internal_node_id":"0.0-6.0-88.0"},{"sim_score":3,"rt":5053,"stimulus":"[\"img/0769/f73c5138-2f4c-4354-981c-129dff9cc734.jpg\",\"img/0867/c66898ba-b71b-4d50-84f9-f7f84853a98d.jpg\"]","trial_type":"similarity","trial_index":95,"time_elapsed":601236,"internal_node_id":"0.0-6.0-89.0"},{"sim_score":3,"rt":5234,"stimulus":"[\"img/0874/2c9464dd-8a23-4baa-ac94-1ba3af5c15cc.jpg\",\"img/0875/2e13d160-eea1-416b-aff1-d37ab99ecc1d.jpg\"]","trial_type":"similarity","trial_index":96,"time_elapsed":607475,"internal_node_id":"0.0-6.0-90.0"},{"sim_score":2,"rt":4968,"stimulus":"[\"img/0864/da39ad34-04e0-40d4-a724-c08d53e0ea09.jpg\",\"img/0874/1016b306-087c-4afc-aa08-fa527b28dc76.jpg\"]","trial_type":"similarity","trial_index":97,"time_elapsed":613460,"internal_node_id":"0.0-6.0-91.0"},{"sim_score":1,"rt":5280,"stimulus":"[\"img/0881/adc02f34-ce97-4aef-850f-00519df06fd7.jpg\",\"img/0862/92f0146c-20c4-482e-aef5-adb693790338.jpg\"]","trial_type":"similarity","trial_index":98,"time_elapsed":619743,"internal_node_id":"0.0-6.0-92.0"},{"sim_score":4,"rt":5481,"stimulus":"[\"img/0864/5f33e097-23e3-4002-882d-76e8cb15f451.jpg\",\"img/0881/344de456-b358-4887-bd0e-e4c3278af887.jpg\"]","trial_type":"similarity","trial_index":99,"time_elapsed":626229,"internal_node_id":"0.0-6.0-93.0"},{"sim_score":4,"rt":4794,"stimulus":"[\"img/0899/56a605c3-d0a2-4215-89e1-779279d85a7c.jpg\",\"img/0901/7d4a3388-488d-4e9b-9d32-9d0def7aae8d.jpg\"]","trial_type":"similarity","trial_index":100,"time_elapsed":632034,"internal_node_id":"0.0-6.0-94.0"},{"sim_score":3,"rt":4649,"stimulus":"[\"img/0874/bf14b896-e930-4fd9-9c05-2e83317a2773.jpg\",\"img/0766/c23b5a20-e50f-4d85-841f-cf89212a4348.jpg\"]","trial_type":"similarity","trial_index":101,"time_elapsed":637693,"internal_node_id":"0.0-6.0-95.0"},{"sim_score":5,"rt":5204,"stimulus":"[\"img/0881/ee44e27f-d662-4608-b265-e7ffa19b216f.jpg\",\"img/0899/fef567a2-c121-4481-9af0-ff108d199bbf.jpg\"]","trial_type":"similarity","trial_index":102,"time_elapsed":643914,"internal_node_id":"0.0-6.0-96.0"},{"sim_score":4,"rt":228,"stimulus":"[\"img/0862/92fcd8a4-8193-4a6a-ae09-dd4a6338b0df.jpg\",\"img/0902/b03fee99-d5ca-4bf8-871c-a4a743a39842.jpg\"]","trial_type":"similarity","trial_index":103,"time_elapsed":645144,"internal_node_id":"0.0-6.0-97.0"},{"sim_score":4,"rt":5045,"stimulus":"[\"img/0899/0adc0bc3-6fca-4078-be6f-d45ddf1653d5.jpg\",\"img/0764/1f95ab5f-fb65-4d70-b5db-d6bd6351a8aa.jpg\"]","trial_type":"similarity","trial_index":104,"time_elapsed":651192,"internal_node_id":"0.0-6.0-98.0"},{"sim_score":3,"rt":6309,"stimulus":"[\"img/0758/9fb5b2fe-3f00-4fe6-973c-1ce10d5f4cd5.jpg\",\"img/0862/ba89835a-408c-480b-8594-ed4ffa97eb5c.jpg\"]","trial_type":"similarity","trial_index":105,"time_elapsed":658505,"internal_node_id":"0.0-6.0-99.0"},{"sim_score":4,"rt":4512,"stimulus":"[\"img/0764/958b8576-3a3b-4acc-96dc-06b74de69f37.jpg\",\"img/0898/82231d4c-218b-4d0a-b50d-35a49b524e97.jpg\"]","trial_type":"similarity","trial_index":106,"time_elapsed":664020,"internal_node_id":"0.0-6.0-100.0"},{"sim_score":5,"rt":6190,"stimulus":"[\"img/0901/effc03f6-8f9d-46db-a66c-16fc83891c5c.jpg\",\"img/0902/1f4a4c62-68c1-4993-b213-05652a173ed1.jpg\"]","trial_type":"similarity","trial_index":107,"time_elapsed":671224,"internal_node_id":"0.0-6.0-101.0"},{"sim_score":3,"rt":4479,"stimulus":"[\"img/0764/56441045-b648-4ede-9632-3e9c0227080b.jpg\",\"img/0868/d6d1f30d-4323-435a-b194-7892521bc57e.jpg\"]","trial_type":"similarity","trial_index":108,"time_elapsed":676713,"internal_node_id":"0.0-6.0-102.0"},{"sim_score":3,"rt":3944,"stimulus":"[\"img/0769/7c50e5f5-cc38-4d48-b009-fbe17bcea61c.jpg\",\"img/0881/44e09805-5a25-4f17-a716-4ad4a331b174.jpg\"]","trial_type":"similarity","trial_index":109,"time_elapsed":681660,"internal_node_id":"0.0-6.0-103.0"},{"sim_score":1,"rt":5869,"stimulus":"[\"img/0864/e336a4c5-6648-4fd7-b2f6-93a3fb83f8c6.jpg\",\"img/0769/688d0c52-ad73-4065-a5eb-f8c10d076bff.jpg\"]","trial_type":"similarity","trial_index":110,"time_elapsed":688541,"internal_node_id":"0.0-6.0-104.0"},{"sim_score":6,"rt":4701,"stimulus":"[\"img/0866/c446214b-a368-4c65-ae39-ea46894256ab.jpg\",\"img/0868/77091fc7-a590-4ebb-b915-fdb2483a2399.jpg\"]","trial_type":"similarity","trial_index":111,"time_elapsed":694254,"internal_node_id":"0.0-6.0-105.0"},{"sim_score":3,"rt":4045,"stimulus":"[\"img/0868/5fa7f9d0-f0e5-454c-8224-74d964818f56.jpg\",\"img/0862/eefa5588-9efd-4591-aa5f-a2e17c7d7bcc.jpg\"]","trial_type":"similarity","trial_index":112,"time_elapsed":699310,"internal_node_id":"0.0-6.0-106.0"},{"sim_score":4,"rt":3783,"stimulus":"[\"img/0766/d14acac4-7db1-4b07-8f8f-302437326fc0.jpg\",\"img/0898/8605a25b-6895-476d-8c13-df7a83f96093.jpg\"]","trial_type":"similarity","trial_index":113,"time_elapsed":704097,"internal_node_id":"0.0-6.0-107.0"},{"sim_score":3,"rt":4532,"stimulus":"[\"img/0898/40f99fb2-64d2-4e72-8a7f-a1cf60741e69.jpg\",\"img/0864/6f631579-acf1-415c-a42c-1207f62a8d99.jpg\"]","trial_type":"similarity","trial_index":114,"time_elapsed":709642,"internal_node_id":"0.0-6.0-108.0"},{"sim_score":6,"rt":4633,"stimulus":"[\"img/0868/293079b8-7e0c-4afd-a390-1e5d35fe3ded.jpg\",\"img/0902/ca3160ba-ad5d-459f-a1b6-8b4f3c85ecd5.jpg\"]","trial_type":"similarity","trial_index":115,"time_elapsed":715282,"internal_node_id":"0.0-6.0-109.0"},{"sim_score":5,"rt":4004,"stimulus":"[\"img/0904/0d25eb24-bb20-4e8d-9787-8b489558b4cb.jpg\",\"img/0764/5c8fbafc-e62e-43ed-9b37-f73e8e45147d.jpg\"]","trial_type":"similarity","trial_index":116,"time_elapsed":720290,"internal_node_id":"0.0-6.0-110.0"},{"sim_score":5,"rt":5287,"stimulus":"[\"img/0894/a98416c0-51e2-4960-85da-d81d8688b9d5.jpg\",\"img/0875/5a1e5100-0d94-4fec-bbe9-ca9894d2cf8e.jpg\"]","trial_type":"similarity","trial_index":117,"time_elapsed":726596,"internal_node_id":"0.0-6.0-111.0"},{"sim_score":4,"rt":3030,"stimulus":"[\"img/0868/179a5502-ab5c-478e-8263-5a1fbcc101d2.jpg\",\"img/0874/ca23d307-fc00-4d7d-9106-584c6eb21b4d.jpg\"]","trial_type":"similarity","trial_index":118,"time_elapsed":730637,"internal_node_id":"0.0-6.0-112.0"},{"sim_score":3,"rt":4101,"stimulus":"[\"img/0904/9b3568cc-3cf7-42be-9df3-fdafde7a58b8.jpg\",\"img/0898/01bfe666-3510-4fc7-964f-d00d28732dc8.jpg\"]","trial_type":"similarity","trial_index":119,"time_elapsed":738869,"internal_node_id":"0.0-6.0-113.0"},{"sim_score":4,"rt":4841,"stimulus":"[\"img/0860/d9a0d117-6d1d-41c0-8fec-9aff0fd9e9f2.jpg\",\"img/0766/5d1b8041-c5a1-4b02-b4fe-3453d98a0d72.jpg\"]","trial_type":"similarity","trial_index":120,"time_elapsed":744713,"internal_node_id":"0.0-6.0-114.0"},{"sim_score":2,"rt":3430,"stimulus":"[\"img/0894/86201968-6e78-4d68-9b3a-d1692e066210.jpg\",\"img/0874/a82926a3-0b43-4add-803c-d5f9ea7798ee.jpg\"]","trial_type":"similarity","trial_index":121,"time_elapsed":749147,"internal_node_id":"0.0-6.0-115.0"},{"sim_score":4,"rt":4483,"stimulus":"[\"img/0899/8de08897-b430-42fe-9d42-840670b80f94.jpg\",\"img/0903/8635cf25-2648-4fe9-8c42-79d2598e999c.jpg\"]","trial_type":"similarity","trial_index":122,"time_elapsed":754634,"internal_node_id":"0.0-6.0-116.0"},{"sim_score":6,"rt":5045,"stimulus":"[\"img/0881/e046471a-35b4-4159-bbf7-3cfd201bef66.jpg\",\"img/0764/ca9829fe-aaf8-45b8-b98a-6bae751c63dd.jpg\"]","trial_type":"similarity","trial_index":123,"time_elapsed":760681,"internal_node_id":"0.0-6.0-117.0"},{"sim_score":2,"rt":4989,"stimulus":"[\"img/0903/d987e220-f3e6-4b6d-a270-fe6757041f6d.jpg\",\"img/0769/da36e3f7-2337-434f-ab57-11822dd7eed7.jpg\"]","trial_type":"similarity","trial_index":124,"time_elapsed":766680,"internal_node_id":"0.0-6.0-118.0"},{"sim_score":4,"rt":4678,"stimulus":"[\"img/0901/da4fe30f-d12a-491e-96a2-5ab8ebaadd09.jpg\",\"img/0904/24fc38fe-842c-4831-ad8a-b1de5c25c0a8.jpg\"]","trial_type":"similarity","trial_index":125,"time_elapsed":772370,"internal_node_id":"0.0-6.0-119.0"},{"sim_score":1,"rt":5117,"stimulus":"[\"img/0860/5383b320-1518-4095-a58e-5cc1ae30b64c.jpg\",\"img/0881/62a64f90-7a72-4aee-a1a1-0c548ac9bdda.jpg\"]","trial_type":"similarity","trial_index":126,"time_elapsed":778489,"internal_node_id":"0.0-6.0-120.0"},{"sim_score":2,"rt":4446,"stimulus":"[\"img/0758/53f35650-e455-4b53-8be4-c3c8271c6466.jpg\",\"img/0874/c0378dac-9370-439a-8b79-db27c96fb390.jpg\"]","trial_type":"similarity","trial_index":127,"time_elapsed":783937,"internal_node_id":"0.0-6.0-121.0"},{"sim_score":4,"rt":4603,"stimulus":"[\"img/0901/a0d65c84-3f20-476a-92d1-0c01e8019cf4.jpg\",\"img/0769/6c0bac4c-5f59-43c7-898c-3ca93cf55cfe.jpg\"]","trial_type":"similarity","trial_index":128,"time_elapsed":789543,"internal_node_id":"0.0-6.0-122.0"},{"sim_score":6,"rt":4468,"stimulus":"[\"img/0902/aa6fca32-82b0-4414-b20a-8f6f8aa5a2d2.jpg\",\"img/0904/6291eb43-c10c-4810-a36a-101d09868b04.jpg\"]","trial_type":"similarity","trial_index":129,"time_elapsed":795014,"internal_node_id":"0.0-6.0-123.0"},{"sim_score":5,"rt":5985,"stimulus":"[\"img/0899/d60714ae-98d7-4564-8c98-94dba1351135.jpg\",\"img/0864/8ddd2e30-a1d0-479f-9cbe-591213023893.jpg\"]","trial_type":"similarity","trial_index":130,"time_elapsed":802011,"internal_node_id":"0.0-6.0-124.0"},{"sim_score":2,"rt":4907,"stimulus":"[\"img/0766/51d3aab4-3d09-4dda-b99d-3dc7aaabc6f2.jpg\",\"img/0868/1a62b2b2-18f5-466e-b564-5176a57c565e.jpg\"]","trial_type":"similarity","trial_index":131,"time_elapsed":807921,"internal_node_id":"0.0-6.0-125.0"},{"sim_score":3,"rt":6010,"stimulus":"[\"img/0764/978aede9-4590-4ad0-b234-135c83e5d669.jpg\",\"img/0864/87c467d3-abca-482f-ad80-3766c21b1bb3.jpg\"]","trial_type":"similarity","trial_index":132,"time_elapsed":814934,"internal_node_id":"0.0-6.0-126.0"},{"sim_score":3,"rt":5014,"stimulus":"[\"img/0899/d8f2dd94-570e-4e8c-a087-d96090fb9e8c.jpg\",\"img/0866/8efcaa46-83ab-4dee-a35f-850402aa21ae.jpg\"]","trial_type":"similarity","trial_index":133,"time_elapsed":820951,"internal_node_id":"0.0-6.0-127.0"},{"sim_score":1,"rt":4526,"stimulus":"[\"img/0901/bc47e078-bda4-40ed-b89a-bbd819164b95.jpg\",\"img/0881/c24f3051-eefa-42de-aba6-fccb56d93c70.jpg\"]","trial_type":"similarity","trial_index":134,"time_elapsed":826483,"internal_node_id":"0.0-6.0-128.0"},{"sim_score":6,"rt":4718,"stimulus":"[\"img/0898/5f699581-3853-4547-856c-12f419ba5af7.jpg\",\"img/0903/5ea5bbe0-f238-4724-abe7-9ed8dee8c0ba.jpg\"]","trial_type":"similarity","trial_index":135,"time_elapsed":832207,"internal_node_id":"0.0-6.0-129.0"},{"sim_score":2,"rt":4126,"stimulus":"[\"img/0894/133a1636-d123-4893-873c-1718050f832a.jpg\",\"img/0867/1719a35d-f085-48c0-9099-16c94fe418b4.jpg\"]","trial_type":"similarity","trial_index":136,"time_elapsed":837348,"internal_node_id":"0.0-6.0-130.0"},{"sim_score":1,"rt":4876,"stimulus":"[\"img/0874/995f0332-0439-4eb4-add3-957335dbf6d9.jpg\",\"img/0903/c3cb4a01-2797-43ca-b216-88c67b323fbb.jpg\"]","trial_type":"similarity","trial_index":137,"time_elapsed":843226,"internal_node_id":"0.0-6.0-131.0"},{"sim_score":6,"rt":4391,"stimulus":"[\"img/0899/fd9efb43-701f-4cd6-baaa-4c38315f4bdc.jpg\",\"img/0898/993d8f2d-bef7-4251-a193-0f93a32b7763.jpg\"]","trial_type":"similarity","trial_index":138,"time_elapsed":848625,"internal_node_id":"0.0-6.0-132.0"},{"sim_score":4,"rt":3290,"stimulus":"[\"img/0867/5e07b34d-b40f-4b1c-ac10-49975bace45f.jpg\",\"img/0764/1def7b22-b054-4ec2-860b-73d25691823b.jpg\"]","trial_type":"similarity","trial_index":139,"time_elapsed":852923,"internal_node_id":"0.0-6.0-133.0"},{"sim_score":5,"rt":5301,"stimulus":"[\"img/0866/620cd1aa-0800-4414-8f6e-90342e7a99ad.jpg\",\"img/0769/38a88f69-28fd-4bbd-99f0-f4c02bfd3995.jpg\"]","trial_type":"similarity","trial_index":140,"time_elapsed":859237,"internal_node_id":"0.0-6.0-134.0"},{"sim_score":2,"rt":4864,"stimulus":"[\"img/0860/c5ccd1a4-4bb7-48e1-9b25-72cfaf06909b.jpg\",\"img/0898/a114b375-cb89-44ba-9498-74213f1ecdee.jpg\"]","trial_type":"similarity","trial_index":141,"time_elapsed":865115,"internal_node_id":"0.0-6.0-135.0"},{"sim_score":5,"rt":5382,"stimulus":"[\"img/0881/566f45f8-5fed-4479-a60f-26377e60a62d.jpg\",\"img/0903/12bd8657-92e6-4c36-a06c-597e7a1d51f3.jpg\"]","trial_type":"similarity","trial_index":142,"time_elapsed":871512,"internal_node_id":"0.0-6.0-136.0"},{"sim_score":6,"rt":5803,"stimulus":"[\"img/0894/5c7677b0-a4f1-479e-b274-7822c415175a.jpg\",\"img/0766/75c3d627-4f3b-40d5-9d9c-10c8a62db644.jpg\"]","trial_type":"similarity","trial_index":143,"time_elapsed":878319,"internal_node_id":"0.0-6.0-137.0"},{"sim_score":2,"rt":6934,"stimulus":"[\"img/0860/17b44a7d-c5ca-479f-9e87-f65a64f5c80e.jpg\",\"img/0764/4bec8d92-75aa-475a-954d-8215dbe538f5.jpg\"]","trial_type":"similarity","trial_index":144,"time_elapsed":886268,"internal_node_id":"0.0-6.0-138.0"},{"sim_score":6,"rt":5122,"stimulus":"[\"img/0769/5bd04f55-d091-4f57-85db-38426f26bd1a.jpg\",\"img/0902/97022122-01e4-46c3-a34f-c6260ad28428.jpg\"]","trial_type":"similarity","trial_index":145,"time_elapsed":892406,"internal_node_id":"0.0-6.0-139.0"},{"sim_score":2,"rt":4451,"stimulus":"[\"img/0904/73920552-103b-4c9c-9ece-e0b8376b4504.jpg\",\"img/0903/0fb24af7-9a26-4e9d-aadc-959a36f683e2.jpg\"]","trial_type":"similarity","trial_index":146,"time_elapsed":897860,"internal_node_id":"0.0-6.0-140.0"},{"sim_score":4,"rt":4930,"stimulus":"[\"img/0764/974d52cc-6318-4e7a-b294-2f3e92ff800f.jpg\",\"img/0769/8c7cf147-1780-4d5c-8ddf-5ea23ff03ac9.jpg\"]","trial_type":"similarity","trial_index":147,"time_elapsed":903792,"internal_node_id":"0.0-6.0-141.0"},{"sim_score":5,"rt":5125,"stimulus":"[\"img/0902/3f0eeac5-c996-4026-a376-563ce8f28521.jpg\",\"img/0881/2a8413be-fec2-4de6-88ad-614dd4cccc9d.jpg\"]","trial_type":"similarity","trial_index":148,"time_elapsed":909935,"internal_node_id":"0.0-6.0-142.0"},{"sim_score":3,"rt":4327,"stimulus":"[\"img/0866/07c9c966-3c8d-40e7-8128-92b2acbaed5d.jpg\",\"img/0864/4bd81bc6-c13d-46df-95a9-485886dc7c1b.jpg\"]","trial_type":"similarity","trial_index":149,"time_elapsed":915275,"internal_node_id":"0.0-6.0-143.0"},{"sim_score":3,"rt":5547,"stimulus":"[\"img/0902/8065aa6b-4aef-4368-afa2-02c6465ca582.jpg\",\"img/0898/4184e5a2-84ea-4f36-9b42-ae58646f6f87.jpg\"]","trial_type":"similarity","trial_index":150,"time_elapsed":921832,"internal_node_id":"0.0-6.0-144.0"},{"sim_score":6,"rt":5190,"stimulus":"[\"img/0862/1c20f772-3a51-4a80-aac0-f57dc9f86c28.jpg\",\"img/0864/9b2490c5-a282-400a-9736-e1a0ecbf1cb7.jpg\"]","trial_type":"similarity","trial_index":151,"time_elapsed":928025,"internal_node_id":"0.0-6.0-145.0"},{"sim_score":3,"rt":5629,"stimulus":"[\"img/0875/34132396-d896-4c2d-8087-646dd867e769.jpg\",\"img/0898/e167334e-cc1d-4986-b3b1-c7bc7da64baa.jpg\"]","trial_type":"similarity","trial_index":152,"time_elapsed":934656,"internal_node_id":"0.0-6.0-146.0"},{"sim_score":5,"rt":5361,"stimulus":"[\"img/0874/85eb9b8a-c4c6-4e5a-b8e7-363a87a82054.jpg\",\"img/0881/d373cb9f-a719-4549-a2a4-82def79fb2a5.jpg\"]","trial_type":"similarity","trial_index":153,"time_elapsed":941022,"internal_node_id":"0.0-6.0-147.0"},{"sim_score":5,"rt":6068,"stimulus":"[\"img/0758/eabcd7a8-56ad-4fd2-bc24-90f6b7b33265.jpg\",\"img/0894/38f5931f-926d-414e-b498-66b188978b7a.jpg\"]","trial_type":"similarity","trial_index":154,"time_elapsed":948093,"internal_node_id":"0.0-6.0-148.0"},{"sim_score":2,"rt":5790,"stimulus":"[\"img/0904/96e503ea-6630-4996-85f2-0237688ce441.jpg\",\"img/0864/1ebbc554-99fa-49f9-8799-317375a79820.jpg\"]","trial_type":"similarity","trial_index":155,"time_elapsed":954886,"internal_node_id":"0.0-6.0-149.0"},{"sim_score":3,"rt":4344,"stimulus":"[\"img/0769/c34b7763-8ff2-46d5-9e92-f1d8f3bedbd8.jpg\",\"img/0899/9de5e857-aa9a-4e0c-8ba2-46d79bd069a4.jpg\"]","trial_type":"similarity","trial_index":156,"time_elapsed":960248,"internal_node_id":"0.0-6.0-150.0"},{"sim_score":3,"rt":4230,"stimulus":"[\"img/0764/e42c1dc9-7831-4995-be19-7ca7b4d141fc.jpg\",\"img/0903/680ed18e-b311-4ecf-9b00-7dea32128334.jpg\"]","trial_type":"similarity","trial_index":157,"time_elapsed":967384,"internal_node_id":"0.0-6.0-151.0"},{"sim_score":5,"rt":4047,"stimulus":"[\"img/0903/43ffd882-077a-40dd-a264-e58d519420a1.jpg\",\"img/0864/0116ca98-293d-4fa6-a93b-5a6144ef64cc.jpg\"]","trial_type":"similarity","trial_index":158,"time_elapsed":972449,"internal_node_id":"0.0-6.0-152.0"},{"sim_score":5,"rt":4755,"stimulus":"[\"img/0894/6b2e9509-8699-42b7-9582-7741df0ba2d7.jpg\",\"img/0881/6b1189e6-232d-4042-8885-16dc7b10e0d4.jpg\"]","trial_type":"similarity","trial_index":159,"time_elapsed":978208,"internal_node_id":"0.0-6.0-153.0"},{"sim_score":7,"rt":4672,"stimulus":"[\"img/0875/f87b67d7-c33e-40d1-b281-248c4be1cb6e.jpg\",\"img/0867/6e19c858-b606-45b2-a4c6-910a73f1d82c.jpg\"]","trial_type":"similarity","trial_index":160,"time_elapsed":983892,"internal_node_id":"0.0-6.0-154.0"},{"sim_score":4,"rt":2798,"stimulus":"[\"img/0867/bf560d4f-dee3-4f11-a385-705cc1aa5f3c.jpg\",\"img/0758/e1ba5e53-addc-436a-b428-d34fc1b130dc.jpg\"]","trial_type":"similarity","trial_index":161,"time_elapsed":987698,"internal_node_id":"0.0-6.0-155.0"},{"sim_score":5,"rt":4235,"stimulus":"[\"img/0868/7b212364-ff5f-4e28-9241-7eb6ea00161b.jpg\",\"img/0901/0adb3bd6-d758-4ba7-9723-3ad6cac05bd5.jpg\"]","trial_type":"similarity","trial_index":162,"time_elapsed":992948,"internal_node_id":"0.0-6.0-156.0"},{"sim_score":7,"rt":6425,"stimulus":"[\"img/0769/8056889f-2b14-4782-bb25-b4e8896ab65b.jpg\",\"img/0894/4739e06d-c31e-4bf1-bf91-c97fa9afb456.jpg\"]","trial_type":"similarity","trial_index":163,"time_elapsed":1000378,"internal_node_id":"0.0-6.0-157.0"},{"sim_score":6,"rt":5824,"stimulus":"[\"img/0904/5aec2708-cf14-4a58-aa30-9a8a61c1be0e.jpg\",\"img/0758/a709631e-3705-4725-ac40-f0d916924f08.jpg\"]","trial_type":"similarity","trial_index":164,"time_elapsed":1007215,"internal_node_id":"0.0-6.0-158.0"},{"sim_score":5,"rt":5278,"stimulus":"[\"img/0874/8cdb1c07-1c32-46d2-981c-3636560fa6e5.jpg\",\"img/0904/2c98dc56-88d1-4fb5-a999-b6a7861f65f0.jpg\"]","trial_type":"similarity","trial_index":165,"time_elapsed":1013495,"internal_node_id":"0.0-6.0-159.0"},{"sim_score":2,"rt":5824,"stimulus":"[\"img/0864/3651d070-2fc5-4848-b6a6-088a2d9ac5c9.jpg\",\"img/0901/00acf6c1-b66e-4060-bb04-4caf29b5a8b0.jpg\"]","trial_type":"similarity","trial_index":166,"time_elapsed":1020321,"internal_node_id":"0.0-6.0-160.0"},{"sim_score":2,"rt":4984,"stimulus":"[\"img/0898/a8f16b02-e19f-423b-86c3-a36562ae1f9b.jpg\",\"img/0866/93a27239-8317-4e08-98ca-d8b1ff298e07.jpg\"]","trial_type":"similarity","trial_index":167,"time_elapsed":1026309,"internal_node_id":"0.0-6.0-161.0"},{"sim_score":2,"rt":4180,"stimulus":"[\"img/0766/33aa9ebb-c9f5-418f-8c8b-c77861889568.jpg\",\"img/0903/8931c67c-a43d-47d3-a4c9-42aa2f81d344.jpg\"]","trial_type":"similarity","trial_index":168,"time_elapsed":1031492,"internal_node_id":"0.0-6.0-162.0"},{"sim_score":2,"rt":4995,"stimulus":"[\"img/0860/c7047cd2-7cc1-41b6-8a34-c0986774975f.jpg\",\"img/0899/a048912c-b12c-40e3-90af-46b69b0cc4fe.jpg\"]","trial_type":"similarity","trial_index":169,"time_elapsed":1037490,"internal_node_id":"0.0-6.0-163.0"},{"sim_score":3,"rt":4177,"stimulus":"[\"img/0766/0b48f9e0-7d37-4161-8adb-4e3f5b6b7583.jpg\",\"img/0862/00c06b00-3b73-44e9-bc1e-c5aafb438321.jpg\"]","trial_type":"similarity","trial_index":170,"time_elapsed":1042684,"internal_node_id":"0.0-6.0-164.0"},{"sim_score":4,"rt":3956,"stimulus":"[\"img/0898/cd3aaa3f-efa9-4ab3-8d6f-a6a9273ddf42.jpg\",\"img/0894/3adef67d-7676-4995-80b2-bb31b8aca3ef.jpg\"]","trial_type":"similarity","trial_index":171,"time_elapsed":1047643,"internal_node_id":"0.0-6.0-165.0"},{"sim_score":4,"rt":4688,"stimulus":"[\"img/0867/179ab87a-8eac-4c52-a41f-2e48e3120f09.jpg\",\"img/0766/e8052e17-9dae-4139-802b-6e590cb2d526.jpg\"]","trial_type":"similarity","trial_index":172,"time_elapsed":1053339,"internal_node_id":"0.0-6.0-166.0"},{"sim_score":5,"rt":4578,"stimulus":"[\"img/0904/5cceabc9-de1d-4c67-989b-c28a4ef77e79.jpg\",\"img/0862/4f0a3b4c-afbf-486e-b248-1d54982f54b4.jpg\"]","trial_type":"similarity","trial_index":173,"time_elapsed":1058921,"internal_node_id":"0.0-6.0-167.0"},{"sim_score":5,"rt":5963,"stimulus":"[\"img/0866/a15b02be-11bb-43e3-b0e0-ecc3bd7dfc49.jpg\",\"img/0874/3ce41e7c-40c8-4d58-a546-171114521796.jpg\"]","trial_type":"similarity","trial_index":174,"time_elapsed":1065887,"internal_node_id":"0.0-6.0-168.0"},{"sim_score":5,"rt":4263,"stimulus":"[\"img/0903/39365c8e-a733-4801-ac7d-b87e38c3784b.jpg\",\"img/0868/4a8a45ed-2c4f-421b-9564-409a33ecd26c.jpg\"]","trial_type":"similarity","trial_index":175,"time_elapsed":1071158,"internal_node_id":"0.0-6.0-169.0"},{"sim_score":3,"rt":4280,"stimulus":"[\"img/0769/35f2dd39-40aa-498e-b401-9f1ef2622d00.jpg\",\"img/0904/65e2b70a-b184-4da3-b5c0-5038bdf9469a.jpg\"]","trial_type":"similarity","trial_index":176,"time_elapsed":1076446,"internal_node_id":"0.0-6.0-170.0"},{"sim_score":2,"rt":4209,"stimulus":"[\"img/0875/dbdd643e-6d0e-4a5c-ab57-b9c29b9c981a.jpg\",\"img/0764/f64dfa83-333d-494c-87b5-73e942f1766e.jpg\"]","trial_type":"similarity","trial_index":177,"time_elapsed":1081659,"internal_node_id":"0.0-6.0-171.0"},{"sim_score":3,"rt":5112,"stimulus":"[\"img/0860/e8b8c51e-1834-4875-8b61-6c5bc9b178bd.jpg\",\"img/0903/4cbdc464-e562-4ec2-9bb6-15f894fdf528.jpg\"]","trial_type":"similarity","trial_index":178,"time_elapsed":1087774,"internal_node_id":"0.0-6.0-172.0"},{"sim_score":1,"rt":3729,"stimulus":"[\"img/0864/3d4de670-b290-4285-9c3d-12a0e3af44e9.jpg\",\"img/0867/7d1c497b-c1b3-4ed8-abb5-d7f73306015f.jpg\"]","trial_type":"similarity","trial_index":179,"time_elapsed":1092509,"internal_node_id":"0.0-6.0-173.0"},{"sim_score":4,"rt":3871,"stimulus":"[\"img/0868/e0aff734-077f-40dd-9781-74821abd3621.jpg\",\"img/0864/ea327690-500b-4137-bf91-451b309fe6a5.jpg\"]","trial_type":"similarity","trial_index":180,"time_elapsed":1097383,"internal_node_id":"0.0-6.0-174.0"},{"sim_score":4,"rt":3774,"stimulus":"[\"img/0898/68476bbb-34a1-42d9-8bc1-deab783d4489.jpg\",\"img/0769/11518cb3-13ea-4dd0-890c-30cfab728ade.jpg\"]","trial_type":"similarity","trial_index":181,"time_elapsed":1102170,"internal_node_id":"0.0-6.0-175.0"},{"sim_score":3,"rt":7300,"stimulus":"[\"img/0766/6d32752d-aa05-40dc-9541-640b6e9d6fa1.jpg\",\"img/0764/4952d0a0-c9be-471a-8ec7-94a37bf4051d.jpg\"]","trial_type":"similarity","trial_index":182,"time_elapsed":1110473,"internal_node_id":"0.0-6.0-176.0"},{"sim_score":1,"rt":4086,"stimulus":"[\"img/0764/b328441c-f81c-486c-9eae-b947c70ba7cd.jpg\",\"img/0866/386235d2-6857-41e7-88a8-25cfc3430025.jpg\"]","trial_type":"similarity","trial_index":183,"time_elapsed":1115570,"internal_node_id":"0.0-6.0-177.0"},{"sim_score":5,"rt":4185,"stimulus":"[\"img/0902/07437a16-3d0f-4a5c-89ec-36d0efa4b3b8.jpg\",\"img/0875/5a716432-c6ca-4b1c-955a-2b8ac25198ee.jpg\"]","trial_type":"similarity","trial_index":184,"time_elapsed":1120770,"internal_node_id":"0.0-6.0-178.0"},{"sim_score":4,"rt":5521,"stimulus":"[\"img/0881/633c6f40-56d9-4b48-bf1c-ecd83116eabb.jpg\",\"img/0904/b7c2a2c8-df33-4473-b3d4-ff7147c60db3.jpg\"]","trial_type":"similarity","trial_index":185,"time_elapsed":1127294,"internal_node_id":"0.0-6.0-179.0"},{"sim_score":2,"rt":4070,"stimulus":"[\"img/0874/ca76a855-4e77-4f2f-872a-0a718153e7ed.jpg\",\"img/0860/524b2e98-5767-4d53-942c-ebae6925659b.jpg\"]","trial_type":"similarity","trial_index":186,"time_elapsed":1132369,"internal_node_id":"0.0-6.0-180.0"},{"sim_score":6,"rt":5484,"stimulus":"[\"img/0769/965c3c44-d9e5-47c5-b61a-2bbdf4215d9a.jpg\",\"img/0874/29830da7-be5f-44e5-b141-652a0ccf7269.jpg\"]","trial_type":"similarity","trial_index":187,"time_elapsed":1138855,"internal_node_id":"0.0-6.0-181.0"},{"sim_score":4,"rt":2810,"stimulus":"[\"img/0904/63dd06dd-dccb-47ba-9740-eb33239e18a7.jpg\",\"img/0766/60033a74-9919-47e5-913c-71d0d483e7e5.jpg\"]","trial_type":"similarity","trial_index":188,"time_elapsed":1142672,"internal_node_id":"0.0-6.0-182.0"},{"sim_score":7,"rt":4625,"stimulus":"[\"img/0902/51493fab-2a10-4385-aa88-bee3db441626.jpg\",\"img/0764/e0788029-9d7f-414c-b747-46d2a99f7c86.jpg\"]","trial_type":"similarity","trial_index":189,"time_elapsed":1148309,"internal_node_id":"0.0-6.0-183.0"},{"sim_score":2,"rt":4224,"stimulus":"[\"img/0769/91acb237-65a3-4d0b-9748-af5c7b83d3c7.jpg\",\"img/0875/03c3c331-738b-4446-af92-3d7386b08c2e.jpg\"]","trial_type":"similarity","trial_index":190,"time_elapsed":1153546,"internal_node_id":"0.0-6.0-184.0"},{"sim_score":2,"rt":4537,"stimulus":"[\"img/0867/26611f4e-d694-4460-b7e2-43c62753ddc3.jpg\",\"img/0903/5995f4a8-fa82-46f8-8760-fd7800a5ca34.jpg\"]","trial_type":"similarity","trial_index":191,"time_elapsed":1159098,"internal_node_id":"0.0-6.0-185.0"},{"sim_score":4,"rt":3425,"stimulus":"[\"img/0862/fad1d7c1-8187-43c3-942a-0fc12183e48e.jpg\",\"img/0769/db94b61b-a5a7-4861-9d32-7b02ad194fb0.jpg\"]","trial_type":"similarity","trial_index":192,"time_elapsed":1163525,"internal_node_id":"0.0-6.0-186.0"},{"sim_score":4,"rt":4136,"stimulus":"[\"img/0766/908bc45b-7c9e-4f95-806e-86b196ebcb2c.jpg\",\"img/0866/23a224f3-2012-4fc8-8e0f-3c36f8de27fd.jpg\"]","trial_type":"similarity","trial_index":193,"time_elapsed":1168672,"internal_node_id":"0.0-6.0-187.0"},{"sim_score":3,"rt":4007,"stimulus":"[\"img/0769/0fe124d3-bcad-45f6-b64d-8f6eb8ee5251.jpg\",\"img/0860/15b24a61-25be-4356-9eac-5ce95d0cb4a4.jpg\"]","trial_type":"similarity","trial_index":194,"time_elapsed":1173692,"internal_node_id":"0.0-6.0-188.0"},{"sim_score":2,"rt":4397,"stimulus":"[\"img/0881/f7a8cc63-8842-40a4-9ff8-fe530310d62c.jpg\",\"img/0868/4bd5105a-d2c3-4f82-8c80-57196106ba53.jpg\"]","trial_type":"similarity","trial_index":195,"time_elapsed":1183596,"internal_node_id":"0.0-6.0-189.0"},{"view_history":"[{\"page_index\":0,\"viewing_time\":4375}]","rt":4376,"trial_type":"instructions","trial_index":196,"time_elapsed":1188975,"internal_node_id":"0.0-7.0"},{"rt":27310,"responses":"{\"Q0\":\"Townsend's Warbler\"}","answer":["Nashville Warbler"],"trial_type":"image-multi-choice","trial_index":197,"time_elapsed":1217296,"internal_node_id":"0.0-8.0-0.0"},{"rt":11672,"responses":"{\"Q0\":\"Black-and-white Warbler\"}","answer":["Black-and-white Warbler"],"trial_type":"image-multi-choice","trial_index":198,"time_elapsed":1229990,"internal_node_id":"0.0-8.0-1.0"},{"rt":20446,"responses":"{\"Q0\":\"Chipping Sparrow\"}","answer":["Townsend's Warbler"],"trial_type":"image-multi-choice","trial_index":199,"time_elapsed":1251444,"internal_node_id":"0.0-8.0-2.0"},{"rt":6756,"responses":"{\"Q0\":\"Lark Sparrow\"}","answer":["Lark Sparrow"],"trial_type":"image-multi-choice","trial_index":200,"time_elapsed":1259211,"internal_node_id":"0.0-8.0-3.0"},{"rt":11360,"responses":"{\"Q0\":\"Vesper Sparrow\"}","answer":["Yellow Warbler"],"trial_type":"image-multi-choice","trial_index":201,"time_elapsed":1271580,"internal_node_id":"0.0-8.0-4.0"},{"rt":9960,"responses":"{\"Q0\":\"Ovenbird\"}","answer":["Orange-crowned Warbler"],"trial_type":"image-multi-choice","trial_index":202,"time_elapsed":1282557,"internal_node_id":"0.0-8.0-5.0"},{"rt":11230,"responses":"{\"Q0\":\"Swamp Sparrow\"}","answer":["White-throated Sparrow"],"trial_type":"image-multi-choice","trial_index":203,"time_elapsed":1294799,"internal_node_id":"0.0-8.0-6.0"},{"rt":12443,"responses":"{\"Q0\":\"Northern Waterthrush\"}","answer":["Fox Sparrow"],"trial_type":"image-multi-choice","trial_index":204,"time_elapsed":1308259,"internal_node_id":"0.0-8.0-7.0"},{"rt":4587,"responses":"{\"Q0\":\"American Tree Sparrow\"}","answer":["Song Sparrow"],"trial_type":"image-multi-choice","trial_index":205,"time_elapsed":1313855,"internal_node_id":"0.0-8.0-8.0"},{"rt":16804,"responses":"{\"Q0\":\"Tennessee Warbler\"}","answer":["Blackburnian Warbler"],"trial_type":"image-multi-choice","trial_index":206,"time_elapsed":1331675,"internal_node_id":"0.0-8.0-9.0"},{"rt":7753,"responses":"{\"Q0\":\"White-throated Sparrow\"}","answer":["Vesper Sparrow"],"trial_type":"image-multi-choice","trial_index":207,"time_elapsed":1340440,"internal_node_id":"0.0-8.0-10.0"},{"rt":7599,"responses":"{\"Q0\":\"Lark Sparrow\"}","answer":["White-crowned Sparrow"],"trial_type":"image-multi-choice","trial_index":208,"time_elapsed":1349047,"internal_node_id":"0.0-8.0-11.0"},{"rt":9053,"responses":"{\"Q0\":\"Orange-crowned Warbler\"}","answer":["American Tree Sparrow"],"trial_type":"image-multi-choice","trial_index":209,"time_elapsed":1359108,"internal_node_id":"0.0-8.0-12.0"},{"rt":5581,"responses":"{\"Q0\":\"Ovenbird\"}","answer":["Tennessee Warbler"],"trial_type":"image-multi-choice","trial_index":210,"time_elapsed":1365704,"internal_node_id":"0.0-8.0-13.0"},{"rt":6200,"responses":"{\"Q0\":\"Blackburnian Warbler\"}","answer":["Magnolia Warbler"],"trial_type":"image-multi-choice","trial_index":211,"time_elapsed":1372919,"internal_node_id":"0.0-8.0-14.0"},{"rt":10113,"responses":"{\"Q0\":\"Swamp Sparrow\"}","answer":["Northern Waterthrush"],"trial_type":"image-multi-choice","trial_index":212,"time_elapsed":1384041,"internal_node_id":"0.0-8.0-15.0"},{"rt":5106,"responses":"{\"Q0\":\"Song Sparrow\"}","answer":["Chipping Sparrow"],"trial_type":"image-multi-choice","trial_index":213,"time_elapsed":1390157,"internal_node_id":"0.0-8.0-16.0"},{"rt":4967,"responses":"{\"Q0\":\"Yellow Warbler\"}","answer":["Swamp Sparrow"],"trial_type":"image-multi-choice","trial_index":214,"time_elapsed":1396132,"internal_node_id":"0.0-8.0-17.0"},{"rt":10990,"responses":"{\"Q0\":\"Vesper Sparrow\"}","answer":["Lincoln's Sparrow"],"trial_type":"image-multi-choice","trial_index":215,"time_elapsed":1408132,"internal_node_id":"0.0-8.0-18.0"},{"rt":20808,"responses":"{\"Q0\":\"Lark Sparrow\"}","answer":["Ovenbird"],"trial_type":"image-multi-choice","trial_index":216,"time_elapsed":1429956,"internal_node_id":"0.0-8.0-19.0"}]