[{"view_history":"[{\"page_index\":0,\"viewing_time\":11305}]","rt":11306,"trial_type":"instructions","trial_index":0,"time_elapsed":11309,"internal_node_id":"0.0-0.0"},{"sim_score":7,"rt":5673,"stimulus":"[\"img/bluejay1.jpg\",\"img/bluejay2.jpg\"]","trial_type":"similarity_demo","trial_index":1,"time_elapsed":17999,"internal_node_id":"0.0-1.0"},{"view_history":"[{\"page_index\":0,\"viewing_time\":3481}]","rt":3482,"trial_type":"instructions","trial_index":2,"time_elapsed":22483,"internal_node_id":"0.0-2.0"},{"sim_score":3,"rt":4707,"stimulus":"[\"img/bluejay1.jpg\",\"img/cardinal1.jpg\"]","trial_type":"similarity_demo","trial_index":3,"time_elapsed":28196,"internal_node_id":"0.0-3.0"},{"view_history":"[{\"page_index\":0,\"viewing_time\":3156}]","rt":3156,"trial_type":"instructions","trial_index":4,"time_elapsed":32353,"internal_node_id":"0.0-4.0"},{"view_history":"[{\"page_index\":0,\"viewing_time\":18135}]","rt":18136,"trial_type":"instructions","trial_index":5,"time_elapsed":51490,"internal_node_id":"0.0-5.0"},{"sim_score":1,"rt":6449,"stimulus":"[\"img/0868/7b212364-ff5f-4e28-9241-7eb6ea00161b.jpg\",\"img/0894/a98416c0-51e2-4960-85da-d81d8688b9d5.jpg\"]","trial_type":"similarity","trial_index":6,"time_elapsed":58948,"internal_node_id":"0.0-6.0-0.0"},{"sim_score":3,"rt":4128,"stimulus":"[\"img/0898/8605a25b-6895-476d-8c13-df7a83f96093.jpg\",\"img/0758/eabcd7a8-56ad-4fd2-bc24-90f6b7b33265.jpg\"]","trial_type":"similarity","trial_index":7,"time_elapsed":64083,"internal_node_id":"0.0-6.0-1.0"},{"sim_score":5,"rt":4604,"stimulus":"[\"img/0903/07b445ee-0cdb-4d2c-a23b-d727613f4059.jpg\",\"img/0894/bd34223a-2f66-4e16-9d18-193a746b69ff.jpg\"]","trial_type":"similarity","trial_index":8,"time_elapsed":69699,"internal_node_id":"0.0-6.0-2.0"},{"sim_score":3,"rt":3850,"stimulus":"[\"img/0881/5fe04dd0-5c74-47b7-99c8-b068db9ca26a.jpg\",\"img/0766/110832e5-2646-4bd0-a94e-5df8cc314269.jpg\"]","trial_type":"similarity","trial_index":9,"time_elapsed":74556,"internal_node_id":"0.0-6.0-3.0"},{"sim_score":3,"rt":4321,"stimulus":"[\"img/0864/5f33e097-23e3-4002-882d-76e8cb15f451.jpg\",\"img/0860/4c530c3c-6aab-492a-94d1-9c01797bde40.jpg\"]","trial_type":"similarity","trial_index":10,"time_elapsed":79885,"internal_node_id":"0.0-6.0-4.0"},{"sim_score":2,"rt":3153,"stimulus":"[\"img/0902/418b716e-63e5-4c77-93e9-95b1f5a3ddf0.jpg\",\"img/0899/7f9d45d0-b2c6-40d3-aa41-c207db2c411b.jpg\"]","trial_type":"similarity","trial_index":11,"time_elapsed":84043,"internal_node_id":"0.0-6.0-5.0"},{"sim_score":1,"rt":2593,"stimulus":"[\"img/0868/d6d1f30d-4323-435a-b194-7892521bc57e.jpg\",\"img/0769/6c0bac4c-5f59-43c7-898c-3ca93cf55cfe.jpg\"]","trial_type":"similarity","trial_index":12,"time_elapsed":87643,"internal_node_id":"0.0-6.0-6.0"},{"sim_score":1,"rt":3033,"stimulus":"[\"img/0764/6ef77040-1fae-4afa-bfe7-eda98e6d0376.jpg\",\"img/0901/12da1841-e611-435c-9719-109413d536a8.jpg\"]","trial_type":"similarity","trial_index":13,"time_elapsed":91683,"internal_node_id":"0.0-6.0-7.0"},{"sim_score":2,"rt":4186,"stimulus":"[\"img/0881/566f45f8-5fed-4479-a60f-26377e60a62d.jpg\",\"img/0866/c446214b-a368-4c65-ae39-ea46894256ab.jpg\"]","trial_type":"similarity","trial_index":14,"time_elapsed":96876,"internal_node_id":"0.0-6.0-8.0"},{"sim_score":1,"rt":2477,"stimulus":"[\"img/0867/179ab87a-8eac-4c52-a41f-2e48e3120f09.jpg\",\"img/0899/4f7bc593-8ddd-4da3-a0b9-84da730d3370.jpg\"]","trial_type":"similarity","trial_index":15,"time_elapsed":100364,"internal_node_id":"0.0-6.0-9.0"},{"sim_score":1,"rt":3139,"stimulus":"[\"img/0875/dbdd643e-6d0e-4a5c-ab57-b9c29b9c981a.jpg\",\"img/0766/3c526a07-9e0a-4ae2-8142-00085f0127da.jpg\"]","trial_type":"similarity","trial_index":16,"time_elapsed":104509,"internal_node_id":"0.0-6.0-10.0"},{"sim_score":1,"rt":3377,"stimulus":"[\"img/0901/6e2957f8-f5ab-46f4-87cc-bb50155a098b.jpg\",\"img/0875/99698b4d-b4a1-44bc-8c83-8ea755bbbf61.jpg\"]","trial_type":"similarity","trial_index":17,"time_elapsed":108892,"internal_node_id":"0.0-6.0-11.0"},{"sim_score":4,"rt":4081,"stimulus":"[\"img/0902/cdec1bc6-7f90-4f72-9e01-f5a4111bac1d.jpg\",\"img/0860/b03b963d-949b-4d8d-b19c-4950c89eeca2.jpg\"]","trial_type":"similarity","trial_index":18,"time_elapsed":113979,"internal_node_id":"0.0-6.0-12.0"},{"sim_score":1,"rt":4571,"stimulus":"[\"img/0874/a82926a3-0b43-4add-803c-d5f9ea7798ee.jpg\",\"img/0867/ac1797e4-8afc-48fe-b252-86d1defb1cca.jpg\"]","trial_type":"similarity","trial_index":19,"time_elapsed":119555,"internal_node_id":"0.0-6.0-13.0"},{"sim_score":2,"rt":3618,"stimulus":"[\"img/0904/09dac84f-3d1c-4445-a68e-d0389fdbf1e9.jpg\",\"img/0866/8efcaa46-83ab-4dee-a35f-850402aa21ae.jpg\"]","trial_type":"similarity","trial_index":20,"time_elapsed":124179,"internal_node_id":"0.0-6.0-14.0"},{"sim_score":3,"rt":3338,"stimulus":"[\"img/0758/7ee8bc8f-c40b-4b3a-84ec-3e83580622d4.jpg\",\"img/0902/a323b62d-2fd5-4ac8-acc6-35b768f3c3f2.jpg\"]","trial_type":"similarity","trial_index":21,"time_elapsed":128523,"internal_node_id":"0.0-6.0-15.0"},{"sim_score":2,"rt":3715,"stimulus":"[\"img/0867/075e0f95-856b-4cbb-acf5-092393aaf04e.jpg\",\"img/0898/4184e5a2-84ea-4f36-9b42-ae58646f6f87.jpg\"]","trial_type":"similarity","trial_index":22,"time_elapsed":133245,"internal_node_id":"0.0-6.0-16.0"},{"sim_score":1,"rt":5119,"stimulus":"[\"img/0904/2fd488e9-960f-41f7-8a44-33375f7d5051.jpg\",\"img/0868/293079b8-7e0c-4afd-a390-1e5d35fe3ded.jpg\"]","trial_type":"similarity","trial_index":23,"time_elapsed":139371,"internal_node_id":"0.0-6.0-17.0"},{"sim_score":4,"rt":3370,"stimulus":"[\"img/0766/60033a74-9919-47e5-913c-71d0d483e7e5.jpg\",\"img/0864/6f631579-acf1-415c-a42c-1207f62a8d99.jpg\"]","trial_type":"similarity","trial_index":24,"time_elapsed":143747,"internal_node_id":"0.0-6.0-18.0"},{"sim_score":2,"rt":2914,"stimulus":"[\"img/0899/565ccdd9-0933-4536-a625-3c0e25a713dd.jpg\",\"img/0766/006035d8-c736-4daf-bbe4-a9e373af9da6.jpg\"]","trial_type":"similarity","trial_index":25,"time_elapsed":147666,"internal_node_id":"0.0-6.0-19.0"},{"sim_score":4,"rt":3780,"stimulus":"[\"img/0764/d0bef2e0-e16b-4c82-9451-c1d16265eb67.jpg\",\"img/0758/d41c06bf-ebaf-454b-91c6-1a17f917b659.jpg\"]","trial_type":"similarity","trial_index":26,"time_elapsed":152451,"internal_node_id":"0.0-6.0-20.0"},{"sim_score":1,"rt":2587,"stimulus":"[\"img/0901/f1116359-1ff1-4638-b3b3-700918d36d18.jpg\",\"img/0874/85eb9b8a-c4c6-4e5a-b8e7-363a87a82054.jpg\"]","trial_type":"similarity","trial_index":27,"time_elapsed":156043,"internal_node_id":"0.0-6.0-21.0"},{"sim_score":2,"rt":5010,"stimulus":"[\"img/0875/03c3c331-738b-4446-af92-3d7386b08c2e.jpg\",\"img/0758/e1ba5e53-addc-436a-b428-d34fc1b130dc.jpg\"]","trial_type":"similarity","trial_index":28,"time_elapsed":162059,"internal_node_id":"0.0-6.0-22.0"},{"sim_score":1,"rt":3937,"stimulus":"[\"img/0867/aa05d113-fc19-4756-a8eb-7878f580bc92.jpg\",\"img/0881/33d65d80-8a8e-4ecf-852d-0ad7725c17a2.jpg\"]","trial_type":"similarity","trial_index":29,"time_elapsed":167002,"internal_node_id":"0.0-6.0-23.0"},{"sim_score":2,"rt":2707,"stimulus":"[\"img/0758/9fb5b2fe-3f00-4fe6-973c-1ce10d5f4cd5.jpg\",\"img/0901/a2d7b2f6-396b-4d91-8403-de5361c74af7.jpg\"]","trial_type":"similarity","trial_index":30,"time_elapsed":170715,"internal_node_id":"0.0-6.0-24.0"},{"sim_score":4,"rt":4001,"stimulus":"[\"img/0868/83b4350a-3b70-4cea-b7f5-b5b56f3050a8.jpg\",\"img/0875/527ced51-8e53-4aab-ab05-86df219104c0.jpg\"]","trial_type":"similarity","trial_index":31,"time_elapsed":175723,"internal_node_id":"0.0-6.0-25.0"},{"sim_score":4,"rt":2986,"stimulus":"[\"img/0903/b548d383-2a95-4575-8c13-647873751ff1.jpg\",\"img/0901/1e23ffbd-19de-4c4f-aa23-c54aaa3319a3.jpg\"]","trial_type":"similarity","trial_index":32,"time_elapsed":179714,"internal_node_id":"0.0-6.0-26.0"},{"sim_score":4,"rt":2218,"stimulus":"[\"img/0894/8cadb87a-7001-4e47-99fb-1867bebf1668.jpg\",\"img/0899/a05bea16-2bb4-4cb9-b8fb-4ff975db6971.jpg\"]","trial_type":"similarity","trial_index":33,"time_elapsed":182938,"internal_node_id":"0.0-6.0-27.0"},{"sim_score":1,"rt":2708,"stimulus":"[\"img/0862/e697469a-ec19-4414-b972-7b9f3564785b.jpg\",\"img/0867/f8159067-056c-41f1-a136-c529fe5e970a.jpg\"]","trial_type":"similarity","trial_index":34,"time_elapsed":186653,"internal_node_id":"0.0-6.0-28.0"},{"sim_score":1,"rt":2264,"stimulus":"[\"img/0864/300bb811-8b3c-4c42-8653-6097c3725197.jpg\",\"img/0875/e7e66b13-b573-431e-b85e-288ce04a35a3.jpg\"]","trial_type":"similarity","trial_index":35,"time_elapsed":189923,"internal_node_id":"0.0-6.0-29.0"},{"sim_score":2,"rt":2245,"stimulus":"[\"img/0862/7918ca67-5bd3-4606-a5ea-c39fb11a9297.jpg\",\"img/0874/2c9464dd-8a23-4baa-ac94-1ba3af5c15cc.jpg\"]","trial_type":"similarity","trial_index":36,"time_elapsed":193173,"internal_node_id":"0.0-6.0-30.0"},{"sim_score":2,"rt":2985,"stimulus":"[\"img/0903/2a9c8033-3e70-47fa-816d-97ee1813a3a3.jpg\",\"img/0758/e38fd80d-18d0-42f3-b848-f930788e8bd7.jpg\"]","trial_type":"similarity","trial_index":37,"time_elapsed":197165,"internal_node_id":"0.0-6.0-31.0"},{"sim_score":1,"rt":4554,"stimulus":"[\"img/0866/07c9c966-3c8d-40e7-8128-92b2acbaed5d.jpg\",\"img/0901/fb0a8e69-7f19-4e6e-a6bb-a48f97f9b4f3.jpg\"]","trial_type":"similarity","trial_index":38,"time_elapsed":202723,"internal_node_id":"0.0-6.0-32.0"},{"sim_score":4,"rt":3139,"stimulus":"[\"img/0874/a3bc679d-619f-4db6-bb68-116dcb757d9c.jpg\",\"img/0899/56a605c3-d0a2-4215-89e1-779279d85a7c.jpg\"]","trial_type":"similarity","trial_index":39,"time_elapsed":206867,"internal_node_id":"0.0-6.0-33.0"},{"sim_score":6,"rt":5098,"stimulus":"[\"img/0903/0a92ec52-4e87-410a-857a-4455cde56a70.jpg\",\"img/0902/511abb54-0094-4f4d-b6dc-3f2c97050521.jpg\"]","trial_type":"similarity","trial_index":40,"time_elapsed":212971,"internal_node_id":"0.0-6.0-34.0"},{"sim_score":2,"rt":3666,"stimulus":"[\"img/0758/caa93da2-9edf-49fa-96b9-32dedd8f5078.jpg\",\"img/0866/6f2a90d7-14f1-4f1b-bd64-fc0af6b9fe44.jpg\"]","trial_type":"similarity","trial_index":41,"time_elapsed":217643,"internal_node_id":"0.0-6.0-35.0"},{"sim_score":3,"rt":2985,"stimulus":"[\"img/0875/42910c99-5463-450a-a0f8-d4d060a11455.jpg\",\"img/0903/6378ee1e-3d2b-48d2-87be-bebda32c8268.jpg\"]","trial_type":"similarity","trial_index":42,"time_elapsed":221635,"internal_node_id":"0.0-6.0-36.0"},{"sim_score":2,"rt":3179,"stimulus":"[\"img/0864/5f74a653-3bdc-4308-8cca-ac667dc22e1f.jpg\",\"img/0902/b76efc44-a50f-4dac-b997-ff0222376067.jpg\"]","trial_type":"similarity","trial_index":43,"time_elapsed":230161,"internal_node_id":"0.0-6.0-37.0"},{"sim_score":2,"rt":4300,"stimulus":"[\"img/0901/33b51a81-06d9-46d9-9d4f-5a2d6d6b8058.jpg\",\"img/0867/7d1c497b-c1b3-4ed8-abb5-d7f73306015f.jpg\"]","trial_type":"similarity","trial_index":44,"time_elapsed":235467,"internal_node_id":"0.0-6.0-38.0"},{"sim_score":4,"rt":2755,"stimulus":"[\"img/0862/a0a3a7ba-7798-46a3-b4ca-05e1f6e581d0.jpg\",\"img/0860/8a92e21b-6a32-4e4a-a445-2d5a487ed0a4.jpg\"]","trial_type":"similarity","trial_index":45,"time_elapsed":239227,"internal_node_id":"0.0-6.0-39.0"},{"sim_score":5,"rt":2802,"stimulus":"[\"img/0867/12264664-1860-46df-8c21-162b9817cdda.jpg\",\"img/0868/6a28c3b0-3d76-498a-9fb7-ddafc665eca8.jpg\"]","trial_type":"similarity","trial_index":46,"time_elapsed":243035,"internal_node_id":"0.0-6.0-40.0"},{"sim_score":6,"rt":3738,"stimulus":"[\"img/0904/b7c2a2c8-df33-4473-b3d4-ff7147c60db3.jpg\",\"img/0899/76ad07e2-ca25-45eb-84f2-8d80b8ca3e26.jpg\"]","trial_type":"similarity","trial_index":47,"time_elapsed":247779,"internal_node_id":"0.0-6.0-41.0"},{"sim_score":1,"rt":2372,"stimulus":"[\"img/0862/064818ee-13d5-4618-bb24-21c7368ea278.jpg\",\"img/0894/6b2e9509-8699-42b7-9582-7741df0ba2d7.jpg\"]","trial_type":"similarity","trial_index":48,"time_elapsed":251157,"internal_node_id":"0.0-6.0-42.0"},{"sim_score":1,"rt":3184,"stimulus":"[\"img/0875/8521fd58-3b1e-4dc5-97ae-804edfa6734a.jpg\",\"img/0904/73920552-103b-4c9c-9ece-e0b8376b4504.jpg\"]","trial_type":"similarity","trial_index":49,"time_elapsed":255347,"internal_node_id":"0.0-6.0-43.0"},{"sim_score":2,"rt":5163,"stimulus":"[\"img/0874/3f471690-9788-4d03-90c7-f615aecef149.jpg\",\"img/0898/f3a3f225-1248-4ac7-b93b-f0ff28485bf3.jpg\"]","trial_type":"similarity","trial_index":50,"time_elapsed":261517,"internal_node_id":"0.0-6.0-44.0"},{"sim_score":3,"rt":3656,"stimulus":"[\"img/0898/ec565187-2e31-4fdd-9a5c-153d0c789ae0.jpg\",\"img/0868/179a5502-ab5c-478e-8263-5a1fbcc101d2.jpg\"]","trial_type":"similarity","trial_index":51,"time_elapsed":266178,"internal_node_id":"0.0-6.0-45.0"},{"sim_score":3,"rt":3051,"stimulus":"[\"img/0901/7c16dd9c-44ad-4d5b-990c-6a0b9b48b1b1.jpg\",\"img/0860/c3379ff7-0763-48fe-a1ec-7ea3d611bc7a.jpg\"]","trial_type":"similarity","trial_index":52,"time_elapsed":270235,"internal_node_id":"0.0-6.0-46.0"},{"sim_score":5,"rt":2898,"stimulus":"[\"img/0894/a3d4170b-b7d8-40e3-955f-87e76ed745fc.jpg\",\"img/0902/4e0baa32-988e-46f6-989d-f669225ab645.jpg\"]","trial_type":"similarity","trial_index":53,"time_elapsed":274139,"internal_node_id":"0.0-6.0-47.0"},{"sim_score":1,"rt":3802,"stimulus":"[\"img/0764/29072395-f595-4e3c-83d3-ff87010039fa.jpg\",\"img/0862/de9ad88c-b522-430a-8ee9-eb06a9f85df5.jpg\"]","trial_type":"similarity","trial_index":54,"time_elapsed":278947,"internal_node_id":"0.0-6.0-48.0"},{"sim_score":5,"rt":3001,"stimulus":"[\"img/0881/6b1189e6-232d-4042-8885-16dc7b10e0d4.jpg\",\"img/0758/ddc336e9-a8b6-4bb9-937a-c7e25e0e9250.jpg\"]","trial_type":"similarity","trial_index":55,"time_elapsed":282955,"internal_node_id":"0.0-6.0-49.0"},{"sim_score":6,"rt":4906,"stimulus":"[\"img/0766/09f646c8-a69e-4ed3-879c-8d29b04ad7f9.jpg\",\"img/0769/7c50e5f5-cc38-4d48-b009-fbe17bcea61c.jpg\"]","trial_type":"similarity","trial_index":56,"time_elapsed":288868,"internal_node_id":"0.0-6.0-50.0"},{"sim_score":4,"rt":2897,"stimulus":"[\"img/0875/cff79b3a-a797-4393-9757-6275f999ec04.jpg\",\"img/0866/be24ab58-230e-4db8-9f45-ff04c9aec6bb.jpg\"]","trial_type":"similarity","trial_index":57,"time_elapsed":292771,"internal_node_id":"0.0-6.0-51.0"},{"sim_score":6,"rt":3803,"stimulus":"[\"img/0894/767a0eec-1064-46b1-b1aa-dfa02b0cd74e.jpg\",\"img/0904/0d17b811-063e-416e-a23c-3b3cfa4fcce5.jpg\"]","trial_type":"similarity","trial_index":58,"time_elapsed":297579,"internal_node_id":"0.0-6.0-52.0"},{"sim_score":3,"rt":3378,"stimulus":"[\"img/0758/f61ecdf8-a7d4-4db0-b84d-be46f7cfaffc.jpg\",\"img/0769/a1ce8d07-ba37-40de-bade-2778805521e0.jpg\"]","trial_type":"similarity","trial_index":59,"time_elapsed":301963,"internal_node_id":"0.0-6.0-53.0"},{"sim_score":2,"rt":3171,"stimulus":"[\"img/0902/7f1dcd35-237a-4995-9e42-7f63f3f434d4.jpg\",\"img/0874/8cdb1c07-1c32-46d2-981c-3636560fa6e5.jpg\"]","trial_type":"similarity","trial_index":60,"time_elapsed":306140,"internal_node_id":"0.0-6.0-54.0"},{"sim_score":3,"rt":3225,"stimulus":"[\"img/0903/f1fa0f8d-e62b-4b4a-a174-31a0fabfe61b.jpg\",\"img/0862/ba89835a-408c-480b-8594-ed4ffa97eb5c.jpg\"]","trial_type":"similarity","trial_index":61,"time_elapsed":310372,"internal_node_id":"0.0-6.0-55.0"},{"sim_score":4,"rt":2466,"stimulus":"[\"img/0866/a04d37f0-99dd-478a-b6c6-58b215138f84.jpg\",\"img/0894/e2446cf5-cd48-486a-badc-76498e087fbe.jpg\"]","trial_type":"similarity","trial_index":62,"time_elapsed":313843,"internal_node_id":"0.0-6.0-56.0"},{"sim_score":3,"rt":3243,"stimulus":"[\"img/0867/5e07b34d-b40f-4b1c-ac10-49975bace45f.jpg\",\"img/0904/d23dd7be-7fe8-4435-82f7-bd592c01e6a1.jpg\"]","trial_type":"similarity","trial_index":63,"time_elapsed":318091,"internal_node_id":"0.0-6.0-57.0"},{"sim_score":2,"rt":2529,"stimulus":"[\"img/0875/3ecb367d-e9eb-4826-8aaa-7aa72fb98019.jpg\",\"img/0881/c24f3051-eefa-42de-aba6-fccb56d93c70.jpg\"]","trial_type":"similarity","trial_index":64,"time_elapsed":321626,"internal_node_id":"0.0-6.0-58.0"},{"sim_score":2,"rt":3740,"stimulus":"[\"img/0866/386235d2-6857-41e7-88a8-25cfc3430025.jpg\",\"img/0860/c7047cd2-7cc1-41b6-8a34-c0986774975f.jpg\"]","trial_type":"similarity","trial_index":65,"time_elapsed":326371,"internal_node_id":"0.0-6.0-59.0"},{"sim_score":2,"rt":2722,"stimulus":"[\"img/0903/5248eedd-7e6a-4d39-91b0-06ec227f3ed0.jpg\",\"img/0866/23a224f3-2012-4fc8-8e0f-3c36f8de27fd.jpg\"]","trial_type":"similarity","trial_index":66,"time_elapsed":330099,"internal_node_id":"0.0-6.0-60.0"},{"sim_score":3,"rt":2338,"stimulus":"[\"img/0860/524b2e98-5767-4d53-942c-ebae6925659b.jpg\",\"img/0875/fb732ab5-013a-4366-9f65-27811ed157e9.jpg\"]","trial_type":"similarity","trial_index":67,"time_elapsed":333443,"internal_node_id":"0.0-6.0-61.0"},{"sim_score":2,"rt":3314,"stimulus":"[\"img/0898/cd3aaa3f-efa9-4ab3-8d6f-a6a9273ddf42.jpg\",\"img/0862/fad1d7c1-8187-43c3-942a-0fc12183e48e.jpg\"]","trial_type":"similarity","trial_index":68,"time_elapsed":337762,"internal_node_id":"0.0-6.0-62.0"},{"sim_score":1,"rt":2467,"stimulus":"[\"img/0902/ca3160ba-ad5d-459f-a1b6-8b4f3c85ecd5.jpg\",\"img/0766/d919cedb-f9b7-4f30-83bb-3e9c65001ceb.jpg\"]","trial_type":"similarity","trial_index":69,"time_elapsed":341235,"internal_node_id":"0.0-6.0-63.0"},{"sim_score":3,"rt":2034,"stimulus":"[\"img/0758/7fba58df-2a7a-4b76-8a8f-62739f97f271.jpg\",\"img/0864/8ddd2e30-a1d0-479f-9cbe-591213023893.jpg\"]","trial_type":"similarity","trial_index":70,"time_elapsed":344276,"internal_node_id":"0.0-6.0-64.0"},{"sim_score":2,"rt":2507,"stimulus":"[\"img/0894/7dd6ff43-f8fc-408a-8a41-a2b261871820.jpg\",\"img/0860/18dfed73-e36b-4487-a8bd-0b8cff8e3668.jpg\"]","trial_type":"similarity","trial_index":71,"time_elapsed":347788,"internal_node_id":"0.0-6.0-65.0"},{"sim_score":1,"rt":2673,"stimulus":"[\"img/0899/4408c14d-c168-4a7d-96f6-bc87bfb58f83.jpg\",\"img/0868/e0aff734-077f-40dd-9781-74821abd3621.jpg\"]","trial_type":"similarity","trial_index":72,"time_elapsed":351467,"internal_node_id":"0.0-6.0-66.0"},{"sim_score":4,"rt":3386,"stimulus":"[\"img/0866/02f5e6b9-52b7-448c-9708-5b460d0c9a23.jpg\",\"img/0862/24cdc752-c2e5-4a17-86a6-6f2045d8553b.jpg\"]","trial_type":"similarity","trial_index":73,"time_elapsed":355859,"internal_node_id":"0.0-6.0-67.0"},{"sim_score":1,"rt":2258,"stimulus":"[\"img/0860/f44ba3fb-03a2-42f0-8509-2c1ded493086.jpg\",\"img/0758/d57c2592-a317-4f63-91be-91a3a9afd222.jpg\"]","trial_type":"similarity","trial_index":74,"time_elapsed":359123,"internal_node_id":"0.0-6.0-68.0"},{"sim_score":1,"rt":2578,"stimulus":"[\"img/0902/27b84584-948a-485b-8749-cb09929ef631.jpg\",\"img/0867/bf560d4f-dee3-4f11-a385-705cc1aa5f3c.jpg\"]","trial_type":"similarity","trial_index":75,"time_elapsed":362707,"internal_node_id":"0.0-6.0-69.0"},{"sim_score":3,"rt":3219,"stimulus":"[\"img/0862/d0ca4c78-fc35-46ed-bdcc-8e124283c53e.jpg\",\"img/0901/77087ed2-6e12-4329-b2a5-605bca6d972d.jpg\"]","trial_type":"similarity","trial_index":76,"time_elapsed":366931,"internal_node_id":"0.0-6.0-70.0"},{"sim_score":7,"rt":3523,"stimulus":"[\"img/0867/6e19c858-b606-45b2-a4c6-910a73f1d82c.jpg\",\"img/0866/620cd1aa-0800-4414-8f6e-90342e7a99ad.jpg\"]","trial_type":"similarity","trial_index":77,"time_elapsed":371459,"internal_node_id":"0.0-6.0-71.0"},{"sim_score":3,"rt":3585,"stimulus":"[\"img/0860/d9a0d117-6d1d-41c0-8fec-9aff0fd9e9f2.jpg\",\"img/0904/9d30eff1-46ef-4453-b11e-124ef8145c00.jpg\"]","trial_type":"similarity","trial_index":78,"time_elapsed":376050,"internal_node_id":"0.0-6.0-72.0"},{"sim_score":1,"rt":1939,"stimulus":"[\"img/0875/34132396-d896-4c2d-8087-646dd867e769.jpg\",\"img/0899/d60714ae-98d7-4564-8c98-94dba1351135.jpg\"]","trial_type":"similarity","trial_index":79,"time_elapsed":378996,"internal_node_id":"0.0-6.0-73.0"},{"sim_score":1,"rt":2793,"stimulus":"[\"img/0899/f58b8d2f-b19d-4b59-8b94-8834be92e4ba.jpg\",\"img/0758/7ffbc76b-1fc1-432c-8f7e-9ec8d1b3f643.jpg\"]","trial_type":"similarity","trial_index":80,"time_elapsed":382795,"internal_node_id":"0.0-6.0-74.0"},{"sim_score":1,"rt":2474,"stimulus":"[\"img/0862/e0f1a4e9-e1b6-45f7-af67-89f334e6630d.jpg\",\"img/0875/5a716432-c6ca-4b1c-955a-2b8ac25198ee.jpg\"]","trial_type":"similarity","trial_index":81,"time_elapsed":388097,"internal_node_id":"0.0-6.0-75.0"},{"sim_score":3,"rt":2844,"stimulus":"[\"img/0901/bc47e078-bda4-40ed-b89a-bbd819164b95.jpg\",\"img/0894/b2d2f66e-e480-46da-a02a-6d0c6b285d78.jpg\"]","trial_type":"similarity","trial_index":82,"time_elapsed":391947,"internal_node_id":"0.0-6.0-76.0"},{"sim_score":2,"rt":1987,"stimulus":"[\"img/0766/f3276cc4-65de-4c2d-88d5-6cfebce14b8f.jpg\",\"img/0758/dd559618-7f09-4a07-8018-d311c4a5ea29.jpg\"]","trial_type":"similarity","trial_index":83,"time_elapsed":394939,"internal_node_id":"0.0-6.0-77.0"},{"sim_score":5,"rt":2691,"stimulus":"[\"img/0894/133a1636-d123-4893-873c-1718050f832a.jpg\",\"img/0764/e42c1dc9-7831-4995-be19-7ca7b4d141fc.jpg\"]","trial_type":"similarity","trial_index":84,"time_elapsed":398635,"internal_node_id":"0.0-6.0-78.0"},{"sim_score":2,"rt":1858,"stimulus":"[\"img/0860/fd4662f9-4c03-4d79-8593-06735e55a64b.jpg\",\"img/0867/c71dc569-f49c-4397-8381-68b8d726736d.jpg\"]","trial_type":"similarity","trial_index":85,"time_elapsed":401499,"internal_node_id":"0.0-6.0-79.0"},{"sim_score":4,"rt":2147,"stimulus":"[\"img/0898/81b08535-2020-4c15-9ce4-2f1e460755ae.jpg\",\"img/0901/7d4a3388-488d-4e9b-9d32-9d0def7aae8d.jpg\"]","trial_type":"similarity","trial_index":86,"time_elapsed":404652,"internal_node_id":"0.0-6.0-80.0"},{"sim_score":2,"rt":2208,"stimulus":"[\"img/0874/1016b306-087c-4afc-aa08-fa527b28dc76.jpg\",\"img/0764/e30dba15-e68a-4659-89db-e1654b52fe02.jpg\"]","trial_type":"similarity","trial_index":87,"time_elapsed":407866,"internal_node_id":"0.0-6.0-81.0"},{"sim_score":2,"rt":2255,"stimulus":"[\"img/0899/b45c550b-96c3-4255-ad59-48a2b4db1c1e.jpg\",\"img/0862/f43ceabf-acc1-4107-b857-5d1849808f93.jpg\"]","trial_type":"similarity","trial_index":88,"time_elapsed":411126,"internal_node_id":"0.0-6.0-82.0"},{"sim_score":1,"rt":4879,"stimulus":"[\"img/0766/e8052e17-9dae-4139-802b-6e590cb2d526.jpg\",\"img/0901/31c032fd-3c3d-4882-a226-da9a80198937.jpg\"]","trial_type":"similarity","trial_index":89,"time_elapsed":417011,"internal_node_id":"0.0-6.0-83.0"},{"sim_score":1,"rt":2771,"stimulus":"[\"img/0881/7e822106-76f7-4b10-a805-14dc68b2cfaf.jpg\",\"img/0898/e167334e-cc1d-4986-b3b1-c7bc7da64baa.jpg\"]","trial_type":"similarity","trial_index":90,"time_elapsed":420789,"internal_node_id":"0.0-6.0-84.0"},{"sim_score":2,"rt":5767,"stimulus":"[\"img/0868/5fa7f9d0-f0e5-454c-8224-74d964818f56.jpg\",\"img/0860/8fdba999-b946-4c7d-9891-336018b563ef.jpg\"]","trial_type":"similarity","trial_index":91,"time_elapsed":427563,"internal_node_id":"0.0-6.0-85.0"},{"sim_score":1,"rt":2307,"stimulus":"[\"img/0758/67c0be2f-9e91-48b3-8219-70ac0a1802fa.jpg\",\"img/0868/d98ca254-b195-477f-b57e-5760a2717db8.jpg\"]","trial_type":"similarity","trial_index":92,"time_elapsed":430875,"internal_node_id":"0.0-6.0-86.0"},{"sim_score":1,"rt":2866,"stimulus":"[\"img/0864/3651d070-2fc5-4848-b6a6-088a2d9ac5c9.jpg\",\"img/0894/492d2f29-d7b9-4422-8be8-47fd58bfaa8b.jpg\"]","trial_type":"similarity","trial_index":93,"time_elapsed":434747,"internal_node_id":"0.0-6.0-87.0"},{"sim_score":2,"rt":3050,"stimulus":"[\"img/0866/d266fece-59b3-46fa-b69f-96f6efb81b59.jpg\",\"img/0902/40d0b6ec-3907-4573-b227-e7d8e9cad1c3.jpg\"]","trial_type":"similarity","trial_index":94,"time_elapsed":438803,"internal_node_id":"0.0-6.0-88.0"},{"sim_score":2,"rt":3794,"stimulus":"[\"img/0769/1ca58b80-2365-446d-9616-6c1719e6c46f.jpg\",\"img/0867/cc72ed48-7704-422c-86d6-467a1145287a.jpg\"]","trial_type":"similarity","trial_index":95,"time_elapsed":443603,"internal_node_id":"0.0-6.0-89.0"},{"sim_score":1,"rt":2266,"stimulus":"[\"img/0874/c0378dac-9370-439a-8b79-db27c96fb390.jpg\",\"img/0875/f87b67d7-c33e-40d1-b281-248c4be1cb6e.jpg\"]","trial_type":"similarity","trial_index":96,"time_elapsed":446874,"internal_node_id":"0.0-6.0-90.0"},{"sim_score":5,"rt":2459,"stimulus":"[\"img/0864/c3b63e8f-ea39-4d70-a1f2-b3fe4be8eb75.jpg\",\"img/0874/29830da7-be5f-44e5-b141-652a0ccf7269.jpg\"]","trial_type":"similarity","trial_index":97,"time_elapsed":450339,"internal_node_id":"0.0-6.0-91.0"},{"sim_score":4,"rt":2635,"stimulus":"[\"img/0881/ed4c971f-0873-4fc8-b6d6-e8bbd82f0bcc.jpg\",\"img/0862/4f0a3b4c-afbf-486e-b248-1d54982f54b4.jpg\"]","trial_type":"similarity","trial_index":98,"time_elapsed":453979,"internal_node_id":"0.0-6.0-92.0"},{"sim_score":5,"rt":2097,"stimulus":"[\"img/0864/0f537697-a314-47c3-a8cc-8df23b7e536c.jpg\",\"img/0881/f037e3b0-09cb-4a83-b2d9-6a71fe474e63.jpg\"]","trial_type":"similarity","trial_index":99,"time_elapsed":457083,"internal_node_id":"0.0-6.0-93.0"},{"sim_score":1,"rt":2502,"stimulus":"[\"img/0899/fd9efb43-701f-4cd6-baaa-4c38315f4bdc.jpg\",\"img/0901/443f2e59-199b-4f7b-9de9-c44ad97326a5.jpg\"]","trial_type":"similarity","trial_index":100,"time_elapsed":460590,"internal_node_id":"0.0-6.0-94.0"},{"sim_score":2,"rt":2656,"stimulus":"[\"img/0874/eba003b4-cdab-4eee-8bc3-f064c7d94165.jpg\",\"img/0766/ba35c0fc-4d5b-490d-959e-c94b279cdd02.jpg\"]","trial_type":"similarity","trial_index":101,"time_elapsed":464251,"internal_node_id":"0.0-6.0-95.0"},{"sim_score":1,"rt":2186,"stimulus":"[\"img/0881/62a64f90-7a72-4aee-a1a1-0c548ac9bdda.jpg\",\"img/0899/06b0fc99-0581-461a-9913-d1a5a941ac61.jpg\"]","trial_type":"similarity","trial_index":102,"time_elapsed":467443,"internal_node_id":"0.0-6.0-96.0"},{"sim_score":3,"rt":2226,"stimulus":"[\"img/0862/eefa5588-9efd-4591-aa5f-a2e17c7d7bcc.jpg\",\"img/0902/6730b12a-f0a7-4587-8c10-a32fae16565b.jpg\"]","trial_type":"similarity","trial_index":103,"time_elapsed":470675,"internal_node_id":"0.0-6.0-97.0"},{"sim_score":5,"rt":2386,"stimulus":"[\"img/0899/00715b3f-851b-420b-a26b-d7f79f7759a9.jpg\",\"img/0764/cffc80b0-4a90-4acb-a530-6f480f3ca303.jpg\"]","trial_type":"similarity","trial_index":104,"time_elapsed":474067,"internal_node_id":"0.0-6.0-98.0"},{"sim_score":3,"rt":3130,"stimulus":"[\"img/0758/b76ceca7-95ac-46e4-ac13-da02c8e93be9.jpg\",\"img/0862/e8cc3bdf-cc43-4565-bccf-492626c70953.jpg\"]","trial_type":"similarity","trial_index":105,"time_elapsed":478202,"internal_node_id":"0.0-6.0-99.0"},{"sim_score":2,"rt":1906,"stimulus":"[\"img/0764/6c7fe363-2d37-418f-9e5e-a3273af5d4fb.jpg\",\"img/0898/a114b375-cb89-44ba-9498-74213f1ecdee.jpg\"]","trial_type":"similarity","trial_index":106,"time_elapsed":481114,"internal_node_id":"0.0-6.0-100.0"},{"sim_score":1,"rt":1897,"stimulus":"[\"img/0901/d61f267a-c492-4db6-9bfb-61efd49cf072.jpg\",\"img/0902/a6fb6dd5-696c-47ec-be7d-d7b88f1544f1.jpg\"]","trial_type":"similarity","trial_index":107,"time_elapsed":484019,"internal_node_id":"0.0-6.0-101.0"},{"sim_score":1,"rt":2763,"stimulus":"[\"img/0764/d7f3ac54-318a-4dac-a06b-62bed34d01a4.jpg\",\"img/0868/77091fc7-a590-4ebb-b915-fdb2483a2399.jpg\"]","trial_type":"similarity","trial_index":108,"time_elapsed":487787,"internal_node_id":"0.0-6.0-102.0"},{"sim_score":3,"rt":2347,"stimulus":"[\"img/0769/f229321f-04dd-42d7-b14a-ffad6b509862.jpg\",\"img/0881/0c7068da-d0d9-4103-bda1-74ef7a2b32c3.jpg\"]","trial_type":"similarity","trial_index":109,"time_elapsed":491141,"internal_node_id":"0.0-6.0-103.0"},{"sim_score":2,"rt":2336,"stimulus":"[\"img/0864/b3c4e378-28f0-4699-9338-2a257b4bca04.jpg\",\"img/0769/75f7e514-0548-4329-b1e4-93c05e74f038.jpg\"]","trial_type":"similarity","trial_index":110,"time_elapsed":494482,"internal_node_id":"0.0-6.0-104.0"},{"sim_score":7,"rt":2083,"stimulus":"[\"img/0866/0207e9a2-7dbb-40b5-9459-b472aaeceb2a.jpg\",\"img/0868/3a62db2d-97e9-44a3-b8e3-a48c6f0e423b.jpg\"]","trial_type":"similarity","trial_index":111,"time_elapsed":497570,"internal_node_id":"0.0-6.0-105.0"},{"sim_score":2,"rt":2452,"stimulus":"[\"img/0868/8b0b8473-e2c0-4331-aa56-c3a5c29369da.jpg\",\"img/0862/fb26cb07-d5a9-4653-813c-f41609f26cd5.jpg\"]","trial_type":"similarity","trial_index":112,"time_elapsed":501027,"internal_node_id":"0.0-6.0-106.0"},{"sim_score":4,"rt":2811,"stimulus":"[\"img/0766/f5f78e4e-d88f-4866-951a-118ba9fec4d0.jpg\",\"img/0898/6cd3830b-d44e-4915-be2b-88d31424b91c.jpg\"]","trial_type":"similarity","trial_index":113,"time_elapsed":504844,"internal_node_id":"0.0-6.0-107.0"},{"sim_score":2,"rt":2282,"stimulus":"[\"img/0898/68476bbb-34a1-42d9-8bc1-deab783d4489.jpg\",\"img/0864/c22faebd-9c53-47bc-ada3-b9a30c688e75.jpg\"]","trial_type":"similarity","trial_index":114,"time_elapsed":508132,"internal_node_id":"0.0-6.0-108.0"},{"sim_score":1,"rt":1985,"stimulus":"[\"img/0868/09a9ef4d-d000-4cfa-a6aa-ebec7c2edeb4.jpg\",\"img/0902/2db723b6-130f-454c-8c8d-88829edbcd65.jpg\"]","trial_type":"similarity","trial_index":115,"time_elapsed":511123,"internal_node_id":"0.0-6.0-109.0"},{"sim_score":5,"rt":2146,"stimulus":"[\"img/0904/a8c3c7d2-9bcf-4347-9e03-8203adfc1fc5.jpg\",\"img/0764/974d52cc-6318-4e7a-b294-2f3e92ff800f.jpg\"]","trial_type":"similarity","trial_index":116,"time_elapsed":514274,"internal_node_id":"0.0-6.0-110.0"},{"sim_score":1,"rt":2534,"stimulus":"[\"img/0894/5f15154e-e72e-4ce5-aafb-bce6f0564006.jpg\",\"img/0875/d59ff733-eaff-4ee2-9443-06954dd0bcb6.jpg\"]","trial_type":"similarity","trial_index":117,"time_elapsed":517813,"internal_node_id":"0.0-6.0-111.0"},{"sim_score":1,"rt":2426,"stimulus":"[\"img/0868/fd307a36-9a3a-47d7-ab7c-f810d0b35040.jpg\",\"img/0874/ca76a855-4e77-4f2f-872a-0a718153e7ed.jpg\"]","trial_type":"similarity","trial_index":118,"time_elapsed":521244,"internal_node_id":"0.0-6.0-112.0"},{"sim_score":5,"rt":2401,"stimulus":"[\"img/0904/65e2b70a-b184-4da3-b5c0-5038bdf9469a.jpg\",\"img/0898/881e2a85-d5c2-49be-a0c6-8a6ce2c4af08.jpg\"]","trial_type":"similarity","trial_index":119,"time_elapsed":526265,"internal_node_id":"0.0-6.0-113.0"},{"sim_score":4,"rt":38700,"stimulus":"[\"img/0860/5383b320-1518-4095-a58e-5cc1ae30b64c.jpg\",\"img/0766/c23b5a20-e50f-4d85-841f-cf89212a4348.jpg\"]","trial_type":"similarity","trial_index":120,"time_elapsed":565971,"internal_node_id":"0.0-6.0-114.0"},{"sim_score":2,"rt":3084,"stimulus":"[\"img/0894/5a49e858-2850-4892-9a06-e9f0efb5f94d.jpg\",\"img/0874/31e22c7c-99aa-40b1-bf03-dd73fa2df4d6.jpg\"]","trial_type":"similarity","trial_index":121,"time_elapsed":570059,"internal_node_id":"0.0-6.0-115.0"},{"sim_score":4,"rt":2819,"stimulus":"[\"img/0899/66bf4113-ee12-426c-84d2-ea410b6c803e.jpg\",\"img/0903/680ed18e-b311-4ecf-9b00-7dea32128334.jpg\"]","trial_type":"similarity","trial_index":122,"time_elapsed":573883,"internal_node_id":"0.0-6.0-116.0"},{"sim_score":2,"rt":3555,"stimulus":"[\"img/0881/db77fe00-aeb0-4d1d-aa66-f3a96fd077e4.jpg\",\"img/0764/d7c215ab-ea9a-45be-8d5f-417d5b9a8a17.jpg\"]","trial_type":"similarity","trial_index":123,"time_elapsed":578443,"internal_node_id":"0.0-6.0-117.0"},{"sim_score":5,"rt":2817,"stimulus":"[\"img/0903/5c6b1f57-b3a2-40f5-9fb1-82785e24b6a0.jpg\",\"img/0769/38a88f69-28fd-4bbd-99f0-f4c02bfd3995.jpg\"]","trial_type":"similarity","trial_index":124,"time_elapsed":582267,"internal_node_id":"0.0-6.0-118.0"},{"sim_score":4,"rt":2377,"stimulus":"[\"img/0901/d4d09bf5-093e-4050-838e-7c738be8e63c.jpg\",\"img/0904/09934646-45d2-4147-8fec-64a22a5ac822.jpg\"]","trial_type":"similarity","trial_index":125,"time_elapsed":585650,"internal_node_id":"0.0-6.0-119.0"},{"sim_score":2,"rt":3039,"stimulus":"[\"img/0860/5bff793e-cbd5-4d7e-b628-0ac2b0e30b64.jpg\",\"img/0881/d1982897-8d8d-4704-a940-1ee5d07a1f15.jpg\"]","trial_type":"similarity","trial_index":126,"time_elapsed":589694,"internal_node_id":"0.0-6.0-120.0"},{"sim_score":4,"rt":2913,"stimulus":"[\"img/0758/2fa3e613-e676-4e6e-bd12-705327eeb3e1.jpg\",\"img/0874/767f289c-9814-4496-803f-745cc8913d1f.jpg\"]","trial_type":"similarity","trial_index":127,"time_elapsed":593612,"internal_node_id":"0.0-6.0-121.0"},{"sim_score":4,"rt":1970,"stimulus":"[\"img/0901/a6c90438-fa7c-4418-ac7c-16c2e772dd98.jpg\",\"img/0769/9ea27d61-3d55-418c-8d14-82e90f656f01.jpg\"]","trial_type":"similarity","trial_index":128,"time_elapsed":596587,"internal_node_id":"0.0-6.0-122.0"},{"sim_score":6,"rt":2938,"stimulus":"[\"img/0902/c920f0e1-1c81-480f-a164-c77f2dc6ce9a.jpg\",\"img/0904/9dd5708f-3f8b-46a9-b49f-2f2fab87b357.jpg\"]","trial_type":"similarity","trial_index":129,"time_elapsed":600530,"internal_node_id":"0.0-6.0-123.0"},{"sim_score":2,"rt":4779,"stimulus":"[\"img/0899/8de08897-b430-42fe-9d42-840670b80f94.jpg\",\"img/0864/9b2490c5-a282-400a-9736-e1a0ecbf1cb7.jpg\"]","trial_type":"similarity","trial_index":130,"time_elapsed":606315,"internal_node_id":"0.0-6.0-124.0"},{"sim_score":1,"rt":2681,"stimulus":"[\"img/0766/214866ee-423d-4629-9bb9-41572bdc7dac.jpg\",\"img/0868/4a8a45ed-2c4f-421b-9564-409a33ecd26c.jpg\"]","trial_type":"similarity","trial_index":131,"time_elapsed":610003,"internal_node_id":"0.0-6.0-125.0"},{"sim_score":2,"rt":3993,"stimulus":"[\"img/0764/c84fbfa8-521c-407a-9bd3-24f7308d896c.jpg\",\"img/0864/e8bd659f-aa43-4748-877e-3118e8b4e189.jpg\"]","trial_type":"similarity","trial_index":132,"time_elapsed":615003,"internal_node_id":"0.0-6.0-126.0"},{"sim_score":1,"rt":2554,"stimulus":"[\"img/0899/f95cbdb4-f804-4f5d-ad76-373ad343e658.jpg\",\"img/0866/945c6710-d15b-4a5b-a8f6-69af0850357f.jpg\"]","trial_type":"similarity","trial_index":133,"time_elapsed":618562,"internal_node_id":"0.0-6.0-127.0"},{"sim_score":1,"rt":2187,"stimulus":"[\"img/0901/5657dd86-0ff9-4753-ba2b-9dfb223e5c89.jpg\",\"img/0881/19e82c47-8e4b-45d2-a6c8-74181eb4155e.jpg\"]","trial_type":"similarity","trial_index":134,"time_elapsed":621754,"internal_node_id":"0.0-6.0-128.0"},{"sim_score":5,"rt":2363,"stimulus":"[\"img/0898/b2732712-71c2-45d8-834f-2b2ed5504910.jpg\",\"img/0903/9b60ef5b-234f-4239-892b-3d4c412accc2.jpg\"]","trial_type":"similarity","trial_index":135,"time_elapsed":625127,"internal_node_id":"0.0-6.0-129.0"},{"sim_score":3,"rt":4175,"stimulus":"[\"img/0894/9b1333fd-3561-43bf-aee5-99b7b7ca3dc3.jpg\",\"img/0867/98d8cd96-1476-4fe0-a3a3-04f875500a1b.jpg\"]","trial_type":"similarity","trial_index":136,"time_elapsed":630307,"internal_node_id":"0.0-6.0-130.0"},{"sim_score":2,"rt":2347,"stimulus":"[\"img/0874/7e4f2150-3b59-4a36-b5da-a4e0ba410531.jpg\",\"img/0903/e2e55a9e-0397-4dc0-8adf-4a54cfefe1fe.jpg\"]","trial_type":"similarity","trial_index":137,"time_elapsed":633659,"internal_node_id":"0.0-6.0-131.0"},{"sim_score":2,"rt":3522,"stimulus":"[\"img/0899/ddf96ade-692e-4602-bd22-dedbb46401bc.jpg\",\"img/0898/993d8f2d-bef7-4251-a193-0f93a32b7763.jpg\"]","trial_type":"similarity","trial_index":138,"time_elapsed":638186,"internal_node_id":"0.0-6.0-132.0"},{"sim_score":1,"rt":2035,"stimulus":"[\"img/0867/c66898ba-b71b-4d50-84f9-f7f84853a98d.jpg\",\"img/0764/cbdc4f20-3a9a-4211-9b40-090699e0abcc.jpg\"]","trial_type":"similarity","trial_index":139,"time_elapsed":641227,"internal_node_id":"0.0-6.0-133.0"},{"sim_score":1,"rt":2122,"stimulus":"[\"img/0866/a15b02be-11bb-43e3-b0e0-ecc3bd7dfc49.jpg\",\"img/0769/35f2dd39-40aa-498e-b401-9f1ef2622d00.jpg\"]","trial_type":"similarity","trial_index":140,"time_elapsed":644355,"internal_node_id":"0.0-6.0-134.0"},{"sim_score":3,"rt":1986,"stimulus":"[\"img/0860/61fb959d-d4d9-4de4-9e4e-4fa62b4cfcd5.jpg\",\"img/0898/224c1572-56b9-4f16-a9e4-6f3bc9c114bd.jpg\"]","trial_type":"similarity","trial_index":141,"time_elapsed":647347,"internal_node_id":"0.0-6.0-135.0"},{"sim_score":2,"rt":1954,"stimulus":"[\"img/0881/2a8413be-fec2-4de6-88ad-614dd4cccc9d.jpg\",\"img/0903/aa842abe-6fa3-448a-bf71-88d3ad28663b.jpg\"]","trial_type":"similarity","trial_index":142,"time_elapsed":650306,"internal_node_id":"0.0-6.0-136.0"},{"sim_score":5,"rt":2594,"stimulus":"[\"img/0894/c505c65a-cde2-4f2c-8cde-f8676f7c894d.jpg\",\"img/0766/79767d11-b612-4e8a-9e4b-a8ac95bb6a54.jpg\"]","trial_type":"similarity","trial_index":143,"time_elapsed":653906,"internal_node_id":"0.0-6.0-137.0"},{"sim_score":2,"rt":2924,"stimulus":"[\"img/0860/c5ccd1a4-4bb7-48e1-9b25-72cfaf06909b.jpg\",\"img/0764/ec2dd087-c471-4370-b570-95a542506a96.jpg\"]","trial_type":"similarity","trial_index":144,"time_elapsed":657835,"internal_node_id":"0.0-6.0-138.0"},{"sim_score":3,"rt":5501,"stimulus":"[\"img/0769/688d0c52-ad73-4065-a5eb-f8c10d076bff.jpg\",\"img/0902/22ed3536-288b-452e-9777-0fa0ab94deb0.jpg\"]","trial_type":"similarity","trial_index":145,"time_elapsed":664341,"internal_node_id":"0.0-6.0-139.0"},{"sim_score":6,"rt":4296,"stimulus":"[\"img/0904/ba8e689e-9ca6-4608-a2a1-3b0940666ae6.jpg\",\"img/0903/6138142e-c84e-45fc-9487-c974f3d4968a.jpg\"]","trial_type":"similarity","trial_index":146,"time_elapsed":669643,"internal_node_id":"0.0-6.0-140.0"},{"sim_score":6,"rt":2626,"stimulus":"[\"img/0764/438c0217-036f-43c9-9b87-f43144e46011.jpg\",\"img/0769/3c1203c5-2ce7-466e-957a-8d77b5905460.jpg\"]","trial_type":"similarity","trial_index":147,"time_elapsed":673274,"internal_node_id":"0.0-6.0-141.0"},{"sim_score":2,"rt":2155,"stimulus":"[\"img/0902/1a120fb9-dbd6-443e-ba91-b4aceab963da.jpg\",\"img/0881/f62bdcd1-a4b7-4d48-83da-d9c9e01c8727.jpg\"]","trial_type":"similarity","trial_index":148,"time_elapsed":676435,"internal_node_id":"0.0-6.0-142.0"},{"sim_score":2,"rt":3026,"stimulus":"[\"img/0866/d493a2c8-66eb-44b4-be02-2f327b700b7c.jpg\",\"img/0864/f92649a2-0590-4d31-9a7a-1bfb81666a2d.jpg\"]","trial_type":"similarity","trial_index":149,"time_elapsed":680467,"internal_node_id":"0.0-6.0-143.0"},{"sim_score":5,"rt":2459,"stimulus":"[\"img/0902/fbef27fa-ac83-4936-ab78-9d1c20a383e1.jpg\",\"img/0898/79233891-305a-4a6a-8ddf-5c8604858203.jpg\"]","trial_type":"similarity","trial_index":150,"time_elapsed":683931,"internal_node_id":"0.0-6.0-144.0"},{"sim_score":6,"rt":4115,"stimulus":"[\"img/0862/92f0146c-20c4-482e-aef5-adb693790338.jpg\",\"img/0864/6e846d43-94a6-4b37-a268-65eda979f052.jpg\"]","trial_type":"similarity","trial_index":151,"time_elapsed":689051,"internal_node_id":"0.0-6.0-145.0"},{"sim_score":1,"rt":3107,"stimulus":"[\"img/0875/5a1e5100-0d94-4fec-bbe9-ca9894d2cf8e.jpg\",\"img/0898/04e39a7a-fcf6-4156-ab0e-f5871f335e1c.jpg\"]","trial_type":"similarity","trial_index":152,"time_elapsed":693164,"internal_node_id":"0.0-6.0-146.0"},{"sim_score":6,"rt":2762,"stimulus":"[\"img/0874/ca23d307-fc00-4d7d-9106-584c6eb21b4d.jpg\",\"img/0881/f4e3e181-b3c9-4af2-a5a4-fc135ab70d2e.jpg\"]","trial_type":"similarity","trial_index":153,"time_elapsed":696931,"internal_node_id":"0.0-6.0-147.0"},{"sim_score":1,"rt":2195,"stimulus":"[\"img/0758/a085b443-b5d7-4cb2-9ad4-b9dab0fc23f1.jpg\",\"img/0894/6aa5545f-fa7d-4286-bbaa-aaf34dc7ec96.jpg\"]","trial_type":"similarity","trial_index":154,"time_elapsed":700131,"internal_node_id":"0.0-6.0-148.0"},{"sim_score":1,"rt":2666,"stimulus":"[\"img/0904/9b3568cc-3cf7-42be-9df3-fdafde7a58b8.jpg\",\"img/0864/66091c27-e588-4476-8af9-265dc6be4156.jpg\"]","trial_type":"similarity","trial_index":155,"time_elapsed":703802,"internal_node_id":"0.0-6.0-149.0"},{"sim_score":5,"rt":3147,"stimulus":"[\"img/0769/180213e5-1e50-4b4e-87b6-add77ba04d39.jpg\",\"img/0899/8abe6c69-822c-436c-9bf2-96c818b49ba5.jpg\"]","trial_type":"similarity","trial_index":156,"time_elapsed":707954,"internal_node_id":"0.0-6.0-150.0"},{"sim_score":1,"rt":3204,"stimulus":"[\"img/0764/8389e74f-e0e0-435d-945f-da1f4c92ccb6.jpg\",\"img/0903/97a42b34-5462-4665-88c7-83c014b33d24.jpg\"]","trial_type":"similarity","trial_index":157,"time_elapsed":713337,"internal_node_id":"0.0-6.0-151.0"},{"sim_score":2,"rt":2252,"stimulus":"[\"img/0903/39365c8e-a733-4801-ac7d-b87e38c3784b.jpg\",\"img/0864/ea327690-500b-4137-bf91-451b309fe6a5.jpg\"]","trial_type":"similarity","trial_index":158,"time_elapsed":716595,"internal_node_id":"0.0-6.0-152.0"},{"sim_score":2,"rt":2293,"stimulus":"[\"img/0894/3adef67d-7676-4995-80b2-bb31b8aca3ef.jpg\",\"img/0881/d373cb9f-a719-4549-a2a4-82def79fb2a5.jpg\"]","trial_type":"similarity","trial_index":159,"time_elapsed":719895,"internal_node_id":"0.0-6.0-153.0"},{"sim_score":2,"rt":2741,"stimulus":"[\"img/0875/90da8d75-108a-44ad-b999-e21fee3860d3.jpg\",\"img/0867/50a1b60e-3a29-44bf-b606-d4bd3746fea9.jpg\"]","trial_type":"similarity","trial_index":160,"time_elapsed":723643,"internal_node_id":"0.0-6.0-154.0"},{"sim_score":2,"rt":2379,"stimulus":"[\"img/0867/a498eef3-9fa4-4ab2-9778-4ae82ac40dc5.jpg\",\"img/0758/20497cbe-ddae-489e-86e2-ab06985ed07c.jpg\"]","trial_type":"similarity","trial_index":161,"time_elapsed":727027,"internal_node_id":"0.0-6.0-155.0"},{"sim_score":2,"rt":2411,"stimulus":"[\"img/0868/15dd6fd7-791e-4b53-b203-195d617521a4.jpg\",\"img/0901/4ca4f962-40c0-4c59-b14a-3cd7b8c9029b.jpg\"]","trial_type":"similarity","trial_index":162,"time_elapsed":730443,"internal_node_id":"0.0-6.0-156.0"},{"sim_score":6,"rt":1931,"stimulus":"[\"img/0769/04347740-f8f6-48bb-887a-f68babd0a0d4.jpg\",\"img/0894/7fb082e0-ce79-485c-9109-04367fb32275.jpg\"]","trial_type":"similarity","trial_index":163,"time_elapsed":733379,"internal_node_id":"0.0-6.0-157.0"},{"sim_score":1,"rt":1829,"stimulus":"[\"img/0904/b5855d6a-7ef9-46ca-9215-6e9fa046e543.jpg\",\"img/0758/821c68d3-5cb0-4eae-8659-30e6263fca39.jpg\"]","trial_type":"similarity","trial_index":164,"time_elapsed":736213,"internal_node_id":"0.0-6.0-158.0"},{"sim_score":1,"rt":1969,"stimulus":"[\"img/0874/3ce41e7c-40c8-4d58-a546-171114521796.jpg\",\"img/0904/4d7d70a3-9477-4921-bda0-f9531d0a5c5b.jpg\"]","trial_type":"similarity","trial_index":165,"time_elapsed":739188,"internal_node_id":"0.0-6.0-159.0"},{"sim_score":1,"rt":2275,"stimulus":"[\"img/0864/ef9cbca0-4be8-435d-ad49-977259e80409.jpg\",\"img/0901/b13fa50f-dbe0-4d0f-8647-6ac0fd8f40bd.jpg\"]","trial_type":"similarity","trial_index":166,"time_elapsed":742470,"internal_node_id":"0.0-6.0-160.0"},{"sim_score":1,"rt":2282,"stimulus":"[\"img/0898/b3290bf9-215b-4b45-b21a-65bdf73f142f.jpg\",\"img/0866/11a1d141-be5e-443c-98c1-a9d4d9e3dec0.jpg\"]","trial_type":"similarity","trial_index":167,"time_elapsed":745759,"internal_node_id":"0.0-6.0-161.0"},{"sim_score":3,"rt":2023,"stimulus":"[\"img/0766/989c5c7f-1aff-4442-ac63-9d46acf4a891.jpg\",\"img/0903/0e5c2854-42aa-48c0-9c3d-6e1ad2a400bd.jpg\"]","trial_type":"similarity","trial_index":168,"time_elapsed":748788,"internal_node_id":"0.0-6.0-162.0"},{"sim_score":1,"rt":2089,"stimulus":"[\"img/0860/99c589b9-9140-4d17-90c0-b344323edcda.jpg\",\"img/0899/5b56dd3e-3f49-47cc-af84-16da6457753b.jpg\"]","trial_type":"similarity","trial_index":169,"time_elapsed":751883,"internal_node_id":"0.0-6.0-163.0"},{"sim_score":2,"rt":2442,"stimulus":"[\"img/0766/d512b99c-a2dc-40d7-8e86-827323a0cbcf.jpg\",\"img/0862/5d887e9f-89e2-4ebc-80a0-6d46fe6480db.jpg\"]","trial_type":"similarity","trial_index":170,"time_elapsed":755331,"internal_node_id":"0.0-6.0-164.0"},{"sim_score":5,"rt":2179,"stimulus":"[\"img/0898/0c7dde4f-efce-4b7a-9387-6921635b7890.jpg\",\"img/0894/38f5931f-926d-414e-b498-66b188978b7a.jpg\"]","trial_type":"similarity","trial_index":171,"time_elapsed":758515,"internal_node_id":"0.0-6.0-165.0"},{"sim_score":1,"rt":2098,"stimulus":"[\"img/0867/db7e032f-162b-46f5-ae67-2b29679adee4.jpg\",\"img/0766/91fc8c4d-862f-4d2b-b1a1-2db8d729b6b7.jpg\"]","trial_type":"similarity","trial_index":172,"time_elapsed":761618,"internal_node_id":"0.0-6.0-166.0"},{"sim_score":2,"rt":2627,"stimulus":"[\"img/0904/6291eb43-c10c-4810-a36a-101d09868b04.jpg\",\"img/0862/53a9cf7c-93c4-41b9-952f-07d17f7a17b2.jpg\"]","trial_type":"similarity","trial_index":173,"time_elapsed":765251,"internal_node_id":"0.0-6.0-167.0"},{"sim_score":1,"rt":1994,"stimulus":"[\"img/0866/bf14b5bd-fb55-47db-86b9-4f8aeb9a6dad.jpg\",\"img/0874/99f6563c-8a8d-4c1c-a41d-667b618c3fd5.jpg\"]","trial_type":"similarity","trial_index":174,"time_elapsed":768251,"internal_node_id":"0.0-6.0-168.0"},{"sim_score":1,"rt":2171,"stimulus":"[\"img/0903/8fcafe03-43df-4c45-9da5-0df3a1eeccc5.jpg\",\"img/0868/4e626425-63c8-484a-8a1d-e66ee4e0bef8.jpg\"]","trial_type":"similarity","trial_index":175,"time_elapsed":771427,"internal_node_id":"0.0-6.0-169.0"},{"sim_score":5,"rt":4162,"stimulus":"[\"img/0769/4680bcc3-8fbc-4643-8f9a-12aa0e780b64.jpg\",\"img/0904/5aec2708-cf14-4a58-aa30-9a8a61c1be0e.jpg\"]","trial_type":"similarity","trial_index":176,"time_elapsed":776594,"internal_node_id":"0.0-6.0-170.0"},{"sim_score":1,"rt":1708,"stimulus":"[\"img/0875/5a7c4e35-6514-4e12-8879-d16071da4cd6.jpg\",\"img/0764/62fafeea-6274-48ce-976f-35d3d3484c65.jpg\"]","trial_type":"similarity","trial_index":177,"time_elapsed":779307,"internal_node_id":"0.0-6.0-171.0"},{"sim_score":3,"rt":3067,"stimulus":"[\"img/0860/15b24a61-25be-4356-9eac-5ce95d0cb4a4.jpg\",\"img/0903/8f7f9939-b8e6-433f-93dd-b362496c80a7.jpg\"]","trial_type":"similarity","trial_index":178,"time_elapsed":783379,"internal_node_id":"0.0-6.0-172.0"},{"sim_score":1,"rt":1683,"stimulus":"[\"img/0864/3d4de670-b290-4285-9c3d-12a0e3af44e9.jpg\",\"img/0867/f8488a47-94ee-4166-952c-44e16cf172f6.jpg\"]","trial_type":"similarity","trial_index":179,"time_elapsed":786067,"internal_node_id":"0.0-6.0-173.0"},{"sim_score":1,"rt":2026,"stimulus":"[\"img/0868/c8ac40c7-6904-4e13-8d61-c75d3052dc4e.jpg\",\"img/0864/0116ca98-293d-4fa6-a93b-5a6144ef64cc.jpg\"]","trial_type":"similarity","trial_index":180,"time_elapsed":789099,"internal_node_id":"0.0-6.0-174.0"},{"sim_score":5,"rt":1818,"stimulus":"[\"img/0898/c3cecf20-f7fd-45fa-97d0-dc0a63e8d6c0.jpg\",\"img/0769/022c7e3b-c3f2-4119-b4bc-f22fa7cae18c.jpg\"]","trial_type":"similarity","trial_index":181,"time_elapsed":791923,"internal_node_id":"0.0-6.0-175.0"},{"sim_score":5,"rt":2706,"stimulus":"[\"img/0766/a0270213-fa0e-4972-8b56-228c3e01ff90.jpg\",\"img/0764/8740679b-b56f-4292-aece-14063457113a.jpg\"]","trial_type":"similarity","trial_index":182,"time_elapsed":795634,"internal_node_id":"0.0-6.0-176.0"},{"sim_score":1,"rt":1892,"stimulus":"[\"img/0764/1f95ab5f-fb65-4d70-b5db-d6bd6351a8aa.jpg\",\"img/0866/9b38d691-1802-4959-ab3f-fc902f0e4ea6.jpg\"]","trial_type":"similarity","trial_index":183,"time_elapsed":798533,"internal_node_id":"0.0-6.0-177.0"},{"sim_score":1,"rt":2881,"stimulus":"[\"img/0902/95a36b6b-9601-4fa5-8fd9-606ea62f9425.jpg\",\"img/0875/2c361b79-c3d1-4eda-812e-bf03192407bf.jpg\"]","trial_type":"similarity","trial_index":184,"time_elapsed":802419,"internal_node_id":"0.0-6.0-178.0"},{"sim_score":3,"rt":2738,"stimulus":"[\"img/0881/e6746727-7f89-47ec-b939-d98abe78372d.jpg\",\"img/0904/2c98dc56-88d1-4fb5-a999-b6a7861f65f0.jpg\"]","trial_type":"similarity","trial_index":185,"time_elapsed":806164,"internal_node_id":"0.0-6.0-179.0"},{"sim_score":1,"rt":2081,"stimulus":"[\"img/0874/bf14b896-e930-4fd9-9c05-2e83317a2773.jpg\",\"img/0860/94ef7afc-e0e6-4a15-98c6-0bfac82bc832.jpg\"]","trial_type":"similarity","trial_index":186,"time_elapsed":809250,"internal_node_id":"0.0-6.0-180.0"},{"sim_score":1,"rt":2197,"stimulus":"[\"img/0769/458d9c77-b844-40b5-bb1b-1e3bbd4da64e.jpg\",\"img/0874/995f0332-0439-4eb4-add3-957335dbf6d9.jpg\"]","trial_type":"similarity","trial_index":187,"time_elapsed":812452,"internal_node_id":"0.0-6.0-181.0"},{"sim_score":5,"rt":2268,"stimulus":"[\"img/0904/fe746a3f-8458-48d0-8a13-8cba2a9df9f8.jpg\",\"img/0766/af3be95e-e52e-4fae-899b-0ff02ec340aa.jpg\"]","trial_type":"similarity","trial_index":188,"time_elapsed":815726,"internal_node_id":"0.0-6.0-182.0"},{"sim_score":6,"rt":2808,"stimulus":"[\"img/0902/aa6fca32-82b0-4414-b20a-8f6f8aa5a2d2.jpg\",\"img/0764/83c93cce-18d1-4aa7-9e23-2c268afe0a46.jpg\"]","trial_type":"similarity","trial_index":189,"time_elapsed":819539,"internal_node_id":"0.0-6.0-183.0"},{"sim_score":1,"rt":1946,"stimulus":"[\"img/0769/ebef2ddc-ba59-4e0e-97f8-927864eb5081.jpg\",\"img/0875/a4935837-7d3c-4df6-88c1-36a94d4991ca.jpg\"]","trial_type":"similarity","trial_index":190,"time_elapsed":822491,"internal_node_id":"0.0-6.0-184.0"},{"sim_score":1,"rt":2130,"stimulus":"[\"img/0867/f26f6b60-f772-4f4c-95a4-addc62cfd692.jpg\",\"img/0903/14f179a2-8786-48a2-8377-88d1d404341b.jpg\"]","trial_type":"similarity","trial_index":191,"time_elapsed":825627,"internal_node_id":"0.0-6.0-185.0"},{"sim_score":2,"rt":3074,"stimulus":"[\"img/0862/cdaed51d-9e2f-4807-801a-4663c40077e2.jpg\",\"img/0769/8056889f-2b14-4782-bb25-b4e8896ab65b.jpg\"]","trial_type":"similarity","trial_index":192,"time_elapsed":829706,"internal_node_id":"0.0-6.0-186.0"},{"sim_score":1,"rt":2348,"stimulus":"[\"img/0766/fd74fdbb-ea40-4f3a-a091-38d08dfd636e.jpg\",\"img/0866/f756f7d1-9ad8-4a34-9ef6-7a443d705bfe.jpg\"]","trial_type":"similarity","trial_index":193,"time_elapsed":833059,"internal_node_id":"0.0-6.0-187.0"},{"sim_score":1,"rt":2043,"stimulus":"[\"img/0769/662ab839-88d1-4ebf-af05-9b2980cad943.jpg\",\"img/0860/4a022222-056d-461c-ab02-39fac9647552.jpg\"]","trial_type":"similarity","trial_index":194,"time_elapsed":836107,"internal_node_id":"0.0-6.0-188.0"},{"sim_score":1,"rt":2139,"stimulus":"[\"img/0881/44e09805-5a25-4f17-a716-4ad4a331b174.jpg\",\"img/0868/1a62b2b2-18f5-466e-b564-5176a57c565e.jpg\"]","trial_type":"similarity","trial_index":195,"time_elapsed":843457,"internal_node_id":"0.0-6.0-189.0"},{"view_history":"[{\"page_index\":0,\"viewing_time\":6615}]","rt":6616,"trial_type":"instructions","trial_index":196,"time_elapsed":851074,"internal_node_id":"0.0-7.0"},{"rt":86096,"responses":"{\"Q0\":\"Tennessee Warbler\"}","answer":["Nashville Warbler"],"trial_type":"image-multi-choice","trial_index":197,"time_elapsed":938198,"internal_node_id":"0.0-8.0-0.0"},{"rt":2809,"responses":"{\"Q0\":\"Black-and-white Warbler\"}","answer":["Black-and-white Warbler"],"trial_type":"image-multi-choice","trial_index":198,"time_elapsed":942027,"internal_node_id":"0.0-8.0-1.0"},{"rt":2597,"responses":"{\"Q0\":\"Townsend's Warbler\"}","answer":["Townsend's Warbler"],"trial_type":"image-multi-choice","trial_index":199,"time_elapsed":945643,"internal_node_id":"0.0-8.0-2.0"},{"rt":3222,"responses":"{\"Q0\":\"Lark Sparrow\"}","answer":["Lark Sparrow"],"trial_type":"image-multi-choice","trial_index":200,"time_elapsed":949883,"internal_node_id":"0.0-8.0-3.0"},{"rt":2103,"responses":"{\"Q0\":\"Yellow Warbler\"}","answer":["Yellow Warbler"],"trial_type":"image-multi-choice","trial_index":201,"time_elapsed":953005,"internal_node_id":"0.0-8.0-4.0"},{"rt":17898,"responses":"{\"Q0\":\"Tennessee Warbler\"}","answer":["Orange-crowned Warbler"],"trial_type":"image-multi-choice","trial_index":202,"time_elapsed":971923,"internal_node_id":"0.0-8.0-5.0"},{"rt":3419,"responses":"{\"Q0\":\"White-throated Sparrow\"}","answer":["White-throated Sparrow"],"trial_type":"image-multi-choice","trial_index":203,"time_elapsed":976362,"internal_node_id":"0.0-8.0-6.0"},{"rt":3870,"responses":"{\"Q0\":\"Fox Sparrow\"}","answer":["Fox Sparrow"],"trial_type":"image-multi-choice","trial_index":204,"time_elapsed":981250,"internal_node_id":"0.0-8.0-7.0"},{"rt":3774,"responses":"{\"Q0\":\"Song Sparrow\"}","answer":["Song Sparrow"],"trial_type":"image-multi-choice","trial_index":205,"time_elapsed":986042,"internal_node_id":"0.0-8.0-8.0"},{"rt":2903,"responses":"{\"Q0\":\"Blackburnian Warbler\"}","answer":["Blackburnian Warbler"],"trial_type":"image-multi-choice","trial_index":206,"time_elapsed":989963,"internal_node_id":"0.0-8.0-9.0"},{"rt":3707,"responses":"{\"Q0\":\"Vesper Sparrow\"}","answer":["Vesper Sparrow"],"trial_type":"image-multi-choice","trial_index":207,"time_elapsed":994691,"internal_node_id":"0.0-8.0-10.0"},{"rt":7581,"responses":"{\"Q0\":\"White-crowned Sparrow\"}","answer":["White-crowned Sparrow"],"trial_type":"image-multi-choice","trial_index":208,"time_elapsed":1003291,"internal_node_id":"0.0-8.0-11.0"},{"rt":3190,"responses":"{\"Q0\":\"American Tree Sparrow\"}","answer":["American Tree Sparrow"],"trial_type":"image-multi-choice","trial_index":209,"time_elapsed":1007499,"internal_node_id":"0.0-8.0-12.0"},{"rt":8719,"responses":"{\"Q0\":\"Tennessee Warbler\"}","answer":["Tennessee Warbler"],"trial_type":"image-multi-choice","trial_index":210,"time_elapsed":1017236,"internal_node_id":"0.0-8.0-13.0"},{"rt":4413,"responses":"{\"Q0\":\"Magnolia Warbler\"}","answer":["Magnolia Warbler"],"trial_type":"image-multi-choice","trial_index":211,"time_elapsed":1022668,"internal_node_id":"0.0-8.0-14.0"},{"rt":6190,"responses":"{\"Q0\":\"Northern Waterthrush\"}","answer":["Northern Waterthrush"],"trial_type":"image-multi-choice","trial_index":212,"time_elapsed":1029878,"internal_node_id":"0.0-8.0-15.0"},{"rt":3410,"responses":"{\"Q0\":\"Chipping Sparrow\"}","answer":["Chipping Sparrow"],"trial_type":"image-multi-choice","trial_index":213,"time_elapsed":1034308,"internal_node_id":"0.0-8.0-16.0"},{"rt":7405,"responses":"{\"Q0\":\"Song Sparrow\"}","answer":["Swamp Sparrow"],"trial_type":"image-multi-choice","trial_index":214,"time_elapsed":1042732,"internal_node_id":"0.0-8.0-17.0"},{"rt":3871,"responses":"{\"Q0\":\"Lincoln's Sparrow\"}","answer":["Lincoln's Sparrow"],"trial_type":"image-multi-choice","trial_index":215,"time_elapsed":1047620,"internal_node_id":"0.0-8.0-18.0"},{"rt":2965,"responses":"{\"Q0\":\"Ovenbird\"}","answer":["Ovenbird"],"trial_type":"image-multi-choice","trial_index":216,"time_elapsed":1051603,"internal_node_id":"0.0-8.0-19.0"}]