[{"view_history":"[{\"page_index\":0,\"viewing_time\":15129}]","rt":15130,"trial_type":"instructions","trial_index":0,"time_elapsed":15132,"internal_node_id":"0.0-0.0"},{"sim_score":7,"rt":8004,"stimulus":"[\"img/bluejay1.jpg\",\"img/bluejay2.jpg\"]","trial_type":"similarity_demo","trial_index":1,"time_elapsed":24150,"internal_node_id":"0.0-1.0"},{"view_history":"[{\"page_index\":0,\"viewing_time\":7785}]","rt":7786,"trial_type":"instructions","trial_index":2,"time_elapsed":32937,"internal_node_id":"0.0-2.0"},{"sim_score":5,"rt":8482,"stimulus":"[\"img/bluejay1.jpg\",\"img/cardinal1.jpg\"]","trial_type":"similarity_demo","trial_index":3,"time_elapsed":42424,"internal_node_id":"0.0-3.0"},{"view_history":"[{\"page_index\":0,\"viewing_time\":8336}]","rt":8337,"trial_type":"instructions","trial_index":4,"time_elapsed":51761,"internal_node_id":"0.0-4.0"},{"view_history":"[{\"page_index\":0,\"viewing_time\":30533}]","rt":30533,"trial_type":"instructions","trial_index":5,"time_elapsed":83294,"internal_node_id":"0.0-5.0"},{"sim_score":3,"rt":6767,"stimulus":"[\"img/0868/d98ca254-b195-477f-b57e-5760a2717db8.jpg\",\"img/0894/b2d2f66e-e480-46da-a02a-6d0c6b285d78.jpg\"]","trial_type":"similarity","trial_index":6,"time_elapsed":91065,"internal_node_id":"0.0-6.0-0.0"},{"sim_score":1,"rt":7447,"stimulus":"[\"img/0898/5f699581-3853-4547-856c-12f419ba5af7.jpg\",\"img/0758/2fa3e613-e676-4e6e-bd12-705327eeb3e1.jpg\"]","trial_type":"similarity","trial_index":7,"time_elapsed":99516,"internal_node_id":"0.0-6.0-1.0"},{"sim_score":5,"rt":5807,"stimulus":"[\"img/0903/150cf64c-0bd2-4674-abbb-a1387cf1f3e9.jpg\",\"img/0894/661b9f9f-4bde-487a-b1ed-87085fde6948.jpg\"]","trial_type":"similarity","trial_index":8,"time_elapsed":106340,"internal_node_id":"0.0-6.0-2.0"},{"sim_score":3,"rt":5783,"stimulus":"[\"img/0881/633c6f40-56d9-4b48-bf1c-ecd83116eabb.jpg\",\"img/0766/26d3ae14-8275-4e08-99b2-a6598c193ddf.jpg\"]","trial_type":"similarity","trial_index":9,"time_elapsed":113131,"internal_node_id":"0.0-6.0-3.0"},{"sim_score":5,"rt":7498,"stimulus":"[\"img/0864/3651d070-2fc5-4848-b6a6-088a2d9ac5c9.jpg\",\"img/0860/524b2e98-5767-4d53-942c-ebae6925659b.jpg\"]","trial_type":"similarity","trial_index":10,"time_elapsed":121647,"internal_node_id":"0.0-6.0-4.0"},{"sim_score":3,"rt":5629,"stimulus":"[\"img/0902/b56db912-c3c0-4fc2-b325-d640acd7cb58.jpg\",\"img/0899/66bf4113-ee12-426c-84d2-ea410b6c803e.jpg\"]","trial_type":"similarity","trial_index":11,"time_elapsed":128284,"internal_node_id":"0.0-6.0-5.0"},{"sim_score":5,"rt":5823,"stimulus":"[\"img/0868/4a8a45ed-2c4f-421b-9564-409a33ecd26c.jpg\",\"img/0769/e31b3bd8-efcb-413e-aa8c-75fac2b8f2ac.jpg\"]","trial_type":"similarity","trial_index":12,"time_elapsed":135112,"internal_node_id":"0.0-6.0-6.0"},{"sim_score":2,"rt":7622,"stimulus":"[\"img/0764/bc3865c9-9004-4582-88a7-048478673f97.jpg\",\"img/0901/0f670aef-ac36-496d-8142-ee5fdb21dd82.jpg\"]","trial_type":"similarity","trial_index":13,"time_elapsed":143738,"internal_node_id":"0.0-6.0-7.0"},{"sim_score":3,"rt":5604,"stimulus":"[\"img/0881/e046471a-35b4-4159-bbf7-3cfd201bef66.jpg\",\"img/0866/8efcaa46-83ab-4dee-a35f-850402aa21ae.jpg\"]","trial_type":"similarity","trial_index":14,"time_elapsed":150349,"internal_node_id":"0.0-6.0-8.0"},{"sim_score":1,"rt":4921,"stimulus":"[\"img/0867/12264664-1860-46df-8c21-162b9817cdda.jpg\",\"img/0899/ddf96ade-692e-4602-bd22-dedbb46401bc.jpg\"]","trial_type":"similarity","trial_index":15,"time_elapsed":156277,"internal_node_id":"0.0-6.0-9.0"},{"sim_score":5,"rt":6557,"stimulus":"[\"img/0875/fb732ab5-013a-4366-9f65-27811ed157e9.jpg\",\"img/0766/75c3d627-4f3b-40d5-9d9c-10c8a62db644.jpg\"]","trial_type":"similarity","trial_index":16,"time_elapsed":163837,"internal_node_id":"0.0-6.0-10.0"},{"sim_score":5,"rt":5577,"stimulus":"[\"img/0901/875dedb9-24c9-4443-9f8c-85e97d70ee5a.jpg\",\"img/0875/3ecb367d-e9eb-4826-8aaa-7aa72fb98019.jpg\"]","trial_type":"similarity","trial_index":17,"time_elapsed":170418,"internal_node_id":"0.0-6.0-11.0"},{"sim_score":7,"rt":4644,"stimulus":"[\"img/0902/d5e25767-e8ec-45f3-ac0a-7b4a6f7a9edc.jpg\",\"img/0860/c47fdead-eb02-4989-b078-26f4852f44fe.jpg\"]","trial_type":"similarity","trial_index":18,"time_elapsed":176066,"internal_node_id":"0.0-6.0-12.0"},{"sim_score":3,"rt":5066,"stimulus":"[\"img/0874/eba003b4-cdab-4eee-8bc3-f064c7d94165.jpg\",\"img/0867/50a1b60e-3a29-44bf-b606-d4bd3746fea9.jpg\"]","trial_type":"similarity","trial_index":19,"time_elapsed":182135,"internal_node_id":"0.0-6.0-13.0"},{"sim_score":5,"rt":4902,"stimulus":"[\"img/0904/4b8daf2a-13a9-4ea9-9e0b-b265b6e933e7.jpg\",\"img/0866/4a87911a-d5be-4d4e-ab8e-3d1f581bf507.jpg\"]","trial_type":"similarity","trial_index":20,"time_elapsed":188057,"internal_node_id":"0.0-6.0-14.0"},{"sim_score":5,"rt":5984,"stimulus":"[\"img/0758/3ddd05d3-557e-4ee7-8b78-9d2d681d8ae2.jpg\",\"img/0902/8af4182a-9af9-4212-a436-9195555112d6.jpg\"]","trial_type":"similarity","trial_index":21,"time_elapsed":195045,"internal_node_id":"0.0-6.0-15.0"},{"sim_score":5,"rt":5061,"stimulus":"[\"img/0867/c66898ba-b71b-4d50-84f9-f7f84853a98d.jpg\",\"img/0898/f3a3f225-1248-4ac7-b93b-f0ff28485bf3.jpg\"]","trial_type":"similarity","trial_index":22,"time_elapsed":201109,"internal_node_id":"0.0-6.0-16.0"},{"sim_score":3,"rt":3034,"stimulus":"[\"img/0904/2c98dc56-88d1-4fb5-a999-b6a7861f65f0.jpg\",\"img/0868/4bd5105a-d2c3-4f82-8c80-57196106ba53.jpg\"]","trial_type":"similarity","trial_index":23,"time_elapsed":205148,"internal_node_id":"0.0-6.0-17.0"},{"sim_score":1,"rt":4223,"stimulus":"[\"img/0766/a754e4b6-5019-4cf4-8f58-34c20547a1f5.jpg\",\"img/0864/e336a4c5-6648-4fd7-b2f6-93a3fb83f8c6.jpg\"]","trial_type":"similarity","trial_index":24,"time_elapsed":210375,"internal_node_id":"0.0-6.0-18.0"},{"sim_score":5,"rt":5239,"stimulus":"[\"img/0899/7f9d45d0-b2c6-40d3-aa41-c207db2c411b.jpg\",\"img/0766/0b48f9e0-7d37-4161-8adb-4e3f5b6b7583.jpg\"]","trial_type":"similarity","trial_index":25,"time_elapsed":216617,"internal_node_id":"0.0-6.0-19.0"},{"sim_score":5,"rt":4935,"stimulus":"[\"img/0764/ca9829fe-aaf8-45b8-b98a-6bae751c63dd.jpg\",\"img/0758/a085b443-b5d7-4cb2-9ad4-b9dab0fc23f1.jpg\"]","trial_type":"similarity","trial_index":26,"time_elapsed":222555,"internal_node_id":"0.0-6.0-20.0"},{"sim_score":1,"rt":4806,"stimulus":"[\"img/0901/b13fa50f-dbe0-4d0f-8647-6ac0fd8f40bd.jpg\",\"img/0874/2c9464dd-8a23-4baa-ac94-1ba3af5c15cc.jpg\"]","trial_type":"similarity","trial_index":27,"time_elapsed":228367,"internal_node_id":"0.0-6.0-21.0"},{"sim_score":5,"rt":4968,"stimulus":"[\"img/0875/5a716432-c6ca-4b1c-955a-2b8ac25198ee.jpg\",\"img/0758/eabcd7a8-56ad-4fd2-bc24-90f6b7b33265.jpg\"]","trial_type":"similarity","trial_index":28,"time_elapsed":234351,"internal_node_id":"0.0-6.0-22.0"},{"sim_score":5,"rt":4480,"stimulus":"[\"img/0867/179ab87a-8eac-4c52-a41f-2e48e3120f09.jpg\",\"img/0881/48ed65a5-471f-41af-86ec-3793805c116d.jpg\"]","trial_type":"similarity","trial_index":29,"time_elapsed":239841,"internal_node_id":"0.0-6.0-23.0"},{"sim_score":3,"rt":4972,"stimulus":"[\"img/0758/65d426d6-3ff6-415d-8654-a43b83ecc4fe.jpg\",\"img/0901/a6c90438-fa7c-4418-ac7c-16c2e772dd98.jpg\"]","trial_type":"similarity","trial_index":30,"time_elapsed":245825,"internal_node_id":"0.0-6.0-24.0"},{"sim_score":3,"rt":5836,"stimulus":"[\"img/0868/83b4350a-3b70-4cea-b7f5-b5b56f3050a8.jpg\",\"img/0875/5a1e5100-0d94-4fec-bbe9-ca9894d2cf8e.jpg\"]","trial_type":"similarity","trial_index":31,"time_elapsed":252671,"internal_node_id":"0.0-6.0-25.0"},{"sim_score":2,"rt":5417,"stimulus":"[\"img/0903/c3cb4a01-2797-43ca-b216-88c67b323fbb.jpg\",\"img/0901/b453df0b-4c39-49bb-8ced-6127efffa898.jpg\"]","trial_type":"similarity","trial_index":32,"time_elapsed":259103,"internal_node_id":"0.0-6.0-26.0"},{"sim_score":3,"rt":5347,"stimulus":"[\"img/0894/7dd6ff43-f8fc-408a-8a41-a2b261871820.jpg\",\"img/0899/4f7bc593-8ddd-4da3-a0b9-84da730d3370.jpg\"]","trial_type":"similarity","trial_index":33,"time_elapsed":265462,"internal_node_id":"0.0-6.0-27.0"},{"sim_score":6,"rt":4948,"stimulus":"[\"img/0862/53a9cf7c-93c4-41b9-952f-07d17f7a17b2.jpg\",\"img/0867/8ba0c5a7-c7e4-42cf-a80a-543763b90779.jpg\"]","trial_type":"similarity","trial_index":34,"time_elapsed":271415,"internal_node_id":"0.0-6.0-28.0"},{"sim_score":5,"rt":5568,"stimulus":"[\"img/0864/66091c27-e588-4476-8af9-265dc6be4156.jpg\",\"img/0875/5a7c4e35-6514-4e12-8879-d16071da4cd6.jpg\"]","trial_type":"similarity","trial_index":35,"time_elapsed":277986,"internal_node_id":"0.0-6.0-29.0"},{"sim_score":3,"rt":5171,"stimulus":"[\"img/0862/d0ca4c78-fc35-46ed-bdcc-8e124283c53e.jpg\",\"img/0874/93d1f8dc-acf2-4f03-bd8d-8ec35df276ed.jpg\"]","trial_type":"similarity","trial_index":36,"time_elapsed":284161,"internal_node_id":"0.0-6.0-30.0"},{"sim_score":3,"rt":5067,"stimulus":"[\"img/0903/b0df4094-a3be-4b5b-81bd-8d260f13f61b.jpg\",\"img/0758/b76ceca7-95ac-46e4-ac13-da02c8e93be9.jpg\"]","trial_type":"similarity","trial_index":37,"time_elapsed":290231,"internal_node_id":"0.0-6.0-31.0"},{"sim_score":3,"rt":4457,"stimulus":"[\"img/0866/c446214b-a368-4c65-ae39-ea46894256ab.jpg\",\"img/0901/effc03f6-8f9d-46db-a66c-16fc83891c5c.jpg\"]","trial_type":"similarity","trial_index":38,"time_elapsed":295691,"internal_node_id":"0.0-6.0-32.0"},{"sim_score":1,"rt":6334,"stimulus":"[\"img/0874/3ce41e7c-40c8-4d58-a546-171114521796.jpg\",\"img/0899/fd9efb43-701f-4cd6-baaa-4c38315f4bdc.jpg\"]","trial_type":"similarity","trial_index":39,"time_elapsed":303031,"internal_node_id":"0.0-6.0-33.0"},{"sim_score":7,"rt":5707,"stimulus":"[\"img/0903/8c358e9e-a4f4-466e-8b93-7aec0d2358e8.jpg\",\"img/0902/95a36b6b-9601-4fa5-8fd9-606ea62f9425.jpg\"]","trial_type":"similarity","trial_index":40,"time_elapsed":309743,"internal_node_id":"0.0-6.0-34.0"},{"sim_score":3,"rt":5065,"stimulus":"[\"img/0758/7ee8bc8f-c40b-4b3a-84ec-3e83580622d4.jpg\",\"img/0866/6f2a90d7-14f1-4f1b-bd64-fc0af6b9fe44.jpg\"]","trial_type":"similarity","trial_index":41,"time_elapsed":315813,"internal_node_id":"0.0-6.0-35.0"},{"sim_score":3,"rt":4458,"stimulus":"[\"img/0875/f87b67d7-c33e-40d1-b281-248c4be1cb6e.jpg\",\"img/0903/12bd8657-92e6-4c36-a06c-597e7a1d51f3.jpg\"]","trial_type":"similarity","trial_index":42,"time_elapsed":321274,"internal_node_id":"0.0-6.0-36.0"},{"sim_score":2,"rt":5934,"stimulus":"[\"img/0864/4bd81bc6-c13d-46df-95a9-485886dc7c1b.jpg\",\"img/0902/d3e55000-c839-4bf9-9b9b-4af0a9925af1.jpg\"]","trial_type":"similarity","trial_index":43,"time_elapsed":337776,"internal_node_id":"0.0-6.0-37.0"},{"sim_score":3,"rt":5194,"stimulus":"[\"img/0901/a0d65c84-3f20-476a-92d1-0c01e8019cf4.jpg\",\"img/0867/5e07b34d-b40f-4b1c-ac10-49975bace45f.jpg\"]","trial_type":"similarity","trial_index":44,"time_elapsed":343981,"internal_node_id":"0.0-6.0-38.0"},{"sim_score":7,"rt":3548,"stimulus":"[\"img/0862/99a99e39-8355-44ec-b993-e7bcec111e1c.jpg\",\"img/0860/18dfed73-e36b-4487-a8bd-0b8cff8e3668.jpg\"]","trial_type":"similarity","trial_index":45,"time_elapsed":348532,"internal_node_id":"0.0-6.0-39.0"},{"sim_score":3,"rt":4089,"stimulus":"[\"img/0867/c71dc569-f49c-4397-8381-68b8d726736d.jpg\",\"img/0868/fd307a36-9a3a-47d7-ab7c-f810d0b35040.jpg\"]","trial_type":"similarity","trial_index":46,"time_elapsed":353625,"internal_node_id":"0.0-6.0-40.0"},{"sim_score":1,"rt":3547,"stimulus":"[\"img/0904/73920552-103b-4c9c-9ece-e0b8376b4504.jpg\",\"img/0899/fef567a2-c121-4481-9af0-ff108d199bbf.jpg\"]","trial_type":"similarity","trial_index":47,"time_elapsed":358174,"internal_node_id":"0.0-6.0-41.0"},{"sim_score":5,"rt":5308,"stimulus":"[\"img/0862/7918ca67-5bd3-4606-a5ea-c39fb11a9297.jpg\",\"img/0894/76c1201f-8524-4865-85e6-dda8cb4ac986.jpg\"]","trial_type":"similarity","trial_index":48,"time_elapsed":364489,"internal_node_id":"0.0-6.0-42.0"},{"sim_score":2,"rt":4938,"stimulus":"[\"img/0875/34132396-d896-4c2d-8087-646dd867e769.jpg\",\"img/0904/4d7d70a3-9477-4921-bda0-f9531d0a5c5b.jpg\"]","trial_type":"similarity","trial_index":49,"time_elapsed":370443,"internal_node_id":"0.0-6.0-43.0"},{"sim_score":3,"rt":5138,"stimulus":"[\"img/0874/a82926a3-0b43-4add-803c-d5f9ea7798ee.jpg\",\"img/0898/26c41340-15bd-4ead-8fe4-c0d0ddca09c2.jpg\"]","trial_type":"similarity","trial_index":50,"time_elapsed":376585,"internal_node_id":"0.0-6.0-44.0"},{"sim_score":2,"rt":4769,"stimulus":"[\"img/0898/b3290bf9-215b-4b45-b21a-65bdf73f142f.jpg\",\"img/0868/d6d1f30d-4323-435a-b194-7892521bc57e.jpg\"]","trial_type":"similarity","trial_index":51,"time_elapsed":382356,"internal_node_id":"0.0-6.0-45.0"},{"sim_score":3,"rt":4902,"stimulus":"[\"img/0901/58ec7fa9-b466-4651-90aa-c082df0972de.jpg\",\"img/0860/17b44a7d-c5ca-479f-9e87-f65a64f5c80e.jpg\"]","trial_type":"similarity","trial_index":52,"time_elapsed":388262,"internal_node_id":"0.0-6.0-46.0"},{"sim_score":5,"rt":4549,"stimulus":"[\"img/0894/5c7677b0-a4f1-479e-b274-7822c415175a.jpg\",\"img/0902/962f645e-9b55-4628-9b50-c703422bfe1a.jpg\"]","trial_type":"similarity","trial_index":53,"time_elapsed":393815,"internal_node_id":"0.0-6.0-47.0"},{"sim_score":5,"rt":7087,"stimulus":"[\"img/0764/958b8576-3a3b-4acc-96dc-06b74de69f37.jpg\",\"img/0862/92fcd8a4-8193-4a6a-ae09-dd4a6338b0df.jpg\"]","trial_type":"similarity","trial_index":54,"time_elapsed":401906,"internal_node_id":"0.0-6.0-48.0"},{"sim_score":7,"rt":3880,"stimulus":"[\"img/0881/f7a8cc63-8842-40a4-9ff8-fe530310d62c.jpg\",\"img/0758/e1ba5e53-addc-436a-b428-d34fc1b130dc.jpg\"]","trial_type":"similarity","trial_index":55,"time_elapsed":406793,"internal_node_id":"0.0-6.0-49.0"},{"sim_score":3,"rt":5176,"stimulus":"[\"img/0766/d14acac4-7db1-4b07-8f8f-302437326fc0.jpg\",\"img/0769/1d8734c4-77ab-4165-9e71-5cfe672ff01c.jpg\"]","trial_type":"similarity","trial_index":56,"time_elapsed":412974,"internal_node_id":"0.0-6.0-50.0"},{"sim_score":7,"rt":5568,"stimulus":"[\"img/0875/e7e66b13-b573-431e-b85e-288ce04a35a3.jpg\",\"img/0866/11a1d141-be5e-443c-98c1-a9d4d9e3dec0.jpg\"]","trial_type":"similarity","trial_index":57,"time_elapsed":419546,"internal_node_id":"0.0-6.0-51.0"},{"sim_score":5,"rt":4744,"stimulus":"[\"img/0894/2d2db7b3-e8a3-499b-b63a-14f51bf73882.jpg\",\"img/0904/b7c2a2c8-df33-4473-b3d4-ff7147c60db3.jpg\"]","trial_type":"similarity","trial_index":58,"time_elapsed":425294,"internal_node_id":"0.0-6.0-52.0"},{"sim_score":5,"rt":6355,"stimulus":"[\"img/0758/caa93da2-9edf-49fa-96b9-32dedd8f5078.jpg\",\"img/0769/878531fd-e0e8-4ad1-b9ad-f018bb104ca0.jpg\"]","trial_type":"similarity","trial_index":59,"time_elapsed":432652,"internal_node_id":"0.0-6.0-53.0"},{"sim_score":5,"rt":4745,"stimulus":"[\"img/0902/07437a16-3d0f-4a5c-89ec-36d0efa4b3b8.jpg\",\"img/0874/85eb9b8a-c4c6-4e5a-b8e7-363a87a82054.jpg\"]","trial_type":"similarity","trial_index":60,"time_elapsed":438399,"internal_node_id":"0.0-6.0-54.0"},{"sim_score":7,"rt":4873,"stimulus":"[\"img/0903/b4a0f61e-a964-4b79-a9a7-f767a8f92f34.jpg\",\"img/0862/e697469a-ec19-4414-b972-7b9f3564785b.jpg\"]","trial_type":"similarity","trial_index":61,"time_elapsed":444275,"internal_node_id":"0.0-6.0-55.0"},{"sim_score":3,"rt":4820,"stimulus":"[\"img/0866/620cd1aa-0800-4414-8f6e-90342e7a99ad.jpg\",\"img/0894/8cadb87a-7001-4e47-99fb-1867bebf1668.jpg\"]","trial_type":"similarity","trial_index":62,"time_elapsed":450102,"internal_node_id":"0.0-6.0-56.0"},{"sim_score":4,"rt":5332,"stimulus":"[\"img/0867/db7e032f-162b-46f5-ae67-2b29679adee4.jpg\",\"img/0904/b5855d6a-7ef9-46ca-9215-6e9fa046e543.jpg\"]","trial_type":"similarity","trial_index":63,"time_elapsed":456438,"internal_node_id":"0.0-6.0-57.0"},{"sim_score":3,"rt":4833,"stimulus":"[\"img/0875/99698b4d-b4a1-44bc-8c83-8ea755bbbf61.jpg\",\"img/0881/1407b85b-a1c6-45b1-9884-3b24203efadb.jpg\"]","trial_type":"similarity","trial_index":64,"time_elapsed":462275,"internal_node_id":"0.0-6.0-58.0"},{"sim_score":1,"rt":4810,"stimulus":"[\"img/0866/0207e9a2-7dbb-40b5-9459-b472aaeceb2a.jpg\",\"img/0860/4c530c3c-6aab-492a-94d1-9c01797bde40.jpg\"]","trial_type":"similarity","trial_index":65,"time_elapsed":468087,"internal_node_id":"0.0-6.0-59.0"},{"sim_score":3,"rt":4409,"stimulus":"[\"img/0903/07b445ee-0cdb-4d2c-a23b-d727613f4059.jpg\",\"img/0866/9b38d691-1802-4959-ab3f-fc902f0e4ea6.jpg\"]","trial_type":"similarity","trial_index":66,"time_elapsed":473498,"internal_node_id":"0.0-6.0-60.0"},{"sim_score":6,"rt":6924,"stimulus":"[\"img/0860/8a92e21b-6a32-4e4a-a445-2d5a487ed0a4.jpg\",\"img/0875/42910c99-5463-450a-a0f8-d4d060a11455.jpg\"]","trial_type":"similarity","trial_index":67,"time_elapsed":481426,"internal_node_id":"0.0-6.0-61.0"},{"sim_score":5,"rt":4758,"stimulus":"[\"img/0898/cd3aaa3f-efa9-4ab3-8d6f-a6a9273ddf42.jpg\",\"img/0862/e0f1a4e9-e1b6-45f7-af67-89f334e6630d.jpg\"]","trial_type":"similarity","trial_index":68,"time_elapsed":487190,"internal_node_id":"0.0-6.0-62.0"},{"sim_score":5,"rt":4961,"stimulus":"[\"img/0902/44cd9b7e-fdfb-4f78-90de-8d4c9d279365.jpg\",\"img/0766/f011ef45-fb48-44b8-8224-867ed2ccf786.jpg\"]","trial_type":"similarity","trial_index":69,"time_elapsed":493156,"internal_node_id":"0.0-6.0-63.0"},{"sim_score":1,"rt":4927,"stimulus":"[\"img/0758/f61ecdf8-a7d4-4db0-b84d-be46f7cfaffc.jpg\",\"img/0864/a248adb3-c70b-4652-b7a3-776d2a1e904b.jpg\"]","trial_type":"similarity","trial_index":70,"time_elapsed":499087,"internal_node_id":"0.0-6.0-64.0"},{"sim_score":3,"rt":4259,"stimulus":"[\"img/0894/5ff3c4f6-52e2-4075-8679-be0312e59703.jpg\",\"img/0860/4f695df5-afac-4da7-9875-fee39b0b24ad.jpg\"]","trial_type":"similarity","trial_index":71,"time_elapsed":504348,"internal_node_id":"0.0-6.0-65.0"},{"sim_score":2,"rt":4482,"stimulus":"[\"img/0899/565ccdd9-0933-4536-a625-3c0e25a713dd.jpg\",\"img/0868/8b0b8473-e2c0-4331-aa56-c3a5c29369da.jpg\"]","trial_type":"similarity","trial_index":72,"time_elapsed":509832,"internal_node_id":"0.0-6.0-66.0"},{"sim_score":4,"rt":5175,"stimulus":"[\"img/0866/02f5e6b9-52b7-448c-9708-5b460d0c9a23.jpg\",\"img/0862/a0a3a7ba-7798-46a3-b4ca-05e1f6e581d0.jpg\"]","trial_type":"similarity","trial_index":73,"time_elapsed":516013,"internal_node_id":"0.0-6.0-67.0"},{"sim_score":7,"rt":5021,"stimulus":"[\"img/0860/f44ba3fb-03a2-42f0-8509-2c1ded493086.jpg\",\"img/0758/e38fd80d-18d0-42f3-b848-f930788e8bd7.jpg\"]","trial_type":"similarity","trial_index":74,"time_elapsed":522043,"internal_node_id":"0.0-6.0-68.0"},{"sim_score":3,"rt":5356,"stimulus":"[\"img/0902/82d20e8c-2162-47a6-925b-52906558c046.jpg\",\"img/0867/f26f6b60-f772-4f4c-95a4-addc62cfd692.jpg\"]","trial_type":"similarity","trial_index":75,"time_elapsed":528403,"internal_node_id":"0.0-6.0-69.0"},{"sim_score":5,"rt":5835,"stimulus":"[\"img/0862/e8cc3bdf-cc43-4565-bccf-492626c70953.jpg\",\"img/0901/a9b9c0a0-8aed-4888-a78a-65fb7e764d13.jpg\"]","trial_type":"similarity","trial_index":76,"time_elapsed":535241,"internal_node_id":"0.0-6.0-70.0"},{"sim_score":6,"rt":5098,"stimulus":"[\"img/0867/bf560d4f-dee3-4f11-a385-705cc1aa5f3c.jpg\",\"img/0866/07c9c966-3c8d-40e7-8128-92b2acbaed5d.jpg\"]","trial_type":"similarity","trial_index":77,"time_elapsed":541343,"internal_node_id":"0.0-6.0-71.0"},{"sim_score":2,"rt":4049,"stimulus":"[\"img/0860/5383b320-1518-4095-a58e-5cc1ae30b64c.jpg\",\"img/0904/2fd488e9-960f-41f7-8a44-33375f7d5051.jpg\"]","trial_type":"similarity","trial_index":78,"time_elapsed":546394,"internal_node_id":"0.0-6.0-72.0"},{"sim_score":5,"rt":4528,"stimulus":"[\"img/0875/d59ff733-eaff-4ee2-9443-06954dd0bcb6.jpg\",\"img/0899/d8f2dd94-570e-4e8c-a087-d96090fb9e8c.jpg\"]","trial_type":"similarity","trial_index":79,"time_elapsed":551925,"internal_node_id":"0.0-6.0-73.0"},{"sim_score":4,"rt":5214,"stimulus":"[\"img/0899/9de5e857-aa9a-4e0c-8ba2-46d79bd069a4.jpg\",\"img/0758/9fb5b2fe-3f00-4fe6-973c-1ce10d5f4cd5.jpg\"]","trial_type":"similarity","trial_index":80,"time_elapsed":558143,"internal_node_id":"0.0-6.0-74.0"},{"sim_score":6,"rt":4508,"stimulus":"[\"img/0862/ba89835a-408c-480b-8594-ed4ffa97eb5c.jpg\",\"img/0875/2e13d160-eea1-416b-aff1-d37ab99ecc1d.jpg\"]","trial_type":"similarity","trial_index":81,"time_elapsed":566756,"internal_node_id":"0.0-6.0-75.0"},{"sim_score":3,"rt":4011,"stimulus":"[\"img/0901/4d1bed7e-3c4e-4f6c-ada9-4beb66ba9e39.jpg\",\"img/0894/c505c65a-cde2-4f2c-8cde-f8676f7c894d.jpg\"]","trial_type":"similarity","trial_index":82,"time_elapsed":571773,"internal_node_id":"0.0-6.0-76.0"},{"sim_score":3,"rt":3344,"stimulus":"[\"img/0766/fd74fdbb-ea40-4f3a-a091-38d08dfd636e.jpg\",\"img/0758/d540bee6-b460-4c32-ac57-bc282742d7d4.jpg\"]","trial_type":"similarity","trial_index":83,"time_elapsed":576141,"internal_node_id":"0.0-6.0-77.0"},{"sim_score":5,"rt":5081,"stimulus":"[\"img/0894/86201968-6e78-4d68-9b3a-d1692e066210.jpg\",\"img/0764/8740679b-b56f-4292-aece-14063457113a.jpg\"]","trial_type":"similarity","trial_index":84,"time_elapsed":582226,"internal_node_id":"0.0-6.0-78.0"},{"sim_score":3,"rt":4749,"stimulus":"[\"img/0860/c5ccd1a4-4bb7-48e1-9b25-72cfaf06909b.jpg\",\"img/0867/2e1a0b58-cdb1-4107-a14e-452530d7b9b0.jpg\"]","trial_type":"similarity","trial_index":85,"time_elapsed":587999,"internal_node_id":"0.0-6.0-79.0"},{"sim_score":7,"rt":4418,"stimulus":"[\"img/0898/661621d4-a14e-487c-8c74-354134a29710.jpg\",\"img/0901/a373612d-67e2-4fec-9764-21d3d6ef6359.jpg\"]","trial_type":"similarity","trial_index":86,"time_elapsed":593427,"internal_node_id":"0.0-6.0-80.0"},{"sim_score":5,"rt":4679,"stimulus":"[\"img/0874/ca76a855-4e77-4f2f-872a-0a718153e7ed.jpg\",\"img/0764/e30dba15-e68a-4659-89db-e1654b52fe02.jpg\"]","trial_type":"similarity","trial_index":87,"time_elapsed":599129,"internal_node_id":"0.0-6.0-81.0"},{"sim_score":2,"rt":3612,"stimulus":"[\"img/0899/66ab3178-c3fe-4455-ad17-d5952b08e018.jpg\",\"img/0862/00c06b00-3b73-44e9-bc1e-c5aafb438321.jpg\"]","trial_type":"similarity","trial_index":88,"time_elapsed":603749,"internal_node_id":"0.0-6.0-82.0"},{"sim_score":3,"rt":4248,"stimulus":"[\"img/0766/6d32752d-aa05-40dc-9541-640b6e9d6fa1.jpg\",\"img/0901/04a53755-6da5-44d4-a7a6-48a6bc0a2280.jpg\"]","trial_type":"similarity","trial_index":89,"time_elapsed":609013,"internal_node_id":"0.0-6.0-83.0"},{"sim_score":3,"rt":4604,"stimulus":"[\"img/0881/f6bd3b96-dc40-4e99-8681-bc3a35cf896d.jpg\",\"img/0898/01bfe666-3510-4fc7-964f-d00d28732dc8.jpg\"]","trial_type":"similarity","trial_index":90,"time_elapsed":614620,"internal_node_id":"0.0-6.0-84.0"},{"sim_score":4,"rt":4644,"stimulus":"[\"img/0868/c8ac40c7-6904-4e13-8d61-c75d3052dc4e.jpg\",\"img/0860/c7047cd2-7cc1-41b6-8a34-c0986774975f.jpg\"]","trial_type":"similarity","trial_index":91,"time_elapsed":620267,"internal_node_id":"0.0-6.0-85.0"},{"sim_score":2,"rt":4061,"stimulus":"[\"img/0758/7fba58df-2a7a-4b76-8a8f-62739f97f271.jpg\",\"img/0868/7b212364-ff5f-4e28-9241-7eb6ea00161b.jpg\"]","trial_type":"similarity","trial_index":92,"time_elapsed":625334,"internal_node_id":"0.0-6.0-86.0"},{"sim_score":2,"rt":3568,"stimulus":"[\"img/0864/87c467d3-abca-482f-ad80-3766c21b1bb3.jpg\",\"img/0894/7fb082e0-ce79-485c-9109-04367fb32275.jpg\"]","trial_type":"similarity","trial_index":93,"time_elapsed":629908,"internal_node_id":"0.0-6.0-87.0"},{"sim_score":2,"rt":5299,"stimulus":"[\"img/0866/a04d37f0-99dd-478a-b6c6-58b215138f84.jpg\",\"img/0902/94198618-7047-4dc9-ad04-85f4ba913067.jpg\"]","trial_type":"similarity","trial_index":94,"time_elapsed":636215,"internal_node_id":"0.0-6.0-88.0"},{"sim_score":2,"rt":5006,"stimulus":"[\"img/0769/022c7e3b-c3f2-4119-b4bc-f22fa7cae18c.jpg\",\"img/0867/075e0f95-856b-4cbb-acf5-092393aaf04e.jpg\"]","trial_type":"similarity","trial_index":95,"time_elapsed":642223,"internal_node_id":"0.0-6.0-89.0"},{"sim_score":5,"rt":5074,"stimulus":"[\"img/0874/99f6563c-8a8d-4c1c-a41d-667b618c3fd5.jpg\",\"img/0875/90da8d75-108a-44ad-b999-e21fee3860d3.jpg\"]","trial_type":"similarity","trial_index":96,"time_elapsed":648301,"internal_node_id":"0.0-6.0-90.0"},{"sim_score":2,"rt":3899,"stimulus":"[\"img/0864/3d4de670-b290-4285-9c3d-12a0e3af44e9.jpg\",\"img/0874/29830da7-be5f-44e5-b141-652a0ccf7269.jpg\"]","trial_type":"similarity","trial_index":97,"time_elapsed":653204,"internal_node_id":"0.0-6.0-91.0"},{"sim_score":3,"rt":5023,"stimulus":"[\"img/0881/405484ae-0d00-4b05-bc57-6420a36adfac.jpg\",\"img/0862/064818ee-13d5-4618-bb24-21c7368ea278.jpg\"]","trial_type":"similarity","trial_index":98,"time_elapsed":659235,"internal_node_id":"0.0-6.0-92.0"},{"sim_score":5,"rt":5944,"stimulus":"[\"img/0864/0116ca98-293d-4fa6-a93b-5a6144ef64cc.jpg\",\"img/0881/b549bc99-a61c-4450-bab5-9efc3a197bf0.jpg\"]","trial_type":"similarity","trial_index":99,"time_elapsed":666183,"internal_node_id":"0.0-6.0-93.0"},{"sim_score":1,"rt":5434,"stimulus":"[\"img/0899/00715b3f-851b-420b-a26b-d7f79f7759a9.jpg\",\"img/0901/12da1841-e611-435c-9719-109413d536a8.jpg\"]","trial_type":"similarity","trial_index":100,"time_elapsed":672620,"internal_node_id":"0.0-6.0-94.0"},{"sim_score":5,"rt":5043,"stimulus":"[\"img/0874/7e4f2150-3b59-4a36-b5da-a4e0ba410531.jpg\",\"img/0766/535849cc-ff5d-4df9-8f31-0ce94a97d571.jpg\"]","trial_type":"similarity","trial_index":101,"time_elapsed":678667,"internal_node_id":"0.0-6.0-95.0"},{"sim_score":7,"rt":4861,"stimulus":"[\"img/0881/adc02f34-ce97-4aef-850f-00519df06fd7.jpg\",\"img/0899/ad8268c5-8199-48d0-ad70-c5b6d6c599ec.jpg\"]","trial_type":"similarity","trial_index":102,"time_elapsed":684532,"internal_node_id":"0.0-6.0-96.0"},{"sim_score":2,"rt":3869,"stimulus":"[\"img/0862/eefa5588-9efd-4591-aa5f-a2e17c7d7bcc.jpg\",\"img/0902/10d99c89-71f7-4c81-a31e-dfc7c59f5232.jpg\"]","trial_type":"similarity","trial_index":103,"time_elapsed":689405,"internal_node_id":"0.0-6.0-97.0"},{"sim_score":5,"rt":5425,"stimulus":"[\"img/0899/8de08897-b430-42fe-9d42-840670b80f94.jpg\",\"img/0764/62fafeea-6274-48ce-976f-35d3d3484c65.jpg\"]","trial_type":"similarity","trial_index":104,"time_elapsed":695832,"internal_node_id":"0.0-6.0-98.0"},{"sim_score":7,"rt":4947,"stimulus":"[\"img/0758/d57c2592-a317-4f63-91be-91a3a9afd222.jpg\",\"img/0862/92f0146c-20c4-482e-aef5-adb693790338.jpg\"]","trial_type":"similarity","trial_index":105,"time_elapsed":701785,"internal_node_id":"0.0-6.0-99.0"},{"sim_score":4,"rt":4698,"stimulus":"[\"img/0764/e48e6c6f-9e28-420f-836a-8043b2319bb4.jpg\",\"img/0898/993d8f2d-bef7-4251-a193-0f93a32b7763.jpg\"]","trial_type":"similarity","trial_index":106,"time_elapsed":707487,"internal_node_id":"0.0-6.0-100.0"},{"sim_score":3,"rt":5681,"stimulus":"[\"img/0901/f469cb1d-6d81-4a45-bab5-cd0b650c2b4f.jpg\",\"img/0902/af40b98b-3d23-4d95-b401-49ba5783ce39.jpg\"]","trial_type":"similarity","trial_index":107,"time_elapsed":714174,"internal_node_id":"0.0-6.0-101.0"},{"sim_score":3,"rt":4627,"stimulus":"[\"img/0764/b887d7c6-aa81-4637-af8e-05135757ac59.jpg\",\"img/0868/5fa7f9d0-f0e5-454c-8224-74d964818f56.jpg\"]","trial_type":"similarity","trial_index":108,"time_elapsed":719818,"internal_node_id":"0.0-6.0-102.0"},{"sim_score":4,"rt":3671,"stimulus":"[\"img/0769/3c1203c5-2ce7-466e-957a-8d77b5905460.jpg\",\"img/0881/c843e210-bdfe-4a7c-8bbe-fcea1f90fe1c.jpg\"]","trial_type":"similarity","trial_index":109,"time_elapsed":724494,"internal_node_id":"0.0-6.0-103.0"},{"sim_score":3,"rt":4864,"stimulus":"[\"img/0864/6e846d43-94a6-4b37-a268-65eda979f052.jpg\",\"img/0769/458d9c77-b844-40b5-bb1b-1e3bbd4da64e.jpg\"]","trial_type":"similarity","trial_index":110,"time_elapsed":730369,"internal_node_id":"0.0-6.0-104.0"},{"sim_score":7,"rt":4860,"stimulus":"[\"img/0866/f756f7d1-9ad8-4a34-9ef6-7a443d705bfe.jpg\",\"img/0868/179a5502-ab5c-478e-8263-5a1fbcc101d2.jpg\"]","trial_type":"similarity","trial_index":111,"time_elapsed":736235,"internal_node_id":"0.0-6.0-105.0"},{"sim_score":2,"rt":4747,"stimulus":"[\"img/0868/0d3abd3a-b6c3-4584-a9f7-e2da63748b3d.jpg\",\"img/0862/f188d4f0-76a4-4102-818c-a209969d73a5.jpg\"]","trial_type":"similarity","trial_index":112,"time_elapsed":741997,"internal_node_id":"0.0-6.0-106.0"},{"sim_score":5,"rt":5444,"stimulus":"[\"img/0766/a1ed3f0f-e338-4a26-8fe4-4370f0c9fa6e.jpg\",\"img/0898/68476bbb-34a1-42d9-8bc1-deab783d4489.jpg\"]","trial_type":"similarity","trial_index":113,"time_elapsed":748451,"internal_node_id":"0.0-6.0-107.0"},{"sim_score":2,"rt":5039,"stimulus":"[\"img/0898/0af304a2-6a7a-4082-ab7c-4450cd08cc58.jpg\",\"img/0864/0f537697-a314-47c3-a8cc-8df23b7e536c.jpg\"]","trial_type":"similarity","trial_index":114,"time_elapsed":754505,"internal_node_id":"0.0-6.0-108.0"},{"sim_score":2,"rt":4303,"stimulus":"[\"img/0868/3a62db2d-97e9-44a3-b8e3-a48c6f0e423b.jpg\",\"img/0902/d2c34af0-8c50-437d-8cc3-619195a3e8ba.jpg\"]","trial_type":"similarity","trial_index":115,"time_elapsed":759812,"internal_node_id":"0.0-6.0-109.0"},{"sim_score":3,"rt":4542,"stimulus":"[\"img/0904/09934646-45d2-4147-8fec-64a22a5ac822.jpg\",\"img/0764/da207710-e7e4-4f42-b2e6-99b5f357f433.jpg\"]","trial_type":"similarity","trial_index":116,"time_elapsed":765365,"internal_node_id":"0.0-6.0-110.0"},{"sim_score":2,"rt":4589,"stimulus":"[\"img/0894/43216a7f-27bc-4b5a-8841-d122a30da9d9.jpg\",\"img/0875/ebf7653f-ff45-4e9f-af58-2c042ab3cd2b.jpg\"]","trial_type":"similarity","trial_index":117,"time_elapsed":770957,"internal_node_id":"0.0-6.0-111.0"},{"sim_score":1,"rt":3670,"stimulus":"[\"img/0868/09a9ef4d-d000-4cfa-a6aa-ebec7c2edeb4.jpg\",\"img/0874/ca23d307-fc00-4d7d-9106-584c6eb21b4d.jpg\"]","trial_type":"similarity","trial_index":118,"time_elapsed":775640,"internal_node_id":"0.0-6.0-112.0"},{"sim_score":5,"rt":5024,"stimulus":"[\"img/0904/ba8e689e-9ca6-4608-a2a1-3b0940666ae6.jpg\",\"img/0898/82231d4c-218b-4d0a-b50d-35a49b524e97.jpg\"]","trial_type":"similarity","trial_index":119,"time_elapsed":783901,"internal_node_id":"0.0-6.0-113.0"},{"sim_score":1,"rt":3412,"stimulus":"[\"img/0860/8fdba999-b946-4c7d-9891-336018b563ef.jpg\",\"img/0766/3c526a07-9e0a-4ae2-8142-00085f0127da.jpg\"]","trial_type":"similarity","trial_index":120,"time_elapsed":788317,"internal_node_id":"0.0-6.0-114.0"},{"sim_score":5,"rt":4454,"stimulus":"[\"img/0894/4739e06d-c31e-4bf1-bf91-c97fa9afb456.jpg\",\"img/0874/bf14b896-e930-4fd9-9c05-2e83317a2773.jpg\"]","trial_type":"similarity","trial_index":121,"time_elapsed":793776,"internal_node_id":"0.0-6.0-115.0"},{"sim_score":7,"rt":5656,"stimulus":"[\"img/0899/7b7380d5-d2be-44e5-a09a-c1756f87ef71.jpg\",\"img/0903/b0a3c45f-467e-412f-a183-c9c1827f2e63.jpg\"]","trial_type":"similarity","trial_index":122,"time_elapsed":800447,"internal_node_id":"0.0-6.0-116.0"},{"sim_score":2,"rt":5810,"stimulus":"[\"img/0881/566f45f8-5fed-4479-a60f-26377e60a62d.jpg\",\"img/0764/ec2dd087-c471-4370-b570-95a542506a96.jpg\"]","trial_type":"similarity","trial_index":123,"time_elapsed":807261,"internal_node_id":"0.0-6.0-117.0"},{"sim_score":3,"rt":4472,"stimulus":"[\"img/0903/f45a103c-9bfe-49fd-ad96-bdd8d2589195.jpg\",\"img/0769/3adfa417-3b90-4aab-b437-5eaa474189cb.jpg\"]","trial_type":"similarity","trial_index":124,"time_elapsed":812735,"internal_node_id":"0.0-6.0-118.0"},{"sim_score":5,"rt":4266,"stimulus":"[\"img/0901/a6776381-91fe-43f8-ab73-261d318f95fd.jpg\",\"img/0904/06dacdc5-2206-4fb8-92b7-88042d22833c.jpg\"]","trial_type":"similarity","trial_index":125,"time_elapsed":818005,"internal_node_id":"0.0-6.0-119.0"},{"sim_score":2,"rt":5013,"stimulus":"[\"img/0860/5bff793e-cbd5-4d7e-b628-0ac2b0e30b64.jpg\",\"img/0881/dea58fad-b4f1-41d9-bd3f-916eff19a3fd.jpg\"]","trial_type":"similarity","trial_index":126,"time_elapsed":824024,"internal_node_id":"0.0-6.0-120.0"},{"sim_score":4,"rt":4547,"stimulus":"[\"img/0758/6cd8c362-ae2a-41eb-80a3-3a4f7ace1530.jpg\",\"img/0874/3f471690-9788-4d03-90c7-f615aecef149.jpg\"]","trial_type":"similarity","trial_index":127,"time_elapsed":829576,"internal_node_id":"0.0-6.0-121.0"},{"sim_score":2,"rt":4518,"stimulus":"[\"img/0901/1ede21d9-384f-4150-86b5-e1c57b5dc1d4.jpg\",\"img/0769/47700831-0ca2-4fdd-a498-a3bc5a528f43.jpg\"]","trial_type":"similarity","trial_index":128,"time_elapsed":835097,"internal_node_id":"0.0-6.0-122.0"},{"sim_score":5,"rt":4723,"stimulus":"[\"img/0902/12452bb1-b8c0-4e4d-ad4d-47e279e5933c.jpg\",\"img/0904/9dd5708f-3f8b-46a9-b49f-2f2fab87b357.jpg\"]","trial_type":"similarity","trial_index":129,"time_elapsed":840822,"internal_node_id":"0.0-6.0-123.0"},{"sim_score":1,"rt":4588,"stimulus":"[\"img/0899/d60714ae-98d7-4564-8c98-94dba1351135.jpg\",\"img/0864/c3b63e8f-ea39-4d70-a1f2-b3fe4be8eb75.jpg\"]","trial_type":"similarity","trial_index":130,"time_elapsed":846412,"internal_node_id":"0.0-6.0-124.0"},{"sim_score":3,"rt":4128,"stimulus":"[\"img/0766/908bc45b-7c9e-4f95-806e-86b196ebcb2c.jpg\",\"img/0868/1a62b2b2-18f5-466e-b564-5176a57c565e.jpg\"]","trial_type":"similarity","trial_index":131,"time_elapsed":851543,"internal_node_id":"0.0-6.0-125.0"},{"sim_score":3,"rt":5487,"stimulus":"[\"img/0764/c84fbfa8-521c-407a-9bd3-24f7308d896c.jpg\",\"img/0864/6f631579-acf1-415c-a42c-1207f62a8d99.jpg\"]","trial_type":"similarity","trial_index":132,"time_elapsed":858034,"internal_node_id":"0.0-6.0-126.0"},{"sim_score":1,"rt":4382,"stimulus":"[\"img/0899/b45c550b-96c3-4255-ad59-48a2b4db1c1e.jpg\",\"img/0866/945c6710-d15b-4a5b-a8f6-69af0850357f.jpg\"]","trial_type":"similarity","trial_index":133,"time_elapsed":863422,"internal_node_id":"0.0-6.0-127.0"},{"sim_score":3,"rt":3437,"stimulus":"[\"img/0901/deff6cfb-0072-4490-bc3e-206bbcd3e8bf.jpg\",\"img/0881/f62bdcd1-a4b7-4d48-83da-d9c9e01c8727.jpg\"]","trial_type":"similarity","trial_index":134,"time_elapsed":867863,"internal_node_id":"0.0-6.0-128.0"},{"sim_score":7,"rt":4132,"stimulus":"[\"img/0898/79233891-305a-4a6a-8ddf-5c8604858203.jpg\",\"img/0903/71dbc325-b588-4297-a5cf-7f268a722ad9.jpg\"]","trial_type":"similarity","trial_index":135,"time_elapsed":873000,"internal_node_id":"0.0-6.0-129.0"},{"sim_score":5,"rt":5990,"stimulus":"[\"img/0894/e6385e52-6c35-43bd-b0af-bc803d107b11.jpg\",\"img/0867/cc72ed48-7704-422c-86d6-467a1145287a.jpg\"]","trial_type":"similarity","trial_index":136,"time_elapsed":879993,"internal_node_id":"0.0-6.0-130.0"},{"sim_score":1,"rt":5151,"stimulus":"[\"img/0874/a3bc679d-619f-4db6-bb68-116dcb757d9c.jpg\",\"img/0903/0a92ec52-4e87-410a-857a-4455cde56a70.jpg\"]","trial_type":"similarity","trial_index":137,"time_elapsed":886147,"internal_node_id":"0.0-6.0-131.0"},{"sim_score":3,"rt":4581,"stimulus":"[\"img/0899/8abe6c69-822c-436c-9bf2-96c818b49ba5.jpg\",\"img/0898/a8f16b02-e19f-423b-86c3-a36562ae1f9b.jpg\"]","trial_type":"similarity","trial_index":138,"time_elapsed":891731,"internal_node_id":"0.0-6.0-132.0"},{"sim_score":1,"rt":4710,"stimulus":"[\"img/0867/7d1c497b-c1b3-4ed8-abb5-d7f73306015f.jpg\",\"img/0764/29072395-f595-4e3c-83d3-ff87010039fa.jpg\"]","trial_type":"similarity","trial_index":139,"time_elapsed":897449,"internal_node_id":"0.0-6.0-133.0"},{"sim_score":2,"rt":4054,"stimulus":"[\"img/0866/d493a2c8-66eb-44b4-be02-2f327b700b7c.jpg\",\"img/0769/35364db7-e0d5-40ef-93dc-faf9dfb95136.jpg\"]","trial_type":"similarity","trial_index":140,"time_elapsed":902507,"internal_node_id":"0.0-6.0-134.0"},{"sim_score":4,"rt":5276,"stimulus":"[\"img/0860/29a21a9f-54bb-4093-ad3f-04823ceaa89f.jpg\",\"img/0898/04e39a7a-fcf6-4156-ab0e-f5871f335e1c.jpg\"]","trial_type":"similarity","trial_index":141,"time_elapsed":908786,"internal_node_id":"0.0-6.0-135.0"},{"sim_score":3,"rt":3804,"stimulus":"[\"img/0881/292e9b4b-fca0-4ba8-87f1-4048f9e37b7d.jpg\",\"img/0903/43ffd882-077a-40dd-a264-e58d519420a1.jpg\"]","trial_type":"similarity","trial_index":142,"time_elapsed":913595,"internal_node_id":"0.0-6.0-136.0"},{"sim_score":6,"rt":5353,"stimulus":"[\"img/0894/38cf335f-f76f-4349-8d65-e20cd6859565.jpg\",\"img/0766/79767d11-b612-4e8a-9e4b-a8ac95bb6a54.jpg\"]","trial_type":"similarity","trial_index":143,"time_elapsed":919952,"internal_node_id":"0.0-6.0-137.0"},{"sim_score":5,"rt":5332,"stimulus":"[\"img/0860/4a022222-056d-461c-ab02-39fac9647552.jpg\",\"img/0764/21e3292f-01ad-4238-828b-61b817857d16.jpg\"]","trial_type":"similarity","trial_index":144,"time_elapsed":926286,"internal_node_id":"0.0-6.0-138.0"},{"sim_score":5,"rt":4603,"stimulus":"[\"img/0769/6c0bac4c-5f59-43c7-898c-3ca93cf55cfe.jpg\",\"img/0902/d1083f2c-5520-44ec-81a8-3f856fbf0e80.jpg\"]","trial_type":"similarity","trial_index":145,"time_elapsed":931895,"internal_node_id":"0.0-6.0-139.0"},{"sim_score":5,"rt":4822,"stimulus":"[\"img/0904/0d25eb24-bb20-4e8d-9787-8b489558b4cb.jpg\",\"img/0903/2a9c8033-3e70-47fa-816d-97ee1813a3a3.jpg\"]","trial_type":"similarity","trial_index":146,"time_elapsed":937721,"internal_node_id":"0.0-6.0-140.0"},{"sim_score":7,"rt":5028,"stimulus":"[\"img/0764/7f4ee8e3-9315-4a57-be7d-db8454b33766.jpg\",\"img/0769/91acb237-65a3-4d0b-9748-af5c7b83d3c7.jpg\"]","trial_type":"similarity","trial_index":147,"time_elapsed":943756,"internal_node_id":"0.0-6.0-141.0"},{"sim_score":6,"rt":4512,"stimulus":"[\"img/0902/94ee9c53-a9a2-4f95-b9b7-794a5fc62bb6.jpg\",\"img/0881/2a8413be-fec2-4de6-88ad-614dd4cccc9d.jpg\"]","trial_type":"similarity","trial_index":148,"time_elapsed":949271,"internal_node_id":"0.0-6.0-142.0"},{"sim_score":3,"rt":5245,"stimulus":"[\"img/0866/23a224f3-2012-4fc8-8e0f-3c36f8de27fd.jpg\",\"img/0864/c22faebd-9c53-47bc-ada3-b9a30c688e75.jpg\"]","trial_type":"similarity","trial_index":149,"time_elapsed":955527,"internal_node_id":"0.0-6.0-143.0"},{"sim_score":7,"rt":3759,"stimulus":"[\"img/0902/0c760cc9-10ac-429e-8957-a7d51fc99683.jpg\",\"img/0898/0c7dde4f-efce-4b7a-9387-6921635b7890.jpg\"]","trial_type":"similarity","trial_index":150,"time_elapsed":960295,"internal_node_id":"0.0-6.0-144.0"},{"sim_score":4,"rt":4820,"stimulus":"[\"img/0862/1c20f772-3a51-4a80-aac0-f57dc9f86c28.jpg\",\"img/0864/5f33e097-23e3-4002-882d-76e8cb15f451.jpg\"]","trial_type":"similarity","trial_index":151,"time_elapsed":966121,"internal_node_id":"0.0-6.0-145.0"},{"sim_score":1,"rt":4539,"stimulus":"[\"img/0875/03c3c331-738b-4446-af92-3d7386b08c2e.jpg\",\"img/0898/08c72dac-f8ad-407a-9ce6-8c9a5d679c3a.jpg\"]","trial_type":"similarity","trial_index":152,"time_elapsed":971664,"internal_node_id":"0.0-6.0-146.0"},{"sim_score":5,"rt":5025,"stimulus":"[\"img/0874/8cdb1c07-1c32-46d2-981c-3636560fa6e5.jpg\",\"img/0881/f4e3e181-b3c9-4af2-a5a4-fc135ab70d2e.jpg\"]","trial_type":"similarity","trial_index":153,"time_elapsed":977693,"internal_node_id":"0.0-6.0-147.0"},{"sim_score":5,"rt":6101,"stimulus":"[\"img/0758/a709631e-3705-4725-ac40-f0d916924f08.jpg\",\"img/0894/1a010553-d598-4b06-a772-81f1e7b3addb.jpg\"]","trial_type":"similarity","trial_index":154,"time_elapsed":984797,"internal_node_id":"0.0-6.0-148.0"},{"sim_score":6,"rt":5078,"stimulus":"[\"img/0904/d23dd7be-7fe8-4435-82f7-bd592c01e6a1.jpg\",\"img/0864/49150900-7f25-4ce8-8d10-9b47a71d1997.jpg\"]","trial_type":"similarity","trial_index":155,"time_elapsed":990879,"internal_node_id":"0.0-6.0-149.0"},{"sim_score":5,"rt":5009,"stimulus":"[\"img/0769/96556ef3-7fac-4c9d-8281-1cb0ea5081bc.jpg\",\"img/0899/06b0fc99-0581-461a-9913-d1a5a941ac61.jpg\"]","trial_type":"similarity","trial_index":156,"time_elapsed":996891,"internal_node_id":"0.0-6.0-150.0"},{"sim_score":3,"rt":3888,"stimulus":"[\"img/0764/a86eed5b-d0af-4c3f-8c7a-26e98e98cf1a.jpg\",\"img/0903/0fb24af7-9a26-4e9d-aadc-959a36f683e2.jpg\"]","trial_type":"similarity","trial_index":157,"time_elapsed":1003625,"internal_node_id":"0.0-6.0-151.0"},{"sim_score":3,"rt":4758,"stimulus":"[\"img/0903/f67c4ab9-f8c2-4fcd-848a-a54a7b031002.jpg\",\"img/0864/65210d57-1153-4657-886a-32e758f49b4a.jpg\"]","trial_type":"similarity","trial_index":158,"time_elapsed":1009387,"internal_node_id":"0.0-6.0-152.0"},{"sim_score":2,"rt":4375,"stimulus":"[\"img/0894/b422d5c6-3c5a-49ae-a53e-7e88ac993f49.jpg\",\"img/0881/e6746727-7f89-47ec-b939-d98abe78372d.jpg\"]","trial_type":"similarity","trial_index":159,"time_elapsed":1014765,"internal_node_id":"0.0-6.0-153.0"},{"sim_score":6,"rt":5155,"stimulus":"[\"img/0875/dbdd643e-6d0e-4a5c-ab57-b9c29b9c981a.jpg\",\"img/0867/f8159067-056c-41f1-a136-c529fe5e970a.jpg\"]","trial_type":"similarity","trial_index":160,"time_elapsed":1020934,"internal_node_id":"0.0-6.0-154.0"},{"sim_score":5,"rt":4634,"stimulus":"[\"img/0867/de92135f-5b65-4ed9-b245-188292c7c2f8.jpg\",\"img/0758/6e95579b-5166-487c-b8cb-e417c6a218e3.jpg\"]","trial_type":"similarity","trial_index":161,"time_elapsed":1026573,"internal_node_id":"0.0-6.0-155.0"},{"sim_score":2,"rt":5142,"stimulus":"[\"img/0868/293079b8-7e0c-4afd-a390-1e5d35fe3ded.jpg\",\"img/0901/d61f267a-c492-4db6-9bfb-61efd49cf072.jpg\"]","trial_type":"similarity","trial_index":162,"time_elapsed":1032718,"internal_node_id":"0.0-6.0-156.0"},{"sim_score":3,"rt":4862,"stimulus":"[\"img/0769/8598a429-c671-4d2f-842c-32f681f5e412.jpg\",\"img/0894/133a1636-d123-4893-873c-1718050f832a.jpg\"]","trial_type":"similarity","trial_index":163,"time_elapsed":1038583,"internal_node_id":"0.0-6.0-157.0"},{"sim_score":4,"rt":4407,"stimulus":"[\"img/0904/696ebb60-8891-417a-91fd-c53218907a95.jpg\",\"img/0758/20497cbe-ddae-489e-86e2-ab06985ed07c.jpg\"]","trial_type":"similarity","trial_index":164,"time_elapsed":1043993,"internal_node_id":"0.0-6.0-158.0"},{"sim_score":4,"rt":4039,"stimulus":"[\"img/0874/1016b306-087c-4afc-aa08-fa527b28dc76.jpg\",\"img/0904/5aec2708-cf14-4a58-aa30-9a8a61c1be0e.jpg\"]","trial_type":"similarity","trial_index":165,"time_elapsed":1049035,"internal_node_id":"0.0-6.0-159.0"},{"sim_score":7,"rt":3475,"stimulus":"[\"img/0864/1d15626a-2f7c-410f-819c-0fa2c967e95e.jpg\",\"img/0901/148b747a-7392-437e-8823-33053c5dff3f.jpg\"]","trial_type":"similarity","trial_index":166,"time_elapsed":1053513,"internal_node_id":"0.0-6.0-160.0"},{"sim_score":2,"rt":3131,"stimulus":"[\"img/0898/e167334e-cc1d-4986-b3b1-c7bc7da64baa.jpg\",\"img/0866/bf14b5bd-fb55-47db-86b9-4f8aeb9a6dad.jpg\"]","trial_type":"similarity","trial_index":167,"time_elapsed":1057646,"internal_node_id":"0.0-6.0-161.0"},{"sim_score":6,"rt":5021,"stimulus":"[\"img/0766/d512b99c-a2dc-40d7-8e86-827323a0cbcf.jpg\",\"img/0903/70d764d9-1f35-4da7-a35d-4cc39834d270.jpg\"]","trial_type":"similarity","trial_index":168,"time_elapsed":1063675,"internal_node_id":"0.0-6.0-162.0"},{"sim_score":3,"rt":3654,"stimulus":"[\"img/0860/31ff6436-98bf-4652-bed2-40f627229568.jpg\",\"img/0899/1b3457ea-87d4-4946-a01c-aac1863ed46c.jpg\"]","trial_type":"similarity","trial_index":169,"time_elapsed":1068335,"internal_node_id":"0.0-6.0-163.0"},{"sim_score":3,"rt":3559,"stimulus":"[\"img/0766/51d3aab4-3d09-4dda-b99d-3dc7aaabc6f2.jpg\",\"img/0862/847e5208-38ec-4f36-949c-296cdd7424ee.jpg\"]","trial_type":"similarity","trial_index":170,"time_elapsed":1072899,"internal_node_id":"0.0-6.0-164.0"},{"sim_score":3,"rt":4620,"stimulus":"[\"img/0898/a114b375-cb89-44ba-9498-74213f1ecdee.jpg\",\"img/0894/1b3888e6-cf36-4c4a-a039-187aa5cb71ac.jpg\"]","trial_type":"similarity","trial_index":171,"time_elapsed":1078521,"internal_node_id":"0.0-6.0-165.0"},{"sim_score":5,"rt":4869,"stimulus":"[\"img/0867/ac1797e4-8afc-48fe-b252-86d1defb1cca.jpg\",\"img/0766/ba35c0fc-4d5b-490d-959e-c94b279cdd02.jpg\"]","trial_type":"similarity","trial_index":172,"time_elapsed":1084394,"internal_node_id":"0.0-6.0-166.0"},{"sim_score":4,"rt":3730,"stimulus":"[\"img/0904/5cceabc9-de1d-4c67-989b-c28a4ef77e79.jpg\",\"img/0862/5d887e9f-89e2-4ebc-80a0-6d46fe6480db.jpg\"]","trial_type":"similarity","trial_index":173,"time_elapsed":1089129,"internal_node_id":"0.0-6.0-167.0"},{"sim_score":1,"rt":3826,"stimulus":"[\"img/0866/a15b02be-11bb-43e3-b0e0-ecc3bd7dfc49.jpg\",\"img/0874/31e22c7c-99aa-40b1-bf03-dd73fa2df4d6.jpg\"]","trial_type":"similarity","trial_index":174,"time_elapsed":1093960,"internal_node_id":"0.0-6.0-168.0"},{"sim_score":2,"rt":4202,"stimulus":"[\"img/0903/0e5c2854-42aa-48c0-9c3d-6e1ad2a400bd.jpg\",\"img/0868/e0aff734-077f-40dd-9781-74821abd3621.jpg\"]","trial_type":"similarity","trial_index":175,"time_elapsed":1099165,"internal_node_id":"0.0-6.0-169.0"},{"sim_score":4,"rt":3757,"stimulus":"[\"img/0769/f2740c58-7c02-433f-920b-746b0b75435b.jpg\",\"img/0904/4e58005d-a2ec-4aaa-b199-445343561396.jpg\"]","trial_type":"similarity","trial_index":176,"time_elapsed":1103924,"internal_node_id":"0.0-6.0-170.0"},{"sim_score":3,"rt":4725,"stimulus":"[\"img/0875/cff79b3a-a797-4393-9757-6275f999ec04.jpg\",\"img/0764/fb7d4a20-a475-465e-a74f-aa39a0d33d16.jpg\"]","trial_type":"similarity","trial_index":177,"time_elapsed":1109655,"internal_node_id":"0.0-6.0-171.0"},{"sim_score":5,"rt":4806,"stimulus":"[\"img/0860/94ef7afc-e0e6-4a15-98c6-0bfac82bc832.jpg\",\"img/0903/4cbdc464-e562-4ec2-9bb6-15f894fdf528.jpg\"]","trial_type":"similarity","trial_index":178,"time_elapsed":1115463,"internal_node_id":"0.0-6.0-172.0"},{"sim_score":3,"rt":4776,"stimulus":"[\"img/0864/efcfbb1b-8197-44c9-b723-40d6c608dd3c.jpg\",\"img/0867/1719a35d-f085-48c0-9099-16c94fe418b4.jpg\"]","trial_type":"similarity","trial_index":179,"time_elapsed":1121243,"internal_node_id":"0.0-6.0-173.0"},{"sim_score":2,"rt":3911,"stimulus":"[\"img/0868/6a28c3b0-3d76-498a-9fb7-ddafc665eca8.jpg\",\"img/0864/1ebbc554-99fa-49f9-8799-317375a79820.jpg\"]","trial_type":"similarity","trial_index":180,"time_elapsed":1126163,"internal_node_id":"0.0-6.0-174.0"},{"sim_score":3,"rt":5770,"stimulus":"[\"img/0898/881e2a85-d5c2-49be-a0c6-8a6ce2c4af08.jpg\",\"img/0769/965c3c44-d9e5-47c5-b61a-2bbdf4215d9a.jpg\"]","trial_type":"similarity","trial_index":181,"time_elapsed":1132937,"internal_node_id":"0.0-6.0-175.0"},{"sim_score":7,"rt":3089,"stimulus":"[\"img/0766/2e1cf445-9aef-40e7-92f4-5facf48b64c5.jpg\",\"img/0764/0e7ed062-f798-4366-8a24-6f430926f919.jpg\"]","trial_type":"similarity","trial_index":182,"time_elapsed":1137029,"internal_node_id":"0.0-6.0-176.0"},{"sim_score":3,"rt":4831,"stimulus":"[\"img/0764/c01e2d65-6586-441b-bef5-3c96fcd85380.jpg\",\"img/0866/93a27239-8317-4e08-98ca-d8b1ff298e07.jpg\"]","trial_type":"similarity","trial_index":183,"time_elapsed":1142867,"internal_node_id":"0.0-6.0-177.0"},{"sim_score":5,"rt":4837,"stimulus":"[\"img/0902/cf9dee9c-2bdf-4d64-9302-97f1660fe52c.jpg\",\"img/0875/a4935837-7d3c-4df6-88c1-36a94d4991ca.jpg\"]","trial_type":"similarity","trial_index":184,"time_elapsed":1148707,"internal_node_id":"0.0-6.0-178.0"},{"sim_score":5,"rt":5050,"stimulus":"[\"img/0881/14236cf2-6b95-48b8-9368-78af09d2d27f.jpg\",\"img/0904/a8c3c7d2-9bcf-4347-9e03-8203adfc1fc5.jpg\"]","trial_type":"similarity","trial_index":185,"time_elapsed":1154759,"internal_node_id":"0.0-6.0-179.0"},{"sim_score":6,"rt":5376,"stimulus":"[\"img/0874/995f0332-0439-4eb4-add3-957335dbf6d9.jpg\",\"img/0860/fd4662f9-4c03-4d79-8593-06735e55a64b.jpg\"]","trial_type":"similarity","trial_index":186,"time_elapsed":1161138,"internal_node_id":"0.0-6.0-180.0"},{"sim_score":6,"rt":4877,"stimulus":"[\"img/0769/ebef2ddc-ba59-4e0e-97f8-927864eb5081.jpg\",\"img/0874/adf9a8f1-c40b-402b-b95b-1e85a54a7b62.jpg\"]","trial_type":"similarity","trial_index":187,"time_elapsed":1167017,"internal_node_id":"0.0-6.0-181.0"},{"sim_score":4,"rt":4168,"stimulus":"[\"img/0904/96e503ea-6630-4996-85f2-0237688ce441.jpg\",\"img/0766/2da002a4-05c9-4f5c-9ed7-433b4183e273.jpg\"]","trial_type":"similarity","trial_index":188,"time_elapsed":1172187,"internal_node_id":"0.0-6.0-182.0"},{"sim_score":2,"rt":4490,"stimulus":"[\"img/0902/bd89a85f-3853-4786-acd6-98818ee29f1c.jpg\",\"img/0764/c0b03adb-bd0a-4b96-a915-a827c2fd5211.jpg\"]","trial_type":"similarity","trial_index":189,"time_elapsed":1177681,"internal_node_id":"0.0-6.0-183.0"},{"sim_score":4,"rt":4673,"stimulus":"[\"img/0769/f73c5138-2f4c-4354-981c-129dff9cc734.jpg\",\"img/0875/8521fd58-3b1e-4dc5-97ae-804edfa6734a.jpg\"]","trial_type":"similarity","trial_index":190,"time_elapsed":1183356,"internal_node_id":"0.0-6.0-184.0"},{"sim_score":2,"rt":3765,"stimulus":"[\"img/0867/6e19c858-b606-45b2-a4c6-910a73f1d82c.jpg\",\"img/0903/39365c8e-a733-4801-ac7d-b87e38c3784b.jpg\"]","trial_type":"similarity","trial_index":191,"time_elapsed":1188123,"internal_node_id":"0.0-6.0-185.0"},{"sim_score":3,"rt":5550,"stimulus":"[\"img/0862/ad593cc7-cabe-4bb7-8e14-8a447a0717b4.jpg\",\"img/0769/387a9744-d6a7-42b8-bab8-33007ec434aa.jpg\"]","trial_type":"similarity","trial_index":192,"time_elapsed":1194677,"internal_node_id":"0.0-6.0-186.0"},{"sim_score":3,"rt":4603,"stimulus":"[\"img/0766/ae0fce93-fe8d-4aa1-87ca-4c3e4b889f2f.jpg\",\"img/0866/be24ab58-230e-4db8-9f45-ff04c9aec6bb.jpg\"]","trial_type":"similarity","trial_index":193,"time_elapsed":1200283,"internal_node_id":"0.0-6.0-187.0"},{"sim_score":1,"rt":4615,"stimulus":"[\"img/0769/688d0c52-ad73-4065-a5eb-f8c10d076bff.jpg\",\"img/0860/8277806e-b684-4474-8f7b-3fca946d7d4f.jpg\"]","trial_type":"similarity","trial_index":194,"time_elapsed":1205902,"internal_node_id":"0.0-6.0-188.0"},{"sim_score":5,"rt":5011,"stimulus":"[\"img/0881/7e31e5dc-2240-4b1b-b5a0-3acd980099ef.jpg\",\"img/0868/77091fc7-a590-4ebb-b915-fdb2483a2399.jpg\"]","trial_type":"similarity","trial_index":195,"time_elapsed":1214114,"internal_node_id":"0.0-6.0-189.0"},{"view_history":"[{\"page_index\":0,\"viewing_time\":4179}]","rt":4180,"trial_type":"instructions","trial_index":196,"time_elapsed":1219295,"internal_node_id":"0.0-7.0"},{"rt":29544,"responses":"{\"Q0\":\"American Tree Sparrow\"}","answer":["Nashville Warbler"],"trial_type":"image-multi-choice","trial_index":197,"time_elapsed":1249862,"internal_node_id":"0.0-8.0-0.0"},{"rt":33790,"responses":"{\"Q0\":\"Tennessee Warbler\"}","answer":["Black-and-white Warbler"],"trial_type":"image-multi-choice","trial_index":198,"time_elapsed":1284683,"internal_node_id":"0.0-8.0-1.0"},{"rt":17585,"responses":"{\"Q0\":\"Song Sparrow\"}","answer":["Townsend's Warbler"],"trial_type":"image-multi-choice","trial_index":199,"time_elapsed":1303286,"internal_node_id":"0.0-8.0-2.0"},{"rt":27528,"responses":"{\"Q0\":\"White-throated Sparrow\"}","answer":["Lark Sparrow"],"trial_type":"image-multi-choice","trial_index":200,"time_elapsed":1331826,"internal_node_id":"0.0-8.0-3.0"},{"rt":20518,"responses":"{\"Q0\":\"Yellow Warbler\"}","answer":["Yellow Warbler"],"trial_type":"image-multi-choice","trial_index":201,"time_elapsed":1353368,"internal_node_id":"0.0-8.0-4.0"},{"rt":12807,"responses":"{\"Q0\":\"Magnolia Warbler\"}","answer":["Orange-crowned Warbler"],"trial_type":"image-multi-choice","trial_index":202,"time_elapsed":1367194,"internal_node_id":"0.0-8.0-5.0"},{"rt":5617,"responses":"{\"Q0\":\"Swamp Sparrow\"}","answer":["White-throated Sparrow"],"trial_type":"image-multi-choice","trial_index":203,"time_elapsed":1373823,"internal_node_id":"0.0-8.0-6.0"},{"rt":7630,"responses":"{\"Q0\":\"Lincoln's Sparrow\"}","answer":["Fox Sparrow"],"trial_type":"image-multi-choice","trial_index":204,"time_elapsed":1382482,"internal_node_id":"0.0-8.0-7.0"},{"rt":5569,"responses":"{\"Q0\":\"Chipping Sparrow\"}","answer":["Song Sparrow"],"trial_type":"image-multi-choice","trial_index":205,"time_elapsed":1389071,"internal_node_id":"0.0-8.0-8.0"},{"rt":3085,"responses":"{\"Q0\":\"Northern Waterthrush\"}","answer":["Blackburnian Warbler"],"trial_type":"image-multi-choice","trial_index":206,"time_elapsed":1393189,"internal_node_id":"0.0-8.0-9.0"},{"rt":3931,"responses":"{\"Q0\":\"Black-and-white Warbler\"}","answer":["Vesper Sparrow"],"trial_type":"image-multi-choice","trial_index":207,"time_elapsed":1398146,"internal_node_id":"0.0-8.0-10.0"},{"rt":16695,"responses":"{\"Q0\":\"Song Sparrow\"}","answer":["White-crowned Sparrow"],"trial_type":"image-multi-choice","trial_index":208,"time_elapsed":1415870,"internal_node_id":"0.0-8.0-11.0"},{"rt":5431,"responses":"{\"Q0\":\"Chipping Sparrow\"}","answer":["American Tree Sparrow"],"trial_type":"image-multi-choice","trial_index":209,"time_elapsed":1422328,"internal_node_id":"0.0-8.0-12.0"},{"rt":7039,"responses":"{\"Q0\":\"Tennessee Warbler\"}","answer":["Tennessee Warbler"],"trial_type":"image-multi-choice","trial_index":210,"time_elapsed":1430398,"internal_node_id":"0.0-8.0-13.0"},{"rt":7951,"responses":"{\"Q0\":\"Vesper Sparrow\"}","answer":["Magnolia Warbler"],"trial_type":"image-multi-choice","trial_index":211,"time_elapsed":1439359,"internal_node_id":"0.0-8.0-14.0"},{"rt":3098,"responses":"{\"Q0\":\"Fox Sparrow\"}","answer":["Northern Waterthrush"],"trial_type":"image-multi-choice","trial_index":212,"time_elapsed":1443485,"internal_node_id":"0.0-8.0-15.0"},{"rt":2541,"responses":"{\"Q0\":\"Northern Waterthrush\"}","answer":["Chipping Sparrow"],"trial_type":"image-multi-choice","trial_index":213,"time_elapsed":1447045,"internal_node_id":"0.0-8.0-16.0"},{"rt":2510,"responses":"{\"Q0\":\"Black-and-white Warbler\"}","answer":["Swamp Sparrow"],"trial_type":"image-multi-choice","trial_index":214,"time_elapsed":1450575,"internal_node_id":"0.0-8.0-17.0"},{"rt":2169,"responses":"{\"Q0\":\"Townsend's Warbler\"}","answer":["Lincoln's Sparrow"],"trial_type":"image-multi-choice","trial_index":215,"time_elapsed":1453762,"internal_node_id":"0.0-8.0-18.0"},{"rt":5996,"responses":"{\"Q0\":\"Magnolia Warbler\"}","answer":["Ovenbird"],"trial_type":"image-multi-choice","trial_index":216,"time_elapsed":1460775,"internal_node_id":"0.0-8.0-19.0"}]