[{"view_history":"[{\"page_index\":0,\"viewing_time\":17607}]","rt":17608,"trial_type":"instructions","trial_index":0,"time_elapsed":17609,"internal_node_id":"0.0-0.0"},{"sim_score":7,"rt":7026,"stimulus":"[\"img/bluejay1.jpg\",\"img/bluejay2.jpg\"]","trial_type":"similarity_demo","trial_index":1,"time_elapsed":25642,"internal_node_id":"0.0-1.0"},{"view_history":"[{\"page_index\":0,\"viewing_time\":9459}]","rt":9459,"trial_type":"instructions","trial_index":2,"time_elapsed":36101,"internal_node_id":"0.0-2.0"},{"sim_score":2,"rt":13465,"stimulus":"[\"img/bluejay1.jpg\",\"img/cardinal1.jpg\"]","trial_type":"similarity_demo","trial_index":3,"time_elapsed":50573,"internal_node_id":"0.0-3.0"},{"view_history":"[{\"page_index\":0,\"viewing_time\":6170}]","rt":6170,"trial_type":"instructions","trial_index":4,"time_elapsed":57743,"internal_node_id":"0.0-4.0"},{"view_history":"[{\"page_index\":0,\"viewing_time\":28762}]","rt":28762,"trial_type":"instructions","trial_index":5,"time_elapsed":87511,"internal_node_id":"0.0-5.0"},{"sim_score":3,"rt":6436,"stimulus":"[\"img/0868/d6d1f30d-4323-435a-b194-7892521bc57e.jpg\",\"img/0894/bd34223a-2f66-4e16-9d18-193a746b69ff.jpg\"]","trial_type":"similarity","trial_index":6,"time_elapsed":94954,"internal_node_id":"0.0-6.0-0.0"},{"sim_score":3,"rt":6201,"stimulus":"[\"img/0898/08c72dac-f8ad-407a-9ce6-8c9a5d679c3a.jpg\",\"img/0758/6cd8c362-ae2a-41eb-80a3-3a4f7ace1530.jpg\"]","trial_type":"similarity","trial_index":7,"time_elapsed":102155,"internal_node_id":"0.0-6.0-1.0"},{"sim_score":3,"rt":4977,"stimulus":"[\"img/0903/b0df4094-a3be-4b5b-81bd-8d260f13f61b.jpg\",\"img/0894/5a49e858-2850-4892-9a06-e9f0efb5f94d.jpg\"]","trial_type":"similarity","trial_index":8,"time_elapsed":108141,"internal_node_id":"0.0-6.0-2.0"},{"sim_score":1,"rt":6546,"stimulus":"[\"img/0881/2a8413be-fec2-4de6-88ad-614dd4cccc9d.jpg\",\"img/0766/0bf3793e-c353-45e5-ac6f-753f5f484e10.jpg\"]","trial_type":"similarity","trial_index":9,"time_elapsed":115697,"internal_node_id":"0.0-6.0-3.0"},{"sim_score":3,"rt":7182,"stimulus":"[\"img/0864/f92649a2-0590-4d31-9a7a-1bfb81666a2d.jpg\",\"img/0860/b03b963d-949b-4d8d-b19c-4950c89eeca2.jpg\"]","trial_type":"similarity","trial_index":10,"time_elapsed":123880,"internal_node_id":"0.0-6.0-4.0"},{"sim_score":5,"rt":6323,"stimulus":"[\"img/0902/01b41522-de46-4c3a-b0af-a61b2682b40e.jpg\",\"img/0899/4408c14d-c168-4a7d-96f6-bc87bfb58f83.jpg\"]","trial_type":"similarity","trial_index":11,"time_elapsed":131203,"internal_node_id":"0.0-6.0-5.0"},{"sim_score":1,"rt":5998,"stimulus":"[\"img/0868/4a8a45ed-2c4f-421b-9564-409a33ecd26c.jpg\",\"img/0769/a1ce8d07-ba37-40de-bade-2778805521e0.jpg\"]","trial_type":"similarity","trial_index":12,"time_elapsed":138204,"internal_node_id":"0.0-6.0-6.0"},{"sim_score":3,"rt":5783,"stimulus":"[\"img/0764/06ea144f-f4f3-4a14-ba47-f20f35c561e0.jpg\",\"img/0901/1b86f2fc-7a1d-4aa8-9252-114f92edef3b.jpg\"]","trial_type":"similarity","trial_index":13,"time_elapsed":144987,"internal_node_id":"0.0-6.0-7.0"},{"sim_score":5,"rt":10646,"stimulus":"[\"img/0881/33d65d80-8a8e-4ecf-852d-0ad7725c17a2.jpg\",\"img/0866/93a27239-8317-4e08-98ca-d8b1ff298e07.jpg\"]","trial_type":"similarity","trial_index":14,"time_elapsed":156633,"internal_node_id":"0.0-6.0-8.0"},{"sim_score":1,"rt":5948,"stimulus":"[\"img/0867/50a1b60e-3a29-44bf-b606-d4bd3746fea9.jpg\",\"img/0899/a048912c-b12c-40e3-90af-46b69b0cc4fe.jpg\"]","trial_type":"similarity","trial_index":15,"time_elapsed":163584,"internal_node_id":"0.0-6.0-9.0"},{"sim_score":1,"rt":4681,"stimulus":"[\"img/0875/90da8d75-108a-44ad-b999-e21fee3860d3.jpg\",\"img/0766/717fd72f-a281-499b-a5ba-5e2ecc4d4866.jpg\"]","trial_type":"similarity","trial_index":16,"time_elapsed":169267,"internal_node_id":"0.0-6.0-10.0"},{"sim_score":1,"rt":5099,"stimulus":"[\"img/0901/4f9cffe0-c0be-4d7f-bacd-9d51efd19b4a.jpg\",\"img/0875/3ecb367d-e9eb-4826-8aaa-7aa72fb98019.jpg\"]","trial_type":"similarity","trial_index":17,"time_elapsed":175378,"internal_node_id":"0.0-6.0-11.0"},{"sim_score":2,"rt":7583,"stimulus":"[\"img/0902/c018bd7a-d91a-4192-aea4-7259cfcdb6c4.jpg\",\"img/0860/c7047cd2-7cc1-41b6-8a34-c0986774975f.jpg\"]","trial_type":"similarity","trial_index":18,"time_elapsed":183961,"internal_node_id":"0.0-6.0-12.0"},{"sim_score":1,"rt":6783,"stimulus":"[\"img/0874/2c9464dd-8a23-4baa-ac94-1ba3af5c15cc.jpg\",\"img/0867/1719a35d-f085-48c0-9099-16c94fe418b4.jpg\"]","trial_type":"similarity","trial_index":19,"time_elapsed":191744,"internal_node_id":"0.0-6.0-13.0"},{"sim_score":1,"rt":5354,"stimulus":"[\"img/0904/65e2b70a-b184-4da3-b5c0-5038bdf9469a.jpg\",\"img/0866/c446214b-a368-4c65-ae39-ea46894256ab.jpg\"]","trial_type":"similarity","trial_index":20,"time_elapsed":198100,"internal_node_id":"0.0-6.0-14.0"},{"sim_score":1,"rt":6093,"stimulus":"[\"img/0758/dd559618-7f09-4a07-8018-d311c4a5ea29.jpg\",\"img/0902/1a120fb9-dbd6-443e-ba91-b4aceab963da.jpg\"]","trial_type":"similarity","trial_index":21,"time_elapsed":205195,"internal_node_id":"0.0-6.0-15.0"},{"sim_score":1,"rt":4090,"stimulus":"[\"img/0867/12264664-1860-46df-8c21-162b9817cdda.jpg\",\"img/0898/81b08535-2020-4c15-9ce4-2f1e460755ae.jpg\"]","trial_type":"similarity","trial_index":22,"time_elapsed":210290,"internal_node_id":"0.0-6.0-16.0"},{"sim_score":2,"rt":5210,"stimulus":"[\"img/0904/9dd5708f-3f8b-46a9-b49f-2f2fab87b357.jpg\",\"img/0868/4bd5105a-d2c3-4f82-8c80-57196106ba53.jpg\"]","trial_type":"similarity","trial_index":23,"time_elapsed":216513,"internal_node_id":"0.0-6.0-17.0"},{"sim_score":1,"rt":4954,"stimulus":"[\"img/0766/d5d38751-8fa5-476f-93e9-86ed2d9045ef.jpg\",\"img/0864/3651d070-2fc5-4848-b6a6-088a2d9ac5c9.jpg\"]","trial_type":"similarity","trial_index":24,"time_elapsed":222474,"internal_node_id":"0.0-6.0-18.0"},{"sim_score":5,"rt":9531,"stimulus":"[\"img/0899/f95cbdb4-f804-4f5d-ad76-373ad343e658.jpg\",\"img/0766/2e1cf445-9aef-40e7-92f4-5facf48b64c5.jpg\"]","trial_type":"similarity","trial_index":25,"time_elapsed":233018,"internal_node_id":"0.0-6.0-19.0"},{"sim_score":1,"rt":6303,"stimulus":"[\"img/0764/958b8576-3a3b-4acc-96dc-06b74de69f37.jpg\",\"img/0758/2fa3e613-e676-4e6e-bd12-705327eeb3e1.jpg\"]","trial_type":"similarity","trial_index":26,"time_elapsed":240323,"internal_node_id":"0.0-6.0-20.0"},{"sim_score":1,"rt":4042,"stimulus":"[\"img/0901/a6c90438-fa7c-4418-ac7c-16c2e772dd98.jpg\",\"img/0874/99f6563c-8a8d-4c1c-a41d-667b618c3fd5.jpg\"]","trial_type":"similarity","trial_index":27,"time_elapsed":245386,"internal_node_id":"0.0-6.0-21.0"},{"sim_score":2,"rt":5029,"stimulus":"[\"img/0875/2e13d160-eea1-416b-aff1-d37ab99ecc1d.jpg\",\"img/0758/335851a0-a55b-46d8-ab05-8463eda48349.jpg\"]","trial_type":"similarity","trial_index":28,"time_elapsed":251415,"internal_node_id":"0.0-6.0-22.0"},{"sim_score":1,"rt":8650,"stimulus":"[\"img/0867/26611f4e-d694-4460-b7e2-43c62753ddc3.jpg\",\"img/0881/c24f3051-eefa-42de-aba6-fccb56d93c70.jpg\"]","trial_type":"similarity","trial_index":29,"time_elapsed":261069,"internal_node_id":"0.0-6.0-23.0"},{"sim_score":2,"rt":6553,"stimulus":"[\"img/0758/9fb5b2fe-3f00-4fe6-973c-1ce10d5f4cd5.jpg\",\"img/0901/a0d65c84-3f20-476a-92d1-0c01e8019cf4.jpg\"]","trial_type":"similarity","trial_index":30,"time_elapsed":268625,"internal_node_id":"0.0-6.0-24.0"},{"sim_score":1,"rt":6040,"stimulus":"[\"img/0868/83b4350a-3b70-4cea-b7f5-b5b56f3050a8.jpg\",\"img/0875/d59ff733-eaff-4ee2-9443-06954dd0bcb6.jpg\"]","trial_type":"similarity","trial_index":31,"time_elapsed":275665,"internal_node_id":"0.0-6.0-25.0"},{"sim_score":5,"rt":5151,"stimulus":"[\"img/0903/6138142e-c84e-45fc-9487-c974f3d4968a.jpg\",\"img/0901/a6776381-91fe-43f8-ab73-261d318f95fd.jpg\"]","trial_type":"similarity","trial_index":32,"time_elapsed":281826,"internal_node_id":"0.0-6.0-26.0"},{"sim_score":3,"rt":5076,"stimulus":"[\"img/0894/661b9f9f-4bde-487a-b1ed-87085fde6948.jpg\",\"img/0899/5b56dd3e-3f49-47cc-af84-16da6457753b.jpg\"]","trial_type":"similarity","trial_index":33,"time_elapsed":287923,"internal_node_id":"0.0-6.0-27.0"},{"sim_score":2,"rt":6003,"stimulus":"[\"img/0862/064818ee-13d5-4618-bb24-21c7368ea278.jpg\",\"img/0867/7d1c497b-c1b3-4ed8-abb5-d7f73306015f.jpg\"]","trial_type":"similarity","trial_index":34,"time_elapsed":294928,"internal_node_id":"0.0-6.0-28.0"},{"sim_score":2,"rt":4797,"stimulus":"[\"img/0864/c3b63e8f-ea39-4d70-a1f2-b3fe4be8eb75.jpg\",\"img/0875/2c361b79-c3d1-4eda-812e-bf03192407bf.jpg\"]","trial_type":"similarity","trial_index":35,"time_elapsed":300732,"internal_node_id":"0.0-6.0-29.0"},{"sim_score":4,"rt":10462,"stimulus":"[\"img/0862/00c06b00-3b73-44e9-bc1e-c5aafb438321.jpg\",\"img/0874/31e22c7c-99aa-40b1-bf03-dd73fa2df4d6.jpg\"]","trial_type":"similarity","trial_index":36,"time_elapsed":312194,"internal_node_id":"0.0-6.0-30.0"},{"sim_score":1,"rt":3913,"stimulus":"[\"img/0903/c708d08f-a108-4e04-8288-c3fcf6375db4.jpg\",\"img/0758/b76ceca7-95ac-46e4-ac13-da02c8e93be9.jpg\"]","trial_type":"similarity","trial_index":37,"time_elapsed":317111,"internal_node_id":"0.0-6.0-31.0"},{"sim_score":1,"rt":3867,"stimulus":"[\"img/0866/0207e9a2-7dbb-40b5-9459-b472aaeceb2a.jpg\",\"img/0901/5b97abf9-f0c8-4fd1-b921-36d574779078.jpg\"]","trial_type":"similarity","trial_index":38,"time_elapsed":321995,"internal_node_id":"0.0-6.0-32.0"},{"sim_score":4,"rt":8607,"stimulus":"[\"img/0874/85eb9b8a-c4c6-4e5a-b8e7-363a87a82054.jpg\",\"img/0899/06b0fc99-0581-461a-9913-d1a5a941ac61.jpg\"]","trial_type":"similarity","trial_index":39,"time_elapsed":331607,"internal_node_id":"0.0-6.0-33.0"},{"sim_score":6,"rt":7095,"stimulus":"[\"img/0903/71dbc325-b588-4297-a5cf-7f268a722ad9.jpg\",\"img/0902/168ebd47-9e82-4ab7-a18b-c3da85072db8.jpg\"]","trial_type":"similarity","trial_index":40,"time_elapsed":339702,"internal_node_id":"0.0-6.0-34.0"},{"sim_score":3,"rt":6674,"stimulus":"[\"img/0758/d41c06bf-ebaf-454b-91c6-1a17f917b659.jpg\",\"img/0866/d266fece-59b3-46fa-b69f-96f6efb81b59.jpg\"]","trial_type":"similarity","trial_index":41,"time_elapsed":347381,"internal_node_id":"0.0-6.0-35.0"},{"sim_score":1,"rt":4056,"stimulus":"[\"img/0875/ebf7653f-ff45-4e9f-af58-2c042ab3cd2b.jpg\",\"img/0903/8c358e9e-a4f4-466e-8b93-7aec0d2358e8.jpg\"]","trial_type":"similarity","trial_index":42,"time_elapsed":352437,"internal_node_id":"0.0-6.0-36.0"},{"sim_score":1,"rt":3385,"stimulus":"[\"img/0864/5f74a653-3bdc-4308-8cca-ac667dc22e1f.jpg\",\"img/0902/71c03003-03ef-4b0f-8229-e0c857150a5d.jpg\"]","trial_type":"similarity","trial_index":43,"time_elapsed":362410,"internal_node_id":"0.0-6.0-37.0"},{"sim_score":1,"rt":5068,"stimulus":"[\"img/0901/875dedb9-24c9-4443-9f8c-85e97d70ee5a.jpg\",\"img/0867/db7e032f-162b-46f5-ae67-2b29679adee4.jpg\"]","trial_type":"similarity","trial_index":44,"time_elapsed":368481,"internal_node_id":"0.0-6.0-38.0"},{"sim_score":6,"rt":5877,"stimulus":"[\"img/0862/f23038d4-c366-4f70-979f-66b62362efa4.jpg\",\"img/0860/f44ba3fb-03a2-42f0-8509-2c1ded493086.jpg\"]","trial_type":"similarity","trial_index":45,"time_elapsed":375360,"internal_node_id":"0.0-6.0-39.0"},{"sim_score":6,"rt":5332,"stimulus":"[\"img/0867/de92135f-5b65-4ed9-b245-188292c7c2f8.jpg\",\"img/0868/77091fc7-a590-4ebb-b915-fdb2483a2399.jpg\"]","trial_type":"similarity","trial_index":46,"time_elapsed":381699,"internal_node_id":"0.0-6.0-40.0"},{"sim_score":6,"rt":6016,"stimulus":"[\"img/0904/4d7d70a3-9477-4921-bda0-f9531d0a5c5b.jpg\",\"img/0899/fef567a2-c121-4481-9af0-ff108d199bbf.jpg\"]","trial_type":"similarity","trial_index":47,"time_elapsed":388722,"internal_node_id":"0.0-6.0-41.0"},{"sim_score":2,"rt":5212,"stimulus":"[\"img/0862/fad1d7c1-8187-43c3-942a-0fc12183e48e.jpg\",\"img/0894/5f15154e-e72e-4ce5-aafb-bce6f0564006.jpg\"]","trial_type":"similarity","trial_index":48,"time_elapsed":394935,"internal_node_id":"0.0-6.0-42.0"},{"sim_score":1,"rt":3676,"stimulus":"[\"img/0875/99698b4d-b4a1-44bc-8c83-8ea755bbbf61.jpg\",\"img/0904/696ebb60-8891-417a-91fd-c53218907a95.jpg\"]","trial_type":"similarity","trial_index":49,"time_elapsed":399615,"internal_node_id":"0.0-6.0-43.0"},{"sim_score":1,"rt":4223,"stimulus":"[\"img/0874/8cdb1c07-1c32-46d2-981c-3636560fa6e5.jpg\",\"img/0898/a8f16b02-e19f-423b-86c3-a36562ae1f9b.jpg\"]","trial_type":"similarity","trial_index":50,"time_elapsed":404845,"internal_node_id":"0.0-6.0-44.0"},{"sim_score":1,"rt":3735,"stimulus":"[\"img/0898/68476bbb-34a1-42d9-8bc1-deab783d4489.jpg\",\"img/0868/09a9ef4d-d000-4cfa-a6aa-ebec7c2edeb4.jpg\"]","trial_type":"similarity","trial_index":51,"time_elapsed":409589,"internal_node_id":"0.0-6.0-45.0"},{"sim_score":1,"rt":3430,"stimulus":"[\"img/0901/b9141736-3041-4385-a586-b1fe911c76a5.jpg\",\"img/0860/61fb959d-d4d9-4de4-9e4e-4fa62b4cfcd5.jpg\"]","trial_type":"similarity","trial_index":52,"time_elapsed":414019,"internal_node_id":"0.0-6.0-46.0"},{"sim_score":7,"rt":5323,"stimulus":"[\"img/0894/6aa5545f-fa7d-4286-bbaa-aaf34dc7ec96.jpg\",\"img/0902/07437a16-3d0f-4a5c-89ec-36d0efa4b3b8.jpg\"]","trial_type":"similarity","trial_index":53,"time_elapsed":420342,"internal_node_id":"0.0-6.0-47.0"},{"sim_score":2,"rt":4630,"stimulus":"[\"img/0764/da207710-e7e4-4f42-b2e6-99b5f357f433.jpg\",\"img/0862/24cdc752-c2e5-4a17-86a6-6f2045d8553b.jpg\"]","trial_type":"similarity","trial_index":54,"time_elapsed":425972,"internal_node_id":"0.0-6.0-48.0"},{"sim_score":7,"rt":5550,"stimulus":"[\"img/0881/344de456-b358-4887-bd0e-e4c3278af887.jpg\",\"img/0758/7ee8bc8f-c40b-4b3a-84ec-3e83580622d4.jpg\"]","trial_type":"similarity","trial_index":55,"time_elapsed":432522,"internal_node_id":"0.0-6.0-49.0"},{"sim_score":6,"rt":5887,"stimulus":"[\"img/0766/d14acac4-7db1-4b07-8f8f-302437326fc0.jpg\",\"img/0769/688d0c52-ad73-4065-a5eb-f8c10d076bff.jpg\"]","trial_type":"similarity","trial_index":56,"time_elapsed":439421,"internal_node_id":"0.0-6.0-50.0"},{"sim_score":6,"rt":6853,"stimulus":"[\"img/0875/527ced51-8e53-4aab-ab05-86df219104c0.jpg\",\"img/0866/be24ab58-230e-4db8-9f45-ff04c9aec6bb.jpg\"]","trial_type":"similarity","trial_index":57,"time_elapsed":447284,"internal_node_id":"0.0-6.0-51.0"},{"sim_score":7,"rt":5803,"stimulus":"[\"img/0894/76c1201f-8524-4865-85e6-dda8cb4ac986.jpg\",\"img/0904/2fd488e9-960f-41f7-8a44-33375f7d5051.jpg\"]","trial_type":"similarity","trial_index":58,"time_elapsed":454091,"internal_node_id":"0.0-6.0-52.0"},{"sim_score":5,"rt":5690,"stimulus":"[\"img/0758/a709631e-3705-4725-ac40-f0d916924f08.jpg\",\"img/0769/bb8c4e53-6f32-4814-97ee-392d4decfb2e.jpg\"]","trial_type":"similarity","trial_index":59,"time_elapsed":460804,"internal_node_id":"0.0-6.0-53.0"},{"sim_score":1,"rt":4281,"stimulus":"[\"img/0902/fbef27fa-ac83-4936-ab78-9d1c20a383e1.jpg\",\"img/0874/7e4f2150-3b59-4a36-b5da-a4e0ba410531.jpg\"]","trial_type":"similarity","trial_index":60,"time_elapsed":466085,"internal_node_id":"0.0-6.0-54.0"},{"sim_score":1,"rt":4562,"stimulus":"[\"img/0903/47e39de8-6959-469f-8be9-6999a6db207c.jpg\",\"img/0862/de9ad88c-b522-430a-8ee9-eb06a9f85df5.jpg\"]","trial_type":"similarity","trial_index":61,"time_elapsed":471660,"internal_node_id":"0.0-6.0-55.0"},{"sim_score":1,"rt":5285,"stimulus":"[\"img/0866/bf14b5bd-fb55-47db-86b9-4f8aeb9a6dad.jpg\",\"img/0894/2217bdcd-23a7-42d3-823b-23f2488d7e87.jpg\"]","trial_type":"similarity","trial_index":62,"time_elapsed":477947,"internal_node_id":"0.0-6.0-56.0"},{"sim_score":1,"rt":4112,"stimulus":"[\"img/0867/f8488a47-94ee-4166-952c-44e16cf172f6.jpg\",\"img/0904/2c98dc56-88d1-4fb5-a999-b6a7861f65f0.jpg\"]","trial_type":"similarity","trial_index":63,"time_elapsed":483066,"internal_node_id":"0.0-6.0-57.0"},{"sim_score":2,"rt":4122,"stimulus":"[\"img/0875/5a716432-c6ca-4b1c-955a-2b8ac25198ee.jpg\",\"img/0881/566f45f8-5fed-4479-a60f-26377e60a62d.jpg\"]","trial_type":"similarity","trial_index":64,"time_elapsed":488189,"internal_node_id":"0.0-6.0-58.0"},{"sim_score":5,"rt":5343,"stimulus":"[\"img/0866/23a224f3-2012-4fc8-8e0f-3c36f8de27fd.jpg\",\"img/0860/5383b320-1518-4095-a58e-5cc1ae30b64c.jpg\"]","trial_type":"similarity","trial_index":65,"time_elapsed":494540,"internal_node_id":"0.0-6.0-59.0"},{"sim_score":4,"rt":6319,"stimulus":"[\"img/0903/0a92ec52-4e87-410a-857a-4455cde56a70.jpg\",\"img/0866/07c9c966-3c8d-40e7-8128-92b2acbaed5d.jpg\"]","trial_type":"similarity","trial_index":66,"time_elapsed":501861,"internal_node_id":"0.0-6.0-60.0"},{"sim_score":3,"rt":6213,"stimulus":"[\"img/0860/18dfed73-e36b-4487-a8bd-0b8cff8e3668.jpg\",\"img/0875/e7e66b13-b573-431e-b85e-288ce04a35a3.jpg\"]","trial_type":"similarity","trial_index":67,"time_elapsed":509081,"internal_node_id":"0.0-6.0-61.0"},{"sim_score":1,"rt":6037,"stimulus":"[\"img/0898/881e2a85-d5c2-49be-a0c6-8a6ce2c4af08.jpg\",\"img/0862/e697469a-ec19-4414-b972-7b9f3564785b.jpg\"]","trial_type":"similarity","trial_index":68,"time_elapsed":516121,"internal_node_id":"0.0-6.0-62.0"},{"sim_score":5,"rt":8710,"stimulus":"[\"img/0902/40d0b6ec-3907-4573-b227-e7d8e9cad1c3.jpg\",\"img/0766/a1ed3f0f-e338-4a26-8fe4-4370f0c9fa6e.jpg\"]","trial_type":"similarity","trial_index":69,"time_elapsed":525837,"internal_node_id":"0.0-6.0-63.0"},{"sim_score":5,"rt":4658,"stimulus":"[\"img/0758/a085b443-b5d7-4cb2-9ad4-b9dab0fc23f1.jpg\",\"img/0864/0f537697-a314-47c3-a8cc-8df23b7e536c.jpg\"]","trial_type":"similarity","trial_index":70,"time_elapsed":531498,"internal_node_id":"0.0-6.0-64.0"},{"sim_score":1,"rt":3414,"stimulus":"[\"img/0894/38cf335f-f76f-4349-8d65-e20cd6859565.jpg\",\"img/0860/8277806e-b684-4474-8f7b-3fca946d7d4f.jpg\"]","trial_type":"similarity","trial_index":71,"time_elapsed":535925,"internal_node_id":"0.0-6.0-65.0"},{"sim_score":1,"rt":3168,"stimulus":"[\"img/0899/76ad07e2-ca25-45eb-84f2-8d80b8ca3e26.jpg\",\"img/0868/5fa7f9d0-f0e5-454c-8224-74d964818f56.jpg\"]","trial_type":"similarity","trial_index":72,"time_elapsed":540094,"internal_node_id":"0.0-6.0-66.0"},{"sim_score":5,"rt":4420,"stimulus":"[\"img/0866/6f2a90d7-14f1-4f1b-bd64-fc0af6b9fe44.jpg\",\"img/0862/d0ca4c78-fc35-46ed-bdcc-8e124283c53e.jpg\"]","trial_type":"similarity","trial_index":73,"time_elapsed":545521,"internal_node_id":"0.0-6.0-67.0"},{"sim_score":5,"rt":5117,"stimulus":"[\"img/0860/9593362c-9fe5-4d12-9735-6000a11f6aa5.jpg\",\"img/0758/65d426d6-3ff6-415d-8654-a43b83ecc4fe.jpg\"]","trial_type":"similarity","trial_index":74,"time_elapsed":551644,"internal_node_id":"0.0-6.0-68.0"},{"sim_score":3,"rt":4463,"stimulus":"[\"img/0902/ca3160ba-ad5d-459f-a1b6-8b4f3c85ecd5.jpg\",\"img/0867/c66898ba-b71b-4d50-84f9-f7f84853a98d.jpg\"]","trial_type":"similarity","trial_index":75,"time_elapsed":557117,"internal_node_id":"0.0-6.0-69.0"},{"sim_score":1,"rt":2903,"stimulus":"[\"img/0862/fb26cb07-d5a9-4653-813c-f41609f26cd5.jpg\",\"img/0901/58978a6d-a3e2-4c59-8d62-f60693ecc0f6.jpg\"]","trial_type":"similarity","trial_index":76,"time_elapsed":561020,"internal_node_id":"0.0-6.0-70.0"},{"sim_score":6,"rt":4329,"stimulus":"[\"img/0867/6e19c858-b606-45b2-a4c6-910a73f1d82c.jpg\",\"img/0866/d493a2c8-66eb-44b4-be02-2f327b700b7c.jpg\"]","trial_type":"similarity","trial_index":77,"time_elapsed":566353,"internal_node_id":"0.0-6.0-71.0"},{"sim_score":5,"rt":5233,"stimulus":"[\"img/0860/fd4662f9-4c03-4d79-8593-06735e55a64b.jpg\",\"img/0904/63dd06dd-dccb-47ba-9740-eb33239e18a7.jpg\"]","trial_type":"similarity","trial_index":78,"time_elapsed":572593,"internal_node_id":"0.0-6.0-72.0"},{"sim_score":1,"rt":4445,"stimulus":"[\"img/0875/a4935837-7d3c-4df6-88c1-36a94d4991ca.jpg\",\"img/0899/d8f2dd94-570e-4e8c-a087-d96090fb9e8c.jpg\"]","trial_type":"similarity","trial_index":79,"time_elapsed":578052,"internal_node_id":"0.0-6.0-73.0"},{"sim_score":1,"rt":5537,"stimulus":"[\"img/0899/d60714ae-98d7-4564-8c98-94dba1351135.jpg\",\"img/0758/821c68d3-5cb0-4eae-8659-30e6263fca39.jpg\"]","trial_type":"similarity","trial_index":80,"time_elapsed":584596,"internal_node_id":"0.0-6.0-74.0"},{"sim_score":3,"rt":4570,"stimulus":"[\"img/0862/57b6f83f-c763-4858-830d-102f97bfefbf.jpg\",\"img/0875/cff79b3a-a797-4393-9757-6275f999ec04.jpg\"]","trial_type":"similarity","trial_index":81,"time_elapsed":592530,"internal_node_id":"0.0-6.0-75.0"},{"sim_score":5,"rt":4444,"stimulus":"[\"img/0901/d6d15b1c-4a30-4f74-a3fd-d4c8ee4169ca.jpg\",\"img/0894/1a010553-d598-4b06-a772-81f1e7b3addb.jpg\"]","trial_type":"similarity","trial_index":82,"time_elapsed":597980,"internal_node_id":"0.0-6.0-76.0"},{"sim_score":1,"rt":4572,"stimulus":"[\"img/0766/71b81ebd-0937-4d7f-b8bf-c4e46a4728fd.jpg\",\"img/0758/61d64021-9214-4951-bdf8-f871f9827cf9.jpg\"]","trial_type":"similarity","trial_index":83,"time_elapsed":603556,"internal_node_id":"0.0-6.0-77.0"},{"sim_score":5,"rt":3487,"stimulus":"[\"img/0894/a98416c0-51e2-4960-85da-d81d8688b9d5.jpg\",\"img/0764/ec2dd087-c471-4370-b570-95a542506a96.jpg\"]","trial_type":"similarity","trial_index":84,"time_elapsed":608046,"internal_node_id":"0.0-6.0-78.0"},{"sim_score":5,"rt":7518,"stimulus":"[\"img/0860/31ff6436-98bf-4652-bed2-40f627229568.jpg\",\"img/0867/2e1a0b58-cdb1-4107-a14e-452530d7b9b0.jpg\"]","trial_type":"similarity","trial_index":85,"time_elapsed":616565,"internal_node_id":"0.0-6.0-79.0"},{"sim_score":5,"rt":3891,"stimulus":"[\"img/0898/e167334e-cc1d-4986-b3b1-c7bc7da64baa.jpg\",\"img/0901/a9b9c0a0-8aed-4888-a78a-65fb7e764d13.jpg\"]","trial_type":"similarity","trial_index":86,"time_elapsed":621462,"internal_node_id":"0.0-6.0-80.0"},{"sim_score":2,"rt":5054,"stimulus":"[\"img/0874/3ce41e7c-40c8-4d58-a546-171114521796.jpg\",\"img/0764/1f95ab5f-fb65-4d70-b5db-d6bd6351a8aa.jpg\"]","trial_type":"similarity","trial_index":87,"time_elapsed":627519,"internal_node_id":"0.0-6.0-81.0"},{"sim_score":1,"rt":4635,"stimulus":"[\"img/0899/4f7bc593-8ddd-4da3-a0b9-84da730d3370.jpg\",\"img/0862/f188d4f0-76a4-4102-818c-a209969d73a5.jpg\"]","trial_type":"similarity","trial_index":88,"time_elapsed":633156,"internal_node_id":"0.0-6.0-82.0"},{"sim_score":3,"rt":4579,"stimulus":"[\"img/0766/af3be95e-e52e-4fae-899b-0ff02ec340aa.jpg\",\"img/0901/77087ed2-6e12-4329-b2a5-605bca6d972d.jpg\"]","trial_type":"similarity","trial_index":89,"time_elapsed":638738,"internal_node_id":"0.0-6.0-83.0"},{"sim_score":1,"rt":5145,"stimulus":"[\"img/0881/292e9b4b-fca0-4ba8-87f1-4048f9e37b7d.jpg\",\"img/0898/8605a25b-6895-476d-8c13-df7a83f96093.jpg\"]","trial_type":"similarity","trial_index":90,"time_elapsed":644887,"internal_node_id":"0.0-6.0-84.0"},{"sim_score":4,"rt":7472,"stimulus":"[\"img/0868/4e626425-63c8-484a-8a1d-e66ee4e0bef8.jpg\",\"img/0860/4f695df5-afac-4da7-9875-fee39b0b24ad.jpg\"]","trial_type":"similarity","trial_index":91,"time_elapsed":653361,"internal_node_id":"0.0-6.0-85.0"},{"sim_score":3,"rt":4360,"stimulus":"[\"img/0758/7ffbc76b-1fc1-432c-8f7e-9ec8d1b3f643.jpg\",\"img/0868/1a62b2b2-18f5-466e-b564-5176a57c565e.jpg\"]","trial_type":"similarity","trial_index":92,"time_elapsed":658725,"internal_node_id":"0.0-6.0-86.0"},{"sim_score":1,"rt":4476,"stimulus":"[\"img/0864/c22faebd-9c53-47bc-ada3-b9a30c688e75.jpg\",\"img/0894/e6385e52-6c35-43bd-b0af-bc803d107b11.jpg\"]","trial_type":"similarity","trial_index":93,"time_elapsed":664201,"internal_node_id":"0.0-6.0-87.0"},{"sim_score":1,"rt":5706,"stimulus":"[\"img/0866/620cd1aa-0800-4414-8f6e-90342e7a99ad.jpg\",\"img/0902/51493fab-2a10-4385-aa88-bee3db441626.jpg\"]","trial_type":"similarity","trial_index":94,"time_elapsed":670915,"internal_node_id":"0.0-6.0-88.0"},{"sim_score":3,"rt":5263,"stimulus":"[\"img/0769/e8ed913b-8a88-44f6-9327-d34afec3116b.jpg\",\"img/0867/8ba0c5a7-c7e4-42cf-a80a-543763b90779.jpg\"]","trial_type":"similarity","trial_index":95,"time_elapsed":677178,"internal_node_id":"0.0-6.0-89.0"},{"sim_score":5,"rt":3940,"stimulus":"[\"img/0874/a3bc679d-619f-4db6-bb68-116dcb757d9c.jpg\",\"img/0875/42910c99-5463-450a-a0f8-d4d060a11455.jpg\"]","trial_type":"similarity","trial_index":96,"time_elapsed":682122,"internal_node_id":"0.0-6.0-90.0"},{"sim_score":7,"rt":5803,"stimulus":"[\"img/0864/5f33e097-23e3-4002-882d-76e8cb15f451.jpg\",\"img/0874/93d1f8dc-acf2-4f03-bd8d-8ec35df276ed.jpg\"]","trial_type":"similarity","trial_index":97,"time_elapsed":688934,"internal_node_id":"0.0-6.0-91.0"},{"sim_score":5,"rt":5104,"stimulus":"[\"img/0881/48ed65a5-471f-41af-86ec-3793805c116d.jpg\",\"img/0862/a0a3a7ba-7798-46a3-b4ca-05e1f6e581d0.jpg\"]","trial_type":"similarity","trial_index":98,"time_elapsed":695042,"internal_node_id":"0.0-6.0-92.0"},{"sim_score":6,"rt":5542,"stimulus":"[\"img/0864/65210d57-1153-4657-886a-32e758f49b4a.jpg\",\"img/0881/4bd34581-94d8-4e88-8c89-5cef864ca3be.jpg\"]","trial_type":"similarity","trial_index":99,"time_elapsed":701591,"internal_node_id":"0.0-6.0-93.0"},{"sim_score":1,"rt":5409,"stimulus":"[\"img/0899/0e1d936a-dbe2-4afc-9f19-7b7a1ae6c9ed.jpg\",\"img/0901/12da1841-e611-435c-9719-109413d536a8.jpg\"]","trial_type":"similarity","trial_index":100,"time_elapsed":708006,"internal_node_id":"0.0-6.0-94.0"},{"sim_score":1,"rt":4049,"stimulus":"[\"img/0874/bf14b896-e930-4fd9-9c05-2e83317a2773.jpg\",\"img/0766/dd3e18d0-0c98-4d05-b850-69976ee8cd75.jpg\"]","trial_type":"similarity","trial_index":101,"time_elapsed":713062,"internal_node_id":"0.0-6.0-95.0"},{"sim_score":1,"rt":3687,"stimulus":"[\"img/0881/6b1189e6-232d-4042-8885-16dc7b10e0d4.jpg\",\"img/0899/25ae6ec8-9565-49fe-a8bb-8d0666f52716.jpg\"]","trial_type":"similarity","trial_index":102,"time_elapsed":717740,"internal_node_id":"0.0-6.0-96.0"},{"sim_score":2,"rt":5609,"stimulus":"[\"img/0862/92fcd8a4-8193-4a6a-ae09-dd4a6338b0df.jpg\",\"img/0902/6730b12a-f0a7-4587-8c10-a32fae16565b.jpg\"]","trial_type":"similarity","trial_index":103,"time_elapsed":724366,"internal_node_id":"0.0-6.0-97.0"},{"sim_score":6,"rt":5696,"stimulus":"[\"img/0899/565ccdd9-0933-4536-a625-3c0e25a713dd.jpg\",\"img/0764/56441045-b648-4ede-9632-3e9c0227080b.jpg\"]","trial_type":"similarity","trial_index":104,"time_elapsed":731066,"internal_node_id":"0.0-6.0-98.0"},{"sim_score":2,"rt":5143,"stimulus":"[\"img/0758/7fba58df-2a7a-4b76-8a8f-62739f97f271.jpg\",\"img/0862/47ed5efd-4ec9-4b74-bb4e-a5f5cf0c3e7d.jpg\"]","trial_type":"similarity","trial_index":105,"time_elapsed":737222,"internal_node_id":"0.0-6.0-99.0"},{"sim_score":3,"rt":4946,"stimulus":"[\"img/0764/b887d7c6-aa81-4637-af8e-05135757ac59.jpg\",\"img/0898/82231d4c-218b-4d0a-b50d-35a49b524e97.jpg\"]","trial_type":"similarity","trial_index":106,"time_elapsed":743176,"internal_node_id":"0.0-6.0-100.0"},{"sim_score":6,"rt":4696,"stimulus":"[\"img/0901/b453df0b-4c39-49bb-8ced-6127efffa898.jpg\",\"img/0902/2a7ac123-414a-476a-9a96-4757b924baef.jpg\"]","trial_type":"similarity","trial_index":107,"time_elapsed":748872,"internal_node_id":"0.0-6.0-101.0"},{"sim_score":1,"rt":3853,"stimulus":"[\"img/0764/d0bef2e0-e16b-4c82-9451-c1d16265eb67.jpg\",\"img/0868/fd307a36-9a3a-47d7-ab7c-f810d0b35040.jpg\"]","trial_type":"similarity","trial_index":108,"time_elapsed":753728,"internal_node_id":"0.0-6.0-102.0"},{"sim_score":1,"rt":6630,"stimulus":"[\"img/0769/f2740c58-7c02-433f-920b-746b0b75435b.jpg\",\"img/0881/4da99fdd-1f40-4bbb-8e21-8833eef313f5.jpg\"]","trial_type":"similarity","trial_index":109,"time_elapsed":761365,"internal_node_id":"0.0-6.0-103.0"},{"sim_score":1,"rt":4237,"stimulus":"[\"img/0864/ef9cbca0-4be8-435d-ad49-977259e80409.jpg\",\"img/0769/50985283-d353-4abc-9abe-14a91d56ebe6.jpg\"]","trial_type":"similarity","trial_index":110,"time_elapsed":766605,"internal_node_id":"0.0-6.0-104.0"},{"sim_score":5,"rt":7084,"stimulus":"[\"img/0866/945c6710-d15b-4a5b-a8f6-69af0850357f.jpg\",\"img/0868/179a5502-ab5c-478e-8263-5a1fbcc101d2.jpg\"]","trial_type":"similarity","trial_index":111,"time_elapsed":774695,"internal_node_id":"0.0-6.0-105.0"},{"sim_score":4,"rt":6937,"stimulus":"[\"img/0868/c8ac40c7-6904-4e13-8d61-c75d3052dc4e.jpg\",\"img/0862/1c20f772-3a51-4a80-aac0-f57dc9f86c28.jpg\"]","trial_type":"similarity","trial_index":112,"time_elapsed":782641,"internal_node_id":"0.0-6.0-106.0"},{"sim_score":5,"rt":5253,"stimulus":"[\"img/0766/51d3aab4-3d09-4dda-b99d-3dc7aaabc6f2.jpg\",\"img/0898/0af304a2-6a7a-4082-ab7c-4450cd08cc58.jpg\"]","trial_type":"similarity","trial_index":113,"time_elapsed":788894,"internal_node_id":"0.0-6.0-107.0"},{"sim_score":1,"rt":3917,"stimulus":"[\"img/0898/224c1572-56b9-4f16-a9e4-6f3bc9c114bd.jpg\",\"img/0864/b3c4e378-28f0-4699-9338-2a257b4bca04.jpg\"]","trial_type":"similarity","trial_index":114,"time_elapsed":793814,"internal_node_id":"0.0-6.0-108.0"},{"sim_score":1,"rt":3997,"stimulus":"[\"img/0868/e0aff734-077f-40dd-9781-74821abd3621.jpg\",\"img/0902/eb3e7e71-8ff1-4b88-a6a7-47e2c1ce1683.jpg\"]","trial_type":"similarity","trial_index":115,"time_elapsed":798817,"internal_node_id":"0.0-6.0-109.0"},{"sim_score":6,"rt":3856,"stimulus":"[\"img/0904/73920552-103b-4c9c-9ece-e0b8376b4504.jpg\",\"img/0764/50f1b062-d608-4bc0-ab25-b872dcf2ed93.jpg\"]","trial_type":"similarity","trial_index":116,"time_elapsed":803673,"internal_node_id":"0.0-6.0-110.0"},{"sim_score":1,"rt":4170,"stimulus":"[\"img/0894/9b1333fd-3561-43bf-aee5-99b7b7ca3dc3.jpg\",\"img/0875/dbdd643e-6d0e-4a5c-ab57-b9c29b9c981a.jpg\"]","trial_type":"similarity","trial_index":117,"time_elapsed":808846,"internal_node_id":"0.0-6.0-111.0"},{"sim_score":2,"rt":7653,"stimulus":"[\"img/0868/d98ca254-b195-477f-b57e-5760a2717db8.jpg\",\"img/0874/1016b306-087c-4afc-aa08-fa527b28dc76.jpg\"]","trial_type":"similarity","trial_index":118,"time_elapsed":817506,"internal_node_id":"0.0-6.0-112.0"},{"sim_score":7,"rt":4120,"stimulus":"[\"img/0904/0d25eb24-bb20-4e8d-9787-8b489558b4cb.jpg\",\"img/0898/b3290bf9-215b-4b45-b21a-65bdf73f142f.jpg\"]","trial_type":"similarity","trial_index":119,"time_elapsed":825079,"internal_node_id":"0.0-6.0-113.0"},{"sim_score":1,"rt":5123,"stimulus":"[\"img/0860/87039971-2210-4aab-93c0-8e9b5f1655b2.jpg\",\"img/0766/a0270213-fa0e-4972-8b56-228c3e01ff90.jpg\"]","trial_type":"similarity","trial_index":120,"time_elapsed":831209,"internal_node_id":"0.0-6.0-114.0"},{"sim_score":1,"rt":3924,"stimulus":"[\"img/0894/43216a7f-27bc-4b5a-8841-d122a30da9d9.jpg\",\"img/0874/3f471690-9788-4d03-90c7-f615aecef149.jpg\"]","trial_type":"similarity","trial_index":121,"time_elapsed":836133,"internal_node_id":"0.0-6.0-115.0"},{"sim_score":6,"rt":5086,"stimulus":"[\"img/0899/7f9d45d0-b2c6-40d3-aa41-c207db2c411b.jpg\",\"img/0903/6a87dbad-9b8d-4ff5-9c41-03c9aa24f0c3.jpg\"]","trial_type":"similarity","trial_index":122,"time_elapsed":842219,"internal_node_id":"0.0-6.0-116.0"},{"sim_score":1,"rt":3413,"stimulus":"[\"img/0881/54ea8e77-c7e5-4197-b7fa-00b7020849a7.jpg\",\"img/0764/ba0c0955-acbb-457d-b1c2-f006b88121d5.jpg\"]","trial_type":"similarity","trial_index":123,"time_elapsed":846649,"internal_node_id":"0.0-6.0-117.0"},{"sim_score":5,"rt":5675,"stimulus":"[\"img/0903/6f343da5-00d9-4d50-89d1-2ed24cdb8319.jpg\",\"img/0769/3c1203c5-2ce7-466e-957a-8d77b5905460.jpg\"]","trial_type":"similarity","trial_index":124,"time_elapsed":853325,"internal_node_id":"0.0-6.0-118.0"},{"sim_score":7,"rt":4880,"stimulus":"[\"img/0901/168eb52c-c415-43f1-b5c8-e76e1a1ec247.jpg\",\"img/0904/1d10df11-b5c8-4370-9a6b-097a7f965895.jpg\"]","trial_type":"similarity","trial_index":125,"time_elapsed":859209,"internal_node_id":"0.0-6.0-119.0"},{"sim_score":2,"rt":6396,"stimulus":"[\"img/0860/15b24a61-25be-4356-9eac-5ce95d0cb4a4.jpg\",\"img/0881/0c7068da-d0d9-4103-bda1-74ef7a2b32c3.jpg\"]","trial_type":"similarity","trial_index":126,"time_elapsed":866605,"internal_node_id":"0.0-6.0-120.0"},{"sim_score":5,"rt":6475,"stimulus":"[\"img/0758/ddc336e9-a8b6-4bb9-937a-c7e25e0e9250.jpg\",\"img/0874/eba003b4-cdab-4eee-8bc3-f064c7d94165.jpg\"]","trial_type":"similarity","trial_index":127,"time_elapsed":874083,"internal_node_id":"0.0-6.0-121.0"},{"sim_score":5,"rt":5946,"stimulus":"[\"img/0901/a373612d-67e2-4fec-9764-21d3d6ef6359.jpg\",\"img/0769/f6396414-6788-4d59-9683-de153298d89c.jpg\"]","trial_type":"similarity","trial_index":128,"time_elapsed":881034,"internal_node_id":"0.0-6.0-122.0"},{"sim_score":7,"rt":5013,"stimulus":"[\"img/0902/d5e25767-e8ec-45f3-ac0a-7b4a6f7a9edc.jpg\",\"img/0904/96e503ea-6630-4996-85f2-0237688ce441.jpg\"]","trial_type":"similarity","trial_index":129,"time_elapsed":887054,"internal_node_id":"0.0-6.0-123.0"},{"sim_score":1,"rt":3870,"stimulus":"[\"img/0899/8de08897-b430-42fe-9d42-840670b80f94.jpg\",\"img/0864/a248adb3-c70b-4652-b7a3-776d2a1e904b.jpg\"]","trial_type":"similarity","trial_index":130,"time_elapsed":891928,"internal_node_id":"0.0-6.0-124.0"},{"sim_score":1,"rt":5853,"stimulus":"[\"img/0766/aaec5f42-7f0a-4a16-aeca-488d757acbcc.jpg\",\"img/0868/293079b8-7e0c-4afd-a390-1e5d35fe3ded.jpg\"]","trial_type":"similarity","trial_index":131,"time_elapsed":898788,"internal_node_id":"0.0-6.0-125.0"},{"sim_score":1,"rt":4137,"stimulus":"[\"img/0764/29072395-f595-4e3c-83d3-ff87010039fa.jpg\",\"img/0864/87c467d3-abca-482f-ad80-3766c21b1bb3.jpg\"]","trial_type":"similarity","trial_index":132,"time_elapsed":903928,"internal_node_id":"0.0-6.0-126.0"},{"sim_score":1,"rt":3323,"stimulus":"[\"img/0899/93494f3b-d539-4075-b027-d82e344563da.jpg\",\"img/0866/a15b02be-11bb-43e3-b0e0-ecc3bd7dfc49.jpg\"]","trial_type":"similarity","trial_index":133,"time_elapsed":908254,"internal_node_id":"0.0-6.0-127.0"},{"sim_score":1,"rt":5866,"stimulus":"[\"img/0901/58ec7fa9-b466-4651-90aa-c082df0972de.jpg\",\"img/0881/14236cf2-6b95-48b8-9368-78af09d2d27f.jpg\"]","trial_type":"similarity","trial_index":134,"time_elapsed":915124,"internal_node_id":"0.0-6.0-128.0"},{"sim_score":7,"rt":4351,"stimulus":"[\"img/0898/26c41340-15bd-4ead-8fe4-c0d0ddca09c2.jpg\",\"img/0903/c3cb4a01-2797-43ca-b216-88c67b323fbb.jpg\"]","trial_type":"similarity","trial_index":135,"time_elapsed":920489,"internal_node_id":"0.0-6.0-129.0"},{"sim_score":1,"rt":4247,"stimulus":"[\"img/0894/38f5931f-926d-414e-b498-66b188978b7a.jpg\",\"img/0867/c71dc569-f49c-4397-8381-68b8d726736d.jpg\"]","trial_type":"similarity","trial_index":136,"time_elapsed":925736,"internal_node_id":"0.0-6.0-130.0"},{"sim_score":1,"rt":3864,"stimulus":"[\"img/0874/a82926a3-0b43-4add-803c-d5f9ea7798ee.jpg\",\"img/0903/ea75f240-fb62-4edb-a709-83e858b202c0.jpg\"]","trial_type":"similarity","trial_index":137,"time_elapsed":930606,"internal_node_id":"0.0-6.0-131.0"},{"sim_score":5,"rt":4929,"stimulus":"[\"img/0899/8abe6c69-822c-436c-9bf2-96c818b49ba5.jpg\",\"img/0898/79233891-305a-4a6a-8ddf-5c8604858203.jpg\"]","trial_type":"similarity","trial_index":138,"time_elapsed":936545,"internal_node_id":"0.0-6.0-132.0"},{"sim_score":1,"rt":3680,"stimulus":"[\"img/0867/f8159067-056c-41f1-a136-c529fe5e970a.jpg\",\"img/0764/7f4ee8e3-9315-4a57-be7d-db8454b33766.jpg\"]","trial_type":"similarity","trial_index":139,"time_elapsed":941229,"internal_node_id":"0.0-6.0-133.0"},{"sim_score":1,"rt":4886,"stimulus":"[\"img/0866/386235d2-6857-41e7-88a8-25cfc3430025.jpg\",\"img/0769/47700831-0ca2-4fdd-a498-a3bc5a528f43.jpg\"]","trial_type":"similarity","trial_index":140,"time_elapsed":947118,"internal_node_id":"0.0-6.0-134.0"},{"sim_score":1,"rt":4353,"stimulus":"[\"img/0860/524b2e98-5767-4d53-942c-ebae6925659b.jpg\",\"img/0898/4184e5a2-84ea-4f36-9b42-ae58646f6f87.jpg\"]","trial_type":"similarity","trial_index":141,"time_elapsed":952475,"internal_node_id":"0.0-6.0-135.0"},{"sim_score":2,"rt":5954,"stimulus":"[\"img/0881/d373cb9f-a719-4549-a2a4-82def79fb2a5.jpg\",\"img/0903/5248eedd-7e6a-4d39-91b0-06ec227f3ed0.jpg\"]","trial_type":"similarity","trial_index":142,"time_elapsed":959442,"internal_node_id":"0.0-6.0-136.0"},{"sim_score":6,"rt":5500,"stimulus":"[\"img/0894/7fb082e0-ce79-485c-9109-04367fb32275.jpg\",\"img/0766/535849cc-ff5d-4df9-8f31-0ce94a97d571.jpg\"]","trial_type":"similarity","trial_index":143,"time_elapsed":965949,"internal_node_id":"0.0-6.0-137.0"},{"sim_score":1,"rt":3179,"stimulus":"[\"img/0860/5bff793e-cbd5-4d7e-b628-0ac2b0e30b64.jpg\",\"img/0764/6ef77040-1fae-4afa-bfe7-eda98e6d0376.jpg\"]","trial_type":"similarity","trial_index":144,"time_elapsed":970128,"internal_node_id":"0.0-6.0-138.0"},{"sim_score":6,"rt":5066,"stimulus":"[\"img/0769/3c1efec9-f8fd-487d-8955-4be88e48c832.jpg\",\"img/0902/94ee9c53-a9a2-4f95-b9b7-794a5fc62bb6.jpg\"]","trial_type":"similarity","trial_index":145,"time_elapsed":976198,"internal_node_id":"0.0-6.0-139.0"},{"sim_score":7,"rt":3802,"stimulus":"[\"img/0904/d23dd7be-7fe8-4435-82f7-bd592c01e6a1.jpg\",\"img/0903/5995f4a8-fa82-46f8-8760-fd7800a5ca34.jpg\"]","trial_type":"similarity","trial_index":146,"time_elapsed":981001,"internal_node_id":"0.0-6.0-140.0"},{"sim_score":5,"rt":5733,"stimulus":"[\"img/0764/cbdc4f20-3a9a-4211-9b40-090699e0abcc.jpg\",\"img/0769/91acb237-65a3-4d0b-9748-af5c7b83d3c7.jpg\"]","trial_type":"similarity","trial_index":147,"time_elapsed":987738,"internal_node_id":"0.0-6.0-141.0"},{"sim_score":1,"rt":3518,"stimulus":"[\"img/0902/cdec1bc6-7f90-4f72-9e01-f5a4111bac1d.jpg\",\"img/0881/62a64f90-7a72-4aee-a1a1-0c548ac9bdda.jpg\"]","trial_type":"similarity","trial_index":148,"time_elapsed":992262,"internal_node_id":"0.0-6.0-142.0"},{"sim_score":3,"rt":5273,"stimulus":"[\"img/0866/4a87911a-d5be-4d4e-ab8e-3d1f581bf507.jpg\",\"img/0864/66091c27-e588-4476-8af9-265dc6be4156.jpg\"]","trial_type":"similarity","trial_index":149,"time_elapsed":998537,"internal_node_id":"0.0-6.0-143.0"},{"sim_score":7,"rt":4024,"stimulus":"[\"img/0902/12452bb1-b8c0-4e4d-ad4d-47e279e5933c.jpg\",\"img/0898/a114b375-cb89-44ba-9498-74213f1ecdee.jpg\"]","trial_type":"similarity","trial_index":150,"time_elapsed":1003561,"internal_node_id":"0.0-6.0-144.0"},{"sim_score":3,"rt":4454,"stimulus":"[\"img/0862/53a9cf7c-93c4-41b9-952f-07d17f7a17b2.jpg\",\"img/0864/4bd81bc6-c13d-46df-95a9-485886dc7c1b.jpg\"]","trial_type":"similarity","trial_index":151,"time_elapsed":1009034,"internal_node_id":"0.0-6.0-145.0"},{"sim_score":1,"rt":3382,"stimulus":"[\"img/0875/f87b67d7-c33e-40d1-b281-248c4be1cb6e.jpg\",\"img/0898/6cd3830b-d44e-4915-be2b-88d31424b91c.jpg\"]","trial_type":"similarity","trial_index":152,"time_elapsed":1013420,"internal_node_id":"0.0-6.0-146.0"},{"sim_score":3,"rt":5549,"stimulus":"[\"img/0874/ca76a855-4e77-4f2f-872a-0a718153e7ed.jpg\",\"img/0881/e046471a-35b4-4159-bbf7-3cfd201bef66.jpg\"]","trial_type":"similarity","trial_index":153,"time_elapsed":1019974,"internal_node_id":"0.0-6.0-147.0"},{"sim_score":1,"rt":3340,"stimulus":"[\"img/0758/d540bee6-b460-4c32-ac57-bc282742d7d4.jpg\",\"img/0894/3adef67d-7676-4995-80b2-bb31b8aca3ef.jpg\"]","trial_type":"similarity","trial_index":154,"time_elapsed":1024331,"internal_node_id":"0.0-6.0-148.0"},{"sim_score":1,"rt":3249,"stimulus":"[\"img/0904/5cceabc9-de1d-4c67-989b-c28a4ef77e79.jpg\",\"img/0864/1ebbc554-99fa-49f9-8799-317375a79820.jpg\"]","trial_type":"similarity","trial_index":155,"time_elapsed":1028580,"internal_node_id":"0.0-6.0-149.0"},{"sim_score":6,"rt":5040,"stimulus":"[\"img/0769/da36e3f7-2337-434f-ab57-11822dd7eed7.jpg\",\"img/0899/ad8268c5-8199-48d0-ad70-c5b6d6c599ec.jpg\"]","trial_type":"similarity","trial_index":156,"time_elapsed":1034627,"internal_node_id":"0.0-6.0-150.0"},{"sim_score":6,"rt":4259,"stimulus":"[\"img/0764/a86eed5b-d0af-4c3f-8c7a-26e98e98cf1a.jpg\",\"img/0903/005ad0de-4f52-433c-b515-dbe8d46184a3.jpg\"]","trial_type":"similarity","trial_index":157,"time_elapsed":1041950,"internal_node_id":"0.0-6.0-151.0"},{"sim_score":1,"rt":4873,"stimulus":"[\"img/0903/07b445ee-0cdb-4d2c-a23b-d727613f4059.jpg\",\"img/0864/ea327690-500b-4137-bf91-451b309fe6a5.jpg\"]","trial_type":"similarity","trial_index":158,"time_elapsed":1047826,"internal_node_id":"0.0-6.0-152.0"},{"sim_score":5,"rt":6013,"stimulus":"[\"img/0894/0130a973-d993-41f8-874a-fee23d9ac11f.jpg\",\"img/0881/c843e210-bdfe-4a7c-8bbe-fcea1f90fe1c.jpg\"]","trial_type":"similarity","trial_index":159,"time_elapsed":1054839,"internal_node_id":"0.0-6.0-153.0"},{"sim_score":5,"rt":4227,"stimulus":"[\"img/0875/5a1e5100-0d94-4fec-bbe9-ca9894d2cf8e.jpg\",\"img/0867/a498eef3-9fa4-4ab2-9778-4ae82ac40dc5.jpg\"]","trial_type":"similarity","trial_index":160,"time_elapsed":1060083,"internal_node_id":"0.0-6.0-154.0"},{"sim_score":5,"rt":3783,"stimulus":"[\"img/0867/85a96c62-548f-4994-9553-819e03c3135a.jpg\",\"img/0758/53f35650-e455-4b53-8be4-c3c8271c6466.jpg\"]","trial_type":"similarity","trial_index":161,"time_elapsed":1064869,"internal_node_id":"0.0-6.0-155.0"},{"sim_score":1,"rt":4720,"stimulus":"[\"img/0868/15dd6fd7-791e-4b53-b203-195d617521a4.jpg\",\"img/0901/693e0535-ef7e-4d60-af9d-fac2f38e8307.jpg\"]","trial_type":"similarity","trial_index":162,"time_elapsed":1070602,"internal_node_id":"0.0-6.0-156.0"},{"sim_score":7,"rt":4580,"stimulus":"[\"img/0769/4a1d0b52-3fe8-40fb-bb1c-c814fe49a68c.jpg\",\"img/0894/5ff3c4f6-52e2-4075-8679-be0312e59703.jpg\"]","trial_type":"similarity","trial_index":163,"time_elapsed":1076194,"internal_node_id":"0.0-6.0-157.0"},{"sim_score":1,"rt":4510,"stimulus":"[\"img/0904/9b3568cc-3cf7-42be-9df3-fdafde7a58b8.jpg\",\"img/0758/6e95579b-5166-487c-b8cb-e417c6a218e3.jpg\"]","trial_type":"similarity","trial_index":164,"time_elapsed":1081706,"internal_node_id":"0.0-6.0-158.0"},{"sim_score":2,"rt":4520,"stimulus":"[\"img/0874/ca23d307-fc00-4d7d-9106-584c6eb21b4d.jpg\",\"img/0904/09dac84f-3d1c-4445-a68e-d0389fdbf1e9.jpg\"]","trial_type":"similarity","trial_index":165,"time_elapsed":1087233,"internal_node_id":"0.0-6.0-159.0"},{"sim_score":1,"rt":3866,"stimulus":"[\"img/0864/8ddd2e30-a1d0-479f-9cbe-591213023893.jpg\",\"img/0901/1e23ffbd-19de-4c4f-aa23-c54aaa3319a3.jpg\"]","trial_type":"similarity","trial_index":166,"time_elapsed":1092102,"internal_node_id":"0.0-6.0-160.0"},{"sim_score":1,"rt":3161,"stimulus":"[\"img/0898/f3a3f225-1248-4ac7-b93b-f0ff28485bf3.jpg\",\"img/0866/f756f7d1-9ad8-4a34-9ef6-7a443d705bfe.jpg\"]","trial_type":"similarity","trial_index":167,"time_elapsed":1096263,"internal_node_id":"0.0-6.0-161.0"},{"sim_score":6,"rt":4460,"stimulus":"[\"img/0766/75c3d627-4f3b-40d5-9d9c-10c8a62db644.jpg\",\"img/0903/365f176c-25a4-4973-bd3c-279bf1b39476.jpg\"]","trial_type":"similarity","trial_index":168,"time_elapsed":1101740,"internal_node_id":"0.0-6.0-162.0"},{"sim_score":1,"rt":4241,"stimulus":"[\"img/0860/c3379ff7-0763-48fe-a1ec-7ea3d611bc7a.jpg\",\"img/0899/00715b3f-851b-420b-a26b-d7f79f7759a9.jpg\"]","trial_type":"similarity","trial_index":169,"time_elapsed":1106996,"internal_node_id":"0.0-6.0-163.0"},{"sim_score":1,"rt":5017,"stimulus":"[\"img/0766/c23b5a20-e50f-4d85-841f-cf89212a4348.jpg\",\"img/0862/e0f1a4e9-e1b6-45f7-af67-89f334e6630d.jpg\"]","trial_type":"similarity","trial_index":170,"time_elapsed":1113022,"internal_node_id":"0.0-6.0-164.0"},{"sim_score":5,"rt":6279,"stimulus":"[\"img/0898/5f699581-3853-4547-856c-12f419ba5af7.jpg\",\"img/0894/3664e04c-c6d3-4c9b-afb6-25d89974b174.jpg\"]","trial_type":"similarity","trial_index":171,"time_elapsed":1120305,"internal_node_id":"0.0-6.0-165.0"},{"sim_score":1,"rt":3892,"stimulus":"[\"img/0867/ac1797e4-8afc-48fe-b252-86d1defb1cca.jpg\",\"img/0766/214866ee-423d-4629-9bb9-41572bdc7dac.jpg\"]","trial_type":"similarity","trial_index":172,"time_elapsed":1125204,"internal_node_id":"0.0-6.0-166.0"},{"sim_score":1,"rt":3975,"stimulus":"[\"img/0904/9d30eff1-46ef-4453-b11e-124ef8145c00.jpg\",\"img/0862/f43ceabf-acc1-4107-b857-5d1849808f93.jpg\"]","trial_type":"similarity","trial_index":173,"time_elapsed":1130181,"internal_node_id":"0.0-6.0-167.0"},{"sim_score":2,"rt":4853,"stimulus":"[\"img/0866/a04d37f0-99dd-478a-b6c6-58b215138f84.jpg\",\"img/0874/767f289c-9814-4496-803f-745cc8913d1f.jpg\"]","trial_type":"similarity","trial_index":174,"time_elapsed":1136037,"internal_node_id":"0.0-6.0-168.0"},{"sim_score":1,"rt":3684,"stimulus":"[\"img/0903/6378ee1e-3d2b-48d2-87be-bebda32c8268.jpg\",\"img/0868/0d3abd3a-b6c3-4584-a9f7-e2da63748b3d.jpg\"]","trial_type":"similarity","trial_index":175,"time_elapsed":1140730,"internal_node_id":"0.0-6.0-169.0"},{"sim_score":6,"rt":5336,"stimulus":"[\"img/0769/8056889f-2b14-4782-bb25-b4e8896ab65b.jpg\",\"img/0904/ba8e689e-9ca6-4608-a2a1-3b0940666ae6.jpg\"]","trial_type":"similarity","trial_index":176,"time_elapsed":1147070,"internal_node_id":"0.0-6.0-170.0"},{"sim_score":1,"rt":4410,"stimulus":"[\"img/0875/03c3c331-738b-4446-af92-3d7386b08c2e.jpg\",\"img/0764/ef0e64c6-d0dd-4dc6-87b6-ce5c0665f421.jpg\"]","trial_type":"similarity","trial_index":177,"time_elapsed":1152483,"internal_node_id":"0.0-6.0-171.0"},{"sim_score":1,"rt":4180,"stimulus":"[\"img/0860/8a92e21b-6a32-4e4a-a445-2d5a487ed0a4.jpg\",\"img/0903/2a9c8033-3e70-47fa-816d-97ee1813a3a3.jpg\"]","trial_type":"similarity","trial_index":178,"time_elapsed":1157663,"internal_node_id":"0.0-6.0-172.0"},{"sim_score":5,"rt":6217,"stimulus":"[\"img/0864/1d15626a-2f7c-410f-819c-0fa2c967e95e.jpg\",\"img/0867/cc72ed48-7704-422c-86d6-467a1145287a.jpg\"]","trial_type":"similarity","trial_index":179,"time_elapsed":1164883,"internal_node_id":"0.0-6.0-173.0"},{"sim_score":5,"rt":5266,"stimulus":"[\"img/0868/3a62db2d-97e9-44a3-b8e3-a48c6f0e423b.jpg\",\"img/0864/e8bd659f-aa43-4748-877e-3118e8b4e189.jpg\"]","trial_type":"similarity","trial_index":180,"time_elapsed":1171149,"internal_node_id":"0.0-6.0-174.0"},{"sim_score":6,"rt":4100,"stimulus":"[\"img/0898/01bfe666-3510-4fc7-964f-d00d28732dc8.jpg\",\"img/0769/180213e5-1e50-4b4e-87b6-add77ba04d39.jpg\"]","trial_type":"similarity","trial_index":181,"time_elapsed":1176249,"internal_node_id":"0.0-6.0-175.0"},{"sim_score":7,"rt":5406,"stimulus":"[\"img/0766/e8052e17-9dae-4139-802b-6e590cb2d526.jpg\",\"img/0764/6c7fe363-2d37-418f-9e5e-a3273af5d4fb.jpg\"]","trial_type":"similarity","trial_index":182,"time_elapsed":1182655,"internal_node_id":"0.0-6.0-176.0"},{"sim_score":1,"rt":5770,"stimulus":"[\"img/0764/cffc80b0-4a90-4acb-a530-6f480f3ca303.jpg\",\"img/0866/9b38d691-1802-4959-ab3f-fc902f0e4ea6.jpg\"]","trial_type":"similarity","trial_index":183,"time_elapsed":1189425,"internal_node_id":"0.0-6.0-177.0"},{"sim_score":1,"rt":3823,"stimulus":"[\"img/0902/d49743d6-67ae-4c2e-a939-8fd895a0f18e.jpg\",\"img/0875/8521fd58-3b1e-4dc5-97ae-804edfa6734a.jpg\"]","trial_type":"similarity","trial_index":184,"time_elapsed":1194248,"internal_node_id":"0.0-6.0-178.0"},{"sim_score":1,"rt":3937,"stimulus":"[\"img/0881/f8bd891e-aa09-4782-89db-33e7cb2b0cf1.jpg\",\"img/0904/09934646-45d2-4147-8fec-64a22a5ac822.jpg\"]","trial_type":"similarity","trial_index":185,"time_elapsed":1199195,"internal_node_id":"0.0-6.0-179.0"},{"sim_score":3,"rt":5825,"stimulus":"[\"img/0874/adf9a8f1-c40b-402b-b95b-1e85a54a7b62.jpg\",\"img/0860/8fdba999-b946-4c7d-9891-336018b563ef.jpg\"]","trial_type":"similarity","trial_index":186,"time_elapsed":1206029,"internal_node_id":"0.0-6.0-180.0"},{"sim_score":2,"rt":4943,"stimulus":"[\"img/0769/9ea9ceb6-049e-4ad9-be8f-00645cd35803.jpg\",\"img/0874/29830da7-be5f-44e5-b141-652a0ccf7269.jpg\"]","trial_type":"similarity","trial_index":187,"time_elapsed":1211982,"internal_node_id":"0.0-6.0-181.0"},{"sim_score":7,"rt":5363,"stimulus":"[\"img/0904/fe746a3f-8458-48d0-8a13-8cba2a9df9f8.jpg\",\"img/0766/5d6e0d1d-4369-41f0-a64c-91f3503055c7.jpg\"]","trial_type":"similarity","trial_index":188,"time_elapsed":1218345,"internal_node_id":"0.0-6.0-182.0"},{"sim_score":7,"rt":5626,"stimulus":"[\"img/0902/27b84584-948a-485b-8749-cb09929ef631.jpg\",\"img/0764/b328441c-f81c-486c-9eae-b947c70ba7cd.jpg\"]","trial_type":"similarity","trial_index":189,"time_elapsed":1224978,"internal_node_id":"0.0-6.0-183.0"},{"sim_score":1,"rt":3523,"stimulus":"[\"img/0769/48a1144d-fbda-4809-991b-fc8424a32ee4.jpg\",\"img/0875/fb732ab5-013a-4366-9f65-27811ed157e9.jpg\"]","trial_type":"similarity","trial_index":190,"time_elapsed":1229504,"internal_node_id":"0.0-6.0-184.0"},{"sim_score":1,"rt":4047,"stimulus":"[\"img/0867/98d8cd96-1476-4fe0-a3a3-04f875500a1b.jpg\",\"img/0903/680ed18e-b311-4ecf-9b00-7dea32128334.jpg\"]","trial_type":"similarity","trial_index":191,"time_elapsed":1234551,"internal_node_id":"0.0-6.0-185.0"},{"sim_score":1,"rt":3753,"stimulus":"[\"img/0862/ba89835a-408c-480b-8594-ed4ffa97eb5c.jpg\",\"img/0769/35364db7-e0d5-40ef-93dc-faf9dfb95136.jpg\"]","trial_type":"similarity","trial_index":192,"time_elapsed":1239307,"internal_node_id":"0.0-6.0-186.0"},{"sim_score":1,"rt":3170,"stimulus":"[\"img/0766/26d3ae14-8275-4e08-99b2-a6598c193ddf.jpg\",\"img/0866/11a1d141-be5e-443c-98c1-a9d4d9e3dec0.jpg\"]","trial_type":"similarity","trial_index":193,"time_elapsed":1243477,"internal_node_id":"0.0-6.0-187.0"},{"sim_score":1,"rt":4196,"stimulus":"[\"img/0769/82ab9db6-4578-4e79-874f-f09100439f09.jpg\",\"img/0860/c47fdead-eb02-4989-b078-26f4852f44fe.jpg\"]","trial_type":"similarity","trial_index":194,"time_elapsed":1248677,"internal_node_id":"0.0-6.0-188.0"},{"sim_score":3,"rt":4208,"stimulus":"[\"img/0881/7e31e5dc-2240-4b1b-b5a0-3acd980099ef.jpg\",\"img/0868/6a28c3b0-3d76-498a-9fb7-ddafc665eca8.jpg\"]","trial_type":"similarity","trial_index":195,"time_elapsed":1258583,"internal_node_id":"0.0-6.0-189.0"},{"view_history":"[{\"page_index\":0,\"viewing_time\":6222}]","rt":6222,"trial_type":"instructions","trial_index":196,"time_elapsed":1265811,"internal_node_id":"0.0-7.0"},{"rt":45502,"responses":"{\"Q0\":\"Nashville Warbler\"}","answer":["Nashville Warbler"],"trial_type":"image-multi-choice","trial_index":197,"time_elapsed":1312336,"internal_node_id":"0.0-8.0-0.0"},{"rt":13817,"responses":"{\"Q0\":\"Black-and-white Warbler\"}","answer":["Black-and-white Warbler"],"trial_type":"image-multi-choice","trial_index":198,"time_elapsed":1327167,"internal_node_id":"0.0-8.0-1.0"},{"rt":11110,"responses":"{\"Q0\":\"Townsend's Warbler\"}","answer":["Townsend's Warbler"],"trial_type":"image-multi-choice","trial_index":199,"time_elapsed":1339278,"internal_node_id":"0.0-8.0-2.0"},{"rt":11989,"responses":"{\"Q0\":\"White-throated Sparrow\"}","answer":["Lark Sparrow"],"trial_type":"image-multi-choice","trial_index":200,"time_elapsed":1352267,"internal_node_id":"0.0-8.0-3.0"},{"rt":5168,"responses":"{\"Q0\":\"Yellow Warbler\"}","answer":["Yellow Warbler"],"trial_type":"image-multi-choice","trial_index":201,"time_elapsed":1358439,"internal_node_id":"0.0-8.0-4.0"},{"rt":23622,"responses":"{\"Q0\":\"Tennessee Warbler\"}","answer":["Orange-crowned Warbler"],"trial_type":"image-multi-choice","trial_index":202,"time_elapsed":1383069,"internal_node_id":"0.0-8.0-5.0"},{"rt":9115,"responses":"{\"Q0\":\"White-throated Sparrow\"}","answer":["White-throated Sparrow"],"trial_type":"image-multi-choice","trial_index":203,"time_elapsed":1393200,"internal_node_id":"0.0-8.0-6.0"},{"rt":4370,"responses":"{\"Q0\":\"Fox Sparrow\"}","answer":["Fox Sparrow"],"trial_type":"image-multi-choice","trial_index":204,"time_elapsed":1398570,"internal_node_id":"0.0-8.0-7.0"},{"rt":33402,"responses":"{\"Q0\":\"Swamp Sparrow\"}","answer":["Song Sparrow"],"trial_type":"image-multi-choice","trial_index":205,"time_elapsed":1432978,"internal_node_id":"0.0-8.0-8.0"},{"rt":18162,"responses":"{\"Q0\":\"Blackburnian Warbler\"}","answer":["Blackburnian Warbler"],"trial_type":"image-multi-choice","trial_index":206,"time_elapsed":1452144,"internal_node_id":"0.0-8.0-9.0"},{"rt":19075,"responses":"{\"Q0\":\"Lincoln's Sparrow\"}","answer":["Vesper Sparrow"],"trial_type":"image-multi-choice","trial_index":207,"time_elapsed":1472223,"internal_node_id":"0.0-8.0-10.0"},{"rt":5363,"responses":"{\"Q0\":\"White-crowned Sparrow\"}","answer":["White-crowned Sparrow"],"trial_type":"image-multi-choice","trial_index":208,"time_elapsed":1478595,"internal_node_id":"0.0-8.0-11.0"},{"rt":20891,"responses":"{\"Q0\":\"Chipping Sparrow\"}","answer":["American Tree Sparrow"],"trial_type":"image-multi-choice","trial_index":209,"time_elapsed":1500491,"internal_node_id":"0.0-8.0-12.0"},{"rt":17700,"responses":"{\"Q0\":\"Orange-crowned Warbler\"}","answer":["Tennessee Warbler"],"trial_type":"image-multi-choice","trial_index":210,"time_elapsed":1519203,"internal_node_id":"0.0-8.0-13.0"},{"rt":12581,"responses":"{\"Q0\":\"Magnolia Warbler\"}","answer":["Magnolia Warbler"],"trial_type":"image-multi-choice","trial_index":211,"time_elapsed":1532794,"internal_node_id":"0.0-8.0-14.0"},{"rt":12766,"responses":"{\"Q0\":\"Northern Waterthrush\"}","answer":["Northern Waterthrush"],"trial_type":"image-multi-choice","trial_index":212,"time_elapsed":1546570,"internal_node_id":"0.0-8.0-15.0"},{"rt":19381,"responses":"{\"Q0\":\"American Tree Sparrow\"}","answer":["Chipping Sparrow"],"trial_type":"image-multi-choice","trial_index":213,"time_elapsed":1566962,"internal_node_id":"0.0-8.0-16.0"},{"rt":19574,"responses":"{\"Q0\":\"Lark Sparrow\"}","answer":["Swamp Sparrow"],"trial_type":"image-multi-choice","trial_index":214,"time_elapsed":1587547,"internal_node_id":"0.0-8.0-17.0"},{"rt":12611,"responses":"{\"Q0\":\"Song Sparrow\"}","answer":["Lincoln's Sparrow"],"trial_type":"image-multi-choice","trial_index":215,"time_elapsed":1601165,"internal_node_id":"0.0-8.0-18.0"},{"rt":13431,"responses":"{\"Q0\":\"Ovenbird\"}","answer":["Ovenbird"],"trial_type":"image-multi-choice","trial_index":216,"time_elapsed":1615606,"internal_node_id":"0.0-8.0-19.0"}]