"view_history","rt","trial_type","trial_index","time_elapsed","internal_node_id","sim_score","stimulus","responses","answer"
"[{""page_index"":0,""viewing_time"":17607}]","17608","instructions","0","17609","0.0-0.0","","","",""
"","7026","similarity_demo","1","25642","0.0-1.0","7","[""img/bluejay1.jpg"",""img/bluejay2.jpg""]","",""
"[{""page_index"":0,""viewing_time"":9459}]","9459","instructions","2","36101","0.0-2.0","","","",""
"","13465","similarity_demo","3","50573","0.0-3.0","2","[""img/bluejay1.jpg"",""img/cardinal1.jpg""]","",""
"[{""page_index"":0,""viewing_time"":6170}]","6170","instructions","4","57743","0.0-4.0","","","",""
"[{""page_index"":0,""viewing_time"":28762}]","28762","instructions","5","87511","0.0-5.0","","","",""
"","6436","similarity","6","94954","0.0-6.0-0.0","3","[""img/0868/d6d1f30d-4323-435a-b194-7892521bc57e.jpg"",""img/0894/bd34223a-2f66-4e16-9d18-193a746b69ff.jpg""]","",""
"","6201","similarity","7","102155","0.0-6.0-1.0","3","[""img/0898/08c72dac-f8ad-407a-9ce6-8c9a5d679c3a.jpg"",""img/0758/6cd8c362-ae2a-41eb-80a3-3a4f7ace1530.jpg""]","",""
"","4977","similarity","8","108141","0.0-6.0-2.0","3","[""img/0903/b0df4094-a3be-4b5b-81bd-8d260f13f61b.jpg"",""img/0894/5a49e858-2850-4892-9a06-e9f0efb5f94d.jpg""]","",""
"","6546","similarity","9","115697","0.0-6.0-3.0","1","[""img/0881/2a8413be-fec2-4de6-88ad-614dd4cccc9d.jpg"",""img/0766/0bf3793e-c353-45e5-ac6f-753f5f484e10.jpg""]","",""
"","7182","similarity","10","123880","0.0-6.0-4.0","3","[""img/0864/f92649a2-0590-4d31-9a7a-1bfb81666a2d.jpg"",""img/0860/b03b963d-949b-4d8d-b19c-4950c89eeca2.jpg""]","",""
"","6323","similarity","11","131203","0.0-6.0-5.0","5","[""img/0902/01b41522-de46-4c3a-b0af-a61b2682b40e.jpg"",""img/0899/4408c14d-c168-4a7d-96f6-bc87bfb58f83.jpg""]","",""
"","5998","similarity","12","138204","0.0-6.0-6.0","1","[""img/0868/4a8a45ed-2c4f-421b-9564-409a33ecd26c.jpg"",""img/0769/a1ce8d07-ba37-40de-bade-2778805521e0.jpg""]","",""
"","5783","similarity","13","144987","0.0-6.0-7.0","3","[""img/0764/06ea144f-f4f3-4a14-ba47-f20f35c561e0.jpg"",""img/0901/1b86f2fc-7a1d-4aa8-9252-114f92edef3b.jpg""]","",""
"","10646","similarity","14","156633","0.0-6.0-8.0","5","[""img/0881/33d65d80-8a8e-4ecf-852d-0ad7725c17a2.jpg"",""img/0866/93a27239-8317-4e08-98ca-d8b1ff298e07.jpg""]","",""
"","5948","similarity","15","163584","0.0-6.0-9.0","1","[""img/0867/50a1b60e-3a29-44bf-b606-d4bd3746fea9.jpg"",""img/0899/a048912c-b12c-40e3-90af-46b69b0cc4fe.jpg""]","",""
"","4681","similarity","16","169267","0.0-6.0-10.0","1","[""img/0875/90da8d75-108a-44ad-b999-e21fee3860d3.jpg"",""img/0766/717fd72f-a281-499b-a5ba-5e2ecc4d4866.jpg""]","",""
"","5099","similarity","17","175378","0.0-6.0-11.0","1","[""img/0901/4f9cffe0-c0be-4d7f-bacd-9d51efd19b4a.jpg"",""img/0875/3ecb367d-e9eb-4826-8aaa-7aa72fb98019.jpg""]","",""
"","7583","similarity","18","183961","0.0-6.0-12.0","2","[""img/0902/c018bd7a-d91a-4192-aea4-7259cfcdb6c4.jpg"",""img/0860/c7047cd2-7cc1-41b6-8a34-c0986774975f.jpg""]","",""
"","6783","similarity","19","191744","0.0-6.0-13.0","1","[""img/0874/2c9464dd-8a23-4baa-ac94-1ba3af5c15cc.jpg"",""img/0867/1719a35d-f085-48c0-9099-16c94fe418b4.jpg""]","",""
"","5354","similarity","20","198100","0.0-6.0-14.0","1","[""img/0904/65e2b70a-b184-4da3-b5c0-5038bdf9469a.jpg"",""img/0866/c446214b-a368-4c65-ae39-ea46894256ab.jpg""]","",""
"","6093","similarity","21","205195","0.0-6.0-15.0","1","[""img/0758/dd559618-7f09-4a07-8018-d311c4a5ea29.jpg"",""img/0902/1a120fb9-dbd6-443e-ba91-b4aceab963da.jpg""]","",""
"","4090","similarity","22","210290","0.0-6.0-16.0","1","[""img/0867/12264664-1860-46df-8c21-162b9817cdda.jpg"",""img/0898/81b08535-2020-4c15-9ce4-2f1e460755ae.jpg""]","",""
"","5210","similarity","23","216513","0.0-6.0-17.0","2","[""img/0904/9dd5708f-3f8b-46a9-b49f-2f2fab87b357.jpg"",""img/0868/4bd5105a-d2c3-4f82-8c80-57196106ba53.jpg""]","",""
"","4954","similarity","24","222474","0.0-6.0-18.0","1","[""img/0766/d5d38751-8fa5-476f-93e9-86ed2d9045ef.jpg"",""img/0864/3651d070-2fc5-4848-b6a6-088a2d9ac5c9.jpg""]","",""
"","9531","similarity","25","233018","0.0-6.0-19.0","5","[""img/0899/f95cbdb4-f804-4f5d-ad76-373ad343e658.jpg"",""img/0766/2e1cf445-9aef-40e7-92f4-5facf48b64c5.jpg""]","",""
"","6303","similarity","26","240323","0.0-6.0-20.0","1","[""img/0764/958b8576-3a3b-4acc-96dc-06b74de69f37.jpg"",""img/0758/2fa3e613-e676-4e6e-bd12-705327eeb3e1.jpg""]","",""
"","4042","similarity","27","245386","0.0-6.0-21.0","1","[""img/0901/a6c90438-fa7c-4418-ac7c-16c2e772dd98.jpg"",""img/0874/99f6563c-8a8d-4c1c-a41d-667b618c3fd5.jpg""]","",""
"","5029","similarity","28","251415","0.0-6.0-22.0","2","[""img/0875/2e13d160-eea1-416b-aff1-d37ab99ecc1d.jpg"",""img/0758/335851a0-a55b-46d8-ab05-8463eda48349.jpg""]","",""
"","8650","similarity","29","261069","0.0-6.0-23.0","1","[""img/0867/26611f4e-d694-4460-b7e2-43c62753ddc3.jpg"",""img/0881/c24f3051-eefa-42de-aba6-fccb56d93c70.jpg""]","",""
"","6553","similarity","30","268625","0.0-6.0-24.0","2","[""img/0758/9fb5b2fe-3f00-4fe6-973c-1ce10d5f4cd5.jpg"",""img/0901/a0d65c84-3f20-476a-92d1-0c01e8019cf4.jpg""]","",""
"","6040","similarity","31","275665","0.0-6.0-25.0","1","[""img/0868/83b4350a-3b70-4cea-b7f5-b5b56f3050a8.jpg"",""img/0875/d59ff733-eaff-4ee2-9443-06954dd0bcb6.jpg""]","",""
"","5151","similarity","32","281826","0.0-6.0-26.0","5","[""img/0903/6138142e-c84e-45fc-9487-c974f3d4968a.jpg"",""img/0901/a6776381-91fe-43f8-ab73-261d318f95fd.jpg""]","",""
"","5076","similarity","33","287923","0.0-6.0-27.0","3","[""img/0894/661b9f9f-4bde-487a-b1ed-87085fde6948.jpg"",""img/0899/5b56dd3e-3f49-47cc-af84-16da6457753b.jpg""]","",""
"","6003","similarity","34","294928","0.0-6.0-28.0","2","[""img/0862/064818ee-13d5-4618-bb24-21c7368ea278.jpg"",""img/0867/7d1c497b-c1b3-4ed8-abb5-d7f73306015f.jpg""]","",""
"","4797","similarity","35","300732","0.0-6.0-29.0","2","[""img/0864/c3b63e8f-ea39-4d70-a1f2-b3fe4be8eb75.jpg"",""img/0875/2c361b79-c3d1-4eda-812e-bf03192407bf.jpg""]","",""
"","10462","similarity","36","312194","0.0-6.0-30.0","4","[""img/0862/00c06b00-3b73-44e9-bc1e-c5aafb438321.jpg"",""img/0874/31e22c7c-99aa-40b1-bf03-dd73fa2df4d6.jpg""]","",""
"","3913","similarity","37","317111","0.0-6.0-31.0","1","[""img/0903/c708d08f-a108-4e04-8288-c3fcf6375db4.jpg"",""img/0758/b76ceca7-95ac-46e4-ac13-da02c8e93be9.jpg""]","",""
"","3867","similarity","38","321995","0.0-6.0-32.0","1","[""img/0866/0207e9a2-7dbb-40b5-9459-b472aaeceb2a.jpg"",""img/0901/5b97abf9-f0c8-4fd1-b921-36d574779078.jpg""]","",""
"","8607","similarity","39","331607","0.0-6.0-33.0","4","[""img/0874/85eb9b8a-c4c6-4e5a-b8e7-363a87a82054.jpg"",""img/0899/06b0fc99-0581-461a-9913-d1a5a941ac61.jpg""]","",""
"","7095","similarity","40","339702","0.0-6.0-34.0","6","[""img/0903/71dbc325-b588-4297-a5cf-7f268a722ad9.jpg"",""img/0902/168ebd47-9e82-4ab7-a18b-c3da85072db8.jpg""]","",""
"","6674","similarity","41","347381","0.0-6.0-35.0","3","[""img/0758/d41c06bf-ebaf-454b-91c6-1a17f917b659.jpg"",""img/0866/d266fece-59b3-46fa-b69f-96f6efb81b59.jpg""]","",""
"","4056","similarity","42","352437","0.0-6.0-36.0","1","[""img/0875/ebf7653f-ff45-4e9f-af58-2c042ab3cd2b.jpg"",""img/0903/8c358e9e-a4f4-466e-8b93-7aec0d2358e8.jpg""]","",""
"","3385","similarity","43","362410","0.0-6.0-37.0","1","[""img/0864/5f74a653-3bdc-4308-8cca-ac667dc22e1f.jpg"",""img/0902/71c03003-03ef-4b0f-8229-e0c857150a5d.jpg""]","",""
"","5068","similarity","44","368481","0.0-6.0-38.0","1","[""img/0901/875dedb9-24c9-4443-9f8c-85e97d70ee5a.jpg"",""img/0867/db7e032f-162b-46f5-ae67-2b29679adee4.jpg""]","",""
"","5877","similarity","45","375360","0.0-6.0-39.0","6","[""img/0862/f23038d4-c366-4f70-979f-66b62362efa4.jpg"",""img/0860/f44ba3fb-03a2-42f0-8509-2c1ded493086.jpg""]","",""
"","5332","similarity","46","381699","0.0-6.0-40.0","6","[""img/0867/de92135f-5b65-4ed9-b245-188292c7c2f8.jpg"",""img/0868/77091fc7-a590-4ebb-b915-fdb2483a2399.jpg""]","",""
"","6016","similarity","47","388722","0.0-6.0-41.0","6","[""img/0904/4d7d70a3-9477-4921-bda0-f9531d0a5c5b.jpg"",""img/0899/fef567a2-c121-4481-9af0-ff108d199bbf.jpg""]","",""
"","5212","similarity","48","394935","0.0-6.0-42.0","2","[""img/0862/fad1d7c1-8187-43c3-942a-0fc12183e48e.jpg"",""img/0894/5f15154e-e72e-4ce5-aafb-bce6f0564006.jpg""]","",""
"","3676","similarity","49","399615","0.0-6.0-43.0","1","[""img/0875/99698b4d-b4a1-44bc-8c83-8ea755bbbf61.jpg"",""img/0904/696ebb60-8891-417a-91fd-c53218907a95.jpg""]","",""
"","4223","similarity","50","404845","0.0-6.0-44.0","1","[""img/0874/8cdb1c07-1c32-46d2-981c-3636560fa6e5.jpg"",""img/0898/a8f16b02-e19f-423b-86c3-a36562ae1f9b.jpg""]","",""
"","3735","similarity","51","409589","0.0-6.0-45.0","1","[""img/0898/68476bbb-34a1-42d9-8bc1-deab783d4489.jpg"",""img/0868/09a9ef4d-d000-4cfa-a6aa-ebec7c2edeb4.jpg""]","",""
"","3430","similarity","52","414019","0.0-6.0-46.0","1","[""img/0901/b9141736-3041-4385-a586-b1fe911c76a5.jpg"",""img/0860/61fb959d-d4d9-4de4-9e4e-4fa62b4cfcd5.jpg""]","",""
"","5323","similarity","53","420342","0.0-6.0-47.0","7","[""img/0894/6aa5545f-fa7d-4286-bbaa-aaf34dc7ec96.jpg"",""img/0902/07437a16-3d0f-4a5c-89ec-36d0efa4b3b8.jpg""]","",""
"","4630","similarity","54","425972","0.0-6.0-48.0","2","[""img/0764/da207710-e7e4-4f42-b2e6-99b5f357f433.jpg"",""img/0862/24cdc752-c2e5-4a17-86a6-6f2045d8553b.jpg""]","",""
"","5550","similarity","55","432522","0.0-6.0-49.0","7","[""img/0881/344de456-b358-4887-bd0e-e4c3278af887.jpg"",""img/0758/7ee8bc8f-c40b-4b3a-84ec-3e83580622d4.jpg""]","",""
"","5887","similarity","56","439421","0.0-6.0-50.0","6","[""img/0766/d14acac4-7db1-4b07-8f8f-302437326fc0.jpg"",""img/0769/688d0c52-ad73-4065-a5eb-f8c10d076bff.jpg""]","",""
"","6853","similarity","57","447284","0.0-6.0-51.0","6","[""img/0875/527ced51-8e53-4aab-ab05-86df219104c0.jpg"",""img/0866/be24ab58-230e-4db8-9f45-ff04c9aec6bb.jpg""]","",""
"","5803","similarity","58","454091","0.0-6.0-52.0","7","[""img/0894/76c1201f-8524-4865-85e6-dda8cb4ac986.jpg"",""img/0904/2fd488e9-960f-41f7-8a44-33375f7d5051.jpg""]","",""
"","5690","similarity","59","460804","0.0-6.0-53.0","5","[""img/0758/a709631e-3705-4725-ac40-f0d916924f08.jpg"",""img/0769/bb8c4e53-6f32-4814-97ee-392d4decfb2e.jpg""]","",""
"","4281","similarity","60","466085","0.0-6.0-54.0","1","[""img/0902/fbef27fa-ac83-4936-ab78-9d1c20a383e1.jpg"",""img/0874/7e4f2150-3b59-4a36-b5da-a4e0ba410531.jpg""]","",""
"","4562","similarity","61","471660","0.0-6.0-55.0","1","[""img/0903/47e39de8-6959-469f-8be9-6999a6db207c.jpg"",""img/0862/de9ad88c-b522-430a-8ee9-eb06a9f85df5.jpg""]","",""
"","5285","similarity","62","477947","0.0-6.0-56.0","1","[""img/0866/bf14b5bd-fb55-47db-86b9-4f8aeb9a6dad.jpg"",""img/0894/2217bdcd-23a7-42d3-823b-23f2488d7e87.jpg""]","",""
"","4112","similarity","63","483066","0.0-6.0-57.0","1","[""img/0867/f8488a47-94ee-4166-952c-44e16cf172f6.jpg"",""img/0904/2c98dc56-88d1-4fb5-a999-b6a7861f65f0.jpg""]","",""
"","4122","similarity","64","488189","0.0-6.0-58.0","2","[""img/0875/5a716432-c6ca-4b1c-955a-2b8ac25198ee.jpg"",""img/0881/566f45f8-5fed-4479-a60f-26377e60a62d.jpg""]","",""
"","5343","similarity","65","494540","0.0-6.0-59.0","5","[""img/0866/23a224f3-2012-4fc8-8e0f-3c36f8de27fd.jpg"",""img/0860/5383b320-1518-4095-a58e-5cc1ae30b64c.jpg""]","",""
"","6319","similarity","66","501861","0.0-6.0-60.0","4","[""img/0903/0a92ec52-4e87-410a-857a-4455cde56a70.jpg"",""img/0866/07c9c966-3c8d-40e7-8128-92b2acbaed5d.jpg""]","",""
"","6213","similarity","67","509081","0.0-6.0-61.0","3","[""img/0860/18dfed73-e36b-4487-a8bd-0b8cff8e3668.jpg"",""img/0875/e7e66b13-b573-431e-b85e-288ce04a35a3.jpg""]","",""
"","6037","similarity","68","516121","0.0-6.0-62.0","1","[""img/0898/881e2a85-d5c2-49be-a0c6-8a6ce2c4af08.jpg"",""img/0862/e697469a-ec19-4414-b972-7b9f3564785b.jpg""]","",""
"","8710","similarity","69","525837","0.0-6.0-63.0","5","[""img/0902/40d0b6ec-3907-4573-b227-e7d8e9cad1c3.jpg"",""img/0766/a1ed3f0f-e338-4a26-8fe4-4370f0c9fa6e.jpg""]","",""
"","4658","similarity","70","531498","0.0-6.0-64.0","5","[""img/0758/a085b443-b5d7-4cb2-9ad4-b9dab0fc23f1.jpg"",""img/0864/0f537697-a314-47c3-a8cc-8df23b7e536c.jpg""]","",""
"","3414","similarity","71","535925","0.0-6.0-65.0","1","[""img/0894/38cf335f-f76f-4349-8d65-e20cd6859565.jpg"",""img/0860/8277806e-b684-4474-8f7b-3fca946d7d4f.jpg""]","",""
"","3168","similarity","72","540094","0.0-6.0-66.0","1","[""img/0899/76ad07e2-ca25-45eb-84f2-8d80b8ca3e26.jpg"",""img/0868/5fa7f9d0-f0e5-454c-8224-74d964818f56.jpg""]","",""
"","4420","similarity","73","545521","0.0-6.0-67.0","5","[""img/0866/6f2a90d7-14f1-4f1b-bd64-fc0af6b9fe44.jpg"",""img/0862/d0ca4c78-fc35-46ed-bdcc-8e124283c53e.jpg""]","",""
"","5117","similarity","74","551644","0.0-6.0-68.0","5","[""img/0860/9593362c-9fe5-4d12-9735-6000a11f6aa5.jpg"",""img/0758/65d426d6-3ff6-415d-8654-a43b83ecc4fe.jpg""]","",""
"","4463","similarity","75","557117","0.0-6.0-69.0","3","[""img/0902/ca3160ba-ad5d-459f-a1b6-8b4f3c85ecd5.jpg"",""img/0867/c66898ba-b71b-4d50-84f9-f7f84853a98d.jpg""]","",""
"","2903","similarity","76","561020","0.0-6.0-70.0","1","[""img/0862/fb26cb07-d5a9-4653-813c-f41609f26cd5.jpg"",""img/0901/58978a6d-a3e2-4c59-8d62-f60693ecc0f6.jpg""]","",""
"","4329","similarity","77","566353","0.0-6.0-71.0","6","[""img/0867/6e19c858-b606-45b2-a4c6-910a73f1d82c.jpg"",""img/0866/d493a2c8-66eb-44b4-be02-2f327b700b7c.jpg""]","",""
"","5233","similarity","78","572593","0.0-6.0-72.0","5","[""img/0860/fd4662f9-4c03-4d79-8593-06735e55a64b.jpg"",""img/0904/63dd06dd-dccb-47ba-9740-eb33239e18a7.jpg""]","",""
"","4445","similarity","79","578052","0.0-6.0-73.0","1","[""img/0875/a4935837-7d3c-4df6-88c1-36a94d4991ca.jpg"",""img/0899/d8f2dd94-570e-4e8c-a087-d96090fb9e8c.jpg""]","",""
"","5537","similarity","80","584596","0.0-6.0-74.0","1","[""img/0899/d60714ae-98d7-4564-8c98-94dba1351135.jpg"",""img/0758/821c68d3-5cb0-4eae-8659-30e6263fca39.jpg""]","",""
"","4570","similarity","81","592530","0.0-6.0-75.0","3","[""img/0862/57b6f83f-c763-4858-830d-102f97bfefbf.jpg"",""img/0875/cff79b3a-a797-4393-9757-6275f999ec04.jpg""]","",""
"","4444","similarity","82","597980","0.0-6.0-76.0","5","[""img/0901/d6d15b1c-4a30-4f74-a3fd-d4c8ee4169ca.jpg"",""img/0894/1a010553-d598-4b06-a772-81f1e7b3addb.jpg""]","",""
"","4572","similarity","83","603556","0.0-6.0-77.0","1","[""img/0766/71b81ebd-0937-4d7f-b8bf-c4e46a4728fd.jpg"",""img/0758/61d64021-9214-4951-bdf8-f871f9827cf9.jpg""]","",""
"","3487","similarity","84","608046","0.0-6.0-78.0","5","[""img/0894/a98416c0-51e2-4960-85da-d81d8688b9d5.jpg"",""img/0764/ec2dd087-c471-4370-b570-95a542506a96.jpg""]","",""
"","7518","similarity","85","616565","0.0-6.0-79.0","5","[""img/0860/31ff6436-98bf-4652-bed2-40f627229568.jpg"",""img/0867/2e1a0b58-cdb1-4107-a14e-452530d7b9b0.jpg""]","",""
"","3891","similarity","86","621462","0.0-6.0-80.0","5","[""img/0898/e167334e-cc1d-4986-b3b1-c7bc7da64baa.jpg"",""img/0901/a9b9c0a0-8aed-4888-a78a-65fb7e764d13.jpg""]","",""
"","5054","similarity","87","627519","0.0-6.0-81.0","2","[""img/0874/3ce41e7c-40c8-4d58-a546-171114521796.jpg"",""img/0764/1f95ab5f-fb65-4d70-b5db-d6bd6351a8aa.jpg""]","",""
"","4635","similarity","88","633156","0.0-6.0-82.0","1","[""img/0899/4f7bc593-8ddd-4da3-a0b9-84da730d3370.jpg"",""img/0862/f188d4f0-76a4-4102-818c-a209969d73a5.jpg""]","",""
"","4579","similarity","89","638738","0.0-6.0-83.0","3","[""img/0766/af3be95e-e52e-4fae-899b-0ff02ec340aa.jpg"",""img/0901/77087ed2-6e12-4329-b2a5-605bca6d972d.jpg""]","",""
"","5145","similarity","90","644887","0.0-6.0-84.0","1","[""img/0881/292e9b4b-fca0-4ba8-87f1-4048f9e37b7d.jpg"",""img/0898/8605a25b-6895-476d-8c13-df7a83f96093.jpg""]","",""
"","7472","similarity","91","653361","0.0-6.0-85.0","4","[""img/0868/4e626425-63c8-484a-8a1d-e66ee4e0bef8.jpg"",""img/0860/4f695df5-afac-4da7-9875-fee39b0b24ad.jpg""]","",""
"","4360","similarity","92","658725","0.0-6.0-86.0","3","[""img/0758/7ffbc76b-1fc1-432c-8f7e-9ec8d1b3f643.jpg"",""img/0868/1a62b2b2-18f5-466e-b564-5176a57c565e.jpg""]","",""
"","4476","similarity","93","664201","0.0-6.0-87.0","1","[""img/0864/c22faebd-9c53-47bc-ada3-b9a30c688e75.jpg"",""img/0894/e6385e52-6c35-43bd-b0af-bc803d107b11.jpg""]","",""
"","5706","similarity","94","670915","0.0-6.0-88.0","1","[""img/0866/620cd1aa-0800-4414-8f6e-90342e7a99ad.jpg"",""img/0902/51493fab-2a10-4385-aa88-bee3db441626.jpg""]","",""
"","5263","similarity","95","677178","0.0-6.0-89.0","3","[""img/0769/e8ed913b-8a88-44f6-9327-d34afec3116b.jpg"",""img/0867/8ba0c5a7-c7e4-42cf-a80a-543763b90779.jpg""]","",""
"","3940","similarity","96","682122","0.0-6.0-90.0","5","[""img/0874/a3bc679d-619f-4db6-bb68-116dcb757d9c.jpg"",""img/0875/42910c99-5463-450a-a0f8-d4d060a11455.jpg""]","",""
"","5803","similarity","97","688934","0.0-6.0-91.0","7","[""img/0864/5f33e097-23e3-4002-882d-76e8cb15f451.jpg"",""img/0874/93d1f8dc-acf2-4f03-bd8d-8ec35df276ed.jpg""]","",""
"","5104","similarity","98","695042","0.0-6.0-92.0","5","[""img/0881/48ed65a5-471f-41af-86ec-3793805c116d.jpg"",""img/0862/a0a3a7ba-7798-46a3-b4ca-05e1f6e581d0.jpg""]","",""
"","5542","similarity","99","701591","0.0-6.0-93.0","6","[""img/0864/65210d57-1153-4657-886a-32e758f49b4a.jpg"",""img/0881/4bd34581-94d8-4e88-8c89-5cef864ca3be.jpg""]","",""
"","5409","similarity","100","708006","0.0-6.0-94.0","1","[""img/0899/0e1d936a-dbe2-4afc-9f19-7b7a1ae6c9ed.jpg"",""img/0901/12da1841-e611-435c-9719-109413d536a8.jpg""]","",""
"","4049","similarity","101","713062","0.0-6.0-95.0","1","[""img/0874/bf14b896-e930-4fd9-9c05-2e83317a2773.jpg"",""img/0766/dd3e18d0-0c98-4d05-b850-69976ee8cd75.jpg""]","",""
"","3687","similarity","102","717740","0.0-6.0-96.0","1","[""img/0881/6b1189e6-232d-4042-8885-16dc7b10e0d4.jpg"",""img/0899/25ae6ec8-9565-49fe-a8bb-8d0666f52716.jpg""]","",""
"","5609","similarity","103","724366","0.0-6.0-97.0","2","[""img/0862/92fcd8a4-8193-4a6a-ae09-dd4a6338b0df.jpg"",""img/0902/6730b12a-f0a7-4587-8c10-a32fae16565b.jpg""]","",""
"","5696","similarity","104","731066","0.0-6.0-98.0","6","[""img/0899/565ccdd9-0933-4536-a625-3c0e25a713dd.jpg"",""img/0764/56441045-b648-4ede-9632-3e9c0227080b.jpg""]","",""
"","5143","similarity","105","737222","0.0-6.0-99.0","2","[""img/0758/7fba58df-2a7a-4b76-8a8f-62739f97f271.jpg"",""img/0862/47ed5efd-4ec9-4b74-bb4e-a5f5cf0c3e7d.jpg""]","",""
"","4946","similarity","106","743176","0.0-6.0-100.0","3","[""img/0764/b887d7c6-aa81-4637-af8e-05135757ac59.jpg"",""img/0898/82231d4c-218b-4d0a-b50d-35a49b524e97.jpg""]","",""
"","4696","similarity","107","748872","0.0-6.0-101.0","6","[""img/0901/b453df0b-4c39-49bb-8ced-6127efffa898.jpg"",""img/0902/2a7ac123-414a-476a-9a96-4757b924baef.jpg""]","",""
"","3853","similarity","108","753728","0.0-6.0-102.0","1","[""img/0764/d0bef2e0-e16b-4c82-9451-c1d16265eb67.jpg"",""img/0868/fd307a36-9a3a-47d7-ab7c-f810d0b35040.jpg""]","",""
"","6630","similarity","109","761365","0.0-6.0-103.0","1","[""img/0769/f2740c58-7c02-433f-920b-746b0b75435b.jpg"",""img/0881/4da99fdd-1f40-4bbb-8e21-8833eef313f5.jpg""]","",""
"","4237","similarity","110","766605","0.0-6.0-104.0","1","[""img/0864/ef9cbca0-4be8-435d-ad49-977259e80409.jpg"",""img/0769/50985283-d353-4abc-9abe-14a91d56ebe6.jpg""]","",""
"","7084","similarity","111","774695","0.0-6.0-105.0","5","[""img/0866/945c6710-d15b-4a5b-a8f6-69af0850357f.jpg"",""img/0868/179a5502-ab5c-478e-8263-5a1fbcc101d2.jpg""]","",""
"","6937","similarity","112","782641","0.0-6.0-106.0","4","[""img/0868/c8ac40c7-6904-4e13-8d61-c75d3052dc4e.jpg"",""img/0862/1c20f772-3a51-4a80-aac0-f57dc9f86c28.jpg""]","",""
"","5253","similarity","113","788894","0.0-6.0-107.0","5","[""img/0766/51d3aab4-3d09-4dda-b99d-3dc7aaabc6f2.jpg"",""img/0898/0af304a2-6a7a-4082-ab7c-4450cd08cc58.jpg""]","",""
"","3917","similarity","114","793814","0.0-6.0-108.0","1","[""img/0898/224c1572-56b9-4f16-a9e4-6f3bc9c114bd.jpg"",""img/0864/b3c4e378-28f0-4699-9338-2a257b4bca04.jpg""]","",""
"","3997","similarity","115","798817","0.0-6.0-109.0","1","[""img/0868/e0aff734-077f-40dd-9781-74821abd3621.jpg"",""img/0902/eb3e7e71-8ff1-4b88-a6a7-47e2c1ce1683.jpg""]","",""
"","3856","similarity","116","803673","0.0-6.0-110.0","6","[""img/0904/73920552-103b-4c9c-9ece-e0b8376b4504.jpg"",""img/0764/50f1b062-d608-4bc0-ab25-b872dcf2ed93.jpg""]","",""
"","4170","similarity","117","808846","0.0-6.0-111.0","1","[""img/0894/9b1333fd-3561-43bf-aee5-99b7b7ca3dc3.jpg"",""img/0875/dbdd643e-6d0e-4a5c-ab57-b9c29b9c981a.jpg""]","",""
"","7653","similarity","118","817506","0.0-6.0-112.0","2","[""img/0868/d98ca254-b195-477f-b57e-5760a2717db8.jpg"",""img/0874/1016b306-087c-4afc-aa08-fa527b28dc76.jpg""]","",""
"","4120","similarity","119","825079","0.0-6.0-113.0","7","[""img/0904/0d25eb24-bb20-4e8d-9787-8b489558b4cb.jpg"",""img/0898/b3290bf9-215b-4b45-b21a-65bdf73f142f.jpg""]","",""
"","5123","similarity","120","831209","0.0-6.0-114.0","1","[""img/0860/87039971-2210-4aab-93c0-8e9b5f1655b2.jpg"",""img/0766/a0270213-fa0e-4972-8b56-228c3e01ff90.jpg""]","",""
"","3924","similarity","121","836133","0.0-6.0-115.0","1","[""img/0894/43216a7f-27bc-4b5a-8841-d122a30da9d9.jpg"",""img/0874/3f471690-9788-4d03-90c7-f615aecef149.jpg""]","",""
"","5086","similarity","122","842219","0.0-6.0-116.0","6","[""img/0899/7f9d45d0-b2c6-40d3-aa41-c207db2c411b.jpg"",""img/0903/6a87dbad-9b8d-4ff5-9c41-03c9aa24f0c3.jpg""]","",""
"","3413","similarity","123","846649","0.0-6.0-117.0","1","[""img/0881/54ea8e77-c7e5-4197-b7fa-00b7020849a7.jpg"",""img/0764/ba0c0955-acbb-457d-b1c2-f006b88121d5.jpg""]","",""
"","5675","similarity","124","853325","0.0-6.0-118.0","5","[""img/0903/6f343da5-00d9-4d50-89d1-2ed24cdb8319.jpg"",""img/0769/3c1203c5-2ce7-466e-957a-8d77b5905460.jpg""]","",""
"","4880","similarity","125","859209","0.0-6.0-119.0","7","[""img/0901/168eb52c-c415-43f1-b5c8-e76e1a1ec247.jpg"",""img/0904/1d10df11-b5c8-4370-9a6b-097a7f965895.jpg""]","",""
"","6396","similarity","126","866605","0.0-6.0-120.0","2","[""img/0860/15b24a61-25be-4356-9eac-5ce95d0cb4a4.jpg"",""img/0881/0c7068da-d0d9-4103-bda1-74ef7a2b32c3.jpg""]","",""
"","6475","similarity","127","874083","0.0-6.0-121.0","5","[""img/0758/ddc336e9-a8b6-4bb9-937a-c7e25e0e9250.jpg"",""img/0874/eba003b4-cdab-4eee-8bc3-f064c7d94165.jpg""]","",""
"","5946","similarity","128","881034","0.0-6.0-122.0","5","[""img/0901/a373612d-67e2-4fec-9764-21d3d6ef6359.jpg"",""img/0769/f6396414-6788-4d59-9683-de153298d89c.jpg""]","",""
"","5013","similarity","129","887054","0.0-6.0-123.0","7","[""img/0902/d5e25767-e8ec-45f3-ac0a-7b4a6f7a9edc.jpg"",""img/0904/96e503ea-6630-4996-85f2-0237688ce441.jpg""]","",""
"","3870","similarity","130","891928","0.0-6.0-124.0","1","[""img/0899/8de08897-b430-42fe-9d42-840670b80f94.jpg"",""img/0864/a248adb3-c70b-4652-b7a3-776d2a1e904b.jpg""]","",""
"","5853","similarity","131","898788","0.0-6.0-125.0","1","[""img/0766/aaec5f42-7f0a-4a16-aeca-488d757acbcc.jpg"",""img/0868/293079b8-7e0c-4afd-a390-1e5d35fe3ded.jpg""]","",""
"","4137","similarity","132","903928","0.0-6.0-126.0","1","[""img/0764/29072395-f595-4e3c-83d3-ff87010039fa.jpg"",""img/0864/87c467d3-abca-482f-ad80-3766c21b1bb3.jpg""]","",""
"","3323","similarity","133","908254","0.0-6.0-127.0","1","[""img/0899/93494f3b-d539-4075-b027-d82e344563da.jpg"",""img/0866/a15b02be-11bb-43e3-b0e0-ecc3bd7dfc49.jpg""]","",""
"","5866","similarity","134","915124","0.0-6.0-128.0","1","[""img/0901/58ec7fa9-b466-4651-90aa-c082df0972de.jpg"",""img/0881/14236cf2-6b95-48b8-9368-78af09d2d27f.jpg""]","",""
"","4351","similarity","135","920489","0.0-6.0-129.0","7","[""img/0898/26c41340-15bd-4ead-8fe4-c0d0ddca09c2.jpg"",""img/0903/c3cb4a01-2797-43ca-b216-88c67b323fbb.jpg""]","",""
"","4247","similarity","136","925736","0.0-6.0-130.0","1","[""img/0894/38f5931f-926d-414e-b498-66b188978b7a.jpg"",""img/0867/c71dc569-f49c-4397-8381-68b8d726736d.jpg""]","",""
"","3864","similarity","137","930606","0.0-6.0-131.0","1","[""img/0874/a82926a3-0b43-4add-803c-d5f9ea7798ee.jpg"",""img/0903/ea75f240-fb62-4edb-a709-83e858b202c0.jpg""]","",""
"","4929","similarity","138","936545","0.0-6.0-132.0","5","[""img/0899/8abe6c69-822c-436c-9bf2-96c818b49ba5.jpg"",""img/0898/79233891-305a-4a6a-8ddf-5c8604858203.jpg""]","",""
"","3680","similarity","139","941229","0.0-6.0-133.0","1","[""img/0867/f8159067-056c-41f1-a136-c529fe5e970a.jpg"",""img/0764/7f4ee8e3-9315-4a57-be7d-db8454b33766.jpg""]","",""
"","4886","similarity","140","947118","0.0-6.0-134.0","1","[""img/0866/386235d2-6857-41e7-88a8-25cfc3430025.jpg"",""img/0769/47700831-0ca2-4fdd-a498-a3bc5a528f43.jpg""]","",""
"","4353","similarity","141","952475","0.0-6.0-135.0","1","[""img/0860/524b2e98-5767-4d53-942c-ebae6925659b.jpg"",""img/0898/4184e5a2-84ea-4f36-9b42-ae58646f6f87.jpg""]","",""
"","5954","similarity","142","959442","0.0-6.0-136.0","2","[""img/0881/d373cb9f-a719-4549-a2a4-82def79fb2a5.jpg"",""img/0903/5248eedd-7e6a-4d39-91b0-06ec227f3ed0.jpg""]","",""
"","5500","similarity","143","965949","0.0-6.0-137.0","6","[""img/0894/7fb082e0-ce79-485c-9109-04367fb32275.jpg"",""img/0766/535849cc-ff5d-4df9-8f31-0ce94a97d571.jpg""]","",""
"","3179","similarity","144","970128","0.0-6.0-138.0","1","[""img/0860/5bff793e-cbd5-4d7e-b628-0ac2b0e30b64.jpg"",""img/0764/6ef77040-1fae-4afa-bfe7-eda98e6d0376.jpg""]","",""
"","5066","similarity","145","976198","0.0-6.0-139.0","6","[""img/0769/3c1efec9-f8fd-487d-8955-4be88e48c832.jpg"",""img/0902/94ee9c53-a9a2-4f95-b9b7-794a5fc62bb6.jpg""]","",""
"","3802","similarity","146","981001","0.0-6.0-140.0","7","[""img/0904/d23dd7be-7fe8-4435-82f7-bd592c01e6a1.jpg"",""img/0903/5995f4a8-fa82-46f8-8760-fd7800a5ca34.jpg""]","",""
"","5733","similarity","147","987738","0.0-6.0-141.0","5","[""img/0764/cbdc4f20-3a9a-4211-9b40-090699e0abcc.jpg"",""img/0769/91acb237-65a3-4d0b-9748-af5c7b83d3c7.jpg""]","",""
"","3518","similarity","148","992262","0.0-6.0-142.0","1","[""img/0902/cdec1bc6-7f90-4f72-9e01-f5a4111bac1d.jpg"",""img/0881/62a64f90-7a72-4aee-a1a1-0c548ac9bdda.jpg""]","",""
"","5273","similarity","149","998537","0.0-6.0-143.0","3","[""img/0866/4a87911a-d5be-4d4e-ab8e-3d1f581bf507.jpg"",""img/0864/66091c27-e588-4476-8af9-265dc6be4156.jpg""]","",""
"","4024","similarity","150","1003561","0.0-6.0-144.0","7","[""img/0902/12452bb1-b8c0-4e4d-ad4d-47e279e5933c.jpg"",""img/0898/a114b375-cb89-44ba-9498-74213f1ecdee.jpg""]","",""
"","4454","similarity","151","1009034","0.0-6.0-145.0","3","[""img/0862/53a9cf7c-93c4-41b9-952f-07d17f7a17b2.jpg"",""img/0864/4bd81bc6-c13d-46df-95a9-485886dc7c1b.jpg""]","",""
"","3382","similarity","152","1013420","0.0-6.0-146.0","1","[""img/0875/f87b67d7-c33e-40d1-b281-248c4be1cb6e.jpg"",""img/0898/6cd3830b-d44e-4915-be2b-88d31424b91c.jpg""]","",""
"","5549","similarity","153","1019974","0.0-6.0-147.0","3","[""img/0874/ca76a855-4e77-4f2f-872a-0a718153e7ed.jpg"",""img/0881/e046471a-35b4-4159-bbf7-3cfd201bef66.jpg""]","",""
"","3340","similarity","154","1024331","0.0-6.0-148.0","1","[""img/0758/d540bee6-b460-4c32-ac57-bc282742d7d4.jpg"",""img/0894/3adef67d-7676-4995-80b2-bb31b8aca3ef.jpg""]","",""
"","3249","similarity","155","1028580","0.0-6.0-149.0","1","[""img/0904/5cceabc9-de1d-4c67-989b-c28a4ef77e79.jpg"",""img/0864/1ebbc554-99fa-49f9-8799-317375a79820.jpg""]","",""
"","5040","similarity","156","1034627","0.0-6.0-150.0","6","[""img/0769/da36e3f7-2337-434f-ab57-11822dd7eed7.jpg"",""img/0899/ad8268c5-8199-48d0-ad70-c5b6d6c599ec.jpg""]","",""
"","4259","similarity","157","1041950","0.0-6.0-151.0","6","[""img/0764/a86eed5b-d0af-4c3f-8c7a-26e98e98cf1a.jpg"",""img/0903/005ad0de-4f52-433c-b515-dbe8d46184a3.jpg""]","",""
"","4873","similarity","158","1047826","0.0-6.0-152.0","1","[""img/0903/07b445ee-0cdb-4d2c-a23b-d727613f4059.jpg"",""img/0864/ea327690-500b-4137-bf91-451b309fe6a5.jpg""]","",""
"","6013","similarity","159","1054839","0.0-6.0-153.0","5","[""img/0894/0130a973-d993-41f8-874a-fee23d9ac11f.jpg"",""img/0881/c843e210-bdfe-4a7c-8bbe-fcea1f90fe1c.jpg""]","",""
"","4227","similarity","160","1060083","0.0-6.0-154.0","5","[""img/0875/5a1e5100-0d94-4fec-bbe9-ca9894d2cf8e.jpg"",""img/0867/a498eef3-9fa4-4ab2-9778-4ae82ac40dc5.jpg""]","",""
"","3783","similarity","161","1064869","0.0-6.0-155.0","5","[""img/0867/85a96c62-548f-4994-9553-819e03c3135a.jpg"",""img/0758/53f35650-e455-4b53-8be4-c3c8271c6466.jpg""]","",""
"","4720","similarity","162","1070602","0.0-6.0-156.0","1","[""img/0868/15dd6fd7-791e-4b53-b203-195d617521a4.jpg"",""img/0901/693e0535-ef7e-4d60-af9d-fac2f38e8307.jpg""]","",""
"","4580","similarity","163","1076194","0.0-6.0-157.0","7","[""img/0769/4a1d0b52-3fe8-40fb-bb1c-c814fe49a68c.jpg"",""img/0894/5ff3c4f6-52e2-4075-8679-be0312e59703.jpg""]","",""
"","4510","similarity","164","1081706","0.0-6.0-158.0","1","[""img/0904/9b3568cc-3cf7-42be-9df3-fdafde7a58b8.jpg"",""img/0758/6e95579b-5166-487c-b8cb-e417c6a218e3.jpg""]","",""
"","4520","similarity","165","1087233","0.0-6.0-159.0","2","[""img/0874/ca23d307-fc00-4d7d-9106-584c6eb21b4d.jpg"",""img/0904/09dac84f-3d1c-4445-a68e-d0389fdbf1e9.jpg""]","",""
"","3866","similarity","166","1092102","0.0-6.0-160.0","1","[""img/0864/8ddd2e30-a1d0-479f-9cbe-591213023893.jpg"",""img/0901/1e23ffbd-19de-4c4f-aa23-c54aaa3319a3.jpg""]","",""
"","3161","similarity","167","1096263","0.0-6.0-161.0","1","[""img/0898/f3a3f225-1248-4ac7-b93b-f0ff28485bf3.jpg"",""img/0866/f756f7d1-9ad8-4a34-9ef6-7a443d705bfe.jpg""]","",""
"","4460","similarity","168","1101740","0.0-6.0-162.0","6","[""img/0766/75c3d627-4f3b-40d5-9d9c-10c8a62db644.jpg"",""img/0903/365f176c-25a4-4973-bd3c-279bf1b39476.jpg""]","",""
"","4241","similarity","169","1106996","0.0-6.0-163.0","1","[""img/0860/c3379ff7-0763-48fe-a1ec-7ea3d611bc7a.jpg"",""img/0899/00715b3f-851b-420b-a26b-d7f79f7759a9.jpg""]","",""
"","5017","similarity","170","1113022","0.0-6.0-164.0","1","[""img/0766/c23b5a20-e50f-4d85-841f-cf89212a4348.jpg"",""img/0862/e0f1a4e9-e1b6-45f7-af67-89f334e6630d.jpg""]","",""
"","6279","similarity","171","1120305","0.0-6.0-165.0","5","[""img/0898/5f699581-3853-4547-856c-12f419ba5af7.jpg"",""img/0894/3664e04c-c6d3-4c9b-afb6-25d89974b174.jpg""]","",""
"","3892","similarity","172","1125204","0.0-6.0-166.0","1","[""img/0867/ac1797e4-8afc-48fe-b252-86d1defb1cca.jpg"",""img/0766/214866ee-423d-4629-9bb9-41572bdc7dac.jpg""]","",""
"","3975","similarity","173","1130181","0.0-6.0-167.0","1","[""img/0904/9d30eff1-46ef-4453-b11e-124ef8145c00.jpg"",""img/0862/f43ceabf-acc1-4107-b857-5d1849808f93.jpg""]","",""
"","4853","similarity","174","1136037","0.0-6.0-168.0","2","[""img/0866/a04d37f0-99dd-478a-b6c6-58b215138f84.jpg"",""img/0874/767f289c-9814-4496-803f-745cc8913d1f.jpg""]","",""
"","3684","similarity","175","1140730","0.0-6.0-169.0","1","[""img/0903/6378ee1e-3d2b-48d2-87be-bebda32c8268.jpg"",""img/0868/0d3abd3a-b6c3-4584-a9f7-e2da63748b3d.jpg""]","",""
"","5336","similarity","176","1147070","0.0-6.0-170.0","6","[""img/0769/8056889f-2b14-4782-bb25-b4e8896ab65b.jpg"",""img/0904/ba8e689e-9ca6-4608-a2a1-3b0940666ae6.jpg""]","",""
"","4410","similarity","177","1152483","0.0-6.0-171.0","1","[""img/0875/03c3c331-738b-4446-af92-3d7386b08c2e.jpg"",""img/0764/ef0e64c6-d0dd-4dc6-87b6-ce5c0665f421.jpg""]","",""
"","4180","similarity","178","1157663","0.0-6.0-172.0","1","[""img/0860/8a92e21b-6a32-4e4a-a445-2d5a487ed0a4.jpg"",""img/0903/2a9c8033-3e70-47fa-816d-97ee1813a3a3.jpg""]","",""
"","6217","similarity","179","1164883","0.0-6.0-173.0","5","[""img/0864/1d15626a-2f7c-410f-819c-0fa2c967e95e.jpg"",""img/0867/cc72ed48-7704-422c-86d6-467a1145287a.jpg""]","",""
"","5266","similarity","180","1171149","0.0-6.0-174.0","5","[""img/0868/3a62db2d-97e9-44a3-b8e3-a48c6f0e423b.jpg"",""img/0864/e8bd659f-aa43-4748-877e-3118e8b4e189.jpg""]","",""
"","4100","similarity","181","1176249","0.0-6.0-175.0","6","[""img/0898/01bfe666-3510-4fc7-964f-d00d28732dc8.jpg"",""img/0769/180213e5-1e50-4b4e-87b6-add77ba04d39.jpg""]","",""
"","5406","similarity","182","1182655","0.0-6.0-176.0","7","[""img/0766/e8052e17-9dae-4139-802b-6e590cb2d526.jpg"",""img/0764/6c7fe363-2d37-418f-9e5e-a3273af5d4fb.jpg""]","",""
"","5770","similarity","183","1189425","0.0-6.0-177.0","1","[""img/0764/cffc80b0-4a90-4acb-a530-6f480f3ca303.jpg"",""img/0866/9b38d691-1802-4959-ab3f-fc902f0e4ea6.jpg""]","",""
"","3823","similarity","184","1194248","0.0-6.0-178.0","1","[""img/0902/d49743d6-67ae-4c2e-a939-8fd895a0f18e.jpg"",""img/0875/8521fd58-3b1e-4dc5-97ae-804edfa6734a.jpg""]","",""
"","3937","similarity","185","1199195","0.0-6.0-179.0","1","[""img/0881/f8bd891e-aa09-4782-89db-33e7cb2b0cf1.jpg"",""img/0904/09934646-45d2-4147-8fec-64a22a5ac822.jpg""]","",""
"","5825","similarity","186","1206029","0.0-6.0-180.0","3","[""img/0874/adf9a8f1-c40b-402b-b95b-1e85a54a7b62.jpg"",""img/0860/8fdba999-b946-4c7d-9891-336018b563ef.jpg""]","",""
"","4943","similarity","187","1211982","0.0-6.0-181.0","2","[""img/0769/9ea9ceb6-049e-4ad9-be8f-00645cd35803.jpg"",""img/0874/29830da7-be5f-44e5-b141-652a0ccf7269.jpg""]","",""
"","5363","similarity","188","1218345","0.0-6.0-182.0","7","[""img/0904/fe746a3f-8458-48d0-8a13-8cba2a9df9f8.jpg"",""img/0766/5d6e0d1d-4369-41f0-a64c-91f3503055c7.jpg""]","",""
"","5626","similarity","189","1224978","0.0-6.0-183.0","7","[""img/0902/27b84584-948a-485b-8749-cb09929ef631.jpg"",""img/0764/b328441c-f81c-486c-9eae-b947c70ba7cd.jpg""]","",""
"","3523","similarity","190","1229504","0.0-6.0-184.0","1","[""img/0769/48a1144d-fbda-4809-991b-fc8424a32ee4.jpg"",""img/0875/fb732ab5-013a-4366-9f65-27811ed157e9.jpg""]","",""
"","4047","similarity","191","1234551","0.0-6.0-185.0","1","[""img/0867/98d8cd96-1476-4fe0-a3a3-04f875500a1b.jpg"",""img/0903/680ed18e-b311-4ecf-9b00-7dea32128334.jpg""]","",""
"","3753","similarity","192","1239307","0.0-6.0-186.0","1","[""img/0862/ba89835a-408c-480b-8594-ed4ffa97eb5c.jpg"",""img/0769/35364db7-e0d5-40ef-93dc-faf9dfb95136.jpg""]","",""
"","3170","similarity","193","1243477","0.0-6.0-187.0","1","[""img/0766/26d3ae14-8275-4e08-99b2-a6598c193ddf.jpg"",""img/0866/11a1d141-be5e-443c-98c1-a9d4d9e3dec0.jpg""]","",""
"","4196","similarity","194","1248677","0.0-6.0-188.0","1","[""img/0769/82ab9db6-4578-4e79-874f-f09100439f09.jpg"",""img/0860/c47fdead-eb02-4989-b078-26f4852f44fe.jpg""]","",""
"","4208","similarity","195","1258583","0.0-6.0-189.0","3","[""img/0881/7e31e5dc-2240-4b1b-b5a0-3acd980099ef.jpg"",""img/0868/6a28c3b0-3d76-498a-9fb7-ddafc665eca8.jpg""]","",""
"[{""page_index"":0,""viewing_time"":6222}]","6222","instructions","196","1265811","0.0-7.0","","","",""
"","45502","image-multi-choice","197","1312336","0.0-8.0-0.0","","","{""Q0"":""Nashville Warbler""}","Nashville Warbler"
"","13817","image-multi-choice","198","1327167","0.0-8.0-1.0","","","{""Q0"":""Black-and-white Warbler""}","Black-and-white Warbler"
"","11110","image-multi-choice","199","1339278","0.0-8.0-2.0","","","{""Q0"":""Townsend's Warbler""}","Townsend's Warbler"
"","11989","image-multi-choice","200","1352267","0.0-8.0-3.0","","","{""Q0"":""White-throated Sparrow""}","Lark Sparrow"
"","5168","image-multi-choice","201","1358439","0.0-8.0-4.0","","","{""Q0"":""Yellow Warbler""}","Yellow Warbler"
"","23622","image-multi-choice","202","1383069","0.0-8.0-5.0","","","{""Q0"":""Tennessee Warbler""}","Orange-crowned Warbler"
"","9115","image-multi-choice","203","1393200","0.0-8.0-6.0","","","{""Q0"":""White-throated Sparrow""}","White-throated Sparrow"
"","4370","image-multi-choice","204","1398570","0.0-8.0-7.0","","","{""Q0"":""Fox Sparrow""}","Fox Sparrow"
"","33402","image-multi-choice","205","1432978","0.0-8.0-8.0","","","{""Q0"":""Swamp Sparrow""}","Song Sparrow"
"","18162","image-multi-choice","206","1452144","0.0-8.0-9.0","","","{""Q0"":""Blackburnian Warbler""}","Blackburnian Warbler"
"","19075","image-multi-choice","207","1472223","0.0-8.0-10.0","","","{""Q0"":""Lincoln's Sparrow""}","Vesper Sparrow"
"","5363","image-multi-choice","208","1478595","0.0-8.0-11.0","","","{""Q0"":""White-crowned Sparrow""}","White-crowned Sparrow"
"","20891","image-multi-choice","209","1500491","0.0-8.0-12.0","","","{""Q0"":""Chipping Sparrow""}","American Tree Sparrow"
"","17700","image-multi-choice","210","1519203","0.0-8.0-13.0","","","{""Q0"":""Orange-crowned Warbler""}","Tennessee Warbler"
"","12581","image-multi-choice","211","1532794","0.0-8.0-14.0","","","{""Q0"":""Magnolia Warbler""}","Magnolia Warbler"
"","12766","image-multi-choice","212","1546570","0.0-8.0-15.0","","","{""Q0"":""Northern Waterthrush""}","Northern Waterthrush"
"","19381","image-multi-choice","213","1566962","0.0-8.0-16.0","","","{""Q0"":""American Tree Sparrow""}","Chipping Sparrow"
"","19574","image-multi-choice","214","1587547","0.0-8.0-17.0","","","{""Q0"":""Lark Sparrow""}","Swamp Sparrow"
"","12611","image-multi-choice","215","1601165","0.0-8.0-18.0","","","{""Q0"":""Song Sparrow""}","Lincoln's Sparrow"
"","13431","image-multi-choice","216","1615606","0.0-8.0-19.0","","","{""Q0"":""Ovenbird""}","Ovenbird"
