"view_history","rt","trial_type","trial_index","time_elapsed","internal_node_id","sim_score","stimulus","responses","answer"
"[{""page_index"":0,""viewing_time"":33052}]","33053","instructions","0","33055","0.0-0.0","","","",""
"","20592","similarity_demo","1","54654","0.0-1.0","5","[""img/bluejay1.jpg"",""img/bluejay2.jpg""]","",""
"[{""page_index"":0,""viewing_time"":24218}]","24219","instructions","2","79875","0.0-2.0","","","",""
"","12385","similarity_demo","3","93264","0.0-3.0","3","[""img/bluejay1.jpg"",""img/cardinal1.jpg""]","",""
"[{""page_index"":0,""viewing_time"":21160}]","21160","instructions","4","115425","0.0-4.0","","","",""
"[{""page_index"":0,""viewing_time"":108913}]","108913","instructions","5","225340","0.0-5.0","","","",""
"","6343","similarity","6","232688","0.0-6.0-0.0","2","[""img/0868/293079b8-7e0c-4afd-a390-1e5d35fe3ded.jpg"",""img/0894/43216a7f-27bc-4b5a-8841-d122a30da9d9.jpg""]","",""
"","5801","similarity","7","239494","0.0-6.0-1.0","2","[""img/0898/a114b375-cb89-44ba-9498-74213f1ecdee.jpg"",""img/0758/61d64021-9214-4951-bdf8-f871f9827cf9.jpg""]","",""
"","5362","similarity","8","245861","0.0-6.0-2.0","2","[""img/0903/6b5dcc60-3ad3-4962-93e5-e6cf768477af.jpg"",""img/0894/767a0eec-1064-46b1-b1aa-dfa02b0cd74e.jpg""]","",""
"","8142","similarity","9","255007","0.0-6.0-3.0","5","[""img/0881/ee44e27f-d662-4608-b265-e7ffa19b216f.jpg"",""img/0766/a1ed3f0f-e338-4a26-8fe4-4370f0c9fa6e.jpg""]","",""
"","5296","similarity","10","261309","0.0-6.0-4.0","2","[""img/0864/0116ca98-293d-4fa6-a93b-5a6144ef64cc.jpg"",""img/0860/fd4662f9-4c03-4d79-8593-06735e55a64b.jpg""]","",""
"","4947","similarity","11","267259","0.0-6.0-5.0","2","[""img/0902/b76efc44-a50f-4dac-b997-ff0222376067.jpg"",""img/0899/0e1d936a-dbe2-4afc-9f19-7b7a1ae6c9ed.jpg""]","",""
"","4757","similarity","12","273019","0.0-6.0-6.0","2","[""img/0868/83b4350a-3b70-4cea-b7f5-b5b56f3050a8.jpg"",""img/0769/ebef2ddc-ba59-4e0e-97f8-927864eb5081.jpg""]","",""
"","4520","similarity","13","278543","0.0-6.0-7.0","2","[""img/0764/83c93cce-18d1-4aa7-9e23-2c268afe0a46.jpg"",""img/0901/a2d7b2f6-396b-4d91-8403-de5361c74af7.jpg""]","",""
"","4307","similarity","14","283854","0.0-6.0-8.0","2","[""img/0881/f037e3b0-09cb-4a83-b2d9-6a71fe474e63.jpg"",""img/0866/945c6710-d15b-4a5b-a8f6-69af0850357f.jpg""]","",""
"","4778","similarity","15","289637","0.0-6.0-9.0","2","[""img/0867/a749dddb-69f0-44a6-acdc-2bf295cf6dcc.jpg"",""img/0899/b45c550b-96c3-4255-ad59-48a2b4db1c1e.jpg""]","",""
"","5430","similarity","16","296071","0.0-6.0-10.0","2","[""img/0875/fb732ab5-013a-4366-9f65-27811ed157e9.jpg"",""img/0766/2e1cf445-9aef-40e7-92f4-5facf48b64c5.jpg""]","",""
"","6578","similarity","17","303654","0.0-6.0-11.0","2","[""img/0901/00acf6c1-b66e-4060-bb04-4caf29b5a8b0.jpg"",""img/0875/a4935837-7d3c-4df6-88c1-36a94d4991ca.jpg""]","",""
"","5758","similarity","18","310416","0.0-6.0-12.0","2","[""img/0902/1a120fb9-dbd6-443e-ba91-b4aceab963da.jpg"",""img/0860/61fb959d-d4d9-4de4-9e4e-4fa62b4cfcd5.jpg""]","",""
"","3979","similarity","19","315399","0.0-6.0-13.0","2","[""img/0874/995f0332-0439-4eb4-add3-957335dbf6d9.jpg"",""img/0867/db7e032f-162b-46f5-ae67-2b29679adee4.jpg""]","",""
"","8616","similarity","20","325019","0.0-6.0-14.0","3","[""img/0904/a8c3c7d2-9bcf-4347-9e03-8203adfc1fc5.jpg"",""img/0866/be24ab58-230e-4db8-9f45-ff04c9aec6bb.jpg""]","",""
"","4193","similarity","21","330215","0.0-6.0-15.0","2","[""img/0758/6cd8c362-ae2a-41eb-80a3-3a4f7ace1530.jpg"",""img/0902/7499db23-3a41-41ea-ab5b-6ab4d4c3ed35.jpg""]","",""
"","4373","similarity","22","335593","0.0-6.0-16.0","2","[""img/0867/de92135f-5b65-4ed9-b245-188292c7c2f8.jpg"",""img/0898/5f699581-3853-4547-856c-12f419ba5af7.jpg""]","",""
"","4239","similarity","23","340835","0.0-6.0-17.0","2","[""img/0904/6291eb43-c10c-4810-a36a-101d09868b04.jpg"",""img/0868/c8ac40c7-6904-4e13-8d61-c75d3052dc4e.jpg""]","",""
"","4295","similarity","24","346134","0.0-6.0-18.0","2","[""img/0766/6d32752d-aa05-40dc-9541-640b6e9d6fa1.jpg"",""img/0864/c3b63e8f-ea39-4d70-a1f2-b3fe4be8eb75.jpg""]","",""
"","4476","similarity","25","351614","0.0-6.0-19.0","2","[""img/0899/5b56dd3e-3f49-47cc-af84-16da6457753b.jpg"",""img/0766/60033a74-9919-47e5-913c-71d0d483e7e5.jpg""]","",""
"","5250","similarity","26","357868","0.0-6.0-20.0","2","[""img/0764/bc3865c9-9004-4582-88a7-048478673f97.jpg"",""img/0758/2fa3e613-e676-4e6e-bd12-705327eeb3e1.jpg""]","",""
"","5285","similarity","27","364157","0.0-6.0-21.0","2","[""img/0901/1ede21d9-384f-4150-86b5-e1c57b5dc1d4.jpg"",""img/0874/ca76a855-4e77-4f2f-872a-0a718153e7ed.jpg""]","",""
"","3643","similarity","28","368803","0.0-6.0-22.0","2","[""img/0875/e7e66b13-b573-431e-b85e-288ce04a35a3.jpg"",""img/0758/7ffbc76b-1fc1-432c-8f7e-9ec8d1b3f643.jpg""]","",""
"","4666","similarity","29","374473","0.0-6.0-23.0","2","[""img/0867/a498eef3-9fa4-4ab2-9778-4ae82ac40dc5.jpg"",""img/0881/292e9b4b-fca0-4ba8-87f1-4048f9e37b7d.jpg""]","",""
"","9065","similarity","30","384543","0.0-6.0-24.0","2","[""img/0758/eabcd7a8-56ad-4fd2-bc24-90f6b7b33265.jpg"",""img/0901/8bb79e82-9c43-4b6f-a655-40655519598b.jpg""]","",""
"","5015","similarity","31","390561","0.0-6.0-25.0","2","[""img/0868/09a9ef4d-d000-4cfa-a6aa-ebec7c2edeb4.jpg"",""img/0875/dbdd643e-6d0e-4a5c-ab57-b9c29b9c981a.jpg""]","",""
"","8682","similarity","32","400248","0.0-6.0-26.0","2","[""img/0903/12bd8657-92e6-4c36-a06c-597e7a1d51f3.jpg"",""img/0901/f469cb1d-6d81-4a45-bab5-cd0b650c2b4f.jpg""]","",""
"","6455","similarity","33","407706","0.0-6.0-27.0","3","[""img/0894/38cf335f-f76f-4349-8d65-e20cd6859565.jpg"",""img/0899/93494f3b-d539-4075-b027-d82e344563da.jpg""]","",""
"","4194","similarity","34","412904","0.0-6.0-28.0","2","[""img/0862/e697469a-ec19-4414-b972-7b9f3564785b.jpg"",""img/0867/85a96c62-548f-4994-9553-819e03c3135a.jpg""]","",""
"","4238","similarity","35","418147","0.0-6.0-29.0","2","[""img/0864/49150900-7f25-4ce8-8d10-9b47a71d1997.jpg"",""img/0875/2c361b79-c3d1-4eda-812e-bf03192407bf.jpg""]","",""
"","4711","similarity","36","423862","0.0-6.0-30.0","2","[""img/0862/99a99e39-8355-44ec-b993-e7bcec111e1c.jpg"",""img/0874/3f471690-9788-4d03-90c7-f615aecef149.jpg""]","",""
"","4800","similarity","37","429667","0.0-6.0-31.0","2","[""img/0903/81368973-de81-46f4-844f-b901f3bfd66d.jpg"",""img/0758/a085b443-b5d7-4cb2-9ad4-b9dab0fc23f1.jpg""]","",""
"","4904","similarity","38","435574","0.0-6.0-32.0","2","[""img/0866/f756f7d1-9ad8-4a34-9ef6-7a443d705bfe.jpg"",""img/0901/50e1d53e-a49f-4806-8610-be6dec5a2475.jpg""]","",""
"","8895","similarity","39","445473","0.0-6.0-33.0","5","[""img/0874/2c9464dd-8a23-4baa-ac94-1ba3af5c15cc.jpg"",""img/0899/7b7380d5-d2be-44e5-a09a-c1756f87ef71.jpg""]","",""
"","5926","similarity","40","452403","0.0-6.0-34.0","5","[""img/0903/680ed18e-b311-4ecf-9b00-7dea32128334.jpg"",""img/0902/8af4182a-9af9-4212-a436-9195555112d6.jpg""]","",""
"","5601","similarity","41","459008","0.0-6.0-35.0","2","[""img/0758/b76ceca7-95ac-46e4-ac13-da02c8e93be9.jpg"",""img/0866/c446214b-a368-4c65-ae39-ea46894256ab.jpg""]","",""
"","7895","similarity","42","467906","0.0-6.0-36.0","2","[""img/0875/2e13d160-eea1-416b-aff1-d37ab99ecc1d.jpg"",""img/0903/470acfd5-5571-4a7b-b3a4-28d87e098138.jpg""]","",""
"","7872","similarity","43","507855","0.0-6.0-37.0","3","[""img/0864/e336a4c5-6648-4fd7-b2f6-93a3fb83f8c6.jpg"",""img/0902/e5a46bda-30d1-41ca-b36d-b8529b5a63d1.jpg""]","",""
"","5061","similarity","44","513920","0.0-6.0-38.0","2","[""img/0901/1e23ffbd-19de-4c4f-aa23-c54aaa3319a3.jpg"",""img/0867/c66898ba-b71b-4d50-84f9-f7f84853a98d.jpg""]","",""
"","8524","similarity","45","523448","0.0-6.0-39.0","3","[""img/0862/53a9cf7c-93c4-41b9-952f-07d17f7a17b2.jpg"",""img/0860/15b24a61-25be-4356-9eac-5ce95d0cb4a4.jpg""]","",""
"","16435","similarity","46","540887","0.0-6.0-40.0","5","[""img/0867/aa05d113-fc19-4756-a8eb-7878f580bc92.jpg"",""img/0868/7b212364-ff5f-4e28-9241-7eb6ea00161b.jpg""]","",""
"","12293","similarity","47","554184","0.0-6.0-41.0","2","[""img/0904/4e58005d-a2ec-4aaa-b199-445343561396.jpg"",""img/0899/7f9d45d0-b2c6-40d3-aa41-c207db2c411b.jpg""]","",""
"","4351","similarity","48","559539","0.0-6.0-42.0","2","[""img/0862/847e5208-38ec-4f36-949c-296cdd7424ee.jpg"",""img/0894/2d2db7b3-e8a3-499b-b63a-14f51bf73882.jpg""]","",""
"","6680","similarity","49","567224","0.0-6.0-43.0","3","[""img/0875/03c3c331-738b-4446-af92-3d7386b08c2e.jpg"",""img/0904/9b3568cc-3cf7-42be-9df3-fdafde7a58b8.jpg""]","",""
"","4677","similarity","50","572904","0.0-6.0-44.0","2","[""img/0874/85eb9b8a-c4c6-4e5a-b8e7-363a87a82054.jpg"",""img/0898/68476bbb-34a1-42d9-8bc1-deab783d4489.jpg""]","",""
"","5500","similarity","51","579408","0.0-6.0-45.0","2","[""img/0898/c3cecf20-f7fd-45fa-97d0-dc0a63e8d6c0.jpg"",""img/0868/e0aff734-077f-40dd-9781-74821abd3621.jpg""]","",""
"","7174","similarity","52","587586","0.0-6.0-46.0","3","[""img/0901/a373612d-67e2-4fec-9764-21d3d6ef6359.jpg"",""img/0860/c47fdead-eb02-4989-b078-26f4852f44fe.jpg""]","",""
"","6230","similarity","53","594820","0.0-6.0-47.0","2","[""img/0894/b422d5c6-3c5a-49ae-a53e-7e88ac993f49.jpg"",""img/0902/7f1dcd35-237a-4995-9e42-7f63f3f434d4.jpg""]","",""
"","6772","similarity","54","602595","0.0-6.0-48.0","2","[""img/0764/978aede9-4590-4ad0-b234-135c83e5d669.jpg"",""img/0862/1c20f772-3a51-4a80-aac0-f57dc9f86c28.jpg""]","",""
"","5610","similarity","55","609209","0.0-6.0-49.0","3","[""img/0881/44e09805-5a25-4f17-a716-4ad4a331b174.jpg"",""img/0758/9fb5b2fe-3f00-4fe6-973c-1ce10d5f4cd5.jpg""]","",""
"","7299","similarity","56","617511","0.0-6.0-50.0","5","[""img/0766/f5f78e4e-d88f-4866-951a-118ba9fec4d0.jpg"",""img/0769/3c1203c5-2ce7-466e-957a-8d77b5905460.jpg""]","",""
"","6073","similarity","57","624588","0.0-6.0-51.0","5","[""img/0875/3ecb367d-e9eb-4826-8aaa-7aa72fb98019.jpg"",""img/0866/620cd1aa-0800-4414-8f6e-90342e7a99ad.jpg""]","",""
"","6062","similarity","58","631653","0.0-6.0-52.0","5","[""img/0894/e6385e52-6c35-43bd-b0af-bc803d107b11.jpg"",""img/0904/4d7d70a3-9477-4921-bda0-f9531d0a5c5b.jpg""]","",""
"","6523","similarity","59","639180","0.0-6.0-53.0","3","[""img/0758/e1ba5e53-addc-436a-b428-d34fc1b130dc.jpg"",""img/0769/f2740c58-7c02-433f-920b-746b0b75435b.jpg""]","",""
"","6926","similarity","60","647111","0.0-6.0-54.0","5","[""img/0902/94ee9c53-a9a2-4f95-b9b7-794a5fc62bb6.jpg"",""img/0874/eba003b4-cdab-4eee-8bc3-f064c7d94165.jpg""]","",""
"","5590","similarity","61","653703","0.0-6.0-55.0","3","[""img/0903/f1fa0f8d-e62b-4b4a-a174-31a0fabfe61b.jpg"",""img/0862/f23038d4-c366-4f70-979f-66b62362efa4.jpg""]","",""
"","6118","similarity","62","660826","0.0-6.0-56.0","3","[""img/0866/d493a2c8-66eb-44b4-be02-2f327b700b7c.jpg"",""img/0894/b2d2f66e-e480-46da-a02a-6d0c6b285d78.jpg""]","",""
"","5217","similarity","63","667046","0.0-6.0-57.0","2","[""img/0867/7d1c497b-c1b3-4ed8-abb5-d7f73306015f.jpg"",""img/0904/d23dd7be-7fe8-4435-82f7-bd592c01e6a1.jpg""]","",""
"","5432","similarity","64","673481","0.0-6.0-58.0","2","[""img/0875/90da8d75-108a-44ad-b999-e21fee3860d3.jpg"",""img/0881/b549bc99-a61c-4450-bab5-9efc3a197bf0.jpg""]","",""
"","4666","similarity","65","679151","0.0-6.0-59.0","2","[""img/0866/d266fece-59b3-46fa-b69f-96f6efb81b59.jpg"",""img/0860/94ef7afc-e0e6-4a15-98c6-0bfac82bc832.jpg""]","",""
"","4431","similarity","66","684586","0.0-6.0-60.0","2","[""img/0903/14f179a2-8786-48a2-8377-88d1d404341b.jpg"",""img/0866/6f2a90d7-14f1-4f1b-bd64-fc0af6b9fe44.jpg""]","",""
"","4171","similarity","67","689760","0.0-6.0-61.0","2","[""img/0860/f44ba3fb-03a2-42f0-8509-2c1ded493086.jpg"",""img/0875/99698b4d-b4a1-44bc-8c83-8ea755bbbf61.jpg""]","",""
"","5825","similarity","68","696589","0.0-6.0-62.0","2","[""img/0898/01bfe666-3510-4fc7-964f-d00d28732dc8.jpg"",""img/0862/5d887e9f-89e2-4ebc-80a0-6d46fe6480db.jpg""]","",""
"","12968","similarity","69","710562","0.0-6.0-63.0","3","[""img/0902/6c2c243a-f663-45db-baf5-038d3d58c589.jpg"",""img/0766/0025de5e-f620-4079-8a0f-00326ff3a6b0.jpg""]","",""
"","5386","similarity","70","716952","0.0-6.0-64.0","6","[""img/0758/e38fd80d-18d0-42f3-b848-f930788e8bd7.jpg"",""img/0864/66091c27-e588-4476-8af9-265dc6be4156.jpg""]","",""
"","6994","similarity","71","724951","0.0-6.0-65.0","5","[""img/0894/7f2f31fd-6618-41c6-b65a-0fd8b2851bc9.jpg"",""img/0860/c7047cd2-7cc1-41b6-8a34-c0986774975f.jpg""]","",""
"","4835","similarity","72","730790","0.0-6.0-66.0","2","[""img/0899/a05bea16-2bb4-4cb9-b8fb-4ff975db6971.jpg"",""img/0868/6a28c3b0-3d76-498a-9fb7-ddafc665eca8.jpg""]","",""
"","4543","similarity","73","736336","0.0-6.0-67.0","2","[""img/0866/386235d2-6857-41e7-88a8-25cfc3430025.jpg"",""img/0862/24cdc752-c2e5-4a17-86a6-6f2045d8553b.jpg""]","",""
"","5319","similarity","74","742658","0.0-6.0-68.0","2","[""img/0860/5383b320-1518-4095-a58e-5cc1ae30b64c.jpg"",""img/0758/7fba58df-2a7a-4b76-8a8f-62739f97f271.jpg""]","",""
"","4207","similarity","75","747869","0.0-6.0-69.0","2","[""img/0902/af45fe42-178c-4c1a-99ef-256e87e3b092.jpg"",""img/0867/179ab87a-8eac-4c52-a41f-2e48e3120f09.jpg""]","",""
"","4271","similarity","76","753144","0.0-6.0-70.0","2","[""img/0862/fb26cb07-d5a9-4653-813c-f41609f26cd5.jpg"",""img/0901/effc03f6-8f9d-46db-a66c-16fc83891c5c.jpg""]","",""
"","10462","similarity","77","764609","0.0-6.0-71.0","5","[""img/0867/98d8cd96-1476-4fe0-a3a3-04f875500a1b.jpg"",""img/0866/07c9c966-3c8d-40e7-8128-92b2acbaed5d.jpg""]","",""
"","5667","similarity","78","771279","0.0-6.0-72.0","2","[""img/0860/b03b963d-949b-4d8d-b19c-4950c89eeca2.jpg"",""img/0904/2fd488e9-960f-41f7-8a44-33375f7d5051.jpg""]","",""
"","4802","similarity","79","777084","0.0-6.0-73.0","2","[""img/0875/34132396-d896-4c2d-8087-646dd867e769.jpg"",""img/0899/0433d056-aa30-4f8a-9aa1-abbb951e4edd.jpg""]","",""
"","5150","similarity","80","783238","0.0-6.0-74.0","2","[""img/0899/d60714ae-98d7-4564-8c98-94dba1351135.jpg"",""img/0758/67c0be2f-9e91-48b3-8219-70ac0a1802fa.jpg""]","",""
"","6443","similarity","81","807381","0.0-6.0-75.0","3","[""img/0862/eefa5588-9efd-4591-aa5f-a2e17c7d7bcc.jpg"",""img/0875/cff79b3a-a797-4393-9757-6275f999ec04.jpg""]","",""
"","4823","similarity","82","813209","0.0-6.0-76.0","2","[""img/0901/1b86f2fc-7a1d-4aa8-9252-114f92edef3b.jpg"",""img/0894/a3d4170b-b7d8-40e3-955f-87e76ed745fc.jpg""]","",""
"","7410","similarity","83","821624","0.0-6.0-77.0","5","[""img/0766/0bf3793e-c353-45e5-ac6f-753f5f484e10.jpg"",""img/0758/f61ecdf8-a7d4-4db0-b84d-be46f7cfaffc.jpg""]","",""
"","4835","similarity","84","827463","0.0-6.0-78.0","2","[""img/0894/11674fa4-285d-44e2-939f-2228c6a64080.jpg"",""img/0764/974d52cc-6318-4e7a-b294-2f3e92ff800f.jpg""]","",""
"","4486","similarity","85","832953","0.0-6.0-79.0","2","[""img/0860/e14d67c1-6d92-4f1e-9257-c8607159c19c.jpg"",""img/0867/6e19c858-b606-45b2-a4c6-910a73f1d82c.jpg""]","",""
"","4238","similarity","86","838195","0.0-6.0-80.0","2","[""img/0898/79233891-305a-4a6a-8ddf-5c8604858203.jpg"",""img/0901/77087ed2-6e12-4329-b2a5-605bca6d972d.jpg""]","",""
"","5837","similarity","87","845035","0.0-6.0-81.0","2","[""img/0874/7e4f2150-3b59-4a36-b5da-a4e0ba410531.jpg"",""img/0764/62fafeea-6274-48ce-976f-35d3d3484c65.jpg""]","",""
"","5600","similarity","88","851639","0.0-6.0-82.0","5","[""img/0899/8de08897-b430-42fe-9d42-840670b80f94.jpg"",""img/0862/ba89835a-408c-480b-8594-ed4ffa97eb5c.jpg""]","",""
"","4498","similarity","89","857141","0.0-6.0-83.0","2","[""img/0766/75c3d627-4f3b-40d5-9d9c-10c8a62db644.jpg"",""img/0901/f1116359-1ff1-4638-b3b3-700918d36d18.jpg""]","",""
"","4240","similarity","90","862384","0.0-6.0-84.0","2","[""img/0881/48ed65a5-471f-41af-86ec-3793805c116d.jpg"",""img/0898/cd3aaa3f-efa9-4ab3-8d6f-a6a9273ddf42.jpg""]","",""
"","6252","similarity","91","869640","0.0-6.0-85.0","2","[""img/0868/3a62db2d-97e9-44a3-b8e3-a48c6f0e423b.jpg"",""img/0860/8fdba999-b946-4c7d-9891-336018b563ef.jpg""]","",""
"","3710","similarity","92","874353","0.0-6.0-86.0","2","[""img/0758/d57c2592-a317-4f63-91be-91a3a9afd222.jpg"",""img/0868/fd307a36-9a3a-47d7-ab7c-f810d0b35040.jpg""]","",""
"","7457","similarity","93","882815","0.0-6.0-87.0","3","[""img/0864/3651d070-2fc5-4848-b6a6-088a2d9ac5c9.jpg"",""img/0894/8cadb87a-7001-4e47-99fb-1867bebf1668.jpg""]","",""
"","4395","similarity","94","888214","0.0-6.0-88.0","2","[""img/0866/9b38d691-1802-4959-ab3f-fc902f0e4ea6.jpg"",""img/0902/794606a0-d8a8-4e58-8bf8-9d114ed5a548.jpg""]","",""
"","4903","similarity","95","894120","0.0-6.0-89.0","2","[""img/0769/688d0c52-ad73-4065-a5eb-f8c10d076bff.jpg"",""img/0867/12264664-1860-46df-8c21-162b9817cdda.jpg""]","",""
"","3587","similarity","96","898711","0.0-6.0-90.0","2","[""img/0874/8cdb1c07-1c32-46d2-981c-3636560fa6e5.jpg"",""img/0875/42910c99-5463-450a-a0f8-d4d060a11455.jpg""]","",""
"","5836","similarity","97","905550","0.0-6.0-91.0","3","[""img/0864/a248adb3-c70b-4652-b7a3-776d2a1e904b.jpg"",""img/0874/93d1f8dc-acf2-4f03-bd8d-8ec35df276ed.jpg""]","",""
"","5712","similarity","98","912267","0.0-6.0-92.0","2","[""img/0881/f8bd891e-aa09-4782-89db-33e7cb2b0cf1.jpg"",""img/0862/7918ca67-5bd3-4606-a5ea-c39fb11a9297.jpg""]","",""
"","6377","similarity","99","919647","0.0-6.0-93.0","6","[""img/0864/da39ad34-04e0-40d4-a724-c08d53e0ea09.jpg"",""img/0881/dea58fad-b4f1-41d9-bd3f-916eff19a3fd.jpg""]","",""
"","4779","similarity","100","925429","0.0-6.0-94.0","2","[""img/0899/56a605c3-d0a2-4215-89e1-779279d85a7c.jpg"",""img/0901/148b747a-7392-437e-8823-33053c5dff3f.jpg""]","",""
"","5150","similarity","101","931583","0.0-6.0-95.0","2","[""img/0874/adf9a8f1-c40b-402b-b95b-1e85a54a7b62.jpg"",""img/0766/d5d38751-8fa5-476f-93e9-86ed2d9045ef.jpg""]","",""
"","10718","similarity","102","943306","0.0-6.0-96.0","2","[""img/0881/4bd34581-94d8-4e88-8c89-5cef864ca3be.jpg"",""img/0899/76ad07e2-ca25-45eb-84f2-8d80b8ca3e26.jpg""]","",""
"","5960","similarity","103","950270","0.0-6.0-97.0","5","[""img/0862/ee3b7bff-4a70-4e84-9bea-4a565e456acb.jpg"",""img/0902/12452bb1-b8c0-4e4d-ad4d-47e279e5933c.jpg""]","",""
"","5465","similarity","104","956739","0.0-6.0-98.0","5","[""img/0899/f95cbdb4-f804-4f5d-ad76-373ad343e658.jpg"",""img/0764/8389e74f-e0e0-435d-945f-da1f4c92ccb6.jpg""]","",""
"","6499","similarity","105","964243","0.0-6.0-99.0","3","[""img/0758/ddc336e9-a8b6-4bb9-937a-c7e25e0e9250.jpg"",""img/0862/4f0a3b4c-afbf-486e-b248-1d54982f54b4.jpg""]","",""
"","6781","similarity","106","972027","0.0-6.0-100.0","2","[""img/0764/ca9829fe-aaf8-45b8-b98a-6bae751c63dd.jpg"",""img/0898/26c41340-15bd-4ead-8fe4-c0d0ddca09c2.jpg""]","",""
"","6084","similarity","107","979115","0.0-6.0-101.0","3","[""img/0901/31c032fd-3c3d-4882-a226-da9a80198937.jpg"",""img/0902/40d0b6ec-3907-4573-b227-e7d8e9cad1c3.jpg""]","",""
"","4272","similarity","108","984392","0.0-6.0-102.0","2","[""img/0764/56441045-b648-4ede-9632-3e9c0227080b.jpg"",""img/0868/1a62b2b2-18f5-466e-b564-5176a57c565e.jpg""]","",""
"","5250","similarity","109","990647","0.0-6.0-103.0","2","[""img/0769/bb8c4e53-6f32-4814-97ee-392d4decfb2e.jpg"",""img/0881/4da99fdd-1f40-4bbb-8e21-8833eef313f5.jpg""]","",""
"","5094","similarity","110","996744","0.0-6.0-104.0","2","[""img/0864/f92649a2-0590-4d31-9a7a-1bfb81666a2d.jpg"",""img/0769/3adfa417-3b90-4aab-b437-5eaa474189cb.jpg""]","",""
"","6287","similarity","111","1004034","0.0-6.0-105.0","5","[""img/0866/0207e9a2-7dbb-40b5-9459-b472aaeceb2a.jpg"",""img/0868/4e626425-63c8-484a-8a1d-e66ee4e0bef8.jpg""]","",""
"","3991","similarity","112","1009030","0.0-6.0-106.0","2","[""img/0868/77091fc7-a590-4ebb-b915-fdb2483a2399.jpg"",""img/0862/064818ee-13d5-4618-bb24-21c7368ea278.jpg""]","",""
"","5521","similarity","113","1015555","0.0-6.0-107.0","2","[""img/0766/1bc0dccc-a5b5-4375-87fa-28360ca42b12.jpg"",""img/0898/08c72dac-f8ad-407a-9ce6-8c9a5d679c3a.jpg""]","",""
"","4948","similarity","114","1021506","0.0-6.0-108.0","2","[""img/0898/661621d4-a14e-487c-8c74-354134a29710.jpg"",""img/0864/6f631579-acf1-415c-a42c-1207f62a8d99.jpg""]","",""
"","3676","similarity","115","1026186","0.0-6.0-109.0","2","[""img/0868/8b0b8473-e2c0-4331-aa56-c3a5c29369da.jpg"",""img/0902/2db723b6-130f-454c-8c8d-88829edbcd65.jpg""]","",""
"","4476","similarity","116","1031665","0.0-6.0-110.0","2","[""img/0904/0d25eb24-bb20-4e8d-9787-8b489558b4cb.jpg"",""img/0764/d0bef2e0-e16b-4c82-9451-c1d16265eb67.jpg""]","",""
"","5791","similarity","117","1038460","0.0-6.0-111.0","5","[""img/0894/3adef67d-7676-4995-80b2-bb31b8aca3ef.jpg"",""img/0875/f87b67d7-c33e-40d1-b281-248c4be1cb6e.jpg""]","",""
"","5196","similarity","118","1044659","0.0-6.0-112.0","2","[""img/0868/d6d1f30d-4323-435a-b194-7892521bc57e.jpg"",""img/0874/31e22c7c-99aa-40b1-bf03-dd73fa2df4d6.jpg""]","",""
"","7874","similarity","119","1070241","0.0-6.0-113.0","3","[""img/0904/ba8e689e-9ca6-4608-a2a1-3b0940666ae6.jpg"",""img/0898/6cd3830b-d44e-4915-be2b-88d31424b91c.jpg""]","",""
"","4487","similarity","120","1075732","0.0-6.0-114.0","2","[""img/0860/17b44a7d-c5ca-479f-9e87-f65a64f5c80e.jpg"",""img/0766/d8221e53-2300-4d99-ae1b-0bfb0eabe579.jpg""]","",""
"","4914","similarity","121","1081650","0.0-6.0-115.0","2","[""img/0894/1b3888e6-cf36-4c4a-a039-187aa5cb71ac.jpg"",""img/0874/3ce41e7c-40c8-4d58-a546-171114521796.jpg""]","",""
"","7580","similarity","122","1090234","0.0-6.0-116.0","5","[""img/0899/66bf4113-ee12-426c-84d2-ea410b6c803e.jpg"",""img/0903/8fcafe03-43df-4c45-9da5-0df3a1eeccc5.jpg""]","",""
"","5904","similarity","123","1097142","0.0-6.0-117.0","5","[""img/0881/84397291-bc14-4fbf-90e8-241e486ab0fe.jpg"",""img/0764/b328441c-f81c-486c-9eae-b947c70ba7cd.jpg""]","",""
"","5902","similarity","124","1104049","0.0-6.0-118.0","5","[""img/0903/45e2d600-57ff-4d69-b22c-0c7896cd38f0.jpg"",""img/0769/a1ce8d07-ba37-40de-bade-2778805521e0.jpg""]","",""
"","6140","similarity","125","1111192","0.0-6.0-119.0","3","[""img/0901/d6d15b1c-4a30-4f74-a3fd-d4c8ee4169ca.jpg"",""img/0904/4b8daf2a-13a9-4ea9-9e0b-b265b6e933e7.jpg""]","",""
"","7300","similarity","126","1119495","0.0-6.0-120.0","3","[""img/0860/4f695df5-afac-4da7-9875-fee39b0b24ad.jpg"",""img/0881/405484ae-0d00-4b05-bc57-6420a36adfac.jpg""]","",""
"","8592","similarity","127","1129092","0.0-6.0-121.0","3","[""img/0758/335851a0-a55b-46d8-ab05-8463eda48349.jpg"",""img/0874/a82926a3-0b43-4add-803c-d5f9ea7798ee.jpg""]","",""
"","9178","similarity","128","1139273","0.0-6.0-122.0","2","[""img/0901/04a53755-6da5-44d4-a7a6-48a6bc0a2280.jpg"",""img/0769/b664b502-a86c-46c1-ad6f-5ebffc2e1bd3.jpg""]","",""
"","5893","similarity","129","1146169","0.0-6.0-123.0","5","[""img/0902/962f645e-9b55-4628-9b50-c703422bfe1a.jpg"",""img/0904/56e73f28-7e64-489b-a161-e6b1a063878d.jpg""]","",""
"","5949","similarity","130","1153122","0.0-6.0-124.0","3","[""img/0899/ad8268c5-8199-48d0-ad70-c5b6d6c599ec.jpg"",""img/0864/0f537697-a314-47c3-a8cc-8df23b7e536c.jpg""]","",""
"","3968","similarity","131","1158095","0.0-6.0-125.0","2","[""img/0766/71b81ebd-0937-4d7f-b8bf-c4e46a4728fd.jpg"",""img/0868/15dd6fd7-791e-4b53-b203-195d617521a4.jpg""]","",""
"","4452","similarity","132","1163551","0.0-6.0-126.0","2","[""img/0764/713cc27e-2338-4486-bfe9-5f5725fbd7a0.jpg"",""img/0864/6e846d43-94a6-4b37-a268-65eda979f052.jpg""]","",""
"","5318","similarity","133","1169874","0.0-6.0-127.0","2","[""img/0899/d8f2dd94-570e-4e8c-a087-d96090fb9e8c.jpg"",""img/0866/8efcaa46-83ab-4dee-a35f-850402aa21ae.jpg""]","",""
"","6298","similarity","134","1177175","0.0-6.0-128.0","2","[""img/0901/168eb52c-c415-43f1-b5c8-e76e1a1ec247.jpg"",""img/0881/b1a136f7-8511-4d3a-a0f6-3879acf1e1a1.jpg""]","",""
"","6769","similarity","135","1184950","0.0-6.0-129.0","5","[""img/0898/40f99fb2-64d2-4e72-8a7f-a1cf60741e69.jpg"",""img/0903/6a87dbad-9b8d-4ff5-9c41-03c9aa24f0c3.jpg""]","",""
"","8704","similarity","136","1194658","0.0-6.0-130.0","5","[""img/0894/bd34223a-2f66-4e16-9d18-193a746b69ff.jpg"",""img/0867/8ba0c5a7-c7e4-42cf-a80a-543763b90779.jpg""]","",""
"","8435","similarity","137","1204097","0.0-6.0-131.0","3","[""img/0874/99f6563c-8a8d-4c1c-a41d-667b618c3fd5.jpg"",""img/0903/005ad0de-4f52-433c-b515-dbe8d46184a3.jpg""]","",""
"","6703","similarity","138","1211803","0.0-6.0-132.0","3","[""img/0899/1b3457ea-87d4-4946-a01c-aac1863ed46c.jpg"",""img/0898/881e2a85-d5c2-49be-a0c6-8a6ce2c4af08.jpg""]","",""
"","8964","similarity","139","1221771","0.0-6.0-133.0","5","[""img/0867/f8159067-056c-41f1-a136-c529fe5e970a.jpg"",""img/0764/c643e165-df19-459f-8c2b-8357bf432a17.jpg""]","",""
"","5566","similarity","140","1228341","0.0-6.0-134.0","2","[""img/0866/a04d37f0-99dd-478a-b6c6-58b215138f84.jpg"",""img/0769/1ca58b80-2365-446d-9616-6c1719e6c46f.jpg""]","",""
"","6524","similarity","141","1235869","0.0-6.0-135.0","5","[""img/0860/524b2e98-5767-4d53-942c-ebae6925659b.jpg"",""img/0898/4184e5a2-84ea-4f36-9b42-ae58646f6f87.jpg""]","",""
"","10279","similarity","142","1247151","0.0-6.0-136.0","3","[""img/0881/e6746727-7f89-47ec-b939-d98abe78372d.jpg"",""img/0903/b7e3723f-fd03-4f3d-8820-f19496463a34.jpg""]","",""
"","5735","similarity","143","1253890","0.0-6.0-137.0","6","[""img/0894/38f5931f-926d-414e-b498-66b188978b7a.jpg"",""img/0766/5d6e0d1d-4369-41f0-a64c-91f3503055c7.jpg""]","",""
"","6636","similarity","144","1261529","0.0-6.0-138.0","5","[""img/0860/8277806e-b684-4474-8f7b-3fca946d7d4f.jpg"",""img/0764/da207710-e7e4-4f42-b2e6-99b5f357f433.jpg""]","",""
"","6264","similarity","145","1268796","0.0-6.0-139.0","3","[""img/0769/da36e3f7-2337-434f-ab57-11822dd7eed7.jpg"",""img/0902/04a6ad4a-afc6-4871-8225-56b299af7b6b.jpg""]","",""
"","8334","similarity","146","1278134","0.0-6.0-140.0","5","[""img/0904/25365108-e038-4021-aac9-797f2063b337.jpg"",""img/0903/8931c67c-a43d-47d3-a4c9-42aa2f81d344.jpg""]","",""
"","6095","similarity","147","1285233","0.0-6.0-141.0","3","[""img/0764/8740679b-b56f-4292-aece-14063457113a.jpg"",""img/0769/022c7e3b-c3f2-4119-b4bc-f22fa7cae18c.jpg""]","",""
"","5701","similarity","148","1291938","0.0-6.0-142.0","3","[""img/0902/168ebd47-9e82-4ab7-a18b-c3da85072db8.jpg"",""img/0881/1407b85b-a1c6-45b1-9884-3b24203efadb.jpg""]","",""
"","5577","similarity","149","1298520","0.0-6.0-143.0","2","[""img/0866/11a1d141-be5e-443c-98c1-a9d4d9e3dec0.jpg"",""img/0864/afcba0a3-7e27-4757-b254-e9f05fad27e2.jpg""]","",""
"","5162","similarity","150","1304685","0.0-6.0-144.0","5","[""img/0902/5b45a7a0-81c8-4a71-aaa2-2ce09adb5a29.jpg"",""img/0898/ec565187-2e31-4fdd-9a5c-153d0c789ae0.jpg""]","",""
"","5163","similarity","151","1310850","0.0-6.0-145.0","3","[""img/0862/f188d4f0-76a4-4102-818c-a209969d73a5.jpg"",""img/0864/ef9cbca0-4be8-435d-ad49-977259e80409.jpg""]","",""
"","5578","similarity","152","1317431","0.0-6.0-146.0","2","[""img/0875/5a716432-c6ca-4b1c-955a-2b8ac25198ee.jpg"",""img/0898/224c1572-56b9-4f16-a9e4-6f3bc9c114bd.jpg""]","",""
"","8390","similarity","153","1326825","0.0-6.0-147.0","5","[""img/0874/a3bc679d-619f-4db6-bb68-116dcb757d9c.jpg"",""img/0881/d373cb9f-a719-4549-a2a4-82def79fb2a5.jpg""]","",""
"","7783","similarity","154","1335612","0.0-6.0-148.0","5","[""img/0758/65d426d6-3ff6-415d-8654-a43b83ecc4fe.jpg"",""img/0894/1a010553-d598-4b06-a772-81f1e7b3addb.jpg""]","",""
"","5150","similarity","155","1341765","0.0-6.0-149.0","2","[""img/0904/9d30eff1-46ef-4453-b11e-124ef8145c00.jpg"",""img/0864/1ebbc554-99fa-49f9-8799-317375a79820.jpg""]","",""
"","4531","similarity","156","1347300","0.0-6.0-150.0","5","[""img/0769/14d393ce-e5be-4ca1-86ce-cc27d4b6074c.jpg"",""img/0899/51a7a498-98c7-42d7-bca8-bc2d8f0b5831.jpg""]","",""
"","5140","similarity","157","1369541","0.0-6.0-151.0","3","[""img/0764/fb92924f-5cfe-4b89-b130-0cce8cc5636b.jpg"",""img/0903/c3cb4a01-2797-43ca-b216-88c67b323fbb.jpg""]","",""
"","6141","similarity","158","1376686","0.0-6.0-152.0","2","[""img/0903/47e39de8-6959-469f-8be9-6999a6db207c.jpg"",""img/0864/3d4de670-b290-4285-9c3d-12a0e3af44e9.jpg""]","",""
"","4228","similarity","159","1381918","0.0-6.0-153.0","2","[""img/0894/7fb082e0-ce79-485c-9109-04367fb32275.jpg"",""img/0881/7e822106-76f7-4b10-a805-14dc68b2cfaf.jpg""]","",""
"","5925","similarity","160","1388848","0.0-6.0-154.0","5","[""img/0875/d59ff733-eaff-4ee2-9443-06954dd0bcb6.jpg"",""img/0867/cc72ed48-7704-422c-86d6-467a1145287a.jpg""]","",""
"","5565","similarity","161","1395418","0.0-6.0-155.0","2","[""img/0867/26611f4e-d694-4460-b7e2-43c62753ddc3.jpg"",""img/0758/a709631e-3705-4725-ac40-f0d916924f08.jpg""]","",""
"","4914","similarity","162","1401335","0.0-6.0-156.0","2","[""img/0868/5fa7f9d0-f0e5-454c-8224-74d964818f56.jpg"",""img/0901/33b51a81-06d9-46d9-9d4f-5a2d6d6b8058.jpg""]","",""
"","5903","similarity","163","1408243","0.0-6.0-157.0","3","[""img/0769/f6396414-6788-4d59-9683-de153298d89c.jpg"",""img/0894/5f15154e-e72e-4ce5-aafb-bce6f0564006.jpg""]","",""
"","5612","similarity","164","1414858","0.0-6.0-158.0","3","[""img/0904/0d17b811-063e-416e-a23c-3b3cfa4fcce5.jpg"",""img/0758/dd559618-7f09-4a07-8018-d311c4a5ea29.jpg""]","",""
"","5274","similarity","165","1421136","0.0-6.0-159.0","2","[""img/0874/29830da7-be5f-44e5-b141-652a0ccf7269.jpg"",""img/0904/b5855d6a-7ef9-46ca-9215-6e9fa046e543.jpg""]","",""
"","7906","similarity","166","1430046","0.0-6.0-160.0","2","[""img/0864/65210d57-1153-4657-886a-32e758f49b4a.jpg"",""img/0901/fb0a8e69-7f19-4e6e-a6bb-a48f97f9b4f3.jpg""]","",""
"","6172","similarity","167","1437223","0.0-6.0-161.0","3","[""img/0898/b2732712-71c2-45d8-834f-2b2ed5504910.jpg"",""img/0866/23a224f3-2012-4fc8-8e0f-3c36f8de27fd.jpg""]","",""
"","4138","similarity","168","1442365","0.0-6.0-162.0","2","[""img/0766/2746b119-4bba-463e-acf0-88136dc6600c.jpg"",""img/0903/365f176c-25a4-4973-bd3c-279bf1b39476.jpg""]","",""
"","5510","similarity","169","1448878","0.0-6.0-163.0","2","[""img/0860/18dfed73-e36b-4487-a8bd-0b8cff8e3668.jpg"",""img/0899/f58b8d2f-b19d-4b59-8b94-8834be92e4ba.jpg""]","",""
"","4172","similarity","170","1454053","0.0-6.0-164.0","2","[""img/0766/ba35c0fc-4d5b-490d-959e-c94b279cdd02.jpg"",""img/0862/92f0146c-20c4-482e-aef5-adb693790338.jpg""]","",""
"","5409","similarity","171","1460466","0.0-6.0-165.0","2","[""img/0898/0af304a2-6a7a-4082-ab7c-4450cd08cc58.jpg"",""img/0894/792c83e9-a747-4000-bc72-5663d2439edb.jpg""]","",""
"","4137","similarity","172","1465608","0.0-6.0-166.0","2","[""img/0867/ac1797e4-8afc-48fe-b252-86d1defb1cca.jpg"",""img/0766/a754e4b6-5019-4cf4-8f58-34c20547a1f5.jpg""]","",""
"","4610","similarity","173","1471221","0.0-6.0-167.0","3","[""img/0904/2c98dc56-88d1-4fb5-a999-b6a7861f65f0.jpg"",""img/0862/47ed5efd-4ec9-4b74-bb4e-a5f5cf0c3e7d.jpg""]","",""
"","5881","similarity","174","1478107","0.0-6.0-168.0","5","[""img/0866/02f5e6b9-52b7-448c-9708-5b460d0c9a23.jpg"",""img/0874/ca23d307-fc00-4d7d-9106-584c6eb21b4d.jpg""]","",""
"","4160","similarity","175","1483270","0.0-6.0-169.0","2","[""img/0903/6138142e-c84e-45fc-9487-c974f3d4968a.jpg"",""img/0868/d98ca254-b195-477f-b57e-5760a2717db8.jpg""]","",""
"","4824","similarity","176","1489098","0.0-6.0-170.0","2","[""img/0769/76eaa4a3-dfe9-4dc1-9efb-caebe86264e1.jpg"",""img/0904/2f88ce53-02d0-4f95-a082-182c56a0eeb4.jpg""]","",""
"","4060","similarity","177","1494162","0.0-6.0-171.0","2","[""img/0875/8521fd58-3b1e-4dc5-97ae-804edfa6734a.jpg"",""img/0764/5d83b9db-3b2b-4dc8-9bd1-2b515b19c858.jpg""]","",""
"","5284","similarity","178","1500450","0.0-6.0-172.0","2","[""img/0860/31ff6436-98bf-4652-bed2-40f627229568.jpg"",""img/0903/4cbdc464-e562-4ec2-9bb6-15f894fdf528.jpg""]","",""
"","3586","similarity","179","1505040","0.0-6.0-173.0","2","[""img/0864/e02eddb5-f468-499c-91bf-f7be3ffe979b.jpg"",""img/0867/bf560d4f-dee3-4f11-a385-705cc1aa5f3c.jpg""]","",""
"","6950","similarity","180","1512999","0.0-6.0-174.0","2","[""img/0868/4a8a45ed-2c4f-421b-9564-409a33ecd26c.jpg"",""img/0864/1d15626a-2f7c-410f-819c-0fa2c967e95e.jpg""]","",""
"","5268","similarity","181","1519271","0.0-6.0-175.0","5","[""img/0898/993d8f2d-bef7-4251-a193-0f93a32b7763.jpg"",""img/0769/878531fd-e0e8-4ad1-b9ad-f018bb104ca0.jpg""]","",""
"","6017","similarity","182","1526291","0.0-6.0-176.0","5","[""img/0766/989c5c7f-1aff-4442-ac63-9d46acf4a891.jpg"",""img/0764/f64dfa83-333d-494c-87b5-73e942f1766e.jpg""]","",""
"","6050","similarity","183","1533345","0.0-6.0-177.0","3","[""img/0764/e42c1dc9-7831-4995-be19-7ca7b4d141fc.jpg"",""img/0866/93a27239-8317-4e08-98ca-d8b1ff298e07.jpg""]","",""
"","6072","similarity","184","1540421","0.0-6.0-178.0","3","[""img/0902/9f543501-3cf1-45a7-a2f1-eeca87cc15b9.jpg"",""img/0875/ebf7653f-ff45-4e9f-af58-2c042ab3cd2b.jpg""]","",""
"","6084","similarity","185","1547509","0.0-6.0-179.0","3","[""img/0881/ed4c971f-0873-4fc8-b6d6-e8bbd82f0bcc.jpg"",""img/0904/09934646-45d2-4147-8fec-64a22a5ac822.jpg""]","",""
"","7444","similarity","186","1555958","0.0-6.0-180.0","5","[""img/0874/bf14b896-e930-4fd9-9c05-2e83317a2773.jpg"",""img/0860/87039971-2210-4aab-93c0-8e9b5f1655b2.jpg""]","",""
"","7603","similarity","187","1564564","0.0-6.0-181.0","3","[""img/0769/48a1144d-fbda-4809-991b-fc8424a32ee4.jpg"",""img/0874/1016b306-087c-4afc-aa08-fa527b28dc76.jpg""]","",""
"","6016","similarity","188","1571584","0.0-6.0-182.0","2","[""img/0904/73920552-103b-4c9c-9ece-e0b8376b4504.jpg"",""img/0766/d3bab2fc-ddcc-40a0-bb72-c0d0ebe19978.jpg""]","",""
"","5510","similarity","189","1578098","0.0-6.0-183.0","5","[""img/0902/aa6fca32-82b0-4414-b20a-8f6f8aa5a2d2.jpg"",""img/0764/cbdc4f20-3a9a-4211-9b40-090699e0abcc.jpg""]","",""
"","4677","similarity","190","1583780","0.0-6.0-184.0","2","[""img/0769/75f7e514-0548-4329-b1e4-93c05e74f038.jpg"",""img/0875/5a7c4e35-6514-4e12-8879-d16071da4cd6.jpg""]","",""
"","4239","similarity","191","1589022","0.0-6.0-185.0","2","[""img/0867/5e07b34d-b40f-4b1c-ac10-49975bace45f.jpg"",""img/0903/6f343da5-00d9-4d50-89d1-2ed24cdb8319.jpg""]","",""
"","4925","similarity","192","1594951","0.0-6.0-186.0","2","[""img/0862/a0a3a7ba-7798-46a3-b4ca-05e1f6e581d0.jpg"",""img/0769/04347740-f8f6-48bb-887a-f68babd0a0d4.jpg""]","",""
"","4677","similarity","193","1600632","0.0-6.0-187.0","2","[""img/0766/00891401-e4c9-4ce1-bc19-f70740d174bc.jpg"",""img/0866/4a87911a-d5be-4d4e-ab8e-3d1f581bf507.jpg""]","",""
"","7524","similarity","194","1609160","0.0-6.0-188.0","2","[""img/0769/82ab9db6-4578-4e79-874f-f09100439f09.jpg"",""img/0860/c5ccd1a4-4bb7-48e1-9b25-72cfaf06909b.jpg""]","",""
"","6487","similarity","195","1623424","0.0-6.0-189.0","3","[""img/0881/445edb15-bd7f-4af3-8bd5-c6ad9677bb31.jpg"",""img/0868/4bd5105a-d2c3-4f82-8c80-57196106ba53.jpg""]","",""
"[{""page_index"":0,""viewing_time"":12397}]","12398","instructions","196","1636824","0.0-7.0","","","",""
"","44327","image-multi-choice","197","1682164","0.0-8.0-0.0","","","{""Q0"":""Tennessee Warbler""}","Nashville Warbler"
"","6258","image-multi-choice","198","1689431","0.0-8.0-1.0","","","{""Q0"":""Black-and-white Warbler""}","Black-and-white Warbler"
"","64612","image-multi-choice","199","1755053","0.0-8.0-2.0","","","{""Q0"":""Magnolia Warbler""}","Townsend's Warbler"
"","37950","image-multi-choice","200","1794012","0.0-8.0-3.0","","","{""Q0"":""White-crowned Sparrow""}","Lark Sparrow"
"","10589","image-multi-choice","201","1805611","0.0-8.0-4.0","","","{""Q0"":""Yellow Warbler""}","Yellow Warbler"
"","21132","image-multi-choice","202","1827752","0.0-8.0-5.0","","","{""Q0"":""Orange-crowned Warbler""}","Orange-crowned Warbler"
"","16866","image-multi-choice","203","1845631","0.0-8.0-6.0","","","{""Q0"":""White-throated Sparrow""}","White-throated Sparrow"
"","85142","image-multi-choice","204","1931782","0.0-8.0-7.0","","","{""Q0"":""Lincoln's Sparrow""}","Fox Sparrow"
"","28723","image-multi-choice","205","1961516","0.0-8.0-8.0","","","{""Q0"":""Fox Sparrow""}","Song Sparrow"
"","62869","image-multi-choice","206","2025395","0.0-8.0-9.0","","","{""Q0"":""Northern Waterthrush""}","Blackburnian Warbler"
"","26463","image-multi-choice","207","2052868","0.0-8.0-10.0","","","{""Q0"":""Song Sparrow""}","Vesper Sparrow"
"","43777","image-multi-choice","208","2097655","0.0-8.0-11.0","","","{""Q0"":""Ovenbird""}","White-crowned Sparrow"
"","29322","image-multi-choice","209","2127986","0.0-8.0-12.0","","","{""Q0"":""Lark Sparrow""}","American Tree Sparrow"
"","44103","image-multi-choice","210","2173099","0.0-8.0-13.0","","","{""Q0"":""Nashville Warbler""}","Tennessee Warbler"
"","30073","image-multi-choice","211","2204183","0.0-8.0-14.0","","","{""Q0"":""Magnolia Warbler""}","Magnolia Warbler"
"","11612","image-multi-choice","212","2216806","0.0-8.0-15.0","","","{""Q0"":""Northern Waterthrush""}","Northern Waterthrush"
"","24191","image-multi-choice","213","2242007","0.0-8.0-16.0","","","{""Q0"":""Swamp Sparrow""}","Chipping Sparrow"
"","9352","image-multi-choice","214","2252368","0.0-8.0-17.0","","","{""Q0"":""Ovenbird""}","Swamp Sparrow"
"","32245","image-multi-choice","215","2285623","0.0-8.0-18.0","","","{""Q0"":""Chipping Sparrow""}","Lincoln's Sparrow"
"","8284","image-multi-choice","216","2294916","0.0-8.0-19.0","","","{""Q0"":""Ovenbird""}","Ovenbird"
