[{"view_history":"[{\"page_index\":0,\"viewing_time\":36119}]","rt":36121,"trial_type":"instructions","trial_index":0,"time_elapsed":36124,"internal_node_id":"0.0-0.0"},{"sim_score":7,"rt":9245,"stimulus":"[\"img/bluejay1.jpg\",\"img/bluejay2.jpg\"]","trial_type":"similarity_demo","trial_index":1,"time_elapsed":46393,"internal_node_id":"0.0-1.0"},{"view_history":"[{\"page_index\":0,\"viewing_time\":29230}]","rt":29231,"trial_type":"instructions","trial_index":2,"time_elapsed":76627,"internal_node_id":"0.0-2.0"},{"sim_score":5,"rt":8598,"stimulus":"[\"img/bluejay1.jpg\",\"img/cardinal1.jpg\"]","trial_type":"similarity_demo","trial_index":3,"time_elapsed":86232,"internal_node_id":"0.0-3.0"},{"view_history":"[{\"page_index\":0,\"viewing_time\":13721}]","rt":13722,"trial_type":"instructions","trial_index":4,"time_elapsed":100962,"internal_node_id":"0.0-4.0"},{"view_history":"[{\"page_index\":0,\"viewing_time\":27143}]","rt":27144,"trial_type":"instructions","trial_index":5,"time_elapsed":129107,"internal_node_id":"0.0-5.0"},{"sim_score":3,"rt":8117,"stimulus":"[\"img/0868/4bd5105a-d2c3-4f82-8c80-57196106ba53.jpg\",\"img/0894/7fb082e0-ce79-485c-9109-04367fb32275.jpg\"]","trial_type":"similarity","trial_index":6,"time_elapsed":138236,"internal_node_id":"0.0-6.0-0.0"},{"sim_score":5,"rt":9092,"stimulus":"[\"img/0898/a114b375-cb89-44ba-9498-74213f1ecdee.jpg\",\"img/0758/7fba58df-2a7a-4b76-8a8f-62739f97f271.jpg\"]","trial_type":"similarity","trial_index":7,"time_elapsed":148350,"internal_node_id":"0.0-6.0-1.0"},{"sim_score":6,"rt":8262,"stimulus":"[\"img/0903/81368973-de81-46f4-844f-b901f3bfd66d.jpg\",\"img/0894/38f5931f-926d-414e-b498-66b188978b7a.jpg\"]","trial_type":"similarity","trial_index":8,"time_elapsed":157622,"internal_node_id":"0.0-6.0-2.0"},{"sim_score":3,"rt":11598,"stimulus":"[\"img/0881/14236cf2-6b95-48b8-9368-78af09d2d27f.jpg\",\"img/0766/69e486f7-dbef-456b-9d48-53d814248a28.jpg\"]","trial_type":"similarity","trial_index":9,"time_elapsed":170229,"internal_node_id":"0.0-6.0-3.0"},{"sim_score":3,"rt":7911,"stimulus":"[\"img/0864/5f74a653-3bdc-4308-8cca-ac667dc22e1f.jpg\",\"img/0860/4f695df5-afac-4da7-9875-fee39b0b24ad.jpg\"]","trial_type":"similarity","trial_index":10,"time_elapsed":179160,"internal_node_id":"0.0-6.0-4.0"},{"sim_score":3,"rt":7598,"stimulus":"[\"img/0902/10d99c89-71f7-4c81-a31e-dfc7c59f5232.jpg\",\"img/0899/f58b8d2f-b19d-4b59-8b94-8834be92e4ba.jpg\"]","trial_type":"similarity","trial_index":11,"time_elapsed":187768,"internal_node_id":"0.0-6.0-5.0"},{"sim_score":2,"rt":5839,"stimulus":"[\"img/0868/4a8a45ed-2c4f-421b-9564-409a33ecd26c.jpg\",\"img/0769/c7cfacc3-7f07-46ff-9f5d-8073f4c4679b.jpg\"]","trial_type":"similarity","trial_index":12,"time_elapsed":194618,"internal_node_id":"0.0-6.0-6.0"},{"sim_score":2,"rt":9789,"stimulus":"[\"img/0764/958b8576-3a3b-4acc-96dc-06b74de69f37.jpg\",\"img/0901/a2d7b2f6-396b-4d91-8403-de5361c74af7.jpg\"]","trial_type":"similarity","trial_index":13,"time_elapsed":205423,"internal_node_id":"0.0-6.0-7.0"},{"sim_score":3,"rt":6978,"stimulus":"[\"img/0881/4bd34581-94d8-4e88-8c89-5cef864ca3be.jpg\",\"img/0866/945c6710-d15b-4a5b-a8f6-69af0850357f.jpg\"]","trial_type":"similarity","trial_index":14,"time_elapsed":213408,"internal_node_id":"0.0-6.0-8.0"},{"sim_score":2,"rt":7452,"stimulus":"[\"img/0867/f8159067-056c-41f1-a136-c529fe5e970a.jpg\",\"img/0899/8abe6c69-822c-436c-9bf2-96c818b49ba5.jpg\"]","trial_type":"similarity","trial_index":15,"time_elapsed":221880,"internal_node_id":"0.0-6.0-9.0"},{"sim_score":1,"rt":5512,"stimulus":"[\"img/0875/5a1e5100-0d94-4fec-bbe9-ca9894d2cf8e.jpg\",\"img/0766/fd74fdbb-ea40-4f3a-a091-38d08dfd636e.jpg\"]","trial_type":"similarity","trial_index":16,"time_elapsed":228403,"internal_node_id":"0.0-6.0-10.0"},{"sim_score":1,"rt":7573,"stimulus":"[\"img/0901/875dedb9-24c9-4443-9f8c-85e97d70ee5a.jpg\",\"img/0875/03c3c331-738b-4446-af92-3d7386b08c2e.jpg\"]","trial_type":"similarity","trial_index":17,"time_elapsed":236987,"internal_node_id":"0.0-6.0-11.0"},{"sim_score":2,"rt":6922,"stimulus":"[\"img/0902/0c760cc9-10ac-429e-8957-a7d51fc99683.jpg\",\"img/0860/5bff793e-cbd5-4d7e-b628-0ac2b0e30b64.jpg\"]","trial_type":"similarity","trial_index":18,"time_elapsed":244917,"internal_node_id":"0.0-6.0-12.0"},{"sim_score":3,"rt":6737,"stimulus":"[\"img/0874/29830da7-be5f-44e5-b141-652a0ccf7269.jpg\",\"img/0867/5e07b34d-b40f-4b1c-ac10-49975bace45f.jpg\"]","trial_type":"similarity","trial_index":19,"time_elapsed":252674,"internal_node_id":"0.0-6.0-13.0"},{"sim_score":2,"rt":8637,"stimulus":"[\"img/0904/fe746a3f-8458-48d0-8a13-8cba2a9df9f8.jpg\",\"img/0866/0207e9a2-7dbb-40b5-9459-b472aaeceb2a.jpg\"]","trial_type":"similarity","trial_index":20,"time_elapsed":262320,"internal_node_id":"0.0-6.0-14.0"},{"sim_score":2,"rt":7727,"stimulus":"[\"img/0758/eabcd7a8-56ad-4fd2-bc24-90f6b7b33265.jpg\",\"img/0902/b76efc44-a50f-4dac-b997-ff0222376067.jpg\"]","trial_type":"similarity","trial_index":21,"time_elapsed":271063,"internal_node_id":"0.0-6.0-15.0"},{"sim_score":1,"rt":5769,"stimulus":"[\"img/0867/bf560d4f-dee3-4f11-a385-705cc1aa5f3c.jpg\",\"img/0898/6cd3830b-d44e-4915-be2b-88d31424b91c.jpg\"]","trial_type":"similarity","trial_index":22,"time_elapsed":277852,"internal_node_id":"0.0-6.0-16.0"},{"sim_score":1,"rt":5884,"stimulus":"[\"img/0904/09dac84f-3d1c-4445-a68e-d0389fdbf1e9.jpg\",\"img/0868/4e626425-63c8-484a-8a1d-e66ee4e0bef8.jpg\"]","trial_type":"similarity","trial_index":23,"time_elapsed":284744,"internal_node_id":"0.0-6.0-17.0"},{"sim_score":1,"rt":4827,"stimulus":"[\"img/0766/d5d38751-8fa5-476f-93e9-86ed2d9045ef.jpg\",\"img/0864/3651d070-2fc5-4848-b6a6-088a2d9ac5c9.jpg\"]","trial_type":"similarity","trial_index":24,"time_elapsed":290586,"internal_node_id":"0.0-6.0-18.0"},{"sim_score":3,"rt":5432,"stimulus":"[\"img/0899/00715b3f-851b-420b-a26b-d7f79f7759a9.jpg\",\"img/0766/006035d8-c736-4daf-bbe4-a9e373af9da6.jpg\"]","trial_type":"similarity","trial_index":25,"time_elapsed":297023,"internal_node_id":"0.0-6.0-19.0"},{"sim_score":3,"rt":6245,"stimulus":"[\"img/0764/4952d0a0-c9be-471a-8ec7-94a37bf4051d.jpg\",\"img/0758/6cd8c362-ae2a-41eb-80a3-3a4f7ace1530.jpg\"]","trial_type":"similarity","trial_index":26,"time_elapsed":304283,"internal_node_id":"0.0-6.0-20.0"},{"sim_score":3,"rt":6758,"stimulus":"[\"img/0901/b123d109-47b4-4f9a-80c9-9bb16da42efa.jpg\",\"img/0874/c0378dac-9370-439a-8b79-db27c96fb390.jpg\"]","trial_type":"similarity","trial_index":27,"time_elapsed":312054,"internal_node_id":"0.0-6.0-21.0"},{"sim_score":3,"rt":5313,"stimulus":"[\"img/0875/42910c99-5463-450a-a0f8-d4d060a11455.jpg\",\"img/0758/ddc336e9-a8b6-4bb9-937a-c7e25e0e9250.jpg\"]","trial_type":"similarity","trial_index":28,"time_elapsed":318383,"internal_node_id":"0.0-6.0-22.0"},{"sim_score":3,"rt":5240,"stimulus":"[\"img/0867/7d1c497b-c1b3-4ed8-abb5-d7f73306015f.jpg\",\"img/0881/54ea8e77-c7e5-4197-b7fa-00b7020849a7.jpg\"]","trial_type":"similarity","trial_index":29,"time_elapsed":324643,"internal_node_id":"0.0-6.0-23.0"},{"sim_score":1,"rt":5131,"stimulus":"[\"img/0758/821c68d3-5cb0-4eae-8659-30e6263fca39.jpg\",\"img/0901/f1116359-1ff1-4638-b3b3-700918d36d18.jpg\"]","trial_type":"similarity","trial_index":30,"time_elapsed":330794,"internal_node_id":"0.0-6.0-24.0"},{"sim_score":5,"rt":6074,"stimulus":"[\"img/0868/3a62db2d-97e9-44a3-b8e3-a48c6f0e423b.jpg\",\"img/0875/8521fd58-3b1e-4dc5-97ae-804edfa6734a.jpg\"]","trial_type":"similarity","trial_index":31,"time_elapsed":337884,"internal_node_id":"0.0-6.0-25.0"},{"sim_score":5,"rt":6726,"stimulus":"[\"img/0903/39365c8e-a733-4801-ac7d-b87e38c3784b.jpg\",\"img/0901/a0d65c84-3f20-476a-92d1-0c01e8019cf4.jpg\"]","trial_type":"similarity","trial_index":32,"time_elapsed":345628,"internal_node_id":"0.0-6.0-26.0"},{"sim_score":3,"rt":5434,"stimulus":"[\"img/0894/661b9f9f-4bde-487a-b1ed-87085fde6948.jpg\",\"img/0899/8de08897-b430-42fe-9d42-840670b80f94.jpg\"]","trial_type":"similarity","trial_index":33,"time_elapsed":352087,"internal_node_id":"0.0-6.0-27.0"},{"sim_score":2,"rt":6738,"stimulus":"[\"img/0862/4f0a3b4c-afbf-486e-b248-1d54982f54b4.jpg\",\"img/0867/f26f6b60-f772-4f4c-95a4-addc62cfd692.jpg\"]","trial_type":"similarity","trial_index":34,"time_elapsed":359845,"internal_node_id":"0.0-6.0-28.0"},{"sim_score":2,"rt":8508,"stimulus":"[\"img/0864/5f33e097-23e3-4002-882d-76e8cb15f451.jpg\",\"img/0875/99698b4d-b4a1-44bc-8c83-8ea755bbbf61.jpg\"]","trial_type":"similarity","trial_index":35,"time_elapsed":369368,"internal_node_id":"0.0-6.0-29.0"},{"sim_score":5,"rt":5810,"stimulus":"[\"img/0862/eefa5588-9efd-4591-aa5f-a2e17c7d7bcc.jpg\",\"img/0874/adf9a8f1-c40b-402b-b95b-1e85a54a7b62.jpg\"]","trial_type":"similarity","trial_index":36,"time_elapsed":376192,"internal_node_id":"0.0-6.0-30.0"},{"sim_score":3,"rt":8003,"stimulus":"[\"img/0903/12bd8657-92e6-4c36-a06c-597e7a1d51f3.jpg\",\"img/0758/65d426d6-3ff6-415d-8654-a43b83ecc4fe.jpg\"]","trial_type":"similarity","trial_index":37,"time_elapsed":385206,"internal_node_id":"0.0-6.0-31.0"},{"sim_score":3,"rt":5987,"stimulus":"[\"img/0866/386235d2-6857-41e7-88a8-25cfc3430025.jpg\",\"img/0901/71e551a2-9ce2-409c-9c7c-dd556a0791e9.jpg\"]","trial_type":"similarity","trial_index":38,"time_elapsed":392198,"internal_node_id":"0.0-6.0-32.0"},{"sim_score":3,"rt":7208,"stimulus":"[\"img/0874/99f6563c-8a8d-4c1c-a41d-667b618c3fd5.jpg\",\"img/0899/66ab3178-c3fe-4455-ad17-d5952b08e018.jpg\"]","trial_type":"similarity","trial_index":39,"time_elapsed":400419,"internal_node_id":"0.0-6.0-33.0"},{"sim_score":5,"rt":6215,"stimulus":"[\"img/0903/2c7b4aed-6038-4aac-958a-e3e58341c313.jpg\",\"img/0902/6c2c243a-f663-45db-baf5-038d3d58c589.jpg\"]","trial_type":"similarity","trial_index":40,"time_elapsed":407653,"internal_node_id":"0.0-6.0-34.0"},{"sim_score":3,"rt":8105,"stimulus":"[\"img/0758/e1ba5e53-addc-436a-b428-d34fc1b130dc.jpg\",\"img/0866/4a87911a-d5be-4d4e-ab8e-3d1f581bf507.jpg\"]","trial_type":"similarity","trial_index":41,"time_elapsed":416775,"internal_node_id":"0.0-6.0-35.0"},{"sim_score":3,"rt":10535,"stimulus":"[\"img/0875/2e13d160-eea1-416b-aff1-d37ab99ecc1d.jpg\",\"img/0903/f1fa0f8d-e62b-4b4a-a174-31a0fabfe61b.jpg\"]","trial_type":"similarity","trial_index":42,"time_elapsed":428318,"internal_node_id":"0.0-6.0-36.0"},{"sim_score":1,"rt":7411,"stimulus":"[\"img/0864/1d15626a-2f7c-410f-819c-0fa2c967e95e.jpg\",\"img/0902/4e0baa32-988e-46f6-989d-f669225ab645.jpg\"]","trial_type":"similarity","trial_index":43,"time_elapsed":447071,"internal_node_id":"0.0-6.0-37.0"},{"sim_score":3,"rt":9170,"stimulus":"[\"img/0901/a6c90438-fa7c-4418-ac7c-16c2e772dd98.jpg\",\"img/0867/cc72ed48-7704-422c-86d6-467a1145287a.jpg\"]","trial_type":"similarity","trial_index":44,"time_elapsed":457249,"internal_node_id":"0.0-6.0-38.0"},{"sim_score":2,"rt":7612,"stimulus":"[\"img/0862/f188d4f0-76a4-4102-818c-a209969d73a5.jpg\",\"img/0860/524b2e98-5767-4d53-942c-ebae6925659b.jpg\"]","trial_type":"similarity","trial_index":45,"time_elapsed":465880,"internal_node_id":"0.0-6.0-39.0"},{"sim_score":6,"rt":8845,"stimulus":"[\"img/0867/98d8cd96-1476-4fe0-a3a3-04f875500a1b.jpg\",\"img/0868/d6d1f30d-4323-435a-b194-7892521bc57e.jpg\"]","trial_type":"similarity","trial_index":46,"time_elapsed":475734,"internal_node_id":"0.0-6.0-40.0"},{"sim_score":5,"rt":6288,"stimulus":"[\"img/0904/2fd488e9-960f-41f7-8a44-33375f7d5051.jpg\",\"img/0899/57476fed-5962-4272-8fc9-b317bb777b54.jpg\"]","trial_type":"similarity","trial_index":47,"time_elapsed":483032,"internal_node_id":"0.0-6.0-41.0"},{"sim_score":3,"rt":6405,"stimulus":"[\"img/0862/f23038d4-c366-4f70-979f-66b62362efa4.jpg\",\"img/0894/a98416c0-51e2-4960-85da-d81d8688b9d5.jpg\"]","trial_type":"similarity","trial_index":48,"time_elapsed":490459,"internal_node_id":"0.0-6.0-42.0"},{"sim_score":2,"rt":6449,"stimulus":"[\"img/0875/3ecb367d-e9eb-4826-8aaa-7aa72fb98019.jpg\",\"img/0904/65e2b70a-b184-4da3-b5c0-5038bdf9469a.jpg\"]","trial_type":"similarity","trial_index":49,"time_elapsed":497913,"internal_node_id":"0.0-6.0-43.0"},{"sim_score":2,"rt":6920,"stimulus":"[\"img/0874/31e22c7c-99aa-40b1-bf03-dd73fa2df4d6.jpg\",\"img/0898/04e39a7a-fcf6-4156-ab0e-f5871f335e1c.jpg\"]","trial_type":"similarity","trial_index":50,"time_elapsed":505840,"internal_node_id":"0.0-6.0-44.0"},{"sim_score":2,"rt":7131,"stimulus":"[\"img/0898/8605a25b-6895-476d-8c13-df7a83f96093.jpg\",\"img/0868/15dd6fd7-791e-4b53-b203-195d617521a4.jpg\"]","trial_type":"similarity","trial_index":51,"time_elapsed":513980,"internal_node_id":"0.0-6.0-45.0"},{"sim_score":2,"rt":5895,"stimulus":"[\"img/0901/fb0a8e69-7f19-4e6e-a6bb-a48f97f9b4f3.jpg\",\"img/0860/9593362c-9fe5-4d12-9735-6000a11f6aa5.jpg\"]","trial_type":"similarity","trial_index":52,"time_elapsed":520885,"internal_node_id":"0.0-6.0-46.0"},{"sim_score":5,"rt":7003,"stimulus":"[\"img/0894/5c7677b0-a4f1-479e-b274-7822c415175a.jpg\",\"img/0902/7499db23-3a41-41ea-ab5b-6ab4d4c3ed35.jpg\"]","trial_type":"similarity","trial_index":53,"time_elapsed":528896,"internal_node_id":"0.0-6.0-47.0"},{"sim_score":2,"rt":7533,"stimulus":"[\"img/0764/03c07b98-3f18-4b71-bb70-ecff564a78d1.jpg\",\"img/0862/ad593cc7-cabe-4bb7-8e14-8a447a0717b4.jpg\"]","trial_type":"similarity","trial_index":54,"time_elapsed":537454,"internal_node_id":"0.0-6.0-48.0"},{"sim_score":7,"rt":8735,"stimulus":"[\"img/0881/f4e3e181-b3c9-4af2-a5a4-fc135ab70d2e.jpg\",\"img/0758/d41c06bf-ebaf-454b-91c6-1a17f917b659.jpg\"]","trial_type":"similarity","trial_index":55,"time_elapsed":547202,"internal_node_id":"0.0-6.0-49.0"},{"sim_score":6,"rt":6255,"stimulus":"[\"img/0766/b84598d0-5b41-4841-88b0-b441b48289f5.jpg\",\"img/0769/75f7e514-0548-4329-b1e4-93c05e74f038.jpg\"]","trial_type":"similarity","trial_index":56,"time_elapsed":554478,"internal_node_id":"0.0-6.0-50.0"},{"sim_score":3,"rt":6823,"stimulus":"[\"img/0875/cff79b3a-a797-4393-9757-6275f999ec04.jpg\",\"img/0866/93a27239-8317-4e08-98ca-d8b1ff298e07.jpg\"]","trial_type":"similarity","trial_index":57,"time_elapsed":562314,"internal_node_id":"0.0-6.0-51.0"},{"sim_score":5,"rt":6989,"stimulus":"[\"img/0894/2d2db7b3-e8a3-499b-b63a-14f51bf73882.jpg\",\"img/0904/96e503ea-6630-4996-85f2-0237688ce441.jpg\"]","trial_type":"similarity","trial_index":58,"time_elapsed":570315,"internal_node_id":"0.0-6.0-52.0"},{"sim_score":1,"rt":9563,"stimulus":"[\"img/0758/caa93da2-9edf-49fa-96b9-32dedd8f5078.jpg\",\"img/0769/1ca58b80-2365-446d-9616-6c1719e6c46f.jpg\"]","trial_type":"similarity","trial_index":59,"time_elapsed":580895,"internal_node_id":"0.0-6.0-53.0"},{"sim_score":2,"rt":6034,"stimulus":"[\"img/0902/27b84584-948a-485b-8749-cb09929ef631.jpg\",\"img/0874/3ce41e7c-40c8-4d58-a546-171114521796.jpg\"]","trial_type":"similarity","trial_index":60,"time_elapsed":587942,"internal_node_id":"0.0-6.0-54.0"},{"sim_score":2,"rt":6818,"stimulus":"[\"img/0903/f10e9eb5-0c21-4a6a-944c-5f10a6d0fa4d.jpg\",\"img/0862/f43ceabf-acc1-4107-b857-5d1849808f93.jpg\"]","trial_type":"similarity","trial_index":61,"time_elapsed":595771,"internal_node_id":"0.0-6.0-55.0"},{"sim_score":2,"rt":6779,"stimulus":"[\"img/0866/11a1d141-be5e-443c-98c1-a9d4d9e3dec0.jpg\",\"img/0894/bd34223a-2f66-4e16-9d18-193a746b69ff.jpg\"]","trial_type":"similarity","trial_index":62,"time_elapsed":603559,"internal_node_id":"0.0-6.0-56.0"},{"sim_score":2,"rt":6636,"stimulus":"[\"img/0867/c66898ba-b71b-4d50-84f9-f7f84853a98d.jpg\",\"img/0904/73920552-103b-4c9c-9ece-e0b8376b4504.jpg\"]","trial_type":"similarity","trial_index":63,"time_elapsed":611202,"internal_node_id":"0.0-6.0-57.0"},{"sim_score":1,"rt":4979,"stimulus":"[\"img/0875/5a716432-c6ca-4b1c-955a-2b8ac25198ee.jpg\",\"img/0881/db77fe00-aeb0-4d1d-aa66-f3a96fd077e4.jpg\"]","trial_type":"similarity","trial_index":64,"time_elapsed":617193,"internal_node_id":"0.0-6.0-58.0"},{"sim_score":1,"rt":6144,"stimulus":"[\"img/0866/6f2a90d7-14f1-4f1b-bd64-fc0af6b9fe44.jpg\",\"img/0860/17b44a7d-c5ca-479f-9e87-f65a64f5c80e.jpg\"]","trial_type":"similarity","trial_index":65,"time_elapsed":624352,"internal_node_id":"0.0-6.0-59.0"},{"sim_score":2,"rt":6727,"stimulus":"[\"img/0903/b7e3723f-fd03-4f3d-8820-f19496463a34.jpg\",\"img/0866/07c9c966-3c8d-40e7-8128-92b2acbaed5d.jpg\"]","trial_type":"similarity","trial_index":66,"time_elapsed":632091,"internal_node_id":"0.0-6.0-60.0"},{"sim_score":2,"rt":5927,"stimulus":"[\"img/0860/18dfed73-e36b-4487-a8bd-0b8cff8e3668.jpg\",\"img/0875/d59ff733-eaff-4ee2-9443-06954dd0bcb6.jpg\"]","trial_type":"similarity","trial_index":67,"time_elapsed":639034,"internal_node_id":"0.0-6.0-61.0"},{"sim_score":2,"rt":8778,"stimulus":"[\"img/0898/0c7dde4f-efce-4b7a-9387-6921635b7890.jpg\",\"img/0862/ba89835a-408c-480b-8594-ed4ffa97eb5c.jpg\"]","trial_type":"similarity","trial_index":68,"time_elapsed":648828,"internal_node_id":"0.0-6.0-62.0"},{"sim_score":2,"rt":7841,"stimulus":"[\"img/0902/22ed3536-288b-452e-9777-0fa0ab94deb0.jpg\",\"img/0766/33aa9ebb-c9f5-418f-8c8b-c77861889568.jpg\"]","trial_type":"similarity","trial_index":69,"time_elapsed":657689,"internal_node_id":"0.0-6.0-63.0"},{"sim_score":5,"rt":5898,"stimulus":"[\"img/0758/d57c2592-a317-4f63-91be-91a3a9afd222.jpg\",\"img/0864/6e846d43-94a6-4b37-a268-65eda979f052.jpg\"]","trial_type":"similarity","trial_index":70,"time_elapsed":664608,"internal_node_id":"0.0-6.0-64.0"},{"sim_score":1,"rt":5568,"stimulus":"[\"img/0894/1b3888e6-cf36-4c4a-a039-187aa5cb71ac.jpg\",\"img/0860/8fdba999-b946-4c7d-9891-336018b563ef.jpg\"]","trial_type":"similarity","trial_index":71,"time_elapsed":671185,"internal_node_id":"0.0-6.0-65.0"},{"sim_score":1,"rt":4788,"stimulus":"[\"img/0899/565ccdd9-0933-4536-a625-3c0e25a713dd.jpg\",\"img/0868/7b212364-ff5f-4e28-9241-7eb6ea00161b.jpg\"]","trial_type":"similarity","trial_index":72,"time_elapsed":677011,"internal_node_id":"0.0-6.0-66.0"},{"sim_score":2,"rt":7047,"stimulus":"[\"img/0866/f756f7d1-9ad8-4a34-9ef6-7a443d705bfe.jpg\",\"img/0862/57b6f83f-c763-4858-830d-102f97bfefbf.jpg\"]","trial_type":"similarity","trial_index":73,"time_elapsed":685085,"internal_node_id":"0.0-6.0-67.0"},{"sim_score":2,"rt":6835,"stimulus":"[\"img/0860/f44ba3fb-03a2-42f0-8509-2c1ded493086.jpg\",\"img/0758/67c0be2f-9e91-48b3-8219-70ac0a1802fa.jpg\"]","trial_type":"similarity","trial_index":74,"time_elapsed":692933,"internal_node_id":"0.0-6.0-68.0"},{"sim_score":5,"rt":7869,"stimulus":"[\"img/0902/ca3160ba-ad5d-459f-a1b6-8b4f3c85ecd5.jpg\",\"img/0867/de92135f-5b65-4ed9-b245-188292c7c2f8.jpg\"]","trial_type":"similarity","trial_index":75,"time_elapsed":701821,"internal_node_id":"0.0-6.0-69.0"},{"sim_score":5,"rt":6005,"stimulus":"[\"img/0862/fad1d7c1-8187-43c3-942a-0fc12183e48e.jpg\",\"img/0901/693e0535-ef7e-4d60-af9d-fac2f38e8307.jpg\"]","trial_type":"similarity","trial_index":76,"time_elapsed":708848,"internal_node_id":"0.0-6.0-70.0"},{"sim_score":6,"rt":6730,"stimulus":"[\"img/0867/a498eef3-9fa4-4ab2-9778-4ae82ac40dc5.jpg\",\"img/0866/a15b02be-11bb-43e3-b0e0-ecc3bd7dfc49.jpg\"]","trial_type":"similarity","trial_index":77,"time_elapsed":716600,"internal_node_id":"0.0-6.0-71.0"},{"sim_score":3,"rt":6756,"stimulus":"[\"img/0860/99c589b9-9140-4d17-90c0-b344323edcda.jpg\",\"img/0904/24fc38fe-842c-4831-ad8a-b1de5c25c0a8.jpg\"]","trial_type":"similarity","trial_index":78,"time_elapsed":724368,"internal_node_id":"0.0-6.0-72.0"},{"sim_score":1,"rt":6977,"stimulus":"[\"img/0875/2c361b79-c3d1-4eda-812e-bf03192407bf.jpg\",\"img/0899/76ad07e2-ca25-45eb-84f2-8d80b8ca3e26.jpg\"]","trial_type":"similarity","trial_index":79,"time_elapsed":732356,"internal_node_id":"0.0-6.0-73.0"},{"sim_score":2,"rt":6910,"stimulus":"[\"img/0899/d60714ae-98d7-4564-8c98-94dba1351135.jpg\",\"img/0758/61d64021-9214-4951-bdf8-f871f9827cf9.jpg\"]","trial_type":"similarity","trial_index":80,"time_elapsed":740279,"internal_node_id":"0.0-6.0-74.0"},{"sim_score":2,"rt":5731,"stimulus":"[\"img/0862/fb26cb07-d5a9-4653-813c-f41609f26cd5.jpg\",\"img/0875/5a7c4e35-6514-4e12-8879-d16071da4cd6.jpg\"]","trial_type":"similarity","trial_index":81,"time_elapsed":758849,"internal_node_id":"0.0-6.0-75.0"},{"sim_score":3,"rt":7721,"stimulus":"[\"img/0901/a6776381-91fe-43f8-ab73-261d318f95fd.jpg\",\"img/0894/767a0eec-1064-46b1-b1aa-dfa02b0cd74e.jpg\"]","trial_type":"similarity","trial_index":82,"time_elapsed":767580,"internal_node_id":"0.0-6.0-76.0"},{"sim_score":1,"rt":5790,"stimulus":"[\"img/0766/d3bab2fc-ddcc-40a0-bb72-c0d0ebe19978.jpg\",\"img/0758/a709631e-3705-4725-ac40-f0d916924f08.jpg\"]","trial_type":"similarity","trial_index":83,"time_elapsed":774385,"internal_node_id":"0.0-6.0-77.0"},{"sim_score":6,"rt":11167,"stimulus":"[\"img/0894/e5edf723-72a5-4673-8441-6c1734a8929b.jpg\",\"img/0764/29072395-f595-4e3c-83d3-ff87010039fa.jpg\"]","trial_type":"similarity","trial_index":84,"time_elapsed":786568,"internal_node_id":"0.0-6.0-78.0"},{"sim_score":3,"rt":11051,"stimulus":"[\"img/0860/e8b8c51e-1834-4875-8b61-6c5bc9b178bd.jpg\",\"img/0867/f8488a47-94ee-4166-952c-44e16cf172f6.jpg\"]","trial_type":"similarity","trial_index":85,"time_elapsed":798640,"internal_node_id":"0.0-6.0-79.0"},{"sim_score":5,"rt":7441,"stimulus":"[\"img/0898/40f99fb2-64d2-4e72-8a7f-a1cf60741e69.jpg\",\"img/0901/77087ed2-6e12-4329-b2a5-605bca6d972d.jpg\"]","trial_type":"similarity","trial_index":86,"time_elapsed":807088,"internal_node_id":"0.0-6.0-80.0"},{"sim_score":1,"rt":6753,"stimulus":"[\"img/0874/eba003b4-cdab-4eee-8bc3-f064c7d94165.jpg\",\"img/0764/4bec8d92-75aa-475a-954d-8215dbe538f5.jpg\"]","trial_type":"similarity","trial_index":87,"time_elapsed":814858,"internal_node_id":"0.0-6.0-81.0"},{"sim_score":1,"rt":6248,"stimulus":"[\"img/0899/1b3457ea-87d4-4946-a01c-aac1863ed46c.jpg\",\"img/0862/ee3b7bff-4a70-4e84-9bea-4a565e456acb.jpg\"]","trial_type":"similarity","trial_index":88,"time_elapsed":822123,"internal_node_id":"0.0-6.0-82.0"},{"sim_score":5,"rt":6877,"stimulus":"[\"img/0766/e8052e17-9dae-4139-802b-6e590cb2d526.jpg\",\"img/0901/12da1841-e611-435c-9719-109413d536a8.jpg\"]","trial_type":"similarity","trial_index":89,"time_elapsed":830008,"internal_node_id":"0.0-6.0-83.0"},{"sim_score":5,"rt":7339,"stimulus":"[\"img/0881/c843e210-bdfe-4a7c-8bbe-fcea1f90fe1c.jpg\",\"img/0898/01bfe666-3510-4fc7-964f-d00d28732dc8.jpg\"]","trial_type":"similarity","trial_index":90,"time_elapsed":838358,"internal_node_id":"0.0-6.0-84.0"},{"sim_score":5,"rt":7210,"stimulus":"[\"img/0868/c8ac40c7-6904-4e13-8d61-c75d3052dc4e.jpg\",\"img/0860/71e1aad0-2cdf-43bb-94a4-a8c016997c30.jpg\"]","trial_type":"similarity","trial_index":91,"time_elapsed":846580,"internal_node_id":"0.0-6.0-85.0"},{"sim_score":3,"rt":8437,"stimulus":"[\"img/0758/b76ceca7-95ac-46e4-ac13-da02c8e93be9.jpg\",\"img/0868/fd307a36-9a3a-47d7-ab7c-f810d0b35040.jpg\"]","trial_type":"similarity","trial_index":92,"time_elapsed":856025,"internal_node_id":"0.0-6.0-86.0"},{"sim_score":1,"rt":6797,"stimulus":"[\"img/0864/b3c4e378-28f0-4699-9338-2a257b4bca04.jpg\",\"img/0894/86201968-6e78-4d68-9b3a-d1692e066210.jpg\"]","trial_type":"similarity","trial_index":93,"time_elapsed":863831,"internal_node_id":"0.0-6.0-87.0"},{"sim_score":2,"rt":6761,"stimulus":"[\"img/0866/620cd1aa-0800-4414-8f6e-90342e7a99ad.jpg\",\"img/0902/fbef27fa-ac83-4936-ab78-9d1c20a383e1.jpg\"]","trial_type":"similarity","trial_index":94,"time_elapsed":871598,"internal_node_id":"0.0-6.0-88.0"},{"sim_score":5,"rt":7870,"stimulus":"[\"img/0769/387a9744-d6a7-42b8-bab8-33007ec434aa.jpg\",\"img/0867/ac1797e4-8afc-48fe-b252-86d1defb1cca.jpg\"]","trial_type":"similarity","trial_index":95,"time_elapsed":880483,"internal_node_id":"0.0-6.0-89.0"},{"sim_score":2,"rt":7395,"stimulus":"[\"img/0874/1016b306-087c-4afc-aa08-fa527b28dc76.jpg\",\"img/0875/dbdd643e-6d0e-4a5c-ab57-b9c29b9c981a.jpg\"]","trial_type":"similarity","trial_index":96,"time_elapsed":888900,"internal_node_id":"0.0-6.0-90.0"},{"sim_score":6,"rt":7354,"stimulus":"[\"img/0864/e8bd659f-aa43-4748-877e-3118e8b4e189.jpg\",\"img/0874/a3bc679d-619f-4db6-bb68-116dcb757d9c.jpg\"]","trial_type":"similarity","trial_index":97,"time_elapsed":897268,"internal_node_id":"0.0-6.0-91.0"},{"sim_score":5,"rt":6311,"stimulus":"[\"img/0881/c24f3051-eefa-42de-aba6-fccb56d93c70.jpg\",\"img/0862/e697469a-ec19-4414-b972-7b9f3564785b.jpg\"]","trial_type":"similarity","trial_index":98,"time_elapsed":904589,"internal_node_id":"0.0-6.0-92.0"},{"sim_score":5,"rt":6803,"stimulus":"[\"img/0864/c3b63e8f-ea39-4d70-a1f2-b3fe4be8eb75.jpg\",\"img/0881/609a5e93-38b5-4940-8627-2bf8fad7f802.jpg\"]","trial_type":"similarity","trial_index":99,"time_elapsed":912398,"internal_node_id":"0.0-6.0-93.0"},{"sim_score":5,"rt":9097,"stimulus":"[\"img/0899/9de5e857-aa9a-4e0c-8ba2-46d79bd069a4.jpg\",\"img/0901/2a953e50-d237-405c-a38d-5ed21494c968.jpg\"]","trial_type":"similarity","trial_index":100,"time_elapsed":922506,"internal_node_id":"0.0-6.0-94.0"},{"sim_score":1,"rt":5835,"stimulus":"[\"img/0874/7e4f2150-3b59-4a36-b5da-a4e0ba410531.jpg\",\"img/0766/0b48f9e0-7d37-4161-8adb-4e3f5b6b7583.jpg\"]","trial_type":"similarity","trial_index":101,"time_elapsed":929348,"internal_node_id":"0.0-6.0-95.0"},{"sim_score":1,"rt":5990,"stimulus":"[\"img/0881/f7a8cc63-8842-40a4-9ff8-fe530310d62c.jpg\",\"img/0899/51a7a498-98c7-42d7-bca8-bc2d8f0b5831.jpg\"]","trial_type":"similarity","trial_index":102,"time_elapsed":936345,"internal_node_id":"0.0-6.0-96.0"},{"sim_score":2,"rt":8334,"stimulus":"[\"img/0862/a0a3a7ba-7798-46a3-b4ca-05e1f6e581d0.jpg\",\"img/0902/d1083f2c-5520-44ec-81a8-3f856fbf0e80.jpg\"]","trial_type":"similarity","trial_index":103,"time_elapsed":945694,"internal_node_id":"0.0-6.0-97.0"},{"sim_score":6,"rt":6679,"stimulus":"[\"img/0899/0433d056-aa30-4f8a-9aa1-abbb951e4edd.jpg\",\"img/0764/0e7ed062-f798-4366-8a24-6f430926f919.jpg\"]","trial_type":"similarity","trial_index":104,"time_elapsed":953384,"internal_node_id":"0.0-6.0-98.0"},{"sim_score":5,"rt":7886,"stimulus":"[\"img/0758/f61ecdf8-a7d4-4db0-b84d-be46f7cfaffc.jpg\",\"img/0862/47ed5efd-4ec9-4b74-bb4e-a5f5cf0c3e7d.jpg\"]","trial_type":"similarity","trial_index":105,"time_elapsed":962289,"internal_node_id":"0.0-6.0-99.0"},{"sim_score":5,"rt":6772,"stimulus":"[\"img/0764/978aede9-4590-4ad0-b234-135c83e5d669.jpg\",\"img/0898/c3cecf20-f7fd-45fa-97d0-dc0a63e8d6c0.jpg\"]","trial_type":"similarity","trial_index":106,"time_elapsed":970066,"internal_node_id":"0.0-6.0-100.0"},{"sim_score":6,"rt":5069,"stimulus":"[\"img/0901/7d4a3388-488d-4e9b-9d32-9d0def7aae8d.jpg\",\"img/0902/1a120fb9-dbd6-443e-ba91-b4aceab963da.jpg\"]","trial_type":"similarity","trial_index":107,"time_elapsed":976141,"internal_node_id":"0.0-6.0-101.0"},{"sim_score":1,"rt":4601,"stimulus":"[\"img/0764/b328441c-f81c-486c-9eae-b947c70ba7cd.jpg\",\"img/0868/6a28c3b0-3d76-498a-9fb7-ddafc665eca8.jpg\"]","trial_type":"similarity","trial_index":108,"time_elapsed":981760,"internal_node_id":"0.0-6.0-102.0"},{"sim_score":2,"rt":4898,"stimulus":"[\"img/0769/e8ed913b-8a88-44f6-9327-d34afec3116b.jpg\",\"img/0881/44e09805-5a25-4f17-a716-4ad4a331b174.jpg\"]","trial_type":"similarity","trial_index":109,"time_elapsed":987672,"internal_node_id":"0.0-6.0-103.0"},{"sim_score":2,"rt":7634,"stimulus":"[\"img/0864/66091c27-e588-4476-8af9-265dc6be4156.jpg\",\"img/0769/c34b7763-8ff2-46d5-9e92-f1d8f3bedbd8.jpg\"]","trial_type":"similarity","trial_index":110,"time_elapsed":996324,"internal_node_id":"0.0-6.0-104.0"},{"sim_score":5,"rt":9148,"stimulus":"[\"img/0866/d266fece-59b3-46fa-b69f-96f6efb81b59.jpg\",\"img/0868/77091fc7-a590-4ebb-b915-fdb2483a2399.jpg\"]","trial_type":"similarity","trial_index":111,"time_elapsed":1006488,"internal_node_id":"0.0-6.0-105.0"},{"sim_score":1,"rt":5289,"stimulus":"[\"img/0868/0d3abd3a-b6c3-4584-a9f7-e2da63748b3d.jpg\",\"img/0862/064818ee-13d5-4618-bb24-21c7368ea278.jpg\"]","trial_type":"similarity","trial_index":112,"time_elapsed":1012799,"internal_node_id":"0.0-6.0-106.0"},{"sim_score":3,"rt":7655,"stimulus":"[\"img/0766/51d3aab4-3d09-4dda-b99d-3dc7aaabc6f2.jpg\",\"img/0898/b3290bf9-215b-4b45-b21a-65bdf73f142f.jpg\"]","trial_type":"similarity","trial_index":113,"time_elapsed":1021474,"internal_node_id":"0.0-6.0-107.0"},{"sim_score":2,"rt":5425,"stimulus":"[\"img/0898/4184e5a2-84ea-4f36-9b42-ae58646f6f87.jpg\",\"img/0864/300bb811-8b3c-4c42-8653-6097c3725197.jpg\"]","trial_type":"similarity","trial_index":114,"time_elapsed":1027913,"internal_node_id":"0.0-6.0-108.0"},{"sim_score":1,"rt":4622,"stimulus":"[\"img/0868/09a9ef4d-d000-4cfa-a6aa-ebec7c2edeb4.jpg\",\"img/0902/0eb85fbc-27c8-41df-9d0b-a5f9efd417d1.jpg\"]","trial_type":"similarity","trial_index":115,"time_elapsed":1033548,"internal_node_id":"0.0-6.0-109.0"},{"sim_score":5,"rt":5266,"stimulus":"[\"img/0904/0d25eb24-bb20-4e8d-9787-8b489558b4cb.jpg\",\"img/0764/1f95ab5f-fb65-4d70-b5db-d6bd6351a8aa.jpg\"]","trial_type":"similarity","trial_index":116,"time_elapsed":1039824,"internal_node_id":"0.0-6.0-110.0"},{"sim_score":1,"rt":4282,"stimulus":"[\"img/0894/4739e06d-c31e-4bf1-bf91-c97fa9afb456.jpg\",\"img/0875/e7e66b13-b573-431e-b85e-288ce04a35a3.jpg\"]","trial_type":"similarity","trial_index":117,"time_elapsed":1045113,"internal_node_id":"0.0-6.0-111.0"},{"sim_score":2,"rt":4744,"stimulus":"[\"img/0868/1a62b2b2-18f5-466e-b564-5176a57c565e.jpg\",\"img/0874/995f0332-0439-4eb4-add3-957335dbf6d9.jpg\"]","trial_type":"similarity","trial_index":118,"time_elapsed":1050872,"internal_node_id":"0.0-6.0-112.0"},{"sim_score":6,"rt":5007,"stimulus":"[\"img/0904/25365108-e038-4021-aac9-797f2063b337.jpg\",\"img/0898/26c41340-15bd-4ead-8fe4-c0d0ddca09c2.jpg\"]","trial_type":"similarity","trial_index":119,"time_elapsed":1072830,"internal_node_id":"0.0-6.0-113.0"},{"sim_score":1,"rt":7291,"stimulus":"[\"img/0860/31ff6436-98bf-4652-bed2-40f627229568.jpg\",\"img/0766/2e1cf445-9aef-40e7-92f4-5facf48b64c5.jpg\"]","trial_type":"similarity","trial_index":120,"time_elapsed":1081143,"internal_node_id":"0.0-6.0-114.0"},{"sim_score":1,"rt":5841,"stimulus":"[\"img/0894/10f22b96-040c-44f4-950b-a4963f3f506c.jpg\",\"img/0874/8cdb1c07-1c32-46d2-981c-3636560fa6e5.jpg\"]","trial_type":"similarity","trial_index":121,"time_elapsed":1088008,"internal_node_id":"0.0-6.0-115.0"},{"sim_score":5,"rt":6673,"stimulus":"[\"img/0899/a05bea16-2bb4-4cb9-b8fb-4ff975db6971.jpg\",\"img/0903/a0673b55-6040-47fe-9040-24bca27ca3c9.jpg\"]","trial_type":"similarity","trial_index":122,"time_elapsed":1095702,"internal_node_id":"0.0-6.0-116.0"},{"sim_score":1,"rt":6208,"stimulus":"[\"img/0881/1407b85b-a1c6-45b1-9884-3b24203efadb.jpg\",\"img/0764/ec2dd087-c471-4370-b570-95a542506a96.jpg\"]","trial_type":"similarity","trial_index":123,"time_elapsed":1102914,"internal_node_id":"0.0-6.0-117.0"},{"sim_score":5,"rt":6376,"stimulus":"[\"img/0903/d987e220-f3e6-4b6d-a270-fe6757041f6d.jpg\",\"img/0769/14d393ce-e5be-4ca1-86ce-cc27d4b6074c.jpg\"]","trial_type":"similarity","trial_index":124,"time_elapsed":1110305,"internal_node_id":"0.0-6.0-118.0"},{"sim_score":5,"rt":5459,"stimulus":"[\"img/0901/6e2957f8-f5ab-46f4-87cc-bb50155a098b.jpg\",\"img/0904/696ebb60-8891-417a-91fd-c53218907a95.jpg\"]","trial_type":"similarity","trial_index":125,"time_elapsed":1116776,"internal_node_id":"0.0-6.0-119.0"},{"sim_score":5,"rt":4697,"stimulus":"[\"img/0860/8a92e21b-6a32-4e4a-a445-2d5a487ed0a4.jpg\",\"img/0881/566f45f8-5fed-4479-a60f-26377e60a62d.jpg\"]","trial_type":"similarity","trial_index":126,"time_elapsed":1122489,"internal_node_id":"0.0-6.0-120.0"},{"sim_score":6,"rt":6017,"stimulus":"[\"img/0758/d540bee6-b460-4c32-ac57-bc282742d7d4.jpg\",\"img/0874/bf14b896-e930-4fd9-9c05-2e83317a2773.jpg\"]","trial_type":"similarity","trial_index":127,"time_elapsed":1129526,"internal_node_id":"0.0-6.0-121.0"},{"sim_score":5,"rt":8184,"stimulus":"[\"img/0901/b453df0b-4c39-49bb-8ced-6127efffa898.jpg\",\"img/0769/82ab9db6-4578-4e79-874f-f09100439f09.jpg\"]","trial_type":"similarity","trial_index":128,"time_elapsed":1138720,"internal_node_id":"0.0-6.0-122.0"},{"sim_score":6,"rt":5126,"stimulus":"[\"img/0902/3f0eeac5-c996-4026-a376-563ce8f28521.jpg\",\"img/0904/60d1a521-edf7-4696-9263-f21ac0e62a01.jpg\"]","trial_type":"similarity","trial_index":129,"time_elapsed":1144861,"internal_node_id":"0.0-6.0-123.0"},{"sim_score":1,"rt":5087,"stimulus":"[\"img/0899/ad8268c5-8199-48d0-ad70-c5b6d6c599ec.jpg\",\"img/0864/4bd81bc6-c13d-46df-95a9-485886dc7c1b.jpg\"]","trial_type":"similarity","trial_index":130,"time_elapsed":1150963,"internal_node_id":"0.0-6.0-124.0"},{"sim_score":1,"rt":4075,"stimulus":"[\"img/0766/5d1b8041-c5a1-4b02-b4fe-3453d98a0d72.jpg\",\"img/0868/d98ca254-b195-477f-b57e-5760a2717db8.jpg\"]","trial_type":"similarity","trial_index":131,"time_elapsed":1156058,"internal_node_id":"0.0-6.0-125.0"},{"sim_score":6,"rt":5569,"stimulus":"[\"img/0764/f64dfa83-333d-494c-87b5-73e942f1766e.jpg\",\"img/0864/afcba0a3-7e27-4757-b254-e9f05fad27e2.jpg\"]","trial_type":"similarity","trial_index":132,"time_elapsed":1162640,"internal_node_id":"0.0-6.0-126.0"},{"sim_score":4,"rt":5872,"stimulus":"[\"img/0899/0e1d936a-dbe2-4afc-9f19-7b7a1ae6c9ed.jpg\",\"img/0866/8efcaa46-83ab-4dee-a35f-850402aa21ae.jpg\"]","trial_type":"similarity","trial_index":133,"time_elapsed":1169532,"internal_node_id":"0.0-6.0-127.0"},{"sim_score":1,"rt":4982,"stimulus":"[\"img/0901/effc03f6-8f9d-46db-a66c-16fc83891c5c.jpg\",\"img/0881/292e9b4b-fca0-4ba8-87f1-4048f9e37b7d.jpg\"]","trial_type":"similarity","trial_index":134,"time_elapsed":1175524,"internal_node_id":"0.0-6.0-128.0"},{"sim_score":5,"rt":4957,"stimulus":"[\"img/0898/224c1572-56b9-4f16-a9e4-6f3bc9c114bd.jpg\",\"img/0903/e2e55a9e-0397-4dc0-8adf-4a54cfefe1fe.jpg\"]","trial_type":"similarity","trial_index":135,"time_elapsed":1181514,"internal_node_id":"0.0-6.0-129.0"},{"sim_score":2,"rt":6344,"stimulus":"[\"img/0894/5a49e858-2850-4892-9a06-e9f0efb5f94d.jpg\",\"img/0867/6e19c858-b606-45b2-a4c6-910a73f1d82c.jpg\"]","trial_type":"similarity","trial_index":136,"time_elapsed":1188877,"internal_node_id":"0.0-6.0-130.0"},{"sim_score":1,"rt":5202,"stimulus":"[\"img/0874/767f289c-9814-4496-803f-745cc8913d1f.jpg\",\"img/0903/6a87dbad-9b8d-4ff5-9c41-03c9aa24f0c3.jpg\"]","trial_type":"similarity","trial_index":137,"time_elapsed":1195098,"internal_node_id":"0.0-6.0-131.0"},{"sim_score":6,"rt":4087,"stimulus":"[\"img/0899/fd9efb43-701f-4cd6-baaa-4c38315f4bdc.jpg\",\"img/0898/f3a3f225-1248-4ac7-b93b-f0ff28485bf3.jpg\"]","trial_type":"similarity","trial_index":138,"time_elapsed":1200201,"internal_node_id":"0.0-6.0-132.0"},{"sim_score":3,"rt":8468,"stimulus":"[\"img/0867/db7e032f-162b-46f5-ae67-2b29679adee4.jpg\",\"img/0764/fb92924f-5cfe-4b89-b130-0cce8cc5636b.jpg\"]","trial_type":"similarity","trial_index":139,"time_elapsed":1209681,"internal_node_id":"0.0-6.0-133.0"},{"sim_score":2,"rt":5382,"stimulus":"[\"img/0866/c446214b-a368-4c65-ae39-ea46894256ab.jpg\",\"img/0769/f229321f-04dd-42d7-b14a-ffad6b509862.jpg\"]","trial_type":"similarity","trial_index":140,"time_elapsed":1216073,"internal_node_id":"0.0-6.0-134.0"},{"sim_score":6,"rt":4202,"stimulus":"[\"img/0860/fd4662f9-4c03-4d79-8593-06735e55a64b.jpg\",\"img/0898/0af304a2-6a7a-4082-ab7c-4450cd08cc58.jpg\"]","trial_type":"similarity","trial_index":141,"time_elapsed":1221294,"internal_node_id":"0.0-6.0-135.0"},{"sim_score":1,"rt":5178,"stimulus":"[\"img/0881/84397291-bc14-4fbf-90e8-241e486ab0fe.jpg\",\"img/0903/005ad0de-4f52-433c-b515-dbe8d46184a3.jpg\"]","trial_type":"similarity","trial_index":142,"time_elapsed":1227478,"internal_node_id":"0.0-6.0-136.0"},{"sim_score":6,"rt":5393,"stimulus":"[\"img/0894/3adef67d-7676-4995-80b2-bb31b8aca3ef.jpg\",\"img/0766/2746b119-4bba-463e-acf0-88136dc6600c.jpg\"]","trial_type":"similarity","trial_index":143,"time_elapsed":1233878,"internal_node_id":"0.0-6.0-137.0"},{"sim_score":1,"rt":4932,"stimulus":"[\"img/0860/b03b963d-949b-4d8d-b19c-4950c89eeca2.jpg\",\"img/0764/1def7b22-b054-4ec2-860b-73d25691823b.jpg\"]","trial_type":"similarity","trial_index":144,"time_elapsed":1239827,"internal_node_id":"0.0-6.0-138.0"},{"sim_score":5,"rt":6074,"stimulus":"[\"img/0769/1d8734c4-77ab-4165-9e71-5cfe672ff01c.jpg\",\"img/0902/94ee9c53-a9a2-4f95-b9b7-794a5fc62bb6.jpg\"]","trial_type":"similarity","trial_index":145,"time_elapsed":1246919,"internal_node_id":"0.0-6.0-139.0"},{"sim_score":6,"rt":5179,"stimulus":"[\"img/0904/b7c2a2c8-df33-4473-b3d4-ff7147c60db3.jpg\",\"img/0903/24477210-856c-4550-9de0-9f85a32762eb.jpg\"]","trial_type":"similarity","trial_index":146,"time_elapsed":1253107,"internal_node_id":"0.0-6.0-140.0"},{"sim_score":7,"rt":5888,"stimulus":"[\"img/0764/cbdc4f20-3a9a-4211-9b40-090699e0abcc.jpg\",\"img/0769/a3cfbdeb-acb3-4eac-87fb-4b117f42d4f8.jpg\"]","trial_type":"similarity","trial_index":147,"time_elapsed":1260007,"internal_node_id":"0.0-6.0-141.0"},{"sim_score":2,"rt":6775,"stimulus":"[\"img/0902/01b41522-de46-4c3a-b0af-a61b2682b40e.jpg\",\"img/0881/4da99fdd-1f40-4bbb-8e21-8833eef313f5.jpg\"]","trial_type":"similarity","trial_index":148,"time_elapsed":1267793,"internal_node_id":"0.0-6.0-142.0"},{"sim_score":1,"rt":7190,"stimulus":"[\"img/0866/23a224f3-2012-4fc8-8e0f-3c36f8de27fd.jpg\",\"img/0864/c22faebd-9c53-47bc-ada3-b9a30c688e75.jpg\"]","trial_type":"similarity","trial_index":149,"time_elapsed":1276002,"internal_node_id":"0.0-6.0-143.0"},{"sim_score":6,"rt":5766,"stimulus":"[\"img/0902/0db94c50-f1fb-4091-953c-29ca0466bee2.jpg\",\"img/0898/81b08535-2020-4c15-9ce4-2f1e460755ae.jpg\"]","trial_type":"similarity","trial_index":150,"time_elapsed":1282788,"internal_node_id":"0.0-6.0-144.0"},{"sim_score":2,"rt":5953,"stimulus":"[\"img/0862/d0ca4c78-fc35-46ed-bdcc-8e124283c53e.jpg\",\"img/0864/0116ca98-293d-4fa6-a93b-5a6144ef64cc.jpg\"]","trial_type":"similarity","trial_index":151,"time_elapsed":1289752,"internal_node_id":"0.0-6.0-145.0"},{"sim_score":1,"rt":5584,"stimulus":"[\"img/0875/fb732ab5-013a-4366-9f65-27811ed157e9.jpg\",\"img/0898/5f699581-3853-4547-856c-12f419ba5af7.jpg\"]","trial_type":"similarity","trial_index":152,"time_elapsed":1296357,"internal_node_id":"0.0-6.0-146.0"},{"sim_score":6,"rt":7497,"stimulus":"[\"img/0874/2c9464dd-8a23-4baa-ac94-1ba3af5c15cc.jpg\",\"img/0881/7e822106-76f7-4b10-a805-14dc68b2cfaf.jpg\"]","trial_type":"similarity","trial_index":153,"time_elapsed":1304865,"internal_node_id":"0.0-6.0-147.0"},{"sim_score":1,"rt":5504,"stimulus":"[\"img/0758/2fa3e613-e676-4e6e-bd12-705327eeb3e1.jpg\",\"img/0894/133a1636-d123-4893-873c-1718050f832a.jpg\"]","trial_type":"similarity","trial_index":154,"time_elapsed":1311377,"internal_node_id":"0.0-6.0-148.0"},{"sim_score":1,"rt":5984,"stimulus":"[\"img/0904/9dd5708f-3f8b-46a9-b49f-2f2fab87b357.jpg\",\"img/0864/9b2490c5-a282-400a-9736-e1a0ecbf1cb7.jpg\"]","trial_type":"similarity","trial_index":155,"time_elapsed":1318377,"internal_node_id":"0.0-6.0-149.0"},{"sim_score":5,"rt":5043,"stimulus":"[\"img/0769/6c0bac4c-5f59-43c7-898c-3ca93cf55cfe.jpg\",\"img/0899/f95cbdb4-f804-4f5d-ad76-373ad343e658.jpg\"]","trial_type":"similarity","trial_index":156,"time_elapsed":1324437,"internal_node_id":"0.0-6.0-150.0"},{"sim_score":5,"rt":5230,"stimulus":"[\"img/0764/c0b03adb-bd0a-4b96-a915-a827c2fd5211.jpg\",\"img/0903/f45a103c-9bfe-49fd-ad96-bdd8d2589195.jpg\"]","trial_type":"similarity","trial_index":157,"time_elapsed":1335151,"internal_node_id":"0.0-6.0-151.0"},{"sim_score":1,"rt":5193,"stimulus":"[\"img/0903/45e2d600-57ff-4d69-b22c-0c7896cd38f0.jpg\",\"img/0864/ea327690-500b-4137-bf91-451b309fe6a5.jpg\"]","trial_type":"similarity","trial_index":158,"time_elapsed":1341359,"internal_node_id":"0.0-6.0-152.0"},{"sim_score":2,"rt":7713,"stimulus":"[\"img/0894/9b1333fd-3561-43bf-aee5-99b7b7ca3dc3.jpg\",\"img/0881/405484ae-0d00-4b05-bc57-6420a36adfac.jpg\"]","trial_type":"similarity","trial_index":159,"time_elapsed":1350088,"internal_node_id":"0.0-6.0-153.0"},{"sim_score":5,"rt":7070,"stimulus":"[\"img/0875/a4935837-7d3c-4df6-88c1-36a94d4991ca.jpg\",\"img/0867/12264664-1860-46df-8c21-162b9817cdda.jpg\"]","trial_type":"similarity","trial_index":160,"time_elapsed":1358175,"internal_node_id":"0.0-6.0-154.0"},{"sim_score":5,"rt":5440,"stimulus":"[\"img/0867/50a1b60e-3a29-44bf-b606-d4bd3746fea9.jpg\",\"img/0758/6e95579b-5166-487c-b8cb-e417c6a218e3.jpg\"]","trial_type":"similarity","trial_index":161,"time_elapsed":1364633,"internal_node_id":"0.0-6.0-155.0"},{"sim_score":1,"rt":6882,"stimulus":"[\"img/0868/83b4350a-3b70-4cea-b7f5-b5b56f3050a8.jpg\",\"img/0901/168eb52c-c415-43f1-b5c8-e76e1a1ec247.jpg\"]","trial_type":"similarity","trial_index":162,"time_elapsed":1372525,"internal_node_id":"0.0-6.0-156.0"},{"sim_score":6,"rt":5157,"stimulus":"[\"img/0769/e31b3bd8-efcb-413e-aa8c-75fac2b8f2ac.jpg\",\"img/0894/8cadb87a-7001-4e47-99fb-1867bebf1668.jpg\"]","trial_type":"similarity","trial_index":163,"time_elapsed":1378699,"internal_node_id":"0.0-6.0-157.0"},{"sim_score":2,"rt":5006,"stimulus":"[\"img/0904/9b3568cc-3cf7-42be-9df3-fdafde7a58b8.jpg\",\"img/0758/3ddd05d3-557e-4ee7-8b78-9d2d681d8ae2.jpg\"]","trial_type":"similarity","trial_index":164,"time_elapsed":1384716,"internal_node_id":"0.0-6.0-158.0"},{"sim_score":1,"rt":7399,"stimulus":"[\"img/0874/85eb9b8a-c4c6-4e5a-b8e7-363a87a82054.jpg\",\"img/0904/56e73f28-7e64-489b-a161-e6b1a063878d.jpg\"]","trial_type":"similarity","trial_index":165,"time_elapsed":1393128,"internal_node_id":"0.0-6.0-159.0"},{"sim_score":2,"rt":9182,"stimulus":"[\"img/0864/8ddd2e30-a1d0-479f-9cbe-591213023893.jpg\",\"img/0901/33b51a81-06d9-46d9-9d4f-5a2d6d6b8058.jpg\"]","trial_type":"similarity","trial_index":166,"time_elapsed":1403320,"internal_node_id":"0.0-6.0-160.0"},{"sim_score":2,"rt":4435,"stimulus":"[\"img/0898/ec565187-2e31-4fdd-9a5c-153d0c789ae0.jpg\",\"img/0866/9b38d691-1802-4959-ab3f-fc902f0e4ea6.jpg\"]","trial_type":"similarity","trial_index":167,"time_elapsed":1408767,"internal_node_id":"0.0-6.0-161.0"},{"sim_score":4,"rt":22262,"stimulus":"[\"img/0766/ea09dd5a-d24d-4e97-a099-7da3db1baef1.jpg\",\"img/0903/8fcafe03-43df-4c45-9da5-0df3a1eeccc5.jpg\"]","trial_type":"similarity","trial_index":168,"time_elapsed":1432040,"internal_node_id":"0.0-6.0-162.0"},{"sim_score":1,"rt":5684,"stimulus":"[\"img/0860/702bd09d-df3a-40aa-a267-5f04474305b5.jpg\",\"img/0899/56a605c3-d0a2-4215-89e1-779279d85a7c.jpg\"]","trial_type":"similarity","trial_index":169,"time_elapsed":1438731,"internal_node_id":"0.0-6.0-163.0"},{"sim_score":2,"rt":5845,"stimulus":"[\"img/0766/75c3d627-4f3b-40d5-9d9c-10c8a62db644.jpg\",\"img/0862/53a9cf7c-93c4-41b9-952f-07d17f7a17b2.jpg\"]","trial_type":"similarity","trial_index":170,"time_elapsed":1445595,"internal_node_id":"0.0-6.0-164.0"},{"sim_score":5,"rt":5493,"stimulus":"[\"img/0898/79233891-305a-4a6a-8ddf-5c8604858203.jpg\",\"img/0894/11674fa4-285d-44e2-939f-2228c6a64080.jpg\"]","trial_type":"similarity","trial_index":171,"time_elapsed":1452096,"internal_node_id":"0.0-6.0-165.0"},{"sim_score":1,"rt":4782,"stimulus":"[\"img/0867/aa05d113-fc19-4756-a8eb-7878f580bc92.jpg\",\"img/0766/f5f78e4e-d88f-4866-951a-118ba9fec4d0.jpg\"]","trial_type":"similarity","trial_index":172,"time_elapsed":1457885,"internal_node_id":"0.0-6.0-166.0"},{"sim_score":3,"rt":7276,"stimulus":"[\"img/0904/4b8daf2a-13a9-4ea9-9e0b-b265b6e933e7.jpg\",\"img/0862/00c06b00-3b73-44e9-bc1e-c5aafb438321.jpg\"]","trial_type":"similarity","trial_index":173,"time_elapsed":1466167,"internal_node_id":"0.0-6.0-167.0"},{"sim_score":1,"rt":5060,"stimulus":"[\"img/0866/be24ab58-230e-4db8-9f45-ff04c9aec6bb.jpg\",\"img/0874/ca23d307-fc00-4d7d-9106-584c6eb21b4d.jpg\"]","trial_type":"similarity","trial_index":174,"time_elapsed":1472239,"internal_node_id":"0.0-6.0-168.0"},{"sim_score":2,"rt":6947,"stimulus":"[\"img/0903/365f176c-25a4-4973-bd3c-279bf1b39476.jpg\",\"img/0868/8b0b8473-e2c0-4331-aa56-c3a5c29369da.jpg\"]","trial_type":"similarity","trial_index":175,"time_elapsed":1480195,"internal_node_id":"0.0-6.0-169.0"},{"sim_score":6,"rt":6609,"stimulus":"[\"img/0769/bb8c4e53-6f32-4814-97ee-392d4decfb2e.jpg\",\"img/0904/5aec2708-cf14-4a58-aa30-9a8a61c1be0e.jpg\"]","trial_type":"similarity","trial_index":176,"time_elapsed":1487824,"internal_node_id":"0.0-6.0-170.0"},{"sim_score":1,"rt":5234,"stimulus":"[\"img/0875/527ced51-8e53-4aab-ab05-86df219104c0.jpg\",\"img/0764/713cc27e-2338-4486-bfe9-5f5725fbd7a0.jpg\"]","trial_type":"similarity","trial_index":177,"time_elapsed":1494075,"internal_node_id":"0.0-6.0-171.0"},{"sim_score":1,"rt":6304,"stimulus":"[\"img/0860/5383b320-1518-4095-a58e-5cc1ae30b64c.jpg\",\"img/0903/f67c4ab9-f8c2-4fcd-848a-a54a7b031002.jpg\"]","trial_type":"similarity","trial_index":178,"time_elapsed":1501389,"internal_node_id":"0.0-6.0-172.0"},{"sim_score":1,"rt":5603,"stimulus":"[\"img/0864/f92649a2-0590-4d31-9a7a-1bfb81666a2d.jpg\",\"img/0867/1719a35d-f085-48c0-9099-16c94fe418b4.jpg\"]","trial_type":"similarity","trial_index":179,"time_elapsed":1508007,"internal_node_id":"0.0-6.0-173.0"},{"sim_score":1,"rt":6672,"stimulus":"[\"img/0868/293079b8-7e0c-4afd-a390-1e5d35fe3ded.jpg\",\"img/0864/6f631579-acf1-415c-a42c-1207f62a8d99.jpg\"]","trial_type":"similarity","trial_index":180,"time_elapsed":1515686,"internal_node_id":"0.0-6.0-174.0"},{"sim_score":5,"rt":9015,"stimulus":"[\"img/0898/a8f16b02-e19f-423b-86c3-a36562ae1f9b.jpg\",\"img/0769/4680bcc3-8fbc-4643-8f9a-12aa0e780b64.jpg\"]","trial_type":"similarity","trial_index":181,"time_elapsed":1525708,"internal_node_id":"0.0-6.0-175.0"},{"sim_score":6,"rt":4760,"stimulus":"[\"img/0766/a1ed3f0f-e338-4a26-8fe4-4370f0c9fa6e.jpg\",\"img/0764/c01e2d65-6586-441b-bef5-3c96fcd85380.jpg\"]","trial_type":"similarity","trial_index":182,"time_elapsed":1531487,"internal_node_id":"0.0-6.0-176.0"},{"sim_score":1,"rt":5999,"stimulus":"[\"img/0764/c643e165-df19-459f-8c2b-8357bf432a17.jpg\",\"img/0866/bf14b5bd-fb55-47db-86b9-4f8aeb9a6dad.jpg\"]","trial_type":"similarity","trial_index":183,"time_elapsed":1538493,"internal_node_id":"0.0-6.0-177.0"},{"sim_score":1,"rt":4139,"stimulus":"[\"img/0902/07437a16-3d0f-4a5c-89ec-36d0efa4b3b8.jpg\",\"img/0875/f87b67d7-c33e-40d1-b281-248c4be1cb6e.jpg\"]","trial_type":"similarity","trial_index":184,"time_elapsed":1543650,"internal_node_id":"0.0-6.0-178.0"},{"sim_score":1,"rt":4455,"stimulus":"[\"img/0881/adc02f34-ce97-4aef-850f-00519df06fd7.jpg\",\"img/0904/0d17b811-063e-416e-a23c-3b3cfa4fcce5.jpg\"]","trial_type":"similarity","trial_index":185,"time_elapsed":1549123,"internal_node_id":"0.0-6.0-179.0"},{"sim_score":2,"rt":4675,"stimulus":"[\"img/0874/93d1f8dc-acf2-4f03-bd8d-8ec35df276ed.jpg\",\"img/0860/94ef7afc-e0e6-4a15-98c6-0bfac82bc832.jpg\"]","trial_type":"similarity","trial_index":186,"time_elapsed":1554805,"internal_node_id":"0.0-6.0-180.0"},{"sim_score":3,"rt":6411,"stimulus":"[\"img/0769/3adfa417-3b90-4aab-b437-5eaa474189cb.jpg\",\"img/0874/3f471690-9788-4d03-90c7-f615aecef149.jpg\"]","trial_type":"similarity","trial_index":187,"time_elapsed":1562236,"internal_node_id":"0.0-6.0-181.0"},{"sim_score":5,"rt":5015,"stimulus":"[\"img/0904/63dd06dd-dccb-47ba-9740-eb33239e18a7.jpg\",\"img/0766/db750ba0-ce04-46e1-b601-e1b80212bad2.jpg\"]","trial_type":"similarity","trial_index":188,"time_elapsed":1568264,"internal_node_id":"0.0-6.0-182.0"},{"sim_score":6,"rt":5260,"stimulus":"[\"img/0902/12452bb1-b8c0-4e4d-ad4d-47e279e5933c.jpg\",\"img/0764/ca9829fe-aaf8-45b8-b98a-6bae751c63dd.jpg\"]","trial_type":"similarity","trial_index":189,"time_elapsed":1574535,"internal_node_id":"0.0-6.0-183.0"},{"sim_score":1,"rt":3860,"stimulus":"[\"img/0769/b664b502-a86c-46c1-ad6f-5ebffc2e1bd3.jpg\",\"img/0875/90da8d75-108a-44ad-b999-e21fee3860d3.jpg\"]","trial_type":"similarity","trial_index":190,"time_elapsed":1579403,"internal_node_id":"0.0-6.0-184.0"},{"sim_score":1,"rt":4081,"stimulus":"[\"img/0867/a749dddb-69f0-44a6-acdc-2bf295cf6dcc.jpg\",\"img/0903/14f179a2-8786-48a2-8377-88d1d404341b.jpg\"]","trial_type":"similarity","trial_index":191,"time_elapsed":1584492,"internal_node_id":"0.0-6.0-185.0"},{"sim_score":2,"rt":6862,"stimulus":"[\"img/0862/cdaed51d-9e2f-4807-801a-4663c40077e2.jpg\",\"img/0769/878531fd-e0e8-4ad1-b9ad-f018bb104ca0.jpg\"]","trial_type":"similarity","trial_index":192,"time_elapsed":1592363,"internal_node_id":"0.0-6.0-186.0"},{"sim_score":2,"rt":6829,"stimulus":"[\"img/0766/d50d734f-285c-4840-bc7a-c8dd4aff391e.jpg\",\"img/0866/02f5e6b9-52b7-448c-9708-5b460d0c9a23.jpg\"]","trial_type":"similarity","trial_index":193,"time_elapsed":1600207,"internal_node_id":"0.0-6.0-187.0"},{"sim_score":1,"rt":5439,"stimulus":"[\"img/0769/9ea9ceb6-049e-4ad9-be8f-00645cd35803.jpg\",\"img/0860/29a21a9f-54bb-4093-ad3f-04823ceaa89f.jpg\"]","trial_type":"similarity","trial_index":194,"time_elapsed":1606666,"internal_node_id":"0.0-6.0-188.0"},{"sim_score":3,"rt":7487,"stimulus":"[\"img/0881/33d65d80-8a8e-4ecf-852d-0ad7725c17a2.jpg\",\"img/0868/5fa7f9d0-f0e5-454c-8224-74d964818f56.jpg\"]","trial_type":"similarity","trial_index":195,"time_elapsed":1621039,"internal_node_id":"0.0-6.0-189.0"},{"view_history":"[{\"page_index\":0,\"viewing_time\":60871}]","rt":60873,"trial_type":"instructions","trial_index":196,"time_elapsed":1682923,"internal_node_id":"0.0-7.0"},{"rt":24861,"responses":"{\"Q0\":\"Nashville Warbler\"}","answer":["Nashville Warbler"],"trial_type":"image-multi-choice","trial_index":197,"time_elapsed":1708820,"internal_node_id":"0.0-8.0-0.0"},{"rt":12885,"responses":"{\"Q0\":\"Black-and-white Warbler\"}","answer":["Black-and-white Warbler"],"trial_type":"image-multi-choice","trial_index":198,"time_elapsed":1722730,"internal_node_id":"0.0-8.0-1.0"},{"rt":23746,"responses":"{\"Q0\":\"Townsend's Warbler\"}","answer":["Townsend's Warbler"],"trial_type":"image-multi-choice","trial_index":199,"time_elapsed":1747497,"internal_node_id":"0.0-8.0-2.0"},{"rt":7658,"responses":"{\"Q0\":\"Lark Sparrow\"}","answer":["Lark Sparrow"],"trial_type":"image-multi-choice","trial_index":200,"time_elapsed":1756183,"internal_node_id":"0.0-8.0-3.0"},{"rt":9036,"responses":"{\"Q0\":\"Yellow Warbler\"}","answer":["Yellow Warbler"],"trial_type":"image-multi-choice","trial_index":201,"time_elapsed":1766234,"internal_node_id":"0.0-8.0-4.0"},{"rt":19894,"responses":"{\"Q0\":\"Orange-crowned Warbler\"}","answer":["Orange-crowned Warbler"],"trial_type":"image-multi-choice","trial_index":202,"time_elapsed":1787156,"internal_node_id":"0.0-8.0-5.0"},{"rt":8567,"responses":"{\"Q0\":\"White-crowned Sparrow\"}","answer":["White-throated Sparrow"],"trial_type":"image-multi-choice","trial_index":203,"time_elapsed":1796747,"internal_node_id":"0.0-8.0-6.0"},{"rt":13384,"responses":"{\"Q0\":\"Fox Sparrow\"}","answer":["Fox Sparrow"],"trial_type":"image-multi-choice","trial_index":204,"time_elapsed":1811159,"internal_node_id":"0.0-8.0-7.0"},{"rt":25952,"responses":"{\"Q0\":\"Song Sparrow\"}","answer":["Song Sparrow"],"trial_type":"image-multi-choice","trial_index":205,"time_elapsed":1838142,"internal_node_id":"0.0-8.0-8.0"},{"rt":54332,"responses":"{\"Q0\":\"Blackburnian Warbler\"}","answer":["Blackburnian Warbler"],"trial_type":"image-multi-choice","trial_index":206,"time_elapsed":1893487,"internal_node_id":"0.0-8.0-9.0"},{"rt":11504,"responses":"{\"Q0\":\"Lincoln's Sparrow\"}","answer":["Vesper Sparrow"],"trial_type":"image-multi-choice","trial_index":207,"time_elapsed":1906024,"internal_node_id":"0.0-8.0-10.0"},{"rt":8102,"responses":"{\"Q0\":\"White-crowned Sparrow\"}","answer":["White-crowned Sparrow"],"trial_type":"image-multi-choice","trial_index":208,"time_elapsed":1915158,"internal_node_id":"0.0-8.0-11.0"},{"rt":14854,"responses":"{\"Q0\":\"American Tree Sparrow\"}","answer":["American Tree Sparrow"],"trial_type":"image-multi-choice","trial_index":209,"time_elapsed":1931031,"internal_node_id":"0.0-8.0-12.0"},{"rt":16578,"responses":"{\"Q0\":\"Tennessee Warbler\"}","answer":["Tennessee Warbler"],"trial_type":"image-multi-choice","trial_index":210,"time_elapsed":1948636,"internal_node_id":"0.0-8.0-13.0"},{"rt":7739,"responses":"{\"Q0\":\"Magnolia Warbler\"}","answer":["Magnolia Warbler"],"trial_type":"image-multi-choice","trial_index":211,"time_elapsed":1957406,"internal_node_id":"0.0-8.0-14.0"},{"rt":12364,"responses":"{\"Q0\":\"Northern Waterthrush\"}","answer":["Northern Waterthrush"],"trial_type":"image-multi-choice","trial_index":212,"time_elapsed":1970802,"internal_node_id":"0.0-8.0-15.0"},{"rt":19585,"responses":"{\"Q0\":\"Vesper Sparrow\"}","answer":["Chipping Sparrow"],"trial_type":"image-multi-choice","trial_index":213,"time_elapsed":1991416,"internal_node_id":"0.0-8.0-16.0"},{"rt":7579,"responses":"{\"Q0\":\"Swamp Sparrow\"}","answer":["Swamp Sparrow"],"trial_type":"image-multi-choice","trial_index":214,"time_elapsed":2000018,"internal_node_id":"0.0-8.0-17.0"},{"rt":16859,"responses":"{\"Q0\":\"Lincoln's Sparrow\"}","answer":["Lincoln's Sparrow"],"trial_type":"image-multi-choice","trial_index":215,"time_elapsed":2017902,"internal_node_id":"0.0-8.0-18.0"},{"rt":4330,"responses":"{\"Q0\":\"Ovenbird\"}","answer":["Ovenbird"],"trial_type":"image-multi-choice","trial_index":216,"time_elapsed":2023261,"internal_node_id":"0.0-8.0-19.0"}]