[{"view_history":"[{\"page_index\":0,\"viewing_time\":45463}]","rt":45464,"trial_type":"instructions","trial_index":0,"time_elapsed":45466,"internal_node_id":"0.0-0.0"},{"sim_score":7,"rt":6103,"stimulus":"[\"img/bluejay1.jpg\",\"img/bluejay2.jpg\"]","trial_type":"similarity_demo","trial_index":1,"time_elapsed":52579,"internal_node_id":"0.0-1.0"},{"view_history":"[{\"page_index\":0,\"viewing_time\":3418}]","rt":3419,"trial_type":"instructions","trial_index":2,"time_elapsed":56999,"internal_node_id":"0.0-2.0"},{"sim_score":5,"rt":5284,"stimulus":"[\"img/bluejay1.jpg\",\"img/cardinal1.jpg\"]","trial_type":"similarity_demo","trial_index":3,"time_elapsed":63288,"internal_node_id":"0.0-3.0"},{"view_history":"[{\"page_index\":0,\"viewing_time\":8007}]","rt":8007,"trial_type":"instructions","trial_index":4,"time_elapsed":72296,"internal_node_id":"0.0-4.0"},{"view_history":"[{\"page_index\":0,\"viewing_time\":12933}]","rt":12933,"trial_type":"instructions","trial_index":5,"time_elapsed":86230,"internal_node_id":"0.0-5.0"},{"sim_score":2,"rt":5512,"stimulus":"[\"img/0868/fd307a36-9a3a-47d7-ab7c-f810d0b35040.jpg\",\"img/0894/9b1333fd-3561-43bf-aee5-99b7b7ca3dc3.jpg\"]","trial_type":"similarity","trial_index":6,"time_elapsed":92748,"internal_node_id":"0.0-6.0-0.0"},{"sim_score":2,"rt":5180,"stimulus":"[\"img/0898/79233891-305a-4a6a-8ddf-5c8604858203.jpg\",\"img/0758/dd559618-7f09-4a07-8018-d311c4a5ea29.jpg\"]","trial_type":"similarity","trial_index":7,"time_elapsed":98933,"internal_node_id":"0.0-6.0-1.0"},{"sim_score":6,"rt":7044,"stimulus":"[\"img/0903/6a87dbad-9b8d-4ff5-9c41-03c9aa24f0c3.jpg\",\"img/0894/0130a973-d993-41f8-874a-fee23d9ac11f.jpg\"]","trial_type":"similarity","trial_index":8,"time_elapsed":106983,"internal_node_id":"0.0-6.0-2.0"},{"sim_score":2,"rt":5336,"stimulus":"[\"img/0881/6b1189e6-232d-4042-8885-16dc7b10e0d4.jpg\",\"img/0766/75c3d627-4f3b-40d5-9d9c-10c8a62db644.jpg\"]","trial_type":"similarity","trial_index":9,"time_elapsed":113323,"internal_node_id":"0.0-6.0-3.0"},{"sim_score":6,"rt":4559,"stimulus":"[\"img/0864/b3c4e378-28f0-4699-9338-2a257b4bca04.jpg\",\"img/0860/c3379ff7-0763-48fe-a1ec-7ea3d611bc7a.jpg\"]","trial_type":"similarity","trial_index":10,"time_elapsed":118887,"internal_node_id":"0.0-6.0-4.0"},{"sim_score":6,"rt":9631,"stimulus":"[\"img/0902/417d8b4a-3c72-4adc-ac78-820e833316f2.jpg\",\"img/0899/7b7380d5-d2be-44e5-a09a-c1756f87ef71.jpg\"]","trial_type":"similarity","trial_index":11,"time_elapsed":129523,"internal_node_id":"0.0-6.0-5.0"},{"sim_score":2,"rt":3892,"stimulus":"[\"img/0868/d6d1f30d-4323-435a-b194-7892521bc57e.jpg\",\"img/0769/35364db7-e0d5-40ef-93dc-faf9dfb95136.jpg\"]","trial_type":"similarity","trial_index":12,"time_elapsed":134418,"internal_node_id":"0.0-6.0-6.0"},{"sim_score":6,"rt":5707,"stimulus":"[\"img/0764/7f4ee8e3-9315-4a57-be7d-db8454b33766.jpg\",\"img/0901/4ca4f962-40c0-4c59-b14a-3cd7b8c9029b.jpg\"]","trial_type":"similarity","trial_index":13,"time_elapsed":141130,"internal_node_id":"0.0-6.0-7.0"},{"sim_score":5,"rt":9050,"stimulus":"[\"img/0881/20af39f5-373d-4a55-a437-2dc4c0382c46.jpg\",\"img/0866/d266fece-59b3-46fa-b69f-96f6efb81b59.jpg\"]","trial_type":"similarity","trial_index":14,"time_elapsed":151184,"internal_node_id":"0.0-6.0-8.0"},{"sim_score":2,"rt":4086,"stimulus":"[\"img/0867/de92135f-5b65-4ed9-b245-188292c7c2f8.jpg\",\"img/0899/51a7a498-98c7-42d7-bca8-bc2d8f0b5831.jpg\"]","trial_type":"similarity","trial_index":15,"time_elapsed":156274,"internal_node_id":"0.0-6.0-9.0"},{"sim_score":2,"rt":3455,"stimulus":"[\"img/0875/dbdd643e-6d0e-4a5c-ab57-b9c29b9c981a.jpg\",\"img/0766/f3276cc4-65de-4c2d-88d5-6cfebce14b8f.jpg\"]","trial_type":"similarity","trial_index":16,"time_elapsed":160731,"internal_node_id":"0.0-6.0-10.0"},{"sim_score":2,"rt":3955,"stimulus":"[\"img/0901/c6df1a21-44ed-47c2-960e-7c52220e329e.jpg\",\"img/0875/99698b4d-b4a1-44bc-8c83-8ea755bbbf61.jpg\"]","trial_type":"similarity","trial_index":17,"time_elapsed":165691,"internal_node_id":"0.0-6.0-11.0"},{"sim_score":2,"rt":5060,"stimulus":"[\"img/0902/94ee9c53-a9a2-4f95-b9b7-794a5fc62bb6.jpg\",\"img/0860/c7047cd2-7cc1-41b6-8a34-c0986774975f.jpg\"]","trial_type":"similarity","trial_index":18,"time_elapsed":171755,"internal_node_id":"0.0-6.0-12.0"},{"sim_score":5,"rt":6588,"stimulus":"[\"img/0874/31e22c7c-99aa-40b1-bf03-dd73fa2df4d6.jpg\",\"img/0867/f8159067-056c-41f1-a136-c529fe5e970a.jpg\"]","trial_type":"similarity","trial_index":19,"time_elapsed":179347,"internal_node_id":"0.0-6.0-13.0"},{"sim_score":2,"rt":4253,"stimulus":"[\"img/0904/24fc38fe-842c-4831-ad8a-b1de5c25c0a8.jpg\",\"img/0866/4a87911a-d5be-4d4e-ab8e-3d1f581bf507.jpg\"]","trial_type":"similarity","trial_index":20,"time_elapsed":184605,"internal_node_id":"0.0-6.0-14.0"},{"sim_score":2,"rt":4069,"stimulus":"[\"img/0758/f61ecdf8-a7d4-4db0-b84d-be46f7cfaffc.jpg\",\"img/0902/d49743d6-67ae-4c2e-a939-8fd895a0f18e.jpg\"]","trial_type":"similarity","trial_index":21,"time_elapsed":189677,"internal_node_id":"0.0-6.0-15.0"},{"sim_score":2,"rt":5008,"stimulus":"[\"img/0867/26611f4e-d694-4460-b7e2-43c62753ddc3.jpg\",\"img/0898/881e2a85-d5c2-49be-a0c6-8a6ce2c4af08.jpg\"]","trial_type":"similarity","trial_index":22,"time_elapsed":195689,"internal_node_id":"0.0-6.0-16.0"},{"sim_score":2,"rt":4082,"stimulus":"[\"img/0904/2fd488e9-960f-41f7-8a44-33375f7d5051.jpg\",\"img/0868/8b0b8473-e2c0-4331-aa56-c3a5c29369da.jpg\"]","trial_type":"similarity","trial_index":23,"time_elapsed":200774,"internal_node_id":"0.0-6.0-17.0"},{"sim_score":2,"rt":4521,"stimulus":"[\"img/0766/2e1cf445-9aef-40e7-92f4-5facf48b64c5.jpg\",\"img/0864/ea327690-500b-4137-bf91-451b309fe6a5.jpg\"]","trial_type":"similarity","trial_index":24,"time_elapsed":206299,"internal_node_id":"0.0-6.0-18.0"},{"sim_score":6,"rt":9346,"stimulus":"[\"img/0899/d8f2dd94-570e-4e8c-a087-d96090fb9e8c.jpg\",\"img/0766/d14acac4-7db1-4b07-8f8f-302437326fc0.jpg\"]","trial_type":"similarity","trial_index":25,"time_elapsed":216648,"internal_node_id":"0.0-6.0-19.0"},{"sim_score":2,"rt":2766,"stimulus":"[\"img/0764/f9f890e6-3c2f-40cd-84e9-85e0b54cb28e.jpg\",\"img/0758/e1ba5e53-addc-436a-b428-d34fc1b130dc.jpg\"]","trial_type":"similarity","trial_index":26,"time_elapsed":220418,"internal_node_id":"0.0-6.0-20.0"},{"sim_score":2,"rt":3513,"stimulus":"[\"img/0901/12da1841-e611-435c-9719-109413d536a8.jpg\",\"img/0874/adf9a8f1-c40b-402b-b95b-1e85a54a7b62.jpg\"]","trial_type":"similarity","trial_index":27,"time_elapsed":224934,"internal_node_id":"0.0-6.0-21.0"},{"sim_score":7,"rt":12312,"stimulus":"[\"img/0875/42910c99-5463-450a-a0f8-d4d060a11455.jpg\",\"img/0758/335851a0-a55b-46d8-ab05-8463eda48349.jpg\"]","trial_type":"similarity","trial_index":28,"time_elapsed":238250,"internal_node_id":"0.0-6.0-22.0"},{"sim_score":6,"rt":4067,"stimulus":"[\"img/0867/12264664-1860-46df-8c21-162b9817cdda.jpg\",\"img/0881/ee44e27f-d662-4608-b265-e7ffa19b216f.jpg\"]","trial_type":"similarity","trial_index":29,"time_elapsed":243321,"internal_node_id":"0.0-6.0-23.0"},{"sim_score":2,"rt":4159,"stimulus":"[\"img/0758/d540bee6-b460-4c32-ac57-bc282742d7d4.jpg\",\"img/0901/7d4a3388-488d-4e9b-9d32-9d0def7aae8d.jpg\"]","trial_type":"similarity","trial_index":30,"time_elapsed":248484,"internal_node_id":"0.0-6.0-24.0"},{"sim_score":7,"rt":4439,"stimulus":"[\"img/0868/4bd5105a-d2c3-4f82-8c80-57196106ba53.jpg\",\"img/0875/3ecb367d-e9eb-4826-8aaa-7aa72fb98019.jpg\"]","trial_type":"similarity","trial_index":31,"time_elapsed":253927,"internal_node_id":"0.0-6.0-25.0"},{"sim_score":6,"rt":12446,"stimulus":"[\"img/0903/70d764d9-1f35-4da7-a35d-4cc39834d270.jpg\",\"img/0901/bc47e078-bda4-40ed-b89a-bbd819164b95.jpg\"]","trial_type":"similarity","trial_index":32,"time_elapsed":267378,"internal_node_id":"0.0-6.0-26.0"},{"sim_score":6,"rt":4182,"stimulus":"[\"img/0894/5ff3c4f6-52e2-4075-8679-be0312e59703.jpg\",\"img/0899/f95cbdb4-f804-4f5d-ad76-373ad343e658.jpg\"]","trial_type":"similarity","trial_index":33,"time_elapsed":272563,"internal_node_id":"0.0-6.0-27.0"},{"sim_score":6,"rt":4993,"stimulus":"[\"img/0862/f188d4f0-76a4-4102-818c-a209969d73a5.jpg\",\"img/0867/ac1797e4-8afc-48fe-b252-86d1defb1cca.jpg\"]","trial_type":"similarity","trial_index":34,"time_elapsed":278559,"internal_node_id":"0.0-6.0-28.0"},{"sim_score":6,"rt":6931,"stimulus":"[\"img/0864/e336a4c5-6648-4fd7-b2f6-93a3fb83f8c6.jpg\",\"img/0875/5a7c4e35-6514-4e12-8879-d16071da4cd6.jpg\"]","trial_type":"similarity","trial_index":35,"time_elapsed":286495,"internal_node_id":"0.0-6.0-29.0"},{"sim_score":5,"rt":7428,"stimulus":"[\"img/0862/4f0a3b4c-afbf-486e-b248-1d54982f54b4.jpg\",\"img/0874/7e4f2150-3b59-4a36-b5da-a4e0ba410531.jpg\"]","trial_type":"similarity","trial_index":36,"time_elapsed":294927,"internal_node_id":"0.0-6.0-30.0"},{"sim_score":2,"rt":4431,"stimulus":"[\"img/0903/4cbdc464-e562-4ec2-9bb6-15f894fdf528.jpg\",\"img/0758/53f35650-e455-4b53-8be4-c3c8271c6466.jpg\"]","trial_type":"similarity","trial_index":37,"time_elapsed":300362,"internal_node_id":"0.0-6.0-31.0"},{"sim_score":2,"rt":4047,"stimulus":"[\"img/0866/23a224f3-2012-4fc8-8e0f-3c36f8de27fd.jpg\",\"img/0901/a6776381-91fe-43f8-ab73-261d318f95fd.jpg\"]","trial_type":"similarity","trial_index":38,"time_elapsed":305412,"internal_node_id":"0.0-6.0-32.0"},{"sim_score":2,"rt":5236,"stimulus":"[\"img/0874/85eb9b8a-c4c6-4e5a-b8e7-363a87a82054.jpg\",\"img/0899/d60714ae-98d7-4564-8c98-94dba1351135.jpg\"]","trial_type":"similarity","trial_index":39,"time_elapsed":311653,"internal_node_id":"0.0-6.0-33.0"},{"sim_score":7,"rt":4706,"stimulus":"[\"img/0903/5995f4a8-fa82-46f8-8760-fd7800a5ca34.jpg\",\"img/0902/0db94c50-f1fb-4091-953c-29ca0466bee2.jpg\"]","trial_type":"similarity","trial_index":40,"time_elapsed":317362,"internal_node_id":"0.0-6.0-34.0"},{"sim_score":6,"rt":4031,"stimulus":"[\"img/0758/6cd8c362-ae2a-41eb-80a3-3a4f7ace1530.jpg\",\"img/0866/a04d37f0-99dd-478a-b6c6-58b215138f84.jpg\"]","trial_type":"similarity","trial_index":41,"time_elapsed":322396,"internal_node_id":"0.0-6.0-35.0"},{"sim_score":2,"rt":3492,"stimulus":"[\"img/0875/d59ff733-eaff-4ee2-9443-06954dd0bcb6.jpg\",\"img/0903/8931c67c-a43d-47d3-a4c9-42aa2f81d344.jpg\"]","trial_type":"similarity","trial_index":42,"time_elapsed":326892,"internal_node_id":"0.0-6.0-36.0"},{"sim_score":2,"rt":2720,"stimulus":"[\"img/0864/65210d57-1153-4657-886a-32e758f49b4a.jpg\",\"img/0902/962f645e-9b55-4628-9b50-c703422bfe1a.jpg\"]","trial_type":"similarity","trial_index":43,"time_elapsed":337652,"internal_node_id":"0.0-6.0-37.0"},{"sim_score":2,"rt":7004,"stimulus":"[\"img/0901/875dedb9-24c9-4443-9f8c-85e97d70ee5a.jpg\",\"img/0867/1719a35d-f085-48c0-9099-16c94fe418b4.jpg\"]","trial_type":"similarity","trial_index":44,"time_elapsed":345660,"internal_node_id":"0.0-6.0-38.0"},{"sim_score":6,"rt":4053,"stimulus":"[\"img/0862/f23038d4-c366-4f70-979f-66b62362efa4.jpg\",\"img/0860/e8b8c51e-1834-4875-8b61-6c5bc9b178bd.jpg\"]","trial_type":"similarity","trial_index":45,"time_elapsed":350718,"internal_node_id":"0.0-6.0-39.0"},{"sim_score":6,"rt":5594,"stimulus":"[\"img/0867/a749dddb-69f0-44a6-acdc-2bf295cf6dcc.jpg\",\"img/0868/e0aff734-077f-40dd-9781-74821abd3621.jpg\"]","trial_type":"similarity","trial_index":46,"time_elapsed":357316,"internal_node_id":"0.0-6.0-40.0"},{"sim_score":6,"rt":5083,"stimulus":"[\"img/0904/6291eb43-c10c-4810-a36a-101d09868b04.jpg\",\"img/0899/66bf4113-ee12-426c-84d2-ea410b6c803e.jpg\"]","trial_type":"similarity","trial_index":47,"time_elapsed":363403,"internal_node_id":"0.0-6.0-41.0"},{"sim_score":2,"rt":3882,"stimulus":"[\"img/0862/e697469a-ec19-4414-b972-7b9f3564785b.jpg\",\"img/0894/8cadb87a-7001-4e47-99fb-1867bebf1668.jpg\"]","trial_type":"similarity","trial_index":48,"time_elapsed":368289,"internal_node_id":"0.0-6.0-42.0"},{"sim_score":2,"rt":2852,"stimulus":"[\"img/0875/5a716432-c6ca-4b1c-955a-2b8ac25198ee.jpg\",\"img/0904/ba8e689e-9ca6-4608-a2a1-3b0940666ae6.jpg\"]","trial_type":"similarity","trial_index":49,"time_elapsed":372145,"internal_node_id":"0.0-6.0-43.0"},{"sim_score":2,"rt":5420,"stimulus":"[\"img/0874/ca23d307-fc00-4d7d-9106-584c6eb21b4d.jpg\",\"img/0898/04e39a7a-fcf6-4156-ab0e-f5871f335e1c.jpg\"]","trial_type":"similarity","trial_index":50,"time_elapsed":378569,"internal_node_id":"0.0-6.0-44.0"},{"sim_score":2,"rt":3810,"stimulus":"[\"img/0898/c3cecf20-f7fd-45fa-97d0-dc0a63e8d6c0.jpg\",\"img/0868/09a9ef4d-d000-4cfa-a6aa-ebec7c2edeb4.jpg\"]","trial_type":"similarity","trial_index":51,"time_elapsed":383383,"internal_node_id":"0.0-6.0-45.0"},{"sim_score":2,"rt":2591,"stimulus":"[\"img/0901/b13fa50f-dbe0-4d0f-8647-6ac0fd8f40bd.jpg\",\"img/0860/8a92e21b-6a32-4e4a-a445-2d5a487ed0a4.jpg\"]","trial_type":"similarity","trial_index":52,"time_elapsed":386977,"internal_node_id":"0.0-6.0-46.0"},{"sim_score":6,"rt":5386,"stimulus":"[\"img/0894/b422d5c6-3c5a-49ae-a53e-7e88ac993f49.jpg\",\"img/0902/c920f0e1-1c81-480f-a164-c77f2dc6ce9a.jpg\"]","trial_type":"similarity","trial_index":53,"time_elapsed":393366,"internal_node_id":"0.0-6.0-47.0"},{"sim_score":2,"rt":3176,"stimulus":"[\"img/0764/d0bef2e0-e16b-4c82-9451-c1d16265eb67.jpg\",\"img/0862/fb26cb07-d5a9-4653-813c-f41609f26cd5.jpg\"]","trial_type":"similarity","trial_index":54,"time_elapsed":397547,"internal_node_id":"0.0-6.0-48.0"},{"sim_score":7,"rt":4068,"stimulus":"[\"img/0881/f7a8cc63-8842-40a4-9ff8-fe530310d62c.jpg\",\"img/0758/ddc336e9-a8b6-4bb9-937a-c7e25e0e9250.jpg\"]","trial_type":"similarity","trial_index":55,"time_elapsed":402620,"internal_node_id":"0.0-6.0-49.0"},{"sim_score":6,"rt":4554,"stimulus":"[\"img/0766/1865bfc9-2410-4765-a804-3ae4ba2393d0.jpg\",\"img/0769/387a9744-d6a7-42b8-bab8-33007ec434aa.jpg\"]","trial_type":"similarity","trial_index":56,"time_elapsed":408178,"internal_node_id":"0.0-6.0-50.0"},{"sim_score":7,"rt":5886,"stimulus":"[\"img/0875/f87b67d7-c33e-40d1-b281-248c4be1cb6e.jpg\",\"img/0866/c446214b-a368-4c65-ae39-ea46894256ab.jpg\"]","trial_type":"similarity","trial_index":57,"time_elapsed":415069,"internal_node_id":"0.0-6.0-51.0"},{"sim_score":7,"rt":5222,"stimulus":"[\"img/0894/3adef67d-7676-4995-80b2-bb31b8aca3ef.jpg\",\"img/0904/65e2b70a-b184-4da3-b5c0-5038bdf9469a.jpg\"]","trial_type":"similarity","trial_index":58,"time_elapsed":421294,"internal_node_id":"0.0-6.0-52.0"},{"sim_score":2,"rt":4486,"stimulus":"[\"img/0758/a709631e-3705-4725-ac40-f0d916924f08.jpg\",\"img/0769/5bd04f55-d091-4f57-85db-38426f26bd1a.jpg\"]","trial_type":"similarity","trial_index":59,"time_elapsed":426782,"internal_node_id":"0.0-6.0-53.0"},{"sim_score":2,"rt":4652,"stimulus":"[\"img/0902/ca3160ba-ad5d-459f-a1b6-8b4f3c85ecd5.jpg\",\"img/0874/bf14b896-e930-4fd9-9c05-2e83317a2773.jpg\"]","trial_type":"similarity","trial_index":60,"time_elapsed":432438,"internal_node_id":"0.0-6.0-54.0"},{"sim_score":2,"rt":3140,"stimulus":"[\"img/0903/b7e3723f-fd03-4f3d-8820-f19496463a34.jpg\",\"img/0862/a0a3a7ba-7798-46a3-b4ca-05e1f6e581d0.jpg\"]","trial_type":"similarity","trial_index":61,"time_elapsed":436581,"internal_node_id":"0.0-6.0-55.0"},{"sim_score":2,"rt":3792,"stimulus":"[\"img/0866/11a1d141-be5e-443c-98c1-a9d4d9e3dec0.jpg\",\"img/0894/86201968-6e78-4d68-9b3a-d1692e066210.jpg\"]","trial_type":"similarity","trial_index":62,"time_elapsed":441378,"internal_node_id":"0.0-6.0-56.0"},{"sim_score":2,"rt":3794,"stimulus":"[\"img/0867/98d8cd96-1476-4fe0-a3a3-04f875500a1b.jpg\",\"img/0904/1d10df11-b5c8-4370-9a6b-097a7f965895.jpg\"]","trial_type":"similarity","trial_index":63,"time_elapsed":446175,"internal_node_id":"0.0-6.0-57.0"},{"sim_score":6,"rt":3940,"stimulus":"[\"img/0875/34132396-d896-4c2d-8087-646dd867e769.jpg\",\"img/0881/292e9b4b-fca0-4ba8-87f1-4048f9e37b7d.jpg\"]","trial_type":"similarity","trial_index":64,"time_elapsed":451124,"internal_node_id":"0.0-6.0-58.0"},{"sim_score":6,"rt":5327,"stimulus":"[\"img/0866/07c9c966-3c8d-40e7-8128-92b2acbaed5d.jpg\",\"img/0860/8277806e-b684-4474-8f7b-3fca946d7d4f.jpg\"]","trial_type":"similarity","trial_index":65,"time_elapsed":457455,"internal_node_id":"0.0-6.0-59.0"},{"sim_score":2,"rt":5437,"stimulus":"[\"img/0903/14f179a2-8786-48a2-8377-88d1d404341b.jpg\",\"img/0866/bf14b5bd-fb55-47db-86b9-4f8aeb9a6dad.jpg\"]","trial_type":"similarity","trial_index":66,"time_elapsed":463896,"internal_node_id":"0.0-6.0-60.0"},{"sim_score":6,"rt":2957,"stimulus":"[\"img/0860/8fdba999-b946-4c7d-9891-336018b563ef.jpg\",\"img/0875/e7e66b13-b573-431e-b85e-288ce04a35a3.jpg\"]","trial_type":"similarity","trial_index":67,"time_elapsed":467855,"internal_node_id":"0.0-6.0-61.0"},{"sim_score":2,"rt":3641,"stimulus":"[\"img/0898/993d8f2d-bef7-4251-a193-0f93a32b7763.jpg\",\"img/0862/847e5208-38ec-4f36-949c-296cdd7424ee.jpg\"]","trial_type":"similarity","trial_index":68,"time_elapsed":472499,"internal_node_id":"0.0-6.0-62.0"},{"sim_score":6,"rt":4791,"stimulus":"[\"img/0902/0c760cc9-10ac-429e-8957-a7d51fc99683.jpg\",\"img/0766/908bc45b-7c9e-4f95-806e-86b196ebcb2c.jpg\"]","trial_type":"similarity","trial_index":69,"time_elapsed":478295,"internal_node_id":"0.0-6.0-63.0"},{"sim_score":6,"rt":3516,"stimulus":"[\"img/0758/821c68d3-5cb0-4eae-8659-30e6263fca39.jpg\",\"img/0864/3d4de670-b290-4285-9c3d-12a0e3af44e9.jpg\"]","trial_type":"similarity","trial_index":70,"time_elapsed":482815,"internal_node_id":"0.0-6.0-64.0"},{"sim_score":2,"rt":3776,"stimulus":"[\"img/0894/c505c65a-cde2-4f2c-8cde-f8676f7c894d.jpg\",\"img/0860/18dfed73-e36b-4487-a8bd-0b8cff8e3668.jpg\"]","trial_type":"similarity","trial_index":71,"time_elapsed":487595,"internal_node_id":"0.0-6.0-65.0"},{"sim_score":2,"rt":3374,"stimulus":"[\"img/0899/76ad07e2-ca25-45eb-84f2-8d80b8ca3e26.jpg\",\"img/0868/5fa7f9d0-f0e5-454c-8224-74d964818f56.jpg\"]","trial_type":"similarity","trial_index":72,"time_elapsed":491973,"internal_node_id":"0.0-6.0-66.0"},{"sim_score":5,"rt":7458,"stimulus":"[\"img/0866/a15b02be-11bb-43e3-b0e0-ecc3bd7dfc49.jpg\",\"img/0862/ba89835a-408c-480b-8594-ed4ffa97eb5c.jpg\"]","trial_type":"similarity","trial_index":73,"time_elapsed":500434,"internal_node_id":"0.0-6.0-67.0"},{"sim_score":6,"rt":5885,"stimulus":"[\"img/0860/61fb959d-d4d9-4de4-9e4e-4fa62b4cfcd5.jpg\",\"img/0758/7fba58df-2a7a-4b76-8a8f-62739f97f271.jpg\"]","trial_type":"similarity","trial_index":74,"time_elapsed":507322,"internal_node_id":"0.0-6.0-68.0"},{"sim_score":2,"rt":4146,"stimulus":"[\"img/0902/168ebd47-9e82-4ab7-a18b-c3da85072db8.jpg\",\"img/0867/6e19c858-b606-45b2-a4c6-910a73f1d82c.jpg\"]","trial_type":"similarity","trial_index":75,"time_elapsed":512472,"internal_node_id":"0.0-6.0-69.0"},{"sim_score":2,"rt":4595,"stimulus":"[\"img/0862/24cdc752-c2e5-4a17-86a6-6f2045d8553b.jpg\",\"img/0901/71e551a2-9ce2-409c-9c7c-dd556a0791e9.jpg\"]","trial_type":"similarity","trial_index":76,"time_elapsed":518070,"internal_node_id":"0.0-6.0-70.0"},{"sim_score":6,"rt":4216,"stimulus":"[\"img/0867/f8488a47-94ee-4166-952c-44e16cf172f6.jpg\",\"img/0866/02f5e6b9-52b7-448c-9708-5b460d0c9a23.jpg\"]","trial_type":"similarity","trial_index":77,"time_elapsed":523290,"internal_node_id":"0.0-6.0-71.0"},{"sim_score":2,"rt":3955,"stimulus":"[\"img/0860/9593362c-9fe5-4d12-9735-6000a11f6aa5.jpg\",\"img/0904/0d17b811-063e-416e-a23c-3b3cfa4fcce5.jpg\"]","trial_type":"similarity","trial_index":78,"time_elapsed":528248,"internal_node_id":"0.0-6.0-72.0"},{"sim_score":2,"rt":3004,"stimulus":"[\"img/0875/2e13d160-eea1-416b-aff1-d37ab99ecc1d.jpg\",\"img/0899/5b56dd3e-3f49-47cc-af84-16da6457753b.jpg\"]","trial_type":"similarity","trial_index":79,"time_elapsed":532255,"internal_node_id":"0.0-6.0-73.0"},{"sim_score":2,"rt":2781,"stimulus":"[\"img/0899/25ae6ec8-9565-49fe-a8bb-8d0666f52716.jpg\",\"img/0758/6e95579b-5166-487c-b8cb-e417c6a218e3.jpg\"]","trial_type":"similarity","trial_index":80,"time_elapsed":536039,"internal_node_id":"0.0-6.0-74.0"},{"sim_score":5,"rt":3292,"stimulus":"[\"img/0862/fad1d7c1-8187-43c3-942a-0fc12183e48e.jpg\",\"img/0875/cff79b3a-a797-4393-9757-6275f999ec04.jpg\"]","trial_type":"similarity","trial_index":81,"time_elapsed":544137,"internal_node_id":"0.0-6.0-75.0"},{"sim_score":2,"rt":9916,"stimulus":"[\"img/0901/33b51a81-06d9-46d9-9d4f-5a2d6d6b8058.jpg\",\"img/0894/6b2e9509-8699-42b7-9582-7741df0ba2d7.jpg\"]","trial_type":"similarity","trial_index":82,"time_elapsed":555058,"internal_node_id":"0.0-6.0-76.0"},{"sim_score":2,"rt":3156,"stimulus":"[\"img/0766/e8052e17-9dae-4139-802b-6e590cb2d526.jpg\",\"img/0758/d41c06bf-ebaf-454b-91c6-1a17f917b659.jpg\"]","trial_type":"similarity","trial_index":83,"time_elapsed":559217,"internal_node_id":"0.0-6.0-77.0"},{"sim_score":6,"rt":12479,"stimulus":"[\"img/0894/792c83e9-a747-4000-bc72-5663d2439edb.jpg\",\"img/0764/e42c1dc9-7831-4995-be19-7ca7b4d141fc.jpg\"]","trial_type":"similarity","trial_index":84,"time_elapsed":572701,"internal_node_id":"0.0-6.0-78.0"},{"sim_score":6,"rt":5468,"stimulus":"[\"img/0860/b03b963d-949b-4d8d-b19c-4950c89eeca2.jpg\",\"img/0867/50a1b60e-3a29-44bf-b606-d4bd3746fea9.jpg\"]","trial_type":"similarity","trial_index":85,"time_elapsed":579173,"internal_node_id":"0.0-6.0-79.0"},{"sim_score":6,"rt":5000,"stimulus":"[\"img/0898/661621d4-a14e-487c-8c74-354134a29710.jpg\",\"img/0901/deff6cfb-0072-4490-bc3e-206bbcd3e8bf.jpg\"]","trial_type":"similarity","trial_index":86,"time_elapsed":585177,"internal_node_id":"0.0-6.0-80.0"},{"sim_score":2,"rt":3806,"stimulus":"[\"img/0874/29830da7-be5f-44e5-b141-652a0ccf7269.jpg\",\"img/0764/23ea9375-f801-4a96-9925-7d453da887c7.jpg\"]","trial_type":"similarity","trial_index":87,"time_elapsed":589986,"internal_node_id":"0.0-6.0-81.0"},{"sim_score":2,"rt":3696,"stimulus":"[\"img/0899/8de08897-b430-42fe-9d42-840670b80f94.jpg\",\"img/0862/00c06b00-3b73-44e9-bc1e-c5aafb438321.jpg\"]","trial_type":"similarity","trial_index":88,"time_elapsed":594687,"internal_node_id":"0.0-6.0-82.0"},{"sim_score":5,"rt":4872,"stimulus":"[\"img/0766/ae0fce93-fe8d-4aa1-87ca-4c3e4b889f2f.jpg\",\"img/0901/1ede21d9-384f-4150-86b5-e1c57b5dc1d4.jpg\"]","trial_type":"similarity","trial_index":89,"time_elapsed":600563,"internal_node_id":"0.0-6.0-83.0"},{"sim_score":2,"rt":3985,"stimulus":"[\"img/0881/dea58fad-b4f1-41d9-bd3f-916eff19a3fd.jpg\",\"img/0898/82231d4c-218b-4d0a-b50d-35a49b524e97.jpg\"]","trial_type":"similarity","trial_index":90,"time_elapsed":605550,"internal_node_id":"0.0-6.0-84.0"},{"sim_score":6,"rt":5113,"stimulus":"[\"img/0868/83b4350a-3b70-4cea-b7f5-b5b56f3050a8.jpg\",\"img/0860/71e1aad0-2cdf-43bb-94a4-a8c016997c30.jpg\"]","trial_type":"similarity","trial_index":91,"time_elapsed":611666,"internal_node_id":"0.0-6.0-85.0"},{"sim_score":6,"rt":5225,"stimulus":"[\"img/0758/3ddd05d3-557e-4ee7-8b78-9d2d681d8ae2.jpg\",\"img/0868/0d3abd3a-b6c3-4584-a9f7-e2da63748b3d.jpg\"]","trial_type":"similarity","trial_index":92,"time_elapsed":617894,"internal_node_id":"0.0-6.0-86.0"},{"sim_score":2,"rt":2900,"stimulus":"[\"img/0864/c22faebd-9c53-47bc-ada3-b9a30c688e75.jpg\",\"img/0894/4739e06d-c31e-4bf1-bf91-c97fa9afb456.jpg\"]","trial_type":"similarity","trial_index":93,"time_elapsed":621798,"internal_node_id":"0.0-6.0-87.0"},{"sim_score":2,"rt":3332,"stimulus":"[\"img/0866/620cd1aa-0800-4414-8f6e-90342e7a99ad.jpg\",\"img/0902/794606a0-d8a8-4e58-8bf8-9d114ed5a548.jpg\"]","trial_type":"similarity","trial_index":94,"time_elapsed":626134,"internal_node_id":"0.0-6.0-88.0"},{"sim_score":2,"rt":4442,"stimulus":"[\"img/0769/aad494cc-674d-4a08-9bfa-24a88ebe3c79.jpg\",\"img/0867/075e0f95-856b-4cbb-acf5-092393aaf04e.jpg\"]","trial_type":"similarity","trial_index":95,"time_elapsed":631579,"internal_node_id":"0.0-6.0-89.0"},{"sim_score":6,"rt":4140,"stimulus":"[\"img/0874/3ce41e7c-40c8-4d58-a546-171114521796.jpg\",\"img/0875/a4935837-7d3c-4df6-88c1-36a94d4991ca.jpg\"]","trial_type":"similarity","trial_index":96,"time_elapsed":636723,"internal_node_id":"0.0-6.0-90.0"},{"sim_score":6,"rt":3888,"stimulus":"[\"img/0864/e02eddb5-f468-499c-91bf-f7be3ffe979b.jpg\",\"img/0874/93d1f8dc-acf2-4f03-bd8d-8ec35df276ed.jpg\"]","trial_type":"similarity","trial_index":97,"time_elapsed":641615,"internal_node_id":"0.0-6.0-91.0"},{"sim_score":5,"rt":4167,"stimulus":"[\"img/0881/4bd34581-94d8-4e88-8c89-5cef864ca3be.jpg\",\"img/0862/e0f1a4e9-e1b6-45f7-af67-89f334e6630d.jpg\"]","trial_type":"similarity","trial_index":98,"time_elapsed":646785,"internal_node_id":"0.0-6.0-92.0"},{"sim_score":6,"rt":5394,"stimulus":"[\"img/0864/3651d070-2fc5-4848-b6a6-088a2d9ac5c9.jpg\",\"img/0881/344de456-b358-4887-bd0e-e4c3278af887.jpg\"]","trial_type":"similarity","trial_index":99,"time_elapsed":653183,"internal_node_id":"0.0-6.0-93.0"},{"sim_score":6,"rt":5073,"stimulus":"[\"img/0899/a048912c-b12c-40e3-90af-46b69b0cc4fe.jpg\",\"img/0901/8bb79e82-9c43-4b6f-a655-40655519598b.jpg\"]","trial_type":"similarity","trial_index":100,"time_elapsed":659259,"internal_node_id":"0.0-6.0-94.0"},{"sim_score":7,"rt":9826,"stimulus":"[\"img/0874/c0378dac-9370-439a-8b79-db27c96fb390.jpg\",\"img/0766/fd74fdbb-ea40-4f3a-a091-38d08dfd636e.jpg\"]","trial_type":"similarity","trial_index":101,"time_elapsed":670089,"internal_node_id":"0.0-6.0-95.0"},{"sim_score":2,"rt":4155,"stimulus":"[\"img/0881/84397291-bc14-4fbf-90e8-241e486ab0fe.jpg\",\"img/0899/ddf96ade-692e-4602-bd22-dedbb46401bc.jpg\"]","trial_type":"similarity","trial_index":102,"time_elapsed":675246,"internal_node_id":"0.0-6.0-96.0"},{"sim_score":2,"rt":3608,"stimulus":"[\"img/0862/1c20f772-3a51-4a80-aac0-f57dc9f86c28.jpg\",\"img/0902/40d0b6ec-3907-4573-b227-e7d8e9cad1c3.jpg\"]","trial_type":"similarity","trial_index":103,"time_elapsed":679858,"internal_node_id":"0.0-6.0-97.0"},{"sim_score":6,"rt":4054,"stimulus":"[\"img/0899/fef567a2-c121-4481-9af0-ff108d199bbf.jpg\",\"img/0764/c01e2d65-6586-441b-bef5-3c96fcd85380.jpg\"]","trial_type":"similarity","trial_index":104,"time_elapsed":684916,"internal_node_id":"0.0-6.0-98.0"},{"sim_score":5,"rt":3596,"stimulus":"[\"img/0758/20497cbe-ddae-489e-86e2-ab06985ed07c.jpg\",\"img/0862/de9ad88c-b522-430a-8ee9-eb06a9f85df5.jpg\"]","trial_type":"similarity","trial_index":105,"time_elapsed":689516,"internal_node_id":"0.0-6.0-99.0"},{"sim_score":6,"rt":5447,"stimulus":"[\"img/0764/4952d0a0-c9be-471a-8ec7-94a37bf4051d.jpg\",\"img/0898/81b08535-2020-4c15-9ce4-2f1e460755ae.jpg\"]","trial_type":"similarity","trial_index":106,"time_elapsed":695966,"internal_node_id":"0.0-6.0-100.0"},{"sim_score":6,"rt":5395,"stimulus":"[\"img/0901/1b86f2fc-7a1d-4aa8-9252-114f92edef3b.jpg\",\"img/0902/30c420f5-c714-4681-ae5a-c0ba8f636a26.jpg\"]","trial_type":"similarity","trial_index":107,"time_elapsed":702364,"internal_node_id":"0.0-6.0-101.0"},{"sim_score":2,"rt":3551,"stimulus":"[\"img/0764/958b8576-3a3b-4acc-96dc-06b74de69f37.jpg\",\"img/0868/7b212364-ff5f-4e28-9241-7eb6ea00161b.jpg\"]","trial_type":"similarity","trial_index":108,"time_elapsed":706918,"internal_node_id":"0.0-6.0-102.0"},{"sim_score":2,"rt":3746,"stimulus":"[\"img/0769/6c0bac4c-5f59-43c7-898c-3ca93cf55cfe.jpg\",\"img/0881/54ea8e77-c7e5-4197-b7fa-00b7020849a7.jpg\"]","trial_type":"similarity","trial_index":109,"time_elapsed":711668,"internal_node_id":"0.0-6.0-103.0"},{"sim_score":2,"rt":3105,"stimulus":"[\"img/0864/c3b63e8f-ea39-4d70-a1f2-b3fe4be8eb75.jpg\",\"img/0769/c7cfacc3-7f07-46ff-9f5d-8073f4c4679b.jpg\"]","trial_type":"similarity","trial_index":110,"time_elapsed":715776,"internal_node_id":"0.0-6.0-104.0"},{"sim_score":6,"rt":2938,"stimulus":"[\"img/0866/6f2a90d7-14f1-4f1b-bd64-fc0af6b9fe44.jpg\",\"img/0868/4e626425-63c8-484a-8a1d-e66ee4e0bef8.jpg\"]","trial_type":"similarity","trial_index":111,"time_elapsed":719717,"internal_node_id":"0.0-6.0-105.0"},{"sim_score":5,"rt":3060,"stimulus":"[\"img/0868/15dd6fd7-791e-4b53-b203-195d617521a4.jpg\",\"img/0862/5d887e9f-89e2-4ebc-80a0-6d46fe6480db.jpg\"]","trial_type":"similarity","trial_index":112,"time_elapsed":723781,"internal_node_id":"0.0-6.0-106.0"},{"sim_score":6,"rt":4160,"stimulus":"[\"img/0766/b84598d0-5b41-4841-88b0-b441b48289f5.jpg\",\"img/0898/b2732712-71c2-45d8-834f-2b2ed5504910.jpg\"]","trial_type":"similarity","trial_index":113,"time_elapsed":728945,"internal_node_id":"0.0-6.0-107.0"},{"sim_score":2,"rt":4378,"stimulus":"[\"img/0898/01bfe666-3510-4fc7-964f-d00d28732dc8.jpg\",\"img/0864/efcfbb1b-8197-44c9-b723-40d6c608dd3c.jpg\"]","trial_type":"similarity","trial_index":114,"time_elapsed":734327,"internal_node_id":"0.0-6.0-108.0"},{"sim_score":2,"rt":4508,"stimulus":"[\"img/0868/6a28c3b0-3d76-498a-9fb7-ddafc665eca8.jpg\",\"img/0902/8af4182a-9af9-4212-a436-9195555112d6.jpg\"]","trial_type":"similarity","trial_index":115,"time_elapsed":739840,"internal_node_id":"0.0-6.0-109.0"},{"sim_score":6,"rt":3820,"stimulus":"[\"img/0904/4b8daf2a-13a9-4ea9-9e0b-b265b6e933e7.jpg\",\"img/0764/fb7d4a20-a475-465e-a74f-aa39a0d33d16.jpg\"]","trial_type":"similarity","trial_index":116,"time_elapsed":744663,"internal_node_id":"0.0-6.0-110.0"},{"sim_score":2,"rt":3354,"stimulus":"[\"img/0894/151063aa-6472-4745-837b-36603aba5966.jpg\",\"img/0875/ebf7653f-ff45-4e9f-af58-2c042ab3cd2b.jpg\"]","trial_type":"similarity","trial_index":117,"time_elapsed":749021,"internal_node_id":"0.0-6.0-111.0"},{"sim_score":6,"rt":3500,"stimulus":"[\"img/0868/77091fc7-a590-4ebb-b915-fdb2483a2399.jpg\",\"img/0874/3f471690-9788-4d03-90c7-f615aecef149.jpg\"]","trial_type":"similarity","trial_index":118,"time_elapsed":753526,"internal_node_id":"0.0-6.0-112.0"},{"sim_score":6,"rt":4326,"stimulus":"[\"img/0904/73920552-103b-4c9c-9ece-e0b8376b4504.jpg\",\"img/0898/0af304a2-6a7a-4082-ab7c-4450cd08cc58.jpg\"]","trial_type":"similarity","trial_index":119,"time_elapsed":760537,"internal_node_id":"0.0-6.0-113.0"},{"sim_score":2,"rt":4326,"stimulus":"[\"img/0860/4c530c3c-6aab-492a-94d1-9c01797bde40.jpg\",\"img/0766/110832e5-2646-4bd0-a94e-5df8cc314269.jpg\"]","trial_type":"similarity","trial_index":120,"time_elapsed":765867,"internal_node_id":"0.0-6.0-114.0"},{"sim_score":2,"rt":3894,"stimulus":"[\"img/0894/b2d2f66e-e480-46da-a02a-6d0c6b285d78.jpg\",\"img/0874/a82926a3-0b43-4add-803c-d5f9ea7798ee.jpg\"]","trial_type":"similarity","trial_index":121,"time_elapsed":770765,"internal_node_id":"0.0-6.0-115.0"},{"sim_score":6,"rt":3896,"stimulus":"[\"img/0899/ad8268c5-8199-48d0-ad70-c5b6d6c599ec.jpg\",\"img/0903/12bd8657-92e6-4c36-a06c-597e7a1d51f3.jpg\"]","trial_type":"similarity","trial_index":122,"time_elapsed":775665,"internal_node_id":"0.0-6.0-116.0"},{"sim_score":2,"rt":2921,"stimulus":"[\"img/0881/7e31e5dc-2240-4b1b-b5a0-3acd980099ef.jpg\",\"img/0764/06ea144f-f4f3-4a14-ba47-f20f35c561e0.jpg\"]","trial_type":"similarity","trial_index":123,"time_elapsed":779588,"internal_node_id":"0.0-6.0-117.0"},{"sim_score":6,"rt":3861,"stimulus":"[\"img/0903/45e2d600-57ff-4d69-b22c-0c7896cd38f0.jpg\",\"img/0769/1ca58b80-2365-446d-9616-6c1719e6c46f.jpg\"]","trial_type":"similarity","trial_index":124,"time_elapsed":784452,"internal_node_id":"0.0-6.0-118.0"},{"sim_score":6,"rt":2770,"stimulus":"[\"img/0901/0f670aef-ac36-496d-8142-ee5fdb21dd82.jpg\",\"img/0904/9dd5708f-3f8b-46a9-b49f-2f2fab87b357.jpg\"]","trial_type":"similarity","trial_index":125,"time_elapsed":788226,"internal_node_id":"0.0-6.0-119.0"},{"sim_score":5,"rt":5404,"stimulus":"[\"img/0860/15b24a61-25be-4356-9eac-5ce95d0cb4a4.jpg\",\"img/0881/f6bd3b96-dc40-4e99-8681-bc3a35cf896d.jpg\"]","trial_type":"similarity","trial_index":126,"time_elapsed":794634,"internal_node_id":"0.0-6.0-120.0"},{"sim_score":6,"rt":3519,"stimulus":"[\"img/0758/caa93da2-9edf-49fa-96b9-32dedd8f5078.jpg\",\"img/0874/ca76a855-4e77-4f2f-872a-0a718153e7ed.jpg\"]","trial_type":"similarity","trial_index":127,"time_elapsed":799156,"internal_node_id":"0.0-6.0-121.0"},{"sim_score":6,"rt":5187,"stimulus":"[\"img/0901/4d1bed7e-3c4e-4f6c-ada9-4beb66ba9e39.jpg\",\"img/0769/180213e5-1e50-4b4e-87b6-add77ba04d39.jpg\"]","trial_type":"similarity","trial_index":128,"time_elapsed":805346,"internal_node_id":"0.0-6.0-122.0"},{"sim_score":6,"rt":4489,"stimulus":"[\"img/0902/d1083f2c-5520-44ec-81a8-3f856fbf0e80.jpg\",\"img/0904/e9423a8c-f946-43ad-ab7b-931acef870e2.jpg\"]","trial_type":"similarity","trial_index":129,"time_elapsed":810838,"internal_node_id":"0.0-6.0-123.0"},{"sim_score":2,"rt":2859,"stimulus":"[\"img/0899/4f7bc593-8ddd-4da3-a0b9-84da730d3370.jpg\",\"img/0864/5f74a653-3bdc-4308-8cca-ac667dc22e1f.jpg\"]","trial_type":"similarity","trial_index":130,"time_elapsed":814700,"internal_node_id":"0.0-6.0-124.0"},{"sim_score":2,"rt":2968,"stimulus":"[\"img/0766/a1ed3f0f-e338-4a26-8fe4-4370f0c9fa6e.jpg\",\"img/0868/d98ca254-b195-477f-b57e-5760a2717db8.jpg\"]","trial_type":"similarity","trial_index":131,"time_elapsed":818673,"internal_node_id":"0.0-6.0-125.0"},{"sim_score":2,"rt":2930,"stimulus":"[\"img/0764/b8e23f4f-ff19-4472-ad9b-2f85548ebca0.jpg\",\"img/0864/8ddd2e30-a1d0-479f-9cbe-591213023893.jpg\"]","trial_type":"similarity","trial_index":132,"time_elapsed":822607,"internal_node_id":"0.0-6.0-126.0"},{"sim_score":2,"rt":3281,"stimulus":"[\"img/0899/fd9efb43-701f-4cd6-baaa-4c38315f4bdc.jpg\",\"img/0866/f756f7d1-9ad8-4a34-9ef6-7a443d705bfe.jpg\"]","trial_type":"similarity","trial_index":133,"time_elapsed":826891,"internal_node_id":"0.0-6.0-127.0"},{"sim_score":2,"rt":2834,"stimulus":"[\"img/0901/3db47171-0139-4235-82cd-0b1787b6775f.jpg\",\"img/0881/f4e3e181-b3c9-4af2-a5a4-fc135ab70d2e.jpg\"]","trial_type":"similarity","trial_index":134,"time_elapsed":830730,"internal_node_id":"0.0-6.0-128.0"},{"sim_score":6,"rt":4318,"stimulus":"[\"img/0898/6cd3830b-d44e-4915-be2b-88d31424b91c.jpg\",\"img/0903/6138142e-c84e-45fc-9487-c974f3d4968a.jpg\"]","trial_type":"similarity","trial_index":135,"time_elapsed":836052,"internal_node_id":"0.0-6.0-129.0"},{"sim_score":2,"rt":2936,"stimulus":"[\"img/0894/5c7677b0-a4f1-479e-b274-7822c415175a.jpg\",\"img/0867/c71dc569-f49c-4397-8381-68b8d726736d.jpg\"]","trial_type":"similarity","trial_index":136,"time_elapsed":839991,"internal_node_id":"0.0-6.0-130.0"},{"sim_score":2,"rt":2670,"stimulus":"[\"img/0874/8cdb1c07-1c32-46d2-981c-3636560fa6e5.jpg\",\"img/0903/647ce311-8c71-479a-8361-961db1457139.jpg\"]","trial_type":"similarity","trial_index":137,"time_elapsed":843665,"internal_node_id":"0.0-6.0-131.0"},{"sim_score":6,"rt":3406,"stimulus":"[\"img/0899/b45c550b-96c3-4255-ad59-48a2b4db1c1e.jpg\",\"img/0898/68476bbb-34a1-42d9-8bc1-deab783d4489.jpg\"]","trial_type":"similarity","trial_index":138,"time_elapsed":848075,"internal_node_id":"0.0-6.0-132.0"},{"sim_score":2,"rt":3329,"stimulus":"[\"img/0867/db7e032f-162b-46f5-ae67-2b29679adee4.jpg\",\"img/0764/cffc80b0-4a90-4acb-a530-6f480f3ca303.jpg\"]","trial_type":"similarity","trial_index":139,"time_elapsed":852407,"internal_node_id":"0.0-6.0-133.0"},{"sim_score":2,"rt":3272,"stimulus":"[\"img/0866/0207e9a2-7dbb-40b5-9459-b472aaeceb2a.jpg\",\"img/0769/48a1144d-fbda-4809-991b-fc8424a32ee4.jpg\"]","trial_type":"similarity","trial_index":140,"time_elapsed":856683,"internal_node_id":"0.0-6.0-134.0"},{"sim_score":2,"rt":3106,"stimulus":"[\"img/0860/c5ccd1a4-4bb7-48e1-9b25-72cfaf06909b.jpg\",\"img/0898/f3a3f225-1248-4ac7-b93b-f0ff28485bf3.jpg\"]","trial_type":"similarity","trial_index":141,"time_elapsed":860791,"internal_node_id":"0.0-6.0-135.0"},{"sim_score":2,"rt":2648,"stimulus":"[\"img/0881/1407b85b-a1c6-45b1-9884-3b24203efadb.jpg\",\"img/0903/365f176c-25a4-4973-bd3c-279bf1b39476.jpg\"]","trial_type":"similarity","trial_index":142,"time_elapsed":864443,"internal_node_id":"0.0-6.0-136.0"},{"sim_score":7,"rt":5204,"stimulus":"[\"img/0894/1b3888e6-cf36-4c4a-a039-187aa5cb71ac.jpg\",\"img/0766/535849cc-ff5d-4df9-8f31-0ce94a97d571.jpg\"]","trial_type":"similarity","trial_index":143,"time_elapsed":870650,"internal_node_id":"0.0-6.0-137.0"},{"sim_score":2,"rt":3956,"stimulus":"[\"img/0860/99c589b9-9140-4d17-90c0-b344323edcda.jpg\",\"img/0764/c80b3e06-2ee3-4326-9678-340607eb5348.jpg\"]","trial_type":"similarity","trial_index":144,"time_elapsed":875610,"internal_node_id":"0.0-6.0-138.0"},{"sim_score":6,"rt":4286,"stimulus":"[\"img/0769/7c50e5f5-cc38-4d48-b009-fbe17bcea61c.jpg\",\"img/0902/10d99c89-71f7-4c81-a31e-dfc7c59f5232.jpg\"]","trial_type":"similarity","trial_index":145,"time_elapsed":880900,"internal_node_id":"0.0-6.0-139.0"},{"sim_score":6,"rt":5202,"stimulus":"[\"img/0904/4e58005d-a2ec-4aaa-b199-445343561396.jpg\",\"img/0903/e2e55a9e-0397-4dc0-8adf-4a54cfefe1fe.jpg\"]","trial_type":"similarity","trial_index":146,"time_elapsed":887106,"internal_node_id":"0.0-6.0-140.0"},{"sim_score":6,"rt":5212,"stimulus":"[\"img/0764/a3226bc4-dcc3-4608-bde8-1414d685ce5c.jpg\",\"img/0769/f2740c58-7c02-433f-920b-746b0b75435b.jpg\"]","trial_type":"similarity","trial_index":147,"time_elapsed":893322,"internal_node_id":"0.0-6.0-141.0"},{"sim_score":2,"rt":3432,"stimulus":"[\"img/0902/97022122-01e4-46c3-a34f-c6260ad28428.jpg\",\"img/0881/14236cf2-6b95-48b8-9368-78af09d2d27f.jpg\"]","trial_type":"similarity","trial_index":148,"time_elapsed":897758,"internal_node_id":"0.0-6.0-142.0"},{"sim_score":6,"rt":4244,"stimulus":"[\"img/0866/8efcaa46-83ab-4dee-a35f-850402aa21ae.jpg\",\"img/0864/1ebbc554-99fa-49f9-8799-317375a79820.jpg\"]","trial_type":"similarity","trial_index":149,"time_elapsed":903004,"internal_node_id":"0.0-6.0-143.0"},{"sim_score":6,"rt":3956,"stimulus":"[\"img/0902/95a36b6b-9601-4fa5-8fd9-606ea62f9425.jpg\",\"img/0898/a114b375-cb89-44ba-9498-74213f1ecdee.jpg\"]","trial_type":"similarity","trial_index":150,"time_elapsed":907964,"internal_node_id":"0.0-6.0-144.0"},{"sim_score":5,"rt":3056,"stimulus":"[\"img/0862/eefa5588-9efd-4591-aa5f-a2e17c7d7bcc.jpg\",\"img/0864/a248adb3-c70b-4652-b7a3-776d2a1e904b.jpg\"]","trial_type":"similarity","trial_index":151,"time_elapsed":912024,"internal_node_id":"0.0-6.0-145.0"},{"sim_score":2,"rt":2868,"stimulus":"[\"img/0875/2c361b79-c3d1-4eda-812e-bf03192407bf.jpg\",\"img/0898/5f699581-3853-4547-856c-12f419ba5af7.jpg\"]","trial_type":"similarity","trial_index":152,"time_elapsed":915896,"internal_node_id":"0.0-6.0-146.0"},{"sim_score":7,"rt":5028,"stimulus":"[\"img/0874/1016b306-087c-4afc-aa08-fa527b28dc76.jpg\",\"img/0881/445edb15-bd7f-4af3-8bd5-c6ad9677bb31.jpg\"]","trial_type":"similarity","trial_index":153,"time_elapsed":921927,"internal_node_id":"0.0-6.0-147.0"},{"sim_score":2,"rt":2884,"stimulus":"[\"img/0758/67c0be2f-9e91-48b3-8219-70ac0a1802fa.jpg\",\"img/0894/5a49e858-2850-4892-9a06-e9f0efb5f94d.jpg\"]","trial_type":"similarity","trial_index":154,"time_elapsed":925815,"internal_node_id":"0.0-6.0-148.0"},{"sim_score":2,"rt":4338,"stimulus":"[\"img/0904/56e73f28-7e64-489b-a161-e6b1a063878d.jpg\",\"img/0864/afcba0a3-7e27-4757-b254-e9f05fad27e2.jpg\"]","trial_type":"similarity","trial_index":155,"time_elapsed":931157,"internal_node_id":"0.0-6.0-149.0"},{"sim_score":6,"rt":4346,"stimulus":"[\"img/0769/bb8c4e53-6f32-4814-97ee-392d4decfb2e.jpg\",\"img/0899/57476fed-5962-4272-8fc9-b317bb777b54.jpg\"]","trial_type":"similarity","trial_index":156,"time_elapsed":936507,"internal_node_id":"0.0-6.0-150.0"},{"sim_score":6,"rt":4128,"stimulus":"[\"img/0764/5c8fbafc-e62e-43ed-9b37-f73e8e45147d.jpg\",\"img/0903/5248eedd-7e6a-4d39-91b0-06ec227f3ed0.jpg\"]","trial_type":"similarity","trial_index":157,"time_elapsed":944539,"internal_node_id":"0.0-6.0-151.0"},{"sim_score":2,"rt":3200,"stimulus":"[\"img/0903/3e9ee8a5-eb66-47f5-8973-8a5af1ddc87e.jpg\",\"img/0864/6f631579-acf1-415c-a42c-1207f62a8d99.jpg\"]","trial_type":"similarity","trial_index":158,"time_elapsed":948743,"internal_node_id":"0.0-6.0-152.0"},{"sim_score":2,"rt":5073,"stimulus":"[\"img/0894/2217bdcd-23a7-42d3-823b-23f2488d7e87.jpg\",\"img/0881/c24f3051-eefa-42de-aba6-fccb56d93c70.jpg\"]","trial_type":"similarity","trial_index":159,"time_elapsed":954819,"internal_node_id":"0.0-6.0-153.0"},{"sim_score":6,"rt":5315,"stimulus":"[\"img/0875/03c3c331-738b-4446-af92-3d7386b08c2e.jpg\",\"img/0867/7d1c497b-c1b3-4ed8-abb5-d7f73306015f.jpg\"]","trial_type":"similarity","trial_index":160,"time_elapsed":961139,"internal_node_id":"0.0-6.0-154.0"},{"sim_score":6,"rt":3458,"stimulus":"[\"img/0867/f26f6b60-f772-4f4c-95a4-addc62cfd692.jpg\",\"img/0758/9fb5b2fe-3f00-4fe6-973c-1ce10d5f4cd5.jpg\"]","trial_type":"similarity","trial_index":161,"time_elapsed":965601,"internal_node_id":"0.0-6.0-155.0"},{"sim_score":2,"rt":2731,"stimulus":"[\"img/0868/3a62db2d-97e9-44a3-b8e3-a48c6f0e423b.jpg\",\"img/0901/f1116359-1ff1-4638-b3b3-700918d36d18.jpg\"]","trial_type":"similarity","trial_index":162,"time_elapsed":969336,"internal_node_id":"0.0-6.0-156.0"},{"sim_score":6,"rt":5172,"stimulus":"[\"img/0769/688d0c52-ad73-4065-a5eb-f8c10d076bff.jpg\",\"img/0894/6aa5545f-fa7d-4286-bbaa-aaf34dc7ec96.jpg\"]","trial_type":"similarity","trial_index":163,"time_elapsed":975513,"internal_node_id":"0.0-6.0-157.0"},{"sim_score":2,"rt":2802,"stimulus":"[\"img/0904/da170c1b-9651-4f08-b231-2bdd1d9a046f.jpg\",\"img/0758/2fa3e613-e676-4e6e-bd12-705327eeb3e1.jpg\"]","trial_type":"similarity","trial_index":164,"time_elapsed":979319,"internal_node_id":"0.0-6.0-158.0"},{"sim_score":2,"rt":3803,"stimulus":"[\"img/0874/a3bc679d-619f-4db6-bb68-116dcb757d9c.jpg\",\"img/0904/25365108-e038-4021-aac9-797f2063b337.jpg\"]","trial_type":"similarity","trial_index":165,"time_elapsed":984124,"internal_node_id":"0.0-6.0-159.0"},{"sim_score":2,"rt":3015,"stimulus":"[\"img/0864/5f33e097-23e3-4002-882d-76e8cb15f451.jpg\",\"img/0901/5657dd86-0ff9-4753-ba2b-9dfb223e5c89.jpg\"]","trial_type":"similarity","trial_index":166,"time_elapsed":988142,"internal_node_id":"0.0-6.0-160.0"},{"sim_score":2,"rt":3120,"stimulus":"[\"img/0898/0c7dde4f-efce-4b7a-9387-6921635b7890.jpg\",\"img/0866/93a27239-8317-4e08-98ca-d8b1ff298e07.jpg\"]","trial_type":"similarity","trial_index":167,"time_elapsed":992266,"internal_node_id":"0.0-6.0-161.0"},{"sim_score":6,"rt":4023,"stimulus":"[\"img/0766/26d3ae14-8275-4e08-99b2-a6598c193ddf.jpg\",\"img/0903/5c6b1f57-b3a2-40f5-9fb1-82785e24b6a0.jpg\"]","trial_type":"similarity","trial_index":168,"time_elapsed":997292,"internal_node_id":"0.0-6.0-162.0"},{"sim_score":2,"rt":5305,"stimulus":"[\"img/0860/fd4662f9-4c03-4d79-8593-06735e55a64b.jpg\",\"img/0899/1b3457ea-87d4-4946-a01c-aac1863ed46c.jpg\"]","trial_type":"similarity","trial_index":169,"time_elapsed":1003600,"internal_node_id":"0.0-6.0-163.0"},{"sim_score":2,"rt":3576,"stimulus":"[\"img/0766/d919cedb-f9b7-4f30-83bb-3e9c65001ceb.jpg\",\"img/0862/47ed5efd-4ec9-4b74-bb4e-a5f5cf0c3e7d.jpg\"]","trial_type":"similarity","trial_index":170,"time_elapsed":1008179,"internal_node_id":"0.0-6.0-164.0"},{"sim_score":6,"rt":4842,"stimulus":"[\"img/0898/ec565187-2e31-4fdd-9a5c-153d0c789ae0.jpg\",\"img/0894/05161000-f476-499b-a878-c13c7f347fd9.jpg\"]","trial_type":"similarity","trial_index":171,"time_elapsed":1014026,"internal_node_id":"0.0-6.0-165.0"},{"sim_score":2,"rt":3137,"stimulus":"[\"img/0867/179ab87a-8eac-4c52-a41f-2e48e3120f09.jpg\",\"img/0766/214866ee-423d-4629-9bb9-41572bdc7dac.jpg\"]","trial_type":"similarity","trial_index":172,"time_elapsed":1018165,"internal_node_id":"0.0-6.0-166.0"},{"sim_score":2,"rt":3344,"stimulus":"[\"img/0904/4d7d70a3-9477-4921-bda0-f9531d0a5c5b.jpg\",\"img/0862/f43ceabf-acc1-4107-b857-5d1849808f93.jpg\"]","trial_type":"similarity","trial_index":173,"time_elapsed":1022513,"internal_node_id":"0.0-6.0-167.0"},{"sim_score":6,"rt":3951,"stimulus":"[\"img/0866/d493a2c8-66eb-44b4-be02-2f327b700b7c.jpg\",\"img/0874/eba003b4-cdab-4eee-8bc3-f064c7d94165.jpg\"]","trial_type":"similarity","trial_index":174,"time_elapsed":1027467,"internal_node_id":"0.0-6.0-168.0"},{"sim_score":2,"rt":2822,"stimulus":"[\"img/0903/470acfd5-5571-4a7b-b3a4-28d87e098138.jpg\",\"img/0868/1a62b2b2-18f5-466e-b564-5176a57c565e.jpg\"]","trial_type":"similarity","trial_index":175,"time_elapsed":1031294,"internal_node_id":"0.0-6.0-169.0"},{"sim_score":6,"rt":4020,"stimulus":"[\"img/0769/f73c5138-2f4c-4354-981c-129dff9cc734.jpg\",\"img/0904/60d1a521-edf7-4696-9263-f21ac0e62a01.jpg\"]","trial_type":"similarity","trial_index":176,"time_elapsed":1036317,"internal_node_id":"0.0-6.0-170.0"},{"sim_score":2,"rt":2857,"stimulus":"[\"img/0875/fb732ab5-013a-4366-9f65-27811ed157e9.jpg\",\"img/0764/39a9fc7e-b863-432c-9374-de43983f31a5.jpg\"]","trial_type":"similarity","trial_index":177,"time_elapsed":1040177,"internal_node_id":"0.0-6.0-171.0"},{"sim_score":2,"rt":3876,"stimulus":"[\"img/0860/4a022222-056d-461c-ab02-39fac9647552.jpg\",\"img/0903/b0a3c45f-467e-412f-a183-c9c1827f2e63.jpg\"]","trial_type":"similarity","trial_index":178,"time_elapsed":1045058,"internal_node_id":"0.0-6.0-172.0"},{"sim_score":6,"rt":3706,"stimulus":"[\"img/0864/ef9cbca0-4be8-435d-ad49-977259e80409.jpg\",\"img/0867/aa05d113-fc19-4756-a8eb-7878f580bc92.jpg\"]","trial_type":"similarity","trial_index":179,"time_elapsed":1049767,"internal_node_id":"0.0-6.0-173.0"},{"sim_score":6,"rt":4357,"stimulus":"[\"img/0868/293079b8-7e0c-4afd-a390-1e5d35fe3ded.jpg\",\"img/0864/300bb811-8b3c-4c42-8653-6097c3725197.jpg\"]","trial_type":"similarity","trial_index":180,"time_elapsed":1055126,"internal_node_id":"0.0-6.0-174.0"},{"sim_score":6,"rt":4526,"stimulus":"[\"img/0898/8605a25b-6895-476d-8c13-df7a83f96093.jpg\",\"img/0769/35f2dd39-40aa-498e-b401-9f1ef2622d00.jpg\"]","trial_type":"similarity","trial_index":181,"time_elapsed":1060656,"internal_node_id":"0.0-6.0-175.0"},{"sim_score":6,"rt":4167,"stimulus":"[\"img/0766/fd064894-7147-4af5-97e9-2089d5472656.jpg\",\"img/0764/21e3292f-01ad-4238-828b-61b817857d16.jpg\"]","trial_type":"similarity","trial_index":182,"time_elapsed":1065826,"internal_node_id":"0.0-6.0-176.0"},{"sim_score":2,"rt":3032,"stimulus":"[\"img/0764/f2f23359-8e82-41d3-8900-5b9f4433991d.jpg\",\"img/0866/945c6710-d15b-4a5b-a8f6-69af0850357f.jpg\"]","trial_type":"similarity","trial_index":183,"time_elapsed":1069863,"internal_node_id":"0.0-6.0-177.0"},{"sim_score":2,"rt":4161,"stimulus":"[\"img/0902/07437a16-3d0f-4a5c-89ec-36d0efa4b3b8.jpg\",\"img/0875/527ced51-8e53-4aab-ab05-86df219104c0.jpg\"]","trial_type":"similarity","trial_index":184,"time_elapsed":1075026,"internal_node_id":"0.0-6.0-178.0"},{"sim_score":2,"rt":2951,"stimulus":"[\"img/0881/609a5e93-38b5-4940-8627-2bf8fad7f802.jpg\",\"img/0904/2f88ce53-02d0-4f95-a082-182c56a0eeb4.jpg\"]","trial_type":"similarity","trial_index":185,"time_elapsed":1078980,"internal_node_id":"0.0-6.0-179.0"},{"sim_score":6,"rt":3659,"stimulus":"[\"img/0874/995f0332-0439-4eb4-add3-957335dbf6d9.jpg\",\"img/0860/31ff6436-98bf-4652-bed2-40f627229568.jpg\"]","trial_type":"similarity","trial_index":186,"time_elapsed":1083642,"internal_node_id":"0.0-6.0-180.0"},{"sim_score":2,"rt":3378,"stimulus":"[\"img/0769/47700831-0ca2-4fdd-a498-a3bc5a528f43.jpg\",\"img/0874/767f289c-9814-4496-803f-745cc8913d1f.jpg\"]","trial_type":"similarity","trial_index":187,"time_elapsed":1088024,"internal_node_id":"0.0-6.0-181.0"},{"sim_score":6,"rt":4417,"stimulus":"[\"img/0904/b5855d6a-7ef9-46ca-9215-6e9fa046e543.jpg\",\"img/0766/69e486f7-dbef-456b-9d48-53d814248a28.jpg\"]","trial_type":"similarity","trial_index":188,"time_elapsed":1093444,"internal_node_id":"0.0-6.0-182.0"},{"sim_score":6,"rt":6270,"stimulus":"[\"img/0902/cf9dee9c-2bdf-4d64-9302-97f1660fe52c.jpg\",\"img/0764/e0788029-9d7f-414c-b747-46d2a99f7c86.jpg\"]","trial_type":"similarity","trial_index":189,"time_elapsed":1100718,"internal_node_id":"0.0-6.0-183.0"},{"sim_score":2,"rt":3951,"stimulus":"[\"img/0769/a3cfbdeb-acb3-4eac-87fb-4b117f42d4f8.jpg\",\"img/0875/8521fd58-3b1e-4dc5-97ae-804edfa6734a.jpg\"]","trial_type":"similarity","trial_index":190,"time_elapsed":1105674,"internal_node_id":"0.0-6.0-184.0"},{"sim_score":2,"rt":3248,"stimulus":"[\"img/0867/cc72ed48-7704-422c-86d6-467a1145287a.jpg\",\"img/0903/776b74ee-a8ab-4ab8-a78d-097c0747538d.jpg\"]","trial_type":"similarity","trial_index":191,"time_elapsed":1109926,"internal_node_id":"0.0-6.0-185.0"},{"sim_score":2,"rt":2750,"stimulus":"[\"img/0862/cdaed51d-9e2f-4807-801a-4663c40077e2.jpg\",\"img/0769/91acb237-65a3-4d0b-9748-af5c7b83d3c7.jpg\"]","trial_type":"similarity","trial_index":192,"time_elapsed":1113679,"internal_node_id":"0.0-6.0-186.0"},{"sim_score":2,"rt":2999,"stimulus":"[\"img/0766/dd3e18d0-0c98-4d05-b850-69976ee8cd75.jpg\",\"img/0866/be24ab58-230e-4db8-9f45-ff04c9aec6bb.jpg\"]","trial_type":"similarity","trial_index":193,"time_elapsed":1117684,"internal_node_id":"0.0-6.0-187.0"},{"sim_score":2,"rt":2658,"stimulus":"[\"img/0769/82ab9db6-4578-4e79-874f-f09100439f09.jpg\",\"img/0860/29a21a9f-54bb-4093-ad3f-04823ceaa89f.jpg\"]","trial_type":"similarity","trial_index":194,"time_elapsed":1121345,"internal_node_id":"0.0-6.0-188.0"},{"sim_score":6,"rt":2920,"stimulus":"[\"img/0881/62a64f90-7a72-4aee-a1a1-0c548ac9bdda.jpg\",\"img/0868/4a8a45ed-2c4f-421b-9564-409a33ecd26c.jpg\"]","trial_type":"similarity","trial_index":195,"time_elapsed":1128085,"internal_node_id":"0.0-6.0-189.0"},{"view_history":"[{\"page_index\":0,\"viewing_time\":4793}]","rt":4794,"trial_type":"instructions","trial_index":196,"time_elapsed":1133880,"internal_node_id":"0.0-7.0"},{"rt":60234,"responses":"{\"Q0\":\"Orange-crowned Warbler\"}","answer":["Nashville Warbler"],"trial_type":"image-multi-choice","trial_index":197,"time_elapsed":1195128,"internal_node_id":"0.0-8.0-0.0"},{"rt":7124,"responses":"{\"Q0\":\"Black-and-white Warbler\"}","answer":["Black-and-white Warbler"],"trial_type":"image-multi-choice","trial_index":198,"time_elapsed":1203261,"internal_node_id":"0.0-8.0-1.0"},{"rt":15003,"responses":"{\"Q0\":\"Townsend's Warbler\"}","answer":["Townsend's Warbler"],"trial_type":"image-multi-choice","trial_index":199,"time_elapsed":1219272,"internal_node_id":"0.0-8.0-2.0"},{"rt":5313,"responses":"{\"Q0\":\"Lark Sparrow\"}","answer":["Lark Sparrow"],"trial_type":"image-multi-choice","trial_index":200,"time_elapsed":1225594,"internal_node_id":"0.0-8.0-3.0"},{"rt":3553,"responses":"{\"Q0\":\"Yellow Warbler\"}","answer":["Yellow Warbler"],"trial_type":"image-multi-choice","trial_index":201,"time_elapsed":1230158,"internal_node_id":"0.0-8.0-4.0"},{"rt":17386,"responses":"{\"Q0\":\"Orange-crowned Warbler\"}","answer":["Orange-crowned Warbler"],"trial_type":"image-multi-choice","trial_index":202,"time_elapsed":1248552,"internal_node_id":"0.0-8.0-5.0"},{"rt":3993,"responses":"{\"Q0\":\"White-throated Sparrow\"}","answer":["White-throated Sparrow"],"trial_type":"image-multi-choice","trial_index":203,"time_elapsed":1253554,"internal_node_id":"0.0-8.0-6.0"},{"rt":4792,"responses":"{\"Q0\":\"Fox Sparrow\"}","answer":["Fox Sparrow"],"trial_type":"image-multi-choice","trial_index":204,"time_elapsed":1259353,"internal_node_id":"0.0-8.0-7.0"},{"rt":9530,"responses":"{\"Q0\":\"Song Sparrow\"}","answer":["Song Sparrow"],"trial_type":"image-multi-choice","trial_index":205,"time_elapsed":1269893,"internal_node_id":"0.0-8.0-8.0"},{"rt":4440,"responses":"{\"Q0\":\"Blackburnian Warbler\"}","answer":["Blackburnian Warbler"],"trial_type":"image-multi-choice","trial_index":206,"time_elapsed":1275343,"internal_node_id":"0.0-8.0-9.0"},{"rt":7030,"responses":"{\"Q0\":\"Vesper Sparrow\"}","answer":["Vesper Sparrow"],"trial_type":"image-multi-choice","trial_index":207,"time_elapsed":1283383,"internal_node_id":"0.0-8.0-10.0"},{"rt":3243,"responses":"{\"Q0\":\"White-crowned Sparrow\"}","answer":["White-crowned Sparrow"],"trial_type":"image-multi-choice","trial_index":208,"time_elapsed":1287634,"internal_node_id":"0.0-8.0-11.0"},{"rt":5475,"responses":"{\"Q0\":\"American Tree Sparrow\"}","answer":["American Tree Sparrow"],"trial_type":"image-multi-choice","trial_index":209,"time_elapsed":1294119,"internal_node_id":"0.0-8.0-12.0"},{"rt":29667,"responses":"{\"Q0\":\"Tennessee Warbler\"}","answer":["Tennessee Warbler"],"trial_type":"image-multi-choice","trial_index":210,"time_elapsed":1324796,"internal_node_id":"0.0-8.0-13.0"},{"rt":16793,"responses":"{\"Q0\":\"Magnolia Warbler\"}","answer":["Magnolia Warbler"],"trial_type":"image-multi-choice","trial_index":211,"time_elapsed":1342598,"internal_node_id":"0.0-8.0-14.0"},{"rt":11316,"responses":"{\"Q0\":\"Northern Waterthrush\"}","answer":["Northern Waterthrush"],"trial_type":"image-multi-choice","trial_index":212,"time_elapsed":1354922,"internal_node_id":"0.0-8.0-15.0"},{"rt":11789,"responses":"{\"Q0\":\"Chipping Sparrow\"}","answer":["Chipping Sparrow"],"trial_type":"image-multi-choice","trial_index":213,"time_elapsed":1367719,"internal_node_id":"0.0-8.0-16.0"},{"rt":5981,"responses":"{\"Q0\":\"Lincoln's Sparrow\"}","answer":["Swamp Sparrow"],"trial_type":"image-multi-choice","trial_index":214,"time_elapsed":1374709,"internal_node_id":"0.0-8.0-17.0"},{"rt":11635,"responses":"{\"Q0\":\"Lincoln's Sparrow\"}","answer":["Lincoln's Sparrow"],"trial_type":"image-multi-choice","trial_index":215,"time_elapsed":1387354,"internal_node_id":"0.0-8.0-18.0"},{"rt":17055,"responses":"{\"Q0\":\"Ovenbird\"}","answer":["Ovenbird"],"trial_type":"image-multi-choice","trial_index":216,"time_elapsed":1405420,"internal_node_id":"0.0-8.0-19.0"}]