[{"view_history":"[{\"page_index\":0,\"viewing_time\":27911}]","rt":27911,"trial_type":"instructions","trial_index":0,"time_elapsed":27912,"internal_node_id":"0.0-0.0"},{"sim_score":7,"rt":5607,"stimulus":"[\"img/bluejay1.jpg\",\"img/bluejay2.jpg\"]","trial_type":"similarity_demo","trial_index":1,"time_elapsed":34527,"internal_node_id":"0.0-1.0"},{"view_history":"[{\"page_index\":0,\"viewing_time\":10943}]","rt":10943,"trial_type":"instructions","trial_index":2,"time_elapsed":46472,"internal_node_id":"0.0-2.0"},{"sim_score":1,"rt":5555,"stimulus":"[\"img/bluejay1.jpg\",\"img/cardinal1.jpg\"]","trial_type":"similarity_demo","trial_index":3,"time_elapsed":53032,"internal_node_id":"0.0-3.0"},{"view_history":"[{\"page_index\":0,\"viewing_time\":9369}]","rt":9369,"trial_type":"instructions","trial_index":4,"time_elapsed":63403,"internal_node_id":"0.0-4.0"},{"view_history":"[{\"page_index\":0,\"viewing_time\":36504}]","rt":36505,"trial_type":"instructions","trial_index":5,"time_elapsed":100912,"internal_node_id":"0.0-5.0"},{"sim_score":3,"rt":5444,"stimulus":"[\"img/0868/4bd5105a-d2c3-4f82-8c80-57196106ba53.jpg\",\"img/0894/43216a7f-27bc-4b5a-8841-d122a30da9d9.jpg\"]","trial_type":"similarity","trial_index":6,"time_elapsed":107359,"internal_node_id":"0.0-6.0-0.0"},{"sim_score":1,"rt":3741,"stimulus":"[\"img/0898/224c1572-56b9-4f16-a9e4-6f3bc9c114bd.jpg\",\"img/0758/67c0be2f-9e91-48b3-8219-70ac0a1802fa.jpg\"]","trial_type":"similarity","trial_index":7,"time_elapsed":112106,"internal_node_id":"0.0-6.0-1.0"},{"sim_score":6,"rt":5843,"stimulus":"[\"img/0903/39365c8e-a733-4801-ac7d-b87e38c3784b.jpg\",\"img/0894/a3d4170b-b7d8-40e3-955f-87e76ed745fc.jpg\"]","trial_type":"similarity","trial_index":8,"time_elapsed":118957,"internal_node_id":"0.0-6.0-2.0"},{"sim_score":2,"rt":4069,"stimulus":"[\"img/0881/4bd34581-94d8-4e88-8c89-5cef864ca3be.jpg\",\"img/0766/d14acac4-7db1-4b07-8f8f-302437326fc0.jpg\"]","trial_type":"similarity","trial_index":9,"time_elapsed":124031,"internal_node_id":"0.0-6.0-3.0"},{"sim_score":5,"rt":3743,"stimulus":"[\"img/0864/5f74a653-3bdc-4308-8cca-ac667dc22e1f.jpg\",\"img/0860/31ff6436-98bf-4652-bed2-40f627229568.jpg\"]","trial_type":"similarity","trial_index":10,"time_elapsed":128779,"internal_node_id":"0.0-6.0-4.0"},{"sim_score":3,"rt":5294,"stimulus":"[\"img/0902/d49743d6-67ae-4c2e-a939-8fd895a0f18e.jpg\",\"img/0899/0433d056-aa30-4f8a-9aa1-abbb951e4edd.jpg\"]","trial_type":"similarity","trial_index":11,"time_elapsed":135079,"internal_node_id":"0.0-6.0-5.0"},{"sim_score":1,"rt":4618,"stimulus":"[\"img/0868/4e626425-63c8-484a-8a1d-e66ee4e0bef8.jpg\",\"img/0769/47700831-0ca2-4fdd-a498-a3bc5a528f43.jpg\"]","trial_type":"similarity","trial_index":12,"time_elapsed":140705,"internal_node_id":"0.0-6.0-6.0"},{"sim_score":5,"rt":6068,"stimulus":"[\"img/0764/ba0c0955-acbb-457d-b1c2-f006b88121d5.jpg\",\"img/0901/bc47e078-bda4-40ed-b89a-bbd819164b95.jpg\"]","trial_type":"similarity","trial_index":13,"time_elapsed":147780,"internal_node_id":"0.0-6.0-7.0"},{"sim_score":3,"rt":5185,"stimulus":"[\"img/0881/c24f3051-eefa-42de-aba6-fccb56d93c70.jpg\",\"img/0866/0207e9a2-7dbb-40b5-9459-b472aaeceb2a.jpg\"]","trial_type":"similarity","trial_index":14,"time_elapsed":153968,"internal_node_id":"0.0-6.0-8.0"},{"sim_score":1,"rt":4937,"stimulus":"[\"img/0867/8ba0c5a7-c7e4-42cf-a80a-543763b90779.jpg\",\"img/0899/56a605c3-d0a2-4215-89e1-779279d85a7c.jpg\"]","trial_type":"similarity","trial_index":15,"time_elapsed":159908,"internal_node_id":"0.0-6.0-9.0"},{"sim_score":1,"rt":4101,"stimulus":"[\"img/0875/ebf7653f-ff45-4e9f-af58-2c042ab3cd2b.jpg\",\"img/0766/fd74fdbb-ea40-4f3a-a091-38d08dfd636e.jpg\"]","trial_type":"similarity","trial_index":16,"time_elapsed":165015,"internal_node_id":"0.0-6.0-10.0"},{"sim_score":3,"rt":5250,"stimulus":"[\"img/0901/a0d65c84-3f20-476a-92d1-0c01e8019cf4.jpg\",\"img/0875/2e13d160-eea1-416b-aff1-d37ab99ecc1d.jpg\"]","trial_type":"similarity","trial_index":17,"time_elapsed":171270,"internal_node_id":"0.0-6.0-11.0"},{"sim_score":2,"rt":5116,"stimulus":"[\"img/0902/0eb85fbc-27c8-41df-9d0b-a5f9efd417d1.jpg\",\"img/0860/71e1aad0-2cdf-43bb-94a4-a8c016997c30.jpg\"]","trial_type":"similarity","trial_index":18,"time_elapsed":177390,"internal_node_id":"0.0-6.0-12.0"},{"sim_score":6,"rt":4882,"stimulus":"[\"img/0874/99f6563c-8a8d-4c1c-a41d-667b618c3fd5.jpg\",\"img/0867/c66898ba-b71b-4d50-84f9-f7f84853a98d.jpg\"]","trial_type":"similarity","trial_index":19,"time_elapsed":183273,"internal_node_id":"0.0-6.0-13.0"},{"sim_score":1,"rt":5262,"stimulus":"[\"img/0904/24fc38fe-842c-4831-ad8a-b1de5c25c0a8.jpg\",\"img/0866/d266fece-59b3-46fa-b69f-96f6efb81b59.jpg\"]","trial_type":"similarity","trial_index":20,"time_elapsed":189540,"internal_node_id":"0.0-6.0-14.0"},{"sim_score":6,"rt":6231,"stimulus":"[\"img/0758/dd559618-7f09-4a07-8018-d311c4a5ea29.jpg\",\"img/0902/94198618-7047-4dc9-ad04-85f4ba913067.jpg\"]","trial_type":"similarity","trial_index":21,"time_elapsed":196774,"internal_node_id":"0.0-6.0-15.0"},{"sim_score":2,"rt":7825,"stimulus":"[\"img/0867/db7e032f-162b-46f5-ae67-2b29679adee4.jpg\",\"img/0898/8605a25b-6895-476d-8c13-df7a83f96093.jpg\"]","trial_type":"similarity","trial_index":22,"time_elapsed":205605,"internal_node_id":"0.0-6.0-16.0"},{"sim_score":2,"rt":4419,"stimulus":"[\"img/0904/09934646-45d2-4147-8fec-64a22a5ac822.jpg\",\"img/0868/09a9ef4d-d000-4cfa-a6aa-ebec7c2edeb4.jpg\"]","trial_type":"similarity","trial_index":23,"time_elapsed":211028,"internal_node_id":"0.0-6.0-17.0"},{"sim_score":1,"rt":2890,"stimulus":"[\"img/0766/2746b119-4bba-463e-acf0-88136dc6600c.jpg\",\"img/0864/1ebbc554-99fa-49f9-8799-317375a79820.jpg\"]","trial_type":"similarity","trial_index":24,"time_elapsed":214920,"internal_node_id":"0.0-6.0-18.0"},{"sim_score":5,"rt":3844,"stimulus":"[\"img/0899/f95cbdb4-f804-4f5d-ad76-373ad343e658.jpg\",\"img/0766/f011ef45-fb48-44b8-8224-867ed2ccf786.jpg\"]","trial_type":"similarity","trial_index":25,"time_elapsed":219769,"internal_node_id":"0.0-6.0-19.0"},{"sim_score":1,"rt":3250,"stimulus":"[\"img/0764/f713847b-4832-42d1-8fb3-e17e37fd745c.jpg\",\"img/0758/a709631e-3705-4725-ac40-f0d916924f08.jpg\"]","trial_type":"similarity","trial_index":26,"time_elapsed":224022,"internal_node_id":"0.0-6.0-20.0"},{"sim_score":1,"rt":2831,"stimulus":"[\"img/0901/62315ff5-ed95-46b4-b099-92552079659b.jpg\",\"img/0874/7e4f2150-3b59-4a36-b5da-a4e0ba410531.jpg\"]","trial_type":"similarity","trial_index":27,"time_elapsed":227858,"internal_node_id":"0.0-6.0-21.0"},{"sim_score":6,"rt":3629,"stimulus":"[\"img/0875/cff79b3a-a797-4393-9757-6275f999ec04.jpg\",\"img/0758/ddc336e9-a8b6-4bb9-937a-c7e25e0e9250.jpg\"]","trial_type":"similarity","trial_index":28,"time_elapsed":232493,"internal_node_id":"0.0-6.0-22.0"},{"sim_score":5,"rt":4734,"stimulus":"[\"img/0867/de92135f-5b65-4ed9-b245-188292c7c2f8.jpg\",\"img/0881/e6746727-7f89-47ec-b939-d98abe78372d.jpg\"]","trial_type":"similarity","trial_index":29,"time_elapsed":238231,"internal_node_id":"0.0-6.0-23.0"},{"sim_score":3,"rt":4813,"stimulus":"[\"img/0758/d540bee6-b460-4c32-ac57-bc282742d7d4.jpg\",\"img/0901/7d4a3388-488d-4e9b-9d32-9d0def7aae8d.jpg\"]","trial_type":"similarity","trial_index":30,"time_elapsed":244047,"internal_node_id":"0.0-6.0-24.0"},{"sim_score":5,"rt":4921,"stimulus":"[\"img/0868/1a62b2b2-18f5-466e-b564-5176a57c565e.jpg\",\"img/0875/dbdd643e-6d0e-4a5c-ab57-b9c29b9c981a.jpg\"]","trial_type":"similarity","trial_index":31,"time_elapsed":249975,"internal_node_id":"0.0-6.0-25.0"},{"sim_score":5,"rt":4866,"stimulus":"[\"img/0903/5248eedd-7e6a-4d39-91b0-06ec227f3ed0.jpg\",\"img/0901/b453df0b-4c39-49bb-8ced-6127efffa898.jpg\"]","trial_type":"similarity","trial_index":32,"time_elapsed":255848,"internal_node_id":"0.0-6.0-26.0"},{"sim_score":5,"rt":4584,"stimulus":"[\"img/0894/7f2f31fd-6618-41c6-b65a-0fd8b2851bc9.jpg\",\"img/0899/0adc0bc3-6fca-4078-be6f-d45ddf1653d5.jpg\"]","trial_type":"similarity","trial_index":33,"time_elapsed":261438,"internal_node_id":"0.0-6.0-27.0"},{"sim_score":5,"rt":4271,"stimulus":"[\"img/0862/e697469a-ec19-4414-b972-7b9f3564785b.jpg\",\"img/0867/cc72ed48-7704-422c-86d6-467a1145287a.jpg\"]","trial_type":"similarity","trial_index":34,"time_elapsed":266716,"internal_node_id":"0.0-6.0-28.0"},{"sim_score":5,"rt":3384,"stimulus":"[\"img/0864/87c467d3-abca-482f-ad80-3766c21b1bb3.jpg\",\"img/0875/e7e66b13-b573-431e-b85e-288ce04a35a3.jpg\"]","trial_type":"similarity","trial_index":35,"time_elapsed":271103,"internal_node_id":"0.0-6.0-29.0"},{"sim_score":5,"rt":4573,"stimulus":"[\"img/0862/f43ceabf-acc1-4107-b857-5d1849808f93.jpg\",\"img/0874/adf9a8f1-c40b-402b-b95b-1e85a54a7b62.jpg\"]","trial_type":"similarity","trial_index":36,"time_elapsed":276683,"internal_node_id":"0.0-6.0-30.0"},{"sim_score":2,"rt":3305,"stimulus":"[\"img/0903/6138142e-c84e-45fc-9487-c974f3d4968a.jpg\",\"img/0758/61d64021-9214-4951-bdf8-f871f9827cf9.jpg\"]","trial_type":"similarity","trial_index":37,"time_elapsed":280992,"internal_node_id":"0.0-6.0-31.0"},{"sim_score":1,"rt":3574,"stimulus":"[\"img/0866/02f5e6b9-52b7-448c-9708-5b460d0c9a23.jpg\",\"img/0901/71e551a2-9ce2-409c-9c7c-dd556a0791e9.jpg\"]","trial_type":"similarity","trial_index":38,"time_elapsed":285570,"internal_node_id":"0.0-6.0-32.0"},{"sim_score":1,"rt":3260,"stimulus":"[\"img/0874/a82926a3-0b43-4add-803c-d5f9ea7798ee.jpg\",\"img/0899/4408c14d-c168-4a7d-96f6-bc87bfb58f83.jpg\"]","trial_type":"similarity","trial_index":39,"time_elapsed":289834,"internal_node_id":"0.0-6.0-33.0"},{"sim_score":6,"rt":4710,"stimulus":"[\"img/0903/f45a103c-9bfe-49fd-ad96-bdd8d2589195.jpg\",\"img/0902/f3cfec34-482c-4bdb-9c92-19ea6cfce183.jpg\"]","trial_type":"similarity","trial_index":40,"time_elapsed":295549,"internal_node_id":"0.0-6.0-34.0"},{"sim_score":5,"rt":4273,"stimulus":"[\"img/0758/65d426d6-3ff6-415d-8654-a43b83ecc4fe.jpg\",\"img/0866/23a224f3-2012-4fc8-8e0f-3c36f8de27fd.jpg\"]","trial_type":"similarity","trial_index":41,"time_elapsed":300825,"internal_node_id":"0.0-6.0-35.0"},{"sim_score":3,"rt":4092,"stimulus":"[\"img/0875/3ecb367d-e9eb-4826-8aaa-7aa72fb98019.jpg\",\"img/0903/b0a3c45f-467e-412f-a183-c9c1827f2e63.jpg\"]","trial_type":"similarity","trial_index":42,"time_elapsed":305922,"internal_node_id":"0.0-6.0-36.0"},{"sim_score":2,"rt":5452,"stimulus":"[\"img/0864/6e846d43-94a6-4b37-a268-65eda979f052.jpg\",\"img/0902/8af4182a-9af9-4212-a436-9195555112d6.jpg\"]","trial_type":"similarity","trial_index":43,"time_elapsed":320862,"internal_node_id":"0.0-6.0-37.0"},{"sim_score":2,"rt":3584,"stimulus":"[\"img/0901/548d1110-7cb8-42a2-9927-9798875c8b5c.jpg\",\"img/0867/f26f6b60-f772-4f4c-95a4-addc62cfd692.jpg\"]","trial_type":"similarity","trial_index":44,"time_elapsed":325452,"internal_node_id":"0.0-6.0-38.0"},{"sim_score":5,"rt":4629,"stimulus":"[\"img/0862/de9ad88c-b522-430a-8ee9-eb06a9f85df5.jpg\",\"img/0860/b03b963d-949b-4d8d-b19c-4950c89eeca2.jpg\"]","trial_type":"similarity","trial_index":45,"time_elapsed":331089,"internal_node_id":"0.0-6.0-39.0"},{"sim_score":7,"rt":3605,"stimulus":"[\"img/0867/ac1797e4-8afc-48fe-b252-86d1defb1cca.jpg\",\"img/0868/d98ca254-b195-477f-b57e-5760a2717db8.jpg\"]","trial_type":"similarity","trial_index":46,"time_elapsed":335701,"internal_node_id":"0.0-6.0-40.0"},{"sim_score":5,"rt":4677,"stimulus":"[\"img/0904/b7c2a2c8-df33-4473-b3d4-ff7147c60db3.jpg\",\"img/0899/57476fed-5962-4272-8fc9-b317bb777b54.jpg\"]","trial_type":"similarity","trial_index":47,"time_elapsed":341382,"internal_node_id":"0.0-6.0-41.0"},{"sim_score":1,"rt":3618,"stimulus":"[\"img/0862/eefa5588-9efd-4591-aa5f-a2e17c7d7bcc.jpg\",\"img/0894/7fb082e0-ce79-485c-9109-04367fb32275.jpg\"]","trial_type":"similarity","trial_index":48,"time_elapsed":346006,"internal_node_id":"0.0-6.0-42.0"},{"sim_score":1,"rt":2845,"stimulus":"[\"img/0875/90da8d75-108a-44ad-b999-e21fee3860d3.jpg\",\"img/0904/65e2b70a-b184-4da3-b5c0-5038bdf9469a.jpg\"]","trial_type":"similarity","trial_index":49,"time_elapsed":349853,"internal_node_id":"0.0-6.0-43.0"},{"sim_score":2,"rt":4081,"stimulus":"[\"img/0874/93d1f8dc-acf2-4f03-bd8d-8ec35df276ed.jpg\",\"img/0898/04e39a7a-fcf6-4156-ab0e-f5871f335e1c.jpg\"]","trial_type":"similarity","trial_index":50,"time_elapsed":354938,"internal_node_id":"0.0-6.0-44.0"},{"sim_score":1,"rt":4712,"stimulus":"[\"img/0898/68476bbb-34a1-42d9-8bc1-deab783d4489.jpg\",\"img/0868/e0aff734-077f-40dd-9781-74821abd3621.jpg\"]","trial_type":"similarity","trial_index":51,"time_elapsed":360654,"internal_node_id":"0.0-6.0-45.0"},{"sim_score":2,"rt":5195,"stimulus":"[\"img/0901/1b86f2fc-7a1d-4aa8-9252-114f92edef3b.jpg\",\"img/0860/5383b320-1518-4095-a58e-5cc1ae30b64c.jpg\"]","trial_type":"similarity","trial_index":52,"time_elapsed":366852,"internal_node_id":"0.0-6.0-46.0"},{"sim_score":6,"rt":3627,"stimulus":"[\"img/0894/0130a973-d993-41f8-874a-fee23d9ac11f.jpg\",\"img/0902/71c03003-03ef-4b0f-8229-e0c857150a5d.jpg\"]","trial_type":"similarity","trial_index":53,"time_elapsed":371487,"internal_node_id":"0.0-6.0-47.0"},{"sim_score":1,"rt":3811,"stimulus":"[\"img/0764/1def7b22-b054-4ec2-860b-73d25691823b.jpg\",\"img/0862/e8cc3bdf-cc43-4565-bccf-492626c70953.jpg\"]","trial_type":"similarity","trial_index":54,"time_elapsed":376302,"internal_node_id":"0.0-6.0-48.0"},{"sim_score":6,"rt":3617,"stimulus":"[\"img/0881/1407b85b-a1c6-45b1-9884-3b24203efadb.jpg\",\"img/0758/d57c2592-a317-4f63-91be-91a3a9afd222.jpg\"]","trial_type":"similarity","trial_index":55,"time_elapsed":380926,"internal_node_id":"0.0-6.0-49.0"},{"sim_score":6,"rt":5263,"stimulus":"[\"img/0766/a754e4b6-5019-4cf4-8f58-34c20547a1f5.jpg\",\"img/0769/96556ef3-7fac-4c9d-8281-1cb0ea5081bc.jpg\"]","trial_type":"similarity","trial_index":56,"time_elapsed":387192,"internal_node_id":"0.0-6.0-50.0"},{"sim_score":5,"rt":3877,"stimulus":"[\"img/0875/5a1e5100-0d94-4fec-bbe9-ca9894d2cf8e.jpg\",\"img/0866/8efcaa46-83ab-4dee-a35f-850402aa21ae.jpg\"]","trial_type":"similarity","trial_index":57,"time_elapsed":392075,"internal_node_id":"0.0-6.0-51.0"},{"sim_score":7,"rt":4540,"stimulus":"[\"img/0894/9b1333fd-3561-43bf-aee5-99b7b7ca3dc3.jpg\",\"img/0904/696ebb60-8891-417a-91fd-c53218907a95.jpg\"]","trial_type":"similarity","trial_index":58,"time_elapsed":397621,"internal_node_id":"0.0-6.0-52.0"},{"sim_score":2,"rt":4870,"stimulus":"[\"img/0758/335851a0-a55b-46d8-ab05-8463eda48349.jpg\",\"img/0769/1d8734c4-77ab-4165-9e71-5cfe672ff01c.jpg\"]","trial_type":"similarity","trial_index":59,"time_elapsed":403493,"internal_node_id":"0.0-6.0-53.0"},{"sim_score":2,"rt":3731,"stimulus":"[\"img/0902/168ebd47-9e82-4ab7-a18b-c3da85072db8.jpg\",\"img/0874/3f471690-9788-4d03-90c7-f615aecef149.jpg\"]","trial_type":"similarity","trial_index":60,"time_elapsed":408230,"internal_node_id":"0.0-6.0-54.0"},{"sim_score":1,"rt":4012,"stimulus":"[\"img/0903/150cf64c-0bd2-4674-abbb-a1387cf1f3e9.jpg\",\"img/0862/4f0a3b4c-afbf-486e-b248-1d54982f54b4.jpg\"]","trial_type":"similarity","trial_index":61,"time_elapsed":413247,"internal_node_id":"0.0-6.0-55.0"},{"sim_score":2,"rt":3890,"stimulus":"[\"img/0866/f756f7d1-9ad8-4a34-9ef6-7a443d705bfe.jpg\",\"img/0894/38f5931f-926d-414e-b498-66b188978b7a.jpg\"]","trial_type":"similarity","trial_index":62,"time_elapsed":418141,"internal_node_id":"0.0-6.0-56.0"},{"sim_score":1,"rt":4588,"stimulus":"[\"img/0867/98d8cd96-1476-4fe0-a3a3-04f875500a1b.jpg\",\"img/0904/96e503ea-6630-4996-85f2-0237688ce441.jpg\"]","trial_type":"similarity","trial_index":63,"time_elapsed":423732,"internal_node_id":"0.0-6.0-57.0"},{"sim_score":6,"rt":3179,"stimulus":"[\"img/0875/5a7c4e35-6514-4e12-8879-d16071da4cd6.jpg\",\"img/0881/6b1189e6-232d-4042-8885-16dc7b10e0d4.jpg\"]","trial_type":"similarity","trial_index":64,"time_elapsed":427918,"internal_node_id":"0.0-6.0-58.0"},{"sim_score":5,"rt":3796,"stimulus":"[\"img/0866/4a87911a-d5be-4d4e-ab8e-3d1f581bf507.jpg\",\"img/0860/15b24a61-25be-4356-9eac-5ce95d0cb4a4.jpg\"]","trial_type":"similarity","trial_index":65,"time_elapsed":432721,"internal_node_id":"0.0-6.0-59.0"},{"sim_score":1,"rt":4508,"stimulus":"[\"img/0903/647ce311-8c71-479a-8361-961db1457139.jpg\",\"img/0866/620cd1aa-0800-4414-8f6e-90342e7a99ad.jpg\"]","trial_type":"similarity","trial_index":66,"time_elapsed":438234,"internal_node_id":"0.0-6.0-60.0"},{"sim_score":5,"rt":5297,"stimulus":"[\"img/0860/4f695df5-afac-4da7-9875-fee39b0b24ad.jpg\",\"img/0875/5a716432-c6ca-4b1c-955a-2b8ac25198ee.jpg\"]","trial_type":"similarity","trial_index":67,"time_elapsed":444534,"internal_node_id":"0.0-6.0-61.0"},{"sim_score":1,"rt":2776,"stimulus":"[\"img/0898/c3cecf20-f7fd-45fa-97d0-dc0a63e8d6c0.jpg\",\"img/0862/f23038d4-c366-4f70-979f-66b62362efa4.jpg\"]","trial_type":"similarity","trial_index":68,"time_elapsed":448314,"internal_node_id":"0.0-6.0-62.0"},{"sim_score":6,"rt":4318,"stimulus":"[\"img/0902/62f11694-7ed7-4cb7-8a73-9e95c43824e7.jpg\",\"img/0766/79767d11-b612-4e8a-9e4b-a8ac95bb6a54.jpg\"]","trial_type":"similarity","trial_index":69,"time_elapsed":453635,"internal_node_id":"0.0-6.0-63.0"},{"sim_score":6,"rt":4262,"stimulus":"[\"img/0758/7ee8bc8f-c40b-4b3a-84ec-3e83580622d4.jpg\",\"img/0864/9b2490c5-a282-400a-9736-e1a0ecbf1cb7.jpg\"]","trial_type":"similarity","trial_index":70,"time_elapsed":458900,"internal_node_id":"0.0-6.0-64.0"},{"sim_score":2,"rt":3011,"stimulus":"[\"img/0894/7dd6ff43-f8fc-408a-8a41-a2b261871820.jpg\",\"img/0860/8a92e21b-6a32-4e4a-a445-2d5a487ed0a4.jpg\"]","trial_type":"similarity","trial_index":71,"time_elapsed":462916,"internal_node_id":"0.0-6.0-65.0"},{"sim_score":1,"rt":3089,"stimulus":"[\"img/0899/66ab3178-c3fe-4455-ad17-d5952b08e018.jpg\",\"img/0868/d6d1f30d-4323-435a-b194-7892521bc57e.jpg\"]","trial_type":"similarity","trial_index":72,"time_elapsed":467011,"internal_node_id":"0.0-6.0-66.0"},{"sim_score":5,"rt":4881,"stimulus":"[\"img/0866/945c6710-d15b-4a5b-a8f6-69af0850357f.jpg\",\"img/0862/5d887e9f-89e2-4ebc-80a0-6d46fe6480db.jpg\"]","trial_type":"similarity","trial_index":73,"time_elapsed":472895,"internal_node_id":"0.0-6.0-67.0"},{"sim_score":5,"rt":3540,"stimulus":"[\"img/0860/c3379ff7-0763-48fe-a1ec-7ea3d611bc7a.jpg\",\"img/0758/e38fd80d-18d0-42f3-b848-f930788e8bd7.jpg\"]","trial_type":"similarity","trial_index":74,"time_elapsed":477440,"internal_node_id":"0.0-6.0-68.0"},{"sim_score":2,"rt":3741,"stimulus":"[\"img/0902/c9c74d2d-9b82-42d7-a9d0-3b8ff67ff81e.jpg\",\"img/0867/50a1b60e-3a29-44bf-b606-d4bd3746fea9.jpg\"]","trial_type":"similarity","trial_index":75,"time_elapsed":482188,"internal_node_id":"0.0-6.0-69.0"},{"sim_score":1,"rt":3190,"stimulus":"[\"img/0862/cdaed51d-9e2f-4807-801a-4663c40077e2.jpg\",\"img/0901/ae1e6ce4-2e10-4ca9-b1e7-21628637ab74.jpg\"]","trial_type":"similarity","trial_index":76,"time_elapsed":486384,"internal_node_id":"0.0-6.0-70.0"},{"sim_score":7,"rt":3899,"stimulus":"[\"img/0867/5e07b34d-b40f-4b1c-ac10-49975bace45f.jpg\",\"img/0866/bf14b5bd-fb55-47db-86b9-4f8aeb9a6dad.jpg\"]","trial_type":"similarity","trial_index":77,"time_elapsed":491289,"internal_node_id":"0.0-6.0-71.0"},{"sim_score":2,"rt":2672,"stimulus":"[\"img/0860/87039971-2210-4aab-93c0-8e9b5f1655b2.jpg\",\"img/0904/06dacdc5-2206-4fb8-92b7-88042d22833c.jpg\"]","trial_type":"similarity","trial_index":78,"time_elapsed":494968,"internal_node_id":"0.0-6.0-72.0"},{"sim_score":1,"rt":3183,"stimulus":"[\"img/0875/03c3c331-738b-4446-af92-3d7386b08c2e.jpg\",\"img/0899/66bf4113-ee12-426c-84d2-ea410b6c803e.jpg\"]","trial_type":"similarity","trial_index":79,"time_elapsed":499153,"internal_node_id":"0.0-6.0-73.0"},{"sim_score":1,"rt":2529,"stimulus":"[\"img/0899/06b0fc99-0581-461a-9913-d1a5a941ac61.jpg\",\"img/0758/7fba58df-2a7a-4b76-8a8f-62739f97f271.jpg\"]","trial_type":"similarity","trial_index":80,"time_elapsed":502685,"internal_node_id":"0.0-6.0-74.0"},{"sim_score":6,"rt":2854,"stimulus":"[\"img/0862/1c20f772-3a51-4a80-aac0-f57dc9f86c28.jpg\",\"img/0875/a4935837-7d3c-4df6-88c1-36a94d4991ca.jpg\"]","trial_type":"similarity","trial_index":81,"time_elapsed":508355,"internal_node_id":"0.0-6.0-75.0"},{"sim_score":5,"rt":3786,"stimulus":"[\"img/0901/a2d7b2f6-396b-4d91-8403-de5361c74af7.jpg\",\"img/0894/5a49e858-2850-4892-9a06-e9f0efb5f94d.jpg\"]","trial_type":"similarity","trial_index":82,"time_elapsed":513148,"internal_node_id":"0.0-6.0-76.0"},{"sim_score":2,"rt":3011,"stimulus":"[\"img/0766/a0270213-fa0e-4972-8b56-228c3e01ff90.jpg\",\"img/0758/eabcd7a8-56ad-4fd2-bc24-90f6b7b33265.jpg\"]","trial_type":"similarity","trial_index":83,"time_elapsed":517164,"internal_node_id":"0.0-6.0-77.0"},{"sim_score":7,"rt":3663,"stimulus":"[\"img/0894/1b3888e6-cf36-4c4a-a039-187aa5cb71ac.jpg\",\"img/0764/ec2dd087-c471-4370-b570-95a542506a96.jpg\"]","trial_type":"similarity","trial_index":84,"time_elapsed":521833,"internal_node_id":"0.0-6.0-78.0"},{"sim_score":5,"rt":3066,"stimulus":"[\"img/0860/4a022222-056d-461c-ab02-39fac9647552.jpg\",\"img/0867/a749dddb-69f0-44a6-acdc-2bf295cf6dcc.jpg\"]","trial_type":"similarity","trial_index":85,"time_elapsed":525905,"internal_node_id":"0.0-6.0-79.0"},{"sim_score":6,"rt":3586,"stimulus":"[\"img/0898/6cd3830b-d44e-4915-be2b-88d31424b91c.jpg\",\"img/0901/08d6d1d1-c043-43c4-bb08-d45e062822b9.jpg\"]","trial_type":"similarity","trial_index":86,"time_elapsed":530495,"internal_node_id":"0.0-6.0-80.0"},{"sim_score":1,"rt":3574,"stimulus":"[\"img/0874/29830da7-be5f-44e5-b141-652a0ccf7269.jpg\",\"img/0764/a86eed5b-d0af-4c3f-8c7a-26e98e98cf1a.jpg\"]","trial_type":"similarity","trial_index":87,"time_elapsed":535074,"internal_node_id":"0.0-6.0-81.0"},{"sim_score":1,"rt":2953,"stimulus":"[\"img/0899/4f7bc593-8ddd-4da3-a0b9-84da730d3370.jpg\",\"img/0862/fb26cb07-d5a9-4653-813c-f41609f26cd5.jpg\"]","trial_type":"similarity","trial_index":88,"time_elapsed":539034,"internal_node_id":"0.0-6.0-82.0"},{"sim_score":5,"rt":2999,"stimulus":"[\"img/0766/908bc45b-7c9e-4f95-806e-86b196ebcb2c.jpg\",\"img/0901/fb0a8e69-7f19-4e6e-a6bb-a48f97f9b4f3.jpg\"]","trial_type":"similarity","trial_index":89,"time_elapsed":543039,"internal_node_id":"0.0-6.0-83.0"},{"sim_score":1,"rt":3787,"stimulus":"[\"img/0881/14236cf2-6b95-48b8-9368-78af09d2d27f.jpg\",\"img/0898/b3290bf9-215b-4b45-b21a-65bdf73f142f.jpg\"]","trial_type":"similarity","trial_index":90,"time_elapsed":547832,"internal_node_id":"0.0-6.0-84.0"},{"sim_score":5,"rt":3015,"stimulus":"[\"img/0868/fd307a36-9a3a-47d7-ab7c-f810d0b35040.jpg\",\"img/0860/f44ba3fb-03a2-42f0-8509-2c1ded493086.jpg\"]","trial_type":"similarity","trial_index":91,"time_elapsed":551849,"internal_node_id":"0.0-6.0-85.0"},{"sim_score":5,"rt":2957,"stimulus":"[\"img/0758/6cd8c362-ae2a-41eb-80a3-3a4f7ace1530.jpg\",\"img/0868/6a28c3b0-3d76-498a-9fb7-ddafc665eca8.jpg\"]","trial_type":"similarity","trial_index":92,"time_elapsed":555808,"internal_node_id":"0.0-6.0-86.0"},{"sim_score":1,"rt":2447,"stimulus":"[\"img/0864/3d4de670-b290-4285-9c3d-12a0e3af44e9.jpg\",\"img/0894/3664e04c-c6d3-4c9b-afb6-25d89974b174.jpg\"]","trial_type":"similarity","trial_index":93,"time_elapsed":559262,"internal_node_id":"0.0-6.0-87.0"},{"sim_score":3,"rt":4270,"stimulus":"[\"img/0866/93a27239-8317-4e08-98ca-d8b1ff298e07.jpg\",\"img/0902/22ed3536-288b-452e-9777-0fa0ab94deb0.jpg\"]","trial_type":"similarity","trial_index":94,"time_elapsed":564538,"internal_node_id":"0.0-6.0-88.0"},{"sim_score":1,"rt":3245,"stimulus":"[\"img/0769/db94b61b-a5a7-4861-9d32-7b02ad194fb0.jpg\",\"img/0867/a498eef3-9fa4-4ab2-9778-4ae82ac40dc5.jpg\"]","trial_type":"similarity","trial_index":95,"time_elapsed":568791,"internal_node_id":"0.0-6.0-89.0"},{"sim_score":6,"rt":3652,"stimulus":"[\"img/0874/ca23d307-fc00-4d7d-9106-584c6eb21b4d.jpg\",\"img/0875/fb732ab5-013a-4366-9f65-27811ed157e9.jpg\"]","trial_type":"similarity","trial_index":96,"time_elapsed":573449,"internal_node_id":"0.0-6.0-90.0"},{"sim_score":7,"rt":3088,"stimulus":"[\"img/0864/0116ca98-293d-4fa6-a93b-5a6144ef64cc.jpg\",\"img/0874/a3bc679d-619f-4db6-bb68-116dcb757d9c.jpg\"]","trial_type":"similarity","trial_index":97,"time_elapsed":577543,"internal_node_id":"0.0-6.0-91.0"},{"sim_score":5,"rt":3832,"stimulus":"[\"img/0881/f8bd891e-aa09-4782-89db-33e7cb2b0cf1.jpg\",\"img/0862/53a9cf7c-93c4-41b9-952f-07d17f7a17b2.jpg\"]","trial_type":"similarity","trial_index":98,"time_elapsed":582381,"internal_node_id":"0.0-6.0-92.0"},{"sim_score":6,"rt":3520,"stimulus":"[\"img/0864/1d15626a-2f7c-410f-819c-0fa2c967e95e.jpg\",\"img/0881/33d65d80-8a8e-4ecf-852d-0ad7725c17a2.jpg\"]","trial_type":"similarity","trial_index":99,"time_elapsed":586904,"internal_node_id":"0.0-6.0-93.0"},{"sim_score":6,"rt":3318,"stimulus":"[\"img/0899/76ad07e2-ca25-45eb-84f2-8d80b8ca3e26.jpg\",\"img/0901/58978a6d-a3e2-4c59-8d62-f60693ecc0f6.jpg\"]","trial_type":"similarity","trial_index":100,"time_elapsed":591224,"internal_node_id":"0.0-6.0-94.0"},{"sim_score":1,"rt":2413,"stimulus":"[\"img/0874/bf14b896-e930-4fd9-9c05-2e83317a2773.jpg\",\"img/0766/fd064894-7147-4af5-97e9-2089d5472656.jpg\"]","trial_type":"similarity","trial_index":101,"time_elapsed":594644,"internal_node_id":"0.0-6.0-95.0"},{"sim_score":1,"rt":2349,"stimulus":"[\"img/0881/db77fe00-aeb0-4d1d-aa66-f3a96fd077e4.jpg\",\"img/0899/fd9efb43-701f-4cd6-baaa-4c38315f4bdc.jpg\"]","trial_type":"similarity","trial_index":102,"time_elapsed":597996,"internal_node_id":"0.0-6.0-96.0"},{"sim_score":2,"rt":2867,"stimulus":"[\"img/0862/92fcd8a4-8193-4a6a-ae09-dd4a6338b0df.jpg\",\"img/0902/c018bd7a-d91a-4192-aea4-7259cfcdb6c4.jpg\"]","trial_type":"similarity","trial_index":103,"time_elapsed":601866,"internal_node_id":"0.0-6.0-97.0"},{"sim_score":7,"rt":3428,"stimulus":"[\"img/0899/0e1d936a-dbe2-4afc-9f19-7b7a1ae6c9ed.jpg\",\"img/0764/ca9829fe-aaf8-45b8-b98a-6bae751c63dd.jpg\"]","trial_type":"similarity","trial_index":104,"time_elapsed":606299,"internal_node_id":"0.0-6.0-98.0"},{"sim_score":5,"rt":3294,"stimulus":"[\"img/0758/f61ecdf8-a7d4-4db0-b84d-be46f7cfaffc.jpg\",\"img/0862/e0f1a4e9-e1b6-45f7-af67-89f334e6630d.jpg\"]","trial_type":"similarity","trial_index":105,"time_elapsed":610597,"internal_node_id":"0.0-6.0-99.0"},{"sim_score":4,"rt":3731,"stimulus":"[\"img/0764/23ea9375-f801-4a96-9925-7d453da887c7.jpg\",\"img/0898/08c72dac-f8ad-407a-9ce6-8c9a5d679c3a.jpg\"]","trial_type":"similarity","trial_index":106,"time_elapsed":615332,"internal_node_id":"0.0-6.0-100.0"},{"sim_score":5,"rt":4260,"stimulus":"[\"img/0901/4f9cffe0-c0be-4d7f-bacd-9d51efd19b4a.jpg\",\"img/0902/0c760cc9-10ac-429e-8957-a7d51fc99683.jpg\"]","trial_type":"similarity","trial_index":107,"time_elapsed":620597,"internal_node_id":"0.0-6.0-101.0"},{"sim_score":1,"rt":2561,"stimulus":"[\"img/0764/cffc80b0-4a90-4acb-a530-6f480f3ca303.jpg\",\"img/0868/179a5502-ab5c-478e-8263-5a1fbcc101d2.jpg\"]","trial_type":"similarity","trial_index":108,"time_elapsed":624163,"internal_node_id":"0.0-6.0-102.0"},{"sim_score":2,"rt":3980,"stimulus":"[\"img/0769/aad494cc-674d-4a08-9bfa-24a88ebe3c79.jpg\",\"img/0881/633c6f40-56d9-4b48-bf1c-ecd83116eabb.jpg\"]","trial_type":"similarity","trial_index":109,"time_elapsed":629148,"internal_node_id":"0.0-6.0-103.0"},{"sim_score":1,"rt":2878,"stimulus":"[\"img/0864/efcfbb1b-8197-44c9-b723-40d6c608dd3c.jpg\",\"img/0769/878531fd-e0e8-4ad1-b9ad-f018bb104ca0.jpg\"]","trial_type":"similarity","trial_index":110,"time_elapsed":633029,"internal_node_id":"0.0-6.0-104.0"},{"sim_score":5,"rt":3167,"stimulus":"[\"img/0866/a04d37f0-99dd-478a-b6c6-58b215138f84.jpg\",\"img/0868/77091fc7-a590-4ebb-b915-fdb2483a2399.jpg\"]","trial_type":"similarity","trial_index":111,"time_elapsed":637203,"internal_node_id":"0.0-6.0-105.0"},{"sim_score":5,"rt":2966,"stimulus":"[\"img/0868/5fa7f9d0-f0e5-454c-8224-74d964818f56.jpg\",\"img/0862/fad1d7c1-8187-43c3-942a-0fc12183e48e.jpg\"]","trial_type":"similarity","trial_index":112,"time_elapsed":641174,"internal_node_id":"0.0-6.0-106.0"},{"sim_score":6,"rt":5192,"stimulus":"[\"img/0766/5d6e0d1d-4369-41f0-a64c-91f3503055c7.jpg\",\"img/0898/f3a3f225-1248-4ac7-b93b-f0ff28485bf3.jpg\"]","trial_type":"similarity","trial_index":113,"time_elapsed":647373,"internal_node_id":"0.0-6.0-107.0"},{"sim_score":1,"rt":3054,"stimulus":"[\"img/0898/e167334e-cc1d-4986-b3b1-c7bc7da64baa.jpg\",\"img/0864/6f631579-acf1-415c-a42c-1207f62a8d99.jpg\"]","trial_type":"similarity","trial_index":114,"time_elapsed":651434,"internal_node_id":"0.0-6.0-108.0"},{"sim_score":1,"rt":3879,"stimulus":"[\"img/0868/c8ac40c7-6904-4e13-8d61-c75d3052dc4e.jpg\",\"img/0902/cdec1bc6-7f90-4f72-9e01-f5a4111bac1d.jpg\"]","trial_type":"similarity","trial_index":115,"time_elapsed":656317,"internal_node_id":"0.0-6.0-109.0"},{"sim_score":6,"rt":5376,"stimulus":"[\"img/0904/4b8daf2a-13a9-4ea9-9e0b-b265b6e933e7.jpg\",\"img/0764/da207710-e7e4-4f42-b2e6-99b5f357f433.jpg\"]","trial_type":"similarity","trial_index":116,"time_elapsed":662695,"internal_node_id":"0.0-6.0-110.0"},{"sim_score":1,"rt":5972,"stimulus":"[\"img/0894/b422d5c6-3c5a-49ae-a53e-7e88ac993f49.jpg\",\"img/0875/42910c99-5463-450a-a0f8-d4d060a11455.jpg\"]","trial_type":"similarity","trial_index":117,"time_elapsed":669671,"internal_node_id":"0.0-6.0-111.0"},{"sim_score":5,"rt":3888,"stimulus":"[\"img/0868/293079b8-7e0c-4afd-a390-1e5d35fe3ded.jpg\",\"img/0874/1016b306-087c-4afc-aa08-fa527b28dc76.jpg\"]","trial_type":"similarity","trial_index":118,"time_elapsed":674564,"internal_node_id":"0.0-6.0-112.0"},{"sim_score":5,"rt":4270,"stimulus":"[\"img/0904/b5855d6a-7ef9-46ca-9215-6e9fa046e543.jpg\",\"img/0898/26c41340-15bd-4ead-8fe4-c0d0ddca09c2.jpg\"]","trial_type":"similarity","trial_index":119,"time_elapsed":683226,"internal_node_id":"0.0-6.0-113.0"},{"sim_score":2,"rt":2956,"stimulus":"[\"img/0860/9593362c-9fe5-4d12-9735-6000a11f6aa5.jpg\",\"img/0766/d512b99c-a2dc-40d7-8e86-827323a0cbcf.jpg\"]","trial_type":"similarity","trial_index":120,"time_elapsed":687187,"internal_node_id":"0.0-6.0-114.0"},{"sim_score":1,"rt":2834,"stimulus":"[\"img/0894/5ff3c4f6-52e2-4075-8679-be0312e59703.jpg\",\"img/0874/8cdb1c07-1c32-46d2-981c-3636560fa6e5.jpg\"]","trial_type":"similarity","trial_index":121,"time_elapsed":691023,"internal_node_id":"0.0-6.0-115.0"},{"sim_score":2,"rt":3452,"stimulus":"[\"img/0899/5b56dd3e-3f49-47cc-af84-16da6457753b.jpg\",\"img/0903/e2e55a9e-0397-4dc0-8adf-4a54cfefe1fe.jpg\"]","trial_type":"similarity","trial_index":122,"time_elapsed":695478,"internal_node_id":"0.0-6.0-116.0"},{"sim_score":1,"rt":2504,"stimulus":"[\"img/0881/5fe04dd0-5c74-47b7-99c8-b068db9ca26a.jpg\",\"img/0764/5d83b9db-3b2b-4dc8-9bd1-2b515b19c858.jpg\"]","trial_type":"similarity","trial_index":123,"time_elapsed":698988,"internal_node_id":"0.0-6.0-117.0"},{"sim_score":5,"rt":3746,"stimulus":"[\"img/0903/8635cf25-2648-4fe9-8c42-79d2598e999c.jpg\",\"img/0769/8c7cf147-1780-4d5c-8ddf-5ea23ff03ac9.jpg\"]","trial_type":"similarity","trial_index":124,"time_elapsed":703736,"internal_node_id":"0.0-6.0-118.0"},{"sim_score":5,"rt":4398,"stimulus":"[\"img/0901/2a953e50-d237-405c-a38d-5ed21494c968.jpg\",\"img/0904/09dac84f-3d1c-4445-a68e-d0389fdbf1e9.jpg\"]","trial_type":"similarity","trial_index":125,"time_elapsed":709136,"internal_node_id":"0.0-6.0-119.0"},{"sim_score":6,"rt":3019,"stimulus":"[\"img/0860/18dfed73-e36b-4487-a8bd-0b8cff8e3668.jpg\",\"img/0881/f62bdcd1-a4b7-4d48-83da-d9c9e01c8727.jpg\"]","trial_type":"similarity","trial_index":126,"time_elapsed":713162,"internal_node_id":"0.0-6.0-120.0"},{"sim_score":7,"rt":4104,"stimulus":"[\"img/0758/53f35650-e455-4b53-8be4-c3c8271c6466.jpg\",\"img/0874/31e22c7c-99aa-40b1-bf03-dd73fa2df4d6.jpg\"]","trial_type":"similarity","trial_index":127,"time_elapsed":718271,"internal_node_id":"0.0-6.0-121.0"},{"sim_score":5,"rt":3249,"stimulus":"[\"img/0901/a373612d-67e2-4fec-9764-21d3d6ef6359.jpg\",\"img/0769/662ab839-88d1-4ebf-af05-9b2980cad943.jpg\"]","trial_type":"similarity","trial_index":128,"time_elapsed":722523,"internal_node_id":"0.0-6.0-122.0"},{"sim_score":5,"rt":3653,"stimulus":"[\"img/0902/b03129ba-b087-4558-af37-e8399d6217d6.jpg\",\"img/0904/d23dd7be-7fe8-4435-82f7-bd592c01e6a1.jpg\"]","trial_type":"similarity","trial_index":129,"time_elapsed":727181,"internal_node_id":"0.0-6.0-123.0"},{"sim_score":1,"rt":5499,"stimulus":"[\"img/0899/00715b3f-851b-420b-a26b-d7f79f7759a9.jpg\",\"img/0864/0f537697-a314-47c3-a8cc-8df23b7e536c.jpg\"]","trial_type":"similarity","trial_index":130,"time_elapsed":733683,"internal_node_id":"0.0-6.0-124.0"},{"sim_score":1,"rt":3189,"stimulus":"[\"img/0766/c23b5a20-e50f-4d85-841f-cf89212a4348.jpg\",\"img/0868/8b0b8473-e2c0-4331-aa56-c3a5c29369da.jpg\"]","trial_type":"similarity","trial_index":131,"time_elapsed":737880,"internal_node_id":"0.0-6.0-125.0"},{"sim_score":1,"rt":2828,"stimulus":"[\"img/0764/6c7fe363-2d37-418f-9e5e-a3273af5d4fb.jpg\",\"img/0864/c3b63e8f-ea39-4d70-a1f2-b3fe4be8eb75.jpg\"]","trial_type":"similarity","trial_index":132,"time_elapsed":741716,"internal_node_id":"0.0-6.0-126.0"},{"sim_score":1,"rt":2980,"stimulus":"[\"img/0899/565ccdd9-0933-4536-a625-3c0e25a713dd.jpg\",\"img/0866/c446214b-a368-4c65-ae39-ea46894256ab.jpg\"]","trial_type":"similarity","trial_index":133,"time_elapsed":745698,"internal_node_id":"0.0-6.0-127.0"},{"sim_score":1,"rt":3509,"stimulus":"[\"img/0901/c6c877e0-dd63-4e00-9657-33af29d55aab.jpg\",\"img/0881/667e2147-d457-4f32-aa5f-6ab86e5848f1.jpg\"]","trial_type":"similarity","trial_index":134,"time_elapsed":750210,"internal_node_id":"0.0-6.0-128.0"},{"sim_score":7,"rt":3797,"stimulus":"[\"img/0898/0af304a2-6a7a-4082-ab7c-4450cd08cc58.jpg\",\"img/0903/47e39de8-6959-469f-8be9-6999a6db207c.jpg\"]","trial_type":"similarity","trial_index":135,"time_elapsed":755014,"internal_node_id":"0.0-6.0-129.0"},{"sim_score":1,"rt":2449,"stimulus":"[\"img/0894/792c83e9-a747-4000-bc72-5663d2439edb.jpg\",\"img/0867/f8488a47-94ee-4166-952c-44e16cf172f6.jpg\"]","trial_type":"similarity","trial_index":136,"time_elapsed":758467,"internal_node_id":"0.0-6.0-130.0"},{"sim_score":1,"rt":3226,"stimulus":"[\"img/0874/85eb9b8a-c4c6-4e5a-b8e7-363a87a82054.jpg\",\"img/0903/14f179a2-8786-48a2-8377-88d1d404341b.jpg\"]","trial_type":"similarity","trial_index":137,"time_elapsed":762697,"internal_node_id":"0.0-6.0-131.0"},{"sim_score":6,"rt":4720,"stimulus":"[\"img/0899/9de5e857-aa9a-4e0c-8ba2-46d79bd069a4.jpg\",\"img/0898/82231d4c-218b-4d0a-b50d-35a49b524e97.jpg\"]","trial_type":"similarity","trial_index":138,"time_elapsed":768423,"internal_node_id":"0.0-6.0-132.0"},{"sim_score":1,"rt":3336,"stimulus":"[\"img/0867/85a96c62-548f-4994-9553-819e03c3135a.jpg\",\"img/0764/ca957454-126a-4bd3-b29c-7174a24c25dc.jpg\"]","trial_type":"similarity","trial_index":139,"time_elapsed":772766,"internal_node_id":"0.0-6.0-133.0"},{"sim_score":1,"rt":2697,"stimulus":"[\"img/0866/6f2a90d7-14f1-4f1b-bd64-fc0af6b9fe44.jpg\",\"img/0769/f2740c58-7c02-433f-920b-746b0b75435b.jpg\"]","trial_type":"similarity","trial_index":140,"time_elapsed":776467,"internal_node_id":"0.0-6.0-134.0"},{"sim_score":1,"rt":2754,"stimulus":"[\"img/0860/d9a0d117-6d1d-41c0-8fec-9aff0fd9e9f2.jpg\",\"img/0898/cd3aaa3f-efa9-4ab3-8d6f-a6a9273ddf42.jpg\"]","trial_type":"similarity","trial_index":141,"time_elapsed":780225,"internal_node_id":"0.0-6.0-135.0"},{"sim_score":2,"rt":3013,"stimulus":"[\"img/0881/20af39f5-373d-4a55-a437-2dc4c0382c46.jpg\",\"img/0903/59defeb8-98bd-4570-a2f8-9bd189e68ef4.jpg\"]","trial_type":"similarity","trial_index":142,"time_elapsed":784240,"internal_node_id":"0.0-6.0-136.0"},{"sim_score":6,"rt":3957,"stimulus":"[\"img/0894/76c1201f-8524-4865-85e6-dda8cb4ac986.jpg\",\"img/0766/69e486f7-dbef-456b-9d48-53d814248a28.jpg\"]","trial_type":"similarity","trial_index":143,"time_elapsed":789202,"internal_node_id":"0.0-6.0-137.0"},{"sim_score":1,"rt":3216,"stimulus":"[\"img/0860/fd4662f9-4c03-4d79-8593-06735e55a64b.jpg\",\"img/0764/d7c215ab-ea9a-45be-8d5f-417d5b9a8a17.jpg\"]","trial_type":"similarity","trial_index":144,"time_elapsed":793421,"internal_node_id":"0.0-6.0-138.0"},{"sim_score":6,"rt":3313,"stimulus":"[\"img/0769/688d0c52-ad73-4065-a5eb-f8c10d076bff.jpg\",\"img/0902/07437a16-3d0f-4a5c-89ec-36d0efa4b3b8.jpg\"]","trial_type":"similarity","trial_index":145,"time_elapsed":797741,"internal_node_id":"0.0-6.0-139.0"},{"sim_score":6,"rt":4664,"stimulus":"[\"img/0904/1d10df11-b5c8-4370-9a6b-097a7f965895.jpg\",\"img/0903/6b5dcc60-3ad3-4962-93e5-e6cf768477af.jpg\"]","trial_type":"similarity","trial_index":146,"time_elapsed":803411,"internal_node_id":"0.0-6.0-140.0"},{"sim_score":6,"rt":4912,"stimulus":"[\"img/0764/b887d7c6-aa81-4637-af8e-05135757ac59.jpg\",\"img/0769/a3cfbdeb-acb3-4eac-87fb-4b117f42d4f8.jpg\"]","trial_type":"similarity","trial_index":147,"time_elapsed":809328,"internal_node_id":"0.0-6.0-141.0"},{"sim_score":1,"rt":4353,"stimulus":"[\"img/0902/d1083f2c-5520-44ec-81a8-3f856fbf0e80.jpg\",\"img/0881/7e822106-76f7-4b10-a805-14dc68b2cfaf.jpg\"]","trial_type":"similarity","trial_index":148,"time_elapsed":814684,"internal_node_id":"0.0-6.0-142.0"},{"sim_score":5,"rt":2458,"stimulus":"[\"img/0866/be24ab58-230e-4db8-9f45-ff04c9aec6bb.jpg\",\"img/0864/300bb811-8b3c-4c42-8653-6097c3725197.jpg\"]","trial_type":"similarity","trial_index":149,"time_elapsed":818149,"internal_node_id":"0.0-6.0-143.0"},{"sim_score":7,"rt":5802,"stimulus":"[\"img/0902/51493fab-2a10-4385-aa88-bee3db441626.jpg\",\"img/0898/a114b375-cb89-44ba-9498-74213f1ecdee.jpg\"]","trial_type":"similarity","trial_index":150,"time_elapsed":824955,"internal_node_id":"0.0-6.0-144.0"},{"sim_score":5,"rt":3721,"stimulus":"[\"img/0862/99a99e39-8355-44ec-b993-e7bcec111e1c.jpg\",\"img/0864/ea327690-500b-4137-bf91-451b309fe6a5.jpg\"]","trial_type":"similarity","trial_index":151,"time_elapsed":829680,"internal_node_id":"0.0-6.0-145.0"},{"sim_score":2,"rt":3699,"stimulus":"[\"img/0875/34132396-d896-4c2d-8087-646dd867e769.jpg\",\"img/0898/01bfe666-3510-4fc7-964f-d00d28732dc8.jpg\"]","trial_type":"similarity","trial_index":152,"time_elapsed":834383,"internal_node_id":"0.0-6.0-146.0"},{"sim_score":6,"rt":5106,"stimulus":"[\"img/0874/c0378dac-9370-439a-8b79-db27c96fb390.jpg\",\"img/0881/ee44e27f-d662-4608-b265-e7ffa19b216f.jpg\"]","trial_type":"similarity","trial_index":153,"time_elapsed":840492,"internal_node_id":"0.0-6.0-147.0"},{"sim_score":1,"rt":2469,"stimulus":"[\"img/0758/a085b443-b5d7-4cb2-9ad4-b9dab0fc23f1.jpg\",\"img/0894/6aa5545f-fa7d-4286-bbaa-aaf34dc7ec96.jpg\"]","trial_type":"similarity","trial_index":154,"time_elapsed":843968,"internal_node_id":"0.0-6.0-148.0"},{"sim_score":1,"rt":3172,"stimulus":"[\"img/0904/0d17b811-063e-416e-a23c-3b3cfa4fcce5.jpg\",\"img/0864/3651d070-2fc5-4848-b6a6-088a2d9ac5c9.jpg\"]","trial_type":"similarity","trial_index":155,"time_elapsed":848141,"internal_node_id":"0.0-6.0-149.0"},{"sim_score":5,"rt":4646,"stimulus":"[\"img/0769/75f7e514-0548-4329-b1e4-93c05e74f038.jpg\",\"img/0899/d8f2dd94-570e-4e8c-a087-d96090fb9e8c.jpg\"]","trial_type":"similarity","trial_index":156,"time_elapsed":853789,"internal_node_id":"0.0-6.0-150.0"},{"sim_score":3,"rt":4318,"stimulus":"[\"img/0764/6ef77040-1fae-4afa-bfe7-eda98e6d0376.jpg\",\"img/0903/72197c2b-403e-4a26-b391-f1aa8dea4b76.jpg\"]","trial_type":"similarity","trial_index":157,"time_elapsed":860437,"internal_node_id":"0.0-6.0-151.0"},{"sim_score":1,"rt":3111,"stimulus":"[\"img/0903/31b5a5f4-b695-4af1-bad2-a19650a05498.jpg\",\"img/0864/65210d57-1153-4657-886a-32e758f49b4a.jpg\"]","trial_type":"similarity","trial_index":158,"time_elapsed":864555,"internal_node_id":"0.0-6.0-152.0"},{"sim_score":1,"rt":3733,"stimulus":"[\"img/0894/767a0eec-1064-46b1-b1aa-dfa02b0cd74e.jpg\",\"img/0881/b549bc99-a61c-4450-bab5-9efc3a197bf0.jpg\"]","trial_type":"similarity","trial_index":159,"time_elapsed":869291,"internal_node_id":"0.0-6.0-153.0"},{"sim_score":6,"rt":2753,"stimulus":"[\"img/0875/d59ff733-eaff-4ee2-9443-06954dd0bcb6.jpg\",\"img/0867/2e1a0b58-cdb1-4107-a14e-452530d7b9b0.jpg\"]","trial_type":"similarity","trial_index":160,"time_elapsed":873049,"internal_node_id":"0.0-6.0-154.0"},{"sim_score":6,"rt":2822,"stimulus":"[\"img/0867/26611f4e-d694-4460-b7e2-43c62753ddc3.jpg\",\"img/0758/2fa3e613-e676-4e6e-bd12-705327eeb3e1.jpg\"]","trial_type":"similarity","trial_index":161,"time_elapsed":876874,"internal_node_id":"0.0-6.0-155.0"},{"sim_score":1,"rt":3396,"stimulus":"[\"img/0868/83b4350a-3b70-4cea-b7f5-b5b56f3050a8.jpg\",\"img/0901/77087ed2-6e12-4329-b2a5-605bca6d972d.jpg\"]","trial_type":"similarity","trial_index":162,"time_elapsed":881273,"internal_node_id":"0.0-6.0-156.0"},{"sim_score":7,"rt":4595,"stimulus":"[\"img/0769/0fe124d3-bcad-45f6-b64d-8f6eb8ee5251.jpg\",\"img/0894/bd34223a-2f66-4e16-9d18-193a746b69ff.jpg\"]","trial_type":"similarity","trial_index":163,"time_elapsed":886875,"internal_node_id":"0.0-6.0-157.0"},{"sim_score":1,"rt":2968,"stimulus":"[\"img/0904/60d1a521-edf7-4696-9263-f21ac0e62a01.jpg\",\"img/0758/20497cbe-ddae-489e-86e2-ab06985ed07c.jpg\"]","trial_type":"similarity","trial_index":164,"time_elapsed":890847,"internal_node_id":"0.0-6.0-158.0"},{"sim_score":1,"rt":2947,"stimulus":"[\"img/0874/995f0332-0439-4eb4-add3-957335dbf6d9.jpg\",\"img/0904/e9423a8c-f946-43ad-ab7b-931acef870e2.jpg\"]","trial_type":"similarity","trial_index":165,"time_elapsed":894796,"internal_node_id":"0.0-6.0-159.0"},{"sim_score":2,"rt":3314,"stimulus":"[\"img/0864/4bd81bc6-c13d-46df-95a9-485886dc7c1b.jpg\",\"img/0901/8bb79e82-9c43-4b6f-a655-40655519598b.jpg\"]","trial_type":"similarity","trial_index":166,"time_elapsed":899116,"internal_node_id":"0.0-6.0-160.0"},{"sim_score":1,"rt":3685,"stimulus":"[\"img/0898/79233891-305a-4a6a-8ddf-5c8604858203.jpg\",\"img/0866/386235d2-6857-41e7-88a8-25cfc3430025.jpg\"]","trial_type":"similarity","trial_index":167,"time_elapsed":903807,"internal_node_id":"0.0-6.0-161.0"},{"sim_score":5,"rt":2832,"stimulus":"[\"img/0766/ef3b15ce-abb7-4292-ad93-aec8e8b50520.jpg\",\"img/0903/c708d08f-a108-4e04-8288-c3fcf6375db4.jpg\"]","trial_type":"similarity","trial_index":168,"time_elapsed":907643,"internal_node_id":"0.0-6.0-162.0"},{"sim_score":1,"rt":3282,"stimulus":"[\"img/0860/e14d67c1-6d92-4f1e-9257-c8607159c19c.jpg\",\"img/0899/a048912c-b12c-40e3-90af-46b69b0cc4fe.jpg\"]","trial_type":"similarity","trial_index":169,"time_elapsed":911930,"internal_node_id":"0.0-6.0-163.0"},{"sim_score":1,"rt":3543,"stimulus":"[\"img/0766/ea09dd5a-d24d-4e97-a099-7da3db1baef1.jpg\",\"img/0862/a0a3a7ba-7798-46a3-b4ca-05e1f6e581d0.jpg\"]","trial_type":"similarity","trial_index":170,"time_elapsed":916475,"internal_node_id":"0.0-6.0-164.0"},{"sim_score":5,"rt":3644,"stimulus":"[\"img/0898/81b08535-2020-4c15-9ce4-2f1e460755ae.jpg\",\"img/0894/11674fa4-285d-44e2-939f-2228c6a64080.jpg\"]","trial_type":"similarity","trial_index":171,"time_elapsed":921121,"internal_node_id":"0.0-6.0-165.0"},{"sim_score":1,"rt":3415,"stimulus":"[\"img/0867/c71dc569-f49c-4397-8381-68b8d726736d.jpg\",\"img/0766/0bf3793e-c353-45e5-ac6f-753f5f484e10.jpg\"]","trial_type":"similarity","trial_index":172,"time_elapsed":925542,"internal_node_id":"0.0-6.0-166.0"},{"sim_score":1,"rt":2740,"stimulus":"[\"img/0904/4e58005d-a2ec-4aaa-b199-445343561396.jpg\",\"img/0862/f188d4f0-76a4-4102-818c-a209969d73a5.jpg\"]","trial_type":"similarity","trial_index":173,"time_elapsed":929288,"internal_node_id":"0.0-6.0-167.0"},{"sim_score":5,"rt":3888,"stimulus":"[\"img/0866/a15b02be-11bb-43e3-b0e0-ecc3bd7dfc49.jpg\",\"img/0874/ca76a855-4e77-4f2f-872a-0a718153e7ed.jpg\"]","trial_type":"similarity","trial_index":174,"time_elapsed":934182,"internal_node_id":"0.0-6.0-168.0"},{"sim_score":1,"rt":2752,"stimulus":"[\"img/0903/4cbdc464-e562-4ec2-9bb6-15f894fdf528.jpg\",\"img/0868/7b212364-ff5f-4e28-9241-7eb6ea00161b.jpg\"]","trial_type":"similarity","trial_index":175,"time_elapsed":937939,"internal_node_id":"0.0-6.0-169.0"},{"sim_score":5,"rt":4039,"stimulus":"[\"img/0769/a1ce8d07-ba37-40de-bade-2778805521e0.jpg\",\"img/0904/25365108-e038-4021-aac9-797f2063b337.jpg\"]","trial_type":"similarity","trial_index":176,"time_elapsed":942981,"internal_node_id":"0.0-6.0-170.0"},{"sim_score":1,"rt":2661,"stimulus":"[\"img/0875/8521fd58-3b1e-4dc5-97ae-804edfa6734a.jpg\",\"img/0764/438c0217-036f-43c9-9b87-f43144e46011.jpg\"]","trial_type":"similarity","trial_index":177,"time_elapsed":946647,"internal_node_id":"0.0-6.0-171.0"},{"sim_score":1,"rt":3080,"stimulus":"[\"img/0860/29a21a9f-54bb-4093-ad3f-04823ceaa89f.jpg\",\"img/0903/f1fa0f8d-e62b-4b4a-a174-31a0fabfe61b.jpg\"]","trial_type":"similarity","trial_index":178,"time_elapsed":950731,"internal_node_id":"0.0-6.0-172.0"},{"sim_score":5,"rt":5036,"stimulus":"[\"img/0864/a248adb3-c70b-4652-b7a3-776d2a1e904b.jpg\",\"img/0867/179ab87a-8eac-4c52-a41f-2e48e3120f09.jpg\"]","trial_type":"similarity","trial_index":179,"time_elapsed":956772,"internal_node_id":"0.0-6.0-173.0"},{"sim_score":6,"rt":2807,"stimulus":"[\"img/0868/15dd6fd7-791e-4b53-b203-195d617521a4.jpg\",\"img/0864/da39ad34-04e0-40d4-a724-c08d53e0ea09.jpg\"]","trial_type":"similarity","trial_index":180,"time_elapsed":960586,"internal_node_id":"0.0-6.0-174.0"},{"sim_score":6,"rt":3921,"stimulus":"[\"img/0898/0c7dde4f-efce-4b7a-9387-6921635b7890.jpg\",\"img/0769/b664b502-a86c-46c1-ad6f-5ebffc2e1bd3.jpg\"]","trial_type":"similarity","trial_index":181,"time_elapsed":965514,"internal_node_id":"0.0-6.0-175.0"},{"sim_score":5,"rt":3070,"stimulus":"[\"img/0766/d3bab2fc-ddcc-40a0-bb72-c0d0ebe19978.jpg\",\"img/0764/e0788029-9d7f-414c-b747-46d2a99f7c86.jpg\"]","trial_type":"similarity","trial_index":182,"time_elapsed":969586,"internal_node_id":"0.0-6.0-176.0"},{"sim_score":1,"rt":3023,"stimulus":"[\"img/0764/e48e6c6f-9e28-420f-836a-8043b2319bb4.jpg\",\"img/0866/9b38d691-1802-4959-ab3f-fc902f0e4ea6.jpg\"]","trial_type":"similarity","trial_index":183,"time_elapsed":973614,"internal_node_id":"0.0-6.0-177.0"},{"sim_score":2,"rt":2223,"stimulus":"[\"img/0902/962f645e-9b55-4628-9b50-c703422bfe1a.jpg\",\"img/0875/527ced51-8e53-4aab-ab05-86df219104c0.jpg\"]","trial_type":"similarity","trial_index":184,"time_elapsed":976842,"internal_node_id":"0.0-6.0-178.0"},{"sim_score":1,"rt":3068,"stimulus":"[\"img/0881/f037e3b0-09cb-4a83-b2d9-6a71fe474e63.jpg\",\"img/0904/2c98dc56-88d1-4fb5-a999-b6a7861f65f0.jpg\"]","trial_type":"similarity","trial_index":185,"time_elapsed":980915,"internal_node_id":"0.0-6.0-179.0"},{"sim_score":5,"rt":3763,"stimulus":"[\"img/0874/3ce41e7c-40c8-4d58-a546-171114521796.jpg\",\"img/0860/4c530c3c-6aab-492a-94d1-9c01797bde40.jpg\"]","trial_type":"similarity","trial_index":186,"time_elapsed":985685,"internal_node_id":"0.0-6.0-180.0"},{"sim_score":1,"rt":2719,"stimulus":"[\"img/0769/458d9c77-b844-40b5-bb1b-1e3bbd4da64e.jpg\",\"img/0874/2c9464dd-8a23-4baa-ac94-1ba3af5c15cc.jpg\"]","trial_type":"similarity","trial_index":187,"time_elapsed":989409,"internal_node_id":"0.0-6.0-181.0"},{"sim_score":5,"rt":3731,"stimulus":"[\"img/0904/63dd06dd-dccb-47ba-9740-eb33239e18a7.jpg\",\"img/0766/3c526a07-9e0a-4ae2-8142-00085f0127da.jpg\"]","trial_type":"similarity","trial_index":188,"time_elapsed":994145,"internal_node_id":"0.0-6.0-182.0"},{"sim_score":5,"rt":3528,"stimulus":"[\"img/0902/12452bb1-b8c0-4e4d-ad4d-47e279e5933c.jpg\",\"img/0764/c0b03adb-bd0a-4b96-a915-a827c2fd5211.jpg\"]","trial_type":"similarity","trial_index":189,"time_elapsed":998679,"internal_node_id":"0.0-6.0-183.0"},{"sim_score":1,"rt":3000,"stimulus":"[\"img/0769/c34b7763-8ff2-46d5-9e92-f1d8f3bedbd8.jpg\",\"img/0875/f87b67d7-c33e-40d1-b281-248c4be1cb6e.jpg\"]","trial_type":"similarity","trial_index":190,"time_elapsed":1002684,"internal_node_id":"0.0-6.0-184.0"},{"sim_score":1,"rt":3674,"stimulus":"[\"img/0867/1719a35d-f085-48c0-9099-16c94fe418b4.jpg\",\"img/0903/5995f4a8-fa82-46f8-8760-fd7800a5ca34.jpg\"]","trial_type":"similarity","trial_index":191,"time_elapsed":1007364,"internal_node_id":"0.0-6.0-185.0"},{"sim_score":1,"rt":3327,"stimulus":"[\"img/0862/7918ca67-5bd3-4606-a5ea-c39fb11a9297.jpg\",\"img/0769/ecda2fb3-556b-43ba-8a67-e87dd75ff2b4.jpg\"]","trial_type":"similarity","trial_index":192,"time_elapsed":1011695,"internal_node_id":"0.0-6.0-186.0"},{"sim_score":1,"rt":3034,"stimulus":"[\"img/0766/d919cedb-f9b7-4f30-83bb-3e9c65001ceb.jpg\",\"img/0866/11a1d141-be5e-443c-98c1-a9d4d9e3dec0.jpg\"]","trial_type":"similarity","trial_index":193,"time_elapsed":1015734,"internal_node_id":"0.0-6.0-187.0"},{"sim_score":1,"rt":3248,"stimulus":"[\"img/0769/1afb527f-9887-428c-bd26-a12c2f9efb68.jpg\",\"img/0860/94ef7afc-e0e6-4a15-98c6-0bfac82bc832.jpg\"]","trial_type":"similarity","trial_index":194,"time_elapsed":1019987,"internal_node_id":"0.0-6.0-188.0"},{"sim_score":6,"rt":3023,"stimulus":"[\"img/0881/f4e3e181-b3c9-4af2-a5a4-fc135ab70d2e.jpg\",\"img/0868/0d3abd3a-b6c3-4584-a9f7-e2da63748b3d.jpg\"]","trial_type":"similarity","trial_index":195,"time_elapsed":1029965,"internal_node_id":"0.0-6.0-189.0"},{"view_history":"[{\"page_index\":0,\"viewing_time\":7859}]","rt":7859,"trial_type":"instructions","trial_index":196,"time_elapsed":1038830,"internal_node_id":"0.0-7.0"},{"rt":19836,"responses":"{\"Q0\":\"Tennessee Warbler\"}","answer":["Nashville Warbler"],"trial_type":"image-multi-choice","trial_index":197,"time_elapsed":1059678,"internal_node_id":"0.0-8.0-0.0"},{"rt":54265,"responses":"{\"Q0\":\"Black-and-white Warbler\"}","answer":["Black-and-white Warbler"],"trial_type":"image-multi-choice","trial_index":198,"time_elapsed":1114949,"internal_node_id":"0.0-8.0-1.0"},{"rt":12999,"responses":"{\"Q0\":\"Blackburnian Warbler\"}","answer":["Townsend's Warbler"],"trial_type":"image-multi-choice","trial_index":199,"time_elapsed":1128956,"internal_node_id":"0.0-8.0-2.0"},{"rt":38603,"responses":"{\"Q0\":\"Lark Sparrow\"}","answer":["Lark Sparrow"],"trial_type":"image-multi-choice","trial_index":200,"time_elapsed":1168567,"internal_node_id":"0.0-8.0-3.0"},{"rt":6259,"responses":"{\"Q0\":\"Yellow Warbler\"}","answer":["Yellow Warbler"],"trial_type":"image-multi-choice","trial_index":201,"time_elapsed":1175835,"internal_node_id":"0.0-8.0-4.0"},{"rt":31145,"responses":"{\"Q0\":\"Nashville Warbler\"}","answer":["Orange-crowned Warbler"],"trial_type":"image-multi-choice","trial_index":202,"time_elapsed":1207987,"internal_node_id":"0.0-8.0-5.0"},{"rt":4571,"responses":"{\"Q0\":\"White-throated Sparrow\"}","answer":["White-throated Sparrow"],"trial_type":"image-multi-choice","trial_index":203,"time_elapsed":1213567,"internal_node_id":"0.0-8.0-6.0"},{"rt":4889,"responses":"{\"Q0\":\"Fox Sparrow\"}","answer":["Fox Sparrow"],"trial_type":"image-multi-choice","trial_index":204,"time_elapsed":1219462,"internal_node_id":"0.0-8.0-7.0"},{"rt":18692,"responses":"{\"Q0\":\"Song Sparrow\"}","answer":["Song Sparrow"],"trial_type":"image-multi-choice","trial_index":205,"time_elapsed":1239161,"internal_node_id":"0.0-8.0-8.0"},{"rt":16814,"responses":"{\"Q0\":\"Magnolia Warbler\"}","answer":["Blackburnian Warbler"],"trial_type":"image-multi-choice","trial_index":206,"time_elapsed":1256981,"internal_node_id":"0.0-8.0-9.0"},{"rt":12561,"responses":"{\"Q0\":\"Lincoln's Sparrow\"}","answer":["Vesper Sparrow"],"trial_type":"image-multi-choice","trial_index":207,"time_elapsed":1270549,"internal_node_id":"0.0-8.0-10.0"},{"rt":4224,"responses":"{\"Q0\":\"White-crowned Sparrow\"}","answer":["White-crowned Sparrow"],"trial_type":"image-multi-choice","trial_index":208,"time_elapsed":1275780,"internal_node_id":"0.0-8.0-11.0"},{"rt":9048,"responses":"{\"Q0\":\"Chipping Sparrow\"}","answer":["American Tree Sparrow"],"trial_type":"image-multi-choice","trial_index":209,"time_elapsed":1285837,"internal_node_id":"0.0-8.0-12.0"},{"rt":12449,"responses":"{\"Q0\":\"Townsend's Warbler\"}","answer":["Tennessee Warbler"],"trial_type":"image-multi-choice","trial_index":210,"time_elapsed":1299293,"internal_node_id":"0.0-8.0-13.0"},{"rt":28377,"responses":"{\"Q0\":\"Blackburnian Warbler\"}","answer":["Magnolia Warbler"],"trial_type":"image-multi-choice","trial_index":211,"time_elapsed":1328678,"internal_node_id":"0.0-8.0-14.0"},{"rt":4007,"responses":"{\"Q0\":\"Ovenbird\"}","answer":["Northern Waterthrush"],"trial_type":"image-multi-choice","trial_index":212,"time_elapsed":1333695,"internal_node_id":"0.0-8.0-15.0"},{"rt":7140,"responses":"{\"Q0\":\"Chipping Sparrow\"}","answer":["Chipping Sparrow"],"trial_type":"image-multi-choice","trial_index":213,"time_elapsed":1341840,"internal_node_id":"0.0-8.0-16.0"},{"rt":13764,"responses":"{\"Q0\":\"Swamp Sparrow\"}","answer":["Swamp Sparrow"],"trial_type":"image-multi-choice","trial_index":214,"time_elapsed":1356612,"internal_node_id":"0.0-8.0-17.0"},{"rt":7462,"responses":"{\"Q0\":\"Vesper Sparrow\"}","answer":["Lincoln's Sparrow"],"trial_type":"image-multi-choice","trial_index":215,"time_elapsed":1365083,"internal_node_id":"0.0-8.0-18.0"},{"rt":8747,"responses":"{\"Q0\":\"Northern Waterthrush\"}","answer":["Ovenbird"],"trial_type":"image-multi-choice","trial_index":216,"time_elapsed":1374837,"internal_node_id":"0.0-8.0-19.0"}]