[{"view_history":"[{\"page_index\":0,\"viewing_time\":9500}]","rt":9501,"trial_type":"instructions","trial_index":0,"time_elapsed":9502,"internal_node_id":"0.0-0.0"},{"sim_score":7,"rt":41166,"stimulus":"[\"img/bluejay1.jpg\",\"img/bluejay2.jpg\"]","trial_type":"similarity_demo","trial_index":1,"time_elapsed":51672,"internal_node_id":"0.0-1.0"},{"view_history":"[{\"page_index\":0,\"viewing_time\":156830}]","rt":156830,"trial_type":"instructions","trial_index":2,"time_elapsed":209518,"internal_node_id":"0.0-2.0"},{"sim_score":1,"rt":6057,"stimulus":"[\"img/bluejay1.jpg\",\"img/cardinal1.jpg\"]","trial_type":"similarity_demo","trial_index":3,"time_elapsed":216590,"internal_node_id":"0.0-3.0"},{"view_history":"[{\"page_index\":0,\"viewing_time\":3867}]","rt":3867,"trial_type":"instructions","trial_index":4,"time_elapsed":221475,"internal_node_id":"0.0-4.0"},{"view_history":"[{\"page_index\":0,\"viewing_time\":26050}]","rt":26050,"trial_type":"instructions","trial_index":5,"time_elapsed":248533,"internal_node_id":"0.0-5.0"},{"sim_score":3,"rt":6509,"stimulus":"[\"img/0868/5fa7f9d0-f0e5-454c-8224-74d964818f56.jpg\",\"img/0894/b422d5c6-3c5a-49ae-a53e-7e88ac993f49.jpg\"]","trial_type":"similarity","trial_index":6,"time_elapsed":256053,"internal_node_id":"0.0-6.0-0.0"},{"sim_score":2,"rt":4157,"stimulus":"[\"img/0898/6cd3830b-d44e-4915-be2b-88d31424b91c.jpg\",\"img/0758/ddc336e9-a8b6-4bb9-937a-c7e25e0e9250.jpg\"]","trial_type":"similarity","trial_index":7,"time_elapsed":261211,"internal_node_id":"0.0-6.0-1.0"},{"sim_score":5,"rt":3715,"stimulus":"[\"img/0903/8931c67c-a43d-47d3-a4c9-42aa2f81d344.jpg\",\"img/0894/86201968-6e78-4d68-9b3a-d1692e066210.jpg\"]","trial_type":"similarity","trial_index":8,"time_elapsed":265940,"internal_node_id":"0.0-6.0-2.0"},{"sim_score":2,"rt":3816,"stimulus":"[\"img/0881/ee44e27f-d662-4608-b265-e7ffa19b216f.jpg\",\"img/0766/51d3aab4-3d09-4dda-b99d-3dc7aaabc6f2.jpg\"]","trial_type":"similarity","trial_index":9,"time_elapsed":270764,"internal_node_id":"0.0-6.0-3.0"},{"sim_score":5,"rt":3965,"stimulus":"[\"img/0864/5f74a653-3bdc-4308-8cca-ac667dc22e1f.jpg\",\"img/0860/c7047cd2-7cc1-41b6-8a34-c0986774975f.jpg\"]","trial_type":"similarity","trial_index":10,"time_elapsed":275749,"internal_node_id":"0.0-6.0-4.0"},{"sim_score":4,"rt":7887,"stimulus":"[\"img/0902/0eb85fbc-27c8-41df-9d0b-a5f9efd417d1.jpg\",\"img/0899/f58b8d2f-b19d-4b59-8b94-8834be92e4ba.jpg\"]","trial_type":"similarity","trial_index":11,"time_elapsed":284637,"internal_node_id":"0.0-6.0-5.0"},{"sim_score":2,"rt":7035,"stimulus":"[\"img/0868/77091fc7-a590-4ebb-b915-fdb2483a2399.jpg\",\"img/0769/d1be2815-fa79-46e8-b5c3-7d81caaca490.jpg\"]","trial_type":"similarity","trial_index":12,"time_elapsed":292684,"internal_node_id":"0.0-6.0-6.0"},{"sim_score":6,"rt":3954,"stimulus":"[\"img/0764/da207710-e7e4-4f42-b2e6-99b5f357f433.jpg\",\"img/0901/d61f267a-c492-4db6-9bfb-61efd49cf072.jpg\"]","trial_type":"similarity","trial_index":13,"time_elapsed":297649,"internal_node_id":"0.0-6.0-7.0"},{"sim_score":5,"rt":4398,"stimulus":"[\"img/0881/d373cb9f-a719-4549-a2a4-82def79fb2a5.jpg\",\"img/0866/23a224f3-2012-4fc8-8e0f-3c36f8de27fd.jpg\"]","trial_type":"similarity","trial_index":14,"time_elapsed":303061,"internal_node_id":"0.0-6.0-8.0"},{"sim_score":3,"rt":23768,"stimulus":"[\"img/0867/bf560d4f-dee3-4f11-a385-705cc1aa5f3c.jpg\",\"img/0899/56a605c3-d0a2-4215-89e1-779279d85a7c.jpg\"]","trial_type":"similarity","trial_index":15,"time_elapsed":327832,"internal_node_id":"0.0-6.0-9.0"},{"sim_score":2,"rt":4094,"stimulus":"[\"img/0875/527ced51-8e53-4aab-ab05-86df219104c0.jpg\",\"img/0766/d5d38751-8fa5-476f-93e9-86ed2d9045ef.jpg\"]","trial_type":"similarity","trial_index":16,"time_elapsed":332934,"internal_node_id":"0.0-6.0-10.0"},{"sim_score":5,"rt":4446,"stimulus":"[\"img/0901/77087ed2-6e12-4329-b2a5-605bca6d972d.jpg\",\"img/0875/2e13d160-eea1-416b-aff1-d37ab99ecc1d.jpg\"]","trial_type":"similarity","trial_index":17,"time_elapsed":338385,"internal_node_id":"0.0-6.0-11.0"},{"sim_score":2,"rt":3948,"stimulus":"[\"img/0902/af40b98b-3d23-4d95-b401-49ba5783ce39.jpg\",\"img/0860/9593362c-9fe5-4d12-9735-6000a11f6aa5.jpg\"]","trial_type":"similarity","trial_index":18,"time_elapsed":343342,"internal_node_id":"0.0-6.0-12.0"},{"sim_score":5,"rt":4509,"stimulus":"[\"img/0874/3f471690-9788-4d03-90c7-f615aecef149.jpg\",\"img/0867/c71dc569-f49c-4397-8381-68b8d726736d.jpg\"]","trial_type":"similarity","trial_index":19,"time_elapsed":348855,"internal_node_id":"0.0-6.0-13.0"},{"sim_score":3,"rt":4704,"stimulus":"[\"img/0904/56e73f28-7e64-489b-a161-e6b1a063878d.jpg\",\"img/0866/4a87911a-d5be-4d4e-ab8e-3d1f581bf507.jpg\"]","trial_type":"similarity","trial_index":20,"time_elapsed":354568,"internal_node_id":"0.0-6.0-14.0"},{"sim_score":5,"rt":4389,"stimulus":"[\"img/0758/335851a0-a55b-46d8-ab05-8463eda48349.jpg\",\"img/0902/6730b12a-f0a7-4587-8c10-a32fae16565b.jpg\"]","trial_type":"similarity","trial_index":21,"time_elapsed":359974,"internal_node_id":"0.0-6.0-15.0"},{"sim_score":3,"rt":4031,"stimulus":"[\"img/0867/26611f4e-d694-4460-b7e2-43c62753ddc3.jpg\",\"img/0898/e167334e-cc1d-4986-b3b1-c7bc7da64baa.jpg\"]","trial_type":"similarity","trial_index":22,"time_elapsed":365008,"internal_node_id":"0.0-6.0-16.0"},{"sim_score":3,"rt":3404,"stimulus":"[\"img/0904/9d30eff1-46ef-4453-b11e-124ef8145c00.jpg\",\"img/0868/0d3abd3a-b6c3-4584-a9f7-e2da63748b3d.jpg\"]","trial_type":"similarity","trial_index":23,"time_elapsed":369430,"internal_node_id":"0.0-6.0-17.0"},{"sim_score":2,"rt":2580,"stimulus":"[\"img/0766/2e1cf445-9aef-40e7-92f4-5facf48b64c5.jpg\",\"img/0864/a248adb3-c70b-4652-b7a3-776d2a1e904b.jpg\"]","trial_type":"similarity","trial_index":24,"time_elapsed":373020,"internal_node_id":"0.0-6.0-18.0"},{"sim_score":3,"rt":3164,"stimulus":"[\"img/0899/66ab3178-c3fe-4455-ad17-d5952b08e018.jpg\",\"img/0766/33aa9ebb-c9f5-418f-8c8b-c77861889568.jpg\"]","trial_type":"similarity","trial_index":25,"time_elapsed":377190,"internal_node_id":"0.0-6.0-19.0"},{"sim_score":1,"rt":4469,"stimulus":"[\"img/0764/e30dba15-e68a-4659-89db-e1654b52fe02.jpg\",\"img/0758/d540bee6-b460-4c32-ac57-bc282742d7d4.jpg\"]","trial_type":"similarity","trial_index":26,"time_elapsed":382661,"internal_node_id":"0.0-6.0-20.0"},{"sim_score":1,"rt":5373,"stimulus":"[\"img/0901/00acf6c1-b66e-4060-bb04-4caf29b5a8b0.jpg\",\"img/0874/3ce41e7c-40c8-4d58-a546-171114521796.jpg\"]","trial_type":"similarity","trial_index":27,"time_elapsed":389035,"internal_node_id":"0.0-6.0-21.0"},{"sim_score":6,"rt":5147,"stimulus":"[\"img/0875/42910c99-5463-450a-a0f8-d4d060a11455.jpg\",\"img/0758/d57c2592-a317-4f63-91be-91a3a9afd222.jpg\"]","trial_type":"similarity","trial_index":28,"time_elapsed":395197,"internal_node_id":"0.0-6.0-22.0"},{"sim_score":6,"rt":2821,"stimulus":"[\"img/0867/f8159067-056c-41f1-a136-c529fe5e970a.jpg\",\"img/0881/f6bd3b96-dc40-4e99-8681-bc3a35cf896d.jpg\"]","trial_type":"similarity","trial_index":29,"time_elapsed":399023,"internal_node_id":"0.0-6.0-23.0"},{"sim_score":2,"rt":3529,"stimulus":"[\"img/0758/9fb5b2fe-3f00-4fe6-973c-1ce10d5f4cd5.jpg\",\"img/0901/3db47171-0139-4235-82cd-0b1787b6775f.jpg\"]","trial_type":"similarity","trial_index":30,"time_elapsed":403560,"internal_node_id":"0.0-6.0-24.0"},{"sim_score":6,"rt":4193,"stimulus":"[\"img/0868/83b4350a-3b70-4cea-b7f5-b5b56f3050a8.jpg\",\"img/0875/d59ff733-eaff-4ee2-9443-06954dd0bcb6.jpg\"]","trial_type":"similarity","trial_index":31,"time_elapsed":408761,"internal_node_id":"0.0-6.0-25.0"},{"sim_score":6,"rt":4410,"stimulus":"[\"img/0903/005ad0de-4f52-433c-b515-dbe8d46184a3.jpg\",\"img/0901/b13fa50f-dbe0-4d0f-8647-6ac0fd8f40bd.jpg\"]","trial_type":"similarity","trial_index":32,"time_elapsed":414177,"internal_node_id":"0.0-6.0-26.0"},{"sim_score":6,"rt":4591,"stimulus":"[\"img/0894/38cf335f-f76f-4349-8d65-e20cd6859565.jpg\",\"img/0899/565ccdd9-0933-4536-a625-3c0e25a713dd.jpg\"]","trial_type":"similarity","trial_index":33,"time_elapsed":419777,"internal_node_id":"0.0-6.0-27.0"},{"sim_score":5,"rt":3675,"stimulus":"[\"img/0862/cdaed51d-9e2f-4807-801a-4663c40077e2.jpg\",\"img/0867/f26f6b60-f772-4f4c-95a4-addc62cfd692.jpg\"]","trial_type":"similarity","trial_index":34,"time_elapsed":424461,"internal_node_id":"0.0-6.0-28.0"},{"sim_score":6,"rt":4795,"stimulus":"[\"img/0864/66091c27-e588-4476-8af9-265dc6be4156.jpg\",\"img/0875/03c3c331-738b-4446-af92-3d7386b08c2e.jpg\"]","trial_type":"similarity","trial_index":35,"time_elapsed":430271,"internal_node_id":"0.0-6.0-29.0"},{"sim_score":5,"rt":3765,"stimulus":"[\"img/0862/064818ee-13d5-4618-bb24-21c7368ea278.jpg\",\"img/0874/ca76a855-4e77-4f2f-872a-0a718153e7ed.jpg\"]","trial_type":"similarity","trial_index":36,"time_elapsed":435050,"internal_node_id":"0.0-6.0-30.0"},{"sim_score":2,"rt":2700,"stimulus":"[\"img/0903/365f176c-25a4-4973-bd3c-279bf1b39476.jpg\",\"img/0758/d41c06bf-ebaf-454b-91c6-1a17f917b659.jpg\"]","trial_type":"similarity","trial_index":37,"time_elapsed":438774,"internal_node_id":"0.0-6.0-31.0"},{"sim_score":4,"rt":4140,"stimulus":"[\"img/0866/0207e9a2-7dbb-40b5-9459-b472aaeceb2a.jpg\",\"img/0901/08d6d1d1-c043-43c4-bb08-d45e062822b9.jpg\"]","trial_type":"similarity","trial_index":38,"time_elapsed":443920,"internal_node_id":"0.0-6.0-32.0"},{"sim_score":2,"rt":5432,"stimulus":"[\"img/0874/eba003b4-cdab-4eee-8bc3-f064c7d94165.jpg\",\"img/0899/8de08897-b430-42fe-9d42-840670b80f94.jpg\"]","trial_type":"similarity","trial_index":39,"time_elapsed":450361,"internal_node_id":"0.0-6.0-33.0"},{"sim_score":7,"rt":6180,"stimulus":"[\"img/0903/b0a3c45f-467e-412f-a183-c9c1827f2e63.jpg\",\"img/0902/aa6fca32-82b0-4414-b20a-8f6f8aa5a2d2.jpg\"]","trial_type":"similarity","trial_index":40,"time_elapsed":457546,"internal_node_id":"0.0-6.0-34.0"},{"sim_score":6,"rt":4655,"stimulus":"[\"img/0758/61d64021-9214-4951-bdf8-f871f9827cf9.jpg\",\"img/0866/c446214b-a368-4c65-ae39-ea46894256ab.jpg\"]","trial_type":"similarity","trial_index":41,"time_elapsed":463210,"internal_node_id":"0.0-6.0-35.0"},{"sim_score":2,"rt":2716,"stimulus":"[\"img/0875/5a1e5100-0d94-4fec-bbe9-ca9894d2cf8e.jpg\",\"img/0903/3e9ee8a5-eb66-47f5-8973-8a5af1ddc87e.jpg\"]","trial_type":"similarity","trial_index":42,"time_elapsed":466932,"internal_node_id":"0.0-6.0-36.0"},{"sim_score":5,"rt":3454,"stimulus":"[\"img/0864/b3c4e378-28f0-4699-9338-2a257b4bca04.jpg\",\"img/0902/6c2c243a-f663-45db-baf5-038d3d58c589.jpg\"]","trial_type":"similarity","trial_index":43,"time_elapsed":475790,"internal_node_id":"0.0-6.0-37.0"},{"sim_score":3,"rt":4543,"stimulus":"[\"img/0901/548d1110-7cb8-42a2-9927-9798875c8b5c.jpg\",\"img/0867/cc72ed48-7704-422c-86d6-467a1145287a.jpg\"]","trial_type":"similarity","trial_index":44,"time_elapsed":481349,"internal_node_id":"0.0-6.0-38.0"},{"sim_score":5,"rt":5350,"stimulus":"[\"img/0862/1c20f772-3a51-4a80-aac0-f57dc9f86c28.jpg\",\"img/0860/524b2e98-5767-4d53-942c-ebae6925659b.jpg\"]","trial_type":"similarity","trial_index":45,"time_elapsed":487726,"internal_node_id":"0.0-6.0-39.0"},{"sim_score":7,"rt":4317,"stimulus":"[\"img/0867/aa05d113-fc19-4756-a8eb-7878f580bc92.jpg\",\"img/0868/4e626425-63c8-484a-8a1d-e66ee4e0bef8.jpg\"]","trial_type":"similarity","trial_index":46,"time_elapsed":493045,"internal_node_id":"0.0-6.0-40.0"},{"sim_score":6,"rt":4960,"stimulus":"[\"img/0904/da170c1b-9651-4f08-b231-2bdd1d9a046f.jpg\",\"img/0899/7b7380d5-d2be-44e5-a09a-c1756f87ef71.jpg\"]","trial_type":"similarity","trial_index":47,"time_elapsed":499014,"internal_node_id":"0.0-6.0-41.0"},{"sim_score":2,"rt":3480,"stimulus":"[\"img/0862/00c06b00-3b73-44e9-bc1e-c5aafb438321.jpg\",\"img/0894/b2d2f66e-e480-46da-a02a-6d0c6b285d78.jpg\"]","trial_type":"similarity","trial_index":48,"time_elapsed":503502,"internal_node_id":"0.0-6.0-42.0"},{"sim_score":1,"rt":3542,"stimulus":"[\"img/0875/90da8d75-108a-44ad-b999-e21fee3860d3.jpg\",\"img/0904/fe746a3f-8458-48d0-8a13-8cba2a9df9f8.jpg\"]","trial_type":"similarity","trial_index":49,"time_elapsed":508054,"internal_node_id":"0.0-6.0-43.0"},{"sim_score":1,"rt":3250,"stimulus":"[\"img/0874/7e4f2150-3b59-4a36-b5da-a4e0ba410531.jpg\",\"img/0898/661621d4-a14e-487c-8c74-354134a29710.jpg\"]","trial_type":"similarity","trial_index":50,"time_elapsed":512307,"internal_node_id":"0.0-6.0-44.0"},{"sim_score":1,"rt":2921,"stimulus":"[\"img/0898/82231d4c-218b-4d0a-b50d-35a49b524e97.jpg\",\"img/0868/3a62db2d-97e9-44a3-b8e3-a48c6f0e423b.jpg\"]","trial_type":"similarity","trial_index":51,"time_elapsed":516237,"internal_node_id":"0.0-6.0-45.0"},{"sim_score":1,"rt":4608,"stimulus":"[\"img/0901/875dedb9-24c9-4443-9f8c-85e97d70ee5a.jpg\",\"img/0860/18dfed73-e36b-4487-a8bd-0b8cff8e3668.jpg\"]","trial_type":"similarity","trial_index":52,"time_elapsed":521854,"internal_node_id":"0.0-6.0-46.0"},{"sim_score":5,"rt":4737,"stimulus":"[\"img/0894/bd34223a-2f66-4e16-9d18-193a746b69ff.jpg\",\"img/0902/b03fee99-d5ca-4bf8-871c-a4a743a39842.jpg\"]","trial_type":"similarity","trial_index":53,"time_elapsed":527603,"internal_node_id":"0.0-6.0-47.0"},{"sim_score":1,"rt":3541,"stimulus":"[\"img/0764/62fafeea-6274-48ce-976f-35d3d3484c65.jpg\",\"img/0862/fb26cb07-d5a9-4653-813c-f41609f26cd5.jpg\"]","trial_type":"similarity","trial_index":54,"time_elapsed":532158,"internal_node_id":"0.0-6.0-48.0"},{"sim_score":6,"rt":3665,"stimulus":"[\"img/0881/44e09805-5a25-4f17-a716-4ad4a331b174.jpg\",\"img/0758/7fba58df-2a7a-4b76-8a8f-62739f97f271.jpg\"]","trial_type":"similarity","trial_index":55,"time_elapsed":536832,"internal_node_id":"0.0-6.0-49.0"},{"sim_score":6,"rt":4942,"stimulus":"[\"img/0766/27f54113-8561-4568-9ffe-0a1650ae65ec.jpg\",\"img/0769/82ab9db6-4578-4e79-874f-f09100439f09.jpg\"]","trial_type":"similarity","trial_index":56,"time_elapsed":542782,"internal_node_id":"0.0-6.0-50.0"},{"sim_score":6,"rt":3490,"stimulus":"[\"img/0875/cff79b3a-a797-4393-9757-6275f999ec04.jpg\",\"img/0866/02f5e6b9-52b7-448c-9708-5b460d0c9a23.jpg\"]","trial_type":"similarity","trial_index":57,"time_elapsed":547277,"internal_node_id":"0.0-6.0-51.0"},{"sim_score":5,"rt":3855,"stimulus":"[\"img/0894/6b2e9509-8699-42b7-9582-7741df0ba2d7.jpg\",\"img/0904/d23dd7be-7fe8-4435-82f7-bd592c01e6a1.jpg\"]","trial_type":"similarity","trial_index":58,"time_elapsed":552142,"internal_node_id":"0.0-6.0-52.0"},{"sim_score":2,"rt":3108,"stimulus":"[\"img/0758/3ddd05d3-557e-4ee7-8b78-9d2d681d8ae2.jpg\",\"img/0769/387a9744-d6a7-42b8-bab8-33007ec434aa.jpg\"]","trial_type":"similarity","trial_index":59,"time_elapsed":556254,"internal_node_id":"0.0-6.0-53.0"},{"sim_score":5,"rt":4184,"stimulus":"[\"img/0902/4e0baa32-988e-46f6-989d-f669225ab645.jpg\",\"img/0874/29830da7-be5f-44e5-b141-652a0ccf7269.jpg\"]","trial_type":"similarity","trial_index":60,"time_elapsed":561449,"internal_node_id":"0.0-6.0-54.0"},{"sim_score":2,"rt":2822,"stimulus":"[\"img/0903/f45a103c-9bfe-49fd-ad96-bdd8d2589195.jpg\",\"img/0862/92f0146c-20c4-482e-aef5-adb693790338.jpg\"]","trial_type":"similarity","trial_index":61,"time_elapsed":565277,"internal_node_id":"0.0-6.0-55.0"},{"sim_score":2,"rt":3597,"stimulus":"[\"img/0866/a04d37f0-99dd-478a-b6c6-58b215138f84.jpg\",\"img/0894/e5edf723-72a5-4673-8441-6c1734a8929b.jpg\"]","trial_type":"similarity","trial_index":62,"time_elapsed":569886,"internal_node_id":"0.0-6.0-56.0"},{"sim_score":2,"rt":3069,"stimulus":"[\"img/0867/85a96c62-548f-4994-9553-819e03c3135a.jpg\",\"img/0904/09dac84f-3d1c-4445-a68e-d0389fdbf1e9.jpg\"]","trial_type":"similarity","trial_index":63,"time_elapsed":573966,"internal_node_id":"0.0-6.0-57.0"},{"sim_score":6,"rt":5161,"stimulus":"[\"img/0875/99698b4d-b4a1-44bc-8c83-8ea755bbbf61.jpg\",\"img/0881/f62bdcd1-a4b7-4d48-83da-d9c9e01c8727.jpg\"]","trial_type":"similarity","trial_index":64,"time_elapsed":580133,"internal_node_id":"0.0-6.0-58.0"},{"sim_score":5,"rt":4094,"stimulus":"[\"img/0866/8efcaa46-83ab-4dee-a35f-850402aa21ae.jpg\",\"img/0860/4a022222-056d-461c-ab02-39fac9647552.jpg\"]","trial_type":"similarity","trial_index":65,"time_elapsed":585230,"internal_node_id":"0.0-6.0-59.0"},{"sim_score":2,"rt":3766,"stimulus":"[\"img/0903/36e4ab1f-caa9-40b3-8616-faada076df94.jpg\",\"img/0866/f756f7d1-9ad8-4a34-9ef6-7a443d705bfe.jpg\"]","trial_type":"similarity","trial_index":66,"time_elapsed":589998,"internal_node_id":"0.0-6.0-60.0"},{"sim_score":5,"rt":6014,"stimulus":"[\"img/0860/5bff793e-cbd5-4d7e-b628-0ac2b0e30b64.jpg\",\"img/0875/fb732ab5-013a-4366-9f65-27811ed157e9.jpg\"]","trial_type":"similarity","trial_index":67,"time_elapsed":597014,"internal_node_id":"0.0-6.0-61.0"},{"sim_score":2,"rt":3418,"stimulus":"[\"img/0898/a8f16b02-e19f-423b-86c3-a36562ae1f9b.jpg\",\"img/0862/f23038d4-c366-4f70-979f-66b62362efa4.jpg\"]","trial_type":"similarity","trial_index":68,"time_elapsed":601433,"internal_node_id":"0.0-6.0-62.0"},{"sim_score":6,"rt":5539,"stimulus":"[\"img/0902/eb3e7e71-8ff1-4b88-a6a7-47e2c1ce1683.jpg\",\"img/0766/ef3b15ce-abb7-4292-ad93-aec8e8b50520.jpg\"]","trial_type":"similarity","trial_index":69,"time_elapsed":607981,"internal_node_id":"0.0-6.0-63.0"},{"sim_score":6,"rt":3510,"stimulus":"[\"img/0758/821c68d3-5cb0-4eae-8659-30e6263fca39.jpg\",\"img/0864/87c467d3-abca-482f-ad80-3766c21b1bb3.jpg\"]","trial_type":"similarity","trial_index":70,"time_elapsed":612501,"internal_node_id":"0.0-6.0-64.0"},{"sim_score":2,"rt":4327,"stimulus":"[\"img/0894/11674fa4-285d-44e2-939f-2228c6a64080.jpg\",\"img/0860/8277806e-b684-4474-8f7b-3fca946d7d4f.jpg\"]","trial_type":"similarity","trial_index":71,"time_elapsed":617832,"internal_node_id":"0.0-6.0-65.0"},{"sim_score":2,"rt":2427,"stimulus":"[\"img/0899/f95cbdb4-f804-4f5d-ad76-373ad343e658.jpg\",\"img/0868/09a9ef4d-d000-4cfa-a6aa-ebec7c2edeb4.jpg\"]","trial_type":"similarity","trial_index":72,"time_elapsed":621270,"internal_node_id":"0.0-6.0-66.0"},{"sim_score":6,"rt":5341,"stimulus":"[\"img/0866/d266fece-59b3-46fa-b69f-96f6efb81b59.jpg\",\"img/0862/fad1d7c1-8187-43c3-942a-0fc12183e48e.jpg\"]","trial_type":"similarity","trial_index":73,"time_elapsed":627614,"internal_node_id":"0.0-6.0-67.0"},{"sim_score":5,"rt":5144,"stimulus":"[\"img/0860/e8b8c51e-1834-4875-8b61-6c5bc9b178bd.jpg\",\"img/0758/a085b443-b5d7-4cb2-9ad4-b9dab0fc23f1.jpg\"]","trial_type":"similarity","trial_index":74,"time_elapsed":633760,"internal_node_id":"0.0-6.0-68.0"},{"sim_score":3,"rt":4295,"stimulus":"[\"img/0902/8af4182a-9af9-4212-a436-9195555112d6.jpg\",\"img/0867/a498eef3-9fa4-4ab2-9778-4ae82ac40dc5.jpg\"]","trial_type":"similarity","trial_index":75,"time_elapsed":639062,"internal_node_id":"0.0-6.0-69.0"},{"sim_score":2,"rt":2482,"stimulus":"[\"img/0862/57b6f83f-c763-4858-830d-102f97bfefbf.jpg\",\"img/0901/443f2e59-199b-4f7b-9de9-c44ad97326a5.jpg\"]","trial_type":"similarity","trial_index":76,"time_elapsed":642558,"internal_node_id":"0.0-6.0-70.0"},{"sim_score":6,"rt":4291,"stimulus":"[\"img/0867/075e0f95-856b-4cbb-acf5-092393aaf04e.jpg\",\"img/0866/11a1d141-be5e-443c-98c1-a9d4d9e3dec0.jpg\"]","trial_type":"similarity","trial_index":77,"time_elapsed":647866,"internal_node_id":"0.0-6.0-71.0"},{"sim_score":2,"rt":3251,"stimulus":"[\"img/0860/702bd09d-df3a-40aa-a267-5f04474305b5.jpg\",\"img/0904/0d25eb24-bb20-4e8d-9787-8b489558b4cb.jpg\"]","trial_type":"similarity","trial_index":78,"time_elapsed":652121,"internal_node_id":"0.0-6.0-72.0"},{"sim_score":3,"rt":3853,"stimulus":"[\"img/0875/34132396-d896-4c2d-8087-646dd867e769.jpg\",\"img/0899/4f7bc593-8ddd-4da3-a0b9-84da730d3370.jpg\"]","trial_type":"similarity","trial_index":79,"time_elapsed":656990,"internal_node_id":"0.0-6.0-73.0"},{"sim_score":2,"rt":3490,"stimulus":"[\"img/0899/a05bea16-2bb4-4cb9-b8fb-4ff975db6971.jpg\",\"img/0758/caa93da2-9edf-49fa-96b9-32dedd8f5078.jpg\"]","trial_type":"similarity","trial_index":80,"time_elapsed":661481,"internal_node_id":"0.0-6.0-74.0"},{"sim_score":5,"rt":2806,"stimulus":"[\"img/0862/eefa5588-9efd-4591-aa5f-a2e17c7d7bcc.jpg\",\"img/0875/e7e66b13-b573-431e-b85e-288ce04a35a3.jpg\"]","trial_type":"similarity","trial_index":81,"time_elapsed":673055,"internal_node_id":"0.0-6.0-75.0"},{"sim_score":5,"rt":7851,"stimulus":"[\"img/0901/71e551a2-9ce2-409c-9c7c-dd556a0791e9.jpg\",\"img/0894/05161000-f476-499b-a878-c13c7f347fd9.jpg\"]","trial_type":"similarity","trial_index":82,"time_elapsed":681916,"internal_node_id":"0.0-6.0-76.0"},{"sim_score":1,"rt":2754,"stimulus":"[\"img/0766/60033a74-9919-47e5-913c-71d0d483e7e5.jpg\",\"img/0758/67c0be2f-9e91-48b3-8219-70ac0a1802fa.jpg\"]","trial_type":"similarity","trial_index":83,"time_elapsed":685679,"internal_node_id":"0.0-6.0-77.0"},{"sim_score":5,"rt":4719,"stimulus":"[\"img/0894/76c1201f-8524-4865-85e6-dda8cb4ac986.jpg\",\"img/0764/f990b2e8-ecee-481e-be7c-0239fce350e2.jpg\"]","trial_type":"similarity","trial_index":84,"time_elapsed":691405,"internal_node_id":"0.0-6.0-78.0"},{"sim_score":5,"rt":4838,"stimulus":"[\"img/0860/94ef7afc-e0e6-4a15-98c6-0bfac82bc832.jpg\",\"img/0867/8ba0c5a7-c7e4-42cf-a80a-543763b90779.jpg\"]","trial_type":"similarity","trial_index":85,"time_elapsed":697253,"internal_node_id":"0.0-6.0-79.0"},{"sim_score":6,"rt":4885,"stimulus":"[\"img/0898/08c72dac-f8ad-407a-9ce6-8c9a5d679c3a.jpg\",\"img/0901/a2d7b2f6-396b-4d91-8403-de5361c74af7.jpg\"]","trial_type":"similarity","trial_index":86,"time_elapsed":703142,"internal_node_id":"0.0-6.0-80.0"},{"sim_score":2,"rt":2993,"stimulus":"[\"img/0874/8cdb1c07-1c32-46d2-981c-3636560fa6e5.jpg\",\"img/0764/713cc27e-2338-4486-bfe9-5f5725fbd7a0.jpg\"]","trial_type":"similarity","trial_index":87,"time_elapsed":707149,"internal_node_id":"0.0-6.0-81.0"},{"sim_score":2,"rt":4030,"stimulus":"[\"img/0899/93494f3b-d539-4075-b027-d82e344563da.jpg\",\"img/0862/4f0a3b4c-afbf-486e-b248-1d54982f54b4.jpg\"]","trial_type":"similarity","trial_index":88,"time_elapsed":712187,"internal_node_id":"0.0-6.0-82.0"},{"sim_score":5,"rt":3616,"stimulus":"[\"img/0766/d512b99c-a2dc-40d7-8e86-827323a0cbcf.jpg\",\"img/0901/1e23ffbd-19de-4c4f-aa23-c54aaa3319a3.jpg\"]","trial_type":"similarity","trial_index":89,"time_elapsed":716813,"internal_node_id":"0.0-6.0-83.0"},{"sim_score":2,"rt":3909,"stimulus":"[\"img/0881/62a64f90-7a72-4aee-a1a1-0c548ac9bdda.jpg\",\"img/0898/68476bbb-34a1-42d9-8bc1-deab783d4489.jpg\"]","trial_type":"similarity","trial_index":90,"time_elapsed":721727,"internal_node_id":"0.0-6.0-84.0"},{"sim_score":3,"rt":4640,"stimulus":"[\"img/0868/d98ca254-b195-477f-b57e-5760a2717db8.jpg\",\"img/0860/99c589b9-9140-4d17-90c0-b344323edcda.jpg\"]","trial_type":"similarity","trial_index":91,"time_elapsed":727382,"internal_node_id":"0.0-6.0-85.0"},{"sim_score":5,"rt":4048,"stimulus":"[\"img/0758/a709631e-3705-4725-ac40-f0d916924f08.jpg\",\"img/0868/d6d1f30d-4323-435a-b194-7892521bc57e.jpg\"]","trial_type":"similarity","trial_index":92,"time_elapsed":732447,"internal_node_id":"0.0-6.0-86.0"},{"sim_score":3,"rt":2176,"stimulus":"[\"img/0864/0116ca98-293d-4fa6-a93b-5a6144ef64cc.jpg\",\"img/0894/5ff3c4f6-52e2-4075-8679-be0312e59703.jpg\"]","trial_type":"similarity","trial_index":93,"time_elapsed":735632,"internal_node_id":"0.0-6.0-87.0"},{"sim_score":2,"rt":4994,"stimulus":"[\"img/0866/a15b02be-11bb-43e3-b0e0-ecc3bd7dfc49.jpg\",\"img/0902/95a36b6b-9601-4fa5-8fd9-606ea62f9425.jpg\"]","trial_type":"similarity","trial_index":94,"time_elapsed":741637,"internal_node_id":"0.0-6.0-88.0"},{"sim_score":3,"rt":4429,"stimulus":"[\"img/0769/c34b7763-8ff2-46d5-9e92-f1d8f3bedbd8.jpg\",\"img/0867/a749dddb-69f0-44a6-acdc-2bf295cf6dcc.jpg\"]","trial_type":"similarity","trial_index":95,"time_elapsed":747075,"internal_node_id":"0.0-6.0-89.0"},{"sim_score":5,"rt":3755,"stimulus":"[\"img/0874/adf9a8f1-c40b-402b-b95b-1e85a54a7b62.jpg\",\"img/0875/3ecb367d-e9eb-4826-8aaa-7aa72fb98019.jpg\"]","trial_type":"similarity","trial_index":96,"time_elapsed":751842,"internal_node_id":"0.0-6.0-90.0"},{"sim_score":6,"rt":4860,"stimulus":"[\"img/0864/3d4de670-b290-4285-9c3d-12a0e3af44e9.jpg\",\"img/0874/1016b306-087c-4afc-aa08-fa527b28dc76.jpg\"]","trial_type":"similarity","trial_index":97,"time_elapsed":757717,"internal_node_id":"0.0-6.0-91.0"},{"sim_score":5,"rt":4714,"stimulus":"[\"img/0881/19e82c47-8e4b-45d2-a6c8-74181eb4155e.jpg\",\"img/0862/f43ceabf-acc1-4107-b857-5d1849808f93.jpg\"]","trial_type":"similarity","trial_index":98,"time_elapsed":763433,"internal_node_id":"0.0-6.0-92.0"},{"sim_score":6,"rt":3714,"stimulus":"[\"img/0864/1ebbc554-99fa-49f9-8799-317375a79820.jpg\",\"img/0881/adc02f34-ce97-4aef-850f-00519df06fd7.jpg\"]","trial_type":"similarity","trial_index":99,"time_elapsed":768157,"internal_node_id":"0.0-6.0-93.0"},{"sim_score":6,"rt":3675,"stimulus":"[\"img/0899/1b3457ea-87d4-4946-a01c-aac1863ed46c.jpg\",\"img/0901/0adb3bd6-d758-4ba7-9723-3ad6cac05bd5.jpg\"]","trial_type":"similarity","trial_index":100,"time_elapsed":772837,"internal_node_id":"0.0-6.0-94.0"},{"sim_score":2,"rt":6807,"stimulus":"[\"img/0874/767f289c-9814-4496-803f-745cc8913d1f.jpg\",\"img/0766/33519c22-aaa4-49d7-8d49-ab551db1945e.jpg\"]","trial_type":"similarity","trial_index":101,"time_elapsed":780653,"internal_node_id":"0.0-6.0-95.0"},{"sim_score":1,"rt":4134,"stimulus":"[\"img/0881/0c7068da-d0d9-4103-bda1-74ef7a2b32c3.jpg\",\"img/0899/57476fed-5962-4272-8fc9-b317bb777b54.jpg\"]","trial_type":"similarity","trial_index":102,"time_elapsed":785796,"internal_node_id":"0.0-6.0-96.0"},{"sim_score":2,"rt":3319,"stimulus":"[\"img/0862/7918ca67-5bd3-4606-a5ea-c39fb11a9297.jpg\",\"img/0902/01b41522-de46-4c3a-b0af-a61b2682b40e.jpg\"]","trial_type":"similarity","trial_index":103,"time_elapsed":790117,"internal_node_id":"0.0-6.0-97.0"},{"sim_score":5,"rt":3460,"stimulus":"[\"img/0899/ad8268c5-8199-48d0-ad70-c5b6d6c599ec.jpg\",\"img/0764/29072395-f595-4e3c-83d3-ff87010039fa.jpg\"]","trial_type":"similarity","trial_index":104,"time_elapsed":794589,"internal_node_id":"0.0-6.0-98.0"},{"sim_score":5,"rt":2808,"stimulus":"[\"img/0758/6cd8c362-ae2a-41eb-80a3-3a4f7ace1530.jpg\",\"img/0862/e697469a-ec19-4414-b972-7b9f3564785b.jpg\"]","trial_type":"similarity","trial_index":105,"time_elapsed":798406,"internal_node_id":"0.0-6.0-99.0"},{"sim_score":6,"rt":4834,"stimulus":"[\"img/0764/438c0217-036f-43c9-9b87-f43144e46011.jpg\",\"img/0898/81b08535-2020-4c15-9ce4-2f1e460755ae.jpg\"]","trial_type":"similarity","trial_index":106,"time_elapsed":804250,"internal_node_id":"0.0-6.0-100.0"},{"sim_score":6,"rt":17663,"stimulus":"[\"img/0901/5b97abf9-f0c8-4fd1-b921-36d574779078.jpg\",\"img/0902/62f11694-7ed7-4cb7-8a73-9e95c43824e7.jpg\"]","trial_type":"similarity","trial_index":107,"time_elapsed":822918,"internal_node_id":"0.0-6.0-101.0"},{"sim_score":3,"rt":4145,"stimulus":"[\"img/0764/6c7fe363-2d37-418f-9e5e-a3273af5d4fb.jpg\",\"img/0868/4bd5105a-d2c3-4f82-8c80-57196106ba53.jpg\"]","trial_type":"similarity","trial_index":108,"time_elapsed":828078,"internal_node_id":"0.0-6.0-102.0"},{"sim_score":3,"rt":2517,"stimulus":"[\"img/0769/878531fd-e0e8-4ad1-b9ad-f018bb104ca0.jpg\",\"img/0881/e6746727-7f89-47ec-b939-d98abe78372d.jpg\"]","trial_type":"similarity","trial_index":109,"time_elapsed":831607,"internal_node_id":"0.0-6.0-103.0"},{"sim_score":3,"rt":2590,"stimulus":"[\"img/0864/e02eddb5-f468-499c-91bf-f7be3ffe979b.jpg\",\"img/0769/688d0c52-ad73-4065-a5eb-f8c10d076bff.jpg\"]","trial_type":"similarity","trial_index":110,"time_elapsed":835199,"internal_node_id":"0.0-6.0-104.0"},{"sim_score":5,"rt":3697,"stimulus":"[\"img/0866/bf14b5bd-fb55-47db-86b9-4f8aeb9a6dad.jpg\",\"img/0868/fd307a36-9a3a-47d7-ab7c-f810d0b35040.jpg\"]","trial_type":"similarity","trial_index":111,"time_elapsed":839905,"internal_node_id":"0.0-6.0-105.0"},{"sim_score":3,"rt":4695,"stimulus":"[\"img/0868/c8ac40c7-6904-4e13-8d61-c75d3052dc4e.jpg\",\"img/0862/f188d4f0-76a4-4102-818c-a209969d73a5.jpg\"]","trial_type":"similarity","trial_index":112,"time_elapsed":845614,"internal_node_id":"0.0-6.0-106.0"},{"sim_score":5,"rt":3681,"stimulus":"[\"img/0766/ae0fce93-fe8d-4aa1-87ca-4c3e4b889f2f.jpg\",\"img/0898/4184e5a2-84ea-4f36-9b42-ae58646f6f87.jpg\"]","trial_type":"similarity","trial_index":113,"time_elapsed":850304,"internal_node_id":"0.0-6.0-107.0"},{"sim_score":3,"rt":2826,"stimulus":"[\"img/0898/993d8f2d-bef7-4251-a193-0f93a32b7763.jpg\",\"img/0864/5f33e097-23e3-4002-882d-76e8cb15f451.jpg\"]","trial_type":"similarity","trial_index":114,"time_elapsed":854145,"internal_node_id":"0.0-6.0-108.0"},{"sim_score":3,"rt":3533,"stimulus":"[\"img/0868/1a62b2b2-18f5-466e-b564-5176a57c565e.jpg\",\"img/0902/44cd9b7e-fdfb-4f78-90de-8d4c9d279365.jpg\"]","trial_type":"similarity","trial_index":115,"time_elapsed":858692,"internal_node_id":"0.0-6.0-109.0"},{"sim_score":6,"rt":5086,"stimulus":"[\"img/0904/65e2b70a-b184-4da3-b5c0-5038bdf9469a.jpg\",\"img/0764/b8e23f4f-ff19-4472-ad9b-2f85548ebca0.jpg\"]","trial_type":"similarity","trial_index":116,"time_elapsed":864782,"internal_node_id":"0.0-6.0-110.0"},{"sim_score":3,"rt":2910,"stimulus":"[\"img/0894/5c7677b0-a4f1-479e-b274-7822c415175a.jpg\",\"img/0875/a4935837-7d3c-4df6-88c1-36a94d4991ca.jpg\"]","trial_type":"similarity","trial_index":117,"time_elapsed":868699,"internal_node_id":"0.0-6.0-111.0"},{"sim_score":3,"rt":2656,"stimulus":"[\"img/0868/15dd6fd7-791e-4b53-b203-195d617521a4.jpg\",\"img/0874/31e22c7c-99aa-40b1-bf03-dd73fa2df4d6.jpg\"]","trial_type":"similarity","trial_index":118,"time_elapsed":872365,"internal_node_id":"0.0-6.0-112.0"},{"sim_score":5,"rt":3820,"stimulus":"[\"img/0904/b7c2a2c8-df33-4473-b3d4-ff7147c60db3.jpg\",\"img/0898/cd3aaa3f-efa9-4ab3-8d6f-a6a9273ddf42.jpg\"]","trial_type":"similarity","trial_index":119,"time_elapsed":897173,"internal_node_id":"0.0-6.0-113.0"},{"sim_score":2,"rt":7779,"stimulus":"[\"img/0860/17b44a7d-c5ca-479f-9e87-f65a64f5c80e.jpg\",\"img/0766/d14acac4-7db1-4b07-8f8f-302437326fc0.jpg\"]","trial_type":"similarity","trial_index":120,"time_elapsed":905957,"internal_node_id":"0.0-6.0-114.0"},{"sim_score":3,"rt":11754,"stimulus":"[\"img/0894/0130a973-d993-41f8-874a-fee23d9ac11f.jpg\",\"img/0874/85eb9b8a-c4c6-4e5a-b8e7-363a87a82054.jpg\"]","trial_type":"similarity","trial_index":121,"time_elapsed":918718,"internal_node_id":"0.0-6.0-115.0"},{"sim_score":5,"rt":2899,"stimulus":"[\"img/0899/5b56dd3e-3f49-47cc-af84-16da6457753b.jpg\",\"img/0903/0fb24af7-9a26-4e9d-aadc-959a36f683e2.jpg\"]","trial_type":"similarity","trial_index":122,"time_elapsed":922637,"internal_node_id":"0.0-6.0-116.0"},{"sim_score":3,"rt":3985,"stimulus":"[\"img/0881/2a8413be-fec2-4de6-88ad-614dd4cccc9d.jpg\",\"img/0764/a86eed5b-d0af-4c3f-8c7a-26e98e98cf1a.jpg\"]","trial_type":"similarity","trial_index":123,"time_elapsed":927628,"internal_node_id":"0.0-6.0-117.0"},{"sim_score":5,"rt":3784,"stimulus":"[\"img/0903/f67c4ab9-f8c2-4fcd-848a-a54a7b031002.jpg\",\"img/0769/a1ce8d07-ba37-40de-bade-2778805521e0.jpg\"]","trial_type":"similarity","trial_index":124,"time_elapsed":932428,"internal_node_id":"0.0-6.0-118.0"},{"sim_score":5,"rt":3278,"stimulus":"[\"img/0901/d6d15b1c-4a30-4f74-a3fd-d4c8ee4169ca.jpg\",\"img/0904/96e503ea-6630-4996-85f2-0237688ce441.jpg\"]","trial_type":"similarity","trial_index":125,"time_elapsed":936725,"internal_node_id":"0.0-6.0-119.0"},{"sim_score":5,"rt":3232,"stimulus":"[\"img/0860/f44ba3fb-03a2-42f0-8509-2c1ded493086.jpg\",\"img/0881/292e9b4b-fca0-4ba8-87f1-4048f9e37b7d.jpg\"]","trial_type":"similarity","trial_index":126,"time_elapsed":940957,"internal_node_id":"0.0-6.0-120.0"},{"sim_score":6,"rt":69401,"stimulus":"[\"img/0758/7ee8bc8f-c40b-4b3a-84ec-3e83580622d4.jpg\",\"img/0874/995f0332-0439-4eb4-add3-957335dbf6d9.jpg\"]","trial_type":"similarity","trial_index":127,"time_elapsed":1011365,"internal_node_id":"0.0-6.0-121.0"},{"sim_score":5,"rt":3411,"stimulus":"[\"img/0901/168eb52c-c415-43f1-b5c8-e76e1a1ec247.jpg\",\"img/0769/4680bcc3-8fbc-4643-8f9a-12aa0e780b64.jpg\"]","trial_type":"similarity","trial_index":128,"time_elapsed":1015781,"internal_node_id":"0.0-6.0-122.0"},{"sim_score":6,"rt":4562,"stimulus":"[\"img/0902/d5e25767-e8ec-45f3-ac0a-7b4a6f7a9edc.jpg\",\"img/0904/06dacdc5-2206-4fb8-92b7-88042d22833c.jpg\"]","trial_type":"similarity","trial_index":129,"time_elapsed":1021357,"internal_node_id":"0.0-6.0-123.0"},{"sim_score":1,"rt":3562,"stimulus":"[\"img/0899/fd9efb43-701f-4cd6-baaa-4c38315f4bdc.jpg\",\"img/0864/c3b63e8f-ea39-4d70-a1f2-b3fe4be8eb75.jpg\"]","trial_type":"similarity","trial_index":130,"time_elapsed":1025930,"internal_node_id":"0.0-6.0-124.0"},{"sim_score":3,"rt":2408,"stimulus":"[\"img/0766/e8052e17-9dae-4139-802b-6e590cb2d526.jpg\",\"img/0868/179a5502-ab5c-478e-8263-5a1fbcc101d2.jpg\"]","trial_type":"similarity","trial_index":131,"time_elapsed":1029347,"internal_node_id":"0.0-6.0-125.0"},{"sim_score":2,"rt":2998,"stimulus":"[\"img/0764/06ea144f-f4f3-4a14-ba47-f20f35c561e0.jpg\",\"img/0864/1d15626a-2f7c-410f-819c-0fa2c967e95e.jpg\"]","trial_type":"similarity","trial_index":132,"time_elapsed":1033354,"internal_node_id":"0.0-6.0-126.0"},{"sim_score":1,"rt":2557,"stimulus":"[\"img/0899/51a7a498-98c7-42d7-bca8-bc2d8f0b5831.jpg\",\"img/0866/be24ab58-230e-4db8-9f45-ff04c9aec6bb.jpg\"]","trial_type":"similarity","trial_index":133,"time_elapsed":1036927,"internal_node_id":"0.0-6.0-127.0"},{"sim_score":2,"rt":2654,"stimulus":"[\"img/0901/12da1841-e611-435c-9719-109413d536a8.jpg\",\"img/0881/7e31e5dc-2240-4b1b-b5a0-3acd980099ef.jpg\"]","trial_type":"similarity","trial_index":134,"time_elapsed":1040585,"internal_node_id":"0.0-6.0-128.0"},{"sim_score":5,"rt":4006,"stimulus":"[\"img/0898/79233891-305a-4a6a-8ddf-5c8604858203.jpg\",\"img/0903/f10e9eb5-0c21-4a6a-944c-5f10a6d0fa4d.jpg\"]","trial_type":"similarity","trial_index":135,"time_elapsed":1045608,"internal_node_id":"0.0-6.0-129.0"},{"sim_score":2,"rt":3181,"stimulus":"[\"img/0894/7dd6ff43-f8fc-408a-8a41-a2b261871820.jpg\",\"img/0867/7d1c497b-c1b3-4ed8-abb5-d7f73306015f.jpg\"]","trial_type":"similarity","trial_index":136,"time_elapsed":1049791,"internal_node_id":"0.0-6.0-130.0"},{"sim_score":2,"rt":2541,"stimulus":"[\"img/0874/a3bc679d-619f-4db6-bb68-116dcb757d9c.jpg\",\"img/0903/5c6b1f57-b3a2-40f5-9fb1-82785e24b6a0.jpg\"]","trial_type":"similarity","trial_index":137,"time_elapsed":1053341,"internal_node_id":"0.0-6.0-131.0"},{"sim_score":7,"rt":4984,"stimulus":"[\"img/0899/b45c550b-96c3-4255-ad59-48a2b4db1c1e.jpg\",\"img/0898/b2732712-71c2-45d8-834f-2b2ed5504910.jpg\"]","trial_type":"similarity","trial_index":138,"time_elapsed":1059344,"internal_node_id":"0.0-6.0-132.0"},{"sim_score":2,"rt":2557,"stimulus":"[\"img/0867/de92135f-5b65-4ed9-b245-188292c7c2f8.jpg\",\"img/0764/3297a811-ea8b-4d74-9547-59cecab7293a.jpg\"]","trial_type":"similarity","trial_index":139,"time_elapsed":1062909,"internal_node_id":"0.0-6.0-133.0"},{"sim_score":2,"rt":4293,"stimulus":"[\"img/0866/386235d2-6857-41e7-88a8-25cfc3430025.jpg\",\"img/0769/1d8734c4-77ab-4165-9e71-5cfe672ff01c.jpg\"]","trial_type":"similarity","trial_index":140,"time_elapsed":1068214,"internal_node_id":"0.0-6.0-134.0"},{"sim_score":2,"rt":2977,"stimulus":"[\"img/0860/c5ccd1a4-4bb7-48e1-9b25-72cfaf06909b.jpg\",\"img/0898/01bfe666-3510-4fc7-964f-d00d28732dc8.jpg\"]","trial_type":"similarity","trial_index":141,"time_elapsed":1072192,"internal_node_id":"0.0-6.0-135.0"},{"sim_score":2,"rt":2665,"stimulus":"[\"img/0881/e046471a-35b4-4159-bbf7-3cfd201bef66.jpg\",\"img/0903/b7e3723f-fd03-4f3d-8820-f19496463a34.jpg\"]","trial_type":"similarity","trial_index":142,"time_elapsed":1075864,"internal_node_id":"0.0-6.0-136.0"},{"sim_score":2,"rt":2372,"stimulus":"[\"img/0894/3664e04c-c6d3-4c9b-afb6-25d89974b174.jpg\",\"img/0766/a754e4b6-5019-4cf4-8f58-34c20547a1f5.jpg\"]","trial_type":"similarity","trial_index":143,"time_elapsed":1079247,"internal_node_id":"0.0-6.0-137.0"},{"sim_score":2,"rt":2810,"stimulus":"[\"img/0860/d9a0d117-6d1d-41c0-8fec-9aff0fd9e9f2.jpg\",\"img/0764/f713847b-4832-42d1-8fb3-e17e37fd745c.jpg\"]","trial_type":"similarity","trial_index":144,"time_elapsed":1083070,"internal_node_id":"0.0-6.0-138.0"},{"sim_score":5,"rt":3375,"stimulus":"[\"img/0769/4a1d0b52-3fe8-40fb-bb1c-c814fe49a68c.jpg\",\"img/0902/a323b62d-2fd5-4ac8-acc6-35b768f3c3f2.jpg\"]","trial_type":"similarity","trial_index":145,"time_elapsed":1087450,"internal_node_id":"0.0-6.0-139.0"},{"sim_score":7,"rt":3705,"stimulus":"[\"img/0904/e9423a8c-f946-43ad-ab7b-931acef870e2.jpg\",\"img/0903/24477210-856c-4550-9de0-9f85a32762eb.jpg\"]","trial_type":"similarity","trial_index":146,"time_elapsed":1092160,"internal_node_id":"0.0-6.0-140.0"},{"sim_score":5,"rt":3601,"stimulus":"[\"img/0764/bc3865c9-9004-4582-88a7-048478673f97.jpg\",\"img/0769/e8ed913b-8a88-44f6-9327-d34afec3116b.jpg\"]","trial_type":"similarity","trial_index":147,"time_elapsed":1096783,"internal_node_id":"0.0-6.0-141.0"},{"sim_score":2,"rt":2509,"stimulus":"[\"img/0902/b03129ba-b087-4558-af37-e8399d6217d6.jpg\",\"img/0881/7e822106-76f7-4b10-a805-14dc68b2cfaf.jpg\"]","trial_type":"similarity","trial_index":148,"time_elapsed":1100299,"internal_node_id":"0.0-6.0-142.0"},{"sim_score":5,"rt":5335,"stimulus":"[\"img/0866/945c6710-d15b-4a5b-a8f6-69af0850357f.jpg\",\"img/0864/6e846d43-94a6-4b37-a268-65eda979f052.jpg\"]","trial_type":"similarity","trial_index":149,"time_elapsed":1106646,"internal_node_id":"0.0-6.0-143.0"},{"sim_score":6,"rt":4858,"stimulus":"[\"img/0902/2a7ac123-414a-476a-9a96-4757b924baef.jpg\",\"img/0898/0af304a2-6a7a-4082-ab7c-4450cd08cc58.jpg\"]","trial_type":"similarity","trial_index":150,"time_elapsed":1112519,"internal_node_id":"0.0-6.0-144.0"},{"sim_score":5,"rt":4968,"stimulus":"[\"img/0862/a0a3a7ba-7798-46a3-b4ca-05e1f6e581d0.jpg\",\"img/0864/afcba0a3-7e27-4757-b254-e9f05fad27e2.jpg\"]","trial_type":"similarity","trial_index":151,"time_elapsed":1118499,"internal_node_id":"0.0-6.0-145.0"},{"sim_score":1,"rt":5390,"stimulus":"[\"img/0875/dbdd643e-6d0e-4a5c-ab57-b9c29b9c981a.jpg\",\"img/0898/224c1572-56b9-4f16-a9e4-6f3bc9c114bd.jpg\"]","trial_type":"similarity","trial_index":152,"time_elapsed":1124894,"internal_node_id":"0.0-6.0-146.0"},{"sim_score":6,"rt":4521,"stimulus":"[\"img/0874/c0378dac-9370-439a-8b79-db27c96fb390.jpg\",\"img/0881/566f45f8-5fed-4479-a60f-26377e60a62d.jpg\"]","trial_type":"similarity","trial_index":153,"time_elapsed":1130422,"internal_node_id":"0.0-6.0-147.0"},{"sim_score":2,"rt":2716,"stimulus":"[\"img/0758/20497cbe-ddae-489e-86e2-ab06985ed07c.jpg\",\"img/0894/2217bdcd-23a7-42d3-823b-23f2488d7e87.jpg\"]","trial_type":"similarity","trial_index":154,"time_elapsed":1134145,"internal_node_id":"0.0-6.0-148.0"},{"sim_score":2,"rt":2333,"stimulus":"[\"img/0904/6291eb43-c10c-4810-a36a-101d09868b04.jpg\",\"img/0864/e8bd659f-aa43-4748-877e-3118e8b4e189.jpg\"]","trial_type":"similarity","trial_index":155,"time_elapsed":1137484,"internal_node_id":"0.0-6.0-149.0"},{"sim_score":5,"rt":7091,"stimulus":"[\"img/0769/5bd04f55-d091-4f57-85db-38426f26bd1a.jpg\",\"img/0899/a048912c-b12c-40e3-90af-46b69b0cc4fe.jpg\"]","trial_type":"similarity","trial_index":156,"time_elapsed":1145582,"internal_node_id":"0.0-6.0-150.0"},{"sim_score":7,"rt":2774,"stimulus":"[\"img/0764/0e7ed062-f798-4366-8a24-6f430926f919.jpg\",\"img/0903/5995f4a8-fa82-46f8-8760-fd7800a5ca34.jpg\"]","trial_type":"similarity","trial_index":157,"time_elapsed":1157461,"internal_node_id":"0.0-6.0-151.0"},{"sim_score":2,"rt":2694,"stimulus":"[\"img/0903/d987e220-f3e6-4b6d-a270-fe6757041f6d.jpg\",\"img/0864/4bd81bc6-c13d-46df-95a9-485886dc7c1b.jpg\"]","trial_type":"similarity","trial_index":158,"time_elapsed":1161157,"internal_node_id":"0.0-6.0-152.0"},{"sim_score":5,"rt":3961,"stimulus":"[\"img/0894/8cadb87a-7001-4e47-99fb-1867bebf1668.jpg\",\"img/0881/f7a8cc63-8842-40a4-9ff8-fe530310d62c.jpg\"]","trial_type":"similarity","trial_index":159,"time_elapsed":1166122,"internal_node_id":"0.0-6.0-153.0"},{"sim_score":6,"rt":2929,"stimulus":"[\"img/0875/8521fd58-3b1e-4dc5-97ae-804edfa6734a.jpg\",\"img/0867/2e1a0b58-cdb1-4107-a14e-452530d7b9b0.jpg\"]","trial_type":"similarity","trial_index":160,"time_elapsed":1170065,"internal_node_id":"0.0-6.0-154.0"},{"sim_score":5,"rt":2862,"stimulus":"[\"img/0867/f8488a47-94ee-4166-952c-44e16cf172f6.jpg\",\"img/0758/65d426d6-3ff6-415d-8654-a43b83ecc4fe.jpg\"]","trial_type":"similarity","trial_index":161,"time_elapsed":1173935,"internal_node_id":"0.0-6.0-155.0"},{"sim_score":3,"rt":3382,"stimulus":"[\"img/0868/7b212364-ff5f-4e28-9241-7eb6ea00161b.jpg\",\"img/0901/233a6948-48eb-4b67-8259-222b916b2322.jpg\"]","trial_type":"similarity","trial_index":162,"time_elapsed":1178318,"internal_node_id":"0.0-6.0-156.0"},{"sim_score":6,"rt":4467,"stimulus":"[\"img/0769/14d393ce-e5be-4ca1-86ce-cc27d4b6074c.jpg\",\"img/0894/6aa5545f-fa7d-4286-bbaa-aaf34dc7ec96.jpg\"]","trial_type":"similarity","trial_index":163,"time_elapsed":1183788,"internal_node_id":"0.0-6.0-157.0"},{"sim_score":2,"rt":2286,"stimulus":"[\"img/0904/2c98dc56-88d1-4fb5-a999-b6a7861f65f0.jpg\",\"img/0758/53f35650-e455-4b53-8be4-c3c8271c6466.jpg\"]","trial_type":"similarity","trial_index":164,"time_elapsed":1187086,"internal_node_id":"0.0-6.0-158.0"},{"sim_score":1,"rt":3188,"stimulus":"[\"img/0874/99f6563c-8a8d-4c1c-a41d-667b618c3fd5.jpg\",\"img/0904/2f88ce53-02d0-4f95-a082-182c56a0eeb4.jpg\"]","trial_type":"similarity","trial_index":165,"time_elapsed":1191290,"internal_node_id":"0.0-6.0-159.0"},{"sim_score":2,"rt":6007,"stimulus":"[\"img/0864/c22faebd-9c53-47bc-ada3-b9a30c688e75.jpg\",\"img/0901/fb0a8e69-7f19-4e6e-a6bb-a48f97f9b4f3.jpg\"]","trial_type":"similarity","trial_index":166,"time_elapsed":1198302,"internal_node_id":"0.0-6.0-160.0"},{"sim_score":2,"rt":3064,"stimulus":"[\"img/0898/8605a25b-6895-476d-8c13-df7a83f96093.jpg\",\"img/0866/9b38d691-1802-4959-ab3f-fc902f0e4ea6.jpg\"]","trial_type":"similarity","trial_index":167,"time_elapsed":1202382,"internal_node_id":"0.0-6.0-161.0"},{"sim_score":6,"rt":4237,"stimulus":"[\"img/0766/214866ee-423d-4629-9bb9-41572bdc7dac.jpg\",\"img/0903/b4a0f61e-a964-4b79-a9a7-f767a8f92f34.jpg\"]","trial_type":"similarity","trial_index":168,"time_elapsed":1207630,"internal_node_id":"0.0-6.0-162.0"},{"sim_score":2,"rt":3792,"stimulus":"[\"img/0860/c47fdead-eb02-4989-b078-26f4852f44fe.jpg\",\"img/0899/76ad07e2-ca25-45eb-84f2-8d80b8ca3e26.jpg\"]","trial_type":"similarity","trial_index":169,"time_elapsed":1212432,"internal_node_id":"0.0-6.0-163.0"},{"sim_score":2,"rt":58681,"stimulus":"[\"img/0766/aaec5f42-7f0a-4a16-aeca-488d757acbcc.jpg\",\"img/0862/ee3b7bff-4a70-4e84-9bea-4a565e456acb.jpg\"]","trial_type":"similarity","trial_index":170,"time_elapsed":1272122,"internal_node_id":"0.0-6.0-164.0"},{"sim_score":5,"rt":3789,"stimulus":"[\"img/0898/26c41340-15bd-4ead-8fe4-c0d0ddca09c2.jpg\",\"img/0894/133a1636-d123-4893-873c-1718050f832a.jpg\"]","trial_type":"similarity","trial_index":171,"time_elapsed":1276916,"internal_node_id":"0.0-6.0-165.0"},{"sim_score":3,"rt":4224,"stimulus":"[\"img/0867/50a1b60e-3a29-44bf-b606-d4bd3746fea9.jpg\",\"img/0766/ea09dd5a-d24d-4e97-a099-7da3db1baef1.jpg\"]","trial_type":"similarity","trial_index":172,"time_elapsed":1282145,"internal_node_id":"0.0-6.0-166.0"},{"sim_score":2,"rt":4254,"stimulus":"[\"img/0904/9dd5708f-3f8b-46a9-b49f-2f2fab87b357.jpg\",\"img/0862/847e5208-38ec-4f36-949c-296cdd7424ee.jpg\"]","trial_type":"similarity","trial_index":173,"time_elapsed":1287415,"internal_node_id":"0.0-6.0-167.0"},{"sim_score":5,"rt":3289,"stimulus":"[\"img/0866/620cd1aa-0800-4414-8f6e-90342e7a99ad.jpg\",\"img/0874/2c9464dd-8a23-4baa-ac94-1ba3af5c15cc.jpg\"]","trial_type":"similarity","trial_index":174,"time_elapsed":1291712,"internal_node_id":"0.0-6.0-168.0"},{"sim_score":3,"rt":3281,"stimulus":"[\"img/0903/f1fa0f8d-e62b-4b4a-a174-31a0fabfe61b.jpg\",\"img/0868/4a8a45ed-2c4f-421b-9564-409a33ecd26c.jpg\"]","trial_type":"similarity","trial_index":175,"time_elapsed":1296007,"internal_node_id":"0.0-6.0-169.0"},{"sim_score":5,"rt":2469,"stimulus":"[\"img/0769/3c1efec9-f8fd-487d-8955-4be88e48c832.jpg\",\"img/0904/b5855d6a-7ef9-46ca-9215-6e9fa046e543.jpg\"]","trial_type":"similarity","trial_index":176,"time_elapsed":1299478,"internal_node_id":"0.0-6.0-170.0"},{"sim_score":2,"rt":2585,"stimulus":"[\"img/0875/ebf7653f-ff45-4e9f-af58-2c042ab3cd2b.jpg\",\"img/0764/ec2dd087-c471-4370-b570-95a542506a96.jpg\"]","trial_type":"similarity","trial_index":177,"time_elapsed":1303077,"internal_node_id":"0.0-6.0-171.0"},{"sim_score":2,"rt":2873,"stimulus":"[\"img/0860/5383b320-1518-4095-a58e-5cc1ae30b64c.jpg\",\"img/0903/150cf64c-0bd2-4674-abbb-a1387cf1f3e9.jpg\"]","trial_type":"similarity","trial_index":178,"time_elapsed":1306960,"internal_node_id":"0.0-6.0-172.0"},{"sim_score":6,"rt":5150,"stimulus":"[\"img/0864/300bb811-8b3c-4c42-8653-6097c3725197.jpg\",\"img/0867/5e07b34d-b40f-4b1c-ac10-49975bace45f.jpg\"]","trial_type":"similarity","trial_index":179,"time_elapsed":1313127,"internal_node_id":"0.0-6.0-173.0"},{"sim_score":5,"rt":3015,"stimulus":"[\"img/0868/8b0b8473-e2c0-4331-aa56-c3a5c29369da.jpg\",\"img/0864/6f631579-acf1-415c-a42c-1207f62a8d99.jpg\"]","trial_type":"similarity","trial_index":180,"time_elapsed":1317157,"internal_node_id":"0.0-6.0-174.0"},{"sim_score":5,"rt":3730,"stimulus":"[\"img/0898/40f99fb2-64d2-4e72-8a7f-a1cf60741e69.jpg\",\"img/0769/8c7cf147-1780-4d5c-8ddf-5ea23ff03ac9.jpg\"]","trial_type":"similarity","trial_index":181,"time_elapsed":1321896,"internal_node_id":"0.0-6.0-175.0"},{"sim_score":6,"rt":4718,"stimulus":"[\"img/0766/26d3ae14-8275-4e08-99b2-a6598c193ddf.jpg\",\"img/0764/50f1b062-d608-4bc0-ab25-b872dcf2ed93.jpg\"]","trial_type":"similarity","trial_index":182,"time_elapsed":1327630,"internal_node_id":"0.0-6.0-176.0"},{"sim_score":3,"rt":3824,"stimulus":"[\"img/0764/f64dfa83-333d-494c-87b5-73e942f1766e.jpg\",\"img/0866/6f2a90d7-14f1-4f1b-bd64-fc0af6b9fe44.jpg\"]","trial_type":"similarity","trial_index":183,"time_elapsed":1332456,"internal_node_id":"0.0-6.0-177.0"},{"sim_score":2,"rt":2801,"stimulus":"[\"img/0902/d3e55000-c839-4bf9-9b9b-4af0a9925af1.jpg\",\"img/0875/2c361b79-c3d1-4eda-812e-bf03192407bf.jpg\"]","trial_type":"similarity","trial_index":184,"time_elapsed":1336264,"internal_node_id":"0.0-6.0-178.0"},{"sim_score":2,"rt":2809,"stimulus":"[\"img/0881/c24f3051-eefa-42de-aba6-fccb56d93c70.jpg\",\"img/0904/73920552-103b-4c9c-9ece-e0b8376b4504.jpg\"]","trial_type":"similarity","trial_index":185,"time_elapsed":1340086,"internal_node_id":"0.0-6.0-179.0"},{"sim_score":3,"rt":3068,"stimulus":"[\"img/0874/ca23d307-fc00-4d7d-9106-584c6eb21b4d.jpg\",\"img/0860/c3379ff7-0763-48fe-a1ec-7ea3d611bc7a.jpg\"]","trial_type":"similarity","trial_index":186,"time_elapsed":1344168,"internal_node_id":"0.0-6.0-180.0"},{"sim_score":2,"rt":3465,"stimulus":"[\"img/0769/6c0bac4c-5f59-43c7-898c-3ca93cf55cfe.jpg\",\"img/0874/93d1f8dc-acf2-4f03-bd8d-8ec35df276ed.jpg\"]","trial_type":"similarity","trial_index":187,"time_elapsed":1348643,"internal_node_id":"0.0-6.0-181.0"},{"sim_score":6,"rt":4588,"stimulus":"[\"img/0904/4e58005d-a2ec-4aaa-b199-445343561396.jpg\",\"img/0766/006035d8-c736-4daf-bbe4-a9e373af9da6.jpg\"]","trial_type":"similarity","trial_index":188,"time_elapsed":1354242,"internal_node_id":"0.0-6.0-182.0"},{"sim_score":6,"rt":4503,"stimulus":"[\"img/0902/0c760cc9-10ac-429e-8957-a7d51fc99683.jpg\",\"img/0764/cffc80b0-4a90-4acb-a530-6f480f3ca303.jpg\"]","trial_type":"similarity","trial_index":189,"time_elapsed":1359754,"internal_node_id":"0.0-6.0-183.0"},{"sim_score":2,"rt":2973,"stimulus":"[\"img/0769/458d9c77-b844-40b5-bb1b-1e3bbd4da64e.jpg\",\"img/0875/5a7c4e35-6514-4e12-8879-d16071da4cd6.jpg\"]","trial_type":"similarity","trial_index":190,"time_elapsed":1363734,"internal_node_id":"0.0-6.0-184.0"},{"sim_score":6,"rt":3239,"stimulus":"[\"img/0867/6e19c858-b606-45b2-a4c6-910a73f1d82c.jpg\",\"img/0903/c708d08f-a108-4e04-8288-c3fcf6375db4.jpg\"]","trial_type":"similarity","trial_index":191,"time_elapsed":1367982,"internal_node_id":"0.0-6.0-185.0"},{"sim_score":2,"rt":4643,"stimulus":"[\"img/0862/47ed5efd-4ec9-4b74-bb4e-a5f5cf0c3e7d.jpg\",\"img/0769/9ea9ceb6-049e-4ad9-be8f-00645cd35803.jpg\"]","trial_type":"similarity","trial_index":192,"time_elapsed":1373627,"internal_node_id":"0.0-6.0-186.0"},{"sim_score":2,"rt":3945,"stimulus":"[\"img/0766/2da002a4-05c9-4f5c-9ed7-433b4183e273.jpg\",\"img/0866/93a27239-8317-4e08-98ca-d8b1ff298e07.jpg\"]","trial_type":"similarity","trial_index":193,"time_elapsed":1378576,"internal_node_id":"0.0-6.0-187.0"},{"sim_score":2,"rt":3047,"stimulus":"[\"img/0769/f6396414-6788-4d59-9683-de153298d89c.jpg\",\"img/0860/4c530c3c-6aab-492a-94d1-9c01797bde40.jpg\"]","trial_type":"similarity","trial_index":194,"time_elapsed":1382630,"internal_node_id":"0.0-6.0-188.0"},{"sim_score":5,"rt":4441,"stimulus":"[\"img/0881/84397291-bc14-4fbf-90e8-241e486ab0fe.jpg\",\"img/0868/293079b8-7e0c-4afd-a390-1e5d35fe3ded.jpg\"]","trial_type":"similarity","trial_index":195,"time_elapsed":1389763,"internal_node_id":"0.0-6.0-189.0"},{"view_history":"[{\"page_index\":0,\"viewing_time\":5103}]","rt":5103,"trial_type":"instructions","trial_index":196,"time_elapsed":1395875,"internal_node_id":"0.0-7.0"},{"rt":208792,"responses":"{\"Q0\":\"Orange-crowned Warbler\"}","answer":["Nashville Warbler"],"trial_type":"image-multi-choice","trial_index":197,"time_elapsed":1605674,"internal_node_id":"0.0-8.0-0.0"},{"rt":5526,"responses":"{\"Q0\":\"Black-and-white Warbler\"}","answer":["Black-and-white Warbler"],"trial_type":"image-multi-choice","trial_index":198,"time_elapsed":1612214,"internal_node_id":"0.0-8.0-1.0"},{"rt":42509,"responses":"{\"Q0\":\"Townsend's Warbler\"}","answer":["Townsend's Warbler"],"trial_type":"image-multi-choice","trial_index":199,"time_elapsed":1655729,"internal_node_id":"0.0-8.0-2.0"},{"rt":30201,"responses":"{\"Q0\":\"Lark Sparrow\"}","answer":["Lark Sparrow"],"trial_type":"image-multi-choice","trial_index":200,"time_elapsed":1686940,"internal_node_id":"0.0-8.0-3.0"},{"rt":3246,"responses":"{\"Q0\":\"Yellow Warbler\"}","answer":["Yellow Warbler"],"trial_type":"image-multi-choice","trial_index":201,"time_elapsed":1691200,"internal_node_id":"0.0-8.0-4.0"},{"rt":54393,"responses":"{\"Q0\":\"Tennessee Warbler\"}","answer":["Orange-crowned Warbler"],"trial_type":"image-multi-choice","trial_index":202,"time_elapsed":1746601,"internal_node_id":"0.0-8.0-5.0"},{"rt":4220,"responses":"{\"Q0\":\"White-throated Sparrow\"}","answer":["White-throated Sparrow"],"trial_type":"image-multi-choice","trial_index":203,"time_elapsed":1751831,"internal_node_id":"0.0-8.0-6.0"},{"rt":179929,"responses":"{\"Q0\":\"Fox Sparrow\"}","answer":["Fox Sparrow"],"trial_type":"image-multi-choice","trial_index":204,"time_elapsed":1932766,"internal_node_id":"0.0-8.0-7.0"},{"rt":47299,"responses":"{\"Q0\":\"Song Sparrow\"}","answer":["Song Sparrow"],"trial_type":"image-multi-choice","trial_index":205,"time_elapsed":1981075,"internal_node_id":"0.0-8.0-8.0"},{"rt":14977,"responses":"{\"Q0\":\"Blackburnian Warbler\"}","answer":["Blackburnian Warbler"],"trial_type":"image-multi-choice","trial_index":206,"time_elapsed":1997061,"internal_node_id":"0.0-8.0-9.0"},{"rt":29409,"responses":"{\"Q0\":\"Vesper Sparrow\"}","answer":["Vesper Sparrow"],"trial_type":"image-multi-choice","trial_index":207,"time_elapsed":2027476,"internal_node_id":"0.0-8.0-10.0"},{"rt":3917,"responses":"{\"Q0\":\"White-crowned Sparrow\"}","answer":["White-crowned Sparrow"],"trial_type":"image-multi-choice","trial_index":208,"time_elapsed":2032399,"internal_node_id":"0.0-8.0-11.0"},{"rt":7770,"responses":"{\"Q0\":\"American Tree Sparrow\"}","answer":["American Tree Sparrow"],"trial_type":"image-multi-choice","trial_index":209,"time_elapsed":2041181,"internal_node_id":"0.0-8.0-12.0"},{"rt":134147,"responses":"{\"Q0\":\"Tennessee Warbler\"}","answer":["Tennessee Warbler"],"trial_type":"image-multi-choice","trial_index":210,"time_elapsed":2176345,"internal_node_id":"0.0-8.0-13.0"},{"rt":17446,"responses":"{\"Q0\":\"Magnolia Warbler\"}","answer":["Magnolia Warbler"],"trial_type":"image-multi-choice","trial_index":211,"time_elapsed":2194808,"internal_node_id":"0.0-8.0-14.0"},{"rt":10812,"responses":"{\"Q0\":\"Northern Waterthrush\"}","answer":["Northern Waterthrush"],"trial_type":"image-multi-choice","trial_index":212,"time_elapsed":2206632,"internal_node_id":"0.0-8.0-15.0"},{"rt":147160,"responses":"{\"Q0\":\"Chipping Sparrow\"}","answer":["Chipping Sparrow"],"trial_type":"image-multi-choice","trial_index":213,"time_elapsed":2354798,"internal_node_id":"0.0-8.0-16.0"},{"rt":19029,"responses":"{\"Q0\":\"Swamp Sparrow\"}","answer":["Swamp Sparrow"],"trial_type":"image-multi-choice","trial_index":214,"time_elapsed":2374839,"internal_node_id":"0.0-8.0-17.0"},{"rt":16672,"responses":"{\"Q0\":\"Lincoln's Sparrow\"}","answer":["Lincoln's Sparrow"],"trial_type":"image-multi-choice","trial_index":215,"time_elapsed":2392520,"internal_node_id":"0.0-8.0-18.0"},{"rt":3078,"responses":"{\"Q0\":\"Ovenbird\"}","answer":["Ovenbird"],"trial_type":"image-multi-choice","trial_index":216,"time_elapsed":2396607,"internal_node_id":"0.0-8.0-19.0"}]