"view_history","rt","trial_type","trial_index","time_elapsed","internal_node_id","sim_score","stimulus","responses","answer"
"[{""page_index"":0,""viewing_time"":9500}]","9501","instructions","0","9502","0.0-0.0","","","",""
"","41166","similarity_demo","1","51672","0.0-1.0","7","[""img/bluejay1.jpg"",""img/bluejay2.jpg""]","",""
"[{""page_index"":0,""viewing_time"":156830}]","156830","instructions","2","209518","0.0-2.0","","","",""
"","6057","similarity_demo","3","216590","0.0-3.0","1","[""img/bluejay1.jpg"",""img/cardinal1.jpg""]","",""
"[{""page_index"":0,""viewing_time"":3867}]","3867","instructions","4","221475","0.0-4.0","","","",""
"[{""page_index"":0,""viewing_time"":26050}]","26050","instructions","5","248533","0.0-5.0","","","",""
"","6509","similarity","6","256053","0.0-6.0-0.0","3","[""img/0868/5fa7f9d0-f0e5-454c-8224-74d964818f56.jpg"",""img/0894/b422d5c6-3c5a-49ae-a53e-7e88ac993f49.jpg""]","",""
"","4157","similarity","7","261211","0.0-6.0-1.0","2","[""img/0898/6cd3830b-d44e-4915-be2b-88d31424b91c.jpg"",""img/0758/ddc336e9-a8b6-4bb9-937a-c7e25e0e9250.jpg""]","",""
"","3715","similarity","8","265940","0.0-6.0-2.0","5","[""img/0903/8931c67c-a43d-47d3-a4c9-42aa2f81d344.jpg"",""img/0894/86201968-6e78-4d68-9b3a-d1692e066210.jpg""]","",""
"","3816","similarity","9","270764","0.0-6.0-3.0","2","[""img/0881/ee44e27f-d662-4608-b265-e7ffa19b216f.jpg"",""img/0766/51d3aab4-3d09-4dda-b99d-3dc7aaabc6f2.jpg""]","",""
"","3965","similarity","10","275749","0.0-6.0-4.0","5","[""img/0864/5f74a653-3bdc-4308-8cca-ac667dc22e1f.jpg"",""img/0860/c7047cd2-7cc1-41b6-8a34-c0986774975f.jpg""]","",""
"","7887","similarity","11","284637","0.0-6.0-5.0","4","[""img/0902/0eb85fbc-27c8-41df-9d0b-a5f9efd417d1.jpg"",""img/0899/f58b8d2f-b19d-4b59-8b94-8834be92e4ba.jpg""]","",""
"","7035","similarity","12","292684","0.0-6.0-6.0","2","[""img/0868/77091fc7-a590-4ebb-b915-fdb2483a2399.jpg"",""img/0769/d1be2815-fa79-46e8-b5c3-7d81caaca490.jpg""]","",""
"","3954","similarity","13","297649","0.0-6.0-7.0","6","[""img/0764/da207710-e7e4-4f42-b2e6-99b5f357f433.jpg"",""img/0901/d61f267a-c492-4db6-9bfb-61efd49cf072.jpg""]","",""
"","4398","similarity","14","303061","0.0-6.0-8.0","5","[""img/0881/d373cb9f-a719-4549-a2a4-82def79fb2a5.jpg"",""img/0866/23a224f3-2012-4fc8-8e0f-3c36f8de27fd.jpg""]","",""
"","23768","similarity","15","327832","0.0-6.0-9.0","3","[""img/0867/bf560d4f-dee3-4f11-a385-705cc1aa5f3c.jpg"",""img/0899/56a605c3-d0a2-4215-89e1-779279d85a7c.jpg""]","",""
"","4094","similarity","16","332934","0.0-6.0-10.0","2","[""img/0875/527ced51-8e53-4aab-ab05-86df219104c0.jpg"",""img/0766/d5d38751-8fa5-476f-93e9-86ed2d9045ef.jpg""]","",""
"","4446","similarity","17","338385","0.0-6.0-11.0","5","[""img/0901/77087ed2-6e12-4329-b2a5-605bca6d972d.jpg"",""img/0875/2e13d160-eea1-416b-aff1-d37ab99ecc1d.jpg""]","",""
"","3948","similarity","18","343342","0.0-6.0-12.0","2","[""img/0902/af40b98b-3d23-4d95-b401-49ba5783ce39.jpg"",""img/0860/9593362c-9fe5-4d12-9735-6000a11f6aa5.jpg""]","",""
"","4509","similarity","19","348855","0.0-6.0-13.0","5","[""img/0874/3f471690-9788-4d03-90c7-f615aecef149.jpg"",""img/0867/c71dc569-f49c-4397-8381-68b8d726736d.jpg""]","",""
"","4704","similarity","20","354568","0.0-6.0-14.0","3","[""img/0904/56e73f28-7e64-489b-a161-e6b1a063878d.jpg"",""img/0866/4a87911a-d5be-4d4e-ab8e-3d1f581bf507.jpg""]","",""
"","4389","similarity","21","359974","0.0-6.0-15.0","5","[""img/0758/335851a0-a55b-46d8-ab05-8463eda48349.jpg"",""img/0902/6730b12a-f0a7-4587-8c10-a32fae16565b.jpg""]","",""
"","4031","similarity","22","365008","0.0-6.0-16.0","3","[""img/0867/26611f4e-d694-4460-b7e2-43c62753ddc3.jpg"",""img/0898/e167334e-cc1d-4986-b3b1-c7bc7da64baa.jpg""]","",""
"","3404","similarity","23","369430","0.0-6.0-17.0","3","[""img/0904/9d30eff1-46ef-4453-b11e-124ef8145c00.jpg"",""img/0868/0d3abd3a-b6c3-4584-a9f7-e2da63748b3d.jpg""]","",""
"","2580","similarity","24","373020","0.0-6.0-18.0","2","[""img/0766/2e1cf445-9aef-40e7-92f4-5facf48b64c5.jpg"",""img/0864/a248adb3-c70b-4652-b7a3-776d2a1e904b.jpg""]","",""
"","3164","similarity","25","377190","0.0-6.0-19.0","3","[""img/0899/66ab3178-c3fe-4455-ad17-d5952b08e018.jpg"",""img/0766/33aa9ebb-c9f5-418f-8c8b-c77861889568.jpg""]","",""
"","4469","similarity","26","382661","0.0-6.0-20.0","1","[""img/0764/e30dba15-e68a-4659-89db-e1654b52fe02.jpg"",""img/0758/d540bee6-b460-4c32-ac57-bc282742d7d4.jpg""]","",""
"","5373","similarity","27","389035","0.0-6.0-21.0","1","[""img/0901/00acf6c1-b66e-4060-bb04-4caf29b5a8b0.jpg"",""img/0874/3ce41e7c-40c8-4d58-a546-171114521796.jpg""]","",""
"","5147","similarity","28","395197","0.0-6.0-22.0","6","[""img/0875/42910c99-5463-450a-a0f8-d4d060a11455.jpg"",""img/0758/d57c2592-a317-4f63-91be-91a3a9afd222.jpg""]","",""
"","2821","similarity","29","399023","0.0-6.0-23.0","6","[""img/0867/f8159067-056c-41f1-a136-c529fe5e970a.jpg"",""img/0881/f6bd3b96-dc40-4e99-8681-bc3a35cf896d.jpg""]","",""
"","3529","similarity","30","403560","0.0-6.0-24.0","2","[""img/0758/9fb5b2fe-3f00-4fe6-973c-1ce10d5f4cd5.jpg"",""img/0901/3db47171-0139-4235-82cd-0b1787b6775f.jpg""]","",""
"","4193","similarity","31","408761","0.0-6.0-25.0","6","[""img/0868/83b4350a-3b70-4cea-b7f5-b5b56f3050a8.jpg"",""img/0875/d59ff733-eaff-4ee2-9443-06954dd0bcb6.jpg""]","",""
"","4410","similarity","32","414177","0.0-6.0-26.0","6","[""img/0903/005ad0de-4f52-433c-b515-dbe8d46184a3.jpg"",""img/0901/b13fa50f-dbe0-4d0f-8647-6ac0fd8f40bd.jpg""]","",""
"","4591","similarity","33","419777","0.0-6.0-27.0","6","[""img/0894/38cf335f-f76f-4349-8d65-e20cd6859565.jpg"",""img/0899/565ccdd9-0933-4536-a625-3c0e25a713dd.jpg""]","",""
"","3675","similarity","34","424461","0.0-6.0-28.0","5","[""img/0862/cdaed51d-9e2f-4807-801a-4663c40077e2.jpg"",""img/0867/f26f6b60-f772-4f4c-95a4-addc62cfd692.jpg""]","",""
"","4795","similarity","35","430271","0.0-6.0-29.0","6","[""img/0864/66091c27-e588-4476-8af9-265dc6be4156.jpg"",""img/0875/03c3c331-738b-4446-af92-3d7386b08c2e.jpg""]","",""
"","3765","similarity","36","435050","0.0-6.0-30.0","5","[""img/0862/064818ee-13d5-4618-bb24-21c7368ea278.jpg"",""img/0874/ca76a855-4e77-4f2f-872a-0a718153e7ed.jpg""]","",""
"","2700","similarity","37","438774","0.0-6.0-31.0","2","[""img/0903/365f176c-25a4-4973-bd3c-279bf1b39476.jpg"",""img/0758/d41c06bf-ebaf-454b-91c6-1a17f917b659.jpg""]","",""
"","4140","similarity","38","443920","0.0-6.0-32.0","4","[""img/0866/0207e9a2-7dbb-40b5-9459-b472aaeceb2a.jpg"",""img/0901/08d6d1d1-c043-43c4-bb08-d45e062822b9.jpg""]","",""
"","5432","similarity","39","450361","0.0-6.0-33.0","2","[""img/0874/eba003b4-cdab-4eee-8bc3-f064c7d94165.jpg"",""img/0899/8de08897-b430-42fe-9d42-840670b80f94.jpg""]","",""
"","6180","similarity","40","457546","0.0-6.0-34.0","7","[""img/0903/b0a3c45f-467e-412f-a183-c9c1827f2e63.jpg"",""img/0902/aa6fca32-82b0-4414-b20a-8f6f8aa5a2d2.jpg""]","",""
"","4655","similarity","41","463210","0.0-6.0-35.0","6","[""img/0758/61d64021-9214-4951-bdf8-f871f9827cf9.jpg"",""img/0866/c446214b-a368-4c65-ae39-ea46894256ab.jpg""]","",""
"","2716","similarity","42","466932","0.0-6.0-36.0","2","[""img/0875/5a1e5100-0d94-4fec-bbe9-ca9894d2cf8e.jpg"",""img/0903/3e9ee8a5-eb66-47f5-8973-8a5af1ddc87e.jpg""]","",""
"","3454","similarity","43","475790","0.0-6.0-37.0","5","[""img/0864/b3c4e378-28f0-4699-9338-2a257b4bca04.jpg"",""img/0902/6c2c243a-f663-45db-baf5-038d3d58c589.jpg""]","",""
"","4543","similarity","44","481349","0.0-6.0-38.0","3","[""img/0901/548d1110-7cb8-42a2-9927-9798875c8b5c.jpg"",""img/0867/cc72ed48-7704-422c-86d6-467a1145287a.jpg""]","",""
"","5350","similarity","45","487726","0.0-6.0-39.0","5","[""img/0862/1c20f772-3a51-4a80-aac0-f57dc9f86c28.jpg"",""img/0860/524b2e98-5767-4d53-942c-ebae6925659b.jpg""]","",""
"","4317","similarity","46","493045","0.0-6.0-40.0","7","[""img/0867/aa05d113-fc19-4756-a8eb-7878f580bc92.jpg"",""img/0868/4e626425-63c8-484a-8a1d-e66ee4e0bef8.jpg""]","",""
"","4960","similarity","47","499014","0.0-6.0-41.0","6","[""img/0904/da170c1b-9651-4f08-b231-2bdd1d9a046f.jpg"",""img/0899/7b7380d5-d2be-44e5-a09a-c1756f87ef71.jpg""]","",""
"","3480","similarity","48","503502","0.0-6.0-42.0","2","[""img/0862/00c06b00-3b73-44e9-bc1e-c5aafb438321.jpg"",""img/0894/b2d2f66e-e480-46da-a02a-6d0c6b285d78.jpg""]","",""
"","3542","similarity","49","508054","0.0-6.0-43.0","1","[""img/0875/90da8d75-108a-44ad-b999-e21fee3860d3.jpg"",""img/0904/fe746a3f-8458-48d0-8a13-8cba2a9df9f8.jpg""]","",""
"","3250","similarity","50","512307","0.0-6.0-44.0","1","[""img/0874/7e4f2150-3b59-4a36-b5da-a4e0ba410531.jpg"",""img/0898/661621d4-a14e-487c-8c74-354134a29710.jpg""]","",""
"","2921","similarity","51","516237","0.0-6.0-45.0","1","[""img/0898/82231d4c-218b-4d0a-b50d-35a49b524e97.jpg"",""img/0868/3a62db2d-97e9-44a3-b8e3-a48c6f0e423b.jpg""]","",""
"","4608","similarity","52","521854","0.0-6.0-46.0","1","[""img/0901/875dedb9-24c9-4443-9f8c-85e97d70ee5a.jpg"",""img/0860/18dfed73-e36b-4487-a8bd-0b8cff8e3668.jpg""]","",""
"","4737","similarity","53","527603","0.0-6.0-47.0","5","[""img/0894/bd34223a-2f66-4e16-9d18-193a746b69ff.jpg"",""img/0902/b03fee99-d5ca-4bf8-871c-a4a743a39842.jpg""]","",""
"","3541","similarity","54","532158","0.0-6.0-48.0","1","[""img/0764/62fafeea-6274-48ce-976f-35d3d3484c65.jpg"",""img/0862/fb26cb07-d5a9-4653-813c-f41609f26cd5.jpg""]","",""
"","3665","similarity","55","536832","0.0-6.0-49.0","6","[""img/0881/44e09805-5a25-4f17-a716-4ad4a331b174.jpg"",""img/0758/7fba58df-2a7a-4b76-8a8f-62739f97f271.jpg""]","",""
"","4942","similarity","56","542782","0.0-6.0-50.0","6","[""img/0766/27f54113-8561-4568-9ffe-0a1650ae65ec.jpg"",""img/0769/82ab9db6-4578-4e79-874f-f09100439f09.jpg""]","",""
"","3490","similarity","57","547277","0.0-6.0-51.0","6","[""img/0875/cff79b3a-a797-4393-9757-6275f999ec04.jpg"",""img/0866/02f5e6b9-52b7-448c-9708-5b460d0c9a23.jpg""]","",""
"","3855","similarity","58","552142","0.0-6.0-52.0","5","[""img/0894/6b2e9509-8699-42b7-9582-7741df0ba2d7.jpg"",""img/0904/d23dd7be-7fe8-4435-82f7-bd592c01e6a1.jpg""]","",""
"","3108","similarity","59","556254","0.0-6.0-53.0","2","[""img/0758/3ddd05d3-557e-4ee7-8b78-9d2d681d8ae2.jpg"",""img/0769/387a9744-d6a7-42b8-bab8-33007ec434aa.jpg""]","",""
"","4184","similarity","60","561449","0.0-6.0-54.0","5","[""img/0902/4e0baa32-988e-46f6-989d-f669225ab645.jpg"",""img/0874/29830da7-be5f-44e5-b141-652a0ccf7269.jpg""]","",""
"","2822","similarity","61","565277","0.0-6.0-55.0","2","[""img/0903/f45a103c-9bfe-49fd-ad96-bdd8d2589195.jpg"",""img/0862/92f0146c-20c4-482e-aef5-adb693790338.jpg""]","",""
"","3597","similarity","62","569886","0.0-6.0-56.0","2","[""img/0866/a04d37f0-99dd-478a-b6c6-58b215138f84.jpg"",""img/0894/e5edf723-72a5-4673-8441-6c1734a8929b.jpg""]","",""
"","3069","similarity","63","573966","0.0-6.0-57.0","2","[""img/0867/85a96c62-548f-4994-9553-819e03c3135a.jpg"",""img/0904/09dac84f-3d1c-4445-a68e-d0389fdbf1e9.jpg""]","",""
"","5161","similarity","64","580133","0.0-6.0-58.0","6","[""img/0875/99698b4d-b4a1-44bc-8c83-8ea755bbbf61.jpg"",""img/0881/f62bdcd1-a4b7-4d48-83da-d9c9e01c8727.jpg""]","",""
"","4094","similarity","65","585230","0.0-6.0-59.0","5","[""img/0866/8efcaa46-83ab-4dee-a35f-850402aa21ae.jpg"",""img/0860/4a022222-056d-461c-ab02-39fac9647552.jpg""]","",""
"","3766","similarity","66","589998","0.0-6.0-60.0","2","[""img/0903/36e4ab1f-caa9-40b3-8616-faada076df94.jpg"",""img/0866/f756f7d1-9ad8-4a34-9ef6-7a443d705bfe.jpg""]","",""
"","6014","similarity","67","597014","0.0-6.0-61.0","5","[""img/0860/5bff793e-cbd5-4d7e-b628-0ac2b0e30b64.jpg"",""img/0875/fb732ab5-013a-4366-9f65-27811ed157e9.jpg""]","",""
"","3418","similarity","68","601433","0.0-6.0-62.0","2","[""img/0898/a8f16b02-e19f-423b-86c3-a36562ae1f9b.jpg"",""img/0862/f23038d4-c366-4f70-979f-66b62362efa4.jpg""]","",""
"","5539","similarity","69","607981","0.0-6.0-63.0","6","[""img/0902/eb3e7e71-8ff1-4b88-a6a7-47e2c1ce1683.jpg"",""img/0766/ef3b15ce-abb7-4292-ad93-aec8e8b50520.jpg""]","",""
"","3510","similarity","70","612501","0.0-6.0-64.0","6","[""img/0758/821c68d3-5cb0-4eae-8659-30e6263fca39.jpg"",""img/0864/87c467d3-abca-482f-ad80-3766c21b1bb3.jpg""]","",""
"","4327","similarity","71","617832","0.0-6.0-65.0","2","[""img/0894/11674fa4-285d-44e2-939f-2228c6a64080.jpg"",""img/0860/8277806e-b684-4474-8f7b-3fca946d7d4f.jpg""]","",""
"","2427","similarity","72","621270","0.0-6.0-66.0","2","[""img/0899/f95cbdb4-f804-4f5d-ad76-373ad343e658.jpg"",""img/0868/09a9ef4d-d000-4cfa-a6aa-ebec7c2edeb4.jpg""]","",""
"","5341","similarity","73","627614","0.0-6.0-67.0","6","[""img/0866/d266fece-59b3-46fa-b69f-96f6efb81b59.jpg"",""img/0862/fad1d7c1-8187-43c3-942a-0fc12183e48e.jpg""]","",""
"","5144","similarity","74","633760","0.0-6.0-68.0","5","[""img/0860/e8b8c51e-1834-4875-8b61-6c5bc9b178bd.jpg"",""img/0758/a085b443-b5d7-4cb2-9ad4-b9dab0fc23f1.jpg""]","",""
"","4295","similarity","75","639062","0.0-6.0-69.0","3","[""img/0902/8af4182a-9af9-4212-a436-9195555112d6.jpg"",""img/0867/a498eef3-9fa4-4ab2-9778-4ae82ac40dc5.jpg""]","",""
"","2482","similarity","76","642558","0.0-6.0-70.0","2","[""img/0862/57b6f83f-c763-4858-830d-102f97bfefbf.jpg"",""img/0901/443f2e59-199b-4f7b-9de9-c44ad97326a5.jpg""]","",""
"","4291","similarity","77","647866","0.0-6.0-71.0","6","[""img/0867/075e0f95-856b-4cbb-acf5-092393aaf04e.jpg"",""img/0866/11a1d141-be5e-443c-98c1-a9d4d9e3dec0.jpg""]","",""
"","3251","similarity","78","652121","0.0-6.0-72.0","2","[""img/0860/702bd09d-df3a-40aa-a267-5f04474305b5.jpg"",""img/0904/0d25eb24-bb20-4e8d-9787-8b489558b4cb.jpg""]","",""
"","3853","similarity","79","656990","0.0-6.0-73.0","3","[""img/0875/34132396-d896-4c2d-8087-646dd867e769.jpg"",""img/0899/4f7bc593-8ddd-4da3-a0b9-84da730d3370.jpg""]","",""
"","3490","similarity","80","661481","0.0-6.0-74.0","2","[""img/0899/a05bea16-2bb4-4cb9-b8fb-4ff975db6971.jpg"",""img/0758/caa93da2-9edf-49fa-96b9-32dedd8f5078.jpg""]","",""
"","2806","similarity","81","673055","0.0-6.0-75.0","5","[""img/0862/eefa5588-9efd-4591-aa5f-a2e17c7d7bcc.jpg"",""img/0875/e7e66b13-b573-431e-b85e-288ce04a35a3.jpg""]","",""
"","7851","similarity","82","681916","0.0-6.0-76.0","5","[""img/0901/71e551a2-9ce2-409c-9c7c-dd556a0791e9.jpg"",""img/0894/05161000-f476-499b-a878-c13c7f347fd9.jpg""]","",""
"","2754","similarity","83","685679","0.0-6.0-77.0","1","[""img/0766/60033a74-9919-47e5-913c-71d0d483e7e5.jpg"",""img/0758/67c0be2f-9e91-48b3-8219-70ac0a1802fa.jpg""]","",""
"","4719","similarity","84","691405","0.0-6.0-78.0","5","[""img/0894/76c1201f-8524-4865-85e6-dda8cb4ac986.jpg"",""img/0764/f990b2e8-ecee-481e-be7c-0239fce350e2.jpg""]","",""
"","4838","similarity","85","697253","0.0-6.0-79.0","5","[""img/0860/94ef7afc-e0e6-4a15-98c6-0bfac82bc832.jpg"",""img/0867/8ba0c5a7-c7e4-42cf-a80a-543763b90779.jpg""]","",""
"","4885","similarity","86","703142","0.0-6.0-80.0","6","[""img/0898/08c72dac-f8ad-407a-9ce6-8c9a5d679c3a.jpg"",""img/0901/a2d7b2f6-396b-4d91-8403-de5361c74af7.jpg""]","",""
"","2993","similarity","87","707149","0.0-6.0-81.0","2","[""img/0874/8cdb1c07-1c32-46d2-981c-3636560fa6e5.jpg"",""img/0764/713cc27e-2338-4486-bfe9-5f5725fbd7a0.jpg""]","",""
"","4030","similarity","88","712187","0.0-6.0-82.0","2","[""img/0899/93494f3b-d539-4075-b027-d82e344563da.jpg"",""img/0862/4f0a3b4c-afbf-486e-b248-1d54982f54b4.jpg""]","",""
"","3616","similarity","89","716813","0.0-6.0-83.0","5","[""img/0766/d512b99c-a2dc-40d7-8e86-827323a0cbcf.jpg"",""img/0901/1e23ffbd-19de-4c4f-aa23-c54aaa3319a3.jpg""]","",""
"","3909","similarity","90","721727","0.0-6.0-84.0","2","[""img/0881/62a64f90-7a72-4aee-a1a1-0c548ac9bdda.jpg"",""img/0898/68476bbb-34a1-42d9-8bc1-deab783d4489.jpg""]","",""
"","4640","similarity","91","727382","0.0-6.0-85.0","3","[""img/0868/d98ca254-b195-477f-b57e-5760a2717db8.jpg"",""img/0860/99c589b9-9140-4d17-90c0-b344323edcda.jpg""]","",""
"","4048","similarity","92","732447","0.0-6.0-86.0","5","[""img/0758/a709631e-3705-4725-ac40-f0d916924f08.jpg"",""img/0868/d6d1f30d-4323-435a-b194-7892521bc57e.jpg""]","",""
"","2176","similarity","93","735632","0.0-6.0-87.0","3","[""img/0864/0116ca98-293d-4fa6-a93b-5a6144ef64cc.jpg"",""img/0894/5ff3c4f6-52e2-4075-8679-be0312e59703.jpg""]","",""
"","4994","similarity","94","741637","0.0-6.0-88.0","2","[""img/0866/a15b02be-11bb-43e3-b0e0-ecc3bd7dfc49.jpg"",""img/0902/95a36b6b-9601-4fa5-8fd9-606ea62f9425.jpg""]","",""
"","4429","similarity","95","747075","0.0-6.0-89.0","3","[""img/0769/c34b7763-8ff2-46d5-9e92-f1d8f3bedbd8.jpg"",""img/0867/a749dddb-69f0-44a6-acdc-2bf295cf6dcc.jpg""]","",""
"","3755","similarity","96","751842","0.0-6.0-90.0","5","[""img/0874/adf9a8f1-c40b-402b-b95b-1e85a54a7b62.jpg"",""img/0875/3ecb367d-e9eb-4826-8aaa-7aa72fb98019.jpg""]","",""
"","4860","similarity","97","757717","0.0-6.0-91.0","6","[""img/0864/3d4de670-b290-4285-9c3d-12a0e3af44e9.jpg"",""img/0874/1016b306-087c-4afc-aa08-fa527b28dc76.jpg""]","",""
"","4714","similarity","98","763433","0.0-6.0-92.0","5","[""img/0881/19e82c47-8e4b-45d2-a6c8-74181eb4155e.jpg"",""img/0862/f43ceabf-acc1-4107-b857-5d1849808f93.jpg""]","",""
"","3714","similarity","99","768157","0.0-6.0-93.0","6","[""img/0864/1ebbc554-99fa-49f9-8799-317375a79820.jpg"",""img/0881/adc02f34-ce97-4aef-850f-00519df06fd7.jpg""]","",""
"","3675","similarity","100","772837","0.0-6.0-94.0","6","[""img/0899/1b3457ea-87d4-4946-a01c-aac1863ed46c.jpg"",""img/0901/0adb3bd6-d758-4ba7-9723-3ad6cac05bd5.jpg""]","",""
"","6807","similarity","101","780653","0.0-6.0-95.0","2","[""img/0874/767f289c-9814-4496-803f-745cc8913d1f.jpg"",""img/0766/33519c22-aaa4-49d7-8d49-ab551db1945e.jpg""]","",""
"","4134","similarity","102","785796","0.0-6.0-96.0","1","[""img/0881/0c7068da-d0d9-4103-bda1-74ef7a2b32c3.jpg"",""img/0899/57476fed-5962-4272-8fc9-b317bb777b54.jpg""]","",""
"","3319","similarity","103","790117","0.0-6.0-97.0","2","[""img/0862/7918ca67-5bd3-4606-a5ea-c39fb11a9297.jpg"",""img/0902/01b41522-de46-4c3a-b0af-a61b2682b40e.jpg""]","",""
"","3460","similarity","104","794589","0.0-6.0-98.0","5","[""img/0899/ad8268c5-8199-48d0-ad70-c5b6d6c599ec.jpg"",""img/0764/29072395-f595-4e3c-83d3-ff87010039fa.jpg""]","",""
"","2808","similarity","105","798406","0.0-6.0-99.0","5","[""img/0758/6cd8c362-ae2a-41eb-80a3-3a4f7ace1530.jpg"",""img/0862/e697469a-ec19-4414-b972-7b9f3564785b.jpg""]","",""
"","4834","similarity","106","804250","0.0-6.0-100.0","6","[""img/0764/438c0217-036f-43c9-9b87-f43144e46011.jpg"",""img/0898/81b08535-2020-4c15-9ce4-2f1e460755ae.jpg""]","",""
"","17663","similarity","107","822918","0.0-6.0-101.0","6","[""img/0901/5b97abf9-f0c8-4fd1-b921-36d574779078.jpg"",""img/0902/62f11694-7ed7-4cb7-8a73-9e95c43824e7.jpg""]","",""
"","4145","similarity","108","828078","0.0-6.0-102.0","3","[""img/0764/6c7fe363-2d37-418f-9e5e-a3273af5d4fb.jpg"",""img/0868/4bd5105a-d2c3-4f82-8c80-57196106ba53.jpg""]","",""
"","2517","similarity","109","831607","0.0-6.0-103.0","3","[""img/0769/878531fd-e0e8-4ad1-b9ad-f018bb104ca0.jpg"",""img/0881/e6746727-7f89-47ec-b939-d98abe78372d.jpg""]","",""
"","2590","similarity","110","835199","0.0-6.0-104.0","3","[""img/0864/e02eddb5-f468-499c-91bf-f7be3ffe979b.jpg"",""img/0769/688d0c52-ad73-4065-a5eb-f8c10d076bff.jpg""]","",""
"","3697","similarity","111","839905","0.0-6.0-105.0","5","[""img/0866/bf14b5bd-fb55-47db-86b9-4f8aeb9a6dad.jpg"",""img/0868/fd307a36-9a3a-47d7-ab7c-f810d0b35040.jpg""]","",""
"","4695","similarity","112","845614","0.0-6.0-106.0","3","[""img/0868/c8ac40c7-6904-4e13-8d61-c75d3052dc4e.jpg"",""img/0862/f188d4f0-76a4-4102-818c-a209969d73a5.jpg""]","",""
"","3681","similarity","113","850304","0.0-6.0-107.0","5","[""img/0766/ae0fce93-fe8d-4aa1-87ca-4c3e4b889f2f.jpg"",""img/0898/4184e5a2-84ea-4f36-9b42-ae58646f6f87.jpg""]","",""
"","2826","similarity","114","854145","0.0-6.0-108.0","3","[""img/0898/993d8f2d-bef7-4251-a193-0f93a32b7763.jpg"",""img/0864/5f33e097-23e3-4002-882d-76e8cb15f451.jpg""]","",""
"","3533","similarity","115","858692","0.0-6.0-109.0","3","[""img/0868/1a62b2b2-18f5-466e-b564-5176a57c565e.jpg"",""img/0902/44cd9b7e-fdfb-4f78-90de-8d4c9d279365.jpg""]","",""
"","5086","similarity","116","864782","0.0-6.0-110.0","6","[""img/0904/65e2b70a-b184-4da3-b5c0-5038bdf9469a.jpg"",""img/0764/b8e23f4f-ff19-4472-ad9b-2f85548ebca0.jpg""]","",""
"","2910","similarity","117","868699","0.0-6.0-111.0","3","[""img/0894/5c7677b0-a4f1-479e-b274-7822c415175a.jpg"",""img/0875/a4935837-7d3c-4df6-88c1-36a94d4991ca.jpg""]","",""
"","2656","similarity","118","872365","0.0-6.0-112.0","3","[""img/0868/15dd6fd7-791e-4b53-b203-195d617521a4.jpg"",""img/0874/31e22c7c-99aa-40b1-bf03-dd73fa2df4d6.jpg""]","",""
"","3820","similarity","119","897173","0.0-6.0-113.0","5","[""img/0904/b7c2a2c8-df33-4473-b3d4-ff7147c60db3.jpg"",""img/0898/cd3aaa3f-efa9-4ab3-8d6f-a6a9273ddf42.jpg""]","",""
"","7779","similarity","120","905957","0.0-6.0-114.0","2","[""img/0860/17b44a7d-c5ca-479f-9e87-f65a64f5c80e.jpg"",""img/0766/d14acac4-7db1-4b07-8f8f-302437326fc0.jpg""]","",""
"","11754","similarity","121","918718","0.0-6.0-115.0","3","[""img/0894/0130a973-d993-41f8-874a-fee23d9ac11f.jpg"",""img/0874/85eb9b8a-c4c6-4e5a-b8e7-363a87a82054.jpg""]","",""
"","2899","similarity","122","922637","0.0-6.0-116.0","5","[""img/0899/5b56dd3e-3f49-47cc-af84-16da6457753b.jpg"",""img/0903/0fb24af7-9a26-4e9d-aadc-959a36f683e2.jpg""]","",""
"","3985","similarity","123","927628","0.0-6.0-117.0","3","[""img/0881/2a8413be-fec2-4de6-88ad-614dd4cccc9d.jpg"",""img/0764/a86eed5b-d0af-4c3f-8c7a-26e98e98cf1a.jpg""]","",""
"","3784","similarity","124","932428","0.0-6.0-118.0","5","[""img/0903/f67c4ab9-f8c2-4fcd-848a-a54a7b031002.jpg"",""img/0769/a1ce8d07-ba37-40de-bade-2778805521e0.jpg""]","",""
"","3278","similarity","125","936725","0.0-6.0-119.0","5","[""img/0901/d6d15b1c-4a30-4f74-a3fd-d4c8ee4169ca.jpg"",""img/0904/96e503ea-6630-4996-85f2-0237688ce441.jpg""]","",""
"","3232","similarity","126","940957","0.0-6.0-120.0","5","[""img/0860/f44ba3fb-03a2-42f0-8509-2c1ded493086.jpg"",""img/0881/292e9b4b-fca0-4ba8-87f1-4048f9e37b7d.jpg""]","",""
"","69401","similarity","127","1011365","0.0-6.0-121.0","6","[""img/0758/7ee8bc8f-c40b-4b3a-84ec-3e83580622d4.jpg"",""img/0874/995f0332-0439-4eb4-add3-957335dbf6d9.jpg""]","",""
"","3411","similarity","128","1015781","0.0-6.0-122.0","5","[""img/0901/168eb52c-c415-43f1-b5c8-e76e1a1ec247.jpg"",""img/0769/4680bcc3-8fbc-4643-8f9a-12aa0e780b64.jpg""]","",""
"","4562","similarity","129","1021357","0.0-6.0-123.0","6","[""img/0902/d5e25767-e8ec-45f3-ac0a-7b4a6f7a9edc.jpg"",""img/0904/06dacdc5-2206-4fb8-92b7-88042d22833c.jpg""]","",""
"","3562","similarity","130","1025930","0.0-6.0-124.0","1","[""img/0899/fd9efb43-701f-4cd6-baaa-4c38315f4bdc.jpg"",""img/0864/c3b63e8f-ea39-4d70-a1f2-b3fe4be8eb75.jpg""]","",""
"","2408","similarity","131","1029347","0.0-6.0-125.0","3","[""img/0766/e8052e17-9dae-4139-802b-6e590cb2d526.jpg"",""img/0868/179a5502-ab5c-478e-8263-5a1fbcc101d2.jpg""]","",""
"","2998","similarity","132","1033354","0.0-6.0-126.0","2","[""img/0764/06ea144f-f4f3-4a14-ba47-f20f35c561e0.jpg"",""img/0864/1d15626a-2f7c-410f-819c-0fa2c967e95e.jpg""]","",""
"","2557","similarity","133","1036927","0.0-6.0-127.0","1","[""img/0899/51a7a498-98c7-42d7-bca8-bc2d8f0b5831.jpg"",""img/0866/be24ab58-230e-4db8-9f45-ff04c9aec6bb.jpg""]","",""
"","2654","similarity","134","1040585","0.0-6.0-128.0","2","[""img/0901/12da1841-e611-435c-9719-109413d536a8.jpg"",""img/0881/7e31e5dc-2240-4b1b-b5a0-3acd980099ef.jpg""]","",""
"","4006","similarity","135","1045608","0.0-6.0-129.0","5","[""img/0898/79233891-305a-4a6a-8ddf-5c8604858203.jpg"",""img/0903/f10e9eb5-0c21-4a6a-944c-5f10a6d0fa4d.jpg""]","",""
"","3181","similarity","136","1049791","0.0-6.0-130.0","2","[""img/0894/7dd6ff43-f8fc-408a-8a41-a2b261871820.jpg"",""img/0867/7d1c497b-c1b3-4ed8-abb5-d7f73306015f.jpg""]","",""
"","2541","similarity","137","1053341","0.0-6.0-131.0","2","[""img/0874/a3bc679d-619f-4db6-bb68-116dcb757d9c.jpg"",""img/0903/5c6b1f57-b3a2-40f5-9fb1-82785e24b6a0.jpg""]","",""
"","4984","similarity","138","1059344","0.0-6.0-132.0","7","[""img/0899/b45c550b-96c3-4255-ad59-48a2b4db1c1e.jpg"",""img/0898/b2732712-71c2-45d8-834f-2b2ed5504910.jpg""]","",""
"","2557","similarity","139","1062909","0.0-6.0-133.0","2","[""img/0867/de92135f-5b65-4ed9-b245-188292c7c2f8.jpg"",""img/0764/3297a811-ea8b-4d74-9547-59cecab7293a.jpg""]","",""
"","4293","similarity","140","1068214","0.0-6.0-134.0","2","[""img/0866/386235d2-6857-41e7-88a8-25cfc3430025.jpg"",""img/0769/1d8734c4-77ab-4165-9e71-5cfe672ff01c.jpg""]","",""
"","2977","similarity","141","1072192","0.0-6.0-135.0","2","[""img/0860/c5ccd1a4-4bb7-48e1-9b25-72cfaf06909b.jpg"",""img/0898/01bfe666-3510-4fc7-964f-d00d28732dc8.jpg""]","",""
"","2665","similarity","142","1075864","0.0-6.0-136.0","2","[""img/0881/e046471a-35b4-4159-bbf7-3cfd201bef66.jpg"",""img/0903/b7e3723f-fd03-4f3d-8820-f19496463a34.jpg""]","",""
"","2372","similarity","143","1079247","0.0-6.0-137.0","2","[""img/0894/3664e04c-c6d3-4c9b-afb6-25d89974b174.jpg"",""img/0766/a754e4b6-5019-4cf4-8f58-34c20547a1f5.jpg""]","",""
"","2810","similarity","144","1083070","0.0-6.0-138.0","2","[""img/0860/d9a0d117-6d1d-41c0-8fec-9aff0fd9e9f2.jpg"",""img/0764/f713847b-4832-42d1-8fb3-e17e37fd745c.jpg""]","",""
"","3375","similarity","145","1087450","0.0-6.0-139.0","5","[""img/0769/4a1d0b52-3fe8-40fb-bb1c-c814fe49a68c.jpg"",""img/0902/a323b62d-2fd5-4ac8-acc6-35b768f3c3f2.jpg""]","",""
"","3705","similarity","146","1092160","0.0-6.0-140.0","7","[""img/0904/e9423a8c-f946-43ad-ab7b-931acef870e2.jpg"",""img/0903/24477210-856c-4550-9de0-9f85a32762eb.jpg""]","",""
"","3601","similarity","147","1096783","0.0-6.0-141.0","5","[""img/0764/bc3865c9-9004-4582-88a7-048478673f97.jpg"",""img/0769/e8ed913b-8a88-44f6-9327-d34afec3116b.jpg""]","",""
"","2509","similarity","148","1100299","0.0-6.0-142.0","2","[""img/0902/b03129ba-b087-4558-af37-e8399d6217d6.jpg"",""img/0881/7e822106-76f7-4b10-a805-14dc68b2cfaf.jpg""]","",""
"","5335","similarity","149","1106646","0.0-6.0-143.0","5","[""img/0866/945c6710-d15b-4a5b-a8f6-69af0850357f.jpg"",""img/0864/6e846d43-94a6-4b37-a268-65eda979f052.jpg""]","",""
"","4858","similarity","150","1112519","0.0-6.0-144.0","6","[""img/0902/2a7ac123-414a-476a-9a96-4757b924baef.jpg"",""img/0898/0af304a2-6a7a-4082-ab7c-4450cd08cc58.jpg""]","",""
"","4968","similarity","151","1118499","0.0-6.0-145.0","5","[""img/0862/a0a3a7ba-7798-46a3-b4ca-05e1f6e581d0.jpg"",""img/0864/afcba0a3-7e27-4757-b254-e9f05fad27e2.jpg""]","",""
"","5390","similarity","152","1124894","0.0-6.0-146.0","1","[""img/0875/dbdd643e-6d0e-4a5c-ab57-b9c29b9c981a.jpg"",""img/0898/224c1572-56b9-4f16-a9e4-6f3bc9c114bd.jpg""]","",""
"","4521","similarity","153","1130422","0.0-6.0-147.0","6","[""img/0874/c0378dac-9370-439a-8b79-db27c96fb390.jpg"",""img/0881/566f45f8-5fed-4479-a60f-26377e60a62d.jpg""]","",""
"","2716","similarity","154","1134145","0.0-6.0-148.0","2","[""img/0758/20497cbe-ddae-489e-86e2-ab06985ed07c.jpg"",""img/0894/2217bdcd-23a7-42d3-823b-23f2488d7e87.jpg""]","",""
"","2333","similarity","155","1137484","0.0-6.0-149.0","2","[""img/0904/6291eb43-c10c-4810-a36a-101d09868b04.jpg"",""img/0864/e8bd659f-aa43-4748-877e-3118e8b4e189.jpg""]","",""
"","7091","similarity","156","1145582","0.0-6.0-150.0","5","[""img/0769/5bd04f55-d091-4f57-85db-38426f26bd1a.jpg"",""img/0899/a048912c-b12c-40e3-90af-46b69b0cc4fe.jpg""]","",""
"","2774","similarity","157","1157461","0.0-6.0-151.0","7","[""img/0764/0e7ed062-f798-4366-8a24-6f430926f919.jpg"",""img/0903/5995f4a8-fa82-46f8-8760-fd7800a5ca34.jpg""]","",""
"","2694","similarity","158","1161157","0.0-6.0-152.0","2","[""img/0903/d987e220-f3e6-4b6d-a270-fe6757041f6d.jpg"",""img/0864/4bd81bc6-c13d-46df-95a9-485886dc7c1b.jpg""]","",""
"","3961","similarity","159","1166122","0.0-6.0-153.0","5","[""img/0894/8cadb87a-7001-4e47-99fb-1867bebf1668.jpg"",""img/0881/f7a8cc63-8842-40a4-9ff8-fe530310d62c.jpg""]","",""
"","2929","similarity","160","1170065","0.0-6.0-154.0","6","[""img/0875/8521fd58-3b1e-4dc5-97ae-804edfa6734a.jpg"",""img/0867/2e1a0b58-cdb1-4107-a14e-452530d7b9b0.jpg""]","",""
"","2862","similarity","161","1173935","0.0-6.0-155.0","5","[""img/0867/f8488a47-94ee-4166-952c-44e16cf172f6.jpg"",""img/0758/65d426d6-3ff6-415d-8654-a43b83ecc4fe.jpg""]","",""
"","3382","similarity","162","1178318","0.0-6.0-156.0","3","[""img/0868/7b212364-ff5f-4e28-9241-7eb6ea00161b.jpg"",""img/0901/233a6948-48eb-4b67-8259-222b916b2322.jpg""]","",""
"","4467","similarity","163","1183788","0.0-6.0-157.0","6","[""img/0769/14d393ce-e5be-4ca1-86ce-cc27d4b6074c.jpg"",""img/0894/6aa5545f-fa7d-4286-bbaa-aaf34dc7ec96.jpg""]","",""
"","2286","similarity","164","1187086","0.0-6.0-158.0","2","[""img/0904/2c98dc56-88d1-4fb5-a999-b6a7861f65f0.jpg"",""img/0758/53f35650-e455-4b53-8be4-c3c8271c6466.jpg""]","",""
"","3188","similarity","165","1191290","0.0-6.0-159.0","1","[""img/0874/99f6563c-8a8d-4c1c-a41d-667b618c3fd5.jpg"",""img/0904/2f88ce53-02d0-4f95-a082-182c56a0eeb4.jpg""]","",""
"","6007","similarity","166","1198302","0.0-6.0-160.0","2","[""img/0864/c22faebd-9c53-47bc-ada3-b9a30c688e75.jpg"",""img/0901/fb0a8e69-7f19-4e6e-a6bb-a48f97f9b4f3.jpg""]","",""
"","3064","similarity","167","1202382","0.0-6.0-161.0","2","[""img/0898/8605a25b-6895-476d-8c13-df7a83f96093.jpg"",""img/0866/9b38d691-1802-4959-ab3f-fc902f0e4ea6.jpg""]","",""
"","4237","similarity","168","1207630","0.0-6.0-162.0","6","[""img/0766/214866ee-423d-4629-9bb9-41572bdc7dac.jpg"",""img/0903/b4a0f61e-a964-4b79-a9a7-f767a8f92f34.jpg""]","",""
"","3792","similarity","169","1212432","0.0-6.0-163.0","2","[""img/0860/c47fdead-eb02-4989-b078-26f4852f44fe.jpg"",""img/0899/76ad07e2-ca25-45eb-84f2-8d80b8ca3e26.jpg""]","",""
"","58681","similarity","170","1272122","0.0-6.0-164.0","2","[""img/0766/aaec5f42-7f0a-4a16-aeca-488d757acbcc.jpg"",""img/0862/ee3b7bff-4a70-4e84-9bea-4a565e456acb.jpg""]","",""
"","3789","similarity","171","1276916","0.0-6.0-165.0","5","[""img/0898/26c41340-15bd-4ead-8fe4-c0d0ddca09c2.jpg"",""img/0894/133a1636-d123-4893-873c-1718050f832a.jpg""]","",""
"","4224","similarity","172","1282145","0.0-6.0-166.0","3","[""img/0867/50a1b60e-3a29-44bf-b606-d4bd3746fea9.jpg"",""img/0766/ea09dd5a-d24d-4e97-a099-7da3db1baef1.jpg""]","",""
"","4254","similarity","173","1287415","0.0-6.0-167.0","2","[""img/0904/9dd5708f-3f8b-46a9-b49f-2f2fab87b357.jpg"",""img/0862/847e5208-38ec-4f36-949c-296cdd7424ee.jpg""]","",""
"","3289","similarity","174","1291712","0.0-6.0-168.0","5","[""img/0866/620cd1aa-0800-4414-8f6e-90342e7a99ad.jpg"",""img/0874/2c9464dd-8a23-4baa-ac94-1ba3af5c15cc.jpg""]","",""
"","3281","similarity","175","1296007","0.0-6.0-169.0","3","[""img/0903/f1fa0f8d-e62b-4b4a-a174-31a0fabfe61b.jpg"",""img/0868/4a8a45ed-2c4f-421b-9564-409a33ecd26c.jpg""]","",""
"","2469","similarity","176","1299478","0.0-6.0-170.0","5","[""img/0769/3c1efec9-f8fd-487d-8955-4be88e48c832.jpg"",""img/0904/b5855d6a-7ef9-46ca-9215-6e9fa046e543.jpg""]","",""
"","2585","similarity","177","1303077","0.0-6.0-171.0","2","[""img/0875/ebf7653f-ff45-4e9f-af58-2c042ab3cd2b.jpg"",""img/0764/ec2dd087-c471-4370-b570-95a542506a96.jpg""]","",""
"","2873","similarity","178","1306960","0.0-6.0-172.0","2","[""img/0860/5383b320-1518-4095-a58e-5cc1ae30b64c.jpg"",""img/0903/150cf64c-0bd2-4674-abbb-a1387cf1f3e9.jpg""]","",""
"","5150","similarity","179","1313127","0.0-6.0-173.0","6","[""img/0864/300bb811-8b3c-4c42-8653-6097c3725197.jpg"",""img/0867/5e07b34d-b40f-4b1c-ac10-49975bace45f.jpg""]","",""
"","3015","similarity","180","1317157","0.0-6.0-174.0","5","[""img/0868/8b0b8473-e2c0-4331-aa56-c3a5c29369da.jpg"",""img/0864/6f631579-acf1-415c-a42c-1207f62a8d99.jpg""]","",""
"","3730","similarity","181","1321896","0.0-6.0-175.0","5","[""img/0898/40f99fb2-64d2-4e72-8a7f-a1cf60741e69.jpg"",""img/0769/8c7cf147-1780-4d5c-8ddf-5ea23ff03ac9.jpg""]","",""
"","4718","similarity","182","1327630","0.0-6.0-176.0","6","[""img/0766/26d3ae14-8275-4e08-99b2-a6598c193ddf.jpg"",""img/0764/50f1b062-d608-4bc0-ab25-b872dcf2ed93.jpg""]","",""
"","3824","similarity","183","1332456","0.0-6.0-177.0","3","[""img/0764/f64dfa83-333d-494c-87b5-73e942f1766e.jpg"",""img/0866/6f2a90d7-14f1-4f1b-bd64-fc0af6b9fe44.jpg""]","",""
"","2801","similarity","184","1336264","0.0-6.0-178.0","2","[""img/0902/d3e55000-c839-4bf9-9b9b-4af0a9925af1.jpg"",""img/0875/2c361b79-c3d1-4eda-812e-bf03192407bf.jpg""]","",""
"","2809","similarity","185","1340086","0.0-6.0-179.0","2","[""img/0881/c24f3051-eefa-42de-aba6-fccb56d93c70.jpg"",""img/0904/73920552-103b-4c9c-9ece-e0b8376b4504.jpg""]","",""
"","3068","similarity","186","1344168","0.0-6.0-180.0","3","[""img/0874/ca23d307-fc00-4d7d-9106-584c6eb21b4d.jpg"",""img/0860/c3379ff7-0763-48fe-a1ec-7ea3d611bc7a.jpg""]","",""
"","3465","similarity","187","1348643","0.0-6.0-181.0","2","[""img/0769/6c0bac4c-5f59-43c7-898c-3ca93cf55cfe.jpg"",""img/0874/93d1f8dc-acf2-4f03-bd8d-8ec35df276ed.jpg""]","",""
"","4588","similarity","188","1354242","0.0-6.0-182.0","6","[""img/0904/4e58005d-a2ec-4aaa-b199-445343561396.jpg"",""img/0766/006035d8-c736-4daf-bbe4-a9e373af9da6.jpg""]","",""
"","4503","similarity","189","1359754","0.0-6.0-183.0","6","[""img/0902/0c760cc9-10ac-429e-8957-a7d51fc99683.jpg"",""img/0764/cffc80b0-4a90-4acb-a530-6f480f3ca303.jpg""]","",""
"","2973","similarity","190","1363734","0.0-6.0-184.0","2","[""img/0769/458d9c77-b844-40b5-bb1b-1e3bbd4da64e.jpg"",""img/0875/5a7c4e35-6514-4e12-8879-d16071da4cd6.jpg""]","",""
"","3239","similarity","191","1367982","0.0-6.0-185.0","6","[""img/0867/6e19c858-b606-45b2-a4c6-910a73f1d82c.jpg"",""img/0903/c708d08f-a108-4e04-8288-c3fcf6375db4.jpg""]","",""
"","4643","similarity","192","1373627","0.0-6.0-186.0","2","[""img/0862/47ed5efd-4ec9-4b74-bb4e-a5f5cf0c3e7d.jpg"",""img/0769/9ea9ceb6-049e-4ad9-be8f-00645cd35803.jpg""]","",""
"","3945","similarity","193","1378576","0.0-6.0-187.0","2","[""img/0766/2da002a4-05c9-4f5c-9ed7-433b4183e273.jpg"",""img/0866/93a27239-8317-4e08-98ca-d8b1ff298e07.jpg""]","",""
"","3047","similarity","194","1382630","0.0-6.0-188.0","2","[""img/0769/f6396414-6788-4d59-9683-de153298d89c.jpg"",""img/0860/4c530c3c-6aab-492a-94d1-9c01797bde40.jpg""]","",""
"","4441","similarity","195","1389763","0.0-6.0-189.0","5","[""img/0881/84397291-bc14-4fbf-90e8-241e486ab0fe.jpg"",""img/0868/293079b8-7e0c-4afd-a390-1e5d35fe3ded.jpg""]","",""
"[{""page_index"":0,""viewing_time"":5103}]","5103","instructions","196","1395875","0.0-7.0","","","",""
"","208792","image-multi-choice","197","1605674","0.0-8.0-0.0","","","{""Q0"":""Orange-crowned Warbler""}","Nashville Warbler"
"","5526","image-multi-choice","198","1612214","0.0-8.0-1.0","","","{""Q0"":""Black-and-white Warbler""}","Black-and-white Warbler"
"","42509","image-multi-choice","199","1655729","0.0-8.0-2.0","","","{""Q0"":""Townsend's Warbler""}","Townsend's Warbler"
"","30201","image-multi-choice","200","1686940","0.0-8.0-3.0","","","{""Q0"":""Lark Sparrow""}","Lark Sparrow"
"","3246","image-multi-choice","201","1691200","0.0-8.0-4.0","","","{""Q0"":""Yellow Warbler""}","Yellow Warbler"
"","54393","image-multi-choice","202","1746601","0.0-8.0-5.0","","","{""Q0"":""Tennessee Warbler""}","Orange-crowned Warbler"
"","4220","image-multi-choice","203","1751831","0.0-8.0-6.0","","","{""Q0"":""White-throated Sparrow""}","White-throated Sparrow"
"","179929","image-multi-choice","204","1932766","0.0-8.0-7.0","","","{""Q0"":""Fox Sparrow""}","Fox Sparrow"
"","47299","image-multi-choice","205","1981075","0.0-8.0-8.0","","","{""Q0"":""Song Sparrow""}","Song Sparrow"
"","14977","image-multi-choice","206","1997061","0.0-8.0-9.0","","","{""Q0"":""Blackburnian Warbler""}","Blackburnian Warbler"
"","29409","image-multi-choice","207","2027476","0.0-8.0-10.0","","","{""Q0"":""Vesper Sparrow""}","Vesper Sparrow"
"","3917","image-multi-choice","208","2032399","0.0-8.0-11.0","","","{""Q0"":""White-crowned Sparrow""}","White-crowned Sparrow"
"","7770","image-multi-choice","209","2041181","0.0-8.0-12.0","","","{""Q0"":""American Tree Sparrow""}","American Tree Sparrow"
"","134147","image-multi-choice","210","2176345","0.0-8.0-13.0","","","{""Q0"":""Tennessee Warbler""}","Tennessee Warbler"
"","17446","image-multi-choice","211","2194808","0.0-8.0-14.0","","","{""Q0"":""Magnolia Warbler""}","Magnolia Warbler"
"","10812","image-multi-choice","212","2206632","0.0-8.0-15.0","","","{""Q0"":""Northern Waterthrush""}","Northern Waterthrush"
"","147160","image-multi-choice","213","2354798","0.0-8.0-16.0","","","{""Q0"":""Chipping Sparrow""}","Chipping Sparrow"
"","19029","image-multi-choice","214","2374839","0.0-8.0-17.0","","","{""Q0"":""Swamp Sparrow""}","Swamp Sparrow"
"","16672","image-multi-choice","215","2392520","0.0-8.0-18.0","","","{""Q0"":""Lincoln's Sparrow""}","Lincoln's Sparrow"
"","3078","image-multi-choice","216","2396607","0.0-8.0-19.0","","","{""Q0"":""Ovenbird""}","Ovenbird"
