[{"view_history":"[{\"page_index\":0,\"viewing_time\":12539}]","rt":12540,"trial_type":"instructions","trial_index":0,"time_elapsed":12542,"internal_node_id":"0.0-0.0"},{"sim_score":7,"rt":5513,"stimulus":"[\"img/bluejay1.jpg\",\"img/bluejay2.jpg\"]","trial_type":"similarity_demo","trial_index":1,"time_elapsed":19074,"internal_node_id":"0.0-1.0"},{"view_history":"[{\"page_index\":0,\"viewing_time\":5429}]","rt":5429,"trial_type":"instructions","trial_index":2,"time_elapsed":25508,"internal_node_id":"0.0-2.0"},{"sim_score":3,"rt":8880,"stimulus":"[\"img/bluejay1.jpg\",\"img/cardinal1.jpg\"]","trial_type":"similarity_demo","trial_index":3,"time_elapsed":35399,"internal_node_id":"0.0-3.0"},{"view_history":"[{\"page_index\":0,\"viewing_time\":4431}]","rt":4431,"trial_type":"instructions","trial_index":4,"time_elapsed":40840,"internal_node_id":"0.0-4.0"},{"view_history":"[{\"page_index\":0,\"viewing_time\":24085}]","rt":24085,"trial_type":"instructions","trial_index":5,"time_elapsed":65928,"internal_node_id":"0.0-5.0"},{"sim_score":2,"rt":5681,"stimulus":"[\"img/0868/e0aff734-077f-40dd-9781-74821abd3621.jpg\",\"img/0894/0130a973-d993-41f8-874a-fee23d9ac11f.jpg\"]","trial_type":"similarity","trial_index":6,"time_elapsed":72628,"internal_node_id":"0.0-6.0-0.0"},{"sim_score":1,"rt":4702,"stimulus":"[\"img/0898/68476bbb-34a1-42d9-8bc1-deab783d4489.jpg\",\"img/0758/67c0be2f-9e91-48b3-8219-70ac0a1802fa.jpg\"]","trial_type":"similarity","trial_index":7,"time_elapsed":78337,"internal_node_id":"0.0-6.0-1.0"},{"sim_score":6,"rt":6500,"stimulus":"[\"img/0903/776b74ee-a8ab-4ab8-a78d-097c0747538d.jpg\",\"img/0894/e6385e52-6c35-43bd-b0af-bc803d107b11.jpg\"]","trial_type":"similarity","trial_index":8,"time_elapsed":85847,"internal_node_id":"0.0-6.0-2.0"},{"sim_score":1,"rt":4655,"stimulus":"[\"img/0881/1407b85b-a1c6-45b1-9884-3b24203efadb.jpg\",\"img/0766/717fd72f-a281-499b-a5ba-5e2ecc4d4866.jpg\"]","trial_type":"similarity","trial_index":9,"time_elapsed":91521,"internal_node_id":"0.0-6.0-3.0"},{"sim_score":3,"rt":4617,"stimulus":"[\"img/0864/b3c4e378-28f0-4699-9338-2a257b4bca04.jpg\",\"img/0860/8a92e21b-6a32-4e4a-a445-2d5a487ed0a4.jpg\"]","trial_type":"similarity","trial_index":10,"time_elapsed":97155,"internal_node_id":"0.0-6.0-4.0"},{"sim_score":6,"rt":4904,"stimulus":"[\"img/0902/d5e25767-e8ec-45f3-ac0a-7b4a6f7a9edc.jpg\",\"img/0899/1b3457ea-87d4-4946-a01c-aac1863ed46c.jpg\"]","trial_type":"similarity","trial_index":11,"time_elapsed":103070,"internal_node_id":"0.0-6.0-5.0"},{"sim_score":3,"rt":5697,"stimulus":"[\"img/0868/09a9ef4d-d000-4cfa-a6aa-ebec7c2edeb4.jpg\",\"img/0769/04347740-f8f6-48bb-887a-f68babd0a0d4.jpg\"]","trial_type":"similarity","trial_index":12,"time_elapsed":109775,"internal_node_id":"0.0-6.0-6.0"},{"sim_score":3,"rt":4259,"stimulus":"[\"img/0764/8740679b-b56f-4292-aece-14063457113a.jpg\",\"img/0901/effc03f6-8f9d-46db-a66c-16fc83891c5c.jpg\"]","trial_type":"similarity","trial_index":13,"time_elapsed":115042,"internal_node_id":"0.0-6.0-7.0"},{"sim_score":5,"rt":4460,"stimulus":"[\"img/0881/f8bd891e-aa09-4782-89db-33e7cb2b0cf1.jpg\",\"img/0866/07c9c966-3c8d-40e7-8128-92b2acbaed5d.jpg\"]","trial_type":"similarity","trial_index":14,"time_elapsed":120513,"internal_node_id":"0.0-6.0-8.0"},{"sim_score":3,"rt":5882,"stimulus":"[\"img/0867/2e1a0b58-cdb1-4107-a14e-452530d7b9b0.jpg\",\"img/0899/66bf4113-ee12-426c-84d2-ea410b6c803e.jpg\"]","trial_type":"similarity","trial_index":15,"time_elapsed":127402,"internal_node_id":"0.0-6.0-9.0"},{"sim_score":3,"rt":5442,"stimulus":"[\"img/0875/90da8d75-108a-44ad-b999-e21fee3860d3.jpg\",\"img/0766/2da002a4-05c9-4f5c-9ed7-433b4183e273.jpg\"]","trial_type":"similarity","trial_index":16,"time_elapsed":133855,"internal_node_id":"0.0-6.0-10.0"},{"sim_score":3,"rt":5926,"stimulus":"[\"img/0901/a0d65c84-3f20-476a-92d1-0c01e8019cf4.jpg\",\"img/0875/99698b4d-b4a1-44bc-8c83-8ea755bbbf61.jpg\"]","trial_type":"similarity","trial_index":17,"time_elapsed":140789,"internal_node_id":"0.0-6.0-11.0"},{"sim_score":3,"rt":3976,"stimulus":"[\"img/0902/24d10fe7-314f-4d5a-8c7b-b43121bba0a4.jpg\",\"img/0860/9593362c-9fe5-4d12-9735-6000a11f6aa5.jpg\"]","trial_type":"similarity","trial_index":18,"time_elapsed":145772,"internal_node_id":"0.0-6.0-12.0"},{"sim_score":3,"rt":5601,"stimulus":"[\"img/0874/85eb9b8a-c4c6-4e5a-b8e7-363a87a82054.jpg\",\"img/0867/12264664-1860-46df-8c21-162b9817cdda.jpg\"]","trial_type":"similarity","trial_index":19,"time_elapsed":152394,"internal_node_id":"0.0-6.0-13.0"},{"sim_score":3,"rt":5359,"stimulus":"[\"img/0904/1d10df11-b5c8-4370-9a6b-097a7f965895.jpg\",\"img/0866/23a224f3-2012-4fc8-8e0f-3c36f8de27fd.jpg\"]","trial_type":"similarity","trial_index":20,"time_elapsed":158764,"internal_node_id":"0.0-6.0-14.0"},{"sim_score":2,"rt":5129,"stimulus":"[\"img/0758/6e95579b-5166-487c-b8cb-e417c6a218e3.jpg\",\"img/0902/4e0baa32-988e-46f6-989d-f669225ab645.jpg\"]","trial_type":"similarity","trial_index":21,"time_elapsed":164908,"internal_node_id":"0.0-6.0-15.0"},{"sim_score":3,"rt":4491,"stimulus":"[\"img/0867/50a1b60e-3a29-44bf-b606-d4bd3746fea9.jpg\",\"img/0898/5f699581-3853-4547-856c-12f419ba5af7.jpg\"]","trial_type":"similarity","trial_index":22,"time_elapsed":170410,"internal_node_id":"0.0-6.0-16.0"},{"sim_score":3,"rt":4072,"stimulus":"[\"img/0904/2f88ce53-02d0-4f95-a082-182c56a0eeb4.jpg\",\"img/0868/6a28c3b0-3d76-498a-9fb7-ddafc665eca8.jpg\"]","trial_type":"similarity","trial_index":23,"time_elapsed":175490,"internal_node_id":"0.0-6.0-17.0"},{"sim_score":3,"rt":5186,"stimulus":"[\"img/0766/f5f78e4e-d88f-4866-951a-118ba9fec4d0.jpg\",\"img/0864/f92649a2-0590-4d31-9a7a-1bfb81666a2d.jpg\"]","trial_type":"similarity","trial_index":24,"time_elapsed":181688,"internal_node_id":"0.0-6.0-18.0"},{"sim_score":5,"rt":5534,"stimulus":"[\"img/0899/9de5e857-aa9a-4e0c-8ba2-46d79bd069a4.jpg\",\"img/0766/af3be95e-e52e-4fae-899b-0ff02ec340aa.jpg\"]","trial_type":"similarity","trial_index":25,"time_elapsed":188235,"internal_node_id":"0.0-6.0-19.0"},{"sim_score":3,"rt":4077,"stimulus":"[\"img/0764/d7c215ab-ea9a-45be-8d5f-417d5b9a8a17.jpg\",\"img/0758/2fa3e613-e676-4e6e-bd12-705327eeb3e1.jpg\"]","trial_type":"similarity","trial_index":26,"time_elapsed":193330,"internal_node_id":"0.0-6.0-20.0"},{"sim_score":2,"rt":5031,"stimulus":"[\"img/0901/0f670aef-ac36-496d-8142-ee5fdb21dd82.jpg\",\"img/0874/a3bc679d-619f-4db6-bb68-116dcb757d9c.jpg\"]","trial_type":"similarity","trial_index":27,"time_elapsed":199376,"internal_node_id":"0.0-6.0-21.0"},{"sim_score":5,"rt":7856,"stimulus":"[\"img/0875/ebf7653f-ff45-4e9f-af58-2c042ab3cd2b.jpg\",\"img/0758/65d426d6-3ff6-415d-8654-a43b83ecc4fe.jpg\"]","trial_type":"similarity","trial_index":28,"time_elapsed":208238,"internal_node_id":"0.0-6.0-22.0"},{"sim_score":5,"rt":4215,"stimulus":"[\"img/0867/7d1c497b-c1b3-4ed8-abb5-d7f73306015f.jpg\",\"img/0881/0c7068da-d0d9-4103-bda1-74ef7a2b32c3.jpg\"]","trial_type":"similarity","trial_index":29,"time_elapsed":213468,"internal_node_id":"0.0-6.0-23.0"},{"sim_score":1,"rt":5554,"stimulus":"[\"img/0758/7ee8bc8f-c40b-4b3a-84ec-3e83580622d4.jpg\",\"img/0901/12da1841-e611-435c-9719-109413d536a8.jpg\"]","trial_type":"similarity","trial_index":30,"time_elapsed":220030,"internal_node_id":"0.0-6.0-24.0"},{"sim_score":3,"rt":5090,"stimulus":"[\"img/0868/3a62db2d-97e9-44a3-b8e3-a48c6f0e423b.jpg\",\"img/0875/34132396-d896-4c2d-8087-646dd867e769.jpg\"]","trial_type":"similarity","trial_index":31,"time_elapsed":226138,"internal_node_id":"0.0-6.0-25.0"},{"sim_score":3,"rt":5111,"stimulus":"[\"img/0903/24477210-856c-4550-9de0-9f85a32762eb.jpg\",\"img/0901/a6c90438-fa7c-4418-ac7c-16c2e772dd98.jpg\"]","trial_type":"similarity","trial_index":32,"time_elapsed":232256,"internal_node_id":"0.0-6.0-26.0"},{"sim_score":2,"rt":5303,"stimulus":"[\"img/0894/38cf335f-f76f-4349-8d65-e20cd6859565.jpg\",\"img/0899/0adc0bc3-6fca-4078-be6f-d45ddf1653d5.jpg\"]","trial_type":"similarity","trial_index":33,"time_elapsed":238575,"internal_node_id":"0.0-6.0-27.0"},{"sim_score":4,"rt":6979,"stimulus":"[\"img/0862/a0a3a7ba-7798-46a3-b4ca-05e1f6e581d0.jpg\",\"img/0867/6e19c858-b606-45b2-a4c6-910a73f1d82c.jpg\"]","trial_type":"similarity","trial_index":34,"time_elapsed":246560,"internal_node_id":"0.0-6.0-28.0"},{"sim_score":5,"rt":5039,"stimulus":"[\"img/0864/6f631579-acf1-415c-a42c-1207f62a8d99.jpg\",\"img/0875/e7e66b13-b573-431e-b85e-288ce04a35a3.jpg\"]","trial_type":"similarity","trial_index":35,"time_elapsed":252614,"internal_node_id":"0.0-6.0-29.0"},{"sim_score":5,"rt":5285,"stimulus":"[\"img/0862/ba89835a-408c-480b-8594-ed4ffa97eb5c.jpg\",\"img/0874/31e22c7c-99aa-40b1-bf03-dd73fa2df4d6.jpg\"]","trial_type":"similarity","trial_index":36,"time_elapsed":258918,"internal_node_id":"0.0-6.0-30.0"},{"sim_score":2,"rt":3259,"stimulus":"[\"img/0903/47e39de8-6959-469f-8be9-6999a6db207c.jpg\",\"img/0758/e38fd80d-18d0-42f3-b848-f930788e8bd7.jpg\"]","trial_type":"similarity","trial_index":37,"time_elapsed":263194,"internal_node_id":"0.0-6.0-31.0"},{"sim_score":3,"rt":5414,"stimulus":"[\"img/0866/be24ab58-230e-4db8-9f45-ff04c9aec6bb.jpg\",\"img/0901/693e0535-ef7e-4d60-af9d-fac2f38e8307.jpg\"]","trial_type":"similarity","trial_index":38,"time_elapsed":269616,"internal_node_id":"0.0-6.0-32.0"},{"sim_score":1,"rt":4459,"stimulus":"[\"img/0874/995f0332-0439-4eb4-add3-957335dbf6d9.jpg\",\"img/0899/b45c550b-96c3-4255-ad59-48a2b4db1c1e.jpg\"]","trial_type":"similarity","trial_index":39,"time_elapsed":275082,"internal_node_id":"0.0-6.0-33.0"},{"sim_score":5,"rt":4961,"stimulus":"[\"img/0903/8fcafe03-43df-4c45-9da5-0df3a1eeccc5.jpg\",\"img/0902/22ed3536-288b-452e-9777-0fa0ab94deb0.jpg\"]","trial_type":"similarity","trial_index":40,"time_elapsed":281060,"internal_node_id":"0.0-6.0-34.0"},{"sim_score":4,"rt":4262,"stimulus":"[\"img/0758/eabcd7a8-56ad-4fd2-bc24-90f6b7b33265.jpg\",\"img/0866/0207e9a2-7dbb-40b5-9459-b472aaeceb2a.jpg\"]","trial_type":"similarity","trial_index":41,"time_elapsed":286330,"internal_node_id":"0.0-6.0-35.0"},{"sim_score":3,"rt":4020,"stimulus":"[\"img/0875/2c361b79-c3d1-4eda-812e-bf03192407bf.jpg\",\"img/0903/680ed18e-b311-4ecf-9b00-7dea32128334.jpg\"]","trial_type":"similarity","trial_index":42,"time_elapsed":291361,"internal_node_id":"0.0-6.0-36.0"},{"sim_score":3,"rt":4953,"stimulus":"[\"img/0864/66091c27-e588-4476-8af9-265dc6be4156.jpg\",\"img/0902/b56db912-c3c0-4fc2-b325-d640acd7cb58.jpg\"]","trial_type":"similarity","trial_index":43,"time_elapsed":306898,"internal_node_id":"0.0-6.0-37.0"},{"sim_score":2,"rt":6363,"stimulus":"[\"img/0901/168eb52c-c415-43f1-b5c8-e76e1a1ec247.jpg\",\"img/0867/5e07b34d-b40f-4b1c-ac10-49975bace45f.jpg\"]","trial_type":"similarity","trial_index":44,"time_elapsed":314272,"internal_node_id":"0.0-6.0-38.0"},{"sim_score":3,"rt":6924,"stimulus":"[\"img/0862/4f0a3b4c-afbf-486e-b248-1d54982f54b4.jpg\",\"img/0860/c3379ff7-0763-48fe-a1ec-7ea3d611bc7a.jpg\"]","trial_type":"similarity","trial_index":45,"time_elapsed":322212,"internal_node_id":"0.0-6.0-39.0"},{"sim_score":7,"rt":3777,"stimulus":"[\"img/0867/a749dddb-69f0-44a6-acdc-2bf295cf6dcc.jpg\",\"img/0868/c8ac40c7-6904-4e13-8d61-c75d3052dc4e.jpg\"]","trial_type":"similarity","trial_index":46,"time_elapsed":326994,"internal_node_id":"0.0-6.0-40.0"},{"sim_score":5,"rt":5984,"stimulus":"[\"img/0904/5aec2708-cf14-4a58-aa30-9a8a61c1be0e.jpg\",\"img/0899/00715b3f-851b-420b-a26b-d7f79f7759a9.jpg\"]","trial_type":"similarity","trial_index":47,"time_elapsed":333988,"internal_node_id":"0.0-6.0-41.0"},{"sim_score":1,"rt":5641,"stimulus":"[\"img/0862/de9ad88c-b522-430a-8ee9-eb06a9f85df5.jpg\",\"img/0894/5a49e858-2850-4892-9a06-e9f0efb5f94d.jpg\"]","trial_type":"similarity","trial_index":48,"time_elapsed":340646,"internal_node_id":"0.0-6.0-42.0"},{"sim_score":3,"rt":5510,"stimulus":"[\"img/0875/cff79b3a-a797-4393-9757-6275f999ec04.jpg\",\"img/0904/73920552-103b-4c9c-9ece-e0b8376b4504.jpg\"]","trial_type":"similarity","trial_index":49,"time_elapsed":347168,"internal_node_id":"0.0-6.0-43.0"},{"sim_score":3,"rt":4777,"stimulus":"[\"img/0874/767f289c-9814-4496-803f-745cc8913d1f.jpg\",\"img/0898/993d8f2d-bef7-4251-a193-0f93a32b7763.jpg\"]","trial_type":"similarity","trial_index":50,"time_elapsed":352958,"internal_node_id":"0.0-6.0-44.0"},{"sim_score":3,"rt":3758,"stimulus":"[\"img/0898/881e2a85-d5c2-49be-a0c6-8a6ce2c4af08.jpg\",\"img/0868/1a62b2b2-18f5-466e-b564-5176a57c565e.jpg\"]","trial_type":"similarity","trial_index":51,"time_elapsed":357724,"internal_node_id":"0.0-6.0-45.0"},{"sim_score":7,"rt":5493,"stimulus":"[\"img/0901/08d6d1d1-c043-43c4-bb08-d45e062822b9.jpg\",\"img/0860/b03b963d-949b-4d8d-b19c-4950c89eeca2.jpg\"]","trial_type":"similarity","trial_index":52,"time_elapsed":364226,"internal_node_id":"0.0-6.0-46.0"},{"sim_score":5,"rt":4040,"stimulus":"[\"img/0894/792c83e9-a747-4000-bc72-5663d2439edb.jpg\",\"img/0902/b76efc44-a50f-4dac-b997-ff0222376067.jpg\"]","trial_type":"similarity","trial_index":53,"time_elapsed":369283,"internal_node_id":"0.0-6.0-47.0"},{"sim_score":3,"rt":4398,"stimulus":"[\"img/0764/6fbd1902-fa2a-48d8-bc11-705b8ab68d8f.jpg\",\"img/0862/92fcd8a4-8193-4a6a-ae09-dd4a6338b0df.jpg\"]","trial_type":"similarity","trial_index":54,"time_elapsed":374688,"internal_node_id":"0.0-6.0-48.0"},{"sim_score":6,"rt":5167,"stimulus":"[\"img/0881/adc02f34-ce97-4aef-850f-00519df06fd7.jpg\",\"img/0758/53f35650-e455-4b53-8be4-c3c8271c6466.jpg\"]","trial_type":"similarity","trial_index":55,"time_elapsed":380876,"internal_node_id":"0.0-6.0-49.0"},{"sim_score":5,"rt":5966,"stimulus":"[\"img/0766/2e1cf445-9aef-40e7-92f4-5facf48b64c5.jpg\",\"img/0769/1afb527f-9887-428c-bd26-a12c2f9efb68.jpg\"]","trial_type":"similarity","trial_index":56,"time_elapsed":387860,"internal_node_id":"0.0-6.0-50.0"},{"sim_score":5,"rt":6329,"stimulus":"[\"img/0875/3ecb367d-e9eb-4826-8aaa-7aa72fb98019.jpg\",\"img/0866/945c6710-d15b-4a5b-a8f6-69af0850357f.jpg\"]","trial_type":"similarity","trial_index":57,"time_elapsed":395194,"internal_node_id":"0.0-6.0-51.0"},{"sim_score":7,"rt":3778,"stimulus":"[\"img/0894/5f15154e-e72e-4ce5-aafb-bce6f0564006.jpg\",\"img/0904/ba8e689e-9ca6-4608-a2a1-3b0940666ae6.jpg\"]","trial_type":"similarity","trial_index":58,"time_elapsed":399986,"internal_node_id":"0.0-6.0-52.0"},{"sim_score":1,"rt":4880,"stimulus":"[\"img/0758/a085b443-b5d7-4cb2-9ad4-b9dab0fc23f1.jpg\",\"img/0769/458d9c77-b844-40b5-bb1b-1e3bbd4da64e.jpg\"]","trial_type":"similarity","trial_index":59,"time_elapsed":405878,"internal_node_id":"0.0-6.0-53.0"},{"sim_score":3,"rt":4904,"stimulus":"[\"img/0902/0db94c50-f1fb-4091-953c-29ca0466bee2.jpg\",\"img/0874/adf9a8f1-c40b-402b-b95b-1e85a54a7b62.jpg\"]","trial_type":"similarity","trial_index":60,"time_elapsed":411793,"internal_node_id":"0.0-6.0-54.0"},{"sim_score":2,"rt":7209,"stimulus":"[\"img/0903/3e9ee8a5-eb66-47f5-8973-8a5af1ddc87e.jpg\",\"img/0862/92f0146c-20c4-482e-aef5-adb693790338.jpg\"]","trial_type":"similarity","trial_index":61,"time_elapsed":420013,"internal_node_id":"0.0-6.0-55.0"},{"sim_score":1,"rt":5041,"stimulus":"[\"img/0866/a15b02be-11bb-43e3-b0e0-ecc3bd7dfc49.jpg\",\"img/0894/2217bdcd-23a7-42d3-823b-23f2488d7e87.jpg\"]","trial_type":"similarity","trial_index":62,"time_elapsed":426072,"internal_node_id":"0.0-6.0-56.0"},{"sim_score":4,"rt":5325,"stimulus":"[\"img/0867/ac1797e4-8afc-48fe-b252-86d1defb1cca.jpg\",\"img/0904/09934646-45d2-4147-8fec-64a22a5ac822.jpg\"]","trial_type":"similarity","trial_index":63,"time_elapsed":432408,"internal_node_id":"0.0-6.0-57.0"},{"sim_score":5,"rt":5444,"stimulus":"[\"img/0875/5a7c4e35-6514-4e12-8879-d16071da4cd6.jpg\",\"img/0881/19e82c47-8e4b-45d2-a6c8-74181eb4155e.jpg\"]","trial_type":"similarity","trial_index":64,"time_elapsed":438859,"internal_node_id":"0.0-6.0-58.0"},{"sim_score":5,"rt":4749,"stimulus":"[\"img/0866/d493a2c8-66eb-44b4-be02-2f327b700b7c.jpg\",\"img/0860/94ef7afc-e0e6-4a15-98c6-0bfac82bc832.jpg\"]","trial_type":"similarity","trial_index":65,"time_elapsed":444616,"internal_node_id":"0.0-6.0-59.0"},{"sim_score":3,"rt":4904,"stimulus":"[\"img/0903/4cbdc464-e562-4ec2-9bb6-15f894fdf528.jpg\",\"img/0866/6f2a90d7-14f1-4f1b-bd64-fc0af6b9fe44.jpg\"]","trial_type":"similarity","trial_index":66,"time_elapsed":450538,"internal_node_id":"0.0-6.0-60.0"},{"sim_score":4,"rt":5206,"stimulus":"[\"img/0860/e14d67c1-6d92-4f1e-9257-c8607159c19c.jpg\",\"img/0875/03c3c331-738b-4446-af92-3d7386b08c2e.jpg\"]","trial_type":"similarity","trial_index":67,"time_elapsed":456755,"internal_node_id":"0.0-6.0-61.0"},{"sim_score":3,"rt":4366,"stimulus":"[\"img/0898/661621d4-a14e-487c-8c74-354134a29710.jpg\",\"img/0862/5d887e9f-89e2-4ebc-80a0-6d46fe6480db.jpg\"]","trial_type":"similarity","trial_index":68,"time_elapsed":462138,"internal_node_id":"0.0-6.0-62.0"},{"sim_score":7,"rt":7460,"stimulus":"[\"img/0902/a6fb6dd5-696c-47ec-be7d-d7b88f1544f1.jpg\",\"img/0766/d3bab2fc-ddcc-40a0-bb72-c0d0ebe19978.jpg\"]","trial_type":"similarity","trial_index":69,"time_elapsed":470611,"internal_node_id":"0.0-6.0-63.0"},{"sim_score":4,"rt":5563,"stimulus":"[\"img/0758/a709631e-3705-4725-ac40-f0d916924f08.jpg\",\"img/0864/9b2490c5-a282-400a-9736-e1a0ecbf1cb7.jpg\"]","trial_type":"similarity","trial_index":70,"time_elapsed":477184,"internal_node_id":"0.0-6.0-64.0"},{"sim_score":7,"rt":4824,"stimulus":"[\"img/0894/8cadb87a-7001-4e47-99fb-1867bebf1668.jpg\",\"img/0860/8fdba999-b946-4c7d-9891-336018b563ef.jpg\"]","trial_type":"similarity","trial_index":71,"time_elapsed":483014,"internal_node_id":"0.0-6.0-65.0"},{"sim_score":4,"rt":5939,"stimulus":"[\"img/0899/56a605c3-d0a2-4215-89e1-779279d85a7c.jpg\",\"img/0868/15dd6fd7-791e-4b53-b203-195d617521a4.jpg\"]","trial_type":"similarity","trial_index":72,"time_elapsed":489960,"internal_node_id":"0.0-6.0-66.0"},{"sim_score":3,"rt":7795,"stimulus":"[\"img/0866/11a1d141-be5e-443c-98c1-a9d4d9e3dec0.jpg\",\"img/0862/ad593cc7-cabe-4bb7-8e14-8a447a0717b4.jpg\"]","trial_type":"similarity","trial_index":73,"time_elapsed":498759,"internal_node_id":"0.0-6.0-67.0"},{"sim_score":5,"rt":6717,"stimulus":"[\"img/0860/d9a0d117-6d1d-41c0-8fec-9aff0fd9e9f2.jpg\",\"img/0758/7ffbc76b-1fc1-432c-8f7e-9ec8d1b3f643.jpg\"]","trial_type":"similarity","trial_index":74,"time_elapsed":506491,"internal_node_id":"0.0-6.0-68.0"},{"sim_score":1,"rt":4531,"stimulus":"[\"img/0902/3f0eeac5-c996-4026-a376-563ce8f28521.jpg\",\"img/0867/a498eef3-9fa4-4ab2-9778-4ae82ac40dc5.jpg\"]","trial_type":"similarity","trial_index":75,"time_elapsed":512035,"internal_node_id":"0.0-6.0-69.0"},{"sim_score":4,"rt":4686,"stimulus":"[\"img/0862/f43ceabf-acc1-4107-b857-5d1849808f93.jpg\",\"img/0901/5b97abf9-f0c8-4fd1-b921-36d574779078.jpg\"]","trial_type":"similarity","trial_index":76,"time_elapsed":517739,"internal_node_id":"0.0-6.0-70.0"},{"sim_score":7,"rt":8682,"stimulus":"[\"img/0867/85a96c62-548f-4994-9553-819e03c3135a.jpg\",\"img/0866/c446214b-a368-4c65-ae39-ea46894256ab.jpg\"]","trial_type":"similarity","trial_index":77,"time_elapsed":527436,"internal_node_id":"0.0-6.0-71.0"},{"sim_score":5,"rt":6964,"stimulus":"[\"img/0860/99c589b9-9140-4d17-90c0-b344323edcda.jpg\",\"img/0904/9d30eff1-46ef-4453-b11e-124ef8145c00.jpg\"]","trial_type":"similarity","trial_index":78,"time_elapsed":535413,"internal_node_id":"0.0-6.0-72.0"},{"sim_score":1,"rt":3785,"stimulus":"[\"img/0875/dbdd643e-6d0e-4a5c-ab57-b9c29b9c981a.jpg\",\"img/0899/8de08897-b430-42fe-9d42-840670b80f94.jpg\"]","trial_type":"similarity","trial_index":79,"time_elapsed":540205,"internal_node_id":"0.0-6.0-73.0"},{"sim_score":2,"rt":5728,"stimulus":"[\"img/0899/f95cbdb4-f804-4f5d-ad76-373ad343e658.jpg\",\"img/0758/f61ecdf8-a7d4-4db0-b84d-be46f7cfaffc.jpg\"]","trial_type":"similarity","trial_index":80,"time_elapsed":546945,"internal_node_id":"0.0-6.0-74.0"},{"sim_score":7,"rt":7004,"stimulus":"[\"img/0862/d0ca4c78-fc35-46ed-bdcc-8e124283c53e.jpg\",\"img/0875/fb732ab5-013a-4366-9f65-27811ed157e9.jpg\"]","trial_type":"similarity","trial_index":81,"time_elapsed":560007,"internal_node_id":"0.0-6.0-75.0"},{"sim_score":5,"rt":4921,"stimulus":"[\"img/0901/a373612d-67e2-4fec-9764-21d3d6ef6359.jpg\",\"img/0894/6b2e9509-8699-42b7-9582-7741df0ba2d7.jpg\"]","trial_type":"similarity","trial_index":82,"time_elapsed":565939,"internal_node_id":"0.0-6.0-76.0"},{"sim_score":3,"rt":5763,"stimulus":"[\"img/0766/f3276cc4-65de-4c2d-88d5-6cfebce14b8f.jpg\",\"img/0758/335851a0-a55b-46d8-ab05-8463eda48349.jpg\"]","trial_type":"similarity","trial_index":83,"time_elapsed":572718,"internal_node_id":"0.0-6.0-77.0"},{"sim_score":6,"rt":8035,"stimulus":"[\"img/0894/c505c65a-cde2-4f2c-8cde-f8676f7c894d.jpg\",\"img/0764/1f95ab5f-fb65-4d70-b5db-d6bd6351a8aa.jpg\"]","trial_type":"similarity","trial_index":84,"time_elapsed":581767,"internal_node_id":"0.0-6.0-78.0"},{"sim_score":3,"rt":5470,"stimulus":"[\"img/0860/87039971-2210-4aab-93c0-8e9b5f1655b2.jpg\",\"img/0867/179ab87a-8eac-4c52-a41f-2e48e3120f09.jpg\"]","trial_type":"similarity","trial_index":85,"time_elapsed":588256,"internal_node_id":"0.0-6.0-79.0"},{"sim_score":3,"rt":5846,"stimulus":"[\"img/0898/4184e5a2-84ea-4f36-9b42-ae58646f6f87.jpg\",\"img/0901/148b747a-7392-437e-8823-33053c5dff3f.jpg\"]","trial_type":"similarity","trial_index":86,"time_elapsed":595109,"internal_node_id":"0.0-6.0-80.0"},{"sim_score":4,"rt":5297,"stimulus":"[\"img/0874/c0378dac-9370-439a-8b79-db27c96fb390.jpg\",\"img/0764/21e3292f-01ad-4238-828b-61b817857d16.jpg\"]","trial_type":"similarity","trial_index":87,"time_elapsed":601419,"internal_node_id":"0.0-6.0-81.0"},{"sim_score":3,"rt":4287,"stimulus":"[\"img/0899/66ab3178-c3fe-4455-ad17-d5952b08e018.jpg\",\"img/0862/7918ca67-5bd3-4606-a5ea-c39fb11a9297.jpg\"]","trial_type":"similarity","trial_index":88,"time_elapsed":606726,"internal_node_id":"0.0-6.0-82.0"},{"sim_score":3,"rt":4705,"stimulus":"[\"img/0766/1865bfc9-2410-4765-a804-3ae4ba2393d0.jpg\",\"img/0901/4ca4f962-40c0-4c59-b14a-3cd7b8c9029b.jpg\"]","trial_type":"similarity","trial_index":89,"time_elapsed":612435,"internal_node_id":"0.0-6.0-83.0"},{"sim_score":1,"rt":3871,"stimulus":"[\"img/0881/f62bdcd1-a4b7-4d48-83da-d9c9e01c8727.jpg\",\"img/0898/40f99fb2-64d2-4e72-8a7f-a1cf60741e69.jpg\"]","trial_type":"similarity","trial_index":90,"time_elapsed":617327,"internal_node_id":"0.0-6.0-84.0"},{"sim_score":5,"rt":4782,"stimulus":"[\"img/0868/d6d1f30d-4323-435a-b194-7892521bc57e.jpg\",\"img/0860/702bd09d-df3a-40aa-a267-5f04474305b5.jpg\"]","trial_type":"similarity","trial_index":91,"time_elapsed":623118,"internal_node_id":"0.0-6.0-85.0"},{"sim_score":2,"rt":4964,"stimulus":"[\"img/0758/dd559618-7f09-4a07-8018-d311c4a5ea29.jpg\",\"img/0868/0d3abd3a-b6c3-4584-a9f7-e2da63748b3d.jpg\"]","trial_type":"similarity","trial_index":92,"time_elapsed":629099,"internal_node_id":"0.0-6.0-86.0"},{"sim_score":1,"rt":3645,"stimulus":"[\"img/0864/6e846d43-94a6-4b37-a268-65eda979f052.jpg\",\"img/0894/b422d5c6-3c5a-49ae-a53e-7e88ac993f49.jpg\"]","trial_type":"similarity","trial_index":93,"time_elapsed":633759,"internal_node_id":"0.0-6.0-87.0"},{"sim_score":1,"rt":6145,"stimulus":"[\"img/0866/bf14b5bd-fb55-47db-86b9-4f8aeb9a6dad.jpg\",\"img/0902/51493fab-2a10-4385-aa88-bee3db441626.jpg\"]","trial_type":"similarity","trial_index":94,"time_elapsed":640917,"internal_node_id":"0.0-6.0-88.0"},{"sim_score":3,"rt":4268,"stimulus":"[\"img/0769/11518cb3-13ea-4dd0-890c-30cfab728ade.jpg\",\"img/0867/f8488a47-94ee-4166-952c-44e16cf172f6.jpg\"]","trial_type":"similarity","trial_index":95,"time_elapsed":646203,"internal_node_id":"0.0-6.0-89.0"},{"sim_score":5,"rt":6288,"stimulus":"[\"img/0874/a82926a3-0b43-4add-803c-d5f9ea7798ee.jpg\",\"img/0875/5a1e5100-0d94-4fec-bbe9-ca9894d2cf8e.jpg\"]","trial_type":"similarity","trial_index":96,"time_elapsed":653503,"internal_node_id":"0.0-6.0-90.0"},{"sim_score":5,"rt":4663,"stimulus":"[\"img/0864/e8bd659f-aa43-4748-877e-3118e8b4e189.jpg\",\"img/0874/ca76a855-4e77-4f2f-872a-0a718153e7ed.jpg\"]","trial_type":"similarity","trial_index":97,"time_elapsed":659178,"internal_node_id":"0.0-6.0-91.0"},{"sim_score":5,"rt":4611,"stimulus":"[\"img/0881/54ea8e77-c7e5-4197-b7fa-00b7020849a7.jpg\",\"img/0862/fad1d7c1-8187-43c3-942a-0fc12183e48e.jpg\"]","trial_type":"similarity","trial_index":98,"time_elapsed":664795,"internal_node_id":"0.0-6.0-92.0"},{"sim_score":7,"rt":5653,"stimulus":"[\"img/0864/300bb811-8b3c-4c42-8653-6097c3725197.jpg\",\"img/0881/7e822106-76f7-4b10-a805-14dc68b2cfaf.jpg\"]","trial_type":"similarity","trial_index":99,"time_elapsed":671457,"internal_node_id":"0.0-6.0-93.0"},{"sim_score":5,"rt":3738,"stimulus":"[\"img/0899/51a7a498-98c7-42d7-bca8-bc2d8f0b5831.jpg\",\"img/0901/4f9cffe0-c0be-4d7f-bacd-9d51efd19b4a.jpg\"]","trial_type":"similarity","trial_index":100,"time_elapsed":676203,"internal_node_id":"0.0-6.0-94.0"},{"sim_score":3,"rt":6878,"stimulus":"[\"img/0874/93d1f8dc-acf2-4f03-bd8d-8ec35df276ed.jpg\",\"img/0766/79767d11-b612-4e8a-9e4b-a8ac95bb6a54.jpg\"]","trial_type":"similarity","trial_index":101,"time_elapsed":684097,"internal_node_id":"0.0-6.0-95.0"},{"sim_score":4,"rt":5905,"stimulus":"[\"img/0881/44e09805-5a25-4f17-a716-4ad4a331b174.jpg\",\"img/0899/4408c14d-c168-4a7d-96f6-bc87bfb58f83.jpg\"]","trial_type":"similarity","trial_index":102,"time_elapsed":691013,"internal_node_id":"0.0-6.0-96.0"},{"sim_score":5,"rt":5907,"stimulus":"[\"img/0862/24cdc752-c2e5-4a17-86a6-6f2045d8553b.jpg\",\"img/0902/30c420f5-c714-4681-ae5a-c0ba8f636a26.jpg\"]","trial_type":"similarity","trial_index":103,"time_elapsed":697928,"internal_node_id":"0.0-6.0-97.0"},{"sim_score":7,"rt":5850,"stimulus":"[\"img/0899/565ccdd9-0933-4536-a625-3c0e25a713dd.jpg\",\"img/0764/8389e74f-e0e0-435d-945f-da1f4c92ccb6.jpg\"]","trial_type":"similarity","trial_index":104,"time_elapsed":704793,"internal_node_id":"0.0-6.0-98.0"},{"sim_score":5,"rt":4865,"stimulus":"[\"img/0758/d57c2592-a317-4f63-91be-91a3a9afd222.jpg\",\"img/0862/ee3b7bff-4a70-4e84-9bea-4a565e456acb.jpg\"]","trial_type":"similarity","trial_index":105,"time_elapsed":710673,"internal_node_id":"0.0-6.0-99.0"},{"sim_score":5,"rt":3877,"stimulus":"[\"img/0764/ca9829fe-aaf8-45b8-b98a-6bae751c63dd.jpg\",\"img/0898/a8f16b02-e19f-423b-86c3-a36562ae1f9b.jpg\"]","trial_type":"similarity","trial_index":106,"time_elapsed":715573,"internal_node_id":"0.0-6.0-100.0"},{"sim_score":5,"rt":4940,"stimulus":"[\"img/0901/50e1d53e-a49f-4806-8610-be6dec5a2475.jpg\",\"img/0902/d3e55000-c839-4bf9-9b9b-4af0a9925af1.jpg\"]","trial_type":"similarity","trial_index":107,"time_elapsed":721533,"internal_node_id":"0.0-6.0-101.0"},{"sim_score":1,"rt":3468,"stimulus":"[\"img/0764/ba0c0955-acbb-457d-b1c2-f006b88121d5.jpg\",\"img/0868/83b4350a-3b70-4cea-b7f5-b5b56f3050a8.jpg\"]","trial_type":"similarity","trial_index":108,"time_elapsed":726009,"internal_node_id":"0.0-6.0-102.0"},{"sim_score":3,"rt":4825,"stimulus":"[\"img/0769/aad494cc-674d-4a08-9bfa-24a88ebe3c79.jpg\",\"img/0881/f4e3e181-b3c9-4af2-a5a4-fc135ab70d2e.jpg\"]","trial_type":"similarity","trial_index":109,"time_elapsed":731845,"internal_node_id":"0.0-6.0-103.0"},{"sim_score":3,"rt":5248,"stimulus":"[\"img/0864/c3b63e8f-ea39-4d70-a1f2-b3fe4be8eb75.jpg\",\"img/0769/9ea27d61-3d55-418c-8d14-82e90f656f01.jpg\"]","trial_type":"similarity","trial_index":110,"time_elapsed":738104,"internal_node_id":"0.0-6.0-104.0"},{"sim_score":3,"rt":6847,"stimulus":"[\"img/0866/02f5e6b9-52b7-448c-9708-5b460d0c9a23.jpg\",\"img/0868/179a5502-ab5c-478e-8263-5a1fbcc101d2.jpg\"]","trial_type":"similarity","trial_index":111,"time_elapsed":745967,"internal_node_id":"0.0-6.0-105.0"},{"sim_score":4,"rt":4930,"stimulus":"[\"img/0868/7b212364-ff5f-4e28-9241-7eb6ea00161b.jpg\",\"img/0862/064818ee-13d5-4618-bb24-21c7368ea278.jpg\"]","trial_type":"similarity","trial_index":112,"time_elapsed":751905,"internal_node_id":"0.0-6.0-106.0"},{"sim_score":3,"rt":5534,"stimulus":"[\"img/0766/d512b99c-a2dc-40d7-8e86-827323a0cbcf.jpg\",\"img/0898/08c72dac-f8ad-407a-9ce6-8c9a5d679c3a.jpg\"]","trial_type":"similarity","trial_index":113,"time_elapsed":758451,"internal_node_id":"0.0-6.0-107.0"},{"sim_score":3,"rt":5422,"stimulus":"[\"img/0898/01bfe666-3510-4fc7-964f-d00d28732dc8.jpg\",\"img/0864/0f537697-a314-47c3-a8cc-8df23b7e536c.jpg\"]","trial_type":"similarity","trial_index":114,"time_elapsed":764890,"internal_node_id":"0.0-6.0-108.0"},{"sim_score":3,"rt":4568,"stimulus":"[\"img/0868/4e626425-63c8-484a-8a1d-e66ee4e0bef8.jpg\",\"img/0902/7499db23-3a41-41ea-ab5b-6ab4d4c3ed35.jpg\"]","trial_type":"similarity","trial_index":115,"time_elapsed":770470,"internal_node_id":"0.0-6.0-109.0"},{"sim_score":7,"rt":4711,"stimulus":"[\"img/0904/0d17b811-063e-416e-a23c-3b3cfa4fcce5.jpg\",\"img/0764/d7f3ac54-318a-4dac-a06b-62bed34d01a4.jpg\"]","trial_type":"similarity","trial_index":116,"time_elapsed":776198,"internal_node_id":"0.0-6.0-110.0"},{"sim_score":3,"rt":4638,"stimulus":"[\"img/0894/e2446cf5-cd48-486a-badc-76498e087fbe.jpg\",\"img/0875/a4935837-7d3c-4df6-88c1-36a94d4991ca.jpg\"]","trial_type":"similarity","trial_index":117,"time_elapsed":781852,"internal_node_id":"0.0-6.0-111.0"},{"sim_score":1,"rt":4616,"stimulus":"[\"img/0868/77091fc7-a590-4ebb-b915-fdb2483a2399.jpg\",\"img/0874/3ce41e7c-40c8-4d58-a546-171114521796.jpg\"]","trial_type":"similarity","trial_index":118,"time_elapsed":787482,"internal_node_id":"0.0-6.0-112.0"},{"sim_score":7,"rt":3428,"stimulus":"[\"img/0904/56e73f28-7e64-489b-a161-e6b1a063878d.jpg\",\"img/0898/cd3aaa3f-efa9-4ab3-8d6f-a6a9273ddf42.jpg\"]","trial_type":"similarity","trial_index":119,"time_elapsed":796958,"internal_node_id":"0.0-6.0-113.0"},{"sim_score":3,"rt":5211,"stimulus":"[\"img/0860/f44ba3fb-03a2-42f0-8509-2c1ded493086.jpg\",\"img/0766/f011ef45-fb48-44b8-8224-867ed2ccf786.jpg\"]","trial_type":"similarity","trial_index":120,"time_elapsed":803174,"internal_node_id":"0.0-6.0-114.0"},{"sim_score":1,"rt":3910,"stimulus":"[\"img/0894/9b1333fd-3561-43bf-aee5-99b7b7ca3dc3.jpg\",\"img/0874/1016b306-087c-4afc-aa08-fa527b28dc76.jpg\"]","trial_type":"similarity","trial_index":121,"time_elapsed":808092,"internal_node_id":"0.0-6.0-115.0"},{"sim_score":5,"rt":4312,"stimulus":"[\"img/0899/a05bea16-2bb4-4cb9-b8fb-4ff975db6971.jpg\",\"img/0903/31b5a5f4-b695-4af1-bad2-a19650a05498.jpg\"]","trial_type":"similarity","trial_index":122,"time_elapsed":813412,"internal_node_id":"0.0-6.0-116.0"},{"sim_score":4,"rt":4680,"stimulus":"[\"img/0881/b1a136f7-8511-4d3a-a0f6-3879acf1e1a1.jpg\",\"img/0764/6ef77040-1fae-4afa-bfe7-eda98e6d0376.jpg\"]","trial_type":"similarity","trial_index":123,"time_elapsed":819100,"internal_node_id":"0.0-6.0-117.0"},{"sim_score":7,"rt":4017,"stimulus":"[\"img/0903/f1fa0f8d-e62b-4b4a-a174-31a0fabfe61b.jpg\",\"img/0769/db94b61b-a5a7-4861-9d32-7b02ad194fb0.jpg\"]","trial_type":"similarity","trial_index":124,"time_elapsed":824137,"internal_node_id":"0.0-6.0-118.0"},{"sim_score":5,"rt":3898,"stimulus":"[\"img/0901/3db47171-0139-4235-82cd-0b1787b6775f.jpg\",\"img/0904/25365108-e038-4021-aac9-797f2063b337.jpg\"]","trial_type":"similarity","trial_index":125,"time_elapsed":829054,"internal_node_id":"0.0-6.0-119.0"},{"sim_score":1,"rt":3544,"stimulus":"[\"img/0860/8277806e-b684-4474-8f7b-3fca946d7d4f.jpg\",\"img/0881/ee44e27f-d662-4608-b265-e7ffa19b216f.jpg\"]","trial_type":"similarity","trial_index":126,"time_elapsed":833603,"internal_node_id":"0.0-6.0-120.0"},{"sim_score":7,"rt":4728,"stimulus":"[\"img/0758/e1ba5e53-addc-436a-b428-d34fc1b130dc.jpg\",\"img/0874/99f6563c-8a8d-4c1c-a41d-667b618c3fd5.jpg\"]","trial_type":"similarity","trial_index":127,"time_elapsed":839342,"internal_node_id":"0.0-6.0-121.0"},{"sim_score":4,"rt":4393,"stimulus":"[\"img/0901/58978a6d-a3e2-4c59-8d62-f60693ecc0f6.jpg\",\"img/0769/057eb0a0-aa5b-40c7-9852-21444f68d767.jpg\"]","trial_type":"similarity","trial_index":128,"time_elapsed":844740,"internal_node_id":"0.0-6.0-122.0"},{"sim_score":5,"rt":4561,"stimulus":"[\"img/0902/6730b12a-f0a7-4587-8c10-a32fae16565b.jpg\",\"img/0904/a8c3c7d2-9bcf-4347-9e03-8203adfc1fc5.jpg\"]","trial_type":"similarity","trial_index":129,"time_elapsed":850312,"internal_node_id":"0.0-6.0-123.0"},{"sim_score":1,"rt":3914,"stimulus":"[\"img/0899/ad8268c5-8199-48d0-ad70-c5b6d6c599ec.jpg\",\"img/0864/afcba0a3-7e27-4757-b254-e9f05fad27e2.jpg\"]","trial_type":"similarity","trial_index":130,"time_elapsed":855246,"internal_node_id":"0.0-6.0-124.0"},{"sim_score":3,"rt":3240,"stimulus":"[\"img/0766/aaec5f42-7f0a-4a16-aeca-488d757acbcc.jpg\",\"img/0868/5fa7f9d0-f0e5-454c-8224-74d964818f56.jpg\"]","trial_type":"similarity","trial_index":131,"time_elapsed":859493,"internal_node_id":"0.0-6.0-125.0"},{"sim_score":4,"rt":3146,"stimulus":"[\"img/0764/e0788029-9d7f-414c-b747-46d2a99f7c86.jpg\",\"img/0864/a248adb3-c70b-4652-b7a3-776d2a1e904b.jpg\"]","trial_type":"similarity","trial_index":132,"time_elapsed":863650,"internal_node_id":"0.0-6.0-126.0"},{"sim_score":2,"rt":3475,"stimulus":"[\"img/0899/a048912c-b12c-40e3-90af-46b69b0cc4fe.jpg\",\"img/0866/386235d2-6857-41e7-88a8-25cfc3430025.jpg\"]","trial_type":"similarity","trial_index":133,"time_elapsed":868132,"internal_node_id":"0.0-6.0-127.0"},{"sim_score":1,"rt":2991,"stimulus":"[\"img/0901/58ec7fa9-b466-4651-90aa-c082df0972de.jpg\",\"img/0881/566f45f8-5fed-4479-a60f-26377e60a62d.jpg\"]","trial_type":"similarity","trial_index":134,"time_elapsed":872142,"internal_node_id":"0.0-6.0-128.0"},{"sim_score":7,"rt":3874,"stimulus":"[\"img/0898/224c1572-56b9-4f16-a9e4-6f3bc9c114bd.jpg\",\"img/0903/36e4ab1f-caa9-40b3-8616-faada076df94.jpg\"]","trial_type":"similarity","trial_index":135,"time_elapsed":877028,"internal_node_id":"0.0-6.0-129.0"},{"sim_score":4,"rt":4299,"stimulus":"[\"img/0894/767a0eec-1064-46b1-b1aa-dfa02b0cd74e.jpg\",\"img/0867/c71dc569-f49c-4397-8381-68b8d726736d.jpg\"]","trial_type":"similarity","trial_index":136,"time_elapsed":882333,"internal_node_id":"0.0-6.0-130.0"},{"sim_score":3,"rt":3806,"stimulus":"[\"img/0874/3f471690-9788-4d03-90c7-f615aecef149.jpg\",\"img/0903/97a42b34-5462-4665-88c7-83c014b33d24.jpg\"]","trial_type":"similarity","trial_index":137,"time_elapsed":887149,"internal_node_id":"0.0-6.0-131.0"},{"sim_score":7,"rt":7384,"stimulus":"[\"img/0899/5b56dd3e-3f49-47cc-af84-16da6457753b.jpg\",\"img/0898/26c41340-15bd-4ead-8fe4-c0d0ddca09c2.jpg\"]","trial_type":"similarity","trial_index":138,"time_elapsed":895549,"internal_node_id":"0.0-6.0-132.0"},{"sim_score":4,"rt":3498,"stimulus":"[\"img/0867/bf560d4f-dee3-4f11-a385-705cc1aa5f3c.jpg\",\"img/0764/ec2dd087-c471-4370-b570-95a542506a96.jpg\"]","trial_type":"similarity","trial_index":139,"time_elapsed":900052,"internal_node_id":"0.0-6.0-133.0"},{"sim_score":3,"rt":3019,"stimulus":"[\"img/0866/d266fece-59b3-46fa-b69f-96f6efb81b59.jpg\",\"img/0769/b664b502-a86c-46c1-ad6f-5ebffc2e1bd3.jpg\"]","trial_type":"similarity","trial_index":140,"time_elapsed":904078,"internal_node_id":"0.0-6.0-134.0"},{"sim_score":4,"rt":4246,"stimulus":"[\"img/0860/c47fdead-eb02-4989-b078-26f4852f44fe.jpg\",\"img/0898/b3290bf9-215b-4b45-b21a-65bdf73f142f.jpg\"]","trial_type":"similarity","trial_index":141,"time_elapsed":909344,"internal_node_id":"0.0-6.0-135.0"},{"sim_score":1,"rt":4061,"stimulus":"[\"img/0881/292e9b4b-fca0-4ba8-87f1-4048f9e37b7d.jpg\",\"img/0903/150cf64c-0bd2-4674-abbb-a1387cf1f3e9.jpg\"]","trial_type":"similarity","trial_index":142,"time_elapsed":914412,"internal_node_id":"0.0-6.0-136.0"},{"sim_score":5,"rt":3642,"stimulus":"[\"img/0894/a3d4170b-b7d8-40e3-955f-87e76ed745fc.jpg\",\"img/0766/60033a74-9919-47e5-913c-71d0d483e7e5.jpg\"]","trial_type":"similarity","trial_index":143,"time_elapsed":919062,"internal_node_id":"0.0-6.0-137.0"},{"sim_score":3,"rt":4928,"stimulus":"[\"img/0860/18dfed73-e36b-4487-a8bd-0b8cff8e3668.jpg\",\"img/0764/50f1b062-d608-4bc0-ab25-b872dcf2ed93.jpg\"]","trial_type":"similarity","trial_index":144,"time_elapsed":924996,"internal_node_id":"0.0-6.0-138.0"},{"sim_score":7,"rt":8328,"stimulus":"[\"img/0769/e8ed913b-8a88-44f6-9327-d34afec3116b.jpg\",\"img/0902/c018bd7a-d91a-4192-aea4-7259cfcdb6c4.jpg\"]","trial_type":"similarity","trial_index":145,"time_elapsed":934342,"internal_node_id":"0.0-6.0-139.0"},{"sim_score":7,"rt":3732,"stimulus":"[\"img/0904/65e2b70a-b184-4da3-b5c0-5038bdf9469a.jpg\",\"img/0903/e2e55a9e-0397-4dc0-8adf-4a54cfefe1fe.jpg\"]","trial_type":"similarity","trial_index":146,"time_elapsed":939091,"internal_node_id":"0.0-6.0-140.0"},{"sim_score":7,"rt":4812,"stimulus":"[\"img/0764/f713847b-4832-42d1-8fb3-e17e37fd745c.jpg\",\"img/0769/a1ce8d07-ba37-40de-bade-2778805521e0.jpg\"]","trial_type":"similarity","trial_index":147,"time_elapsed":944914,"internal_node_id":"0.0-6.0-141.0"},{"sim_score":3,"rt":4556,"stimulus":"[\"img/0902/0c760cc9-10ac-429e-8957-a7d51fc99683.jpg\",\"img/0881/c24f3051-eefa-42de-aba6-fccb56d93c70.jpg\"]","trial_type":"similarity","trial_index":148,"time_elapsed":950482,"internal_node_id":"0.0-6.0-142.0"},{"sim_score":1,"rt":3297,"stimulus":"[\"img/0866/9b38d691-1802-4959-ab3f-fc902f0e4ea6.jpg\",\"img/0864/1ebbc554-99fa-49f9-8799-317375a79820.jpg\"]","trial_type":"similarity","trial_index":149,"time_elapsed":954794,"internal_node_id":"0.0-6.0-143.0"},{"sim_score":7,"rt":4752,"stimulus":"[\"img/0902/d2c34af0-8c50-437d-8cc3-619195a3e8ba.jpg\",\"img/0898/82231d4c-218b-4d0a-b50d-35a49b524e97.jpg\"]","trial_type":"similarity","trial_index":150,"time_elapsed":960562,"internal_node_id":"0.0-6.0-144.0"},{"sim_score":5,"rt":5189,"stimulus":"[\"img/0862/53a9cf7c-93c4-41b9-952f-07d17f7a17b2.jpg\",\"img/0864/8ddd2e30-a1d0-479f-9cbe-591213023893.jpg\"]","trial_type":"similarity","trial_index":151,"time_elapsed":966756,"internal_node_id":"0.0-6.0-145.0"},{"sim_score":1,"rt":3451,"stimulus":"[\"img/0875/5a716432-c6ca-4b1c-955a-2b8ac25198ee.jpg\",\"img/0898/e167334e-cc1d-4986-b3b1-c7bc7da64baa.jpg\"]","trial_type":"similarity","trial_index":152,"time_elapsed":971220,"internal_node_id":"0.0-6.0-146.0"},{"sim_score":5,"rt":5898,"stimulus":"[\"img/0874/2c9464dd-8a23-4baa-ac94-1ba3af5c15cc.jpg\",\"img/0881/ed4c971f-0873-4fc8-b6d6-e8bbd82f0bcc.jpg\"]","trial_type":"similarity","trial_index":153,"time_elapsed":978134,"internal_node_id":"0.0-6.0-147.0"},{"sim_score":2,"rt":4569,"stimulus":"[\"img/0758/d41c06bf-ebaf-454b-91c6-1a17f917b659.jpg\",\"img/0894/133a1636-d123-4893-873c-1718050f832a.jpg\"]","trial_type":"similarity","trial_index":154,"time_elapsed":983708,"internal_node_id":"0.0-6.0-148.0"},{"sim_score":1,"rt":3707,"stimulus":"[\"img/0904/0d25eb24-bb20-4e8d-9787-8b489558b4cb.jpg\",\"img/0864/ef9cbca0-4be8-435d-ad49-977259e80409.jpg\"]","trial_type":"similarity","trial_index":155,"time_elapsed":988424,"internal_node_id":"0.0-6.0-149.0"},{"sim_score":4,"rt":4250,"stimulus":"[\"img/0769/180213e5-1e50-4b4e-87b6-add77ba04d39.jpg\",\"img/0899/fef567a2-c121-4481-9af0-ff108d199bbf.jpg\"]","trial_type":"similarity","trial_index":156,"time_elapsed":993684,"internal_node_id":"0.0-6.0-150.0"},{"sim_score":5,"rt":3844,"stimulus":"[\"img/0764/4eff630a-6426-4f8d-b2ba-b4d9842a0962.jpg\",\"img/0903/71dbc325-b588-4297-a5cf-7f268a722ad9.jpg\"]","trial_type":"similarity","trial_index":157,"time_elapsed":1002267,"internal_node_id":"0.0-6.0-151.0"},{"sim_score":3,"rt":3144,"stimulus":"[\"img/0903/2a9c8033-3e70-47fa-816d-97ee1813a3a3.jpg\",\"img/0864/c22faebd-9c53-47bc-ada3-b9a30c688e75.jpg\"]","trial_type":"similarity","trial_index":158,"time_elapsed":1006426,"internal_node_id":"0.0-6.0-152.0"},{"sim_score":4,"rt":5803,"stimulus":"[\"img/0894/bd34223a-2f66-4e16-9d18-193a746b69ff.jpg\",\"img/0881/d1982897-8d8d-4704-a940-1ee5d07a1f15.jpg\"]","trial_type":"similarity","trial_index":159,"time_elapsed":1013240,"internal_node_id":"0.0-6.0-153.0"},{"sim_score":7,"rt":3266,"stimulus":"[\"img/0875/527ced51-8e53-4aab-ab05-86df219104c0.jpg\",\"img/0867/1719a35d-f085-48c0-9099-16c94fe418b4.jpg\"]","trial_type":"similarity","trial_index":160,"time_elapsed":1017522,"internal_node_id":"0.0-6.0-154.0"},{"sim_score":4,"rt":4701,"stimulus":"[\"img/0867/075e0f95-856b-4cbb-acf5-092393aaf04e.jpg\",\"img/0758/caa93da2-9edf-49fa-96b9-32dedd8f5078.jpg\"]","trial_type":"similarity","trial_index":161,"time_elapsed":1023239,"internal_node_id":"0.0-6.0-155.0"},{"sim_score":5,"rt":6257,"stimulus":"[\"img/0868/293079b8-7e0c-4afd-a390-1e5d35fe3ded.jpg\",\"img/0901/2a953e50-d237-405c-a38d-5ed21494c968.jpg\"]","trial_type":"similarity","trial_index":162,"time_elapsed":1030504,"internal_node_id":"0.0-6.0-156.0"},{"sim_score":7,"rt":5845,"stimulus":"[\"img/0769/9ea9ceb6-049e-4ad9-be8f-00645cd35803.jpg\",\"img/0894/5ff3c4f6-52e2-4075-8679-be0312e59703.jpg\"]","trial_type":"similarity","trial_index":163,"time_elapsed":1037354,"internal_node_id":"0.0-6.0-157.0"},{"sim_score":1,"rt":5407,"stimulus":"[\"img/0904/696ebb60-8891-417a-91fd-c53218907a95.jpg\",\"img/0758/61d64021-9214-4951-bdf8-f871f9827cf9.jpg\"]","trial_type":"similarity","trial_index":164,"time_elapsed":1043781,"internal_node_id":"0.0-6.0-158.0"},{"sim_score":1,"rt":3073,"stimulus":"[\"img/0874/8cdb1c07-1c32-46d2-981c-3636560fa6e5.jpg\",\"img/0904/9b3568cc-3cf7-42be-9df3-fdafde7a58b8.jpg\"]","trial_type":"similarity","trial_index":165,"time_elapsed":1047870,"internal_node_id":"0.0-6.0-159.0"},{"sim_score":1,"rt":4035,"stimulus":"[\"img/0864/3651d070-2fc5-4848-b6a6-088a2d9ac5c9.jpg\",\"img/0901/7d4a3388-488d-4e9b-9d32-9d0def7aae8d.jpg\"]","trial_type":"similarity","trial_index":166,"time_elapsed":1052924,"internal_node_id":"0.0-6.0-160.0"},{"sim_score":3,"rt":3239,"stimulus":"[\"img/0898/a114b375-cb89-44ba-9498-74213f1ecdee.jpg\",\"img/0866/4a87911a-d5be-4d4e-ab8e-3d1f581bf507.jpg\"]","trial_type":"similarity","trial_index":167,"time_elapsed":1057176,"internal_node_id":"0.0-6.0-161.0"},{"sim_score":6,"rt":4193,"stimulus":"[\"img/0766/27f54113-8561-4568-9ffe-0a1650ae65ec.jpg\",\"img/0903/bf0a7d60-eca5-44b0-bafd-baf21db9904b.jpg\"]","trial_type":"similarity","trial_index":168,"time_elapsed":1062376,"internal_node_id":"0.0-6.0-162.0"},{"sim_score":4,"rt":5432,"stimulus":"[\"img/0860/c5ccd1a4-4bb7-48e1-9b25-72cfaf06909b.jpg\",\"img/0899/ddf96ade-692e-4602-bd22-dedbb46401bc.jpg\"]","trial_type":"similarity","trial_index":169,"time_elapsed":1068828,"internal_node_id":"0.0-6.0-163.0"},{"sim_score":2,"rt":3417,"stimulus":"[\"img/0766/69e486f7-dbef-456b-9d48-53d814248a28.jpg\",\"img/0862/e697469a-ec19-4414-b972-7b9f3564785b.jpg\"]","trial_type":"similarity","trial_index":170,"time_elapsed":1073256,"internal_node_id":"0.0-6.0-164.0"},{"sim_score":7,"rt":4252,"stimulus":"[\"img/0898/c3cecf20-f7fd-45fa-97d0-dc0a63e8d6c0.jpg\",\"img/0894/05161000-f476-499b-a878-c13c7f347fd9.jpg\"]","trial_type":"similarity","trial_index":171,"time_elapsed":1078528,"internal_node_id":"0.0-6.0-165.0"},{"sim_score":1,"rt":5665,"stimulus":"[\"img/0867/f26f6b60-f772-4f4c-95a4-addc62cfd692.jpg\",\"img/0766/c23b5a20-e50f-4d85-841f-cf89212a4348.jpg\"]","trial_type":"similarity","trial_index":172,"time_elapsed":1085212,"internal_node_id":"0.0-6.0-166.0"},{"sim_score":4,"rt":4867,"stimulus":"[\"img/0904/9dd5708f-3f8b-46a9-b49f-2f2fab87b357.jpg\",\"img/0862/47ed5efd-4ec9-4b74-bb4e-a5f5cf0c3e7d.jpg\"]","trial_type":"similarity","trial_index":173,"time_elapsed":1091084,"internal_node_id":"0.0-6.0-167.0"},{"sim_score":5,"rt":5297,"stimulus":"[\"img/0866/93a27239-8317-4e08-98ca-d8b1ff298e07.jpg\",\"img/0874/7e4f2150-3b59-4a36-b5da-a4e0ba410531.jpg\"]","trial_type":"similarity","trial_index":174,"time_elapsed":1097393,"internal_node_id":"0.0-6.0-168.0"},{"sim_score":3,"rt":4266,"stimulus":"[\"img/0903/6a87dbad-9b8d-4ff5-9c41-03c9aa24f0c3.jpg\",\"img/0868/fd307a36-9a3a-47d7-ab7c-f810d0b35040.jpg\"]","trial_type":"similarity","trial_index":175,"time_elapsed":1102674,"internal_node_id":"0.0-6.0-169.0"},{"sim_score":6,"rt":4840,"stimulus":"[\"img/0769/4a1d0b52-3fe8-40fb-bb1c-c814fe49a68c.jpg\",\"img/0904/fe746a3f-8458-48d0-8a13-8cba2a9df9f8.jpg\"]","trial_type":"similarity","trial_index":176,"time_elapsed":1108530,"internal_node_id":"0.0-6.0-170.0"},{"sim_score":5,"rt":4016,"stimulus":"[\"img/0875/d59ff733-eaff-4ee2-9443-06954dd0bcb6.jpg\",\"img/0764/7f4ee8e3-9315-4a57-be7d-db8454b33766.jpg\"]","trial_type":"similarity","trial_index":177,"time_elapsed":1113558,"internal_node_id":"0.0-6.0-171.0"},{"sim_score":4,"rt":5180,"stimulus":"[\"img/0860/e8b8c51e-1834-4875-8b61-6c5bc9b178bd.jpg\",\"img/0903/07b445ee-0cdb-4d2c-a23b-d727613f4059.jpg\"]","trial_type":"similarity","trial_index":178,"time_elapsed":1119748,"internal_node_id":"0.0-6.0-172.0"},{"sim_score":3,"rt":3297,"stimulus":"[\"img/0864/87c467d3-abca-482f-ad80-3766c21b1bb3.jpg\",\"img/0867/8ba0c5a7-c7e4-42cf-a80a-543763b90779.jpg\"]","trial_type":"similarity","trial_index":179,"time_elapsed":1124050,"internal_node_id":"0.0-6.0-173.0"},{"sim_score":2,"rt":3825,"stimulus":"[\"img/0868/8b0b8473-e2c0-4331-aa56-c3a5c29369da.jpg\",\"img/0864/4bd81bc6-c13d-46df-95a9-485886dc7c1b.jpg\"]","trial_type":"similarity","trial_index":180,"time_elapsed":1128895,"internal_node_id":"0.0-6.0-174.0"},{"sim_score":5,"rt":6058,"stimulus":"[\"img/0898/0af304a2-6a7a-4082-ab7c-4450cd08cc58.jpg\",\"img/0769/c7cfacc3-7f07-46ff-9f5d-8073f4c4679b.jpg\"]","trial_type":"similarity","trial_index":181,"time_elapsed":1135963,"internal_node_id":"0.0-6.0-175.0"},{"sim_score":7,"rt":4764,"stimulus":"[\"img/0766/fd74fdbb-ea40-4f3a-a091-38d08dfd636e.jpg\",\"img/0764/fb7d4a20-a475-465e-a74f-aa39a0d33d16.jpg\"]","trial_type":"similarity","trial_index":182,"time_elapsed":1141733,"internal_node_id":"0.0-6.0-176.0"},{"sim_score":1,"rt":3835,"stimulus":"[\"img/0764/952d7adc-dc40-4aee-acce-18c2a1d02ea1.jpg\",\"img/0866/8efcaa46-83ab-4dee-a35f-850402aa21ae.jpg\"]","trial_type":"similarity","trial_index":183,"time_elapsed":1146580,"internal_node_id":"0.0-6.0-177.0"},{"sim_score":1,"rt":3086,"stimulus":"[\"img/0902/8af4182a-9af9-4212-a436-9195555112d6.jpg\",\"img/0875/f87b67d7-c33e-40d1-b281-248c4be1cb6e.jpg\"]","trial_type":"similarity","trial_index":184,"time_elapsed":1150675,"internal_node_id":"0.0-6.0-178.0"},{"sim_score":3,"rt":4146,"stimulus":"[\"img/0881/609a5e93-38b5-4940-8627-2bf8fad7f802.jpg\",\"img/0904/4b8daf2a-13a9-4ea9-9e0b-b265b6e933e7.jpg\"]","trial_type":"similarity","trial_index":185,"time_elapsed":1155840,"internal_node_id":"0.0-6.0-179.0"},{"sim_score":1,"rt":4755,"stimulus":"[\"img/0874/ca23d307-fc00-4d7d-9106-584c6eb21b4d.jpg\",\"img/0860/29a21a9f-54bb-4093-ad3f-04823ceaa89f.jpg\"]","trial_type":"similarity","trial_index":186,"time_elapsed":1161609,"internal_node_id":"0.0-6.0-180.0"},{"sim_score":1,"rt":4041,"stimulus":"[\"img/0769/3c1efec9-f8fd-487d-8955-4be88e48c832.jpg\",\"img/0874/eba003b4-cdab-4eee-8bc3-f064c7d94165.jpg\"]","trial_type":"similarity","trial_index":187,"time_elapsed":1166663,"internal_node_id":"0.0-6.0-181.0"},{"sim_score":5,"rt":4915,"stimulus":"[\"img/0904/d23dd7be-7fe8-4435-82f7-bd592c01e6a1.jpg\",\"img/0766/535849cc-ff5d-4df9-8f31-0ce94a97d571.jpg\"]","trial_type":"similarity","trial_index":188,"time_elapsed":1172585,"internal_node_id":"0.0-6.0-182.0"},{"sim_score":6,"rt":4440,"stimulus":"[\"img/0902/6c2c243a-f663-45db-baf5-038d3d58c589.jpg\",\"img/0764/56441045-b648-4ede-9632-3e9c0227080b.jpg\"]","trial_type":"similarity","trial_index":189,"time_elapsed":1178038,"internal_node_id":"0.0-6.0-183.0"},{"sim_score":1,"rt":3956,"stimulus":"[\"img/0769/0fe124d3-bcad-45f6-b64d-8f6eb8ee5251.jpg\",\"img/0875/2e13d160-eea1-416b-aff1-d37ab99ecc1d.jpg\"]","trial_type":"similarity","trial_index":190,"time_elapsed":1183011,"internal_node_id":"0.0-6.0-184.0"},{"sim_score":4,"rt":3974,"stimulus":"[\"img/0867/de92135f-5b65-4ed9-b245-188292c7c2f8.jpg\",\"img/0903/59defeb8-98bd-4570-a2f8-9bd189e68ef4.jpg\"]","trial_type":"similarity","trial_index":191,"time_elapsed":1188004,"internal_node_id":"0.0-6.0-185.0"},{"sim_score":7,"rt":5119,"stimulus":"[\"img/0862/f188d4f0-76a4-4102-818c-a209969d73a5.jpg\",\"img/0769/c34b7763-8ff2-46d5-9e92-f1d8f3bedbd8.jpg\"]","trial_type":"similarity","trial_index":192,"time_elapsed":1194142,"internal_node_id":"0.0-6.0-186.0"},{"sim_score":3,"rt":3461,"stimulus":"[\"img/0766/110832e5-2646-4bd0-a94e-5df8cc314269.jpg\",\"img/0866/f756f7d1-9ad8-4a34-9ef6-7a443d705bfe.jpg\"]","trial_type":"similarity","trial_index":193,"time_elapsed":1198612,"internal_node_id":"0.0-6.0-187.0"},{"sim_score":2,"rt":4794,"stimulus":"[\"img/0769/bb8c4e53-6f32-4814-97ee-392d4decfb2e.jpg\",\"img/0860/4a022222-056d-461c-ab02-39fac9647552.jpg\"]","trial_type":"similarity","trial_index":194,"time_elapsed":1204416,"internal_node_id":"0.0-6.0-188.0"},{"sim_score":4,"rt":4150,"stimulus":"[\"img/0881/405484ae-0d00-4b05-bc57-6420a36adfac.jpg\",\"img/0868/4a8a45ed-2c4f-421b-9564-409a33ecd26c.jpg\"]","trial_type":"similarity","trial_index":195,"time_elapsed":1214184,"internal_node_id":"0.0-6.0-189.0"},{"view_history":"[{\"page_index\":0,\"viewing_time\":6585}]","rt":6585,"trial_type":"instructions","trial_index":196,"time_elapsed":1221770,"internal_node_id":"0.0-7.0"},{"rt":16834,"responses":"{\"Q0\":\"Orange-crowned Warbler\"}","answer":["Nashville Warbler"],"trial_type":"image-multi-choice","trial_index":197,"time_elapsed":1239642,"internal_node_id":"0.0-8.0-0.0"},{"rt":14201,"responses":"{\"Q0\":\"Black-and-white Warbler\"}","answer":["Black-and-white Warbler"],"trial_type":"image-multi-choice","trial_index":198,"time_elapsed":1254870,"internal_node_id":"0.0-8.0-1.0"},{"rt":12152,"responses":"{\"Q0\":\"Townsend's Warbler\"}","answer":["Townsend's Warbler"],"trial_type":"image-multi-choice","trial_index":199,"time_elapsed":1268053,"internal_node_id":"0.0-8.0-2.0"},{"rt":11266,"responses":"{\"Q0\":\"Song Sparrow\"}","answer":["Lark Sparrow"],"trial_type":"image-multi-choice","trial_index":200,"time_elapsed":1280349,"internal_node_id":"0.0-8.0-3.0"},{"rt":8848,"responses":"{\"Q0\":\"Yellow Warbler\"}","answer":["Yellow Warbler"],"trial_type":"image-multi-choice","trial_index":201,"time_elapsed":1290225,"internal_node_id":"0.0-8.0-4.0"},{"rt":17231,"responses":"{\"Q0\":\"Magnolia Warbler\"}","answer":["Orange-crowned Warbler"],"trial_type":"image-multi-choice","trial_index":202,"time_elapsed":1308477,"internal_node_id":"0.0-8.0-5.0"},{"rt":7430,"responses":"{\"Q0\":\"White-crowned Sparrow\"}","answer":["White-throated Sparrow"],"trial_type":"image-multi-choice","trial_index":203,"time_elapsed":1316928,"internal_node_id":"0.0-8.0-6.0"},{"rt":6396,"responses":"{\"Q0\":\"Fox Sparrow\"}","answer":["Fox Sparrow"],"trial_type":"image-multi-choice","trial_index":204,"time_elapsed":1324352,"internal_node_id":"0.0-8.0-7.0"},{"rt":14920,"responses":"{\"Q0\":\"Chipping Sparrow\"}","answer":["Song Sparrow"],"trial_type":"image-multi-choice","trial_index":205,"time_elapsed":1340299,"internal_node_id":"0.0-8.0-8.0"},{"rt":18675,"responses":"{\"Q0\":\"Blackburnian Warbler\"}","answer":["Blackburnian Warbler"],"trial_type":"image-multi-choice","trial_index":206,"time_elapsed":1360005,"internal_node_id":"0.0-8.0-9.0"},{"rt":17782,"responses":"{\"Q0\":\"American Tree Sparrow\"}","answer":["Vesper Sparrow"],"trial_type":"image-multi-choice","trial_index":207,"time_elapsed":1378807,"internal_node_id":"0.0-8.0-10.0"},{"rt":4635,"responses":"{\"Q0\":\"White-crowned Sparrow\"}","answer":["White-crowned Sparrow"],"trial_type":"image-multi-choice","trial_index":208,"time_elapsed":1384467,"internal_node_id":"0.0-8.0-11.0"},{"rt":13825,"responses":"{\"Q0\":\"Vesper Sparrow\"}","answer":["American Tree Sparrow"],"trial_type":"image-multi-choice","trial_index":209,"time_elapsed":1399311,"internal_node_id":"0.0-8.0-12.0"},{"rt":17619,"responses":"{\"Q0\":\"Orange-crowned Warbler\"}","answer":["Tennessee Warbler"],"trial_type":"image-multi-choice","trial_index":210,"time_elapsed":1417952,"internal_node_id":"0.0-8.0-13.0"},{"rt":10914,"responses":"{\"Q0\":\"Black-and-white Warbler\"}","answer":["Magnolia Warbler"],"trial_type":"image-multi-choice","trial_index":211,"time_elapsed":1429894,"internal_node_id":"0.0-8.0-14.0"},{"rt":4704,"responses":"{\"Q0\":\"Ovenbird\"}","answer":["Northern Waterthrush"],"trial_type":"image-multi-choice","trial_index":212,"time_elapsed":1435615,"internal_node_id":"0.0-8.0-15.0"},{"rt":5581,"responses":"{\"Q0\":\"American Tree Sparrow\"}","answer":["Chipping Sparrow"],"trial_type":"image-multi-choice","trial_index":213,"time_elapsed":1442213,"internal_node_id":"0.0-8.0-16.0"},{"rt":10427,"responses":"{\"Q0\":\"Chipping Sparrow\"}","answer":["Swamp Sparrow"],"trial_type":"image-multi-choice","trial_index":214,"time_elapsed":1453672,"internal_node_id":"0.0-8.0-17.0"},{"rt":5425,"responses":"{\"Q0\":\"Fox Sparrow\"}","answer":["Lincoln's Sparrow"],"trial_type":"image-multi-choice","trial_index":215,"time_elapsed":1460117,"internal_node_id":"0.0-8.0-18.0"},{"rt":5208,"responses":"{\"Q0\":\"Ovenbird\"}","answer":["Ovenbird"],"trial_type":"image-multi-choice","trial_index":216,"time_elapsed":1466356,"internal_node_id":"0.0-8.0-19.0"}]