"view_history","rt","trial_type","trial_index","time_elapsed","internal_node_id","sim_score","stimulus","responses","answer"
"[{""page_index"":0,""viewing_time"":17053}]","17053","instructions","0","17056","0.0-0.0","","","",""
"","12241","similarity_demo","1","30339","0.0-1.0","7","[""img/bluejay1.jpg"",""img/bluejay2.jpg""]","",""
"[{""page_index"":0,""viewing_time"":8481}]","8482","instructions","2","39836","0.0-2.0","","","",""
"","6247","similarity_demo","3","47118","0.0-3.0","1","[""img/bluejay1.jpg"",""img/cardinal1.jpg""]","",""
"[{""page_index"":0,""viewing_time"":6204}]","6205","instructions","4","54350","0.0-4.0","","","",""
"[{""page_index"":0,""viewing_time"":29926}]","29927","instructions","5","85296","0.0-5.0","","","",""
"","6176","similarity","6","92507","0.0-6.0-0.0","6","[""img/0868/8b0b8473-e2c0-4331-aa56-c3a5c29369da.jpg"",""img/0894/7fb082e0-ce79-485c-9109-04367fb32275.jpg""]","",""
"","5878","similarity","7","99407","0.0-6.0-1.0","2","[""img/0898/ec565187-2e31-4fdd-9a5c-153d0c789ae0.jpg"",""img/0758/7fba58df-2a7a-4b76-8a8f-62739f97f271.jpg""]","",""
"","5477","similarity","8","105913","0.0-6.0-2.0","4","[""img/0903/aa842abe-6fa3-448a-bf71-88d3ad28663b.jpg"",""img/0894/e6385e52-6c35-43bd-b0af-bc803d107b11.jpg""]","",""
"","5472","similarity","9","112413","0.0-6.0-3.0","5","[""img/0881/dea58fad-b4f1-41d9-bd3f-916eff19a3fd.jpg"",""img/0766/b84598d0-5b41-4841-88b0-b441b48289f5.jpg""]","",""
"","6053","similarity","10","119493","0.0-6.0-4.0","1","[""img/0864/0f537697-a314-47c3-a8cc-8df23b7e536c.jpg"",""img/0860/4c530c3c-6aab-492a-94d1-9c01797bde40.jpg""]","",""
"","6573","similarity","11","127093","0.0-6.0-5.0","3","[""img/0902/cf9dee9c-2bdf-4d64-9302-97f1660fe52c.jpg"",""img/0899/4f7bc593-8ddd-4da3-a0b9-84da730d3370.jpg""]","",""
"","5089","similarity","12","133220","0.0-6.0-6.0","2","[""img/0868/0d3abd3a-b6c3-4584-a9f7-e2da63748b3d.jpg"",""img/0769/387a9744-d6a7-42b8-bab8-33007ec434aa.jpg""]","",""
"","5062","similarity","13","139297","0.0-6.0-7.0","2","[""img/0764/4bec8d92-75aa-475a-954d-8215dbe538f5.jpg"",""img/0901/fb0a8e69-7f19-4e6e-a6bb-a48f97f9b4f3.jpg""]","",""
"","4283","similarity","14","144601","0.0-6.0-8.0","1","[""img/0881/f037e3b0-09cb-4a83-b2d9-6a71fe474e63.jpg"",""img/0866/945c6710-d15b-4a5b-a8f6-69af0850357f.jpg""]","",""
"","6285","similarity","15","151905","0.0-6.0-9.0","2","[""img/0867/f8488a47-94ee-4166-952c-44e16cf172f6.jpg"",""img/0899/fef567a2-c121-4481-9af0-ff108d199bbf.jpg""]","",""
"","4892","similarity","16","157827","0.0-6.0-10.0","1","[""img/0875/dbdd643e-6d0e-4a5c-ab57-b9c29b9c981a.jpg"",""img/0766/2e1cf445-9aef-40e7-92f4-5facf48b64c5.jpg""]","",""
"","5985","similarity","17","164843","0.0-6.0-11.0","1","[""img/0901/62315ff5-ed95-46b4-b099-92552079659b.jpg"",""img/0875/fb732ab5-013a-4366-9f65-27811ed157e9.jpg""]","",""
"","5892","similarity","18","171765","0.0-6.0-12.0","2","[""img/0902/40d0b6ec-3907-4573-b227-e7d8e9cad1c3.jpg"",""img/0860/8fdba999-b946-4c7d-9891-336018b563ef.jpg""]","",""
"","5076","similarity","19","177867","0.0-6.0-13.0","4","[""img/0874/ca76a855-4e77-4f2f-872a-0a718153e7ed.jpg"",""img/0867/26611f4e-d694-4460-b7e2-43c62753ddc3.jpg""]","",""
"","4690","similarity","20","183577","0.0-6.0-14.0","3","[""img/0904/4e58005d-a2ec-4aaa-b199-445343561396.jpg"",""img/0866/07c9c966-3c8d-40e7-8128-92b2acbaed5d.jpg""]","",""
"","5204","similarity","21","189811","0.0-6.0-15.0","2","[""img/0758/335851a0-a55b-46d8-ab05-8463eda48349.jpg"",""img/0902/8065aa6b-4aef-4368-afa2-02c6465ca582.jpg""]","",""
"","5097","similarity","22","195938","0.0-6.0-16.0","2","[""img/0867/a498eef3-9fa4-4ab2-9778-4ae82ac40dc5.jpg"",""img/0898/81b08535-2020-4c15-9ce4-2f1e460755ae.jpg""]","",""
"","6650","similarity","23","203617","0.0-6.0-17.0","5","[""img/0904/9dd5708f-3f8b-46a9-b49f-2f2fab87b357.jpg"",""img/0868/293079b8-7e0c-4afd-a390-1e5d35fe3ded.jpg""]","",""
"","6400","similarity","24","211039","0.0-6.0-18.0","4","[""img/0766/d3bab2fc-ddcc-40a0-bb72-c0d0ebe19978.jpg"",""img/0864/300bb811-8b3c-4c42-8653-6097c3725197.jpg""]","",""
"","6159","similarity","25","218221","0.0-6.0-19.0","6","[""img/0899/b45c550b-96c3-4255-ad59-48a2b4db1c1e.jpg"",""img/0766/e8052e17-9dae-4139-802b-6e590cb2d526.jpg""]","",""
"","5579","similarity","26","224823","0.0-6.0-20.0","5","[""img/0764/cffc80b0-4a90-4acb-a530-6f480f3ca303.jpg"",""img/0758/caa93da2-9edf-49fa-96b9-32dedd8f5078.jpg""]","",""
"","4916","similarity","27","230767","0.0-6.0-21.0","4","[""img/0901/08d6d1d1-c043-43c4-bb08-d45e062822b9.jpg"",""img/0874/3f471690-9788-4d03-90c7-f615aecef149.jpg""]","",""
"","5268","similarity","28","237057","0.0-6.0-22.0","2","[""img/0875/ebf7653f-ff45-4e9f-af58-2c042ab3cd2b.jpg"",""img/0758/67c0be2f-9e91-48b3-8219-70ac0a1802fa.jpg""]","",""
"","4549","similarity","29","242644","0.0-6.0-23.0","4","[""img/0867/50a1b60e-3a29-44bf-b606-d4bd3746fea9.jpg"",""img/0881/292e9b4b-fca0-4ba8-87f1-4048f9e37b7d.jpg""]","",""
"","4033","similarity","30","247706","0.0-6.0-24.0","3","[""img/0758/65d426d6-3ff6-415d-8654-a43b83ecc4fe.jpg"",""img/0901/f469cb1d-6d81-4a45-bab5-cd0b650c2b4f.jpg""]","",""
"","5581","similarity","31","254315","0.0-6.0-25.0","5","[""img/0868/d98ca254-b195-477f-b57e-5760a2717db8.jpg"",""img/0875/03c3c331-738b-4446-af92-3d7386b08c2e.jpg""]","",""
"","3876","similarity","32","259221","0.0-6.0-26.0","4","[""img/0903/a0673b55-6040-47fe-9040-24bca27ca3c9.jpg"",""img/0901/a6776381-91fe-43f8-ab73-261d318f95fd.jpg""]","",""
"","4451","similarity","33","264697","0.0-6.0-27.0","3","[""img/0894/a3d4170b-b7d8-40e3-955f-87e76ed745fc.jpg"",""img/0899/66ab3178-c3fe-4455-ad17-d5952b08e018.jpg""]","",""
"","4381","similarity","34","270111","0.0-6.0-28.0","2","[""img/0862/e697469a-ec19-4414-b972-7b9f3564785b.jpg"",""img/0867/179ab87a-8eac-4c52-a41f-2e48e3120f09.jpg""]","",""
"","4371","similarity","35","275509","0.0-6.0-29.0","1","[""img/0864/c22faebd-9c53-47bc-ada3-b9a30c688e75.jpg"",""img/0875/3ecb367d-e9eb-4826-8aaa-7aa72fb98019.jpg""]","",""
"","5279","similarity","36","281823","0.0-6.0-30.0","2","[""img/0862/4f0a3b4c-afbf-486e-b248-1d54982f54b4.jpg"",""img/0874/a3bc679d-619f-4db6-bb68-116dcb757d9c.jpg""]","",""
"","5230","similarity","37","288087","0.0-6.0-31.0","3","[""img/0903/b7e3723f-fd03-4f3d-8820-f19496463a34.jpg"",""img/0758/ddc336e9-a8b6-4bb9-937a-c7e25e0e9250.jpg""]","",""
"","6025","similarity","38","295143","0.0-6.0-32.0","3","[""img/0866/93a27239-8317-4e08-98ca-d8b1ff298e07.jpg"",""img/0901/693e0535-ef7e-4d60-af9d-fac2f38e8307.jpg""]","",""
"","5267","similarity","39","301431","0.0-6.0-33.0","4","[""img/0874/31e22c7c-99aa-40b1-bf03-dd73fa2df4d6.jpg"",""img/0899/4408c14d-c168-4a7d-96f6-bc87bfb58f83.jpg""]","",""
"","4734","similarity","40","307205","0.0-6.0-34.0","6","[""img/0903/8635cf25-2648-4fe9-8c42-79d2598e999c.jpg"",""img/0902/97022122-01e4-46c3-a34f-c6260ad28428.jpg""]","",""
"","4306","similarity","41","312557","0.0-6.0-35.0","1","[""img/0758/20497cbe-ddae-489e-86e2-ab06985ed07c.jpg"",""img/0866/be24ab58-230e-4db8-9f45-ff04c9aec6bb.jpg""]","",""
"","3478","similarity","42","317065","0.0-6.0-36.0","3","[""img/0875/f87b67d7-c33e-40d1-b281-248c4be1cb6e.jpg"",""img/0903/647ce311-8c71-479a-8361-961db1457139.jpg""]","",""
"","4037","similarity","43","322135","0.0-6.0-37.0","5","[""img/0864/6f631579-acf1-415c-a42c-1207f62a8d99.jpg"",""img/0902/04a6ad4a-afc6-4871-8225-56b299af7b6b.jpg""]","",""
"","4083","similarity","44","327259","0.0-6.0-38.0","5","[""img/0901/5b97abf9-f0c8-4fd1-b921-36d574779078.jpg"",""img/0867/c71dc569-f49c-4397-8381-68b8d726736d.jpg""]","",""
"","5092","similarity","45","333369","0.0-6.0-39.0","4","[""img/0862/57b6f83f-c763-4858-830d-102f97bfefbf.jpg"",""img/0860/524b2e98-5767-4d53-942c-ebae6925659b.jpg""]","",""
"","3760","similarity","46","338157","0.0-6.0-40.0","5","[""img/0867/98d8cd96-1476-4fe0-a3a3-04f875500a1b.jpg"",""img/0868/83b4350a-3b70-4cea-b7f5-b5b56f3050a8.jpg""]","",""
"","5511","similarity","47","356680","0.0-6.0-41.0","5","[""img/0904/1d10df11-b5c8-4370-9a6b-097a7f965895.jpg"",""img/0899/8abe6c69-822c-436c-9bf2-96c818b49ba5.jpg""]","",""
"","5184","similarity","48","362883","0.0-6.0-42.0","4","[""img/0862/a0a3a7ba-7798-46a3-b4ca-05e1f6e581d0.jpg"",""img/0894/6b2e9509-8699-42b7-9582-7741df0ba2d7.jpg""]","",""
"","3485","similarity","49","367407","0.0-6.0-43.0","5","[""img/0875/42910c99-5463-450a-a0f8-d4d060a11455.jpg"",""img/0904/5aec2708-cf14-4a58-aa30-9a8a61c1be0e.jpg""]","",""
"","2740","similarity","50","371179","0.0-6.0-44.0","4","[""img/0874/93d1f8dc-acf2-4f03-bd8d-8ec35df276ed.jpg"",""img/0898/01bfe666-3510-4fc7-964f-d00d28732dc8.jpg""]","",""
"","5562","similarity","51","377757","0.0-6.0-45.0","4","[""img/0898/b3290bf9-215b-4b45-b21a-65bdf73f142f.jpg"",""img/0868/fd307a36-9a3a-47d7-ab7c-f810d0b35040.jpg""]","",""
"","4344","similarity","52","383125","0.0-6.0-46.0","6","[""img/0901/a6c90438-fa7c-4418-ac7c-16c2e772dd98.jpg"",""img/0860/702bd09d-df3a-40aa-a267-5f04474305b5.jpg""]","",""
"","5875","similarity","53","390031","0.0-6.0-47.0","5","[""img/0894/4739e06d-c31e-4bf1-bf91-c97fa9afb456.jpg"",""img/0902/b03fee99-d5ca-4bf8-871c-a4a743a39842.jpg""]","",""
"","4501","similarity","54","395547","0.0-6.0-48.0","3","[""img/0764/0e7ed062-f798-4366-8a24-6f430926f919.jpg"",""img/0862/47ed5efd-4ec9-4b74-bb4e-a5f5cf0c3e7d.jpg""]","",""
"","5587","similarity","55","402153","0.0-6.0-49.0","4","[""img/0881/4bd34581-94d8-4e88-8c89-5cef864ca3be.jpg"",""img/0758/6cd8c362-ae2a-41eb-80a3-3a4f7ace1530.jpg""]","",""
"","5221","similarity","56","408403","0.0-6.0-50.0","4","[""img/0766/d14acac4-7db1-4b07-8f8f-302437326fc0.jpg"",""img/0769/ebef2ddc-ba59-4e0e-97f8-927864eb5081.jpg""]","",""
"","4927","similarity","57","414365","0.0-6.0-51.0","6","[""img/0875/8521fd58-3b1e-4dc5-97ae-804edfa6734a.jpg"",""img/0866/a15b02be-11bb-43e3-b0e0-ecc3bd7dfc49.jpg""]","",""
"","4189","similarity","58","419588","0.0-6.0-52.0","5","[""img/0894/76c1201f-8524-4865-85e6-dda8cb4ac986.jpg"",""img/0904/ba8e689e-9ca6-4608-a2a1-3b0940666ae6.jpg""]","",""
"","5307","similarity","59","425927","0.0-6.0-53.0","1","[""img/0758/dd559618-7f09-4a07-8018-d311c4a5ea29.jpg"",""img/0769/965c3c44-d9e5-47c5-b61a-2bbdf4215d9a.jpg""]","",""
"","5247","similarity","60","432199","0.0-6.0-54.0","1","[""img/0902/f3cfec34-482c-4bdb-9c92-19ea6cfce183.jpg"",""img/0874/8cdb1c07-1c32-46d2-981c-3636560fa6e5.jpg""]","",""
"","5421","similarity","61","438645","0.0-6.0-55.0","3","[""img/0903/150cf64c-0bd2-4674-abbb-a1387cf1f3e9.jpg"",""img/0862/5d887e9f-89e2-4ebc-80a0-6d46fe6480db.jpg""]","",""
"","4925","similarity","62","444605","0.0-6.0-56.0","4","[""img/0866/bf14b5bd-fb55-47db-86b9-4f8aeb9a6dad.jpg"",""img/0894/a98416c0-51e2-4960-85da-d81d8688b9d5.jpg""]","",""
"","3653","similarity","63","449285","0.0-6.0-57.0","4","[""img/0867/de92135f-5b65-4ed9-b245-188292c7c2f8.jpg"",""img/0904/2fd488e9-960f-41f7-8a44-33375f7d5051.jpg""]","",""
"","4011","similarity","64","454317","0.0-6.0-58.0","2","[""img/0875/34132396-d896-4c2d-8087-646dd867e769.jpg"",""img/0881/b1a136f7-8511-4d3a-a0f6-3879acf1e1a1.jpg""]","",""
"","4370","similarity","65","459707","0.0-6.0-59.0","3","[""img/0866/d493a2c8-66eb-44b4-be02-2f327b700b7c.jpg"",""img/0860/4a022222-056d-461c-ab02-39fac9647552.jpg""]","",""
"","4941","similarity","66","465677","0.0-6.0-60.0","1","[""img/0903/8c358e9e-a4f4-466e-8b93-7aec0d2358e8.jpg"",""img/0866/11a1d141-be5e-443c-98c1-a9d4d9e3dec0.jpg""]","",""
"","4795","similarity","67","471489","0.0-6.0-61.0","5","[""img/0860/8277806e-b684-4474-8f7b-3fca946d7d4f.jpg"",""img/0875/2c361b79-c3d1-4eda-812e-bf03192407bf.jpg""]","",""
"","4655","similarity","68","477177","0.0-6.0-62.0","4","[""img/0898/b2732712-71c2-45d8-834f-2b2ed5504910.jpg"",""img/0862/e0f1a4e9-e1b6-45f7-af67-89f334e6630d.jpg""]","",""
"","2953","similarity","69","481153","0.0-6.0-63.0","4","[""img/0902/30c420f5-c714-4681-ae5a-c0ba8f636a26.jpg"",""img/0766/5d1b8041-c5a1-4b02-b4fe-3453d98a0d72.jpg""]","",""
"","4854","similarity","70","487043","0.0-6.0-64.0","5","[""img/0758/61d64021-9214-4951-bdf8-f871f9827cf9.jpg"",""img/0864/3d4de670-b290-4285-9c3d-12a0e3af44e9.jpg""]","",""
"","4518","similarity","71","492597","0.0-6.0-65.0","3","[""img/0894/43216a7f-27bc-4b5a-8841-d122a30da9d9.jpg"",""img/0860/29a21a9f-54bb-4093-ad3f-04823ceaa89f.jpg""]","",""
"","5181","similarity","72","498809","0.0-6.0-66.0","3","[""img/0899/0e1d936a-dbe2-4afc-9f19-7b7a1ae6c9ed.jpg"",""img/0868/4a8a45ed-2c4f-421b-9564-409a33ecd26c.jpg""]","",""
"","4099","similarity","73","503949","0.0-6.0-67.0","2","[""img/0866/4a87911a-d5be-4d4e-ab8e-3d1f581bf507.jpg"",""img/0862/53a9cf7c-93c4-41b9-952f-07d17f7a17b2.jpg""]","",""
"","5669","similarity","74","510645","0.0-6.0-68.0","2","[""img/0860/d9a0d117-6d1d-41c0-8fec-9aff0fd9e9f2.jpg"",""img/0758/9fb5b2fe-3f00-4fe6-973c-1ce10d5f4cd5.jpg""]","",""
"","5541","similarity","75","517223","0.0-6.0-69.0","5","[""img/0902/22ed3536-288b-452e-9777-0fa0ab94deb0.jpg"",""img/0867/8ba0c5a7-c7e4-42cf-a80a-543763b90779.jpg""]","",""
"","4439","similarity","76","522699","0.0-6.0-70.0","3","[""img/0862/e8cc3bdf-cc43-4565-bccf-492626c70953.jpg"",""img/0901/b453df0b-4c39-49bb-8ced-6127efffa898.jpg""]","",""
"","5389","similarity","77","529113","0.0-6.0-71.0","6","[""img/0867/1719a35d-f085-48c0-9099-16c94fe418b4.jpg"",""img/0866/620cd1aa-0800-4414-8f6e-90342e7a99ad.jpg""]","",""
"","6010","similarity","78","536145","0.0-6.0-72.0","6","[""img/0860/94ef7afc-e0e6-4a15-98c6-0bfac82bc832.jpg"",""img/0904/9d30eff1-46ef-4453-b11e-124ef8145c00.jpg""]","",""
"","4692","similarity","79","541863","0.0-6.0-73.0","3","[""img/0875/e7e66b13-b573-431e-b85e-288ce04a35a3.jpg"",""img/0899/56a605c3-d0a2-4215-89e1-779279d85a7c.jpg""]","",""
"","4793","similarity","80","547684","0.0-6.0-74.0","3","[""img/0899/ddf96ade-692e-4602-bd22-dedbb46401bc.jpg"",""img/0758/53f35650-e455-4b53-8be4-c3c8271c6466.jpg""]","",""
"","4519","similarity","81","553232","0.0-6.0-75.0","2","[""img/0862/f188d4f0-76a4-4102-818c-a209969d73a5.jpg"",""img/0875/5a1e5100-0d94-4fec-bbe9-ca9894d2cf8e.jpg""]","",""
"","5610","similarity","82","559871","0.0-6.0-76.0","3","[""img/0901/875dedb9-24c9-4443-9f8c-85e97d70ee5a.jpg"",""img/0894/792c83e9-a747-4000-bc72-5663d2439edb.jpg""]","",""
"","5264","similarity","83","566167","0.0-6.0-77.0","1","[""img/0766/c23b5a20-e50f-4d85-841f-cf89212a4348.jpg"",""img/0758/7ffbc76b-1fc1-432c-8f7e-9ec8d1b3f643.jpg""]","",""
"","4659","similarity","84","571847","0.0-6.0-78.0","5","[""img/0894/bd34223a-2f66-4e16-9d18-193a746b69ff.jpg"",""img/0764/23ea9375-f801-4a96-9925-7d453da887c7.jpg""]","",""
"","5718","similarity","85","578589","0.0-6.0-79.0","5","[""img/0860/c5ccd1a4-4bb7-48e1-9b25-72cfaf06909b.jpg"",""img/0867/c66898ba-b71b-4d50-84f9-f7f84853a98d.jpg""]","",""
"","4609","similarity","86","584215","0.0-6.0-80.0","4","[""img/0898/0af304a2-6a7a-4082-ab7c-4450cd08cc58.jpg"",""img/0901/bc47e078-bda4-40ed-b89a-bbd819164b95.jpg""]","",""
"","5913","similarity","87","591151","0.0-6.0-81.0","3","[""img/0874/eba003b4-cdab-4eee-8bc3-f064c7d94165.jpg"",""img/0764/03c07b98-3f18-4b71-bb70-ecff564a78d1.jpg""]","",""
"","5019","similarity","88","597191","0.0-6.0-82.0","4","[""img/0899/d60714ae-98d7-4564-8c98-94dba1351135.jpg"",""img/0862/ad593cc7-cabe-4bb7-8e14-8a447a0717b4.jpg""]","",""
"","4423","similarity","89","608792","0.0-6.0-83.0","3","[""img/0766/f011ef45-fb48-44b8-8224-867ed2ccf786.jpg"",""img/0901/ae1e6ce4-2e10-4ca9-b1e7-21628637ab74.jpg""]","",""
"","4102","similarity","90","613918","0.0-6.0-84.0","3","[""img/0881/c843e210-bdfe-4a7c-8bbe-fcea1f90fe1c.jpg"",""img/0898/993d8f2d-bef7-4251-a193-0f93a32b7763.jpg""]","",""
"","5037","similarity","91","619987","0.0-6.0-85.0","5","[""img/0868/77091fc7-a590-4ebb-b915-fdb2483a2399.jpg"",""img/0860/c7047cd2-7cc1-41b6-8a34-c0986774975f.jpg""]","",""
"","4247","similarity","92","625253","0.0-6.0-86.0","3","[""img/0758/d41c06bf-ebaf-454b-91c6-1a17f917b659.jpg"",""img/0868/d6d1f30d-4323-435a-b194-7892521bc57e.jpg""]","",""
"","6036","similarity","93","632315","0.0-6.0-87.0","5","[""img/0864/5f74a653-3bdc-4308-8cca-ac667dc22e1f.jpg"",""img/0894/3adef67d-7676-4995-80b2-bb31b8aca3ef.jpg""]","",""
"","4374","similarity","94","637713","0.0-6.0-88.0","1","[""img/0866/6f2a90d7-14f1-4f1b-bd64-fc0af6b9fe44.jpg"",""img/0902/2db723b6-130f-454c-8c8d-88829edbcd65.jpg""]","",""
"","5183","similarity","95","643926","0.0-6.0-89.0","5","[""img/0769/8598a429-c671-4d2f-842c-32f681f5e412.jpg"",""img/0867/2e1a0b58-cdb1-4107-a14e-452530d7b9b0.jpg""]","",""
"","5601","similarity","96","650541","0.0-6.0-90.0","5","[""img/0874/29830da7-be5f-44e5-b141-652a0ccf7269.jpg"",""img/0875/5a716432-c6ca-4b1c-955a-2b8ac25198ee.jpg""]","",""
"","4999","similarity","97","656557","0.0-6.0-91.0","6","[""img/0864/da39ad34-04e0-40d4-a724-c08d53e0ea09.jpg"",""img/0874/bf14b896-e930-4fd9-9c05-2e83317a2773.jpg""]","",""
"","4860","similarity","98","662456","0.0-6.0-92.0","4","[""img/0881/14236cf2-6b95-48b8-9368-78af09d2d27f.jpg"",""img/0862/7918ca67-5bd3-4606-a5ea-c39fb11a9297.jpg""]","",""
"","5794","similarity","99","669269","0.0-6.0-93.0","5","[""img/0864/4bd81bc6-c13d-46df-95a9-485886dc7c1b.jpg"",""img/0881/445edb15-bd7f-4af3-8bd5-c6ad9677bb31.jpg""]","",""
"","5594","similarity","100","675885","0.0-6.0-94.0","5","[""img/0899/f95cbdb4-f804-4f5d-ad76-373ad343e658.jpg"",""img/0901/deff6cfb-0072-4490-bc3e-206bbcd3e8bf.jpg""]","",""
"","5836","similarity","101","682746","0.0-6.0-95.0","5","[""img/0874/ca23d307-fc00-4d7d-9106-584c6eb21b4d.jpg"",""img/0766/908bc45b-7c9e-4f95-806e-86b196ebcb2c.jpg""]","",""
"","4711","similarity","102","688487","0.0-6.0-96.0","3","[""img/0881/4da99fdd-1f40-4bbb-8e21-8833eef313f5.jpg"",""img/0899/d8f2dd94-570e-4e8c-a087-d96090fb9e8c.jpg""]","",""
"","5568","similarity","103","695089","0.0-6.0-97.0","5","[""img/0862/ee3b7bff-4a70-4e84-9bea-4a565e456acb.jpg"",""img/0902/0db94c50-f1fb-4091-953c-29ca0466bee2.jpg""]","",""
"","4724","similarity","104","700839","0.0-6.0-98.0","4","[""img/0899/66bf4113-ee12-426c-84d2-ea410b6c803e.jpg"",""img/0764/f713847b-4832-42d1-8fb3-e17e37fd745c.jpg""]","",""
"","5564","similarity","105","707426","0.0-6.0-99.0","5","[""img/0758/f61ecdf8-a7d4-4db0-b84d-be46f7cfaffc.jpg"",""img/0862/99a99e39-8355-44ec-b993-e7bcec111e1c.jpg""]","",""
"","3974","similarity","106","712417","0.0-6.0-100.0","3","[""img/0764/c80b3e06-2ee3-4326-9678-340607eb5348.jpg"",""img/0898/40f99fb2-64d2-4e72-8a7f-a1cf60741e69.jpg""]","",""
"","5958","similarity","107","719402","0.0-6.0-101.0","6","[""img/0901/2a953e50-d237-405c-a38d-5ed21494c968.jpg"",""img/0902/b76efc44-a50f-4dac-b997-ff0222376067.jpg""]","",""
"","3934","similarity","108","724361","0.0-6.0-102.0","1","[""img/0764/da207710-e7e4-4f42-b2e6-99b5f357f433.jpg"",""img/0868/179a5502-ab5c-478e-8263-5a1fbcc101d2.jpg""]","",""
"","4984","similarity","109","730361","0.0-6.0-103.0","2","[""img/0769/aad494cc-674d-4a08-9bfa-24a88ebe3c79.jpg"",""img/0881/7e31e5dc-2240-4b1b-b5a0-3acd980099ef.jpg""]","",""
"","5626","similarity","110","737004","0.0-6.0-104.0","5","[""img/0864/e02eddb5-f468-499c-91bf-f7be3ffe979b.jpg"",""img/0769/0fe124d3-bcad-45f6-b64d-8f6eb8ee5251.jpg""]","",""
"","6174","similarity","111","744206","0.0-6.0-105.0","3","[""img/0866/f756f7d1-9ad8-4a34-9ef6-7a443d705bfe.jpg"",""img/0868/3a62db2d-97e9-44a3-b8e3-a48c6f0e423b.jpg""]","",""
"","3590","similarity","112","748823","0.0-6.0-106.0","1","[""img/0868/5fa7f9d0-f0e5-454c-8224-74d964818f56.jpg"",""img/0862/de9ad88c-b522-430a-8ee9-eb06a9f85df5.jpg""]","",""
"","4608","similarity","113","754464","0.0-6.0-107.0","1","[""img/0766/db750ba0-ce04-46e1-b601-e1b80212bad2.jpg"",""img/0898/82231d4c-218b-4d0a-b50d-35a49b524e97.jpg""]","",""
"","3786","similarity","114","759267","0.0-6.0-108.0","3","[""img/0898/79233891-305a-4a6a-8ddf-5c8604858203.jpg"",""img/0864/8ddd2e30-a1d0-479f-9cbe-591213023893.jpg""]","",""
"","4345","similarity","115","764644","0.0-6.0-109.0","1","[""img/0868/4bd5105a-d2c3-4f82-8c80-57196106ba53.jpg"",""img/0902/af40b98b-3d23-4d95-b401-49ba5783ce39.jpg""]","",""
"","5883","similarity","116","771558","0.0-6.0-110.0","5","[""img/0904/2f88ce53-02d0-4f95-a082-182c56a0eeb4.jpg"",""img/0764/39a9fc7e-b863-432c-9374-de43983f31a5.jpg""]","",""
"","5501","similarity","117","778087","0.0-6.0-111.0","5","[""img/0894/b2d2f66e-e480-46da-a02a-6d0c6b285d78.jpg"",""img/0875/d59ff733-eaff-4ee2-9443-06954dd0bcb6.jpg""]","",""
"","4603","similarity","118","783722","0.0-6.0-112.0","3","[""img/0868/09a9ef4d-d000-4cfa-a6aa-ebec7c2edeb4.jpg"",""img/0874/adf9a8f1-c40b-402b-b95b-1e85a54a7b62.jpg""]","",""
"","5345","similarity","119","790096","0.0-6.0-113.0","6","[""img/0904/6291eb43-c10c-4810-a36a-101d09868b04.jpg"",""img/0898/68476bbb-34a1-42d9-8bc1-deab783d4489.jpg""]","",""
"","5274","similarity","120","796401","0.0-6.0-114.0","4","[""img/0860/fd4662f9-4c03-4d79-8593-06735e55a64b.jpg"",""img/0766/69e486f7-dbef-456b-9d48-53d814248a28.jpg""]","",""
"","5359","similarity","121","802799","0.0-6.0-115.0","4","[""img/0894/5ff3c4f6-52e2-4075-8679-be0312e59703.jpg"",""img/0874/2c9464dd-8a23-4baa-ac94-1ba3af5c15cc.jpg""]","",""
"","3905","similarity","122","807722","0.0-6.0-116.0","5","[""img/0899/f58b8d2f-b19d-4b59-8b94-8834be92e4ba.jpg"",""img/0903/71dbc325-b588-4297-a5cf-7f268a722ad9.jpg""]","",""
"","5439","similarity","123","814189","0.0-6.0-117.0","5","[""img/0881/5fe04dd0-5c74-47b7-99c8-b068db9ca26a.jpg"",""img/0764/21e3292f-01ad-4238-828b-61b817857d16.jpg""]","",""
"","5654","similarity","124","820877","0.0-6.0-118.0","3","[""img/0903/0e5c2854-42aa-48c0-9c3d-6e1ad2a400bd.jpg"",""img/0769/1d8734c4-77ab-4165-9e71-5cfe672ff01c.jpg""]","",""
"","5278","similarity","125","827190","0.0-6.0-119.0","6","[""img/0901/c6c877e0-dd63-4e00-9657-33af29d55aab.jpg"",""img/0904/60d1a521-edf7-4696-9263-f21ac0e62a01.jpg""]","",""
"","5488","similarity","126","833706","0.0-6.0-120.0","5","[""img/0860/5bff793e-cbd5-4d7e-b628-0ac2b0e30b64.jpg"",""img/0881/48ed65a5-471f-41af-86ec-3793805c116d.jpg""]","",""
"","5522","similarity","127","840265","0.0-6.0-121.0","3","[""img/0758/e1ba5e53-addc-436a-b428-d34fc1b130dc.jpg"",""img/0874/c0378dac-9370-439a-8b79-db27c96fb390.jpg""]","",""
"","5405","similarity","128","846696","0.0-6.0-122.0","5","[""img/0901/c6df1a21-44ed-47c2-960e-7c52220e329e.jpg"",""img/0769/b664b502-a86c-46c1-ad6f-5ebffc2e1bd3.jpg""]","",""
"","5651","similarity","129","853367","0.0-6.0-123.0","5","[""img/0902/a323b62d-2fd5-4ac8-acc6-35b768f3c3f2.jpg"",""img/0904/09dac84f-3d1c-4445-a68e-d0389fdbf1e9.jpg""]","",""
"","5632","similarity","130","860015","0.0-6.0-124.0","2","[""img/0899/fd9efb43-701f-4cd6-baaa-4c38315f4bdc.jpg"",""img/0864/ea327690-500b-4137-bf91-451b309fe6a5.jpg""]","",""
"","4057","similarity","131","870632","0.0-6.0-125.0","1","[""img/0766/2da002a4-05c9-4f5c-9ed7-433b4183e273.jpg"",""img/0868/6a28c3b0-3d76-498a-9fb7-ddafc665eca8.jpg""]","",""
"","4817","similarity","132","876478","0.0-6.0-126.0","5","[""img/0764/5c8fbafc-e62e-43ed-9b37-f73e8e45147d.jpg"",""img/0864/1ebbc554-99fa-49f9-8799-317375a79820.jpg""]","",""
"","4964","similarity","133","882475","0.0-6.0-127.0","5","[""img/0899/9de5e857-aa9a-4e0c-8ba2-46d79bd069a4.jpg"",""img/0866/23a224f3-2012-4fc8-8e0f-3c36f8de27fd.jpg""]","",""
"","4052","similarity","134","887554","0.0-6.0-128.0","2","[""img/0901/b123d109-47b4-4f9a-80c9-9bb16da42efa.jpg"",""img/0881/7e822106-76f7-4b10-a805-14dc68b2cfaf.jpg""]","",""
"","5048","similarity","135","893640","0.0-6.0-129.0","7","[""img/0898/cd3aaa3f-efa9-4ab3-8d6f-a6a9273ddf42.jpg"",""img/0903/2a9c8033-3e70-47fa-816d-97ee1813a3a3.jpg""]","",""
"","5158","similarity","136","899828","0.0-6.0-130.0","6","[""img/0894/8cadb87a-7001-4e47-99fb-1867bebf1668.jpg"",""img/0867/5e07b34d-b40f-4b1c-ac10-49975bace45f.jpg""]","",""
"","3720","similarity","137","904586","0.0-6.0-131.0","2","[""img/0874/767f289c-9814-4496-803f-745cc8913d1f.jpg"",""img/0903/31b5a5f4-b695-4af1-bad2-a19650a05498.jpg""]","",""
"","5829","similarity","138","911438","0.0-6.0-132.0","5","[""img/0899/5b56dd3e-3f49-47cc-af84-16da6457753b.jpg"",""img/0898/8605a25b-6895-476d-8c13-df7a83f96093.jpg""]","",""
"","4396","similarity","139","916852","0.0-6.0-133.0","2","[""img/0867/aa05d113-fc19-4756-a8eb-7878f580bc92.jpg"",""img/0764/7f4ee8e3-9315-4a57-be7d-db8454b33766.jpg""]","",""
"","5660","similarity","140","923554","0.0-6.0-134.0","2","[""img/0866/c446214b-a368-4c65-ae39-ea46894256ab.jpg"",""img/0769/a3cfbdeb-acb3-4eac-87fb-4b117f42d4f8.jpg""]","",""
"","5847","similarity","141","930422","0.0-6.0-135.0","7","[""img/0860/b03b963d-949b-4d8d-b19c-4950c89eeca2.jpg"",""img/0898/0c7dde4f-efce-4b7a-9387-6921635b7890.jpg""]","",""
"","5758","similarity","142","937195","0.0-6.0-136.0","3","[""img/0881/20af39f5-373d-4a55-a437-2dc4c0382c46.jpg"",""img/0903/43ffd882-077a-40dd-a264-e58d519420a1.jpg""]","",""
"","5541","similarity","143","943774","0.0-6.0-137.0","5","[""img/0894/11674fa4-285d-44e2-939f-2228c6a64080.jpg"",""img/0766/989c5c7f-1aff-4442-ac63-9d46acf4a891.jpg""]","",""
"","4564","similarity","144","949366","0.0-6.0-138.0","2","[""img/0860/f44ba3fb-03a2-42f0-8509-2c1ded493086.jpg"",""img/0764/d7c215ab-ea9a-45be-8d5f-417d5b9a8a17.jpg""]","",""
"","6150","similarity","145","956544","0.0-6.0-139.0","2","[""img/0769/35f2dd39-40aa-498e-b401-9f1ef2622d00.jpg"",""img/0902/168ebd47-9e82-4ab7-a18b-c3da85072db8.jpg""]","",""
"","5539","similarity","146","963100","0.0-6.0-140.0","6","[""img/0904/63dd06dd-dccb-47ba-9740-eb33239e18a7.jpg"",""img/0903/f45a103c-9bfe-49fd-ad96-bdd8d2589195.jpg""]","",""
"","3679","similarity","147","967810","0.0-6.0-141.0","5","[""img/0764/29072395-f595-4e3c-83d3-ff87010039fa.jpg"",""img/0769/458d9c77-b844-40b5-bb1b-1e3bbd4da64e.jpg""]","",""
"","3772","similarity","148","972623","0.0-6.0-142.0","3","[""img/0902/af45fe42-178c-4c1a-99ef-256e87e3b092.jpg"",""img/0881/c24f3051-eefa-42de-aba6-fccb56d93c70.jpg""]","",""
"","5202","similarity","149","978842","0.0-6.0-143.0","3","[""img/0866/0207e9a2-7dbb-40b5-9459-b472aaeceb2a.jpg"",""img/0864/1d15626a-2f7c-410f-819c-0fa2c967e95e.jpg""]","",""
"","4327","similarity","150","984200","0.0-6.0-144.0","3","[""img/0902/12452bb1-b8c0-4e4d-ad4d-47e279e5933c.jpg"",""img/0898/04e39a7a-fcf6-4156-ab0e-f5871f335e1c.jpg""]","",""
"","4711","similarity","151","989950","0.0-6.0-145.0","5","[""img/0862/fb26cb07-d5a9-4653-813c-f41609f26cd5.jpg"",""img/0864/e336a4c5-6648-4fd7-b2f6-93a3fb83f8c6.jpg""]","",""
"","3560","similarity","152","994537","0.0-6.0-146.0","4","[""img/0875/2e13d160-eea1-416b-aff1-d37ab99ecc1d.jpg"",""img/0898/5f699581-3853-4547-856c-12f419ba5af7.jpg""]","",""
"","4041","similarity","153","999606","0.0-6.0-147.0","5","[""img/0874/99f6563c-8a8d-4c1c-a41d-667b618c3fd5.jpg"",""img/0881/d1982897-8d8d-4704-a940-1ee5d07a1f15.jpg""]","",""
"","4362","similarity","154","1004990","0.0-6.0-148.0","3","[""img/0758/a085b443-b5d7-4cb2-9ad4-b9dab0fc23f1.jpg"",""img/0894/492d2f29-d7b9-4422-8be8-47fd58bfaa8b.jpg""]","",""
"","4680","similarity","155","1010692","0.0-6.0-149.0","3","[""img/0904/fe746a3f-8458-48d0-8a13-8cba2a9df9f8.jpg"",""img/0864/49150900-7f25-4ce8-8d10-9b47a71d1997.jpg""]","",""
"","5057","similarity","156","1016786","0.0-6.0-150.0","4","[""img/0769/4680bcc3-8fbc-4643-8f9a-12aa0e780b64.jpg"",""img/0899/1b3457ea-87d4-4946-a01c-aac1863ed46c.jpg""]","",""
"","3449","similarity","157","1021262","0.0-6.0-151.0","3","[""img/0764/5d6fa3ce-9083-410c-bbdb-336a49b94cfc.jpg"",""img/0903/6378ee1e-3d2b-48d2-87be-bebda32c8268.jpg""]","",""
"","3692","similarity","158","1025990","0.0-6.0-152.0","3","[""img/0903/0a92ec52-4e87-410a-857a-4455cde56a70.jpg"",""img/0864/6e846d43-94a6-4b37-a268-65eda979f052.jpg""]","",""
"","4808","similarity","159","1031826","0.0-6.0-153.0","3","[""img/0894/86201968-6e78-4d68-9b3a-d1692e066210.jpg"",""img/0881/609a5e93-38b5-4940-8627-2bf8fad7f802.jpg""]","",""
"","5157","similarity","160","1038004","0.0-6.0-154.0","7","[""img/0875/527ced51-8e53-4aab-ab05-86df219104c0.jpg"",""img/0867/12264664-1860-46df-8c21-162b9817cdda.jpg""]","",""
"","5946","similarity","161","1044982","0.0-6.0-155.0","2","[""img/0867/6e19c858-b606-45b2-a4c6-910a73f1d82c.jpg"",""img/0758/d57c2592-a317-4f63-91be-91a3a9afd222.jpg""]","",""
"","7330","similarity","162","1053340","0.0-6.0-156.0","3","[""img/0868/c8ac40c7-6904-4e13-8d61-c75d3052dc4e.jpg"",""img/0901/548d1110-7cb8-42a2-9927-9798875c8b5c.jpg""]","",""
"","4416","similarity","163","1058794","0.0-6.0-157.0","3","[""img/0769/3c1203c5-2ce7-466e-957a-8d77b5905460.jpg"",""img/0894/133a1636-d123-4893-873c-1718050f832a.jpg""]","",""
"","5296","similarity","164","1065106","0.0-6.0-158.0","5","[""img/0904/4b8daf2a-13a9-4ea9-9e0b-b265b6e933e7.jpg"",""img/0758/3ddd05d3-557e-4ee7-8b78-9d2d681d8ae2.jpg""]","",""
"","6433","similarity","165","1072560","0.0-6.0-159.0","4","[""img/0874/85eb9b8a-c4c6-4e5a-b8e7-363a87a82054.jpg"",""img/0904/09934646-45d2-4147-8fec-64a22a5ac822.jpg""]","",""
"","3817","similarity","166","1077396","0.0-6.0-160.0","4","[""img/0864/5f33e097-23e3-4002-882d-76e8cb15f451.jpg"",""img/0901/d4d09bf5-093e-4050-838e-7c738be8e63c.jpg""]","",""
"","4242","similarity","167","1082668","0.0-6.0-161.0","5","[""img/0898/661621d4-a14e-487c-8c74-354134a29710.jpg"",""img/0866/d266fece-59b3-46fa-b69f-96f6efb81b59.jpg""]","",""
"","5137","similarity","168","1088832","0.0-6.0-162.0","2","[""img/0766/ea09dd5a-d24d-4e97-a099-7da3db1baef1.jpg"",""img/0903/2c7b4aed-6038-4aac-958a-e3e58341c313.jpg""]","",""
"","4080","similarity","169","1093942","0.0-6.0-163.0","1","[""img/0860/31ff6436-98bf-4652-bed2-40f627229568.jpg"",""img/0899/00715b3f-851b-420b-a26b-d7f79f7759a9.jpg""]","",""
"","4620","similarity","170","1099582","0.0-6.0-164.0","3","[""img/0766/0b48f9e0-7d37-4161-8adb-4e3f5b6b7583.jpg"",""img/0862/eefa5588-9efd-4591-aa5f-a2e17c7d7bcc.jpg""]","",""
"","4964","similarity","171","1105574","0.0-6.0-165.0","1","[""img/0898/a114b375-cb89-44ba-9498-74213f1ecdee.jpg"",""img/0894/b422d5c6-3c5a-49ae-a53e-7e88ac993f49.jpg""]","",""
"","4012","similarity","172","1110622","0.0-6.0-166.0","6","[""img/0867/db7e032f-162b-46f5-ae67-2b29679adee4.jpg"",""img/0766/26d3ae14-8275-4e08-99b2-a6598c193ddf.jpg""]","",""
"","4819","similarity","173","1119473","0.0-6.0-167.0","5","[""img/0904/da170c1b-9651-4f08-b231-2bdd1d9a046f.jpg"",""img/0862/00c06b00-3b73-44e9-bc1e-c5aafb438321.jpg""]","",""
"","6300","similarity","174","1126802","0.0-6.0-168.0","4","[""img/0866/a04d37f0-99dd-478a-b6c6-58b215138f84.jpg"",""img/0874/995f0332-0439-4eb4-add3-957335dbf6d9.jpg""]","",""
"","4088","similarity","175","1131918","0.0-6.0-169.0","5","[""img/0903/f1fa0f8d-e62b-4b4a-a174-31a0fabfe61b.jpg"",""img/0868/7b212364-ff5f-4e28-9241-7eb6ea00161b.jpg""]","",""
"","5683","similarity","176","1138638","0.0-6.0-170.0","5","[""img/0769/ecda2fb3-556b-43ba-8a67-e87dd75ff2b4.jpg"",""img/0904/b7c2a2c8-df33-4473-b3d4-ff7147c60db3.jpg""]","",""
"","3695","similarity","177","1143364","0.0-6.0-171.0","3","[""img/0875/90da8d75-108a-44ad-b999-e21fee3860d3.jpg"",""img/0764/4eff630a-6426-4f8d-b2ba-b4d9842a0962.jpg""]","",""
"","4500","similarity","178","1148896","0.0-6.0-172.0","6","[""img/0860/71e1aad0-2cdf-43bb-94a4-a8c016997c30.jpg"",""img/0903/3e9ee8a5-eb66-47f5-8973-8a5af1ddc87e.jpg""]","",""
"","4593","similarity","179","1154520","0.0-6.0-173.0","5","[""img/0864/0116ca98-293d-4fa6-a93b-5a6144ef64cc.jpg"",""img/0867/075e0f95-856b-4cbb-acf5-092393aaf04e.jpg""]","",""
"","4701","similarity","180","1160254","0.0-6.0-174.0","5","[""img/0868/e0aff734-077f-40dd-9781-74821abd3621.jpg"",""img/0864/f92649a2-0590-4d31-9a7a-1bfb81666a2d.jpg""]","",""
"","4494","similarity","181","1165778","0.0-6.0-175.0","4","[""img/0898/224c1572-56b9-4f16-a9e4-6f3bc9c114bd.jpg"",""img/0769/7c50e5f5-cc38-4d48-b009-fbe17bcea61c.jpg""]","",""
"","5185","similarity","182","1171988","0.0-6.0-176.0","6","[""img/0766/6d32752d-aa05-40dc-9541-640b6e9d6fa1.jpg"",""img/0764/fb92924f-5cfe-4b89-b130-0cce8cc5636b.jpg""]","",""
"","3145","similarity","183","1176168","0.0-6.0-177.0","3","[""img/0764/a86eed5b-d0af-4c3f-8c7a-26e98e98cf1a.jpg"",""img/0866/386235d2-6857-41e7-88a8-25cfc3430025.jpg""]","",""
"","6636","similarity","184","1183824","0.0-6.0-178.0","3","[""img/0902/7f1dcd35-237a-4995-9e42-7f63f3f434d4.jpg"",""img/0875/cff79b3a-a797-4393-9757-6275f999ec04.jpg""]","",""
"","5159","similarity","185","1190014","0.0-6.0-179.0","5","[""img/0881/84397291-bc14-4fbf-90e8-241e486ab0fe.jpg"",""img/0904/73920552-103b-4c9c-9ece-e0b8376b4504.jpg""]","",""
"","4042","similarity","186","1195092","0.0-6.0-180.0","3","[""img/0874/1016b306-087c-4afc-aa08-fa527b28dc76.jpg"",""img/0860/18dfed73-e36b-4487-a8bd-0b8cff8e3668.jpg""]","",""
"","6164","similarity","187","1202294","0.0-6.0-181.0","3","[""img/0769/3adfa417-3b90-4aab-b437-5eaa474189cb.jpg"",""img/0874/3ce41e7c-40c8-4d58-a546-171114521796.jpg""]","",""
"","3501","similarity","188","1206818","0.0-6.0-182.0","3","[""img/0904/06dacdc5-2206-4fb8-92b7-88042d22833c.jpg"",""img/0766/91fc8c4d-862f-4d2b-b1a1-2db8d729b6b7.jpg""]","",""
"","5336","similarity","189","1213170","0.0-6.0-183.0","3","[""img/0902/24d10fe7-314f-4d5a-8c7b-b43121bba0a4.jpg"",""img/0764/62fafeea-6274-48ce-976f-35d3d3484c65.jpg""]","",""
"","5727","similarity","190","1219912","0.0-6.0-184.0","3","[""img/0769/48a1144d-fbda-4809-991b-fc8424a32ee4.jpg"",""img/0875/5a7c4e35-6514-4e12-8879-d16071da4cd6.jpg""]","",""
"","3339","similarity","191","1224286","0.0-6.0-185.0","3","[""img/0867/f8159067-056c-41f1-a136-c529fe5e970a.jpg"",""img/0903/b4a0f61e-a964-4b79-a9a7-f767a8f92f34.jpg""]","",""
"","4868","similarity","192","1230170","0.0-6.0-186.0","2","[""img/0862/92fcd8a4-8193-4a6a-ae09-dd4a6338b0df.jpg"",""img/0769/14d393ce-e5be-4ca1-86ce-cc27d4b6074c.jpg""]","",""
"","3321","similarity","193","1234506","0.0-6.0-187.0","2","[""img/0766/ef3b15ce-abb7-4292-ad93-aec8e8b50520.jpg"",""img/0866/02f5e6b9-52b7-448c-9708-5b460d0c9a23.jpg""]","",""
"","6367","similarity","194","1241916","0.0-6.0-188.0","3","[""img/0769/c34b7763-8ff2-46d5-9e92-f1d8f3bedbd8.jpg"",""img/0860/c47fdead-eb02-4989-b078-26f4852f44fe.jpg""]","",""
"","3054","similarity","195","1246002","0.0-6.0-189.0","1","[""img/0881/b549bc99-a61c-4450-bab5-9efc3a197bf0.jpg"",""img/0868/4e626425-63c8-484a-8a1d-e66ee4e0bef8.jpg""]","",""
"[{""page_index"":0,""viewing_time"":4684}]","4685","instructions","196","1251689","0.0-7.0","","","",""
"","18229","image-multi-choice","197","1271004","0.0-8.0-0.0","","","{""Q0"":""Yellow Warbler""}","Orange-crowned Warbler"
"","24272","image-multi-choice","198","1296346","0.0-8.0-1.0","","","{""Q0"":""Canada Warbler""}","Wilson's Warbler"
"","13078","image-multi-choice","199","1310510","0.0-8.0-2.0","","","{""Q0"":""Blackpoll Warbler""}","Blackpoll Warbler"
"","10005","image-multi-choice","200","1321580","0.0-8.0-3.0","","","{""Q0"":""Blackpoll Warbler""}","Black-and-white Warbler"
"","13880","image-multi-choice","201","1336526","0.0-8.0-4.0","","","{""Q0"":""Ovenbird""}","Yellow-breasted Chat"
"","5693","image-multi-choice","202","1343301","0.0-8.0-5.0","","","{""Q0"":""Black-throated Green Warbler""}","Canada Warbler"
"","9302","image-multi-choice","203","1353674","0.0-8.0-6.0","","","{""Q0"":""Wilson's Warbler""}","Common Yellowthroat"
"","6565","image-multi-choice","204","1361292","0.0-8.0-7.0","","","{""Q0"":""Yellow-breasted Chat""}","American Redstart"
"","6446","image-multi-choice","205","1368815","0.0-8.0-8.0","","","{""Q0"":""Black-and-white Warbler""}","Chestnut-sided Warbler"
"","5041","image-multi-choice","206","1374932","0.0-8.0-9.0","","","{""Q0"":""Magnolia Warbler""}","Black-throated Green Warbler"
"","3081","image-multi-choice","207","1379096","0.0-8.0-10.0","","","{""Q0"":""Blackburnian Warbler""}","Blackburnian Warbler"
"","8427","image-multi-choice","208","1388621","0.0-8.0-11.0","","","{""Q0"":""Northern Parula""}","Yellow-rumped Warbler"
"","7417","image-multi-choice","209","1397090","0.0-8.0-12.0","","","{""Q0"":""Chestnut-sided Warbler""}","Ovenbird"
"","8471","image-multi-choice","210","1406636","0.0-8.0-13.0","","","{""Q0"":""American Redstart""}","Townsend's Warbler"
"","14174","image-multi-choice","211","1421886","0.0-8.0-14.0","","","{""Q0"":""Tennessee Warbler""}","Northern Waterthrush"
"","8107","image-multi-choice","212","1431050","0.0-8.0-15.0","","","{""Q0"":""Common Yellowthroat""}","Yellow Warbler"
"","8771","image-multi-choice","213","1440918","0.0-8.0-16.0","","","{""Q0"":""Yellow-rumped Warbler""}","Nashville Warbler"
"","8339","image-multi-choice","214","1450324","0.0-8.0-17.0","","","{""Q0"":""Chestnut-sided Warbler""}","Northern Parula"
"","4368","image-multi-choice","215","1455746","0.0-8.0-18.0","","","{""Q0"":""Townsend's Warbler""}","Tennessee Warbler"
"","7603","image-multi-choice","216","1464448","0.0-8.0-19.0","","","{""Q0"":""Black-and-white Warbler""}","Magnolia Warbler"
