[{"view_history":"[{\"page_index\":0,\"viewing_time\":17960}]","rt":17961,"trial_type":"instructions","trial_index":0,"time_elapsed":17963,"internal_node_id":"0.0-0.0"},{"sim_score":7,"rt":6226,"stimulus":"[\"img/bluejay1.jpg\",\"img/bluejay2.jpg\"]","trial_type":"similarity_demo","trial_index":1,"time_elapsed":25204,"internal_node_id":"0.0-1.0"},{"view_history":"[{\"page_index\":0,\"viewing_time\":11937}]","rt":11938,"trial_type":"instructions","trial_index":2,"time_elapsed":38144,"internal_node_id":"0.0-2.0"},{"sim_score":2,"rt":5526,"stimulus":"[\"img/bluejay1.jpg\",\"img/cardinal1.jpg\"]","trial_type":"similarity_demo","trial_index":3,"time_elapsed":44680,"internal_node_id":"0.0-3.0"},{"view_history":"[{\"page_index\":0,\"viewing_time\":4661}]","rt":4662,"trial_type":"instructions","trial_index":4,"time_elapsed":50344,"internal_node_id":"0.0-4.0"},{"view_history":"[{\"page_index\":0,\"viewing_time\":16122}]","rt":16122,"trial_type":"instructions","trial_index":5,"time_elapsed":67467,"internal_node_id":"0.0-5.0"},{"sim_score":2,"rt":9648,"stimulus":"[\"img/0868/d6d1f30d-4323-435a-b194-7892521bc57e.jpg\",\"img/0894/767a0eec-1064-46b1-b1aa-dfa02b0cd74e.jpg\"]","trial_type":"similarity","trial_index":6,"time_elapsed":78126,"internal_node_id":"0.0-6.0-0.0"},{"sim_score":2,"rt":5510,"stimulus":"[\"img/0898/0c7dde4f-efce-4b7a-9387-6921635b7890.jpg\",\"img/0758/7ffbc76b-1fc1-432c-8f7e-9ec8d1b3f643.jpg\"]","trial_type":"similarity","trial_index":7,"time_elapsed":84641,"internal_node_id":"0.0-6.0-1.0"},{"sim_score":3,"rt":4651,"stimulus":"[\"img/0903/680ed18e-b311-4ecf-9b00-7dea32128334.jpg\",\"img/0894/38f5931f-926d-414e-b498-66b188978b7a.jpg\"]","trial_type":"similarity","trial_index":8,"time_elapsed":90309,"internal_node_id":"0.0-6.0-2.0"},{"sim_score":2,"rt":6829,"stimulus":"[\"img/0881/20af39f5-373d-4a55-a437-2dc4c0382c46.jpg\",\"img/0766/c23b5a20-e50f-4d85-841f-cf89212a4348.jpg\"]","trial_type":"similarity","trial_index":9,"time_elapsed":98145,"internal_node_id":"0.0-6.0-3.0"},{"sim_score":5,"rt":5154,"stimulus":"[\"img/0864/3651d070-2fc5-4848-b6a6-088a2d9ac5c9.jpg\",\"img/0860/18dfed73-e36b-4487-a8bd-0b8cff8e3668.jpg\"]","trial_type":"similarity","trial_index":10,"time_elapsed":104309,"internal_node_id":"0.0-6.0-4.0"},{"sim_score":3,"rt":4603,"stimulus":"[\"img/0902/24d10fe7-314f-4d5a-8c7b-b43121bba0a4.jpg\",\"img/0899/a05bea16-2bb4-4cb9-b8fb-4ff975db6971.jpg\"]","trial_type":"similarity","trial_index":11,"time_elapsed":109919,"internal_node_id":"0.0-6.0-5.0"},{"sim_score":2,"rt":4787,"stimulus":"[\"img/0868/6a28c3b0-3d76-498a-9fb7-ddafc665eca8.jpg\",\"img/0769/76eaa4a3-dfe9-4dc1-9efb-caebe86264e1.jpg\"]","trial_type":"similarity","trial_index":12,"time_elapsed":115716,"internal_node_id":"0.0-6.0-6.0"},{"sim_score":5,"rt":5239,"stimulus":"[\"img/0764/bc3865c9-9004-4582-88a7-048478673f97.jpg\",\"img/0901/5657dd86-0ff9-4753-ba2b-9dfb223e5c89.jpg\"]","trial_type":"similarity","trial_index":13,"time_elapsed":121963,"internal_node_id":"0.0-6.0-7.0"},{"sim_score":5,"rt":3936,"stimulus":"[\"img/0881/5fe04dd0-5c74-47b7-99c8-b068db9ca26a.jpg\",\"img/0866/be24ab58-230e-4db8-9f45-ff04c9aec6bb.jpg\"]","trial_type":"similarity","trial_index":14,"time_elapsed":126910,"internal_node_id":"0.0-6.0-8.0"},{"sim_score":2,"rt":4296,"stimulus":"[\"img/0867/bf560d4f-dee3-4f11-a385-705cc1aa5f3c.jpg\",\"img/0899/8abe6c69-822c-436c-9bf2-96c818b49ba5.jpg\"]","trial_type":"similarity","trial_index":15,"time_elapsed":132214,"internal_node_id":"0.0-6.0-9.0"},{"sim_score":2,"rt":2945,"stimulus":"[\"img/0875/5a7c4e35-6514-4e12-8879-d16071da4cd6.jpg\",\"img/0766/ba35c0fc-4d5b-490d-959e-c94b279cdd02.jpg\"]","trial_type":"similarity","trial_index":16,"time_elapsed":136168,"internal_node_id":"0.0-6.0-10.0"},{"sim_score":2,"rt":4451,"stimulus":"[\"img/0901/b453df0b-4c39-49bb-8ced-6127efffa898.jpg\",\"img/0875/a4935837-7d3c-4df6-88c1-36a94d4991ca.jpg\"]","trial_type":"similarity","trial_index":17,"time_elapsed":141628,"internal_node_id":"0.0-6.0-11.0"},{"sim_score":3,"rt":5207,"stimulus":"[\"img/0902/aa6fca32-82b0-4414-b20a-8f6f8aa5a2d2.jpg\",\"img/0860/fd4662f9-4c03-4d79-8593-06735e55a64b.jpg\"]","trial_type":"similarity","trial_index":18,"time_elapsed":147842,"internal_node_id":"0.0-6.0-12.0"},{"sim_score":5,"rt":5552,"stimulus":"[\"img/0874/ca76a855-4e77-4f2f-872a-0a718153e7ed.jpg\",\"img/0867/db7e032f-162b-46f5-ae67-2b29679adee4.jpg\"]","trial_type":"similarity","trial_index":19,"time_elapsed":154404,"internal_node_id":"0.0-6.0-13.0"},{"sim_score":2,"rt":4468,"stimulus":"[\"img/0904/2f88ce53-02d0-4f95-a082-182c56a0eeb4.jpg\",\"img/0866/c446214b-a368-4c65-ae39-ea46894256ab.jpg\"]","trial_type":"similarity","trial_index":20,"time_elapsed":159878,"internal_node_id":"0.0-6.0-14.0"},{"sim_score":2,"rt":3953,"stimulus":"[\"img/0758/9fb5b2fe-3f00-4fe6-973c-1ce10d5f4cd5.jpg\",\"img/0902/31abfa33-7cdb-44ad-968e-9f7b324d577a.jpg\"]","trial_type":"similarity","trial_index":21,"time_elapsed":164839,"internal_node_id":"0.0-6.0-15.0"},{"sim_score":2,"rt":3293,"stimulus":"[\"img/0867/2e1a0b58-cdb1-4107-a14e-452530d7b9b0.jpg\",\"img/0898/04e39a7a-fcf6-4156-ab0e-f5871f335e1c.jpg\"]","trial_type":"similarity","trial_index":22,"time_elapsed":169139,"internal_node_id":"0.0-6.0-16.0"},{"sim_score":2,"rt":2809,"stimulus":"[\"img/0904/696ebb60-8891-417a-91fd-c53218907a95.jpg\",\"img/0868/8b0b8473-e2c0-4331-aa56-c3a5c29369da.jpg\"]","trial_type":"similarity","trial_index":23,"time_elapsed":172953,"internal_node_id":"0.0-6.0-17.0"},{"sim_score":2,"rt":2719,"stimulus":"[\"img/0766/ef3b15ce-abb7-4292-ad93-aec8e8b50520.jpg\",\"img/0864/1d15626a-2f7c-410f-819c-0fa2c967e95e.jpg\"]","trial_type":"similarity","trial_index":24,"time_elapsed":176680,"internal_node_id":"0.0-6.0-18.0"},{"sim_score":5,"rt":3953,"stimulus":"[\"img/0899/66ab3178-c3fe-4455-ad17-d5952b08e018.jpg\",\"img/0766/a0270213-fa0e-4972-8b56-228c3e01ff90.jpg\"]","trial_type":"similarity","trial_index":25,"time_elapsed":181642,"internal_node_id":"0.0-6.0-19.0"},{"sim_score":2,"rt":4005,"stimulus":"[\"img/0764/d7f3ac54-318a-4dac-a06b-62bed34d01a4.jpg\",\"img/0758/dd559618-7f09-4a07-8018-d311c4a5ea29.jpg\"]","trial_type":"similarity","trial_index":26,"time_elapsed":186656,"internal_node_id":"0.0-6.0-20.0"},{"sim_score":2,"rt":3372,"stimulus":"[\"img/0901/da4fe30f-d12a-491e-96a2-5ab8ebaadd09.jpg\",\"img/0874/2c9464dd-8a23-4baa-ac94-1ba3af5c15cc.jpg\"]","trial_type":"similarity","trial_index":27,"time_elapsed":191036,"internal_node_id":"0.0-6.0-21.0"},{"sim_score":5,"rt":2870,"stimulus":"[\"img/0875/ebf7653f-ff45-4e9f-af58-2c042ab3cd2b.jpg\",\"img/0758/2fa3e613-e676-4e6e-bd12-705327eeb3e1.jpg\"]","trial_type":"similarity","trial_index":28,"time_elapsed":194912,"internal_node_id":"0.0-6.0-22.0"},{"sim_score":5,"rt":4828,"stimulus":"[\"img/0867/26611f4e-d694-4460-b7e2-43c62753ddc3.jpg\",\"img/0881/d373cb9f-a719-4549-a2a4-82def79fb2a5.jpg\"]","trial_type":"similarity","trial_index":29,"time_elapsed":200747,"internal_node_id":"0.0-6.0-23.0"},{"sim_score":2,"rt":2595,"stimulus":"[\"img/0758/821c68d3-5cb0-4eae-8659-30e6263fca39.jpg\",\"img/0901/50e1d53e-a49f-4806-8610-be6dec5a2475.jpg\"]","trial_type":"similarity","trial_index":30,"time_elapsed":204350,"internal_node_id":"0.0-6.0-24.0"},{"sim_score":6,"rt":4336,"stimulus":"[\"img/0868/179a5502-ab5c-478e-8263-5a1fbcc101d2.jpg\",\"img/0875/42910c99-5463-450a-a0f8-d4d060a11455.jpg\"]","trial_type":"similarity","trial_index":31,"time_elapsed":209693,"internal_node_id":"0.0-6.0-25.0"},{"sim_score":6,"rt":4599,"stimulus":"[\"img/0903/6f343da5-00d9-4d50-89d1-2ed24cdb8319.jpg\",\"img/0901/c6df1a21-44ed-47c2-960e-7c52220e329e.jpg\"]","trial_type":"similarity","trial_index":32,"time_elapsed":215301,"internal_node_id":"0.0-6.0-26.0"},{"sim_score":6,"rt":3742,"stimulus":"[\"img/0894/133a1636-d123-4893-873c-1718050f832a.jpg\",\"img/0899/4408c14d-c168-4a7d-96f6-bc87bfb58f83.jpg\"]","trial_type":"similarity","trial_index":33,"time_elapsed":220049,"internal_node_id":"0.0-6.0-27.0"},{"sim_score":5,"rt":2965,"stimulus":"[\"img/0862/ba89835a-408c-480b-8594-ed4ffa97eb5c.jpg\",\"img/0867/98d8cd96-1476-4fe0-a3a3-04f875500a1b.jpg\"]","trial_type":"similarity","trial_index":34,"time_elapsed":224020,"internal_node_id":"0.0-6.0-28.0"},{"sim_score":5,"rt":2447,"stimulus":"[\"img/0864/da39ad34-04e0-40d4-a724-c08d53e0ea09.jpg\",\"img/0875/8521fd58-3b1e-4dc5-97ae-804edfa6734a.jpg\"]","trial_type":"similarity","trial_index":35,"time_elapsed":227473,"internal_node_id":"0.0-6.0-29.0"},{"sim_score":5,"rt":3327,"stimulus":"[\"img/0862/eefa5588-9efd-4591-aa5f-a2e17c7d7bcc.jpg\",\"img/0874/3f471690-9788-4d03-90c7-f615aecef149.jpg\"]","trial_type":"similarity","trial_index":36,"time_elapsed":231807,"internal_node_id":"0.0-6.0-30.0"},{"sim_score":2,"rt":3513,"stimulus":"[\"img/0903/f45a103c-9bfe-49fd-ad96-bdd8d2589195.jpg\",\"img/0758/a085b443-b5d7-4cb2-9ad4-b9dab0fc23f1.jpg\"]","trial_type":"similarity","trial_index":37,"time_elapsed":236327,"internal_node_id":"0.0-6.0-31.0"},{"sim_score":2,"rt":3206,"stimulus":"[\"img/0866/f756f7d1-9ad8-4a34-9ef6-7a443d705bfe.jpg\",\"img/0901/d4d09bf5-093e-4050-838e-7c738be8e63c.jpg\"]","trial_type":"similarity","trial_index":38,"time_elapsed":240540,"internal_node_id":"0.0-6.0-32.0"},{"sim_score":2,"rt":3735,"stimulus":"[\"img/0874/eba003b4-cdab-4eee-8bc3-f064c7d94165.jpg\",\"img/0899/7b7380d5-d2be-44e5-a09a-c1756f87ef71.jpg\"]","trial_type":"similarity","trial_index":39,"time_elapsed":245283,"internal_node_id":"0.0-6.0-33.0"},{"sim_score":5,"rt":5386,"stimulus":"[\"img/0903/005ad0de-4f52-433c-b515-dbe8d46184a3.jpg\",\"img/0902/ca3160ba-ad5d-459f-a1b6-8b4f3c85ecd5.jpg\"]","trial_type":"similarity","trial_index":40,"time_elapsed":251676,"internal_node_id":"0.0-6.0-34.0"},{"sim_score":5,"rt":3368,"stimulus":"[\"img/0758/eabcd7a8-56ad-4fd2-bc24-90f6b7b33265.jpg\",\"img/0866/93a27239-8317-4e08-98ca-d8b1ff298e07.jpg\"]","trial_type":"similarity","trial_index":41,"time_elapsed":256051,"internal_node_id":"0.0-6.0-35.0"},{"sim_score":2,"rt":2998,"stimulus":"[\"img/0875/3ecb367d-e9eb-4826-8aaa-7aa72fb98019.jpg\",\"img/0903/f67c4ab9-f8c2-4fcd-848a-a54a7b031002.jpg\"]","trial_type":"similarity","trial_index":42,"time_elapsed":260058,"internal_node_id":"0.0-6.0-36.0"},{"sim_score":2,"rt":2882,"stimulus":"[\"img/0864/0f537697-a314-47c3-a8cc-8df23b7e536c.jpg\",\"img/0902/c018bd7a-d91a-4192-aea4-7259cfcdb6c4.jpg\"]","trial_type":"similarity","trial_index":43,"time_elapsed":269971,"internal_node_id":"0.0-6.0-37.0"},{"sim_score":2,"rt":2649,"stimulus":"[\"img/0901/b123d109-47b4-4f9a-80c9-9bb16da42efa.jpg\",\"img/0867/f8159067-056c-41f1-a136-c529fe5e970a.jpg\"]","trial_type":"similarity","trial_index":44,"time_elapsed":273627,"internal_node_id":"0.0-6.0-38.0"},{"sim_score":6,"rt":3843,"stimulus":"[\"img/0862/e0f1a4e9-e1b6-45f7-af67-89f334e6630d.jpg\",\"img/0860/c7047cd2-7cc1-41b6-8a34-c0986774975f.jpg\"]","trial_type":"similarity","trial_index":45,"time_elapsed":278478,"internal_node_id":"0.0-6.0-39.0"},{"sim_score":7,"rt":4199,"stimulus":"[\"img/0867/aa05d113-fc19-4756-a8eb-7878f580bc92.jpg\",\"img/0868/7b212364-ff5f-4e28-9241-7eb6ea00161b.jpg\"]","trial_type":"similarity","trial_index":46,"time_elapsed":283684,"internal_node_id":"0.0-6.0-40.0"},{"sim_score":6,"rt":3850,"stimulus":"[\"img/0904/9b3568cc-3cf7-42be-9df3-fdafde7a58b8.jpg\",\"img/0899/565ccdd9-0933-4536-a625-3c0e25a713dd.jpg\"]","trial_type":"similarity","trial_index":47,"time_elapsed":288541,"internal_node_id":"0.0-6.0-41.0"},{"sim_score":2,"rt":2635,"stimulus":"[\"img/0862/00c06b00-3b73-44e9-bc1e-c5aafb438321.jpg\",\"img/0894/8cadb87a-7001-4e47-99fb-1867bebf1668.jpg\"]","trial_type":"similarity","trial_index":48,"time_elapsed":292184,"internal_node_id":"0.0-6.0-42.0"},{"sim_score":2,"rt":2853,"stimulus":"[\"img/0875/2c361b79-c3d1-4eda-812e-bf03192407bf.jpg\",\"img/0904/4e58005d-a2ec-4aaa-b199-445343561396.jpg\"]","trial_type":"similarity","trial_index":49,"time_elapsed":296047,"internal_node_id":"0.0-6.0-43.0"},{"sim_score":2,"rt":2614,"stimulus":"[\"img/0874/31e22c7c-99aa-40b1-bf03-dd73fa2df4d6.jpg\",\"img/0898/e167334e-cc1d-4986-b3b1-c7bc7da64baa.jpg\"]","trial_type":"similarity","trial_index":50,"time_elapsed":299669,"internal_node_id":"0.0-6.0-44.0"},{"sim_score":2,"rt":2926,"stimulus":"[\"img/0898/40f99fb2-64d2-4e72-8a7f-a1cf60741e69.jpg\",\"img/0868/77091fc7-a590-4ebb-b915-fdb2483a2399.jpg\"]","trial_type":"similarity","trial_index":51,"time_elapsed":303605,"internal_node_id":"0.0-6.0-45.0"},{"sim_score":2,"rt":3101,"stimulus":"[\"img/0901/b13fa50f-dbe0-4d0f-8647-6ac0fd8f40bd.jpg\",\"img/0860/8a92e21b-6a32-4e4a-a445-2d5a487ed0a4.jpg\"]","trial_type":"similarity","trial_index":52,"time_elapsed":307712,"internal_node_id":"0.0-6.0-46.0"},{"sim_score":5,"rt":2904,"stimulus":"[\"img/0894/5c7677b0-a4f1-479e-b274-7822c415175a.jpg\",\"img/0902/e5a46bda-30d1-41ca-b36d-b8529b5a63d1.jpg\"]","trial_type":"similarity","trial_index":53,"time_elapsed":311625,"internal_node_id":"0.0-6.0-47.0"},{"sim_score":2,"rt":3082,"stimulus":"[\"img/0764/4bec8d92-75aa-475a-954d-8215dbe538f5.jpg\",\"img/0862/f43ceabf-acc1-4107-b857-5d1849808f93.jpg\"]","trial_type":"similarity","trial_index":54,"time_elapsed":315713,"internal_node_id":"0.0-6.0-48.0"},{"sim_score":6,"rt":3202,"stimulus":"[\"img/0881/b549bc99-a61c-4450-bab5-9efc3a197bf0.jpg\",\"img/0758/6cd8c362-ae2a-41eb-80a3-3a4f7ace1530.jpg\"]","trial_type":"similarity","trial_index":55,"time_elapsed":319922,"internal_node_id":"0.0-6.0-49.0"},{"sim_score":6,"rt":3537,"stimulus":"[\"img/0766/b84598d0-5b41-4841-88b0-b441b48289f5.jpg\",\"img/0769/688d0c52-ad73-4065-a5eb-f8c10d076bff.jpg\"]","trial_type":"similarity","trial_index":56,"time_elapsed":324467,"internal_node_id":"0.0-6.0-50.0"},{"sim_score":5,"rt":4247,"stimulus":"[\"img/0875/d59ff733-eaff-4ee2-9443-06954dd0bcb6.jpg\",\"img/0866/11a1d141-be5e-443c-98c1-a9d4d9e3dec0.jpg\"]","trial_type":"similarity","trial_index":57,"time_elapsed":329723,"internal_node_id":"0.0-6.0-51.0"},{"sim_score":6,"rt":3786,"stimulus":"[\"img/0894/7fb082e0-ce79-485c-9109-04367fb32275.jpg\",\"img/0904/09dac84f-3d1c-4445-a68e-d0389fdbf1e9.jpg\"]","trial_type":"similarity","trial_index":58,"time_elapsed":334515,"internal_node_id":"0.0-6.0-52.0"},{"sim_score":2,"rt":2601,"stimulus":"[\"img/0758/20497cbe-ddae-489e-86e2-ab06985ed07c.jpg\",\"img/0769/878531fd-e0e8-4ad1-b9ad-f018bb104ca0.jpg\"]","trial_type":"similarity","trial_index":59,"time_elapsed":338123,"internal_node_id":"0.0-6.0-53.0"},{"sim_score":2,"rt":3131,"stimulus":"[\"img/0902/c920f0e1-1c81-480f-a164-c77f2dc6ce9a.jpg\",\"img/0874/a3bc679d-619f-4db6-bb68-116dcb757d9c.jpg\"]","trial_type":"similarity","trial_index":60,"time_elapsed":342261,"internal_node_id":"0.0-6.0-54.0"},{"sim_score":2,"rt":2514,"stimulus":"[\"img/0903/43ffd882-077a-40dd-a264-e58d519420a1.jpg\",\"img/0862/57b6f83f-c763-4858-830d-102f97bfefbf.jpg\"]","trial_type":"similarity","trial_index":61,"time_elapsed":345784,"internal_node_id":"0.0-6.0-55.0"},{"sim_score":2,"rt":3131,"stimulus":"[\"img/0866/9b38d691-1802-4959-ab3f-fc902f0e4ea6.jpg\",\"img/0894/5ff3c4f6-52e2-4075-8679-be0312e59703.jpg\"]","trial_type":"similarity","trial_index":62,"time_elapsed":349923,"internal_node_id":"0.0-6.0-56.0"},{"sim_score":2,"rt":3224,"stimulus":"[\"img/0867/85a96c62-548f-4994-9553-819e03c3135a.jpg\",\"img/0904/0d25eb24-bb20-4e8d-9787-8b489558b4cb.jpg\"]","trial_type":"similarity","trial_index":63,"time_elapsed":354154,"internal_node_id":"0.0-6.0-57.0"},{"sim_score":5,"rt":3640,"stimulus":"[\"img/0875/e7e66b13-b573-431e-b85e-288ce04a35a3.jpg\",\"img/0881/62a64f90-7a72-4aee-a1a1-0c548ac9bdda.jpg\"]","trial_type":"similarity","trial_index":64,"time_elapsed":358802,"internal_node_id":"0.0-6.0-58.0"},{"sim_score":4,"rt":5225,"stimulus":"[\"img/0866/02f5e6b9-52b7-448c-9708-5b460d0c9a23.jpg\",\"img/0860/15b24a61-25be-4356-9eac-5ce95d0cb4a4.jpg\"]","trial_type":"similarity","trial_index":65,"time_elapsed":365034,"internal_node_id":"0.0-6.0-59.0"},{"sim_score":2,"rt":2858,"stimulus":"[\"img/0903/2c7b4aed-6038-4aac-958a-e3e58341c313.jpg\",\"img/0866/d493a2c8-66eb-44b4-be02-2f327b700b7c.jpg\"]","trial_type":"similarity","trial_index":66,"time_elapsed":368899,"internal_node_id":"0.0-6.0-60.0"},{"sim_score":5,"rt":3306,"stimulus":"[\"img/0860/d9a0d117-6d1d-41c0-8fec-9aff0fd9e9f2.jpg\",\"img/0875/527ced51-8e53-4aab-ab05-86df219104c0.jpg\"]","trial_type":"similarity","trial_index":67,"time_elapsed":373213,"internal_node_id":"0.0-6.0-61.0"},{"sim_score":2,"rt":4252,"stimulus":"[\"img/0898/79233891-305a-4a6a-8ddf-5c8604858203.jpg\",\"img/0862/de9ad88c-b522-430a-8ee9-eb06a9f85df5.jpg\"]","trial_type":"similarity","trial_index":68,"time_elapsed":378471,"internal_node_id":"0.0-6.0-62.0"},{"sim_score":5,"rt":3087,"stimulus":"[\"img/0902/d5e25767-e8ec-45f3-ac0a-7b4a6f7a9edc.jpg\",\"img/0766/006035d8-c736-4daf-bbe4-a9e373af9da6.jpg\"]","trial_type":"similarity","trial_index":69,"time_elapsed":382569,"internal_node_id":"0.0-6.0-63.0"},{"sim_score":6,"rt":2510,"stimulus":"[\"img/0758/e38fd80d-18d0-42f3-b848-f930788e8bd7.jpg\",\"img/0864/300bb811-8b3c-4c42-8653-6097c3725197.jpg\"]","trial_type":"similarity","trial_index":70,"time_elapsed":386090,"internal_node_id":"0.0-6.0-64.0"},{"sim_score":2,"rt":3392,"stimulus":"[\"img/0894/76c1201f-8524-4865-85e6-dda8cb4ac986.jpg\",\"img/0860/b03b963d-949b-4d8d-b19c-4950c89eeca2.jpg\"]","trial_type":"similarity","trial_index":71,"time_elapsed":390488,"internal_node_id":"0.0-6.0-65.0"},{"sim_score":2,"rt":3264,"stimulus":"[\"img/0899/4f7bc593-8ddd-4da3-a0b9-84da730d3370.jpg\",\"img/0868/e0aff734-077f-40dd-9781-74821abd3621.jpg\"]","trial_type":"similarity","trial_index":72,"time_elapsed":394760,"internal_node_id":"0.0-6.0-66.0"},{"sim_score":5,"rt":3095,"stimulus":"[\"img/0866/6f2a90d7-14f1-4f1b-bd64-fc0af6b9fe44.jpg\",\"img/0862/847e5208-38ec-4f36-949c-296cdd7424ee.jpg\"]","trial_type":"similarity","trial_index":73,"time_elapsed":398865,"internal_node_id":"0.0-6.0-67.0"},{"sim_score":5,"rt":3068,"stimulus":"[\"img/0860/29a21a9f-54bb-4093-ad3f-04823ceaa89f.jpg\",\"img/0758/e1ba5e53-addc-436a-b428-d34fc1b130dc.jpg\"]","trial_type":"similarity","trial_index":74,"time_elapsed":402941,"internal_node_id":"0.0-6.0-68.0"},{"sim_score":2,"rt":2259,"stimulus":"[\"img/0902/bd89a85f-3853-4786-acd6-98818ee29f1c.jpg\",\"img/0867/075e0f95-856b-4cbb-acf5-092393aaf04e.jpg\"]","trial_type":"similarity","trial_index":75,"time_elapsed":406209,"internal_node_id":"0.0-6.0-69.0"},{"sim_score":2,"rt":3109,"stimulus":"[\"img/0862/a0a3a7ba-7798-46a3-b4ca-05e1f6e581d0.jpg\",\"img/0901/8bb79e82-9c43-4b6f-a655-40655519598b.jpg\"]","trial_type":"similarity","trial_index":76,"time_elapsed":410324,"internal_node_id":"0.0-6.0-70.0"},{"sim_score":7,"rt":5082,"stimulus":"[\"img/0867/f26f6b60-f772-4f4c-95a4-addc62cfd692.jpg\",\"img/0866/a15b02be-11bb-43e3-b0e0-ecc3bd7dfc49.jpg\"]","trial_type":"similarity","trial_index":77,"time_elapsed":416413,"internal_node_id":"0.0-6.0-71.0"},{"sim_score":2,"rt":3997,"stimulus":"[\"img/0860/8277806e-b684-4474-8f7b-3fca946d7d4f.jpg\",\"img/0904/6291eb43-c10c-4810-a36a-101d09868b04.jpg\"]","trial_type":"similarity","trial_index":78,"time_elapsed":421417,"internal_node_id":"0.0-6.0-72.0"},{"sim_score":2,"rt":5842,"stimulus":"[\"img/0875/34132396-d896-4c2d-8087-646dd867e769.jpg\",\"img/0899/66bf4113-ee12-426c-84d2-ea410b6c803e.jpg\"]","trial_type":"similarity","trial_index":79,"time_elapsed":428268,"internal_node_id":"0.0-6.0-73.0"},{"sim_score":2,"rt":2666,"stimulus":"[\"img/0899/0adc0bc3-6fca-4078-be6f-d45ddf1653d5.jpg\",\"img/0758/61d64021-9214-4951-bdf8-f871f9827cf9.jpg\"]","trial_type":"similarity","trial_index":80,"time_elapsed":431941,"internal_node_id":"0.0-6.0-74.0"},{"sim_score":5,"rt":3440,"stimulus":"[\"img/0862/1c20f772-3a51-4a80-aac0-f57dc9f86c28.jpg\",\"img/0875/03c3c331-738b-4446-af92-3d7386b08c2e.jpg\"]","trial_type":"similarity","trial_index":81,"time_elapsed":441226,"internal_node_id":"0.0-6.0-75.0"},{"sim_score":5,"rt":3861,"stimulus":"[\"img/0901/a6776381-91fe-43f8-ab73-261d318f95fd.jpg\",\"img/0894/792c83e9-a747-4000-bc72-5663d2439edb.jpg\"]","trial_type":"similarity","trial_index":82,"time_elapsed":446092,"internal_node_id":"0.0-6.0-76.0"},{"sim_score":2,"rt":2738,"stimulus":"[\"img/0766/2e1cf445-9aef-40e7-92f4-5facf48b64c5.jpg\",\"img/0758/7fba58df-2a7a-4b76-8a8f-62739f97f271.jpg\"]","trial_type":"similarity","trial_index":83,"time_elapsed":449838,"internal_node_id":"0.0-6.0-77.0"},{"sim_score":5,"rt":2937,"stimulus":"[\"img/0894/151063aa-6472-4745-837b-36603aba5966.jpg\",\"img/0764/952d7adc-dc40-4aee-acce-18c2a1d02ea1.jpg\"]","trial_type":"similarity","trial_index":84,"time_elapsed":453787,"internal_node_id":"0.0-6.0-78.0"},{"sim_score":5,"rt":2977,"stimulus":"[\"img/0860/e14d67c1-6d92-4f1e-9257-c8607159c19c.jpg\",\"img/0867/8ba0c5a7-c7e4-42cf-a80a-543763b90779.jpg\"]","trial_type":"similarity","trial_index":85,"time_elapsed":457772,"internal_node_id":"0.0-6.0-79.0"},{"sim_score":5,"rt":3696,"stimulus":"[\"img/0898/5f699581-3853-4547-856c-12f419ba5af7.jpg\",\"img/0901/12da1841-e611-435c-9719-109413d536a8.jpg\"]","trial_type":"similarity","trial_index":86,"time_elapsed":462476,"internal_node_id":"0.0-6.0-80.0"},{"sim_score":2,"rt":3162,"stimulus":"[\"img/0874/adf9a8f1-c40b-402b-b95b-1e85a54a7b62.jpg\",\"img/0764/da207710-e7e4-4f42-b2e6-99b5f357f433.jpg\"]","trial_type":"similarity","trial_index":87,"time_elapsed":466644,"internal_node_id":"0.0-6.0-81.0"},{"sim_score":2,"rt":3761,"stimulus":"[\"img/0899/93494f3b-d539-4075-b027-d82e344563da.jpg\",\"img/0862/ad593cc7-cabe-4bb7-8e14-8a447a0717b4.jpg\"]","trial_type":"similarity","trial_index":88,"time_elapsed":471411,"internal_node_id":"0.0-6.0-82.0"},{"sim_score":5,"rt":2480,"stimulus":"[\"img/0766/ea09dd5a-d24d-4e97-a099-7da3db1baef1.jpg\",\"img/0901/0f670aef-ac36-496d-8142-ee5fdb21dd82.jpg\"]","trial_type":"similarity","trial_index":89,"time_elapsed":474896,"internal_node_id":"0.0-6.0-83.0"},{"sim_score":2,"rt":3243,"stimulus":"[\"img/0881/7e31e5dc-2240-4b1b-b5a0-3acd980099ef.jpg\",\"img/0898/81b08535-2020-4c15-9ce4-2f1e460755ae.jpg\"]","trial_type":"similarity","trial_index":90,"time_elapsed":479146,"internal_node_id":"0.0-6.0-84.0"},{"sim_score":5,"rt":3654,"stimulus":"[\"img/0868/15dd6fd7-791e-4b53-b203-195d617521a4.jpg\",\"img/0860/71e1aad0-2cdf-43bb-94a4-a8c016997c30.jpg\"]","trial_type":"similarity","trial_index":91,"time_elapsed":483807,"internal_node_id":"0.0-6.0-85.0"},{"sim_score":5,"rt":2852,"stimulus":"[\"img/0758/caa93da2-9edf-49fa-96b9-32dedd8f5078.jpg\",\"img/0868/4bd5105a-d2c3-4f82-8c80-57196106ba53.jpg\"]","trial_type":"similarity","trial_index":92,"time_elapsed":487670,"internal_node_id":"0.0-6.0-86.0"},{"sim_score":2,"rt":2423,"stimulus":"[\"img/0864/b3c4e378-28f0-4699-9338-2a257b4bca04.jpg\",\"img/0894/3adef67d-7676-4995-80b2-bb31b8aca3ef.jpg\"]","trial_type":"similarity","trial_index":93,"time_elapsed":491100,"internal_node_id":"0.0-6.0-87.0"},{"sim_score":2,"rt":2673,"stimulus":"[\"img/0866/23a224f3-2012-4fc8-8e0f-3c36f8de27fd.jpg\",\"img/0902/0eb85fbc-27c8-41df-9d0b-a5f9efd417d1.jpg\"]","trial_type":"similarity","trial_index":94,"time_elapsed":494783,"internal_node_id":"0.0-6.0-88.0"},{"sim_score":2,"rt":3996,"stimulus":"[\"img/0769/11518cb3-13ea-4dd0-890c-30cfab728ade.jpg\",\"img/0867/f8488a47-94ee-4166-952c-44e16cf172f6.jpg\"]","trial_type":"similarity","trial_index":95,"time_elapsed":499785,"internal_node_id":"0.0-6.0-89.0"},{"sim_score":5,"rt":4360,"stimulus":"[\"img/0874/29830da7-be5f-44e5-b141-652a0ccf7269.jpg\",\"img/0875/5a716432-c6ca-4b1c-955a-2b8ac25198ee.jpg\"]","trial_type":"similarity","trial_index":96,"time_elapsed":505151,"internal_node_id":"0.0-6.0-90.0"},{"sim_score":6,"rt":3338,"stimulus":"[\"img/0864/65210d57-1153-4657-886a-32e758f49b4a.jpg\",\"img/0874/99f6563c-8a8d-4c1c-a41d-667b618c3fd5.jpg\"]","trial_type":"similarity","trial_index":97,"time_elapsed":509496,"internal_node_id":"0.0-6.0-91.0"},{"sim_score":5,"rt":2527,"stimulus":"[\"img/0881/48ed65a5-471f-41af-86ec-3793805c116d.jpg\",\"img/0862/4f0a3b4c-afbf-486e-b248-1d54982f54b4.jpg\"]","trial_type":"similarity","trial_index":98,"time_elapsed":513034,"internal_node_id":"0.0-6.0-92.0"},{"sim_score":6,"rt":2805,"stimulus":"[\"img/0864/ea327690-500b-4137-bf91-451b309fe6a5.jpg\",\"img/0881/f8bd891e-aa09-4782-89db-33e7cb2b0cf1.jpg\"]","trial_type":"similarity","trial_index":99,"time_elapsed":516850,"internal_node_id":"0.0-6.0-93.0"},{"sim_score":5,"rt":4311,"stimulus":"[\"img/0899/56a605c3-d0a2-4215-89e1-779279d85a7c.jpg\",\"img/0901/00acf6c1-b66e-4060-bb04-4caf29b5a8b0.jpg\"]","trial_type":"similarity","trial_index":100,"time_elapsed":522169,"internal_node_id":"0.0-6.0-94.0"},{"sim_score":2,"rt":2844,"stimulus":"[\"img/0874/8cdb1c07-1c32-46d2-981c-3636560fa6e5.jpg\",\"img/0766/d919cedb-f9b7-4f30-83bb-3e9c65001ceb.jpg\"]","trial_type":"similarity","trial_index":101,"time_elapsed":526021,"internal_node_id":"0.0-6.0-95.0"},{"sim_score":2,"rt":3462,"stimulus":"[\"img/0881/1407b85b-a1c6-45b1-9884-3b24203efadb.jpg\",\"img/0899/d8f2dd94-570e-4e8c-a087-d96090fb9e8c.jpg\"]","trial_type":"similarity","trial_index":102,"time_elapsed":530489,"internal_node_id":"0.0-6.0-96.0"},{"sim_score":2,"rt":3691,"stimulus":"[\"img/0862/24cdc752-c2e5-4a17-86a6-6f2045d8553b.jpg\",\"img/0902/3b243e54-0803-4c29-af42-4037c2118495.jpg\"]","trial_type":"similarity","trial_index":103,"time_elapsed":535187,"internal_node_id":"0.0-6.0-97.0"},{"sim_score":5,"rt":4197,"stimulus":"[\"img/0899/0e1d936a-dbe2-4afc-9f19-7b7a1ae6c9ed.jpg\",\"img/0764/1f95ab5f-fb65-4d70-b5db-d6bd6351a8aa.jpg\"]","trial_type":"similarity","trial_index":104,"time_elapsed":540394,"internal_node_id":"0.0-6.0-98.0"},{"sim_score":5,"rt":3857,"stimulus":"[\"img/0758/a709631e-3705-4725-ac40-f0d916924f08.jpg\",\"img/0862/92f0146c-20c4-482e-aef5-adb693790338.jpg\"]","trial_type":"similarity","trial_index":105,"time_elapsed":545261,"internal_node_id":"0.0-6.0-99.0"},{"sim_score":5,"rt":3012,"stimulus":"[\"img/0764/fb92924f-5cfe-4b89-b130-0cce8cc5636b.jpg\",\"img/0898/f3a3f225-1248-4ac7-b93b-f0ff28485bf3.jpg\"]","trial_type":"similarity","trial_index":106,"time_elapsed":549279,"internal_node_id":"0.0-6.0-100.0"},{"sim_score":6,"rt":2924,"stimulus":"[\"img/0901/3db47171-0139-4235-82cd-0b1787b6775f.jpg\",\"img/0902/10d99c89-71f7-4c81-a31e-dfc7c59f5232.jpg\"]","trial_type":"similarity","trial_index":107,"time_elapsed":553208,"internal_node_id":"0.0-6.0-101.0"},{"sim_score":2,"rt":2643,"stimulus":"[\"img/0764/c84fbfa8-521c-407a-9bd3-24f7308d896c.jpg\",\"img/0868/293079b8-7e0c-4afd-a390-1e5d35fe3ded.jpg\"]","trial_type":"similarity","trial_index":108,"time_elapsed":556858,"internal_node_id":"0.0-6.0-102.0"},{"sim_score":2,"rt":2973,"stimulus":"[\"img/0769/f6396414-6788-4d59-9683-de153298d89c.jpg\",\"img/0881/f62bdcd1-a4b7-4d48-83da-d9c9e01c8727.jpg\"]","trial_type":"similarity","trial_index":109,"time_elapsed":560840,"internal_node_id":"0.0-6.0-103.0"},{"sim_score":2,"rt":2735,"stimulus":"[\"img/0864/87c467d3-abca-482f-ad80-3766c21b1bb3.jpg\",\"img/0769/180213e5-1e50-4b4e-87b6-add77ba04d39.jpg\"]","trial_type":"similarity","trial_index":110,"time_elapsed":564586,"internal_node_id":"0.0-6.0-104.0"},{"sim_score":6,"rt":2859,"stimulus":"[\"img/0866/a04d37f0-99dd-478a-b6c6-58b215138f84.jpg\",\"img/0868/83b4350a-3b70-4cea-b7f5-b5b56f3050a8.jpg\"]","trial_type":"similarity","trial_index":111,"time_elapsed":568451,"internal_node_id":"0.0-6.0-105.0"},{"sim_score":5,"rt":2177,"stimulus":"[\"img/0868/4e626425-63c8-484a-8a1d-e66ee4e0bef8.jpg\",\"img/0862/92fcd8a4-8193-4a6a-ae09-dd4a6338b0df.jpg\"]","trial_type":"similarity","trial_index":112,"time_elapsed":571635,"internal_node_id":"0.0-6.0-106.0"},{"sim_score":5,"rt":2664,"stimulus":"[\"img/0766/a754e4b6-5019-4cf4-8f58-34c20547a1f5.jpg\",\"img/0898/224c1572-56b9-4f16-a9e4-6f3bc9c114bd.jpg\"]","trial_type":"similarity","trial_index":113,"time_elapsed":575306,"internal_node_id":"0.0-6.0-107.0"},{"sim_score":2,"rt":2344,"stimulus":"[\"img/0898/ec565187-2e31-4fdd-9a5c-153d0c789ae0.jpg\",\"img/0864/e02eddb5-f468-499c-91bf-f7be3ffe979b.jpg\"]","trial_type":"similarity","trial_index":114,"time_elapsed":578656,"internal_node_id":"0.0-6.0-108.0"},{"sim_score":2,"rt":4165,"stimulus":"[\"img/0868/09a9ef4d-d000-4cfa-a6aa-ebec7c2edeb4.jpg\",\"img/0902/2db723b6-130f-454c-8c8d-88829edbcd65.jpg\"]","trial_type":"similarity","trial_index":115,"time_elapsed":583830,"internal_node_id":"0.0-6.0-109.0"},{"sim_score":6,"rt":4497,"stimulus":"[\"img/0904/73920552-103b-4c9c-9ece-e0b8376b4504.jpg\",\"img/0764/d0bef2e0-e16b-4c82-9451-c1d16265eb67.jpg\"]","trial_type":"similarity","trial_index":116,"time_elapsed":589335,"internal_node_id":"0.0-6.0-110.0"},{"sim_score":2,"rt":2472,"stimulus":"[\"img/0894/43216a7f-27bc-4b5a-8841-d122a30da9d9.jpg\",\"img/0875/90da8d75-108a-44ad-b999-e21fee3860d3.jpg\"]","trial_type":"similarity","trial_index":117,"time_elapsed":592814,"internal_node_id":"0.0-6.0-111.0"},{"sim_score":5,"rt":2968,"stimulus":"[\"img/0868/d98ca254-b195-477f-b57e-5760a2717db8.jpg\",\"img/0874/767f289c-9814-4496-803f-745cc8913d1f.jpg\"]","trial_type":"similarity","trial_index":118,"time_elapsed":596789,"internal_node_id":"0.0-6.0-112.0"},{"sim_score":6,"rt":3682,"stimulus":"[\"img/0904/5cceabc9-de1d-4c67-989b-c28a4ef77e79.jpg\",\"img/0898/881e2a85-d5c2-49be-a0c6-8a6ce2c4af08.jpg\"]","trial_type":"similarity","trial_index":119,"time_elapsed":604351,"internal_node_id":"0.0-6.0-113.0"},{"sim_score":2,"rt":2919,"stimulus":"[\"img/0860/702bd09d-df3a-40aa-a267-5f04474305b5.jpg\",\"img/0766/5d1b8041-c5a1-4b02-b4fe-3453d98a0d72.jpg\"]","trial_type":"similarity","trial_index":120,"time_elapsed":608279,"internal_node_id":"0.0-6.0-114.0"},{"sim_score":2,"rt":2883,"stimulus":"[\"img/0894/5a49e858-2850-4892-9a06-e9f0efb5f94d.jpg\",\"img/0874/3ce41e7c-40c8-4d58-a546-171114521796.jpg\"]","trial_type":"similarity","trial_index":121,"time_elapsed":612170,"internal_node_id":"0.0-6.0-115.0"},{"sim_score":5,"rt":4092,"stimulus":"[\"img/0899/76ad07e2-ca25-45eb-84f2-8d80b8ca3e26.jpg\",\"img/0903/bf0a7d60-eca5-44b0-bafd-baf21db9904b.jpg\"]","trial_type":"similarity","trial_index":122,"time_elapsed":617267,"internal_node_id":"0.0-6.0-116.0"},{"sim_score":2,"rt":2389,"stimulus":"[\"img/0881/405484ae-0d00-4b05-bc57-6420a36adfac.jpg\",\"img/0764/713cc27e-2338-4486-bfe9-5f5725fbd7a0.jpg\"]","trial_type":"similarity","trial_index":123,"time_elapsed":620662,"internal_node_id":"0.0-6.0-117.0"},{"sim_score":5,"rt":3307,"stimulus":"[\"img/0903/14f179a2-8786-48a2-8377-88d1d404341b.jpg\",\"img/0769/c34b7763-8ff2-46d5-9e92-f1d8f3bedbd8.jpg\"]","trial_type":"similarity","trial_index":124,"time_elapsed":624974,"internal_node_id":"0.0-6.0-118.0"},{"sim_score":5,"rt":3031,"stimulus":"[\"img/0901/4ca4f962-40c0-4c59-b14a-3cd7b8c9029b.jpg\",\"img/0904/2c98dc56-88d1-4fb5-a999-b6a7861f65f0.jpg\"]","trial_type":"similarity","trial_index":125,"time_elapsed":629011,"internal_node_id":"0.0-6.0-119.0"},{"sim_score":5,"rt":2894,"stimulus":"[\"img/0860/31ff6436-98bf-4652-bed2-40f627229568.jpg\",\"img/0881/667e2147-d457-4f32-aa5f-6ab86e5848f1.jpg\"]","trial_type":"similarity","trial_index":126,"time_elapsed":632912,"internal_node_id":"0.0-6.0-120.0"},{"sim_score":6,"rt":3793,"stimulus":"[\"img/0758/6e95579b-5166-487c-b8cb-e417c6a218e3.jpg\",\"img/0874/995f0332-0439-4eb4-add3-957335dbf6d9.jpg\"]","trial_type":"similarity","trial_index":127,"time_elapsed":637711,"internal_node_id":"0.0-6.0-121.0"},{"sim_score":5,"rt":2717,"stimulus":"[\"img/0901/f469cb1d-6d81-4a45-bab5-cd0b650c2b4f.jpg\",\"img/0769/04347740-f8f6-48bb-887a-f68babd0a0d4.jpg\"]","trial_type":"similarity","trial_index":128,"time_elapsed":641435,"internal_node_id":"0.0-6.0-122.0"},{"sim_score":6,"rt":2909,"stimulus":"[\"img/0902/6c2c243a-f663-45db-baf5-038d3d58c589.jpg\",\"img/0904/4b8daf2a-13a9-4ea9-9e0b-b265b6e933e7.jpg\"]","trial_type":"similarity","trial_index":129,"time_elapsed":645354,"internal_node_id":"0.0-6.0-123.0"},{"sim_score":2,"rt":44927,"stimulus":"[\"img/0899/00715b3f-851b-420b-a26b-d7f79f7759a9.jpg\",\"img/0864/4bd81bc6-c13d-46df-95a9-485886dc7c1b.jpg\"]","trial_type":"similarity","trial_index":130,"time_elapsed":691289,"internal_node_id":"0.0-6.0-124.0"},{"sim_score":2,"rt":3619,"stimulus":"[\"img/0766/dd3e18d0-0c98-4d05-b850-69976ee8cd75.jpg\",\"img/0868/4a8a45ed-2c4f-421b-9564-409a33ecd26c.jpg\"]","trial_type":"similarity","trial_index":131,"time_elapsed":695917,"internal_node_id":"0.0-6.0-125.0"},{"sim_score":2,"rt":3164,"stimulus":"[\"img/0764/978aede9-4590-4ad0-b234-135c83e5d669.jpg\",\"img/0864/c3b63e8f-ea39-4d70-a1f2-b3fe4be8eb75.jpg\"]","trial_type":"similarity","trial_index":132,"time_elapsed":700088,"internal_node_id":"0.0-6.0-126.0"},{"sim_score":2,"rt":2723,"stimulus":"[\"img/0899/0433d056-aa30-4f8a-9aa1-abbb951e4edd.jpg\",\"img/0866/0207e9a2-7dbb-40b5-9459-b472aaeceb2a.jpg\"]","trial_type":"similarity","trial_index":133,"time_elapsed":703821,"internal_node_id":"0.0-6.0-127.0"},{"sim_score":2,"rt":5141,"stimulus":"[\"img/0901/1e23ffbd-19de-4c4f-aa23-c54aaa3319a3.jpg\",\"img/0881/f6bd3b96-dc40-4e99-8681-bc3a35cf896d.jpg\"]","trial_type":"similarity","trial_index":134,"time_elapsed":709969,"internal_node_id":"0.0-6.0-128.0"},{"sim_score":6,"rt":9619,"stimulus":"[\"img/0898/01bfe666-3510-4fc7-964f-d00d28732dc8.jpg\",\"img/0903/0fb24af7-9a26-4e9d-aadc-959a36f683e2.jpg\"]","trial_type":"similarity","trial_index":135,"time_elapsed":720598,"internal_node_id":"0.0-6.0-129.0"},{"sim_score":2,"rt":3181,"stimulus":"[\"img/0894/6b2e9509-8699-42b7-9582-7741df0ba2d7.jpg\",\"img/0867/c66898ba-b71b-4d50-84f9-f7f84853a98d.jpg\"]","trial_type":"similarity","trial_index":136,"time_elapsed":724787,"internal_node_id":"0.0-6.0-130.0"},{"sim_score":2,"rt":2367,"stimulus":"[\"img/0874/93d1f8dc-acf2-4f03-bd8d-8ec35df276ed.jpg\",\"img/0903/8f7f9939-b8e6-433f-93dd-b362496c80a7.jpg\"]","trial_type":"similarity","trial_index":137,"time_elapsed":728164,"internal_node_id":"0.0-6.0-131.0"},{"sim_score":5,"rt":4929,"stimulus":"[\"img/0899/f95cbdb4-f804-4f5d-ad76-373ad343e658.jpg\",\"img/0898/b3290bf9-215b-4b45-b21a-65bdf73f142f.jpg\"]","trial_type":"similarity","trial_index":138,"time_elapsed":734099,"internal_node_id":"0.0-6.0-132.0"},{"sim_score":2,"rt":2711,"stimulus":"[\"img/0867/6e19c858-b606-45b2-a4c6-910a73f1d82c.jpg\",\"img/0764/d7c215ab-ea9a-45be-8d5f-417d5b9a8a17.jpg\"]","trial_type":"similarity","trial_index":139,"time_elapsed":737817,"internal_node_id":"0.0-6.0-133.0"},{"sim_score":2,"rt":6131,"stimulus":"[\"img/0866/620cd1aa-0800-4414-8f6e-90342e7a99ad.jpg\",\"img/0769/3adfa417-3b90-4aab-b437-5eaa474189cb.jpg\"]","trial_type":"similarity","trial_index":140,"time_elapsed":744956,"internal_node_id":"0.0-6.0-134.0"},{"sim_score":2,"rt":3095,"stimulus":"[\"img/0860/4a022222-056d-461c-ab02-39fac9647552.jpg\",\"img/0898/cd3aaa3f-efa9-4ab3-8d6f-a6a9273ddf42.jpg\"]","trial_type":"similarity","trial_index":141,"time_elapsed":749057,"internal_node_id":"0.0-6.0-135.0"},{"sim_score":2,"rt":2664,"stimulus":"[\"img/0881/e6746727-7f89-47ec-b939-d98abe78372d.jpg\",\"img/0903/31b5a5f4-b695-4af1-bad2-a19650a05498.jpg\"]","trial_type":"similarity","trial_index":142,"time_elapsed":752730,"internal_node_id":"0.0-6.0-136.0"},{"sim_score":5,"rt":4481,"stimulus":"[\"img/0894/7f2f31fd-6618-41c6-b65a-0fd8b2851bc9.jpg\",\"img/0766/71b81ebd-0937-4d7f-b8bf-c4e46a4728fd.jpg\"]","trial_type":"similarity","trial_index":143,"time_elapsed":758218,"internal_node_id":"0.0-6.0-137.0"},{"sim_score":2,"rt":5358,"stimulus":"[\"img/0860/c47fdead-eb02-4989-b078-26f4852f44fe.jpg\",\"img/0764/8389e74f-e0e0-435d-945f-da1f4c92ccb6.jpg\"]","trial_type":"similarity","trial_index":144,"time_elapsed":764583,"internal_node_id":"0.0-6.0-138.0"},{"sim_score":5,"rt":3989,"stimulus":"[\"img/0769/1d8734c4-77ab-4165-9e71-5cfe672ff01c.jpg\",\"img/0902/40d0b6ec-3907-4573-b227-e7d8e9cad1c3.jpg\"]","trial_type":"similarity","trial_index":145,"time_elapsed":769579,"internal_node_id":"0.0-6.0-139.0"},{"sim_score":5,"rt":3993,"stimulus":"[\"img/0904/2fd488e9-960f-41f7-8a44-33375f7d5051.jpg\",\"img/0903/24477210-856c-4550-9de0-9f85a32762eb.jpg\"]","trial_type":"similarity","trial_index":146,"time_elapsed":774578,"internal_node_id":"0.0-6.0-140.0"},{"sim_score":5,"rt":5208,"stimulus":"[\"img/0764/cffc80b0-4a90-4acb-a530-6f480f3ca303.jpg\",\"img/0769/47700831-0ca2-4fdd-a498-a3bc5a528f43.jpg\"]","trial_type":"similarity","trial_index":147,"time_elapsed":780794,"internal_node_id":"0.0-6.0-141.0"},{"sim_score":2,"rt":2900,"stimulus":"[\"img/0902/d49743d6-67ae-4c2e-a939-8fd895a0f18e.jpg\",\"img/0881/14236cf2-6b95-48b8-9368-78af09d2d27f.jpg\"]","trial_type":"similarity","trial_index":148,"time_elapsed":784701,"internal_node_id":"0.0-6.0-142.0"},{"sim_score":5,"rt":5715,"stimulus":"[\"img/0866/945c6710-d15b-4a5b-a8f6-69af0850357f.jpg\",\"img/0864/6e846d43-94a6-4b37-a268-65eda979f052.jpg\"]","trial_type":"similarity","trial_index":149,"time_elapsed":791422,"internal_node_id":"0.0-6.0-143.0"},{"sim_score":6,"rt":4973,"stimulus":"[\"img/0902/44cd9b7e-fdfb-4f78-90de-8d4c9d279365.jpg\",\"img/0898/661621d4-a14e-487c-8c74-354134a29710.jpg\"]","trial_type":"similarity","trial_index":150,"time_elapsed":797400,"internal_node_id":"0.0-6.0-144.0"},{"sim_score":5,"rt":3117,"stimulus":"[\"img/0862/064818ee-13d5-4618-bb24-21c7368ea278.jpg\",\"img/0864/3d4de670-b290-4285-9c3d-12a0e3af44e9.jpg\"]","trial_type":"similarity","trial_index":151,"time_elapsed":801523,"internal_node_id":"0.0-6.0-145.0"},{"sim_score":2,"rt":3310,"stimulus":"[\"img/0875/fb732ab5-013a-4366-9f65-27811ed157e9.jpg\",\"img/0898/4184e5a2-84ea-4f36-9b42-ae58646f6f87.jpg\"]","trial_type":"similarity","trial_index":152,"time_elapsed":805840,"internal_node_id":"0.0-6.0-146.0"},{"sim_score":6,"rt":4410,"stimulus":"[\"img/0874/7e4f2150-3b59-4a36-b5da-a4e0ba410531.jpg\",\"img/0881/f4e3e181-b3c9-4af2-a5a4-fc135ab70d2e.jpg\"]","trial_type":"similarity","trial_index":153,"time_elapsed":811255,"internal_node_id":"0.0-6.0-147.0"},{"sim_score":2,"rt":3243,"stimulus":"[\"img/0758/67c0be2f-9e91-48b3-8219-70ac0a1802fa.jpg\",\"img/0894/3664e04c-c6d3-4c9b-afb6-25d89974b174.jpg\"]","trial_type":"similarity","trial_index":154,"time_elapsed":815505,"internal_node_id":"0.0-6.0-148.0"},{"sim_score":2,"rt":2759,"stimulus":"[\"img/0904/56e73f28-7e64-489b-a161-e6b1a063878d.jpg\",\"img/0864/5f33e097-23e3-4002-882d-76e8cb15f451.jpg\"]","trial_type":"similarity","trial_index":155,"time_elapsed":819271,"internal_node_id":"0.0-6.0-149.0"},{"sim_score":5,"rt":3591,"stimulus":"[\"img/0769/a3cfbdeb-acb3-4eac-87fb-4b117f42d4f8.jpg\",\"img/0899/fef567a2-c121-4481-9af0-ff108d199bbf.jpg\"]","trial_type":"similarity","trial_index":156,"time_elapsed":823873,"internal_node_id":"0.0-6.0-150.0"},{"sim_score":5,"rt":2520,"stimulus":"[\"img/0764/56441045-b648-4ede-9632-3e9c0227080b.jpg\",\"img/0903/0a92ec52-4e87-410a-857a-4455cde56a70.jpg\"]","trial_type":"similarity","trial_index":157,"time_elapsed":831292,"internal_node_id":"0.0-6.0-151.0"},{"sim_score":2,"rt":2202,"stimulus":"[\"img/0903/b0a3c45f-467e-412f-a183-c9c1827f2e63.jpg\",\"img/0864/6f631579-acf1-415c-a42c-1207f62a8d99.jpg\"]","trial_type":"similarity","trial_index":158,"time_elapsed":834500,"internal_node_id":"0.0-6.0-152.0"},{"sim_score":2,"rt":2827,"stimulus":"[\"img/0894/1a010553-d598-4b06-a772-81f1e7b3addb.jpg\",\"img/0881/d1982897-8d8d-4704-a940-1ee5d07a1f15.jpg\"]","trial_type":"similarity","trial_index":159,"time_elapsed":838337,"internal_node_id":"0.0-6.0-153.0"},{"sim_score":5,"rt":2703,"stimulus":"[\"img/0875/cff79b3a-a797-4393-9757-6275f999ec04.jpg\",\"img/0867/cc72ed48-7704-422c-86d6-467a1145287a.jpg\"]","trial_type":"similarity","trial_index":160,"time_elapsed":842047,"internal_node_id":"0.0-6.0-154.0"},{"sim_score":5,"rt":5605,"stimulus":"[\"img/0867/1719a35d-f085-48c0-9099-16c94fe418b4.jpg\",\"img/0758/b76ceca7-95ac-46e4-ac13-da02c8e93be9.jpg\"]","trial_type":"similarity","trial_index":161,"time_elapsed":848658,"internal_node_id":"0.0-6.0-155.0"},{"sim_score":4,"rt":109,"stimulus":"[\"img/0868/c8ac40c7-6904-4e13-8d61-c75d3052dc4e.jpg\",\"img/0901/04a53755-6da5-44d4-a7a6-48a6bc0a2280.jpg\"]","trial_type":"similarity","trial_index":162,"time_elapsed":849772,"internal_node_id":"0.0-6.0-156.0"},{"sim_score":6,"rt":4941,"stimulus":"[\"img/0769/7c50e5f5-cc38-4d48-b009-fbe17bcea61c.jpg\",\"img/0894/2217bdcd-23a7-42d3-823b-23f2488d7e87.jpg\"]","trial_type":"similarity","trial_index":163,"time_elapsed":855719,"internal_node_id":"0.0-6.0-157.0"},{"sim_score":2,"rt":4839,"stimulus":"[\"img/0904/65e2b70a-b184-4da3-b5c0-5038bdf9469a.jpg\",\"img/0758/d540bee6-b460-4c32-ac57-bc282742d7d4.jpg\"]","trial_type":"similarity","trial_index":164,"time_elapsed":861566,"internal_node_id":"0.0-6.0-158.0"},{"sim_score":2,"rt":3731,"stimulus":"[\"img/0874/ca23d307-fc00-4d7d-9106-584c6eb21b4d.jpg\",\"img/0904/da170c1b-9651-4f08-b231-2bdd1d9a046f.jpg\"]","trial_type":"similarity","trial_index":165,"time_elapsed":866304,"internal_node_id":"0.0-6.0-159.0"},{"sim_score":2,"rt":2498,"stimulus":"[\"img/0864/8ddd2e30-a1d0-479f-9cbe-591213023893.jpg\",\"img/0901/bc47e078-bda4-40ed-b89a-bbd819164b95.jpg\"]","trial_type":"similarity","trial_index":166,"time_elapsed":869810,"internal_node_id":"0.0-6.0-160.0"},{"sim_score":2,"rt":2879,"stimulus":"[\"img/0898/82231d4c-218b-4d0a-b50d-35a49b524e97.jpg\",\"img/0866/386235d2-6857-41e7-88a8-25cfc3430025.jpg\"]","trial_type":"similarity","trial_index":167,"time_elapsed":873696,"internal_node_id":"0.0-6.0-161.0"},{"sim_score":5,"rt":2937,"stimulus":"[\"img/0766/79767d11-b612-4e8a-9e4b-a8ac95bb6a54.jpg\",\"img/0903/d987e220-f3e6-4b6d-a270-fe6757041f6d.jpg\"]","trial_type":"similarity","trial_index":168,"time_elapsed":877639,"internal_node_id":"0.0-6.0-162.0"},{"sim_score":2,"rt":2450,"stimulus":"[\"img/0860/5bff793e-cbd5-4d7e-b628-0ac2b0e30b64.jpg\",\"img/0899/06b0fc99-0581-461a-9913-d1a5a941ac61.jpg\"]","trial_type":"similarity","trial_index":169,"time_elapsed":881097,"internal_node_id":"0.0-6.0-163.0"},{"sim_score":2,"rt":2335,"stimulus":"[\"img/0766/0025de5e-f620-4079-8a0f-00326ff3a6b0.jpg\",\"img/0862/f23038d4-c366-4f70-979f-66b62362efa4.jpg\"]","trial_type":"similarity","trial_index":170,"time_elapsed":884438,"internal_node_id":"0.0-6.0-164.0"},{"sim_score":5,"rt":4013,"stimulus":"[\"img/0898/993d8f2d-bef7-4251-a193-0f93a32b7763.jpg\",\"img/0894/e5edf723-72a5-4673-8441-6c1734a8929b.jpg\"]","trial_type":"similarity","trial_index":171,"time_elapsed":889459,"internal_node_id":"0.0-6.0-165.0"},{"sim_score":2,"rt":2885,"stimulus":"[\"img/0867/50a1b60e-3a29-44bf-b606-d4bd3746fea9.jpg\",\"img/0766/0bf3793e-c353-45e5-ac6f-753f5f484e10.jpg\"]","trial_type":"similarity","trial_index":172,"time_elapsed":893351,"internal_node_id":"0.0-6.0-166.0"},{"sim_score":2,"rt":2321,"stimulus":"[\"img/0904/e9423a8c-f946-43ad-ab7b-931acef870e2.jpg\",\"img/0862/fad1d7c1-8187-43c3-942a-0fc12183e48e.jpg\"]","trial_type":"similarity","trial_index":173,"time_elapsed":896682,"internal_node_id":"0.0-6.0-167.0"},{"sim_score":5,"rt":3158,"stimulus":"[\"img/0866/d266fece-59b3-46fa-b69f-96f6efb81b59.jpg\",\"img/0874/bf14b896-e930-4fd9-9c05-2e83317a2773.jpg\"]","trial_type":"similarity","trial_index":174,"time_elapsed":900845,"internal_node_id":"0.0-6.0-168.0"},{"sim_score":2,"rt":2572,"stimulus":"[\"img/0903/c3cb4a01-2797-43ca-b216-88c67b323fbb.jpg\",\"img/0868/3a62db2d-97e9-44a3-b8e3-a48c6f0e423b.jpg\"]","trial_type":"similarity","trial_index":175,"time_elapsed":904423,"internal_node_id":"0.0-6.0-169.0"},{"sim_score":5,"rt":3737,"stimulus":"[\"img/0769/387a9744-d6a7-42b8-bab8-33007ec434aa.jpg\",\"img/0904/9dd5708f-3f8b-46a9-b49f-2f2fab87b357.jpg\"]","trial_type":"similarity","trial_index":176,"time_elapsed":909169,"internal_node_id":"0.0-6.0-170.0"},{"sim_score":2,"rt":2877,"stimulus":"[\"img/0875/5a1e5100-0d94-4fec-bbe9-ca9894d2cf8e.jpg\",\"img/0764/ca9829fe-aaf8-45b8-b98a-6bae751c63dd.jpg\"]","trial_type":"similarity","trial_index":177,"time_elapsed":913055,"internal_node_id":"0.0-6.0-171.0"},{"sim_score":2,"rt":4759,"stimulus":"[\"img/0860/c5ccd1a4-4bb7-48e1-9b25-72cfaf06909b.jpg\",\"img/0903/776b74ee-a8ab-4ab8-a78d-097c0747538d.jpg\"]","trial_type":"similarity","trial_index":178,"time_elapsed":918820,"internal_node_id":"0.0-6.0-172.0"},{"sim_score":5,"rt":3932,"stimulus":"[\"img/0864/ef9cbca0-4be8-435d-ad49-977259e80409.jpg\",\"img/0867/5e07b34d-b40f-4b1c-ac10-49975bace45f.jpg\"]","trial_type":"similarity","trial_index":179,"time_elapsed":923761,"internal_node_id":"0.0-6.0-173.0"},{"sim_score":5,"rt":3608,"stimulus":"[\"img/0868/fd307a36-9a3a-47d7-ab7c-f810d0b35040.jpg\",\"img/0864/a248adb3-c70b-4652-b7a3-776d2a1e904b.jpg\"]","trial_type":"similarity","trial_index":180,"time_elapsed":928378,"internal_node_id":"0.0-6.0-174.0"},{"sim_score":5,"rt":3429,"stimulus":"[\"img/0898/26c41340-15bd-4ead-8fe4-c0d0ddca09c2.jpg\",\"img/0769/c7cfacc3-7f07-46ff-9f5d-8073f4c4679b.jpg\"]","trial_type":"similarity","trial_index":181,"time_elapsed":932813,"internal_node_id":"0.0-6.0-175.0"},{"sim_score":7,"rt":10668,"stimulus":"[\"img/0766/908bc45b-7c9e-4f95-806e-86b196ebcb2c.jpg\",\"img/0764/958b8576-3a3b-4acc-96dc-06b74de69f37.jpg\"]","trial_type":"similarity","trial_index":182,"time_elapsed":944487,"internal_node_id":"0.0-6.0-176.0"},{"sim_score":2,"rt":3908,"stimulus":"[\"img/0764/7f4ee8e3-9315-4a57-be7d-db8454b33766.jpg\",\"img/0866/07c9c966-3c8d-40e7-8128-92b2acbaed5d.jpg\"]","trial_type":"similarity","trial_index":183,"time_elapsed":949402,"internal_node_id":"0.0-6.0-177.0"},{"sim_score":2,"rt":3523,"stimulus":"[\"img/0902/8af4182a-9af9-4212-a436-9195555112d6.jpg\",\"img/0875/f87b67d7-c33e-40d1-b281-248c4be1cb6e.jpg\"]","trial_type":"similarity","trial_index":184,"time_elapsed":953932,"internal_node_id":"0.0-6.0-178.0"},{"sim_score":2,"rt":3277,"stimulus":"[\"img/0881/db77fe00-aeb0-4d1d-aa66-f3a96fd077e4.jpg\",\"img/0904/b7c2a2c8-df33-4473-b3d4-ff7147c60db3.jpg\"]","trial_type":"similarity","trial_index":185,"time_elapsed":958215,"internal_node_id":"0.0-6.0-179.0"},{"sim_score":5,"rt":3868,"stimulus":"[\"img/0874/85eb9b8a-c4c6-4e5a-b8e7-363a87a82054.jpg\",\"img/0860/5383b320-1518-4095-a58e-5cc1ae30b64c.jpg\"]","trial_type":"similarity","trial_index":186,"time_elapsed":963091,"internal_node_id":"0.0-6.0-180.0"},{"sim_score":2,"rt":3763,"stimulus":"[\"img/0769/965c3c44-d9e5-47c5-b61a-2bbdf4215d9a.jpg\",\"img/0874/1016b306-087c-4afc-aa08-fa527b28dc76.jpg\"]","trial_type":"similarity","trial_index":187,"time_elapsed":967863,"internal_node_id":"0.0-6.0-181.0"},{"sim_score":5,"rt":2548,"stimulus":"[\"img/0904/06dacdc5-2206-4fb8-92b7-88042d22833c.jpg\",\"img/0766/535849cc-ff5d-4df9-8f31-0ce94a97d571.jpg\"]","trial_type":"similarity","trial_index":188,"time_elapsed":971417,"internal_node_id":"0.0-6.0-182.0"},{"sim_score":5,"rt":3525,"stimulus":"[\"img/0902/b56db912-c3c0-4fc2-b325-d640acd7cb58.jpg\",\"img/0764/f990b2e8-ecee-481e-be7c-0239fce350e2.jpg\"]","trial_type":"similarity","trial_index":189,"time_elapsed":975949,"internal_node_id":"0.0-6.0-183.0"},{"sim_score":2,"rt":3739,"stimulus":"[\"img/0769/9ea27d61-3d55-418c-8d14-82e90f656f01.jpg\",\"img/0875/dbdd643e-6d0e-4a5c-ab57-b9c29b9c981a.jpg\"]","trial_type":"similarity","trial_index":190,"time_elapsed":980695,"internal_node_id":"0.0-6.0-184.0"},{"sim_score":2,"rt":2893,"stimulus":"[\"img/0867/ac1797e4-8afc-48fe-b252-86d1defb1cca.jpg\",\"img/0903/4cbdc464-e562-4ec2-9bb6-15f894fdf528.jpg\"]","trial_type":"similarity","trial_index":191,"time_elapsed":984597,"internal_node_id":"0.0-6.0-185.0"},{"sim_score":2,"rt":2647,"stimulus":"[\"img/0862/d0ca4c78-fc35-46ed-bdcc-8e124283c53e.jpg\",\"img/0769/4680bcc3-8fbc-4643-8f9a-12aa0e780b64.jpg\"]","trial_type":"similarity","trial_index":192,"time_elapsed":988252,"internal_node_id":"0.0-6.0-186.0"},{"sim_score":2,"rt":2454,"stimulus":"[\"img/0766/d8221e53-2300-4d99-ae1b-0bfb0eabe579.jpg\",\"img/0866/bf14b5bd-fb55-47db-86b9-4f8aeb9a6dad.jpg\"]","trial_type":"similarity","trial_index":193,"time_elapsed":991714,"internal_node_id":"0.0-6.0-187.0"},{"sim_score":2,"rt":2875,"stimulus":"[\"img/0769/75f7e514-0548-4329-b1e4-93c05e74f038.jpg\",\"img/0860/61fb959d-d4d9-4de4-9e4e-4fa62b4cfcd5.jpg\"]","trial_type":"similarity","trial_index":194,"time_elapsed":995597,"internal_node_id":"0.0-6.0-188.0"},{"sim_score":5,"rt":3034,"stimulus":"[\"img/0881/4bd34581-94d8-4e88-8c89-5cef864ca3be.jpg\",\"img/0868/0d3abd3a-b6c3-4584-a9f7-e2da63748b3d.jpg\"]","trial_type":"similarity","trial_index":195,"time_elapsed":1001425,"internal_node_id":"0.0-6.0-189.0"},{"view_history":"[{\"page_index\":0,\"viewing_time\":8550}]","rt":8552,"trial_type":"instructions","trial_index":196,"time_elapsed":1010980,"internal_node_id":"0.0-7.0"},{"rt":28013,"responses":"{\"Q0\":\"Orange-crowned Warbler\"}","answer":["Nashville Warbler"],"trial_type":"image-multi-choice","trial_index":197,"time_elapsed":1040016,"internal_node_id":"0.0-8.0-0.0"},{"rt":23824,"responses":"{\"Q0\":\"Black-and-white Warbler\"}","answer":["Black-and-white Warbler"],"trial_type":"image-multi-choice","trial_index":198,"time_elapsed":1064857,"internal_node_id":"0.0-8.0-1.0"},{"rt":11814,"responses":"{\"Q0\":\"Townsend's Warbler\"}","answer":["Townsend's Warbler"],"trial_type":"image-multi-choice","trial_index":199,"time_elapsed":1077684,"internal_node_id":"0.0-8.0-2.0"},{"rt":4490,"responses":"{\"Q0\":\"Lark Sparrow\"}","answer":["Lark Sparrow"],"trial_type":"image-multi-choice","trial_index":200,"time_elapsed":1083190,"internal_node_id":"0.0-8.0-3.0"},{"rt":3338,"responses":"{\"Q0\":\"Yellow Warbler\"}","answer":["Yellow Warbler"],"trial_type":"image-multi-choice","trial_index":201,"time_elapsed":1087543,"internal_node_id":"0.0-8.0-4.0"},{"rt":15997,"responses":"{\"Q0\":\"Tennessee Warbler\"}","answer":["Orange-crowned Warbler"],"trial_type":"image-multi-choice","trial_index":202,"time_elapsed":1104558,"internal_node_id":"0.0-8.0-5.0"},{"rt":5874,"responses":"{\"Q0\":\"White-throated Sparrow\"}","answer":["White-throated Sparrow"],"trial_type":"image-multi-choice","trial_index":203,"time_elapsed":1111447,"internal_node_id":"0.0-8.0-6.0"},{"rt":3746,"responses":"{\"Q0\":\"Fox Sparrow\"}","answer":["Fox Sparrow"],"trial_type":"image-multi-choice","trial_index":204,"time_elapsed":1116209,"internal_node_id":"0.0-8.0-7.0"},{"rt":42428,"responses":"{\"Q0\":\"Lincoln's Sparrow\"}","answer":["Song Sparrow"],"trial_type":"image-multi-choice","trial_index":205,"time_elapsed":1159655,"internal_node_id":"0.0-8.0-8.0"},{"rt":8881,"responses":"{\"Q0\":\"Blackburnian Warbler\"}","answer":["Blackburnian Warbler"],"trial_type":"image-multi-choice","trial_index":206,"time_elapsed":1169549,"internal_node_id":"0.0-8.0-9.0"},{"rt":11257,"responses":"{\"Q0\":\"Vesper Sparrow\"}","answer":["Vesper Sparrow"],"trial_type":"image-multi-choice","trial_index":207,"time_elapsed":1181822,"internal_node_id":"0.0-8.0-10.0"},{"rt":6849,"responses":"{\"Q0\":\"White-crowned Sparrow\"}","answer":["White-crowned Sparrow"],"trial_type":"image-multi-choice","trial_index":208,"time_elapsed":1189688,"internal_node_id":"0.0-8.0-11.0"},{"rt":20667,"responses":"{\"Q0\":\"American Tree Sparrow\"}","answer":["American Tree Sparrow"],"trial_type":"image-multi-choice","trial_index":209,"time_elapsed":1211371,"internal_node_id":"0.0-8.0-12.0"},{"rt":10342,"responses":"{\"Q0\":\"Tennessee Warbler\"}","answer":["Tennessee Warbler"],"trial_type":"image-multi-choice","trial_index":210,"time_elapsed":1222730,"internal_node_id":"0.0-8.0-13.0"},{"rt":7887,"responses":"{\"Q0\":\"Magnolia Warbler\"}","answer":["Magnolia Warbler"],"trial_type":"image-multi-choice","trial_index":211,"time_elapsed":1231633,"internal_node_id":"0.0-8.0-14.0"},{"rt":13375,"responses":"{\"Q0\":\"Northern Waterthrush\"}","answer":["Northern Waterthrush"],"trial_type":"image-multi-choice","trial_index":212,"time_elapsed":1246024,"internal_node_id":"0.0-8.0-15.0"},{"rt":15846,"responses":"{\"Q0\":\"Chipping Sparrow\"}","answer":["Chipping Sparrow"],"trial_type":"image-multi-choice","trial_index":213,"time_elapsed":1262886,"internal_node_id":"0.0-8.0-16.0"},{"rt":25176,"responses":"{\"Q0\":\"Swamp Sparrow\"}","answer":["Swamp Sparrow"],"trial_type":"image-multi-choice","trial_index":214,"time_elapsed":1289081,"internal_node_id":"0.0-8.0-17.0"},{"rt":6956,"responses":"{\"Q0\":\"Lincoln's Sparrow\"}","answer":["Lincoln's Sparrow"],"trial_type":"image-multi-choice","trial_index":215,"time_elapsed":1297053,"internal_node_id":"0.0-8.0-18.0"},{"rt":4891,"responses":"{\"Q0\":\"Ovenbird\"}","answer":["Ovenbird"],"trial_type":"image-multi-choice","trial_index":216,"time_elapsed":1302962,"internal_node_id":"0.0-8.0-19.0"}]