[{"view_history":"[{\"page_index\":0,\"viewing_time\":25232}]","rt":25234,"trial_type":"instructions","trial_index":0,"time_elapsed":25234,"internal_node_id":"0.0-0.0"},{"sim_score":7,"rt":6776,"stimulus":"[\"img/bluejay1.jpg\",\"img/bluejay2.jpg\"]","trial_type":"similarity_demo","trial_index":1,"time_elapsed":33021,"internal_node_id":"0.0-1.0"},{"view_history":"[{\"page_index\":0,\"viewing_time\":13092}]","rt":13093,"trial_type":"instructions","trial_index":2,"time_elapsed":47115,"internal_node_id":"0.0-2.0"},{"sim_score":2,"rt":7630,"stimulus":"[\"img/bluejay1.jpg\",\"img/cardinal1.jpg\"]","trial_type":"similarity_demo","trial_index":3,"time_elapsed":55752,"internal_node_id":"0.0-3.0"},{"view_history":"[{\"page_index\":0,\"viewing_time\":8588}]","rt":8589,"trial_type":"instructions","trial_index":4,"time_elapsed":65343,"internal_node_id":"0.0-4.0"},{"view_history":"[{\"page_index\":0,\"viewing_time\":36630}]","rt":36632,"trial_type":"instructions","trial_index":5,"time_elapsed":102976,"internal_node_id":"0.0-5.0"},{"sim_score":1,"rt":4906,"stimulus":"[\"img/0868/179a5502-ab5c-478e-8263-5a1fbcc101d2.jpg\",\"img/0894/76c1201f-8524-4865-85e6-dda8cb4ac986.jpg\"]","trial_type":"similarity","trial_index":6,"time_elapsed":108890,"internal_node_id":"0.0-6.0-0.0"},{"sim_score":1,"rt":6378,"stimulus":"[\"img/0898/40f99fb2-64d2-4e72-8a7f-a1cf60741e69.jpg\",\"img/0758/d57c2592-a317-4f63-91be-91a3a9afd222.jpg\"]","trial_type":"similarity","trial_index":7,"time_elapsed":116274,"internal_node_id":"0.0-6.0-1.0"},{"sim_score":4,"rt":4313,"stimulus":"[\"img/0903/72197c2b-403e-4a26-b391-f1aa8dea4b76.jpg\",\"img/0894/b2d2f66e-e480-46da-a02a-6d0c6b285d78.jpg\"]","trial_type":"similarity","trial_index":8,"time_elapsed":121594,"internal_node_id":"0.0-6.0-2.0"},{"sim_score":2,"rt":3823,"stimulus":"[\"img/0881/e6746727-7f89-47ec-b939-d98abe78372d.jpg\",\"img/0766/f5f78e4e-d88f-4866-951a-118ba9fec4d0.jpg\"]","trial_type":"similarity","trial_index":9,"time_elapsed":126422,"internal_node_id":"0.0-6.0-3.0"},{"sim_score":5,"rt":5799,"stimulus":"[\"img/0864/b3c4e378-28f0-4699-9338-2a257b4bca04.jpg\",\"img/0860/17b44a7d-c5ca-479f-9e87-f65a64f5c80e.jpg\"]","trial_type":"similarity","trial_index":10,"time_elapsed":133226,"internal_node_id":"0.0-6.0-4.0"},{"sim_score":5,"rt":5371,"stimulus":"[\"img/0902/c920f0e1-1c81-480f-a164-c77f2dc6ce9a.jpg\",\"img/0899/5b56dd3e-3f49-47cc-af84-16da6457753b.jpg\"]","trial_type":"similarity","trial_index":11,"time_elapsed":139602,"internal_node_id":"0.0-6.0-5.0"},{"sim_score":2,"rt":4698,"stimulus":"[\"img/0868/d6d1f30d-4323-435a-b194-7892521bc57e.jpg\",\"img/0769/965c3c44-d9e5-47c5-b61a-2bbdf4215d9a.jpg\"]","trial_type":"similarity","trial_index":12,"time_elapsed":145304,"internal_node_id":"0.0-6.0-6.0"},{"sim_score":5,"rt":3839,"stimulus":"[\"img/0764/5d6fa3ce-9083-410c-bbdb-336a49b94cfc.jpg\",\"img/0901/a373612d-67e2-4fec-9764-21d3d6ef6359.jpg\"]","trial_type":"similarity","trial_index":13,"time_elapsed":150163,"internal_node_id":"0.0-6.0-7.0"},{"sim_score":4,"rt":4956,"stimulus":"[\"img/0881/33d65d80-8a8e-4ecf-852d-0ad7725c17a2.jpg\",\"img/0866/386235d2-6857-41e7-88a8-25cfc3430025.jpg\"]","trial_type":"similarity","trial_index":14,"time_elapsed":156128,"internal_node_id":"0.0-6.0-8.0"},{"sim_score":1,"rt":5929,"stimulus":"[\"img/0867/a749dddb-69f0-44a6-acdc-2bf295cf6dcc.jpg\",\"img/0899/a048912c-b12c-40e3-90af-46b69b0cc4fe.jpg\"]","trial_type":"similarity","trial_index":15,"time_elapsed":163062,"internal_node_id":"0.0-6.0-9.0"},{"sim_score":3,"rt":4589,"stimulus":"[\"img/0875/2e13d160-eea1-416b-aff1-d37ab99ecc1d.jpg\",\"img/0766/60033a74-9919-47e5-913c-71d0d483e7e5.jpg\"]","trial_type":"similarity","trial_index":16,"time_elapsed":168655,"internal_node_id":"0.0-6.0-10.0"},{"sim_score":2,"rt":4801,"stimulus":"[\"img/0901/a2d7b2f6-396b-4d91-8403-de5361c74af7.jpg\",\"img/0875/fb732ab5-013a-4366-9f65-27811ed157e9.jpg\"]","trial_type":"similarity","trial_index":17,"time_elapsed":174462,"internal_node_id":"0.0-6.0-11.0"},{"sim_score":2,"rt":4902,"stimulus":"[\"img/0902/a6fb6dd5-696c-47ec-be7d-d7b88f1544f1.jpg\",\"img/0860/94ef7afc-e0e6-4a15-98c6-0bfac82bc832.jpg\"]","trial_type":"similarity","trial_index":18,"time_elapsed":180370,"internal_node_id":"0.0-6.0-12.0"},{"sim_score":3,"rt":4961,"stimulus":"[\"img/0874/31e22c7c-99aa-40b1-bf03-dd73fa2df4d6.jpg\",\"img/0867/f8159067-056c-41f1-a136-c529fe5e970a.jpg\"]","trial_type":"similarity","trial_index":19,"time_elapsed":186335,"internal_node_id":"0.0-6.0-13.0"},{"sim_score":2,"rt":7583,"stimulus":"[\"img/0904/0d17b811-063e-416e-a23c-3b3cfa4fcce5.jpg\",\"img/0866/11a1d141-be5e-443c-98c1-a9d4d9e3dec0.jpg\"]","trial_type":"similarity","trial_index":20,"time_elapsed":194922,"internal_node_id":"0.0-6.0-14.0"},{"sim_score":3,"rt":4698,"stimulus":"[\"img/0758/d540bee6-b460-4c32-ac57-bc282742d7d4.jpg\",\"img/0902/eb3e7e71-8ff1-4b88-a6a7-47e2c1ce1683.jpg\"]","trial_type":"similarity","trial_index":21,"time_elapsed":200625,"internal_node_id":"0.0-6.0-15.0"},{"sim_score":1,"rt":4316,"stimulus":"[\"img/0867/7d1c497b-c1b3-4ed8-abb5-d7f73306015f.jpg\",\"img/0898/b2732712-71c2-45d8-834f-2b2ed5504910.jpg\"]","trial_type":"similarity","trial_index":22,"time_elapsed":205946,"internal_node_id":"0.0-6.0-16.0"},{"sim_score":2,"rt":8480,"stimulus":"[\"img/0904/da170c1b-9651-4f08-b231-2bdd1d9a046f.jpg\",\"img/0868/4e626425-63c8-484a-8a1d-e66ee4e0bef8.jpg\"]","trial_type":"similarity","trial_index":23,"time_elapsed":215429,"internal_node_id":"0.0-6.0-17.0"},{"sim_score":1,"rt":3450,"stimulus":"[\"img/0766/33aa9ebb-c9f5-418f-8c8b-c77861889568.jpg\",\"img/0864/c22faebd-9c53-47bc-ada3-b9a30c688e75.jpg\"]","trial_type":"similarity","trial_index":24,"time_elapsed":219883,"internal_node_id":"0.0-6.0-18.0"},{"sim_score":5,"rt":5784,"stimulus":"[\"img/0899/ddf96ade-692e-4602-bd22-dedbb46401bc.jpg\",\"img/0766/27f54113-8561-4568-9ffe-0a1650ae65ec.jpg\"]","trial_type":"similarity","trial_index":25,"time_elapsed":226671,"internal_node_id":"0.0-6.0-19.0"},{"sim_score":2,"rt":4442,"stimulus":"[\"img/0764/5d83b9db-3b2b-4dc8-9bd1-2b515b19c858.jpg\",\"img/0758/20497cbe-ddae-489e-86e2-ab06985ed07c.jpg\"]","trial_type":"similarity","trial_index":26,"time_elapsed":232117,"internal_node_id":"0.0-6.0-20.0"},{"sim_score":2,"rt":4246,"stimulus":"[\"img/0901/7d4a3388-488d-4e9b-9d32-9d0def7aae8d.jpg\",\"img/0874/3ce41e7c-40c8-4d58-a546-171114521796.jpg\"]","trial_type":"similarity","trial_index":27,"time_elapsed":237367,"internal_node_id":"0.0-6.0-21.0"},{"sim_score":5,"rt":4894,"stimulus":"[\"img/0875/f87b67d7-c33e-40d1-b281-248c4be1cb6e.jpg\",\"img/0758/67c0be2f-9e91-48b3-8219-70ac0a1802fa.jpg\"]","trial_type":"similarity","trial_index":28,"time_elapsed":243265,"internal_node_id":"0.0-6.0-22.0"},{"sim_score":3,"rt":4669,"stimulus":"[\"img/0867/f8488a47-94ee-4166-952c-44e16cf172f6.jpg\",\"img/0881/14236cf2-6b95-48b8-9368-78af09d2d27f.jpg\"]","trial_type":"similarity","trial_index":29,"time_elapsed":248938,"internal_node_id":"0.0-6.0-23.0"},{"sim_score":1,"rt":3480,"stimulus":"[\"img/0758/f61ecdf8-a7d4-4db0-b84d-be46f7cfaffc.jpg\",\"img/0901/c6c877e0-dd63-4e00-9657-33af29d55aab.jpg\"]","trial_type":"similarity","trial_index":30,"time_elapsed":253421,"internal_node_id":"0.0-6.0-24.0"},{"sim_score":4,"rt":3811,"stimulus":"[\"img/0868/e0aff734-077f-40dd-9781-74821abd3621.jpg\",\"img/0875/03c3c331-738b-4446-af92-3d7386b08c2e.jpg\"]","trial_type":"similarity","trial_index":31,"time_elapsed":258235,"internal_node_id":"0.0-6.0-25.0"},{"sim_score":2,"rt":3629,"stimulus":"[\"img/0903/f1fa0f8d-e62b-4b4a-a174-31a0fabfe61b.jpg\",\"img/0901/148b747a-7392-437e-8823-33053c5dff3f.jpg\"]","trial_type":"similarity","trial_index":32,"time_elapsed":262869,"internal_node_id":"0.0-6.0-26.0"},{"sim_score":4,"rt":5188,"stimulus":"[\"img/0894/c505c65a-cde2-4f2c-8cde-f8676f7c894d.jpg\",\"img/0899/f58b8d2f-b19d-4b59-8b94-8834be92e4ba.jpg\"]","trial_type":"similarity","trial_index":33,"time_elapsed":269061,"internal_node_id":"0.0-6.0-27.0"},{"sim_score":4,"rt":5376,"stimulus":"[\"img/0862/f188d4f0-76a4-4102-818c-a209969d73a5.jpg\",\"img/0867/c71dc569-f49c-4397-8381-68b8d726736d.jpg\"]","trial_type":"similarity","trial_index":34,"time_elapsed":275440,"internal_node_id":"0.0-6.0-28.0"},{"sim_score":5,"rt":3169,"stimulus":"[\"img/0864/a248adb3-c70b-4652-b7a3-776d2a1e904b.jpg\",\"img/0875/dbdd643e-6d0e-4a5c-ab57-b9c29b9c981a.jpg\"]","trial_type":"similarity","trial_index":35,"time_elapsed":279612,"internal_node_id":"0.0-6.0-29.0"},{"sim_score":3,"rt":4120,"stimulus":"[\"img/0862/53a9cf7c-93c4-41b9-952f-07d17f7a17b2.jpg\",\"img/0874/7e4f2150-3b59-4a36-b5da-a4e0ba410531.jpg\"]","trial_type":"similarity","trial_index":36,"time_elapsed":284736,"internal_node_id":"0.0-6.0-30.0"},{"sim_score":3,"rt":3062,"stimulus":"[\"img/0903/647ce311-8c71-479a-8361-961db1457139.jpg\",\"img/0758/a709631e-3705-4725-ac40-f0d916924f08.jpg\"]","trial_type":"similarity","trial_index":37,"time_elapsed":288801,"internal_node_id":"0.0-6.0-31.0"},{"sim_score":3,"rt":2846,"stimulus":"[\"img/0866/0207e9a2-7dbb-40b5-9459-b472aaeceb2a.jpg\",\"img/0901/4ca4f962-40c0-4c59-b14a-3cd7b8c9029b.jpg\"]","trial_type":"similarity","trial_index":38,"time_elapsed":292651,"internal_node_id":"0.0-6.0-32.0"},{"sim_score":3,"rt":2942,"stimulus":"[\"img/0874/3f471690-9788-4d03-90c7-f615aecef149.jpg\",\"img/0899/66bf4113-ee12-426c-84d2-ea410b6c803e.jpg\"]","trial_type":"similarity","trial_index":39,"time_elapsed":296597,"internal_node_id":"0.0-6.0-33.0"},{"sim_score":5,"rt":3168,"stimulus":"[\"img/0903/f45a103c-9bfe-49fd-ad96-bdd8d2589195.jpg\",\"img/0902/62f11694-7ed7-4cb7-8a73-9e95c43824e7.jpg\"]","trial_type":"similarity","trial_index":40,"time_elapsed":300768,"internal_node_id":"0.0-6.0-34.0"},{"sim_score":4,"rt":3801,"stimulus":"[\"img/0758/3ddd05d3-557e-4ee7-8b78-9d2d681d8ae2.jpg\",\"img/0866/93a27239-8317-4e08-98ca-d8b1ff298e07.jpg\"]","trial_type":"similarity","trial_index":41,"time_elapsed":305574,"internal_node_id":"0.0-6.0-35.0"},{"sim_score":3,"rt":5268,"stimulus":"[\"img/0875/99698b4d-b4a1-44bc-8c83-8ea755bbbf61.jpg\",\"img/0903/43ffd882-077a-40dd-a264-e58d519420a1.jpg\"]","trial_type":"similarity","trial_index":42,"time_elapsed":311846,"internal_node_id":"0.0-6.0-36.0"},{"sim_score":2,"rt":4012,"stimulus":"[\"img/0864/4bd81bc6-c13d-46df-95a9-485886dc7c1b.jpg\",\"img/0902/d1083f2c-5520-44ec-81a8-3f856fbf0e80.jpg\"]","trial_type":"similarity","trial_index":43,"time_elapsed":322518,"internal_node_id":"0.0-6.0-37.0"},{"sim_score":2,"rt":3708,"stimulus":"[\"img/0901/62315ff5-ed95-46b4-b099-92552079659b.jpg\",\"img/0867/cc72ed48-7704-422c-86d6-467a1145287a.jpg\"]","trial_type":"similarity","trial_index":44,"time_elapsed":327231,"internal_node_id":"0.0-6.0-38.0"},{"sim_score":5,"rt":3885,"stimulus":"[\"img/0862/e8cc3bdf-cc43-4565-bccf-492626c70953.jpg\",\"img/0860/18dfed73-e36b-4487-a8bd-0b8cff8e3668.jpg\"]","trial_type":"similarity","trial_index":45,"time_elapsed":332120,"internal_node_id":"0.0-6.0-39.0"},{"sim_score":4,"rt":2958,"stimulus":"[\"img/0867/12264664-1860-46df-8c21-162b9817cdda.jpg\",\"img/0868/15dd6fd7-791e-4b53-b203-195d617521a4.jpg\"]","trial_type":"similarity","trial_index":46,"time_elapsed":336082,"internal_node_id":"0.0-6.0-40.0"},{"sim_score":4,"rt":4972,"stimulus":"[\"img/0904/5aec2708-cf14-4a58-aa30-9a8a61c1be0e.jpg\",\"img/0899/fd9efb43-701f-4cd6-baaa-4c38315f4bdc.jpg\"]","trial_type":"similarity","trial_index":47,"time_elapsed":342058,"internal_node_id":"0.0-6.0-41.0"},{"sim_score":3,"rt":3840,"stimulus":"[\"img/0862/ba89835a-408c-480b-8594-ed4ffa97eb5c.jpg\",\"img/0894/3adef67d-7676-4995-80b2-bb31b8aca3ef.jpg\"]","trial_type":"similarity","trial_index":48,"time_elapsed":346903,"internal_node_id":"0.0-6.0-42.0"},{"sim_score":2,"rt":2971,"stimulus":"[\"img/0875/a4935837-7d3c-4df6-88c1-36a94d4991ca.jpg\",\"img/0904/2f88ce53-02d0-4f95-a082-182c56a0eeb4.jpg\"]","trial_type":"similarity","trial_index":49,"time_elapsed":350878,"internal_node_id":"0.0-6.0-43.0"},{"sim_score":2,"rt":4583,"stimulus":"[\"img/0874/ca76a855-4e77-4f2f-872a-0a718153e7ed.jpg\",\"img/0898/b3290bf9-215b-4b45-b21a-65bdf73f142f.jpg\"]","trial_type":"similarity","trial_index":50,"time_elapsed":356466,"internal_node_id":"0.0-6.0-44.0"},{"sim_score":2,"rt":2690,"stimulus":"[\"img/0898/4184e5a2-84ea-4f36-9b42-ae58646f6f87.jpg\",\"img/0868/6a28c3b0-3d76-498a-9fb7-ddafc665eca8.jpg\"]","trial_type":"similarity","trial_index":51,"time_elapsed":360162,"internal_node_id":"0.0-6.0-45.0"},{"sim_score":4,"rt":6129,"stimulus":"[\"img/0901/deff6cfb-0072-4490-bc3e-206bbcd3e8bf.jpg\",\"img/0860/5383b320-1518-4095-a58e-5cc1ae30b64c.jpg\"]","trial_type":"similarity","trial_index":52,"time_elapsed":367300,"internal_node_id":"0.0-6.0-46.0"},{"sim_score":4,"rt":2693,"stimulus":"[\"img/0894/a98416c0-51e2-4960-85da-d81d8688b9d5.jpg\",\"img/0902/71c03003-03ef-4b0f-8229-e0c857150a5d.jpg\"]","trial_type":"similarity","trial_index":53,"time_elapsed":370997,"internal_node_id":"0.0-6.0-47.0"},{"sim_score":2,"rt":3551,"stimulus":"[\"img/0764/ef0e64c6-d0dd-4dc6-87b6-ce5c0665f421.jpg\",\"img/0862/fb26cb07-d5a9-4653-813c-f41609f26cd5.jpg\"]","trial_type":"similarity","trial_index":54,"time_elapsed":375551,"internal_node_id":"0.0-6.0-48.0"},{"sim_score":4,"rt":3090,"stimulus":"[\"img/0881/d1982897-8d8d-4704-a940-1ee5d07a1f15.jpg\",\"img/0758/335851a0-a55b-46d8-ab05-8463eda48349.jpg\"]","trial_type":"similarity","trial_index":55,"time_elapsed":379645,"internal_node_id":"0.0-6.0-49.0"},{"sim_score":4,"rt":2455,"stimulus":"[\"img/0766/0025de5e-f620-4079-8a0f-00326ff3a6b0.jpg\",\"img/0769/3adfa417-3b90-4aab-b437-5eaa474189cb.jpg\"]","trial_type":"similarity","trial_index":56,"time_elapsed":383104,"internal_node_id":"0.0-6.0-50.0"},{"sim_score":4,"rt":3201,"stimulus":"[\"img/0875/34132396-d896-4c2d-8087-646dd867e769.jpg\",\"img/0866/bf14b5bd-fb55-47db-86b9-4f8aeb9a6dad.jpg\"]","trial_type":"similarity","trial_index":57,"time_elapsed":387311,"internal_node_id":"0.0-6.0-51.0"},{"sim_score":5,"rt":3425,"stimulus":"[\"img/0894/767a0eec-1064-46b1-b1aa-dfa02b0cd74e.jpg\",\"img/0904/60d1a521-edf7-4696-9263-f21ac0e62a01.jpg\"]","trial_type":"similarity","trial_index":58,"time_elapsed":391739,"internal_node_id":"0.0-6.0-52.0"},{"sim_score":2,"rt":2863,"stimulus":"[\"img/0758/b76ceca7-95ac-46e4-ac13-da02c8e93be9.jpg\",\"img/0769/da36e3f7-2337-434f-ab57-11822dd7eed7.jpg\"]","trial_type":"similarity","trial_index":59,"time_elapsed":395606,"internal_node_id":"0.0-6.0-53.0"},{"sim_score":4,"rt":6137,"stimulus":"[\"img/0902/d5e25767-e8ec-45f3-ac0a-7b4a6f7a9edc.jpg\",\"img/0874/1016b306-087c-4afc-aa08-fa527b28dc76.jpg\"]","trial_type":"similarity","trial_index":60,"time_elapsed":402746,"internal_node_id":"0.0-6.0-54.0"},{"sim_score":2,"rt":3878,"stimulus":"[\"img/0903/97a42b34-5462-4665-88c7-83c014b33d24.jpg\",\"img/0862/f43ceabf-acc1-4107-b857-5d1849808f93.jpg\"]","trial_type":"similarity","trial_index":61,"time_elapsed":407628,"internal_node_id":"0.0-6.0-55.0"},{"sim_score":3,"rt":3746,"stimulus":"[\"img/0866/23a224f3-2012-4fc8-8e0f-3c36f8de27fd.jpg\",\"img/0894/5ff3c4f6-52e2-4075-8679-be0312e59703.jpg\"]","trial_type":"similarity","trial_index":62,"time_elapsed":412378,"internal_node_id":"0.0-6.0-56.0"},{"sim_score":4,"rt":4348,"stimulus":"[\"img/0867/85a96c62-548f-4994-9553-819e03c3135a.jpg\",\"img/0904/9dd5708f-3f8b-46a9-b49f-2f2fab87b357.jpg\"]","trial_type":"similarity","trial_index":63,"time_elapsed":417730,"internal_node_id":"0.0-6.0-57.0"},{"sim_score":5,"rt":4700,"stimulus":"[\"img/0875/5a1e5100-0d94-4fec-bbe9-ca9894d2cf8e.jpg\",\"img/0881/20af39f5-373d-4a55-a437-2dc4c0382c46.jpg\"]","trial_type":"similarity","trial_index":64,"time_elapsed":423435,"internal_node_id":"0.0-6.0-58.0"},{"sim_score":2,"rt":3739,"stimulus":"[\"img/0866/4a87911a-d5be-4d4e-ab8e-3d1f581bf507.jpg\",\"img/0860/9593362c-9fe5-4d12-9735-6000a11f6aa5.jpg\"]","trial_type":"similarity","trial_index":65,"time_elapsed":428176,"internal_node_id":"0.0-6.0-59.0"},{"sim_score":4,"rt":5684,"stimulus":"[\"img/0903/6f343da5-00d9-4d50-89d1-2ed24cdb8319.jpg\",\"img/0866/6f2a90d7-14f1-4f1b-bd64-fc0af6b9fe44.jpg\"]","trial_type":"similarity","trial_index":66,"time_elapsed":434864,"internal_node_id":"0.0-6.0-60.0"},{"sim_score":2,"rt":3191,"stimulus":"[\"img/0860/c47fdead-eb02-4989-b078-26f4852f44fe.jpg\",\"img/0875/3ecb367d-e9eb-4826-8aaa-7aa72fb98019.jpg\"]","trial_type":"similarity","trial_index":67,"time_elapsed":439058,"internal_node_id":"0.0-6.0-61.0"},{"sim_score":4,"rt":4497,"stimulus":"[\"img/0898/881e2a85-d5c2-49be-a0c6-8a6ce2c4af08.jpg\",\"img/0862/d0ca4c78-fc35-46ed-bdcc-8e124283c53e.jpg\"]","trial_type":"similarity","trial_index":68,"time_elapsed":444558,"internal_node_id":"0.0-6.0-62.0"},{"sim_score":4,"rt":2426,"stimulus":"[\"img/0902/8065aa6b-4aef-4368-afa2-02c6465ca582.jpg\",\"img/0766/a754e4b6-5019-4cf4-8f58-34c20547a1f5.jpg\"]","trial_type":"similarity","trial_index":69,"time_elapsed":447988,"internal_node_id":"0.0-6.0-63.0"},{"sim_score":6,"rt":5615,"stimulus":"[\"img/0758/7ffbc76b-1fc1-432c-8f7e-9ec8d1b3f643.jpg\",\"img/0864/0f537697-a314-47c3-a8cc-8df23b7e536c.jpg\"]","trial_type":"similarity","trial_index":70,"time_elapsed":454606,"internal_node_id":"0.0-6.0-64.0"},{"sim_score":1,"rt":2801,"stimulus":"[\"img/0894/11674fa4-285d-44e2-939f-2228c6a64080.jpg\",\"img/0860/e14d67c1-6d92-4f1e-9257-c8607159c19c.jpg\"]","trial_type":"similarity","trial_index":71,"time_elapsed":458411,"internal_node_id":"0.0-6.0-65.0"},{"sim_score":1,"rt":2988,"stimulus":"[\"img/0899/93494f3b-d539-4075-b027-d82e344563da.jpg\",\"img/0868/4bd5105a-d2c3-4f82-8c80-57196106ba53.jpg\"]","trial_type":"similarity","trial_index":72,"time_elapsed":462402,"internal_node_id":"0.0-6.0-66.0"},{"sim_score":2,"rt":3661,"stimulus":"[\"img/0866/d266fece-59b3-46fa-b69f-96f6efb81b59.jpg\",\"img/0862/4f0a3b4c-afbf-486e-b248-1d54982f54b4.jpg\"]","trial_type":"similarity","trial_index":73,"time_elapsed":467067,"internal_node_id":"0.0-6.0-67.0"},{"sim_score":1,"rt":2966,"stimulus":"[\"img/0860/4c530c3c-6aab-492a-94d1-9c01797bde40.jpg\",\"img/0758/6e95579b-5166-487c-b8cb-e417c6a218e3.jpg\"]","trial_type":"similarity","trial_index":74,"time_elapsed":471037,"internal_node_id":"0.0-6.0-68.0"},{"sim_score":1,"rt":4247,"stimulus":"[\"img/0902/7499db23-3a41-41ea-ab5b-6ab4d4c3ed35.jpg\",\"img/0867/db7e032f-162b-46f5-ae67-2b29679adee4.jpg\"]","trial_type":"similarity","trial_index":75,"time_elapsed":476287,"internal_node_id":"0.0-6.0-69.0"},{"sim_score":2,"rt":3980,"stimulus":"[\"img/0862/ad593cc7-cabe-4bb7-8e14-8a447a0717b4.jpg\",\"img/0901/1b86f2fc-7a1d-4aa8-9252-114f92edef3b.jpg\"]","trial_type":"similarity","trial_index":76,"time_elapsed":481270,"internal_node_id":"0.0-6.0-70.0"},{"sim_score":5,"rt":3293,"stimulus":"[\"img/0867/1719a35d-f085-48c0-9099-16c94fe418b4.jpg\",\"img/0866/d493a2c8-66eb-44b4-be02-2f327b700b7c.jpg\"]","trial_type":"similarity","trial_index":77,"time_elapsed":485566,"internal_node_id":"0.0-6.0-71.0"},{"sim_score":1,"rt":2575,"stimulus":"[\"img/0860/524b2e98-5767-4d53-942c-ebae6925659b.jpg\",\"img/0904/0d25eb24-bb20-4e8d-9787-8b489558b4cb.jpg\"]","trial_type":"similarity","trial_index":78,"time_elapsed":489144,"internal_node_id":"0.0-6.0-72.0"},{"sim_score":2,"rt":3082,"stimulus":"[\"img/0875/e7e66b13-b573-431e-b85e-288ce04a35a3.jpg\",\"img/0899/d8f2dd94-570e-4e8c-a087-d96090fb9e8c.jpg\"]","trial_type":"similarity","trial_index":79,"time_elapsed":493230,"internal_node_id":"0.0-6.0-73.0"},{"sim_score":1,"rt":3991,"stimulus":"[\"img/0899/565ccdd9-0933-4536-a625-3c0e25a713dd.jpg\",\"img/0758/e38fd80d-18d0-42f3-b848-f930788e8bd7.jpg\"]","trial_type":"similarity","trial_index":80,"time_elapsed":498224,"internal_node_id":"0.0-6.0-74.0"},{"sim_score":3,"rt":3785,"stimulus":"[\"img/0862/eefa5588-9efd-4591-aa5f-a2e17c7d7bcc.jpg\",\"img/0875/2c361b79-c3d1-4eda-812e-bf03192407bf.jpg\"]","trial_type":"similarity","trial_index":81,"time_elapsed":506253,"internal_node_id":"0.0-6.0-75.0"},{"sim_score":4,"rt":6068,"stimulus":"[\"img/0901/effc03f6-8f9d-46db-a66c-16fc83891c5c.jpg\",\"img/0894/bd34223a-2f66-4e16-9d18-193a746b69ff.jpg\"]","trial_type":"similarity","trial_index":82,"time_elapsed":513325,"internal_node_id":"0.0-6.0-76.0"},{"sim_score":2,"rt":3036,"stimulus":"[\"img/0766/f011ef45-fb48-44b8-8224-867ed2ccf786.jpg\",\"img/0758/ddc336e9-a8b6-4bb9-937a-c7e25e0e9250.jpg\"]","trial_type":"similarity","trial_index":83,"time_elapsed":517364,"internal_node_id":"0.0-6.0-77.0"},{"sim_score":5,"rt":3075,"stimulus":"[\"img/0894/0130a973-d993-41f8-874a-fee23d9ac11f.jpg\",\"img/0764/fb92924f-5cfe-4b89-b130-0cce8cc5636b.jpg\"]","trial_type":"similarity","trial_index":84,"time_elapsed":521442,"internal_node_id":"0.0-6.0-78.0"},{"sim_score":3,"rt":3952,"stimulus":"[\"img/0860/4f695df5-afac-4da7-9875-fee39b0b24ad.jpg\",\"img/0867/f26f6b60-f772-4f4c-95a4-addc62cfd692.jpg\"]","trial_type":"similarity","trial_index":85,"time_elapsed":526396,"internal_node_id":"0.0-6.0-79.0"},{"sim_score":5,"rt":3566,"stimulus":"[\"img/0898/08c72dac-f8ad-407a-9ce6-8c9a5d679c3a.jpg\",\"img/0901/50e1d53e-a49f-4806-8610-be6dec5a2475.jpg\"]","trial_type":"similarity","trial_index":86,"time_elapsed":530966,"internal_node_id":"0.0-6.0-80.0"},{"sim_score":3,"rt":4862,"stimulus":"[\"img/0874/ca23d307-fc00-4d7d-9106-584c6eb21b4d.jpg\",\"img/0764/7f4ee8e3-9315-4a57-be7d-db8454b33766.jpg\"]","trial_type":"similarity","trial_index":87,"time_elapsed":536831,"internal_node_id":"0.0-6.0-81.0"},{"sim_score":4,"rt":5419,"stimulus":"[\"img/0899/51a7a498-98c7-42d7-bca8-bc2d8f0b5831.jpg\",\"img/0862/cdaed51d-9e2f-4807-801a-4663c40077e2.jpg\"]","trial_type":"similarity","trial_index":88,"time_elapsed":543254,"internal_node_id":"0.0-6.0-82.0"},{"sim_score":3,"rt":4185,"stimulus":"[\"img/0766/0b48f9e0-7d37-4161-8adb-4e3f5b6b7583.jpg\",\"img/0901/b9141736-3041-4385-a586-b1fe911c76a5.jpg\"]","trial_type":"similarity","trial_index":89,"time_elapsed":548442,"internal_node_id":"0.0-6.0-83.0"},{"sim_score":3,"rt":3981,"stimulus":"[\"img/0881/c24f3051-eefa-42de-aba6-fccb56d93c70.jpg\",\"img/0898/81b08535-2020-4c15-9ce4-2f1e460755ae.jpg\"]","trial_type":"similarity","trial_index":90,"time_elapsed":553426,"internal_node_id":"0.0-6.0-84.0"},{"sim_score":1,"rt":4405,"stimulus":"[\"img/0868/c8ac40c7-6904-4e13-8d61-c75d3052dc4e.jpg\",\"img/0860/61fb959d-d4d9-4de4-9e4e-4fa62b4cfcd5.jpg\"]","trial_type":"similarity","trial_index":91,"time_elapsed":558834,"internal_node_id":"0.0-6.0-85.0"},{"sim_score":3,"rt":2761,"stimulus":"[\"img/0758/eabcd7a8-56ad-4fd2-bc24-90f6b7b33265.jpg\",\"img/0868/3a62db2d-97e9-44a3-b8e3-a48c6f0e423b.jpg\"]","trial_type":"similarity","trial_index":92,"time_elapsed":562598,"internal_node_id":"0.0-6.0-86.0"},{"sim_score":3,"rt":3411,"stimulus":"[\"img/0864/efcfbb1b-8197-44c9-b723-40d6c608dd3c.jpg\",\"img/0894/1b3888e6-cf36-4c4a-a039-187aa5cb71ac.jpg\"]","trial_type":"similarity","trial_index":93,"time_elapsed":567011,"internal_node_id":"0.0-6.0-87.0"},{"sim_score":3,"rt":3005,"stimulus":"[\"img/0866/a15b02be-11bb-43e3-b0e0-ecc3bd7dfc49.jpg\",\"img/0902/94198618-7047-4dc9-ad04-85f4ba913067.jpg\"]","trial_type":"similarity","trial_index":94,"time_elapsed":571020,"internal_node_id":"0.0-6.0-88.0"},{"sim_score":4,"rt":8637,"stimulus":"[\"img/0769/7c50e5f5-cc38-4d48-b009-fbe17bcea61c.jpg\",\"img/0867/8ba0c5a7-c7e4-42cf-a80a-543763b90779.jpg\"]","trial_type":"similarity","trial_index":95,"time_elapsed":580661,"internal_node_id":"0.0-6.0-89.0"},{"sim_score":5,"rt":4668,"stimulus":"[\"img/0874/85eb9b8a-c4c6-4e5a-b8e7-363a87a82054.jpg\",\"img/0875/527ced51-8e53-4aab-ab05-86df219104c0.jpg\"]","trial_type":"similarity","trial_index":96,"time_elapsed":586333,"internal_node_id":"0.0-6.0-90.0"},{"sim_score":5,"rt":4637,"stimulus":"[\"img/0864/c3b63e8f-ea39-4d70-a1f2-b3fe4be8eb75.jpg\",\"img/0874/a82926a3-0b43-4add-803c-d5f9ea7798ee.jpg\"]","trial_type":"similarity","trial_index":97,"time_elapsed":591973,"internal_node_id":"0.0-6.0-91.0"},{"sim_score":1,"rt":4482,"stimulus":"[\"img/0881/f7a8cc63-8842-40a4-9ff8-fe530310d62c.jpg\",\"img/0862/57b6f83f-c763-4858-830d-102f97bfefbf.jpg\"]","trial_type":"similarity","trial_index":98,"time_elapsed":597459,"internal_node_id":"0.0-6.0-92.0"},{"sim_score":3,"rt":5419,"stimulus":"[\"img/0864/87c467d3-abca-482f-ad80-3766c21b1bb3.jpg\",\"img/0881/292e9b4b-fca0-4ba8-87f1-4048f9e37b7d.jpg\"]","trial_type":"similarity","trial_index":99,"time_elapsed":603881,"internal_node_id":"0.0-6.0-93.0"},{"sim_score":3,"rt":3684,"stimulus":"[\"img/0899/0433d056-aa30-4f8a-9aa1-abbb951e4edd.jpg\",\"img/0901/b453df0b-4c39-49bb-8ced-6127efffa898.jpg\"]","trial_type":"similarity","trial_index":100,"time_elapsed":608568,"internal_node_id":"0.0-6.0-94.0"},{"sim_score":2,"rt":2926,"stimulus":"[\"img/0874/93d1f8dc-acf2-4f03-bd8d-8ec35df276ed.jpg\",\"img/0766/1bc0dccc-a5b5-4375-87fa-28360ca42b12.jpg\"]","trial_type":"similarity","trial_index":101,"time_elapsed":612498,"internal_node_id":"0.0-6.0-95.0"},{"sim_score":1,"rt":3807,"stimulus":"[\"img/0881/b549bc99-a61c-4450-bab5-9efc3a197bf0.jpg\",\"img/0899/9de5e857-aa9a-4e0c-8ba2-46d79bd069a4.jpg\"]","trial_type":"similarity","trial_index":102,"time_elapsed":617310,"internal_node_id":"0.0-6.0-96.0"},{"sim_score":3,"rt":4776,"stimulus":"[\"img/0862/1c20f772-3a51-4a80-aac0-f57dc9f86c28.jpg\",\"img/0902/22ed3536-288b-452e-9777-0fa0ab94deb0.jpg\"]","trial_type":"similarity","trial_index":103,"time_elapsed":623092,"internal_node_id":"0.0-6.0-97.0"},{"sim_score":4,"rt":4082,"stimulus":"[\"img/0899/8abe6c69-822c-436c-9bf2-96c818b49ba5.jpg\",\"img/0764/29072395-f595-4e3c-83d3-ff87010039fa.jpg\"]","trial_type":"similarity","trial_index":104,"time_elapsed":628178,"internal_node_id":"0.0-6.0-98.0"},{"sim_score":1,"rt":3346,"stimulus":"[\"img/0758/7fba58df-2a7a-4b76-8a8f-62739f97f271.jpg\",\"img/0862/064818ee-13d5-4618-bb24-21c7368ea278.jpg\"]","trial_type":"similarity","trial_index":105,"time_elapsed":632528,"internal_node_id":"0.0-6.0-99.0"},{"sim_score":4,"rt":2950,"stimulus":"[\"img/0764/fb7d4a20-a475-465e-a74f-aa39a0d33d16.jpg\",\"img/0898/cd3aaa3f-efa9-4ab3-8d6f-a6a9273ddf42.jpg\"]","trial_type":"similarity","trial_index":106,"time_elapsed":636481,"internal_node_id":"0.0-6.0-100.0"},{"sim_score":3,"rt":2802,"stimulus":"[\"img/0901/b123d109-47b4-4f9a-80c9-9bb16da42efa.jpg\",\"img/0902/bd89a85f-3853-4786-acd6-98818ee29f1c.jpg\"]","trial_type":"similarity","trial_index":107,"time_elapsed":640286,"internal_node_id":"0.0-6.0-101.0"},{"sim_score":1,"rt":3630,"stimulus":"[\"img/0764/c0b03adb-bd0a-4b96-a915-a827c2fd5211.jpg\",\"img/0868/fd307a36-9a3a-47d7-ab7c-f810d0b35040.jpg\"]","trial_type":"similarity","trial_index":108,"time_elapsed":644920,"internal_node_id":"0.0-6.0-102.0"},{"sim_score":1,"rt":3573,"stimulus":"[\"img/0769/0fe124d3-bcad-45f6-b64d-8f6eb8ee5251.jpg\",\"img/0881/db77fe00-aeb0-4d1d-aa66-f3a96fd077e4.jpg\"]","trial_type":"similarity","trial_index":109,"time_elapsed":649497,"internal_node_id":"0.0-6.0-103.0"},{"sim_score":1,"rt":3972,"stimulus":"[\"img/0864/ef9cbca0-4be8-435d-ad49-977259e80409.jpg\",\"img/0769/50985283-d353-4abc-9abe-14a91d56ebe6.jpg\"]","trial_type":"similarity","trial_index":110,"time_elapsed":654473,"internal_node_id":"0.0-6.0-104.0"},{"sim_score":5,"rt":4848,"stimulus":"[\"img/0866/945c6710-d15b-4a5b-a8f6-69af0850357f.jpg\",\"img/0868/0d3abd3a-b6c3-4584-a9f7-e2da63748b3d.jpg\"]","trial_type":"similarity","trial_index":111,"time_elapsed":660325,"internal_node_id":"0.0-6.0-105.0"},{"sim_score":1,"rt":2746,"stimulus":"[\"img/0868/d98ca254-b195-477f-b57e-5760a2717db8.jpg\",\"img/0862/92fcd8a4-8193-4a6a-ae09-dd4a6338b0df.jpg\"]","trial_type":"similarity","trial_index":112,"time_elapsed":664075,"internal_node_id":"0.0-6.0-106.0"},{"sim_score":1,"rt":4051,"stimulus":"[\"img/0766/d3bab2fc-ddcc-40a0-bb72-c0d0ebe19978.jpg\",\"img/0898/224c1572-56b9-4f16-a9e4-6f3bc9c114bd.jpg\"]","trial_type":"similarity","trial_index":113,"time_elapsed":669130,"internal_node_id":"0.0-6.0-107.0"},{"sim_score":1,"rt":3707,"stimulus":"[\"img/0898/e167334e-cc1d-4986-b3b1-c7bc7da64baa.jpg\",\"img/0864/6f631579-acf1-415c-a42c-1207f62a8d99.jpg\"]","trial_type":"similarity","trial_index":114,"time_elapsed":673841,"internal_node_id":"0.0-6.0-108.0"},{"sim_score":1,"rt":3021,"stimulus":"[\"img/0868/83b4350a-3b70-4cea-b7f5-b5b56f3050a8.jpg\",\"img/0902/418b716e-63e5-4c77-93e9-95b1f5a3ddf0.jpg\"]","trial_type":"similarity","trial_index":115,"time_elapsed":677865,"internal_node_id":"0.0-6.0-109.0"},{"sim_score":5,"rt":4011,"stimulus":"[\"img/0904/09dac84f-3d1c-4445-a68e-d0389fdbf1e9.jpg\",\"img/0764/bc3865c9-9004-4582-88a7-048478673f97.jpg\"]","trial_type":"similarity","trial_index":116,"time_elapsed":682880,"internal_node_id":"0.0-6.0-110.0"},{"sim_score":1,"rt":3105,"stimulus":"[\"img/0894/86201968-6e78-4d68-9b3a-d1692e066210.jpg\",\"img/0875/5a7c4e35-6514-4e12-8879-d16071da4cd6.jpg\"]","trial_type":"similarity","trial_index":117,"time_elapsed":686989,"internal_node_id":"0.0-6.0-111.0"},{"sim_score":3,"rt":3521,"stimulus":"[\"img/0868/4a8a45ed-2c4f-421b-9564-409a33ecd26c.jpg\",\"img/0874/c0378dac-9370-439a-8b79-db27c96fb390.jpg\"]","trial_type":"similarity","trial_index":118,"time_elapsed":691514,"internal_node_id":"0.0-6.0-112.0"},{"sim_score":5,"rt":3935,"stimulus":"[\"img/0904/b7c2a2c8-df33-4473-b3d4-ff7147c60db3.jpg\",\"img/0898/a114b375-cb89-44ba-9498-74213f1ecdee.jpg\"]","trial_type":"similarity","trial_index":119,"time_elapsed":707050,"internal_node_id":"0.0-6.0-113.0"},{"sim_score":1,"rt":3312,"stimulus":"[\"img/0860/b03b963d-949b-4d8d-b19c-4950c89eeca2.jpg\",\"img/0766/fd064894-7147-4af5-97e9-2089d5472656.jpg\"]","trial_type":"similarity","trial_index":120,"time_elapsed":711365,"internal_node_id":"0.0-6.0-114.0"},{"sim_score":1,"rt":4278,"stimulus":"[\"img/0894/6b2e9509-8699-42b7-9582-7741df0ba2d7.jpg\",\"img/0874/99f6563c-8a8d-4c1c-a41d-667b618c3fd5.jpg\"]","trial_type":"similarity","trial_index":121,"time_elapsed":716646,"internal_node_id":"0.0-6.0-115.0"},{"sim_score":3,"rt":3886,"stimulus":"[\"img/0899/0e1d936a-dbe2-4afc-9f19-7b7a1ae6c9ed.jpg\",\"img/0903/ea75f240-fb62-4edb-a709-83e858b202c0.jpg\"]","trial_type":"similarity","trial_index":122,"time_elapsed":721535,"internal_node_id":"0.0-6.0-116.0"},{"sim_score":3,"rt":4327,"stimulus":"[\"img/0881/633c6f40-56d9-4b48-bf1c-ecd83116eabb.jpg\",\"img/0764/952d7adc-dc40-4aee-acce-18c2a1d02ea1.jpg\"]","trial_type":"similarity","trial_index":123,"time_elapsed":726865,"internal_node_id":"0.0-6.0-117.0"},{"sim_score":5,"rt":3020,"stimulus":"[\"img/0903/2a9c8033-3e70-47fa-816d-97ee1813a3a3.jpg\",\"img/0769/35f2dd39-40aa-498e-b401-9f1ef2622d00.jpg\"]","trial_type":"similarity","trial_index":124,"time_elapsed":730888,"internal_node_id":"0.0-6.0-118.0"},{"sim_score":3,"rt":5667,"stimulus":"[\"img/0901/d4d09bf5-093e-4050-838e-7c738be8e63c.jpg\",\"img/0904/e9423a8c-f946-43ad-ab7b-931acef870e2.jpg\"]","trial_type":"similarity","trial_index":125,"time_elapsed":737559,"internal_node_id":"0.0-6.0-119.0"},{"sim_score":1,"rt":3825,"stimulus":"[\"img/0860/c5ccd1a4-4bb7-48e1-9b25-72cfaf06909b.jpg\",\"img/0881/48ed65a5-471f-41af-86ec-3793805c116d.jpg\"]","trial_type":"similarity","trial_index":126,"time_elapsed":742387,"internal_node_id":"0.0-6.0-120.0"},{"sim_score":3,"rt":4944,"stimulus":"[\"img/0758/d41c06bf-ebaf-454b-91c6-1a17f917b659.jpg\",\"img/0874/995f0332-0439-4eb4-add3-957335dbf6d9.jpg\"]","trial_type":"similarity","trial_index":127,"time_elapsed":748333,"internal_node_id":"0.0-6.0-121.0"},{"sim_score":1,"rt":2857,"stimulus":"[\"img/0901/58978a6d-a3e2-4c59-8d62-f60693ecc0f6.jpg\",\"img/0769/14d393ce-e5be-4ca1-86ce-cc27d4b6074c.jpg\"]","trial_type":"similarity","trial_index":128,"time_elapsed":752193,"internal_node_id":"0.0-6.0-122.0"},{"sim_score":5,"rt":3973,"stimulus":"[\"img/0902/aa6fca32-82b0-4414-b20a-8f6f8aa5a2d2.jpg\",\"img/0904/2c98dc56-88d1-4fb5-a999-b6a7861f65f0.jpg\"]","trial_type":"similarity","trial_index":129,"time_elapsed":757169,"internal_node_id":"0.0-6.0-123.0"},{"sim_score":1,"rt":2746,"stimulus":"[\"img/0899/06b0fc99-0581-461a-9913-d1a5a941ac61.jpg\",\"img/0864/300bb811-8b3c-4c42-8653-6097c3725197.jpg\"]","trial_type":"similarity","trial_index":130,"time_elapsed":760919,"internal_node_id":"0.0-6.0-124.0"},{"sim_score":1,"rt":2912,"stimulus":"[\"img/0766/110832e5-2646-4bd0-a94e-5df8cc314269.jpg\",\"img/0868/8b0b8473-e2c0-4331-aa56-c3a5c29369da.jpg\"]","trial_type":"similarity","trial_index":131,"time_elapsed":764833,"internal_node_id":"0.0-6.0-125.0"},{"sim_score":1,"rt":4717,"stimulus":"[\"img/0764/c84fbfa8-521c-407a-9bd3-24f7308d896c.jpg\",\"img/0864/5f74a653-3bdc-4308-8cca-ac667dc22e1f.jpg\"]","trial_type":"similarity","trial_index":132,"time_elapsed":770553,"internal_node_id":"0.0-6.0-126.0"},{"sim_score":1,"rt":3707,"stimulus":"[\"img/0899/25ae6ec8-9565-49fe-a8bb-8d0666f52716.jpg\",\"img/0866/02f5e6b9-52b7-448c-9708-5b460d0c9a23.jpg\"]","trial_type":"similarity","trial_index":133,"time_elapsed":775263,"internal_node_id":"0.0-6.0-127.0"},{"sim_score":1,"rt":3714,"stimulus":"[\"img/0901/a6776381-91fe-43f8-ab73-261d318f95fd.jpg\",\"img/0881/f6bd3b96-dc40-4e99-8681-bc3a35cf896d.jpg\"]","trial_type":"similarity","trial_index":134,"time_elapsed":779980,"internal_node_id":"0.0-6.0-128.0"},{"sim_score":5,"rt":3975,"stimulus":"[\"img/0898/79233891-305a-4a6a-8ddf-5c8604858203.jpg\",\"img/0903/8c358e9e-a4f4-466e-8b93-7aec0d2358e8.jpg\"]","trial_type":"similarity","trial_index":135,"time_elapsed":784959,"internal_node_id":"0.0-6.0-129.0"},{"sim_score":1,"rt":2902,"stimulus":"[\"img/0894/2217bdcd-23a7-42d3-823b-23f2488d7e87.jpg\",\"img/0867/a498eef3-9fa4-4ab2-9778-4ae82ac40dc5.jpg\"]","trial_type":"similarity","trial_index":136,"time_elapsed":788865,"internal_node_id":"0.0-6.0-130.0"},{"sim_score":1,"rt":4864,"stimulus":"[\"img/0874/8cdb1c07-1c32-46d2-981c-3636560fa6e5.jpg\",\"img/0903/36e4ab1f-caa9-40b3-8616-faada076df94.jpg\"]","trial_type":"similarity","trial_index":137,"time_elapsed":794732,"internal_node_id":"0.0-6.0-131.0"},{"sim_score":4,"rt":4520,"stimulus":"[\"img/0899/8de08897-b430-42fe-9d42-840670b80f94.jpg\",\"img/0898/01bfe666-3510-4fc7-964f-d00d28732dc8.jpg\"]","trial_type":"similarity","trial_index":138,"time_elapsed":800255,"internal_node_id":"0.0-6.0-132.0"},{"sim_score":1,"rt":3959,"stimulus":"[\"img/0867/179ab87a-8eac-4c52-a41f-2e48e3120f09.jpg\",\"img/0764/6ef77040-1fae-4afa-bfe7-eda98e6d0376.jpg\"]","trial_type":"similarity","trial_index":139,"time_elapsed":805217,"internal_node_id":"0.0-6.0-133.0"},{"sim_score":1,"rt":3066,"stimulus":"[\"img/0866/a04d37f0-99dd-478a-b6c6-58b215138f84.jpg\",\"img/0769/387a9744-d6a7-42b8-bab8-33007ec434aa.jpg\"]","trial_type":"similarity","trial_index":140,"time_elapsed":809287,"internal_node_id":"0.0-6.0-134.0"},{"sim_score":1,"rt":3457,"stimulus":"[\"img/0860/99c589b9-9140-4d17-90c0-b344323edcda.jpg\",\"img/0898/82231d4c-218b-4d0a-b50d-35a49b524e97.jpg\"]","trial_type":"similarity","trial_index":141,"time_elapsed":813747,"internal_node_id":"0.0-6.0-135.0"},{"sim_score":3,"rt":2614,"stimulus":"[\"img/0881/d373cb9f-a719-4549-a2a4-82def79fb2a5.jpg\",\"img/0903/5c6b1f57-b3a2-40f5-9fb1-82785e24b6a0.jpg\"]","trial_type":"similarity","trial_index":142,"time_elapsed":817365,"internal_node_id":"0.0-6.0-136.0"},{"sim_score":3,"rt":4013,"stimulus":"[\"img/0894/e6385e52-6c35-43bd-b0af-bc803d107b11.jpg\",\"img/0766/71b81ebd-0937-4d7f-b8bf-c4e46a4728fd.jpg\"]","trial_type":"similarity","trial_index":143,"time_elapsed":822380,"internal_node_id":"0.0-6.0-137.0"},{"sim_score":1,"rt":2723,"stimulus":"[\"img/0860/e8b8c51e-1834-4875-8b61-6c5bc9b178bd.jpg\",\"img/0764/d7f3ac54-318a-4dac-a06b-62bed34d01a4.jpg\"]","trial_type":"similarity","trial_index":144,"time_elapsed":826107,"internal_node_id":"0.0-6.0-138.0"},{"sim_score":3,"rt":4817,"stimulus":"[\"img/0769/82ab9db6-4578-4e79-874f-f09100439f09.jpg\",\"img/0902/51493fab-2a10-4385-aa88-bee3db441626.jpg\"]","trial_type":"similarity","trial_index":145,"time_elapsed":831926,"internal_node_id":"0.0-6.0-139.0"},{"sim_score":5,"rt":4927,"stimulus":"[\"img/0904/73920552-103b-4c9c-9ece-e0b8376b4504.jpg\",\"img/0903/12bd8657-92e6-4c36-a06c-597e7a1d51f3.jpg\"]","trial_type":"similarity","trial_index":146,"time_elapsed":837856,"internal_node_id":"0.0-6.0-140.0"},{"sim_score":5,"rt":5316,"stimulus":"[\"img/0764/ca957454-126a-4bd3-b29c-7174a24c25dc.jpg\",\"img/0769/8056889f-2b14-4782-bb25-b4e8896ab65b.jpg\"]","trial_type":"similarity","trial_index":147,"time_elapsed":844177,"internal_node_id":"0.0-6.0-141.0"},{"sim_score":1,"rt":4021,"stimulus":"[\"img/0902/af40b98b-3d23-4d95-b401-49ba5783ce39.jpg\",\"img/0881/7e31e5dc-2240-4b1b-b5a0-3acd980099ef.jpg\"]","trial_type":"similarity","trial_index":148,"time_elapsed":849201,"internal_node_id":"0.0-6.0-142.0"},{"sim_score":3,"rt":4903,"stimulus":"[\"img/0866/07c9c966-3c8d-40e7-8128-92b2acbaed5d.jpg\",\"img/0864/e336a4c5-6648-4fd7-b2f6-93a3fb83f8c6.jpg\"]","trial_type":"similarity","trial_index":149,"time_elapsed":855107,"internal_node_id":"0.0-6.0-143.0"},{"sim_score":5,"rt":3717,"stimulus":"[\"img/0902/af45fe42-178c-4c1a-99ef-256e87e3b092.jpg\",\"img/0898/c3cecf20-f7fd-45fa-97d0-dc0a63e8d6c0.jpg\"]","trial_type":"similarity","trial_index":150,"time_elapsed":859826,"internal_node_id":"0.0-6.0-144.0"},{"sim_score":1,"rt":3542,"stimulus":"[\"img/0862/47ed5efd-4ec9-4b74-bb4e-a5f5cf0c3e7d.jpg\",\"img/0864/8ddd2e30-a1d0-479f-9cbe-591213023893.jpg\"]","trial_type":"similarity","trial_index":151,"time_elapsed":864372,"internal_node_id":"0.0-6.0-145.0"},{"sim_score":1,"rt":2702,"stimulus":"[\"img/0875/d59ff733-eaff-4ee2-9443-06954dd0bcb6.jpg\",\"img/0898/0c7dde4f-efce-4b7a-9387-6921635b7890.jpg\"]","trial_type":"similarity","trial_index":152,"time_elapsed":868076,"internal_node_id":"0.0-6.0-146.0"},{"sim_score":5,"rt":4707,"stimulus":"[\"img/0874/767f289c-9814-4496-803f-745cc8913d1f.jpg\",\"img/0881/f4e3e181-b3c9-4af2-a5a4-fc135ab70d2e.jpg\"]","trial_type":"similarity","trial_index":153,"time_elapsed":873787,"internal_node_id":"0.0-6.0-147.0"},{"sim_score":1,"rt":3815,"stimulus":"[\"img/0758/61d64021-9214-4951-bdf8-f871f9827cf9.jpg\",\"img/0894/38f5931f-926d-414e-b498-66b188978b7a.jpg\"]","trial_type":"similarity","trial_index":154,"time_elapsed":878606,"internal_node_id":"0.0-6.0-148.0"},{"sim_score":1,"rt":2787,"stimulus":"[\"img/0904/d23dd7be-7fe8-4435-82f7-bd592c01e6a1.jpg\",\"img/0864/e8bd659f-aa43-4748-877e-3118e8b4e189.jpg\"]","trial_type":"similarity","trial_index":155,"time_elapsed":882396,"internal_node_id":"0.0-6.0-149.0"},{"sim_score":3,"rt":4707,"stimulus":"[\"img/0769/11518cb3-13ea-4dd0-890c-30cfab728ade.jpg\",\"img/0899/b45c550b-96c3-4255-ad59-48a2b4db1c1e.jpg\"]","trial_type":"similarity","trial_index":156,"time_elapsed":888107,"internal_node_id":"0.0-6.0-150.0"},{"sim_score":2,"rt":5302,"stimulus":"[\"img/0764/21e3292f-01ad-4238-828b-61b817857d16.jpg\",\"img/0903/aa842abe-6fa3-448a-bf71-88d3ad28663b.jpg\"]","trial_type":"similarity","trial_index":157,"time_elapsed":898224,"internal_node_id":"0.0-6.0-151.0"},{"sim_score":3,"rt":3951,"stimulus":"[\"img/0903/c708d08f-a108-4e04-8288-c3fcf6375db4.jpg\",\"img/0864/49150900-7f25-4ce8-8d10-9b47a71d1997.jpg\"]","trial_type":"similarity","trial_index":158,"time_elapsed":903178,"internal_node_id":"0.0-6.0-152.0"},{"sim_score":2,"rt":3129,"stimulus":"[\"img/0894/43216a7f-27bc-4b5a-8841-d122a30da9d9.jpg\",\"img/0881/adc02f34-ce97-4aef-850f-00519df06fd7.jpg\"]","trial_type":"similarity","trial_index":159,"time_elapsed":907311,"internal_node_id":"0.0-6.0-153.0"},{"sim_score":6,"rt":5934,"stimulus":"[\"img/0875/8521fd58-3b1e-4dc5-97ae-804edfa6734a.jpg\",\"img/0867/aa05d113-fc19-4756-a8eb-7878f580bc92.jpg\"]","trial_type":"similarity","trial_index":160,"time_elapsed":914248,"internal_node_id":"0.0-6.0-154.0"},{"sim_score":2,"rt":3872,"stimulus":"[\"img/0867/6e19c858-b606-45b2-a4c6-910a73f1d82c.jpg\",\"img/0758/7ee8bc8f-c40b-4b3a-84ec-3e83580622d4.jpg\"]","trial_type":"similarity","trial_index":161,"time_elapsed":919123,"internal_node_id":"0.0-6.0-155.0"},{"sim_score":2,"rt":3943,"stimulus":"[\"img/0868/293079b8-7e0c-4afd-a390-1e5d35fe3ded.jpg\",\"img/0901/6e2957f8-f5ab-46f4-87cc-bb50155a098b.jpg\"]","trial_type":"similarity","trial_index":162,"time_elapsed":924068,"internal_node_id":"0.0-6.0-156.0"},{"sim_score":4,"rt":6435,"stimulus":"[\"img/0769/aad494cc-674d-4a08-9bfa-24a88ebe3c79.jpg\",\"img/0894/e2446cf5-cd48-486a-badc-76498e087fbe.jpg\"]","trial_type":"similarity","trial_index":163,"time_elapsed":931507,"internal_node_id":"0.0-6.0-157.0"},{"sim_score":4,"rt":14514,"stimulus":"[\"img/0904/a8c3c7d2-9bcf-4347-9e03-8203adfc1fc5.jpg\",\"img/0758/caa93da2-9edf-49fa-96b9-32dedd8f5078.jpg\"]","trial_type":"similarity","trial_index":164,"time_elapsed":947024,"internal_node_id":"0.0-6.0-158.0"},{"sim_score":1,"rt":4403,"stimulus":"[\"img/0874/2c9464dd-8a23-4baa-ac94-1ba3af5c15cc.jpg\",\"img/0904/4e58005d-a2ec-4aaa-b199-445343561396.jpg\"]","trial_type":"similarity","trial_index":165,"time_elapsed":952430,"internal_node_id":"0.0-6.0-159.0"},{"sim_score":3,"rt":4866,"stimulus":"[\"img/0864/afcba0a3-7e27-4757-b254-e9f05fad27e2.jpg\",\"img/0901/31c032fd-3c3d-4882-a226-da9a80198937.jpg\"]","trial_type":"similarity","trial_index":166,"time_elapsed":958299,"internal_node_id":"0.0-6.0-160.0"},{"sim_score":1,"rt":3613,"stimulus":"[\"img/0898/26c41340-15bd-4ead-8fe4-c0d0ddca09c2.jpg\",\"img/0866/c446214b-a368-4c65-ae39-ea46894256ab.jpg\"]","trial_type":"similarity","trial_index":167,"time_elapsed":962915,"internal_node_id":"0.0-6.0-161.0"},{"sim_score":5,"rt":5567,"stimulus":"[\"img/0766/aaec5f42-7f0a-4a16-aeca-488d757acbcc.jpg\",\"img/0903/d987e220-f3e6-4b6d-a270-fe6757041f6d.jpg\"]","trial_type":"similarity","trial_index":168,"time_elapsed":969485,"internal_node_id":"0.0-6.0-162.0"},{"sim_score":1,"rt":3168,"stimulus":"[\"img/0860/71e1aad0-2cdf-43bb-94a4-a8c016997c30.jpg\",\"img/0899/57476fed-5962-4272-8fc9-b317bb777b54.jpg\"]","trial_type":"similarity","trial_index":169,"time_elapsed":973656,"internal_node_id":"0.0-6.0-163.0"},{"sim_score":4,"rt":6287,"stimulus":"[\"img/0766/ba35c0fc-4d5b-490d-959e-c94b279cdd02.jpg\",\"img/0862/e0f1a4e9-e1b6-45f7-af67-89f334e6630d.jpg\"]","trial_type":"similarity","trial_index":170,"time_elapsed":980946,"internal_node_id":"0.0-6.0-164.0"},{"sim_score":5,"rt":3341,"stimulus":"[\"img/0898/661621d4-a14e-487c-8c74-354134a29710.jpg\",\"img/0894/7f2f31fd-6618-41c6-b65a-0fd8b2851bc9.jpg\"]","trial_type":"similarity","trial_index":171,"time_elapsed":985290,"internal_node_id":"0.0-6.0-165.0"},{"sim_score":1,"rt":3880,"stimulus":"[\"img/0867/bf560d4f-dee3-4f11-a385-705cc1aa5f3c.jpg\",\"img/0766/6d32752d-aa05-40dc-9541-640b6e9d6fa1.jpg\"]","trial_type":"similarity","trial_index":172,"time_elapsed":990173,"internal_node_id":"0.0-6.0-166.0"},{"sim_score":1,"rt":4145,"stimulus":"[\"img/0904/96e503ea-6630-4996-85f2-0237688ce441.jpg\",\"img/0862/ee3b7bff-4a70-4e84-9bea-4a565e456acb.jpg\"]","trial_type":"similarity","trial_index":173,"time_elapsed":995320,"internal_node_id":"0.0-6.0-167.0"},{"sim_score":5,"rt":4115,"stimulus":"[\"img/0866/be24ab58-230e-4db8-9f45-ff04c9aec6bb.jpg\",\"img/0874/a3bc679d-619f-4db6-bb68-116dcb757d9c.jpg\"]","trial_type":"similarity","trial_index":174,"time_elapsed":1000438,"internal_node_id":"0.0-6.0-168.0"},{"sim_score":2,"rt":2919,"stimulus":"[\"img/0903/71dbc325-b588-4297-a5cf-7f268a722ad9.jpg\",\"img/0868/09a9ef4d-d000-4cfa-a6aa-ebec7c2edeb4.jpg\"]","trial_type":"similarity","trial_index":175,"time_elapsed":1004360,"internal_node_id":"0.0-6.0-169.0"},{"sim_score":6,"rt":3731,"stimulus":"[\"img/0769/5bd04f55-d091-4f57-85db-38426f26bd1a.jpg\",\"img/0904/9d30eff1-46ef-4453-b11e-124ef8145c00.jpg\"]","trial_type":"similarity","trial_index":176,"time_elapsed":1009094,"internal_node_id":"0.0-6.0-170.0"},{"sim_score":2,"rt":3873,"stimulus":"[\"img/0875/90da8d75-108a-44ad-b999-e21fee3860d3.jpg\",\"img/0764/e0788029-9d7f-414c-b747-46d2a99f7c86.jpg\"]","trial_type":"similarity","trial_index":177,"time_elapsed":1013970,"internal_node_id":"0.0-6.0-171.0"},{"sim_score":1,"rt":2927,"stimulus":"[\"img/0860/87039971-2210-4aab-93c0-8e9b5f1655b2.jpg\",\"img/0903/6b5dcc60-3ad3-4962-93e5-e6cf768477af.jpg\"]","trial_type":"similarity","trial_index":178,"time_elapsed":1017900,"internal_node_id":"0.0-6.0-172.0"},{"sim_score":3,"rt":5395,"stimulus":"[\"img/0864/65210d57-1153-4657-886a-32e758f49b4a.jpg\",\"img/0867/2e1a0b58-cdb1-4107-a14e-452530d7b9b0.jpg\"]","trial_type":"similarity","trial_index":179,"time_elapsed":1024298,"internal_node_id":"0.0-6.0-173.0"},{"sim_score":4,"rt":4271,"stimulus":"[\"img/0868/1a62b2b2-18f5-466e-b564-5176a57c565e.jpg\",\"img/0864/3d4de670-b290-4285-9c3d-12a0e3af44e9.jpg\"]","trial_type":"similarity","trial_index":180,"time_elapsed":1029572,"internal_node_id":"0.0-6.0-174.0"},{"sim_score":5,"rt":3308,"stimulus":"[\"img/0898/6cd3830b-d44e-4915-be2b-88d31424b91c.jpg\",\"img/0769/e8ed913b-8a88-44f6-9327-d34afec3116b.jpg\"]","trial_type":"similarity","trial_index":181,"time_elapsed":1033884,"internal_node_id":"0.0-6.0-175.0"},{"sim_score":7,"rt":3895,"stimulus":"[\"img/0766/d512b99c-a2dc-40d7-8e86-827323a0cbcf.jpg\",\"img/0764/b887d7c6-aa81-4637-af8e-05135757ac59.jpg\"]","trial_type":"similarity","trial_index":182,"time_elapsed":1038782,"internal_node_id":"0.0-6.0-176.0"},{"sim_score":1,"rt":3529,"stimulus":"[\"img/0764/50f1b062-d608-4bc0-ab25-b872dcf2ed93.jpg\",\"img/0866/8efcaa46-83ab-4dee-a35f-850402aa21ae.jpg\"]","trial_type":"similarity","trial_index":183,"time_elapsed":1043314,"internal_node_id":"0.0-6.0-177.0"},{"sim_score":1,"rt":3326,"stimulus":"[\"img/0902/12452bb1-b8c0-4e4d-ad4d-47e279e5933c.jpg\",\"img/0875/cff79b3a-a797-4393-9757-6275f999ec04.jpg\"]","trial_type":"similarity","trial_index":184,"time_elapsed":1047642,"internal_node_id":"0.0-6.0-178.0"},{"sim_score":1,"rt":3608,"stimulus":"[\"img/0881/19e82c47-8e4b-45d2-a6c8-74181eb4155e.jpg\",\"img/0904/9b3568cc-3cf7-42be-9df3-fdafde7a58b8.jpg\"]","trial_type":"similarity","trial_index":185,"time_elapsed":1052253,"internal_node_id":"0.0-6.0-179.0"},{"sim_score":1,"rt":3739,"stimulus":"[\"img/0874/bf14b896-e930-4fd9-9c05-2e83317a2773.jpg\",\"img/0860/c3379ff7-0763-48fe-a1ec-7ea3d611bc7a.jpg\"]","trial_type":"similarity","trial_index":186,"time_elapsed":1056994,"internal_node_id":"0.0-6.0-180.0"},{"sim_score":5,"rt":4855,"stimulus":"[\"img/0769/c7cfacc3-7f07-46ff-9f5d-8073f4c4679b.jpg\",\"img/0874/adf9a8f1-c40b-402b-b95b-1e85a54a7b62.jpg\"]","trial_type":"similarity","trial_index":187,"time_elapsed":1062852,"internal_node_id":"0.0-6.0-181.0"},{"sim_score":5,"rt":5484,"stimulus":"[\"img/0904/63dd06dd-dccb-47ba-9740-eb33239e18a7.jpg\",\"img/0766/fd74fdbb-ea40-4f3a-a091-38d08dfd636e.jpg\"]","trial_type":"similarity","trial_index":188,"time_elapsed":1069339,"internal_node_id":"0.0-6.0-182.0"},{"sim_score":5,"rt":4997,"stimulus":"[\"img/0902/d2c34af0-8c50-437d-8cc3-619195a3e8ba.jpg\",\"img/0764/a3226bc4-dcc3-4608-bde8-1414d685ce5c.jpg\"]","trial_type":"similarity","trial_index":189,"time_elapsed":1075338,"internal_node_id":"0.0-6.0-183.0"},{"sim_score":1,"rt":3177,"stimulus":"[\"img/0769/35364db7-e0d5-40ef-93dc-faf9dfb95136.jpg\",\"img/0875/ebf7653f-ff45-4e9f-af58-2c042ab3cd2b.jpg\"]","trial_type":"similarity","trial_index":190,"time_elapsed":1079518,"internal_node_id":"0.0-6.0-184.0"},{"sim_score":1,"rt":4254,"stimulus":"[\"img/0867/98d8cd96-1476-4fe0-a3a3-04f875500a1b.jpg\",\"img/0903/f10e9eb5-0c21-4a6a-944c-5f10a6d0fa4d.jpg\"]","trial_type":"similarity","trial_index":191,"time_elapsed":1084774,"internal_node_id":"0.0-6.0-185.0"},{"sim_score":1,"rt":3077,"stimulus":"[\"img/0862/5d887e9f-89e2-4ebc-80a0-6d46fe6480db.jpg\",\"img/0769/1d8734c4-77ab-4165-9e71-5cfe672ff01c.jpg\"]","trial_type":"similarity","trial_index":192,"time_elapsed":1088854,"internal_node_id":"0.0-6.0-186.0"},{"sim_score":1,"rt":2583,"stimulus":"[\"img/0766/75c3d627-4f3b-40d5-9d9c-10c8a62db644.jpg\",\"img/0866/9b38d691-1802-4959-ab3f-fc902f0e4ea6.jpg\"]","trial_type":"similarity","trial_index":193,"time_elapsed":1092440,"internal_node_id":"0.0-6.0-187.0"},{"sim_score":1,"rt":3355,"stimulus":"[\"img/0769/d1be2815-fa79-46e8-b5c3-7d81caaca490.jpg\",\"img/0860/702bd09d-df3a-40aa-a267-5f04474305b5.jpg\"]","trial_type":"similarity","trial_index":194,"time_elapsed":1096798,"internal_node_id":"0.0-6.0-188.0"},{"sim_score":3,"rt":7107,"stimulus":"[\"img/0881/62a64f90-7a72-4aee-a1a1-0c548ac9bdda.jpg\",\"img/0868/5fa7f9d0-f0e5-454c-8224-74d964818f56.jpg\"]","trial_type":"similarity","trial_index":195,"time_elapsed":1107697,"internal_node_id":"0.0-6.0-189.0"},{"view_history":"[{\"page_index\":0,\"viewing_time\":7508}]","rt":7508,"trial_type":"instructions","trial_index":196,"time_elapsed":1116205,"internal_node_id":"0.0-7.0"},{"rt":30969,"responses":"{\"Q0\":\"Nashville Warbler\"}","answer":["Nashville Warbler"],"trial_type":"image-multi-choice","trial_index":197,"time_elapsed":1148188,"internal_node_id":"0.0-8.0-0.0"},{"rt":7245,"responses":"{\"Q0\":\"Black-and-white Warbler\"}","answer":["Black-and-white Warbler"],"trial_type":"image-multi-choice","trial_index":198,"time_elapsed":1156445,"internal_node_id":"0.0-8.0-1.0"},{"rt":7521,"responses":"{\"Q0\":\"Blackburnian Warbler\"}","answer":["Townsend's Warbler"],"trial_type":"image-multi-choice","trial_index":199,"time_elapsed":1164981,"internal_node_id":"0.0-8.0-2.0"},{"rt":5358,"responses":"{\"Q0\":\"Lark Sparrow\"}","answer":["Lark Sparrow"],"trial_type":"image-multi-choice","trial_index":200,"time_elapsed":1171350,"internal_node_id":"0.0-8.0-3.0"},{"rt":9676,"responses":"{\"Q0\":\"Yellow Warbler\"}","answer":["Yellow Warbler"],"trial_type":"image-multi-choice","trial_index":201,"time_elapsed":1182040,"internal_node_id":"0.0-8.0-4.0"},{"rt":18111,"responses":"{\"Q0\":\"Tennessee Warbler\"}","answer":["Orange-crowned Warbler"],"trial_type":"image-multi-choice","trial_index":202,"time_elapsed":1201162,"internal_node_id":"0.0-8.0-5.0"},{"rt":10902,"responses":"{\"Q0\":\"White-throated Sparrow\"}","answer":["White-throated Sparrow"],"trial_type":"image-multi-choice","trial_index":203,"time_elapsed":1213074,"internal_node_id":"0.0-8.0-6.0"},{"rt":30483,"responses":"{\"Q0\":\"American Tree Sparrow\"}","answer":["Fox Sparrow"],"trial_type":"image-multi-choice","trial_index":204,"time_elapsed":1244568,"internal_node_id":"0.0-8.0-7.0"},{"rt":16358,"responses":"{\"Q0\":\"Song Sparrow\"}","answer":["Song Sparrow"],"trial_type":"image-multi-choice","trial_index":205,"time_elapsed":1261936,"internal_node_id":"0.0-8.0-8.0"},{"rt":9711,"responses":"{\"Q0\":\"Townsend's Warbler\"}","answer":["Blackburnian Warbler"],"trial_type":"image-multi-choice","trial_index":206,"time_elapsed":1272655,"internal_node_id":"0.0-8.0-9.0"},{"rt":22030,"responses":"{\"Q0\":\"Vesper Sparrow\"}","answer":["Vesper Sparrow"],"trial_type":"image-multi-choice","trial_index":207,"time_elapsed":1295696,"internal_node_id":"0.0-8.0-10.0"},{"rt":6080,"responses":"{\"Q0\":\"White-crowned Sparrow\"}","answer":["White-crowned Sparrow"],"trial_type":"image-multi-choice","trial_index":208,"time_elapsed":1302787,"internal_node_id":"0.0-8.0-11.0"},{"rt":17912,"responses":"{\"Q0\":\"Chipping Sparrow\"}","answer":["American Tree Sparrow"],"trial_type":"image-multi-choice","trial_index":209,"time_elapsed":1321709,"internal_node_id":"0.0-8.0-12.0"},{"rt":15472,"responses":"{\"Q0\":\"Magnolia Warbler\"}","answer":["Tennessee Warbler"],"trial_type":"image-multi-choice","trial_index":210,"time_elapsed":1338191,"internal_node_id":"0.0-8.0-13.0"},{"rt":15560,"responses":"{\"Q0\":\"Townsend's Warbler\"}","answer":["Magnolia Warbler"],"trial_type":"image-multi-choice","trial_index":211,"time_elapsed":1354761,"internal_node_id":"0.0-8.0-14.0"},{"rt":12170,"responses":"{\"Q0\":\"Ovenbird\"}","answer":["Northern Waterthrush"],"trial_type":"image-multi-choice","trial_index":212,"time_elapsed":1367941,"internal_node_id":"0.0-8.0-15.0"},{"rt":5256,"responses":"{\"Q0\":\"Fox Sparrow\"}","answer":["Chipping Sparrow"],"trial_type":"image-multi-choice","trial_index":213,"time_elapsed":1374207,"internal_node_id":"0.0-8.0-16.0"},{"rt":3757,"responses":"{\"Q0\":\"American Tree Sparrow\"}","answer":["Swamp Sparrow"],"trial_type":"image-multi-choice","trial_index":214,"time_elapsed":1378973,"internal_node_id":"0.0-8.0-17.0"},{"rt":4091,"responses":"{\"Q0\":\"Lincoln's Sparrow\"}","answer":["Lincoln's Sparrow"],"trial_type":"image-multi-choice","trial_index":215,"time_elapsed":1384075,"internal_node_id":"0.0-8.0-18.0"},{"rt":20286,"responses":"{\"Q0\":\"Ovenbird\"}","answer":["Ovenbird"],"trial_type":"image-multi-choice","trial_index":216,"time_elapsed":1405370,"internal_node_id":"0.0-8.0-19.0"}]