[{"view_history":"[{\"page_index\":0,\"viewing_time\":24440}]","rt":24444,"trial_type":"instructions","trial_index":0,"time_elapsed":24448,"internal_node_id":"0.0-0.0"},{"sim_score":7,"rt":9087,"stimulus":"[\"img/bluejay1.jpg\",\"img/bluejay2.jpg\"]","trial_type":"similarity_demo","trial_index":1,"time_elapsed":34589,"internal_node_id":"0.0-1.0"},{"view_history":"[{\"page_index\":0,\"viewing_time\":16969}]","rt":16970,"trial_type":"instructions","trial_index":2,"time_elapsed":52562,"internal_node_id":"0.0-2.0"},{"sim_score":5,"rt":5621,"stimulus":"[\"img/bluejay1.jpg\",\"img/cardinal1.jpg\"]","trial_type":"similarity_demo","trial_index":3,"time_elapsed":59221,"internal_node_id":"0.0-3.0"},{"view_history":"[{\"page_index\":0,\"viewing_time\":7724}]","rt":7725,"trial_type":"instructions","trial_index":4,"time_elapsed":67962,"internal_node_id":"0.0-4.0"},{"view_history":"[{\"page_index\":0,\"viewing_time\":60787}]","rt":60788,"trial_type":"instructions","trial_index":5,"time_elapsed":129761,"internal_node_id":"0.0-5.0"},{"sim_score":3,"rt":12321,"stimulus":"[\"img/0868/09a9ef4d-d000-4cfa-a6aa-ebec7c2edeb4.jpg\",\"img/0894/e6385e52-6c35-43bd-b0af-bc803d107b11.jpg\"]","trial_type":"similarity","trial_index":6,"time_elapsed":143112,"internal_node_id":"0.0-6.0-0.0"},{"sim_score":2,"rt":10312,"stimulus":"[\"img/0898/ec565187-2e31-4fdd-9a5c-153d0c789ae0.jpg\",\"img/0758/65d426d6-3ff6-415d-8654-a43b83ecc4fe.jpg\"]","trial_type":"similarity","trial_index":7,"time_elapsed":154463,"internal_node_id":"0.0-6.0-1.0"},{"sim_score":4,"rt":7099,"stimulus":"[\"img/0903/4cbdc464-e562-4ec2-9bb6-15f894fdf528.jpg\",\"img/0894/5a49e858-2850-4892-9a06-e9f0efb5f94d.jpg\"]","trial_type":"similarity","trial_index":8,"time_elapsed":162603,"internal_node_id":"0.0-6.0-2.0"},{"sim_score":2,"rt":4652,"stimulus":"[\"img/0881/54ea8e77-c7e5-4197-b7fa-00b7020849a7.jpg\",\"img/0766/535849cc-ff5d-4df9-8f31-0ce94a97d571.jpg\"]","trial_type":"similarity","trial_index":9,"time_elapsed":168287,"internal_node_id":"0.0-6.0-3.0"},{"sim_score":3,"rt":7706,"stimulus":"[\"img/0864/65210d57-1153-4657-886a-32e758f49b4a.jpg\",\"img/0860/18dfed73-e36b-4487-a8bd-0b8cff8e3668.jpg\"]","trial_type":"similarity","trial_index":10,"time_elapsed":177014,"internal_node_id":"0.0-6.0-4.0"},{"sim_score":5,"rt":8287,"stimulus":"[\"img/0902/6c2c243a-f663-45db-baf5-038d3d58c589.jpg\",\"img/0899/a05bea16-2bb4-4cb9-b8fb-4ff975db6971.jpg\"]","trial_type":"similarity","trial_index":11,"time_elapsed":186379,"internal_node_id":"0.0-6.0-5.0"},{"sim_score":3,"rt":4269,"stimulus":"[\"img/0868/3a62db2d-97e9-44a3-b8e3-a48c6f0e423b.jpg\",\"img/0769/11518cb3-13ea-4dd0-890c-30cfab728ade.jpg\"]","trial_type":"similarity","trial_index":12,"time_elapsed":191683,"internal_node_id":"0.0-6.0-6.0"},{"sim_score":3,"rt":6579,"stimulus":"[\"img/0764/b8e23f4f-ff19-4472-ad9b-2f85548ebca0.jpg\",\"img/0901/effc03f6-8f9d-46db-a66c-16fc83891c5c.jpg\"]","trial_type":"similarity","trial_index":13,"time_elapsed":199284,"internal_node_id":"0.0-6.0-7.0"},{"sim_score":3,"rt":4110,"stimulus":"[\"img/0881/44e09805-5a25-4f17-a716-4ad4a331b174.jpg\",\"img/0866/f756f7d1-9ad8-4a34-9ef6-7a443d705bfe.jpg\"]","trial_type":"similarity","trial_index":14,"time_elapsed":204418,"internal_node_id":"0.0-6.0-8.0"},{"sim_score":2,"rt":5025,"stimulus":"[\"img/0867/26611f4e-d694-4460-b7e2-43c62753ddc3.jpg\",\"img/0899/b45c550b-96c3-4255-ad59-48a2b4db1c1e.jpg\"]","trial_type":"similarity","trial_index":15,"time_elapsed":210481,"internal_node_id":"0.0-6.0-9.0"},{"sim_score":2,"rt":6431,"stimulus":"[\"img/0875/a4935837-7d3c-4df6-88c1-36a94d4991ca.jpg\",\"img/0766/dd3e18d0-0c98-4d05-b850-69976ee8cd75.jpg\"]","trial_type":"similarity","trial_index":16,"time_elapsed":217959,"internal_node_id":"0.0-6.0-10.0"},{"sim_score":1,"rt":3637,"stimulus":"[\"img/0901/fb0a8e69-7f19-4e6e-a6bb-a48f97f9b4f3.jpg\",\"img/0875/99698b4d-b4a1-44bc-8c83-8ea755bbbf61.jpg\"]","trial_type":"similarity","trial_index":17,"time_elapsed":222624,"internal_node_id":"0.0-6.0-11.0"},{"sim_score":4,"rt":3809,"stimulus":"[\"img/0902/417d8b4a-3c72-4adc-ac78-820e833316f2.jpg\",\"img/0860/8a92e21b-6a32-4e4a-a445-2d5a487ed0a4.jpg\"]","trial_type":"similarity","trial_index":18,"time_elapsed":227458,"internal_node_id":"0.0-6.0-12.0"},{"sim_score":2,"rt":4839,"stimulus":"[\"img/0874/c0378dac-9370-439a-8b79-db27c96fb390.jpg\",\"img/0867/bf560d4f-dee3-4f11-a385-705cc1aa5f3c.jpg\"]","trial_type":"similarity","trial_index":19,"time_elapsed":233320,"internal_node_id":"0.0-6.0-13.0"},{"sim_score":2,"rt":5312,"stimulus":"[\"img/0904/5cceabc9-de1d-4c67-989b-c28a4ef77e79.jpg\",\"img/0866/8efcaa46-83ab-4dee-a35f-850402aa21ae.jpg\"]","trial_type":"similarity","trial_index":20,"time_elapsed":239656,"internal_node_id":"0.0-6.0-14.0"},{"sim_score":2,"rt":4401,"stimulus":"[\"img/0758/7ffbc76b-1fc1-432c-8f7e-9ec8d1b3f643.jpg\",\"img/0902/0c760cc9-10ac-429e-8957-a7d51fc99683.jpg\"]","trial_type":"similarity","trial_index":21,"time_elapsed":245081,"internal_node_id":"0.0-6.0-15.0"},{"sim_score":1,"rt":5280,"stimulus":"[\"img/0867/f26f6b60-f772-4f4c-95a4-addc62cfd692.jpg\",\"img/0898/01bfe666-3510-4fc7-964f-d00d28732dc8.jpg\"]","trial_type":"similarity","trial_index":22,"time_elapsed":251380,"internal_node_id":"0.0-6.0-16.0"},{"sim_score":2,"rt":4777,"stimulus":"[\"img/0904/9d30eff1-46ef-4453-b11e-124ef8145c00.jpg\",\"img/0868/e0aff734-077f-40dd-9781-74821abd3621.jpg\"]","trial_type":"similarity","trial_index":23,"time_elapsed":257184,"internal_node_id":"0.0-6.0-17.0"},{"sim_score":3,"rt":3519,"stimulus":"[\"img/0766/00891401-e4c9-4ce1-bc19-f70740d174bc.jpg\",\"img/0864/8ddd2e30-a1d0-479f-9cbe-591213023893.jpg\"]","trial_type":"similarity","trial_index":24,"time_elapsed":261728,"internal_node_id":"0.0-6.0-18.0"},{"sim_score":4,"rt":5201,"stimulus":"[\"img/0899/66ab3178-c3fe-4455-ad17-d5952b08e018.jpg\",\"img/0766/ea09dd5a-d24d-4e97-a099-7da3db1baef1.jpg\"]","trial_type":"similarity","trial_index":25,"time_elapsed":267966,"internal_node_id":"0.0-6.0-19.0"},{"sim_score":2,"rt":3795,"stimulus":"[\"img/0764/b887d7c6-aa81-4637-af8e-05135757ac59.jpg\",\"img/0758/821c68d3-5cb0-4eae-8659-30e6263fca39.jpg\"]","trial_type":"similarity","trial_index":26,"time_elapsed":272783,"internal_node_id":"0.0-6.0-20.0"},{"sim_score":2,"rt":6245,"stimulus":"[\"img/0901/58978a6d-a3e2-4c59-8d62-f60693ecc0f6.jpg\",\"img/0874/7e4f2150-3b59-4a36-b5da-a4e0ba410531.jpg\"]","trial_type":"similarity","trial_index":27,"time_elapsed":280055,"internal_node_id":"0.0-6.0-21.0"},{"sim_score":3,"rt":5377,"stimulus":"[\"img/0875/fb732ab5-013a-4366-9f65-27811ed157e9.jpg\",\"img/0758/7fba58df-2a7a-4b76-8a8f-62739f97f271.jpg\"]","trial_type":"similarity","trial_index":28,"time_elapsed":286464,"internal_node_id":"0.0-6.0-22.0"},{"sim_score":2,"rt":3693,"stimulus":"[\"img/0867/98d8cd96-1476-4fe0-a3a3-04f875500a1b.jpg\",\"img/0881/c24f3051-eefa-42de-aba6-fccb56d93c70.jpg\"]","trial_type":"similarity","trial_index":29,"time_elapsed":291188,"internal_node_id":"0.0-6.0-23.0"},{"sim_score":1,"rt":4879,"stimulus":"[\"img/0758/20497cbe-ddae-489e-86e2-ab06985ed07c.jpg\",\"img/0901/a6776381-91fe-43f8-ab73-261d318f95fd.jpg\"]","trial_type":"similarity","trial_index":30,"time_elapsed":297091,"internal_node_id":"0.0-6.0-24.0"},{"sim_score":2,"rt":5653,"stimulus":"[\"img/0868/293079b8-7e0c-4afd-a390-1e5d35fe3ded.jpg\",\"img/0875/3ecb367d-e9eb-4826-8aaa-7aa72fb98019.jpg\"]","trial_type":"similarity","trial_index":31,"time_elapsed":303769,"internal_node_id":"0.0-6.0-25.0"},{"sim_score":2,"rt":4141,"stimulus":"[\"img/0903/0a92ec52-4e87-410a-857a-4455cde56a70.jpg\",\"img/0901/a373612d-67e2-4fec-9764-21d3d6ef6359.jpg\"]","trial_type":"similarity","trial_index":32,"time_elapsed":308947,"internal_node_id":"0.0-6.0-26.0"},{"sim_score":5,"rt":3892,"stimulus":"[\"img/0894/38cf335f-f76f-4349-8d65-e20cd6859565.jpg\",\"img/0899/1b3457ea-87d4-4946-a01c-aac1863ed46c.jpg\"]","trial_type":"similarity","trial_index":33,"time_elapsed":313864,"internal_node_id":"0.0-6.0-27.0"},{"sim_score":1,"rt":4746,"stimulus":"[\"img/0862/ad593cc7-cabe-4bb7-8e14-8a447a0717b4.jpg\",\"img/0867/50a1b60e-3a29-44bf-b606-d4bd3746fea9.jpg\"]","trial_type":"similarity","trial_index":34,"time_elapsed":319628,"internal_node_id":"0.0-6.0-28.0"},{"sim_score":1,"rt":4536,"stimulus":"[\"img/0864/e336a4c5-6648-4fd7-b2f6-93a3fb83f8c6.jpg\",\"img/0875/90da8d75-108a-44ad-b999-e21fee3860d3.jpg\"]","trial_type":"similarity","trial_index":35,"time_elapsed":325188,"internal_node_id":"0.0-6.0-29.0"},{"sim_score":2,"rt":10896,"stimulus":"[\"img/0862/92fcd8a4-8193-4a6a-ae09-dd4a6338b0df.jpg\",\"img/0874/29830da7-be5f-44e5-b141-652a0ccf7269.jpg\"]","trial_type":"similarity","trial_index":36,"time_elapsed":337101,"internal_node_id":"0.0-6.0-30.0"},{"sim_score":1,"rt":3940,"stimulus":"[\"img/0903/647ce311-8c71-479a-8361-961db1457139.jpg\",\"img/0758/7ee8bc8f-c40b-4b3a-84ec-3e83580622d4.jpg\"]","trial_type":"similarity","trial_index":37,"time_elapsed":342072,"internal_node_id":"0.0-6.0-31.0"},{"sim_score":1,"rt":2798,"stimulus":"[\"img/0866/6f2a90d7-14f1-4f1b-bd64-fc0af6b9fe44.jpg\",\"img/0901/443f2e59-199b-4f7b-9de9-c44ad97326a5.jpg\"]","trial_type":"similarity","trial_index":38,"time_elapsed":345886,"internal_node_id":"0.0-6.0-32.0"},{"sim_score":2,"rt":3403,"stimulus":"[\"img/0874/bf14b896-e930-4fd9-9c05-2e83317a2773.jpg\",\"img/0899/d8f2dd94-570e-4e8c-a087-d96090fb9e8c.jpg\"]","trial_type":"similarity","trial_index":39,"time_elapsed":350311,"internal_node_id":"0.0-6.0-33.0"},{"sim_score":6,"rt":4328,"stimulus":"[\"img/0903/5c6b1f57-b3a2-40f5-9fb1-82785e24b6a0.jpg\",\"img/0902/04a6ad4a-afc6-4871-8225-56b299af7b6b.jpg\"]","trial_type":"similarity","trial_index":40,"time_elapsed":355655,"internal_node_id":"0.0-6.0-34.0"},{"sim_score":2,"rt":3960,"stimulus":"[\"img/0758/f61ecdf8-a7d4-4db0-b84d-be46f7cfaffc.jpg\",\"img/0866/a04d37f0-99dd-478a-b6c6-58b215138f84.jpg\"]","trial_type":"similarity","trial_index":41,"time_elapsed":360641,"internal_node_id":"0.0-6.0-35.0"},{"sim_score":3,"rt":3139,"stimulus":"[\"img/0875/2e13d160-eea1-416b-aff1-d37ab99ecc1d.jpg\",\"img/0903/5995f4a8-fa82-46f8-8760-fd7800a5ca34.jpg\"]","trial_type":"similarity","trial_index":42,"time_elapsed":364810,"internal_node_id":"0.0-6.0-36.0"},{"sim_score":3,"rt":6472,"stimulus":"[\"img/0864/6f631579-acf1-415c-a42c-1207f62a8d99.jpg\",\"img/0902/01b41522-de46-4c3a-b0af-a61b2682b40e.jpg\"]","trial_type":"similarity","trial_index":43,"time_elapsed":377771,"internal_node_id":"0.0-6.0-37.0"},{"sim_score":1,"rt":2775,"stimulus":"[\"img/0901/5657dd86-0ff9-4753-ba2b-9dfb223e5c89.jpg\",\"img/0867/aa05d113-fc19-4756-a8eb-7878f580bc92.jpg\"]","trial_type":"similarity","trial_index":44,"time_elapsed":381571,"internal_node_id":"0.0-6.0-38.0"},{"sim_score":5,"rt":6663,"stimulus":"[\"img/0862/ee3b7bff-4a70-4e84-9bea-4a565e456acb.jpg\",\"img/0860/71e1aad0-2cdf-43bb-94a4-a8c016997c30.jpg\"]","trial_type":"similarity","trial_index":45,"time_elapsed":389266,"internal_node_id":"0.0-6.0-39.0"},{"sim_score":6,"rt":5879,"stimulus":"[\"img/0867/ac1797e4-8afc-48fe-b252-86d1defb1cca.jpg\",\"img/0868/179a5502-ab5c-478e-8263-5a1fbcc101d2.jpg\"]","trial_type":"similarity","trial_index":46,"time_elapsed":396166,"internal_node_id":"0.0-6.0-40.0"},{"sim_score":4,"rt":6999,"stimulus":"[\"img/0904/09dac84f-3d1c-4445-a68e-d0389fdbf1e9.jpg\",\"img/0899/fd9efb43-701f-4cd6-baaa-4c38315f4bdc.jpg\"]","trial_type":"similarity","trial_index":47,"time_elapsed":404185,"internal_node_id":"0.0-6.0-41.0"},{"sim_score":3,"rt":3625,"stimulus":"[\"img/0862/e8cc3bdf-cc43-4565-bccf-492626c70953.jpg\",\"img/0894/b2d2f66e-e480-46da-a02a-6d0c6b285d78.jpg\"]","trial_type":"similarity","trial_index":48,"time_elapsed":408837,"internal_node_id":"0.0-6.0-42.0"},{"sim_score":3,"rt":6490,"stimulus":"[\"img/0875/03c3c331-738b-4446-af92-3d7386b08c2e.jpg\",\"img/0904/60d1a521-edf7-4696-9263-f21ac0e62a01.jpg\"]","trial_type":"similarity","trial_index":49,"time_elapsed":416356,"internal_node_id":"0.0-6.0-43.0"},{"sim_score":2,"rt":5500,"stimulus":"[\"img/0874/8cdb1c07-1c32-46d2-981c-3636560fa6e5.jpg\",\"img/0898/68476bbb-34a1-42d9-8bc1-deab783d4489.jpg\"]","trial_type":"similarity","trial_index":50,"time_elapsed":422879,"internal_node_id":"0.0-6.0-44.0"},{"sim_score":2,"rt":5764,"stimulus":"[\"img/0898/993d8f2d-bef7-4251-a193-0f93a32b7763.jpg\",\"img/0868/15dd6fd7-791e-4b53-b203-195d617521a4.jpg\"]","trial_type":"similarity","trial_index":51,"time_elapsed":429668,"internal_node_id":"0.0-6.0-45.0"},{"sim_score":5,"rt":3429,"stimulus":"[\"img/0901/7c16dd9c-44ad-4d5b-990c-6a0b9b48b1b1.jpg\",\"img/0860/94ef7afc-e0e6-4a15-98c6-0bfac82bc832.jpg\"]","trial_type":"similarity","trial_index":52,"time_elapsed":434117,"internal_node_id":"0.0-6.0-46.0"},{"sim_score":5,"rt":6164,"stimulus":"[\"img/0894/05161000-f476-499b-a878-c13c7f347fd9.jpg\",\"img/0902/12452bb1-b8c0-4e4d-ad4d-47e279e5933c.jpg\"]","trial_type":"similarity","trial_index":53,"time_elapsed":441304,"internal_node_id":"0.0-6.0-47.0"},{"sim_score":3,"rt":4442,"stimulus":"[\"img/0764/23ea9375-f801-4a96-9925-7d453da887c7.jpg\",\"img/0862/847e5208-38ec-4f36-949c-296cdd7424ee.jpg\"]","trial_type":"similarity","trial_index":54,"time_elapsed":446776,"internal_node_id":"0.0-6.0-48.0"},{"sim_score":5,"rt":7758,"stimulus":"[\"img/0881/2a8413be-fec2-4de6-88ad-614dd4cccc9d.jpg\",\"img/0758/b76ceca7-95ac-46e4-ac13-da02c8e93be9.jpg\"]","trial_type":"similarity","trial_index":55,"time_elapsed":455563,"internal_node_id":"0.0-6.0-49.0"},{"sim_score":4,"rt":4978,"stimulus":"[\"img/0766/ba35c0fc-4d5b-490d-959e-c94b279cdd02.jpg\",\"img/0769/da36e3f7-2337-434f-ab57-11822dd7eed7.jpg\"]","trial_type":"similarity","trial_index":56,"time_elapsed":461569,"internal_node_id":"0.0-6.0-50.0"},{"sim_score":5,"rt":7934,"stimulus":"[\"img/0875/e7e66b13-b573-431e-b85e-288ce04a35a3.jpg\",\"img/0866/0207e9a2-7dbb-40b5-9459-b472aaeceb2a.jpg\"]","trial_type":"similarity","trial_index":57,"time_elapsed":470532,"internal_node_id":"0.0-6.0-51.0"},{"sim_score":6,"rt":7730,"stimulus":"[\"img/0894/10f22b96-040c-44f4-950b-a4963f3f506c.jpg\",\"img/0904/a8c3c7d2-9bcf-4347-9e03-8203adfc1fc5.jpg\"]","trial_type":"similarity","trial_index":58,"time_elapsed":479285,"internal_node_id":"0.0-6.0-52.0"},{"sim_score":3,"rt":5557,"stimulus":"[\"img/0758/e38fd80d-18d0-42f3-b848-f930788e8bd7.jpg\",\"img/0769/ecda2fb3-556b-43ba-8a67-e87dd75ff2b4.jpg\"]","trial_type":"similarity","trial_index":59,"time_elapsed":485859,"internal_node_id":"0.0-6.0-53.0"},{"sim_score":2,"rt":5314,"stimulus":"[\"img/0902/168ebd47-9e82-4ab7-a18b-c3da85072db8.jpg\",\"img/0874/a82926a3-0b43-4add-803c-d5f9ea7798ee.jpg\"]","trial_type":"similarity","trial_index":60,"time_elapsed":492197,"internal_node_id":"0.0-6.0-54.0"},{"sim_score":3,"rt":10676,"stimulus":"[\"img/0903/8fcafe03-43df-4c45-9da5-0df3a1eeccc5.jpg\",\"img/0862/ba89835a-408c-480b-8594-ed4ffa97eb5c.jpg\"]","trial_type":"similarity","trial_index":61,"time_elapsed":503899,"internal_node_id":"0.0-6.0-55.0"},{"sim_score":2,"rt":4613,"stimulus":"[\"img/0866/07c9c966-3c8d-40e7-8128-92b2acbaed5d.jpg\",\"img/0894/4739e06d-c31e-4bf1-bf91-c97fa9afb456.jpg\"]","trial_type":"similarity","trial_index":62,"time_elapsed":509539,"internal_node_id":"0.0-6.0-56.0"},{"sim_score":2,"rt":5149,"stimulus":"[\"img/0867/1719a35d-f085-48c0-9099-16c94fe418b4.jpg\",\"img/0904/25365108-e038-4021-aac9-797f2063b337.jpg\"]","trial_type":"similarity","trial_index":63,"time_elapsed":515707,"internal_node_id":"0.0-6.0-57.0"},{"sim_score":2,"rt":7274,"stimulus":"[\"img/0875/d59ff733-eaff-4ee2-9443-06954dd0bcb6.jpg\",\"img/0881/84397291-bc14-4fbf-90e8-241e486ab0fe.jpg\"]","trial_type":"similarity","trial_index":64,"time_elapsed":524008,"internal_node_id":"0.0-6.0-58.0"},{"sim_score":2,"rt":4838,"stimulus":"[\"img/0866/386235d2-6857-41e7-88a8-25cfc3430025.jpg\",\"img/0860/e8b8c51e-1834-4875-8b61-6c5bc9b178bd.jpg\"]","trial_type":"similarity","trial_index":65,"time_elapsed":529868,"internal_node_id":"0.0-6.0-59.0"},{"sim_score":2,"rt":5119,"stimulus":"[\"img/0903/14f179a2-8786-48a2-8377-88d1d404341b.jpg\",\"img/0866/a15b02be-11bb-43e3-b0e0-ecc3bd7dfc49.jpg\"]","trial_type":"similarity","trial_index":66,"time_elapsed":536003,"internal_node_id":"0.0-6.0-60.0"},{"sim_score":1,"rt":6293,"stimulus":"[\"img/0860/8fdba999-b946-4c7d-9891-336018b563ef.jpg\",\"img/0875/2c361b79-c3d1-4eda-812e-bf03192407bf.jpg\"]","trial_type":"similarity","trial_index":67,"time_elapsed":543458,"internal_node_id":"0.0-6.0-61.0"},{"sim_score":3,"rt":4534,"stimulus":"[\"img/0898/a114b375-cb89-44ba-9498-74213f1ecdee.jpg\",\"img/0862/00c06b00-3b73-44e9-bc1e-c5aafb438321.jpg\"]","trial_type":"similarity","trial_index":68,"time_elapsed":549013,"internal_node_id":"0.0-6.0-62.0"},{"sim_score":3,"rt":5189,"stimulus":"[\"img/0902/511abb54-0094-4f4d-b6dc-3f2c97050521.jpg\",\"img/0766/f011ef45-fb48-44b8-8224-867ed2ccf786.jpg\"]","trial_type":"similarity","trial_index":69,"time_elapsed":555219,"internal_node_id":"0.0-6.0-63.0"},{"sim_score":4,"rt":3919,"stimulus":"[\"img/0758/335851a0-a55b-46d8-ab05-8463eda48349.jpg\",\"img/0864/ef9cbca0-4be8-435d-ad49-977259e80409.jpg\"]","trial_type":"similarity","trial_index":70,"time_elapsed":560169,"internal_node_id":"0.0-6.0-64.0"},{"sim_score":3,"rt":3931,"stimulus":"[\"img/0894/1b3888e6-cf36-4c4a-a039-187aa5cb71ac.jpg\",\"img/0860/f44ba3fb-03a2-42f0-8509-2c1ded493086.jpg\"]","trial_type":"similarity","trial_index":71,"time_elapsed":565124,"internal_node_id":"0.0-6.0-65.0"},{"sim_score":1,"rt":3208,"stimulus":"[\"img/0899/93494f3b-d539-4075-b027-d82e344563da.jpg\",\"img/0868/fd307a36-9a3a-47d7-ab7c-f810d0b35040.jpg\"]","trial_type":"similarity","trial_index":72,"time_elapsed":569358,"internal_node_id":"0.0-6.0-66.0"},{"sim_score":1,"rt":3659,"stimulus":"[\"img/0866/02f5e6b9-52b7-448c-9708-5b460d0c9a23.jpg\",\"img/0862/e697469a-ec19-4414-b972-7b9f3564785b.jpg\"]","trial_type":"similarity","trial_index":73,"time_elapsed":574035,"internal_node_id":"0.0-6.0-67.0"},{"sim_score":3,"rt":3850,"stimulus":"[\"img/0860/5383b320-1518-4095-a58e-5cc1ae30b64c.jpg\",\"img/0758/9fb5b2fe-3f00-4fe6-973c-1ce10d5f4cd5.jpg\"]","trial_type":"similarity","trial_index":74,"time_elapsed":578902,"internal_node_id":"0.0-6.0-68.0"},{"sim_score":1,"rt":4391,"stimulus":"[\"img/0902/71c03003-03ef-4b0f-8229-e0c857150a5d.jpg\",\"img/0867/f8488a47-94ee-4166-952c-44e16cf172f6.jpg\"]","trial_type":"similarity","trial_index":75,"time_elapsed":584309,"internal_node_id":"0.0-6.0-69.0"},{"sim_score":4,"rt":7711,"stimulus":"[\"img/0862/fb26cb07-d5a9-4653-813c-f41609f26cd5.jpg\",\"img/0901/1b86f2fc-7a1d-4aa8-9252-114f92edef3b.jpg\"]","trial_type":"similarity","trial_index":76,"time_elapsed":593035,"internal_node_id":"0.0-6.0-70.0"},{"sim_score":6,"rt":9893,"stimulus":"[\"img/0867/5e07b34d-b40f-4b1c-ac10-49975bace45f.jpg\",\"img/0866/be24ab58-230e-4db8-9f45-ff04c9aec6bb.jpg\"]","trial_type":"similarity","trial_index":77,"time_elapsed":603947,"internal_node_id":"0.0-6.0-71.0"},{"sim_score":3,"rt":7305,"stimulus":"[\"img/0860/31ff6436-98bf-4652-bed2-40f627229568.jpg\",\"img/0904/63dd06dd-dccb-47ba-9740-eb33239e18a7.jpg\"]","trial_type":"similarity","trial_index":78,"time_elapsed":612281,"internal_node_id":"0.0-6.0-72.0"},{"sim_score":1,"rt":3780,"stimulus":"[\"img/0875/5a1e5100-0d94-4fec-bbe9-ca9894d2cf8e.jpg\",\"img/0899/7f9d45d0-b2c6-40d3-aa41-c207db2c411b.jpg\"]","trial_type":"similarity","trial_index":79,"time_elapsed":617077,"internal_node_id":"0.0-6.0-73.0"},{"sim_score":3,"rt":4837,"stimulus":"[\"img/0899/9de5e857-aa9a-4e0c-8ba2-46d79bd069a4.jpg\",\"img/0758/d540bee6-b460-4c32-ac57-bc282742d7d4.jpg\"]","trial_type":"similarity","trial_index":80,"time_elapsed":622939,"internal_node_id":"0.0-6.0-74.0"},{"sim_score":2,"rt":5752,"stimulus":"[\"img/0862/7918ca67-5bd3-4606-a5ea-c39fb11a9297.jpg\",\"img/0875/42910c99-5463-450a-a0f8-d4d060a11455.jpg\"]","trial_type":"similarity","trial_index":81,"time_elapsed":632191,"internal_node_id":"0.0-6.0-75.0"},{"sim_score":4,"rt":5382,"stimulus":"[\"img/0901/875dedb9-24c9-4443-9f8c-85e97d70ee5a.jpg\",\"img/0894/38f5931f-926d-414e-b498-66b188978b7a.jpg\"]","trial_type":"similarity","trial_index":82,"time_elapsed":638592,"internal_node_id":"0.0-6.0-76.0"},{"sim_score":2,"rt":3750,"stimulus":"[\"img/0766/0025de5e-f620-4079-8a0f-00326ff3a6b0.jpg\",\"img/0758/3ddd05d3-557e-4ee7-8b78-9d2d681d8ae2.jpg\"]","trial_type":"similarity","trial_index":83,"time_elapsed":643367,"internal_node_id":"0.0-6.0-77.0"},{"sim_score":4,"rt":8676,"stimulus":"[\"img/0894/0130a973-d993-41f8-874a-fee23d9ac11f.jpg\",\"img/0764/4bec8d92-75aa-475a-954d-8215dbe538f5.jpg\"]","trial_type":"similarity","trial_index":84,"time_elapsed":653068,"internal_node_id":"0.0-6.0-78.0"},{"sim_score":2,"rt":3293,"stimulus":"[\"img/0860/b03b963d-949b-4d8d-b19c-4950c89eeca2.jpg\",\"img/0867/12264664-1860-46df-8c21-162b9817cdda.jpg\"]","trial_type":"similarity","trial_index":85,"time_elapsed":657379,"internal_node_id":"0.0-6.0-79.0"},{"sim_score":3,"rt":3835,"stimulus":"[\"img/0898/f3a3f225-1248-4ac7-b93b-f0ff28485bf3.jpg\",\"img/0901/0f670aef-ac36-496d-8142-ee5fdb21dd82.jpg\"]","trial_type":"similarity","trial_index":86,"time_elapsed":662230,"internal_node_id":"0.0-6.0-80.0"},{"sim_score":2,"rt":4309,"stimulus":"[\"img/0874/767f289c-9814-4496-803f-745cc8913d1f.jpg\",\"img/0764/a86eed5b-d0af-4c3f-8c7a-26e98e98cf1a.jpg\"]","trial_type":"similarity","trial_index":87,"time_elapsed":667556,"internal_node_id":"0.0-6.0-81.0"},{"sim_score":2,"rt":9030,"stimulus":"[\"img/0899/d60714ae-98d7-4564-8c98-94dba1351135.jpg\",\"img/0862/a0a3a7ba-7798-46a3-b4ca-05e1f6e581d0.jpg\"]","trial_type":"similarity","trial_index":88,"time_elapsed":677610,"internal_node_id":"0.0-6.0-82.0"},{"sim_score":3,"rt":2986,"stimulus":"[\"img/0766/e8052e17-9dae-4139-802b-6e590cb2d526.jpg\",\"img/0901/12da1841-e611-435c-9719-109413d536a8.jpg\"]","trial_type":"similarity","trial_index":89,"time_elapsed":681613,"internal_node_id":"0.0-6.0-83.0"},{"sim_score":2,"rt":2835,"stimulus":"[\"img/0881/405484ae-0d00-4b05-bc57-6420a36adfac.jpg\",\"img/0898/b3290bf9-215b-4b45-b21a-65bdf73f142f.jpg\"]","trial_type":"similarity","trial_index":90,"time_elapsed":685479,"internal_node_id":"0.0-6.0-84.0"},{"sim_score":2,"rt":3816,"stimulus":"[\"img/0868/8b0b8473-e2c0-4331-aa56-c3a5c29369da.jpg\",\"img/0860/524b2e98-5767-4d53-942c-ebae6925659b.jpg\"]","trial_type":"similarity","trial_index":91,"time_elapsed":690318,"internal_node_id":"0.0-6.0-85.0"},{"sim_score":2,"rt":4106,"stimulus":"[\"img/0758/a709631e-3705-4725-ac40-f0d916924f08.jpg\",\"img/0868/d6d1f30d-4323-435a-b194-7892521bc57e.jpg\"]","trial_type":"similarity","trial_index":92,"time_elapsed":695444,"internal_node_id":"0.0-6.0-86.0"},{"sim_score":3,"rt":4001,"stimulus":"[\"img/0864/5f33e097-23e3-4002-882d-76e8cb15f451.jpg\",\"img/0894/a98416c0-51e2-4960-85da-d81d8688b9d5.jpg\"]","trial_type":"similarity","trial_index":93,"time_elapsed":700463,"internal_node_id":"0.0-6.0-87.0"},{"sim_score":1,"rt":4265,"stimulus":"[\"img/0866/d493a2c8-66eb-44b4-be02-2f327b700b7c.jpg\",\"img/0902/af45fe42-178c-4c1a-99ef-256e87e3b092.jpg\"]","trial_type":"similarity","trial_index":94,"time_elapsed":705746,"internal_node_id":"0.0-6.0-88.0"},{"sim_score":3,"rt":6277,"stimulus":"[\"img/0769/965c3c44-d9e5-47c5-b61a-2bbdf4215d9a.jpg\",\"img/0867/de92135f-5b65-4ed9-b245-188292c7c2f8.jpg\"]","trial_type":"similarity","trial_index":95,"time_elapsed":713053,"internal_node_id":"0.0-6.0-89.0"},{"sim_score":2,"rt":11945,"stimulus":"[\"img/0874/ca23d307-fc00-4d7d-9106-584c6eb21b4d.jpg\",\"img/0875/527ced51-8e53-4aab-ab05-86df219104c0.jpg\"]","trial_type":"similarity","trial_index":96,"time_elapsed":726015,"internal_node_id":"0.0-6.0-90.0"},{"sim_score":3,"rt":3466,"stimulus":"[\"img/0864/0116ca98-293d-4fa6-a93b-5a6144ef64cc.jpg\",\"img/0874/3ce41e7c-40c8-4d58-a546-171114521796.jpg\"]","trial_type":"similarity","trial_index":97,"time_elapsed":730497,"internal_node_id":"0.0-6.0-91.0"},{"sim_score":3,"rt":6849,"stimulus":"[\"img/0881/292e9b4b-fca0-4ba8-87f1-4048f9e37b7d.jpg\",\"img/0862/064818ee-13d5-4618-bb24-21c7368ea278.jpg\"]","trial_type":"similarity","trial_index":98,"time_elapsed":738370,"internal_node_id":"0.0-6.0-92.0"},{"sim_score":3,"rt":11497,"stimulus":"[\"img/0864/efcfbb1b-8197-44c9-b723-40d6c608dd3c.jpg\",\"img/0881/62a64f90-7a72-4aee-a1a1-0c548ac9bdda.jpg\"]","trial_type":"similarity","trial_index":99,"time_elapsed":750885,"internal_node_id":"0.0-6.0-93.0"},{"sim_score":2,"rt":3294,"stimulus":"[\"img/0899/76ad07e2-ca25-45eb-84f2-8d80b8ca3e26.jpg\",\"img/0901/d4d09bf5-093e-4050-838e-7c738be8e63c.jpg\"]","trial_type":"similarity","trial_index":100,"time_elapsed":755203,"internal_node_id":"0.0-6.0-94.0"},{"sim_score":2,"rt":3769,"stimulus":"[\"img/0874/1016b306-087c-4afc-aa08-fa527b28dc76.jpg\",\"img/0766/989c5c7f-1aff-4442-ac63-9d46acf4a891.jpg\"]","trial_type":"similarity","trial_index":101,"time_elapsed":759988,"internal_node_id":"0.0-6.0-95.0"},{"sim_score":3,"rt":4943,"stimulus":"[\"img/0881/c843e210-bdfe-4a7c-8bbe-fcea1f90fe1c.jpg\",\"img/0899/06b0fc99-0581-461a-9913-d1a5a941ac61.jpg\"]","trial_type":"similarity","trial_index":102,"time_elapsed":765961,"internal_node_id":"0.0-6.0-96.0"},{"sim_score":4,"rt":3991,"stimulus":"[\"img/0862/24cdc752-c2e5-4a17-86a6-6f2045d8553b.jpg\",\"img/0902/6730b12a-f0a7-4587-8c10-a32fae16565b.jpg\"]","trial_type":"similarity","trial_index":103,"time_elapsed":770971,"internal_node_id":"0.0-6.0-97.0"},{"sim_score":3,"rt":3817,"stimulus":"[\"img/0899/f95cbdb4-f804-4f5d-ad76-373ad343e658.jpg\",\"img/0764/e48e6c6f-9e28-420f-836a-8043b2319bb4.jpg\"]","trial_type":"similarity","trial_index":104,"time_elapsed":775803,"internal_node_id":"0.0-6.0-98.0"},{"sim_score":3,"rt":3849,"stimulus":"[\"img/0758/a085b443-b5d7-4cb2-9ad4-b9dab0fc23f1.jpg\",\"img/0862/5d887e9f-89e2-4ebc-80a0-6d46fe6480db.jpg\"]","trial_type":"similarity","trial_index":105,"time_elapsed":780669,"internal_node_id":"0.0-6.0-99.0"},{"sim_score":3,"rt":5875,"stimulus":"[\"img/0764/ba0c0955-acbb-457d-b1c2-f006b88121d5.jpg\",\"img/0898/82231d4c-218b-4d0a-b50d-35a49b524e97.jpg\"]","trial_type":"similarity","trial_index":106,"time_elapsed":787562,"internal_node_id":"0.0-6.0-100.0"},{"sim_score":5,"rt":6389,"stimulus":"[\"img/0901/3db47171-0139-4235-82cd-0b1787b6775f.jpg\",\"img/0902/d2c34af0-8c50-437d-8cc3-619195a3e8ba.jpg\"]","trial_type":"similarity","trial_index":107,"time_elapsed":794983,"internal_node_id":"0.0-6.0-101.0"},{"sim_score":1,"rt":3941,"stimulus":"[\"img/0764/29072395-f595-4e3c-83d3-ff87010039fa.jpg\",\"img/0868/4bd5105a-d2c3-4f82-8c80-57196106ba53.jpg\"]","trial_type":"similarity","trial_index":108,"time_elapsed":799939,"internal_node_id":"0.0-6.0-102.0"},{"sim_score":2,"rt":5219,"stimulus":"[\"img/0769/38a88f69-28fd-4bbd-99f0-f4c02bfd3995.jpg\",\"img/0881/f037e3b0-09cb-4a83-b2d9-6a71fe474e63.jpg\"]","trial_type":"similarity","trial_index":109,"time_elapsed":806187,"internal_node_id":"0.0-6.0-103.0"},{"sim_score":3,"rt":3310,"stimulus":"[\"img/0864/300bb811-8b3c-4c42-8653-6097c3725197.jpg\",\"img/0769/14d393ce-e5be-4ca1-86ce-cc27d4b6074c.jpg\"]","trial_type":"similarity","trial_index":110,"time_elapsed":810523,"internal_node_id":"0.0-6.0-104.0"},{"sim_score":6,"rt":5368,"stimulus":"[\"img/0866/bf14b5bd-fb55-47db-86b9-4f8aeb9a6dad.jpg\",\"img/0868/1a62b2b2-18f5-466e-b564-5176a57c565e.jpg\"]","trial_type":"similarity","trial_index":111,"time_elapsed":816906,"internal_node_id":"0.0-6.0-105.0"},{"sim_score":1,"rt":4329,"stimulus":"[\"img/0868/77091fc7-a590-4ebb-b915-fdb2483a2399.jpg\",\"img/0862/cdaed51d-9e2f-4807-801a-4663c40077e2.jpg\"]","trial_type":"similarity","trial_index":112,"time_elapsed":822258,"internal_node_id":"0.0-6.0-106.0"},{"sim_score":2,"rt":4509,"stimulus":"[\"img/0766/717fd72f-a281-499b-a5ba-5e2ecc4d4866.jpg\",\"img/0898/b2732712-71c2-45d8-834f-2b2ed5504910.jpg\"]","trial_type":"similarity","trial_index":113,"time_elapsed":827782,"internal_node_id":"0.0-6.0-107.0"},{"sim_score":3,"rt":2667,"stimulus":"[\"img/0898/04e39a7a-fcf6-4156-ab0e-f5871f335e1c.jpg\",\"img/0864/5f74a653-3bdc-4308-8cca-ac667dc22e1f.jpg\"]","trial_type":"similarity","trial_index":114,"time_elapsed":831467,"internal_node_id":"0.0-6.0-108.0"},{"sim_score":1,"rt":3864,"stimulus":"[\"img/0868/4a8a45ed-2c4f-421b-9564-409a33ecd26c.jpg\",\"img/0902/aa6fca32-82b0-4414-b20a-8f6f8aa5a2d2.jpg\"]","trial_type":"similarity","trial_index":115,"time_elapsed":836362,"internal_node_id":"0.0-6.0-109.0"},{"sim_score":3,"rt":3842,"stimulus":"[\"img/0904/2fd488e9-960f-41f7-8a44-33375f7d5051.jpg\",\"img/0764/1def7b22-b054-4ec2-860b-73d25691823b.jpg\"]","trial_type":"similarity","trial_index":116,"time_elapsed":841230,"internal_node_id":"0.0-6.0-110.0"},{"sim_score":1,"rt":4361,"stimulus":"[\"img/0894/661b9f9f-4bde-487a-b1ed-87085fde6948.jpg\",\"img/0875/34132396-d896-4c2d-8087-646dd867e769.jpg\"]","trial_type":"similarity","trial_index":117,"time_elapsed":846613,"internal_node_id":"0.0-6.0-111.0"},{"sim_score":1,"rt":3064,"stimulus":"[\"img/0868/5fa7f9d0-f0e5-454c-8224-74d964818f56.jpg\",\"img/0874/995f0332-0439-4eb4-add3-957335dbf6d9.jpg\"]","trial_type":"similarity","trial_index":118,"time_elapsed":850691,"internal_node_id":"0.0-6.0-112.0"},{"sim_score":3,"rt":3233,"stimulus":"[\"img/0904/65e2b70a-b184-4da3-b5c0-5038bdf9469a.jpg\",\"img/0898/08c72dac-f8ad-407a-9ce6-8c9a5d679c3a.jpg\"]","trial_type":"similarity","trial_index":119,"time_elapsed":856854,"internal_node_id":"0.0-6.0-113.0"},{"sim_score":3,"rt":4324,"stimulus":"[\"img/0860/c5ccd1a4-4bb7-48e1-9b25-72cfaf06909b.jpg\",\"img/0766/33aa9ebb-c9f5-418f-8c8b-c77861889568.jpg\"]","trial_type":"similarity","trial_index":120,"time_elapsed":862199,"internal_node_id":"0.0-6.0-114.0"},{"sim_score":2,"rt":2997,"stimulus":"[\"img/0894/11674fa4-285d-44e2-939f-2228c6a64080.jpg\",\"img/0874/eba003b4-cdab-4eee-8bc3-f064c7d94165.jpg\"]","trial_type":"similarity","trial_index":121,"time_elapsed":866232,"internal_node_id":"0.0-6.0-115.0"},{"sim_score":3,"rt":3206,"stimulus":"[\"img/0899/5b56dd3e-3f49-47cc-af84-16da6457753b.jpg\",\"img/0903/39365c8e-a733-4801-ac7d-b87e38c3784b.jpg\"]","trial_type":"similarity","trial_index":122,"time_elapsed":870454,"internal_node_id":"0.0-6.0-116.0"},{"sim_score":1,"rt":4192,"stimulus":"[\"img/0881/20af39f5-373d-4a55-a437-2dc4c0382c46.jpg\",\"img/0764/438c0217-036f-43c9-9b87-f43144e46011.jpg\"]","trial_type":"similarity","trial_index":123,"time_elapsed":875668,"internal_node_id":"0.0-6.0-117.0"},{"sim_score":5,"rt":4350,"stimulus":"[\"img/0903/e2e55a9e-0397-4dc0-8adf-4a54cfefe1fe.jpg\",\"img/0769/aad494cc-674d-4a08-9bfa-24a88ebe3c79.jpg\"]","trial_type":"similarity","trial_index":124,"time_elapsed":881048,"internal_node_id":"0.0-6.0-118.0"},{"sim_score":4,"rt":2756,"stimulus":"[\"img/0901/4f9cffe0-c0be-4d7f-bacd-9d51efd19b4a.jpg\",\"img/0904/e9423a8c-f946-43ad-ab7b-931acef870e2.jpg\"]","trial_type":"similarity","trial_index":125,"time_elapsed":884820,"internal_node_id":"0.0-6.0-119.0"},{"sim_score":3,"rt":3528,"stimulus":"[\"img/0860/4f695df5-afac-4da7-9875-fee39b0b24ad.jpg\",\"img/0881/4bd34581-94d8-4e88-8c89-5cef864ca3be.jpg\"]","trial_type":"similarity","trial_index":126,"time_elapsed":889379,"internal_node_id":"0.0-6.0-120.0"},{"sim_score":5,"rt":4796,"stimulus":"[\"img/0758/53f35650-e455-4b53-8be4-c3c8271c6466.jpg\",\"img/0874/31e22c7c-99aa-40b1-bf03-dd73fa2df4d6.jpg\"]","trial_type":"similarity","trial_index":127,"time_elapsed":895191,"internal_node_id":"0.0-6.0-121.0"},{"sim_score":2,"rt":5385,"stimulus":"[\"img/0901/c6c877e0-dd63-4e00-9657-33af29d55aab.jpg\",\"img/0769/f6396414-6788-4d59-9683-de153298d89c.jpg\"]","trial_type":"similarity","trial_index":128,"time_elapsed":901599,"internal_node_id":"0.0-6.0-122.0"},{"sim_score":6,"rt":3328,"stimulus":"[\"img/0902/31abfa33-7cdb-44ad-968e-9f7b324d577a.jpg\",\"img/0904/24fc38fe-842c-4831-ad8a-b1de5c25c0a8.jpg\"]","trial_type":"similarity","trial_index":129,"time_elapsed":905952,"internal_node_id":"0.0-6.0-123.0"},{"sim_score":2,"rt":4677,"stimulus":"[\"img/0899/00715b3f-851b-420b-a26b-d7f79f7759a9.jpg\",\"img/0864/a248adb3-c70b-4652-b7a3-776d2a1e904b.jpg\"]","trial_type":"similarity","trial_index":130,"time_elapsed":911658,"internal_node_id":"0.0-6.0-124.0"},{"sim_score":1,"rt":3550,"stimulus":"[\"img/0766/79767d11-b612-4e8a-9e4b-a8ac95bb6a54.jpg\",\"img/0868/c8ac40c7-6904-4e13-8d61-c75d3052dc4e.jpg\"]","trial_type":"similarity","trial_index":131,"time_elapsed":916231,"internal_node_id":"0.0-6.0-125.0"},{"sim_score":2,"rt":4300,"stimulus":"[\"img/0764/4952d0a0-c9be-471a-8ec7-94a37bf4051d.jpg\",\"img/0864/e02eddb5-f468-499c-91bf-f7be3ffe979b.jpg\"]","trial_type":"similarity","trial_index":132,"time_elapsed":921552,"internal_node_id":"0.0-6.0-126.0"},{"sim_score":1,"rt":3953,"stimulus":"[\"img/0899/0433d056-aa30-4f8a-9aa1-abbb951e4edd.jpg\",\"img/0866/620cd1aa-0800-4414-8f6e-90342e7a99ad.jpg\"]","trial_type":"similarity","trial_index":133,"time_elapsed":926521,"internal_node_id":"0.0-6.0-127.0"},{"sim_score":1,"rt":6568,"stimulus":"[\"img/0901/1ede21d9-384f-4150-86b5-e1c57b5dc1d4.jpg\",\"img/0881/344de456-b358-4887-bd0e-e4c3278af887.jpg\"]","trial_type":"similarity","trial_index":134,"time_elapsed":934120,"internal_node_id":"0.0-6.0-128.0"},{"sim_score":5,"rt":3403,"stimulus":"[\"img/0898/661621d4-a14e-487c-8c74-354134a29710.jpg\",\"img/0903/31b5a5f4-b695-4af1-bad2-a19650a05498.jpg\"]","trial_type":"similarity","trial_index":135,"time_elapsed":938537,"internal_node_id":"0.0-6.0-129.0"},{"sim_score":2,"rt":3776,"stimulus":"[\"img/0894/6aa5545f-fa7d-4286-bbaa-aaf34dc7ec96.jpg\",\"img/0867/cc72ed48-7704-422c-86d6-467a1145287a.jpg\"]","trial_type":"similarity","trial_index":136,"time_elapsed":943336,"internal_node_id":"0.0-6.0-130.0"},{"sim_score":2,"rt":7113,"stimulus":"[\"img/0874/3f471690-9788-4d03-90c7-f615aecef149.jpg\",\"img/0903/d987e220-f3e6-4b6d-a270-fe6757041f6d.jpg\"]","trial_type":"similarity","trial_index":137,"time_elapsed":951464,"internal_node_id":"0.0-6.0-131.0"},{"sim_score":3,"rt":5328,"stimulus":"[\"img/0899/ddf96ade-692e-4602-bd22-dedbb46401bc.jpg\",\"img/0898/6cd3830b-d44e-4915-be2b-88d31424b91c.jpg\"]","trial_type":"similarity","trial_index":138,"time_elapsed":957808,"internal_node_id":"0.0-6.0-132.0"},{"sim_score":1,"rt":5265,"stimulus":"[\"img/0867/db7e032f-162b-46f5-ae67-2b29679adee4.jpg\",\"img/0764/a3226bc4-dcc3-4608-bde8-1414d685ce5c.jpg\"]","trial_type":"similarity","trial_index":139,"time_elapsed":964103,"internal_node_id":"0.0-6.0-133.0"},{"sim_score":3,"rt":4082,"stimulus":"[\"img/0866/c446214b-a368-4c65-ae39-ea46894256ab.jpg\",\"img/0769/c34b7763-8ff2-46d5-9e92-f1d8f3bedbd8.jpg\"]","trial_type":"similarity","trial_index":140,"time_elapsed":969211,"internal_node_id":"0.0-6.0-134.0"},{"sim_score":4,"rt":9213,"stimulus":"[\"img/0860/87039971-2210-4aab-93c0-8e9b5f1655b2.jpg\",\"img/0898/0af304a2-6a7a-4082-ab7c-4450cd08cc58.jpg\"]","trial_type":"similarity","trial_index":141,"time_elapsed":979452,"internal_node_id":"0.0-6.0-135.0"},{"sim_score":2,"rt":6015,"stimulus":"[\"img/0881/6b1189e6-232d-4042-8885-16dc7b10e0d4.jpg\",\"img/0903/680ed18e-b311-4ecf-9b00-7dea32128334.jpg\"]","trial_type":"similarity","trial_index":142,"time_elapsed":986494,"internal_node_id":"0.0-6.0-136.0"},{"sim_score":3,"rt":3312,"stimulus":"[\"img/0894/e2446cf5-cd48-486a-badc-76498e087fbe.jpg\",\"img/0766/214866ee-423d-4629-9bb9-41572bdc7dac.jpg\"]","trial_type":"similarity","trial_index":143,"time_elapsed":990832,"internal_node_id":"0.0-6.0-137.0"},{"sim_score":2,"rt":3911,"stimulus":"[\"img/0860/99c589b9-9140-4d17-90c0-b344323edcda.jpg\",\"img/0764/978aede9-4590-4ad0-b234-135c83e5d669.jpg\"]","trial_type":"similarity","trial_index":144,"time_elapsed":995758,"internal_node_id":"0.0-6.0-138.0"},{"sim_score":5,"rt":4641,"stimulus":"[\"img/0769/f2740c58-7c02-433f-920b-746b0b75435b.jpg\",\"img/0902/51493fab-2a10-4385-aa88-bee3db441626.jpg\"]","trial_type":"similarity","trial_index":145,"time_elapsed":1001423,"internal_node_id":"0.0-6.0-139.0"},{"sim_score":5,"rt":4464,"stimulus":"[\"img/0904/2f88ce53-02d0-4f95-a082-182c56a0eeb4.jpg\",\"img/0903/97a42b34-5462-4665-88c7-83c014b33d24.jpg\"]","trial_type":"similarity","trial_index":146,"time_elapsed":1006903,"internal_node_id":"0.0-6.0-140.0"},{"sim_score":5,"rt":5508,"stimulus":"[\"img/0764/bc3865c9-9004-4582-88a7-048478673f97.jpg\",\"img/0769/8056889f-2b14-4782-bb25-b4e8896ab65b.jpg\"]","trial_type":"similarity","trial_index":147,"time_elapsed":1013425,"internal_node_id":"0.0-6.0-141.0"},{"sim_score":3,"rt":4000,"stimulus":"[\"img/0902/b03fee99-d5ca-4bf8-871c-a4a743a39842.jpg\",\"img/0881/dea58fad-b4f1-41d9-bd3f-916eff19a3fd.jpg\"]","trial_type":"similarity","trial_index":148,"time_elapsed":1018441,"internal_node_id":"0.0-6.0-142.0"},{"sim_score":1,"rt":3598,"stimulus":"[\"img/0866/945c6710-d15b-4a5b-a8f6-69af0850357f.jpg\",\"img/0864/1ebbc554-99fa-49f9-8799-317375a79820.jpg\"]","trial_type":"similarity","trial_index":149,"time_elapsed":1023066,"internal_node_id":"0.0-6.0-143.0"},{"sim_score":6,"rt":3961,"stimulus":"[\"img/0902/9f543501-3cf1-45a7-a2f1-eeca87cc15b9.jpg\",\"img/0898/4184e5a2-84ea-4f36-9b42-ae58646f6f87.jpg\"]","trial_type":"similarity","trial_index":150,"time_elapsed":1028043,"internal_node_id":"0.0-6.0-144.0"},{"sim_score":3,"rt":6309,"stimulus":"[\"img/0862/99a99e39-8355-44ec-b993-e7bcec111e1c.jpg\",\"img/0864/c3b63e8f-ea39-4d70-a1f2-b3fe4be8eb75.jpg\"]","trial_type":"similarity","trial_index":151,"time_elapsed":1035376,"internal_node_id":"0.0-6.0-145.0"},{"sim_score":1,"rt":6746,"stimulus":"[\"img/0875/dbdd643e-6d0e-4a5c-ab57-b9c29b9c981a.jpg\",\"img/0898/8605a25b-6895-476d-8c13-df7a83f96093.jpg\"]","trial_type":"similarity","trial_index":152,"time_elapsed":1043138,"internal_node_id":"0.0-6.0-146.0"},{"sim_score":3,"rt":10689,"stimulus":"[\"img/0874/85eb9b8a-c4c6-4e5a-b8e7-363a87a82054.jpg\",\"img/0881/ed4c971f-0873-4fc8-b6d6-e8bbd82f0bcc.jpg\"]","trial_type":"similarity","trial_index":153,"time_elapsed":1054851,"internal_node_id":"0.0-6.0-147.0"},{"sim_score":1,"rt":5102,"stimulus":"[\"img/0758/d57c2592-a317-4f63-91be-91a3a9afd222.jpg\",\"img/0894/7dd6ff43-f8fc-408a-8a41-a2b261871820.jpg\"]","trial_type":"similarity","trial_index":154,"time_elapsed":1060967,"internal_node_id":"0.0-6.0-148.0"},{"sim_score":3,"rt":4206,"stimulus":"[\"img/0904/06dacdc5-2206-4fb8-92b7-88042d22833c.jpg\",\"img/0864/49150900-7f25-4ce8-8d10-9b47a71d1997.jpg\"]","trial_type":"similarity","trial_index":155,"time_elapsed":1066187,"internal_node_id":"0.0-6.0-149.0"},{"sim_score":5,"rt":5842,"stimulus":"[\"img/0769/9ea9ceb6-049e-4ad9-be8f-00645cd35803.jpg\",\"img/0899/56a605c3-d0a2-4215-89e1-779279d85a7c.jpg\"]","trial_type":"similarity","trial_index":156,"time_elapsed":1073044,"internal_node_id":"0.0-6.0-150.0"},{"sim_score":3,"rt":4064,"stimulus":"[\"img/0764/bd2eaa3e-95a9-4a59-a78e-3f81c766eea9.jpg\",\"img/0903/b548d383-2a95-4575-8c13-647873751ff1.jpg\"]","trial_type":"similarity","trial_index":157,"time_elapsed":1080490,"internal_node_id":"0.0-6.0-151.0"},{"sim_score":3,"rt":3772,"stimulus":"[\"img/0903/ea75f240-fb62-4edb-a709-83e858b202c0.jpg\",\"img/0864/3651d070-2fc5-4848-b6a6-088a2d9ac5c9.jpg\"]","trial_type":"similarity","trial_index":158,"time_elapsed":1085289,"internal_node_id":"0.0-6.0-152.0"},{"sim_score":2,"rt":3247,"stimulus":"[\"img/0894/151063aa-6472-4745-837b-36603aba5966.jpg\",\"img/0881/f7a8cc63-8842-40a4-9ff8-fe530310d62c.jpg\"]","trial_type":"similarity","trial_index":159,"time_elapsed":1089549,"internal_node_id":"0.0-6.0-153.0"},{"sim_score":4,"rt":3733,"stimulus":"[\"img/0875/cff79b3a-a797-4393-9757-6275f999ec04.jpg\",\"img/0867/a498eef3-9fa4-4ab2-9778-4ae82ac40dc5.jpg\"]","trial_type":"similarity","trial_index":160,"time_elapsed":1094301,"internal_node_id":"0.0-6.0-154.0"},{"sim_score":2,"rt":2970,"stimulus":"[\"img/0867/c66898ba-b71b-4d50-84f9-f7f84853a98d.jpg\",\"img/0758/67c0be2f-9e91-48b3-8219-70ac0a1802fa.jpg\"]","trial_type":"similarity","trial_index":161,"time_elapsed":1098292,"internal_node_id":"0.0-6.0-155.0"},{"sim_score":1,"rt":2321,"stimulus":"[\"img/0868/7b212364-ff5f-4e28-9241-7eb6ea00161b.jpg\",\"img/0901/d6d15b1c-4a30-4f74-a3fd-d4c8ee4169ca.jpg\"]","trial_type":"similarity","trial_index":162,"time_elapsed":1101636,"internal_node_id":"0.0-6.0-156.0"},{"sim_score":5,"rt":3965,"stimulus":"[\"img/0769/e31b3bd8-efcb-413e-aa8c-75fac2b8f2ac.jpg\",\"img/0894/6b2e9509-8699-42b7-9582-7741df0ba2d7.jpg\"]","trial_type":"similarity","trial_index":163,"time_elapsed":1106631,"internal_node_id":"0.0-6.0-157.0"},{"sim_score":3,"rt":2771,"stimulus":"[\"img/0904/0d17b811-063e-416e-a23c-3b3cfa4fcce5.jpg\",\"img/0758/ddc336e9-a8b6-4bb9-937a-c7e25e0e9250.jpg\"]","trial_type":"similarity","trial_index":164,"time_elapsed":1110418,"internal_node_id":"0.0-6.0-158.0"},{"sim_score":2,"rt":5402,"stimulus":"[\"img/0874/ca76a855-4e77-4f2f-872a-0a718153e7ed.jpg\",\"img/0904/4d7d70a3-9477-4921-bda0-f9531d0a5c5b.jpg\"]","trial_type":"similarity","trial_index":165,"time_elapsed":1116836,"internal_node_id":"0.0-6.0-159.0"},{"sim_score":1,"rt":2833,"stimulus":"[\"img/0864/0f537697-a314-47c3-a8cc-8df23b7e536c.jpg\",\"img/0901/2a953e50-d237-405c-a38d-5ed21494c968.jpg\"]","trial_type":"similarity","trial_index":166,"time_elapsed":1120687,"internal_node_id":"0.0-6.0-160.0"},{"sim_score":2,"rt":5343,"stimulus":"[\"img/0898/0c7dde4f-efce-4b7a-9387-6921635b7890.jpg\",\"img/0866/11a1d141-be5e-443c-98c1-a9d4d9e3dec0.jpg\"]","trial_type":"similarity","trial_index":167,"time_elapsed":1127060,"internal_node_id":"0.0-6.0-161.0"},{"sim_score":3,"rt":3328,"stimulus":"[\"img/0766/110832e5-2646-4bd0-a94e-5df8cc314269.jpg\",\"img/0903/59defeb8-98bd-4570-a2f8-9bd189e68ef4.jpg\"]","trial_type":"similarity","trial_index":168,"time_elapsed":1131412,"internal_node_id":"0.0-6.0-162.0"},{"sim_score":1,"rt":4674,"stimulus":"[\"img/0860/d9a0d117-6d1d-41c0-8fec-9aff0fd9e9f2.jpg\",\"img/0899/f58b8d2f-b19d-4b59-8b94-8834be92e4ba.jpg\"]","trial_type":"similarity","trial_index":169,"time_elapsed":1137103,"internal_node_id":"0.0-6.0-163.0"},{"sim_score":2,"rt":4523,"stimulus":"[\"img/0766/6d32752d-aa05-40dc-9541-640b6e9d6fa1.jpg\",\"img/0862/57b6f83f-c763-4858-830d-102f97bfefbf.jpg\"]","trial_type":"similarity","trial_index":170,"time_elapsed":1142643,"internal_node_id":"0.0-6.0-164.0"},{"sim_score":4,"rt":6287,"stimulus":"[\"img/0898/5f699581-3853-4547-856c-12f419ba5af7.jpg\",\"img/0894/9b1333fd-3561-43bf-aee5-99b7b7ca3dc3.jpg\"]","trial_type":"similarity","trial_index":171,"time_elapsed":1149945,"internal_node_id":"0.0-6.0-165.0"},{"sim_score":1,"rt":4268,"stimulus":"[\"img/0867/c71dc569-f49c-4397-8381-68b8d726736d.jpg\",\"img/0766/c23b5a20-e50f-4d85-841f-cf89212a4348.jpg\"]","trial_type":"similarity","trial_index":172,"time_elapsed":1155229,"internal_node_id":"0.0-6.0-166.0"},{"sim_score":3,"rt":2444,"stimulus":"[\"img/0904/fe746a3f-8458-48d0-8a13-8cba2a9df9f8.jpg\",\"img/0862/f188d4f0-76a4-4102-818c-a209969d73a5.jpg\"]","trial_type":"similarity","trial_index":173,"time_elapsed":1158690,"internal_node_id":"0.0-6.0-167.0"},{"sim_score":1,"rt":4494,"stimulus":"[\"img/0866/d266fece-59b3-46fa-b69f-96f6efb81b59.jpg\",\"img/0874/2c9464dd-8a23-4baa-ac94-1ba3af5c15cc.jpg\"]","trial_type":"similarity","trial_index":174,"time_elapsed":1164201,"internal_node_id":"0.0-6.0-168.0"},{"sim_score":1,"rt":4203,"stimulus":"[\"img/0903/8931c67c-a43d-47d3-a4c9-42aa2f81d344.jpg\",\"img/0868/4e626425-63c8-484a-8a1d-e66ee4e0bef8.jpg\"]","trial_type":"similarity","trial_index":175,"time_elapsed":1169420,"internal_node_id":"0.0-6.0-169.0"},{"sim_score":5,"rt":5476,"stimulus":"[\"img/0769/a1ce8d07-ba37-40de-bade-2778805521e0.jpg\",\"img/0904/0d25eb24-bb20-4e8d-9787-8b489558b4cb.jpg\"]","trial_type":"similarity","trial_index":176,"time_elapsed":1175911,"internal_node_id":"0.0-6.0-170.0"},{"sim_score":1,"rt":2846,"stimulus":"[\"img/0875/5a716432-c6ca-4b1c-955a-2b8ac25198ee.jpg\",\"img/0764/83c93cce-18d1-4aa7-9e23-2c268afe0a46.jpg\"]","trial_type":"similarity","trial_index":177,"time_elapsed":1179774,"internal_node_id":"0.0-6.0-171.0"},{"sim_score":5,"rt":3023,"stimulus":"[\"img/0860/4a022222-056d-461c-ab02-39fac9647552.jpg\",\"img/0903/b0a3c45f-467e-412f-a183-c9c1827f2e63.jpg\"]","trial_type":"similarity","trial_index":178,"time_elapsed":1183812,"internal_node_id":"0.0-6.0-172.0"},{"sim_score":1,"rt":3909,"stimulus":"[\"img/0864/1d15626a-2f7c-410f-819c-0fa2c967e95e.jpg\",\"img/0867/a749dddb-69f0-44a6-acdc-2bf295cf6dcc.jpg\"]","trial_type":"similarity","trial_index":179,"time_elapsed":1188748,"internal_node_id":"0.0-6.0-173.0"},{"sim_score":1,"rt":2268,"stimulus":"[\"img/0868/0d3abd3a-b6c3-4584-a9f7-e2da63748b3d.jpg\",\"img/0864/c22faebd-9c53-47bc-ada3-b9a30c688e75.jpg\"]","trial_type":"similarity","trial_index":180,"time_elapsed":1192036,"internal_node_id":"0.0-6.0-174.0"},{"sim_score":4,"rt":3884,"stimulus":"[\"img/0898/26c41340-15bd-4ead-8fe4-c0d0ddca09c2.jpg\",\"img/0769/04347740-f8f6-48bb-887a-f68babd0a0d4.jpg\"]","trial_type":"similarity","trial_index":181,"time_elapsed":1196943,"internal_node_id":"0.0-6.0-175.0"},{"sim_score":5,"rt":3884,"stimulus":"[\"img/0766/51d3aab4-3d09-4dda-b99d-3dc7aaabc6f2.jpg\",\"img/0764/06ea144f-f4f3-4a14-ba47-f20f35c561e0.jpg\"]","trial_type":"similarity","trial_index":182,"time_elapsed":1201842,"internal_node_id":"0.0-6.0-176.0"},{"sim_score":2,"rt":4824,"stimulus":"[\"img/0764/6fbd1902-fa2a-48d8-bc11-705b8ab68d8f.jpg\",\"img/0866/93a27239-8317-4e08-98ca-d8b1ff298e07.jpg\"]","trial_type":"similarity","trial_index":183,"time_elapsed":1207682,"internal_node_id":"0.0-6.0-177.0"},{"sim_score":1,"rt":4551,"stimulus":"[\"img/0902/d3e55000-c839-4bf9-9b9b-4af0a9925af1.jpg\",\"img/0875/ebf7653f-ff45-4e9f-af58-2c042ab3cd2b.jpg\"]","trial_type":"similarity","trial_index":184,"time_elapsed":1213263,"internal_node_id":"0.0-6.0-178.0"},{"sim_score":2,"rt":3289,"stimulus":"[\"img/0881/b549bc99-a61c-4450-bab5-9efc3a197bf0.jpg\",\"img/0904/9b3568cc-3cf7-42be-9df3-fdafde7a58b8.jpg\"]","trial_type":"similarity","trial_index":185,"time_elapsed":1217566,"internal_node_id":"0.0-6.0-179.0"},{"sim_score":3,"rt":4956,"stimulus":"[\"img/0874/adf9a8f1-c40b-402b-b95b-1e85a54a7b62.jpg\",\"img/0860/c47fdead-eb02-4989-b078-26f4852f44fe.jpg\"]","trial_type":"similarity","trial_index":186,"time_elapsed":1223551,"internal_node_id":"0.0-6.0-180.0"},{"sim_score":2,"rt":4193,"stimulus":"[\"img/0769/8c7cf147-1780-4d5c-8ddf-5ea23ff03ac9.jpg\",\"img/0874/99f6563c-8a8d-4c1c-a41d-667b618c3fd5.jpg\"]","trial_type":"similarity","trial_index":187,"time_elapsed":1228772,"internal_node_id":"0.0-6.0-181.0"},{"sim_score":3,"rt":3165,"stimulus":"[\"img/0904/2c98dc56-88d1-4fb5-a999-b6a7861f65f0.jpg\",\"img/0766/75c3d627-4f3b-40d5-9d9c-10c8a62db644.jpg\"]","trial_type":"similarity","trial_index":188,"time_elapsed":1232957,"internal_node_id":"0.0-6.0-182.0"},{"sim_score":3,"rt":2930,"stimulus":"[\"img/0902/1f4a4c62-68c1-4993-b213-05652a173ed1.jpg\",\"img/0764/0e7ed062-f798-4366-8a24-6f430926f919.jpg\"]","trial_type":"similarity","trial_index":189,"time_elapsed":1236907,"internal_node_id":"0.0-6.0-183.0"},{"sim_score":1,"rt":3175,"stimulus":"[\"img/0769/3c1203c5-2ce7-466e-957a-8d77b5905460.jpg\",\"img/0875/8521fd58-3b1e-4dc5-97ae-804edfa6734a.jpg\"]","trial_type":"similarity","trial_index":190,"time_elapsed":1241102,"internal_node_id":"0.0-6.0-184.0"},{"sim_score":1,"rt":2679,"stimulus":"[\"img/0867/075e0f95-856b-4cbb-acf5-092393aaf04e.jpg\",\"img/0903/b7e3723f-fd03-4f3d-8820-f19496463a34.jpg\"]","trial_type":"similarity","trial_index":191,"time_elapsed":1244804,"internal_node_id":"0.0-6.0-185.0"},{"sim_score":4,"rt":2596,"stimulus":"[\"img/0862/47ed5efd-4ec9-4b74-bb4e-a5f5cf0c3e7d.jpg\",\"img/0769/5bd04f55-d091-4f57-85db-38426f26bd1a.jpg\"]","trial_type":"similarity","trial_index":192,"time_elapsed":1248418,"internal_node_id":"0.0-6.0-186.0"},{"sim_score":1,"rt":3196,"stimulus":"[\"img/0766/d8221e53-2300-4d99-ae1b-0bfb0eabe579.jpg\",\"img/0866/23a224f3-2012-4fc8-8e0f-3c36f8de27fd.jpg\"]","trial_type":"similarity","trial_index":193,"time_elapsed":1252646,"internal_node_id":"0.0-6.0-187.0"},{"sim_score":3,"rt":4155,"stimulus":"[\"img/0769/387a9744-d6a7-42b8-bab8-33007ec434aa.jpg\",\"img/0860/4c530c3c-6aab-492a-94d1-9c01797bde40.jpg\"]","trial_type":"similarity","trial_index":194,"time_elapsed":1257829,"internal_node_id":"0.0-6.0-188.0"},{"sim_score":2,"rt":5626,"stimulus":"[\"img/0881/e046471a-35b4-4159-bbf7-3cfd201bef66.jpg\",\"img/0868/6a28c3b0-3d76-498a-9fb7-ddafc665eca8.jpg\"]","trial_type":"similarity","trial_index":195,"time_elapsed":1266251,"internal_node_id":"0.0-6.0-189.0"},{"view_history":"[{\"page_index\":0,\"viewing_time\":7511}]","rt":7512,"trial_type":"instructions","trial_index":196,"time_elapsed":1274764,"internal_node_id":"0.0-7.0"},{"rt":63260,"responses":"{\"Q0\":\"Nashville Warbler\"}","answer":["Nashville Warbler"],"trial_type":"image-multi-choice","trial_index":197,"time_elapsed":1339097,"internal_node_id":"0.0-8.0-0.0"},{"rt":6416,"responses":"{\"Q0\":\"Black-and-white Warbler\"}","answer":["Black-and-white Warbler"],"trial_type":"image-multi-choice","trial_index":198,"time_elapsed":1346566,"internal_node_id":"0.0-8.0-1.0"},{"rt":9803,"responses":"{\"Q0\":\"Townsend's Warbler\"}","answer":["Townsend's Warbler"],"trial_type":"image-multi-choice","trial_index":199,"time_elapsed":1357436,"internal_node_id":"0.0-8.0-2.0"},{"rt":4880,"responses":"{\"Q0\":\"Lark Sparrow\"}","answer":["Lark Sparrow"],"trial_type":"image-multi-choice","trial_index":200,"time_elapsed":1363376,"internal_node_id":"0.0-8.0-3.0"},{"rt":3422,"responses":"{\"Q0\":\"Yellow Warbler\"}","answer":["Yellow Warbler"],"trial_type":"image-multi-choice","trial_index":201,"time_elapsed":1367858,"internal_node_id":"0.0-8.0-4.0"},{"rt":23041,"responses":"{\"Q0\":\"Orange-crowned Warbler\"}","answer":["Orange-crowned Warbler"],"trial_type":"image-multi-choice","trial_index":202,"time_elapsed":1391944,"internal_node_id":"0.0-8.0-5.0"},{"rt":4376,"responses":"{\"Q0\":\"White-throated Sparrow\"}","answer":["White-throated Sparrow"],"trial_type":"image-multi-choice","trial_index":203,"time_elapsed":1397369,"internal_node_id":"0.0-8.0-6.0"},{"rt":8152,"responses":"{\"Q0\":\"Fox Sparrow\"}","answer":["Fox Sparrow"],"trial_type":"image-multi-choice","trial_index":204,"time_elapsed":1406572,"internal_node_id":"0.0-8.0-7.0"},{"rt":5011,"responses":"{\"Q0\":\"Song Sparrow\"}","answer":["Song Sparrow"],"trial_type":"image-multi-choice","trial_index":205,"time_elapsed":1412630,"internal_node_id":"0.0-8.0-8.0"},{"rt":4545,"responses":"{\"Q0\":\"Blackburnian Warbler\"}","answer":["Blackburnian Warbler"],"trial_type":"image-multi-choice","trial_index":206,"time_elapsed":1418215,"internal_node_id":"0.0-8.0-9.0"},{"rt":5565,"responses":"{\"Q0\":\"Vesper Sparrow\"}","answer":["Vesper Sparrow"],"trial_type":"image-multi-choice","trial_index":207,"time_elapsed":1424846,"internal_node_id":"0.0-8.0-10.0"},{"rt":3641,"responses":"{\"Q0\":\"White-crowned Sparrow\"}","answer":["White-crowned Sparrow"],"trial_type":"image-multi-choice","trial_index":208,"time_elapsed":1429531,"internal_node_id":"0.0-8.0-11.0"},{"rt":5539,"responses":"{\"Q0\":\"American Tree Sparrow\"}","answer":["American Tree Sparrow"],"trial_type":"image-multi-choice","trial_index":209,"time_elapsed":1436125,"internal_node_id":"0.0-8.0-12.0"},{"rt":5368,"responses":"{\"Q0\":\"Tennessee Warbler\"}","answer":["Tennessee Warbler"],"trial_type":"image-multi-choice","trial_index":210,"time_elapsed":1442544,"internal_node_id":"0.0-8.0-13.0"},{"rt":4068,"responses":"{\"Q0\":\"Magnolia Warbler\"}","answer":["Magnolia Warbler"],"trial_type":"image-multi-choice","trial_index":211,"time_elapsed":1447654,"internal_node_id":"0.0-8.0-14.0"},{"rt":3876,"responses":"{\"Q0\":\"Northern Waterthrush\"}","answer":["Northern Waterthrush"],"trial_type":"image-multi-choice","trial_index":212,"time_elapsed":1452579,"internal_node_id":"0.0-8.0-15.0"},{"rt":5485,"responses":"{\"Q0\":\"Chipping Sparrow\"}","answer":["Chipping Sparrow"],"trial_type":"image-multi-choice","trial_index":213,"time_elapsed":1459112,"internal_node_id":"0.0-8.0-16.0"},{"rt":8306,"responses":"{\"Q0\":\"Lincoln's Sparrow\"}","answer":["Swamp Sparrow"],"trial_type":"image-multi-choice","trial_index":214,"time_elapsed":1468458,"internal_node_id":"0.0-8.0-17.0"},{"rt":11584,"responses":"{\"Q0\":\"Lincoln's Sparrow\"}","answer":["Lincoln's Sparrow"],"trial_type":"image-multi-choice","trial_index":215,"time_elapsed":1481086,"internal_node_id":"0.0-8.0-18.0"},{"rt":2840,"responses":"{\"Q0\":\"Ovenbird\"}","answer":["Ovenbird"],"trial_type":"image-multi-choice","trial_index":216,"time_elapsed":1484976,"internal_node_id":"0.0-8.0-19.0"}]