"view_history","rt","trial_type","trial_index","time_elapsed","internal_node_id","sim_score","stimulus","responses","answer"
"[{""page_index"":0,""viewing_time"":24440}]","24444","instructions","0","24448","0.0-0.0","","","",""
"","9087","similarity_demo","1","34589","0.0-1.0","7","[""img/bluejay1.jpg"",""img/bluejay2.jpg""]","",""
"[{""page_index"":0,""viewing_time"":16969}]","16970","instructions","2","52562","0.0-2.0","","","",""
"","5621","similarity_demo","3","59221","0.0-3.0","5","[""img/bluejay1.jpg"",""img/cardinal1.jpg""]","",""
"[{""page_index"":0,""viewing_time"":7724}]","7725","instructions","4","67962","0.0-4.0","","","",""
"[{""page_index"":0,""viewing_time"":60787}]","60788","instructions","5","129761","0.0-5.0","","","",""
"","12321","similarity","6","143112","0.0-6.0-0.0","3","[""img/0868/09a9ef4d-d000-4cfa-a6aa-ebec7c2edeb4.jpg"",""img/0894/e6385e52-6c35-43bd-b0af-bc803d107b11.jpg""]","",""
"","10312","similarity","7","154463","0.0-6.0-1.0","2","[""img/0898/ec565187-2e31-4fdd-9a5c-153d0c789ae0.jpg"",""img/0758/65d426d6-3ff6-415d-8654-a43b83ecc4fe.jpg""]","",""
"","7099","similarity","8","162603","0.0-6.0-2.0","4","[""img/0903/4cbdc464-e562-4ec2-9bb6-15f894fdf528.jpg"",""img/0894/5a49e858-2850-4892-9a06-e9f0efb5f94d.jpg""]","",""
"","4652","similarity","9","168287","0.0-6.0-3.0","2","[""img/0881/54ea8e77-c7e5-4197-b7fa-00b7020849a7.jpg"",""img/0766/535849cc-ff5d-4df9-8f31-0ce94a97d571.jpg""]","",""
"","7706","similarity","10","177014","0.0-6.0-4.0","3","[""img/0864/65210d57-1153-4657-886a-32e758f49b4a.jpg"",""img/0860/18dfed73-e36b-4487-a8bd-0b8cff8e3668.jpg""]","",""
"","8287","similarity","11","186379","0.0-6.0-5.0","5","[""img/0902/6c2c243a-f663-45db-baf5-038d3d58c589.jpg"",""img/0899/a05bea16-2bb4-4cb9-b8fb-4ff975db6971.jpg""]","",""
"","4269","similarity","12","191683","0.0-6.0-6.0","3","[""img/0868/3a62db2d-97e9-44a3-b8e3-a48c6f0e423b.jpg"",""img/0769/11518cb3-13ea-4dd0-890c-30cfab728ade.jpg""]","",""
"","6579","similarity","13","199284","0.0-6.0-7.0","3","[""img/0764/b8e23f4f-ff19-4472-ad9b-2f85548ebca0.jpg"",""img/0901/effc03f6-8f9d-46db-a66c-16fc83891c5c.jpg""]","",""
"","4110","similarity","14","204418","0.0-6.0-8.0","3","[""img/0881/44e09805-5a25-4f17-a716-4ad4a331b174.jpg"",""img/0866/f756f7d1-9ad8-4a34-9ef6-7a443d705bfe.jpg""]","",""
"","5025","similarity","15","210481","0.0-6.0-9.0","2","[""img/0867/26611f4e-d694-4460-b7e2-43c62753ddc3.jpg"",""img/0899/b45c550b-96c3-4255-ad59-48a2b4db1c1e.jpg""]","",""
"","6431","similarity","16","217959","0.0-6.0-10.0","2","[""img/0875/a4935837-7d3c-4df6-88c1-36a94d4991ca.jpg"",""img/0766/dd3e18d0-0c98-4d05-b850-69976ee8cd75.jpg""]","",""
"","3637","similarity","17","222624","0.0-6.0-11.0","1","[""img/0901/fb0a8e69-7f19-4e6e-a6bb-a48f97f9b4f3.jpg"",""img/0875/99698b4d-b4a1-44bc-8c83-8ea755bbbf61.jpg""]","",""
"","3809","similarity","18","227458","0.0-6.0-12.0","4","[""img/0902/417d8b4a-3c72-4adc-ac78-820e833316f2.jpg"",""img/0860/8a92e21b-6a32-4e4a-a445-2d5a487ed0a4.jpg""]","",""
"","4839","similarity","19","233320","0.0-6.0-13.0","2","[""img/0874/c0378dac-9370-439a-8b79-db27c96fb390.jpg"",""img/0867/bf560d4f-dee3-4f11-a385-705cc1aa5f3c.jpg""]","",""
"","5312","similarity","20","239656","0.0-6.0-14.0","2","[""img/0904/5cceabc9-de1d-4c67-989b-c28a4ef77e79.jpg"",""img/0866/8efcaa46-83ab-4dee-a35f-850402aa21ae.jpg""]","",""
"","4401","similarity","21","245081","0.0-6.0-15.0","2","[""img/0758/7ffbc76b-1fc1-432c-8f7e-9ec8d1b3f643.jpg"",""img/0902/0c760cc9-10ac-429e-8957-a7d51fc99683.jpg""]","",""
"","5280","similarity","22","251380","0.0-6.0-16.0","1","[""img/0867/f26f6b60-f772-4f4c-95a4-addc62cfd692.jpg"",""img/0898/01bfe666-3510-4fc7-964f-d00d28732dc8.jpg""]","",""
"","4777","similarity","23","257184","0.0-6.0-17.0","2","[""img/0904/9d30eff1-46ef-4453-b11e-124ef8145c00.jpg"",""img/0868/e0aff734-077f-40dd-9781-74821abd3621.jpg""]","",""
"","3519","similarity","24","261728","0.0-6.0-18.0","3","[""img/0766/00891401-e4c9-4ce1-bc19-f70740d174bc.jpg"",""img/0864/8ddd2e30-a1d0-479f-9cbe-591213023893.jpg""]","",""
"","5201","similarity","25","267966","0.0-6.0-19.0","4","[""img/0899/66ab3178-c3fe-4455-ad17-d5952b08e018.jpg"",""img/0766/ea09dd5a-d24d-4e97-a099-7da3db1baef1.jpg""]","",""
"","3795","similarity","26","272783","0.0-6.0-20.0","2","[""img/0764/b887d7c6-aa81-4637-af8e-05135757ac59.jpg"",""img/0758/821c68d3-5cb0-4eae-8659-30e6263fca39.jpg""]","",""
"","6245","similarity","27","280055","0.0-6.0-21.0","2","[""img/0901/58978a6d-a3e2-4c59-8d62-f60693ecc0f6.jpg"",""img/0874/7e4f2150-3b59-4a36-b5da-a4e0ba410531.jpg""]","",""
"","5377","similarity","28","286464","0.0-6.0-22.0","3","[""img/0875/fb732ab5-013a-4366-9f65-27811ed157e9.jpg"",""img/0758/7fba58df-2a7a-4b76-8a8f-62739f97f271.jpg""]","",""
"","3693","similarity","29","291188","0.0-6.0-23.0","2","[""img/0867/98d8cd96-1476-4fe0-a3a3-04f875500a1b.jpg"",""img/0881/c24f3051-eefa-42de-aba6-fccb56d93c70.jpg""]","",""
"","4879","similarity","30","297091","0.0-6.0-24.0","1","[""img/0758/20497cbe-ddae-489e-86e2-ab06985ed07c.jpg"",""img/0901/a6776381-91fe-43f8-ab73-261d318f95fd.jpg""]","",""
"","5653","similarity","31","303769","0.0-6.0-25.0","2","[""img/0868/293079b8-7e0c-4afd-a390-1e5d35fe3ded.jpg"",""img/0875/3ecb367d-e9eb-4826-8aaa-7aa72fb98019.jpg""]","",""
"","4141","similarity","32","308947","0.0-6.0-26.0","2","[""img/0903/0a92ec52-4e87-410a-857a-4455cde56a70.jpg"",""img/0901/a373612d-67e2-4fec-9764-21d3d6ef6359.jpg""]","",""
"","3892","similarity","33","313864","0.0-6.0-27.0","5","[""img/0894/38cf335f-f76f-4349-8d65-e20cd6859565.jpg"",""img/0899/1b3457ea-87d4-4946-a01c-aac1863ed46c.jpg""]","",""
"","4746","similarity","34","319628","0.0-6.0-28.0","1","[""img/0862/ad593cc7-cabe-4bb7-8e14-8a447a0717b4.jpg"",""img/0867/50a1b60e-3a29-44bf-b606-d4bd3746fea9.jpg""]","",""
"","4536","similarity","35","325188","0.0-6.0-29.0","1","[""img/0864/e336a4c5-6648-4fd7-b2f6-93a3fb83f8c6.jpg"",""img/0875/90da8d75-108a-44ad-b999-e21fee3860d3.jpg""]","",""
"","10896","similarity","36","337101","0.0-6.0-30.0","2","[""img/0862/92fcd8a4-8193-4a6a-ae09-dd4a6338b0df.jpg"",""img/0874/29830da7-be5f-44e5-b141-652a0ccf7269.jpg""]","",""
"","3940","similarity","37","342072","0.0-6.0-31.0","1","[""img/0903/647ce311-8c71-479a-8361-961db1457139.jpg"",""img/0758/7ee8bc8f-c40b-4b3a-84ec-3e83580622d4.jpg""]","",""
"","2798","similarity","38","345886","0.0-6.0-32.0","1","[""img/0866/6f2a90d7-14f1-4f1b-bd64-fc0af6b9fe44.jpg"",""img/0901/443f2e59-199b-4f7b-9de9-c44ad97326a5.jpg""]","",""
"","3403","similarity","39","350311","0.0-6.0-33.0","2","[""img/0874/bf14b896-e930-4fd9-9c05-2e83317a2773.jpg"",""img/0899/d8f2dd94-570e-4e8c-a087-d96090fb9e8c.jpg""]","",""
"","4328","similarity","40","355655","0.0-6.0-34.0","6","[""img/0903/5c6b1f57-b3a2-40f5-9fb1-82785e24b6a0.jpg"",""img/0902/04a6ad4a-afc6-4871-8225-56b299af7b6b.jpg""]","",""
"","3960","similarity","41","360641","0.0-6.0-35.0","2","[""img/0758/f61ecdf8-a7d4-4db0-b84d-be46f7cfaffc.jpg"",""img/0866/a04d37f0-99dd-478a-b6c6-58b215138f84.jpg""]","",""
"","3139","similarity","42","364810","0.0-6.0-36.0","3","[""img/0875/2e13d160-eea1-416b-aff1-d37ab99ecc1d.jpg"",""img/0903/5995f4a8-fa82-46f8-8760-fd7800a5ca34.jpg""]","",""
"","6472","similarity","43","377771","0.0-6.0-37.0","3","[""img/0864/6f631579-acf1-415c-a42c-1207f62a8d99.jpg"",""img/0902/01b41522-de46-4c3a-b0af-a61b2682b40e.jpg""]","",""
"","2775","similarity","44","381571","0.0-6.0-38.0","1","[""img/0901/5657dd86-0ff9-4753-ba2b-9dfb223e5c89.jpg"",""img/0867/aa05d113-fc19-4756-a8eb-7878f580bc92.jpg""]","",""
"","6663","similarity","45","389266","0.0-6.0-39.0","5","[""img/0862/ee3b7bff-4a70-4e84-9bea-4a565e456acb.jpg"",""img/0860/71e1aad0-2cdf-43bb-94a4-a8c016997c30.jpg""]","",""
"","5879","similarity","46","396166","0.0-6.0-40.0","6","[""img/0867/ac1797e4-8afc-48fe-b252-86d1defb1cca.jpg"",""img/0868/179a5502-ab5c-478e-8263-5a1fbcc101d2.jpg""]","",""
"","6999","similarity","47","404185","0.0-6.0-41.0","4","[""img/0904/09dac84f-3d1c-4445-a68e-d0389fdbf1e9.jpg"",""img/0899/fd9efb43-701f-4cd6-baaa-4c38315f4bdc.jpg""]","",""
"","3625","similarity","48","408837","0.0-6.0-42.0","3","[""img/0862/e8cc3bdf-cc43-4565-bccf-492626c70953.jpg"",""img/0894/b2d2f66e-e480-46da-a02a-6d0c6b285d78.jpg""]","",""
"","6490","similarity","49","416356","0.0-6.0-43.0","3","[""img/0875/03c3c331-738b-4446-af92-3d7386b08c2e.jpg"",""img/0904/60d1a521-edf7-4696-9263-f21ac0e62a01.jpg""]","",""
"","5500","similarity","50","422879","0.0-6.0-44.0","2","[""img/0874/8cdb1c07-1c32-46d2-981c-3636560fa6e5.jpg"",""img/0898/68476bbb-34a1-42d9-8bc1-deab783d4489.jpg""]","",""
"","5764","similarity","51","429668","0.0-6.0-45.0","2","[""img/0898/993d8f2d-bef7-4251-a193-0f93a32b7763.jpg"",""img/0868/15dd6fd7-791e-4b53-b203-195d617521a4.jpg""]","",""
"","3429","similarity","52","434117","0.0-6.0-46.0","5","[""img/0901/7c16dd9c-44ad-4d5b-990c-6a0b9b48b1b1.jpg"",""img/0860/94ef7afc-e0e6-4a15-98c6-0bfac82bc832.jpg""]","",""
"","6164","similarity","53","441304","0.0-6.0-47.0","5","[""img/0894/05161000-f476-499b-a878-c13c7f347fd9.jpg"",""img/0902/12452bb1-b8c0-4e4d-ad4d-47e279e5933c.jpg""]","",""
"","4442","similarity","54","446776","0.0-6.0-48.0","3","[""img/0764/23ea9375-f801-4a96-9925-7d453da887c7.jpg"",""img/0862/847e5208-38ec-4f36-949c-296cdd7424ee.jpg""]","",""
"","7758","similarity","55","455563","0.0-6.0-49.0","5","[""img/0881/2a8413be-fec2-4de6-88ad-614dd4cccc9d.jpg"",""img/0758/b76ceca7-95ac-46e4-ac13-da02c8e93be9.jpg""]","",""
"","4978","similarity","56","461569","0.0-6.0-50.0","4","[""img/0766/ba35c0fc-4d5b-490d-959e-c94b279cdd02.jpg"",""img/0769/da36e3f7-2337-434f-ab57-11822dd7eed7.jpg""]","",""
"","7934","similarity","57","470532","0.0-6.0-51.0","5","[""img/0875/e7e66b13-b573-431e-b85e-288ce04a35a3.jpg"",""img/0866/0207e9a2-7dbb-40b5-9459-b472aaeceb2a.jpg""]","",""
"","7730","similarity","58","479285","0.0-6.0-52.0","6","[""img/0894/10f22b96-040c-44f4-950b-a4963f3f506c.jpg"",""img/0904/a8c3c7d2-9bcf-4347-9e03-8203adfc1fc5.jpg""]","",""
"","5557","similarity","59","485859","0.0-6.0-53.0","3","[""img/0758/e38fd80d-18d0-42f3-b848-f930788e8bd7.jpg"",""img/0769/ecda2fb3-556b-43ba-8a67-e87dd75ff2b4.jpg""]","",""
"","5314","similarity","60","492197","0.0-6.0-54.0","2","[""img/0902/168ebd47-9e82-4ab7-a18b-c3da85072db8.jpg"",""img/0874/a82926a3-0b43-4add-803c-d5f9ea7798ee.jpg""]","",""
"","10676","similarity","61","503899","0.0-6.0-55.0","3","[""img/0903/8fcafe03-43df-4c45-9da5-0df3a1eeccc5.jpg"",""img/0862/ba89835a-408c-480b-8594-ed4ffa97eb5c.jpg""]","",""
"","4613","similarity","62","509539","0.0-6.0-56.0","2","[""img/0866/07c9c966-3c8d-40e7-8128-92b2acbaed5d.jpg"",""img/0894/4739e06d-c31e-4bf1-bf91-c97fa9afb456.jpg""]","",""
"","5149","similarity","63","515707","0.0-6.0-57.0","2","[""img/0867/1719a35d-f085-48c0-9099-16c94fe418b4.jpg"",""img/0904/25365108-e038-4021-aac9-797f2063b337.jpg""]","",""
"","7274","similarity","64","524008","0.0-6.0-58.0","2","[""img/0875/d59ff733-eaff-4ee2-9443-06954dd0bcb6.jpg"",""img/0881/84397291-bc14-4fbf-90e8-241e486ab0fe.jpg""]","",""
"","4838","similarity","65","529868","0.0-6.0-59.0","2","[""img/0866/386235d2-6857-41e7-88a8-25cfc3430025.jpg"",""img/0860/e8b8c51e-1834-4875-8b61-6c5bc9b178bd.jpg""]","",""
"","5119","similarity","66","536003","0.0-6.0-60.0","2","[""img/0903/14f179a2-8786-48a2-8377-88d1d404341b.jpg"",""img/0866/a15b02be-11bb-43e3-b0e0-ecc3bd7dfc49.jpg""]","",""
"","6293","similarity","67","543458","0.0-6.0-61.0","1","[""img/0860/8fdba999-b946-4c7d-9891-336018b563ef.jpg"",""img/0875/2c361b79-c3d1-4eda-812e-bf03192407bf.jpg""]","",""
"","4534","similarity","68","549013","0.0-6.0-62.0","3","[""img/0898/a114b375-cb89-44ba-9498-74213f1ecdee.jpg"",""img/0862/00c06b00-3b73-44e9-bc1e-c5aafb438321.jpg""]","",""
"","5189","similarity","69","555219","0.0-6.0-63.0","3","[""img/0902/511abb54-0094-4f4d-b6dc-3f2c97050521.jpg"",""img/0766/f011ef45-fb48-44b8-8224-867ed2ccf786.jpg""]","",""
"","3919","similarity","70","560169","0.0-6.0-64.0","4","[""img/0758/335851a0-a55b-46d8-ab05-8463eda48349.jpg"",""img/0864/ef9cbca0-4be8-435d-ad49-977259e80409.jpg""]","",""
"","3931","similarity","71","565124","0.0-6.0-65.0","3","[""img/0894/1b3888e6-cf36-4c4a-a039-187aa5cb71ac.jpg"",""img/0860/f44ba3fb-03a2-42f0-8509-2c1ded493086.jpg""]","",""
"","3208","similarity","72","569358","0.0-6.0-66.0","1","[""img/0899/93494f3b-d539-4075-b027-d82e344563da.jpg"",""img/0868/fd307a36-9a3a-47d7-ab7c-f810d0b35040.jpg""]","",""
"","3659","similarity","73","574035","0.0-6.0-67.0","1","[""img/0866/02f5e6b9-52b7-448c-9708-5b460d0c9a23.jpg"",""img/0862/e697469a-ec19-4414-b972-7b9f3564785b.jpg""]","",""
"","3850","similarity","74","578902","0.0-6.0-68.0","3","[""img/0860/5383b320-1518-4095-a58e-5cc1ae30b64c.jpg"",""img/0758/9fb5b2fe-3f00-4fe6-973c-1ce10d5f4cd5.jpg""]","",""
"","4391","similarity","75","584309","0.0-6.0-69.0","1","[""img/0902/71c03003-03ef-4b0f-8229-e0c857150a5d.jpg"",""img/0867/f8488a47-94ee-4166-952c-44e16cf172f6.jpg""]","",""
"","7711","similarity","76","593035","0.0-6.0-70.0","4","[""img/0862/fb26cb07-d5a9-4653-813c-f41609f26cd5.jpg"",""img/0901/1b86f2fc-7a1d-4aa8-9252-114f92edef3b.jpg""]","",""
"","9893","similarity","77","603947","0.0-6.0-71.0","6","[""img/0867/5e07b34d-b40f-4b1c-ac10-49975bace45f.jpg"",""img/0866/be24ab58-230e-4db8-9f45-ff04c9aec6bb.jpg""]","",""
"","7305","similarity","78","612281","0.0-6.0-72.0","3","[""img/0860/31ff6436-98bf-4652-bed2-40f627229568.jpg"",""img/0904/63dd06dd-dccb-47ba-9740-eb33239e18a7.jpg""]","",""
"","3780","similarity","79","617077","0.0-6.0-73.0","1","[""img/0875/5a1e5100-0d94-4fec-bbe9-ca9894d2cf8e.jpg"",""img/0899/7f9d45d0-b2c6-40d3-aa41-c207db2c411b.jpg""]","",""
"","4837","similarity","80","622939","0.0-6.0-74.0","3","[""img/0899/9de5e857-aa9a-4e0c-8ba2-46d79bd069a4.jpg"",""img/0758/d540bee6-b460-4c32-ac57-bc282742d7d4.jpg""]","",""
"","5752","similarity","81","632191","0.0-6.0-75.0","2","[""img/0862/7918ca67-5bd3-4606-a5ea-c39fb11a9297.jpg"",""img/0875/42910c99-5463-450a-a0f8-d4d060a11455.jpg""]","",""
"","5382","similarity","82","638592","0.0-6.0-76.0","4","[""img/0901/875dedb9-24c9-4443-9f8c-85e97d70ee5a.jpg"",""img/0894/38f5931f-926d-414e-b498-66b188978b7a.jpg""]","",""
"","3750","similarity","83","643367","0.0-6.0-77.0","2","[""img/0766/0025de5e-f620-4079-8a0f-00326ff3a6b0.jpg"",""img/0758/3ddd05d3-557e-4ee7-8b78-9d2d681d8ae2.jpg""]","",""
"","8676","similarity","84","653068","0.0-6.0-78.0","4","[""img/0894/0130a973-d993-41f8-874a-fee23d9ac11f.jpg"",""img/0764/4bec8d92-75aa-475a-954d-8215dbe538f5.jpg""]","",""
"","3293","similarity","85","657379","0.0-6.0-79.0","2","[""img/0860/b03b963d-949b-4d8d-b19c-4950c89eeca2.jpg"",""img/0867/12264664-1860-46df-8c21-162b9817cdda.jpg""]","",""
"","3835","similarity","86","662230","0.0-6.0-80.0","3","[""img/0898/f3a3f225-1248-4ac7-b93b-f0ff28485bf3.jpg"",""img/0901/0f670aef-ac36-496d-8142-ee5fdb21dd82.jpg""]","",""
"","4309","similarity","87","667556","0.0-6.0-81.0","2","[""img/0874/767f289c-9814-4496-803f-745cc8913d1f.jpg"",""img/0764/a86eed5b-d0af-4c3f-8c7a-26e98e98cf1a.jpg""]","",""
"","9030","similarity","88","677610","0.0-6.0-82.0","2","[""img/0899/d60714ae-98d7-4564-8c98-94dba1351135.jpg"",""img/0862/a0a3a7ba-7798-46a3-b4ca-05e1f6e581d0.jpg""]","",""
"","2986","similarity","89","681613","0.0-6.0-83.0","3","[""img/0766/e8052e17-9dae-4139-802b-6e590cb2d526.jpg"",""img/0901/12da1841-e611-435c-9719-109413d536a8.jpg""]","",""
"","2835","similarity","90","685479","0.0-6.0-84.0","2","[""img/0881/405484ae-0d00-4b05-bc57-6420a36adfac.jpg"",""img/0898/b3290bf9-215b-4b45-b21a-65bdf73f142f.jpg""]","",""
"","3816","similarity","91","690318","0.0-6.0-85.0","2","[""img/0868/8b0b8473-e2c0-4331-aa56-c3a5c29369da.jpg"",""img/0860/524b2e98-5767-4d53-942c-ebae6925659b.jpg""]","",""
"","4106","similarity","92","695444","0.0-6.0-86.0","2","[""img/0758/a709631e-3705-4725-ac40-f0d916924f08.jpg"",""img/0868/d6d1f30d-4323-435a-b194-7892521bc57e.jpg""]","",""
"","4001","similarity","93","700463","0.0-6.0-87.0","3","[""img/0864/5f33e097-23e3-4002-882d-76e8cb15f451.jpg"",""img/0894/a98416c0-51e2-4960-85da-d81d8688b9d5.jpg""]","",""
"","4265","similarity","94","705746","0.0-6.0-88.0","1","[""img/0866/d493a2c8-66eb-44b4-be02-2f327b700b7c.jpg"",""img/0902/af45fe42-178c-4c1a-99ef-256e87e3b092.jpg""]","",""
"","6277","similarity","95","713053","0.0-6.0-89.0","3","[""img/0769/965c3c44-d9e5-47c5-b61a-2bbdf4215d9a.jpg"",""img/0867/de92135f-5b65-4ed9-b245-188292c7c2f8.jpg""]","",""
"","11945","similarity","96","726015","0.0-6.0-90.0","2","[""img/0874/ca23d307-fc00-4d7d-9106-584c6eb21b4d.jpg"",""img/0875/527ced51-8e53-4aab-ab05-86df219104c0.jpg""]","",""
"","3466","similarity","97","730497","0.0-6.0-91.0","3","[""img/0864/0116ca98-293d-4fa6-a93b-5a6144ef64cc.jpg"",""img/0874/3ce41e7c-40c8-4d58-a546-171114521796.jpg""]","",""
"","6849","similarity","98","738370","0.0-6.0-92.0","3","[""img/0881/292e9b4b-fca0-4ba8-87f1-4048f9e37b7d.jpg"",""img/0862/064818ee-13d5-4618-bb24-21c7368ea278.jpg""]","",""
"","11497","similarity","99","750885","0.0-6.0-93.0","3","[""img/0864/efcfbb1b-8197-44c9-b723-40d6c608dd3c.jpg"",""img/0881/62a64f90-7a72-4aee-a1a1-0c548ac9bdda.jpg""]","",""
"","3294","similarity","100","755203","0.0-6.0-94.0","2","[""img/0899/76ad07e2-ca25-45eb-84f2-8d80b8ca3e26.jpg"",""img/0901/d4d09bf5-093e-4050-838e-7c738be8e63c.jpg""]","",""
"","3769","similarity","101","759988","0.0-6.0-95.0","2","[""img/0874/1016b306-087c-4afc-aa08-fa527b28dc76.jpg"",""img/0766/989c5c7f-1aff-4442-ac63-9d46acf4a891.jpg""]","",""
"","4943","similarity","102","765961","0.0-6.0-96.0","3","[""img/0881/c843e210-bdfe-4a7c-8bbe-fcea1f90fe1c.jpg"",""img/0899/06b0fc99-0581-461a-9913-d1a5a941ac61.jpg""]","",""
"","3991","similarity","103","770971","0.0-6.0-97.0","4","[""img/0862/24cdc752-c2e5-4a17-86a6-6f2045d8553b.jpg"",""img/0902/6730b12a-f0a7-4587-8c10-a32fae16565b.jpg""]","",""
"","3817","similarity","104","775803","0.0-6.0-98.0","3","[""img/0899/f95cbdb4-f804-4f5d-ad76-373ad343e658.jpg"",""img/0764/e48e6c6f-9e28-420f-836a-8043b2319bb4.jpg""]","",""
"","3849","similarity","105","780669","0.0-6.0-99.0","3","[""img/0758/a085b443-b5d7-4cb2-9ad4-b9dab0fc23f1.jpg"",""img/0862/5d887e9f-89e2-4ebc-80a0-6d46fe6480db.jpg""]","",""
"","5875","similarity","106","787562","0.0-6.0-100.0","3","[""img/0764/ba0c0955-acbb-457d-b1c2-f006b88121d5.jpg"",""img/0898/82231d4c-218b-4d0a-b50d-35a49b524e97.jpg""]","",""
"","6389","similarity","107","794983","0.0-6.0-101.0","5","[""img/0901/3db47171-0139-4235-82cd-0b1787b6775f.jpg"",""img/0902/d2c34af0-8c50-437d-8cc3-619195a3e8ba.jpg""]","",""
"","3941","similarity","108","799939","0.0-6.0-102.0","1","[""img/0764/29072395-f595-4e3c-83d3-ff87010039fa.jpg"",""img/0868/4bd5105a-d2c3-4f82-8c80-57196106ba53.jpg""]","",""
"","5219","similarity","109","806187","0.0-6.0-103.0","2","[""img/0769/38a88f69-28fd-4bbd-99f0-f4c02bfd3995.jpg"",""img/0881/f037e3b0-09cb-4a83-b2d9-6a71fe474e63.jpg""]","",""
"","3310","similarity","110","810523","0.0-6.0-104.0","3","[""img/0864/300bb811-8b3c-4c42-8653-6097c3725197.jpg"",""img/0769/14d393ce-e5be-4ca1-86ce-cc27d4b6074c.jpg""]","",""
"","5368","similarity","111","816906","0.0-6.0-105.0","6","[""img/0866/bf14b5bd-fb55-47db-86b9-4f8aeb9a6dad.jpg"",""img/0868/1a62b2b2-18f5-466e-b564-5176a57c565e.jpg""]","",""
"","4329","similarity","112","822258","0.0-6.0-106.0","1","[""img/0868/77091fc7-a590-4ebb-b915-fdb2483a2399.jpg"",""img/0862/cdaed51d-9e2f-4807-801a-4663c40077e2.jpg""]","",""
"","4509","similarity","113","827782","0.0-6.0-107.0","2","[""img/0766/717fd72f-a281-499b-a5ba-5e2ecc4d4866.jpg"",""img/0898/b2732712-71c2-45d8-834f-2b2ed5504910.jpg""]","",""
"","2667","similarity","114","831467","0.0-6.0-108.0","3","[""img/0898/04e39a7a-fcf6-4156-ab0e-f5871f335e1c.jpg"",""img/0864/5f74a653-3bdc-4308-8cca-ac667dc22e1f.jpg""]","",""
"","3864","similarity","115","836362","0.0-6.0-109.0","1","[""img/0868/4a8a45ed-2c4f-421b-9564-409a33ecd26c.jpg"",""img/0902/aa6fca32-82b0-4414-b20a-8f6f8aa5a2d2.jpg""]","",""
"","3842","similarity","116","841230","0.0-6.0-110.0","3","[""img/0904/2fd488e9-960f-41f7-8a44-33375f7d5051.jpg"",""img/0764/1def7b22-b054-4ec2-860b-73d25691823b.jpg""]","",""
"","4361","similarity","117","846613","0.0-6.0-111.0","1","[""img/0894/661b9f9f-4bde-487a-b1ed-87085fde6948.jpg"",""img/0875/34132396-d896-4c2d-8087-646dd867e769.jpg""]","",""
"","3064","similarity","118","850691","0.0-6.0-112.0","1","[""img/0868/5fa7f9d0-f0e5-454c-8224-74d964818f56.jpg"",""img/0874/995f0332-0439-4eb4-add3-957335dbf6d9.jpg""]","",""
"","3233","similarity","119","856854","0.0-6.0-113.0","3","[""img/0904/65e2b70a-b184-4da3-b5c0-5038bdf9469a.jpg"",""img/0898/08c72dac-f8ad-407a-9ce6-8c9a5d679c3a.jpg""]","",""
"","4324","similarity","120","862199","0.0-6.0-114.0","3","[""img/0860/c5ccd1a4-4bb7-48e1-9b25-72cfaf06909b.jpg"",""img/0766/33aa9ebb-c9f5-418f-8c8b-c77861889568.jpg""]","",""
"","2997","similarity","121","866232","0.0-6.0-115.0","2","[""img/0894/11674fa4-285d-44e2-939f-2228c6a64080.jpg"",""img/0874/eba003b4-cdab-4eee-8bc3-f064c7d94165.jpg""]","",""
"","3206","similarity","122","870454","0.0-6.0-116.0","3","[""img/0899/5b56dd3e-3f49-47cc-af84-16da6457753b.jpg"",""img/0903/39365c8e-a733-4801-ac7d-b87e38c3784b.jpg""]","",""
"","4192","similarity","123","875668","0.0-6.0-117.0","1","[""img/0881/20af39f5-373d-4a55-a437-2dc4c0382c46.jpg"",""img/0764/438c0217-036f-43c9-9b87-f43144e46011.jpg""]","",""
"","4350","similarity","124","881048","0.0-6.0-118.0","5","[""img/0903/e2e55a9e-0397-4dc0-8adf-4a54cfefe1fe.jpg"",""img/0769/aad494cc-674d-4a08-9bfa-24a88ebe3c79.jpg""]","",""
"","2756","similarity","125","884820","0.0-6.0-119.0","4","[""img/0901/4f9cffe0-c0be-4d7f-bacd-9d51efd19b4a.jpg"",""img/0904/e9423a8c-f946-43ad-ab7b-931acef870e2.jpg""]","",""
"","3528","similarity","126","889379","0.0-6.0-120.0","3","[""img/0860/4f695df5-afac-4da7-9875-fee39b0b24ad.jpg"",""img/0881/4bd34581-94d8-4e88-8c89-5cef864ca3be.jpg""]","",""
"","4796","similarity","127","895191","0.0-6.0-121.0","5","[""img/0758/53f35650-e455-4b53-8be4-c3c8271c6466.jpg"",""img/0874/31e22c7c-99aa-40b1-bf03-dd73fa2df4d6.jpg""]","",""
"","5385","similarity","128","901599","0.0-6.0-122.0","2","[""img/0901/c6c877e0-dd63-4e00-9657-33af29d55aab.jpg"",""img/0769/f6396414-6788-4d59-9683-de153298d89c.jpg""]","",""
"","3328","similarity","129","905952","0.0-6.0-123.0","6","[""img/0902/31abfa33-7cdb-44ad-968e-9f7b324d577a.jpg"",""img/0904/24fc38fe-842c-4831-ad8a-b1de5c25c0a8.jpg""]","",""
"","4677","similarity","130","911658","0.0-6.0-124.0","2","[""img/0899/00715b3f-851b-420b-a26b-d7f79f7759a9.jpg"",""img/0864/a248adb3-c70b-4652-b7a3-776d2a1e904b.jpg""]","",""
"","3550","similarity","131","916231","0.0-6.0-125.0","1","[""img/0766/79767d11-b612-4e8a-9e4b-a8ac95bb6a54.jpg"",""img/0868/c8ac40c7-6904-4e13-8d61-c75d3052dc4e.jpg""]","",""
"","4300","similarity","132","921552","0.0-6.0-126.0","2","[""img/0764/4952d0a0-c9be-471a-8ec7-94a37bf4051d.jpg"",""img/0864/e02eddb5-f468-499c-91bf-f7be3ffe979b.jpg""]","",""
"","3953","similarity","133","926521","0.0-6.0-127.0","1","[""img/0899/0433d056-aa30-4f8a-9aa1-abbb951e4edd.jpg"",""img/0866/620cd1aa-0800-4414-8f6e-90342e7a99ad.jpg""]","",""
"","6568","similarity","134","934120","0.0-6.0-128.0","1","[""img/0901/1ede21d9-384f-4150-86b5-e1c57b5dc1d4.jpg"",""img/0881/344de456-b358-4887-bd0e-e4c3278af887.jpg""]","",""
"","3403","similarity","135","938537","0.0-6.0-129.0","5","[""img/0898/661621d4-a14e-487c-8c74-354134a29710.jpg"",""img/0903/31b5a5f4-b695-4af1-bad2-a19650a05498.jpg""]","",""
"","3776","similarity","136","943336","0.0-6.0-130.0","2","[""img/0894/6aa5545f-fa7d-4286-bbaa-aaf34dc7ec96.jpg"",""img/0867/cc72ed48-7704-422c-86d6-467a1145287a.jpg""]","",""
"","7113","similarity","137","951464","0.0-6.0-131.0","2","[""img/0874/3f471690-9788-4d03-90c7-f615aecef149.jpg"",""img/0903/d987e220-f3e6-4b6d-a270-fe6757041f6d.jpg""]","",""
"","5328","similarity","138","957808","0.0-6.0-132.0","3","[""img/0899/ddf96ade-692e-4602-bd22-dedbb46401bc.jpg"",""img/0898/6cd3830b-d44e-4915-be2b-88d31424b91c.jpg""]","",""
"","5265","similarity","139","964103","0.0-6.0-133.0","1","[""img/0867/db7e032f-162b-46f5-ae67-2b29679adee4.jpg"",""img/0764/a3226bc4-dcc3-4608-bde8-1414d685ce5c.jpg""]","",""
"","4082","similarity","140","969211","0.0-6.0-134.0","3","[""img/0866/c446214b-a368-4c65-ae39-ea46894256ab.jpg"",""img/0769/c34b7763-8ff2-46d5-9e92-f1d8f3bedbd8.jpg""]","",""
"","9213","similarity","141","979452","0.0-6.0-135.0","4","[""img/0860/87039971-2210-4aab-93c0-8e9b5f1655b2.jpg"",""img/0898/0af304a2-6a7a-4082-ab7c-4450cd08cc58.jpg""]","",""
"","6015","similarity","142","986494","0.0-6.0-136.0","2","[""img/0881/6b1189e6-232d-4042-8885-16dc7b10e0d4.jpg"",""img/0903/680ed18e-b311-4ecf-9b00-7dea32128334.jpg""]","",""
"","3312","similarity","143","990832","0.0-6.0-137.0","3","[""img/0894/e2446cf5-cd48-486a-badc-76498e087fbe.jpg"",""img/0766/214866ee-423d-4629-9bb9-41572bdc7dac.jpg""]","",""
"","3911","similarity","144","995758","0.0-6.0-138.0","2","[""img/0860/99c589b9-9140-4d17-90c0-b344323edcda.jpg"",""img/0764/978aede9-4590-4ad0-b234-135c83e5d669.jpg""]","",""
"","4641","similarity","145","1001423","0.0-6.0-139.0","5","[""img/0769/f2740c58-7c02-433f-920b-746b0b75435b.jpg"",""img/0902/51493fab-2a10-4385-aa88-bee3db441626.jpg""]","",""
"","4464","similarity","146","1006903","0.0-6.0-140.0","5","[""img/0904/2f88ce53-02d0-4f95-a082-182c56a0eeb4.jpg"",""img/0903/97a42b34-5462-4665-88c7-83c014b33d24.jpg""]","",""
"","5508","similarity","147","1013425","0.0-6.0-141.0","5","[""img/0764/bc3865c9-9004-4582-88a7-048478673f97.jpg"",""img/0769/8056889f-2b14-4782-bb25-b4e8896ab65b.jpg""]","",""
"","4000","similarity","148","1018441","0.0-6.0-142.0","3","[""img/0902/b03fee99-d5ca-4bf8-871c-a4a743a39842.jpg"",""img/0881/dea58fad-b4f1-41d9-bd3f-916eff19a3fd.jpg""]","",""
"","3598","similarity","149","1023066","0.0-6.0-143.0","1","[""img/0866/945c6710-d15b-4a5b-a8f6-69af0850357f.jpg"",""img/0864/1ebbc554-99fa-49f9-8799-317375a79820.jpg""]","",""
"","3961","similarity","150","1028043","0.0-6.0-144.0","6","[""img/0902/9f543501-3cf1-45a7-a2f1-eeca87cc15b9.jpg"",""img/0898/4184e5a2-84ea-4f36-9b42-ae58646f6f87.jpg""]","",""
"","6309","similarity","151","1035376","0.0-6.0-145.0","3","[""img/0862/99a99e39-8355-44ec-b993-e7bcec111e1c.jpg"",""img/0864/c3b63e8f-ea39-4d70-a1f2-b3fe4be8eb75.jpg""]","",""
"","6746","similarity","152","1043138","0.0-6.0-146.0","1","[""img/0875/dbdd643e-6d0e-4a5c-ab57-b9c29b9c981a.jpg"",""img/0898/8605a25b-6895-476d-8c13-df7a83f96093.jpg""]","",""
"","10689","similarity","153","1054851","0.0-6.0-147.0","3","[""img/0874/85eb9b8a-c4c6-4e5a-b8e7-363a87a82054.jpg"",""img/0881/ed4c971f-0873-4fc8-b6d6-e8bbd82f0bcc.jpg""]","",""
"","5102","similarity","154","1060967","0.0-6.0-148.0","1","[""img/0758/d57c2592-a317-4f63-91be-91a3a9afd222.jpg"",""img/0894/7dd6ff43-f8fc-408a-8a41-a2b261871820.jpg""]","",""
"","4206","similarity","155","1066187","0.0-6.0-149.0","3","[""img/0904/06dacdc5-2206-4fb8-92b7-88042d22833c.jpg"",""img/0864/49150900-7f25-4ce8-8d10-9b47a71d1997.jpg""]","",""
"","5842","similarity","156","1073044","0.0-6.0-150.0","5","[""img/0769/9ea9ceb6-049e-4ad9-be8f-00645cd35803.jpg"",""img/0899/56a605c3-d0a2-4215-89e1-779279d85a7c.jpg""]","",""
"","4064","similarity","157","1080490","0.0-6.0-151.0","3","[""img/0764/bd2eaa3e-95a9-4a59-a78e-3f81c766eea9.jpg"",""img/0903/b548d383-2a95-4575-8c13-647873751ff1.jpg""]","",""
"","3772","similarity","158","1085289","0.0-6.0-152.0","3","[""img/0903/ea75f240-fb62-4edb-a709-83e858b202c0.jpg"",""img/0864/3651d070-2fc5-4848-b6a6-088a2d9ac5c9.jpg""]","",""
"","3247","similarity","159","1089549","0.0-6.0-153.0","2","[""img/0894/151063aa-6472-4745-837b-36603aba5966.jpg"",""img/0881/f7a8cc63-8842-40a4-9ff8-fe530310d62c.jpg""]","",""
"","3733","similarity","160","1094301","0.0-6.0-154.0","4","[""img/0875/cff79b3a-a797-4393-9757-6275f999ec04.jpg"",""img/0867/a498eef3-9fa4-4ab2-9778-4ae82ac40dc5.jpg""]","",""
"","2970","similarity","161","1098292","0.0-6.0-155.0","2","[""img/0867/c66898ba-b71b-4d50-84f9-f7f84853a98d.jpg"",""img/0758/67c0be2f-9e91-48b3-8219-70ac0a1802fa.jpg""]","",""
"","2321","similarity","162","1101636","0.0-6.0-156.0","1","[""img/0868/7b212364-ff5f-4e28-9241-7eb6ea00161b.jpg"",""img/0901/d6d15b1c-4a30-4f74-a3fd-d4c8ee4169ca.jpg""]","",""
"","3965","similarity","163","1106631","0.0-6.0-157.0","5","[""img/0769/e31b3bd8-efcb-413e-aa8c-75fac2b8f2ac.jpg"",""img/0894/6b2e9509-8699-42b7-9582-7741df0ba2d7.jpg""]","",""
"","2771","similarity","164","1110418","0.0-6.0-158.0","3","[""img/0904/0d17b811-063e-416e-a23c-3b3cfa4fcce5.jpg"",""img/0758/ddc336e9-a8b6-4bb9-937a-c7e25e0e9250.jpg""]","",""
"","5402","similarity","165","1116836","0.0-6.0-159.0","2","[""img/0874/ca76a855-4e77-4f2f-872a-0a718153e7ed.jpg"",""img/0904/4d7d70a3-9477-4921-bda0-f9531d0a5c5b.jpg""]","",""
"","2833","similarity","166","1120687","0.0-6.0-160.0","1","[""img/0864/0f537697-a314-47c3-a8cc-8df23b7e536c.jpg"",""img/0901/2a953e50-d237-405c-a38d-5ed21494c968.jpg""]","",""
"","5343","similarity","167","1127060","0.0-6.0-161.0","2","[""img/0898/0c7dde4f-efce-4b7a-9387-6921635b7890.jpg"",""img/0866/11a1d141-be5e-443c-98c1-a9d4d9e3dec0.jpg""]","",""
"","3328","similarity","168","1131412","0.0-6.0-162.0","3","[""img/0766/110832e5-2646-4bd0-a94e-5df8cc314269.jpg"",""img/0903/59defeb8-98bd-4570-a2f8-9bd189e68ef4.jpg""]","",""
"","4674","similarity","169","1137103","0.0-6.0-163.0","1","[""img/0860/d9a0d117-6d1d-41c0-8fec-9aff0fd9e9f2.jpg"",""img/0899/f58b8d2f-b19d-4b59-8b94-8834be92e4ba.jpg""]","",""
"","4523","similarity","170","1142643","0.0-6.0-164.0","2","[""img/0766/6d32752d-aa05-40dc-9541-640b6e9d6fa1.jpg"",""img/0862/57b6f83f-c763-4858-830d-102f97bfefbf.jpg""]","",""
"","6287","similarity","171","1149945","0.0-6.0-165.0","4","[""img/0898/5f699581-3853-4547-856c-12f419ba5af7.jpg"",""img/0894/9b1333fd-3561-43bf-aee5-99b7b7ca3dc3.jpg""]","",""
"","4268","similarity","172","1155229","0.0-6.0-166.0","1","[""img/0867/c71dc569-f49c-4397-8381-68b8d726736d.jpg"",""img/0766/c23b5a20-e50f-4d85-841f-cf89212a4348.jpg""]","",""
"","2444","similarity","173","1158690","0.0-6.0-167.0","3","[""img/0904/fe746a3f-8458-48d0-8a13-8cba2a9df9f8.jpg"",""img/0862/f188d4f0-76a4-4102-818c-a209969d73a5.jpg""]","",""
"","4494","similarity","174","1164201","0.0-6.0-168.0","1","[""img/0866/d266fece-59b3-46fa-b69f-96f6efb81b59.jpg"",""img/0874/2c9464dd-8a23-4baa-ac94-1ba3af5c15cc.jpg""]","",""
"","4203","similarity","175","1169420","0.0-6.0-169.0","1","[""img/0903/8931c67c-a43d-47d3-a4c9-42aa2f81d344.jpg"",""img/0868/4e626425-63c8-484a-8a1d-e66ee4e0bef8.jpg""]","",""
"","5476","similarity","176","1175911","0.0-6.0-170.0","5","[""img/0769/a1ce8d07-ba37-40de-bade-2778805521e0.jpg"",""img/0904/0d25eb24-bb20-4e8d-9787-8b489558b4cb.jpg""]","",""
"","2846","similarity","177","1179774","0.0-6.0-171.0","1","[""img/0875/5a716432-c6ca-4b1c-955a-2b8ac25198ee.jpg"",""img/0764/83c93cce-18d1-4aa7-9e23-2c268afe0a46.jpg""]","",""
"","3023","similarity","178","1183812","0.0-6.0-172.0","5","[""img/0860/4a022222-056d-461c-ab02-39fac9647552.jpg"",""img/0903/b0a3c45f-467e-412f-a183-c9c1827f2e63.jpg""]","",""
"","3909","similarity","179","1188748","0.0-6.0-173.0","1","[""img/0864/1d15626a-2f7c-410f-819c-0fa2c967e95e.jpg"",""img/0867/a749dddb-69f0-44a6-acdc-2bf295cf6dcc.jpg""]","",""
"","2268","similarity","180","1192036","0.0-6.0-174.0","1","[""img/0868/0d3abd3a-b6c3-4584-a9f7-e2da63748b3d.jpg"",""img/0864/c22faebd-9c53-47bc-ada3-b9a30c688e75.jpg""]","",""
"","3884","similarity","181","1196943","0.0-6.0-175.0","4","[""img/0898/26c41340-15bd-4ead-8fe4-c0d0ddca09c2.jpg"",""img/0769/04347740-f8f6-48bb-887a-f68babd0a0d4.jpg""]","",""
"","3884","similarity","182","1201842","0.0-6.0-176.0","5","[""img/0766/51d3aab4-3d09-4dda-b99d-3dc7aaabc6f2.jpg"",""img/0764/06ea144f-f4f3-4a14-ba47-f20f35c561e0.jpg""]","",""
"","4824","similarity","183","1207682","0.0-6.0-177.0","2","[""img/0764/6fbd1902-fa2a-48d8-bc11-705b8ab68d8f.jpg"",""img/0866/93a27239-8317-4e08-98ca-d8b1ff298e07.jpg""]","",""
"","4551","similarity","184","1213263","0.0-6.0-178.0","1","[""img/0902/d3e55000-c839-4bf9-9b9b-4af0a9925af1.jpg"",""img/0875/ebf7653f-ff45-4e9f-af58-2c042ab3cd2b.jpg""]","",""
"","3289","similarity","185","1217566","0.0-6.0-179.0","2","[""img/0881/b549bc99-a61c-4450-bab5-9efc3a197bf0.jpg"",""img/0904/9b3568cc-3cf7-42be-9df3-fdafde7a58b8.jpg""]","",""
"","4956","similarity","186","1223551","0.0-6.0-180.0","3","[""img/0874/adf9a8f1-c40b-402b-b95b-1e85a54a7b62.jpg"",""img/0860/c47fdead-eb02-4989-b078-26f4852f44fe.jpg""]","",""
"","4193","similarity","187","1228772","0.0-6.0-181.0","2","[""img/0769/8c7cf147-1780-4d5c-8ddf-5ea23ff03ac9.jpg"",""img/0874/99f6563c-8a8d-4c1c-a41d-667b618c3fd5.jpg""]","",""
"","3165","similarity","188","1232957","0.0-6.0-182.0","3","[""img/0904/2c98dc56-88d1-4fb5-a999-b6a7861f65f0.jpg"",""img/0766/75c3d627-4f3b-40d5-9d9c-10c8a62db644.jpg""]","",""
"","2930","similarity","189","1236907","0.0-6.0-183.0","3","[""img/0902/1f4a4c62-68c1-4993-b213-05652a173ed1.jpg"",""img/0764/0e7ed062-f798-4366-8a24-6f430926f919.jpg""]","",""
"","3175","similarity","190","1241102","0.0-6.0-184.0","1","[""img/0769/3c1203c5-2ce7-466e-957a-8d77b5905460.jpg"",""img/0875/8521fd58-3b1e-4dc5-97ae-804edfa6734a.jpg""]","",""
"","2679","similarity","191","1244804","0.0-6.0-185.0","1","[""img/0867/075e0f95-856b-4cbb-acf5-092393aaf04e.jpg"",""img/0903/b7e3723f-fd03-4f3d-8820-f19496463a34.jpg""]","",""
"","2596","similarity","192","1248418","0.0-6.0-186.0","4","[""img/0862/47ed5efd-4ec9-4b74-bb4e-a5f5cf0c3e7d.jpg"",""img/0769/5bd04f55-d091-4f57-85db-38426f26bd1a.jpg""]","",""
"","3196","similarity","193","1252646","0.0-6.0-187.0","1","[""img/0766/d8221e53-2300-4d99-ae1b-0bfb0eabe579.jpg"",""img/0866/23a224f3-2012-4fc8-8e0f-3c36f8de27fd.jpg""]","",""
"","4155","similarity","194","1257829","0.0-6.0-188.0","3","[""img/0769/387a9744-d6a7-42b8-bab8-33007ec434aa.jpg"",""img/0860/4c530c3c-6aab-492a-94d1-9c01797bde40.jpg""]","",""
"","5626","similarity","195","1266251","0.0-6.0-189.0","2","[""img/0881/e046471a-35b4-4159-bbf7-3cfd201bef66.jpg"",""img/0868/6a28c3b0-3d76-498a-9fb7-ddafc665eca8.jpg""]","",""
"[{""page_index"":0,""viewing_time"":7511}]","7512","instructions","196","1274764","0.0-7.0","","","",""
"","63260","image-multi-choice","197","1339097","0.0-8.0-0.0","","","{""Q0"":""Nashville Warbler""}","Nashville Warbler"
"","6416","image-multi-choice","198","1346566","0.0-8.0-1.0","","","{""Q0"":""Black-and-white Warbler""}","Black-and-white Warbler"
"","9803","image-multi-choice","199","1357436","0.0-8.0-2.0","","","{""Q0"":""Townsend's Warbler""}","Townsend's Warbler"
"","4880","image-multi-choice","200","1363376","0.0-8.0-3.0","","","{""Q0"":""Lark Sparrow""}","Lark Sparrow"
"","3422","image-multi-choice","201","1367858","0.0-8.0-4.0","","","{""Q0"":""Yellow Warbler""}","Yellow Warbler"
"","23041","image-multi-choice","202","1391944","0.0-8.0-5.0","","","{""Q0"":""Orange-crowned Warbler""}","Orange-crowned Warbler"
"","4376","image-multi-choice","203","1397369","0.0-8.0-6.0","","","{""Q0"":""White-throated Sparrow""}","White-throated Sparrow"
"","8152","image-multi-choice","204","1406572","0.0-8.0-7.0","","","{""Q0"":""Fox Sparrow""}","Fox Sparrow"
"","5011","image-multi-choice","205","1412630","0.0-8.0-8.0","","","{""Q0"":""Song Sparrow""}","Song Sparrow"
"","4545","image-multi-choice","206","1418215","0.0-8.0-9.0","","","{""Q0"":""Blackburnian Warbler""}","Blackburnian Warbler"
"","5565","image-multi-choice","207","1424846","0.0-8.0-10.0","","","{""Q0"":""Vesper Sparrow""}","Vesper Sparrow"
"","3641","image-multi-choice","208","1429531","0.0-8.0-11.0","","","{""Q0"":""White-crowned Sparrow""}","White-crowned Sparrow"
"","5539","image-multi-choice","209","1436125","0.0-8.0-12.0","","","{""Q0"":""American Tree Sparrow""}","American Tree Sparrow"
"","5368","image-multi-choice","210","1442544","0.0-8.0-13.0","","","{""Q0"":""Tennessee Warbler""}","Tennessee Warbler"
"","4068","image-multi-choice","211","1447654","0.0-8.0-14.0","","","{""Q0"":""Magnolia Warbler""}","Magnolia Warbler"
"","3876","image-multi-choice","212","1452579","0.0-8.0-15.0","","","{""Q0"":""Northern Waterthrush""}","Northern Waterthrush"
"","5485","image-multi-choice","213","1459112","0.0-8.0-16.0","","","{""Q0"":""Chipping Sparrow""}","Chipping Sparrow"
"","8306","image-multi-choice","214","1468458","0.0-8.0-17.0","","","{""Q0"":""Lincoln's Sparrow""}","Swamp Sparrow"
"","11584","image-multi-choice","215","1481086","0.0-8.0-18.0","","","{""Q0"":""Lincoln's Sparrow""}","Lincoln's Sparrow"
"","2840","image-multi-choice","216","1484976","0.0-8.0-19.0","","","{""Q0"":""Ovenbird""}","Ovenbird"
