[{"view_history":"[{\"page_index\":0,\"viewing_time\":324908}]","rt":324946,"trial_type":"instructions","trial_index":0,"time_elapsed":324949,"internal_node_id":"0.0-0.0"},{"sim_score":7,"rt":7415,"stimulus":"[\"img/bluejay1.jpg\",\"img/bluejay2.jpg\"]","trial_type":"similarity_demo","trial_index":1,"time_elapsed":333433,"internal_node_id":"0.0-1.0"},{"view_history":"[{\"page_index\":0,\"viewing_time\":5453}]","rt":5455,"trial_type":"instructions","trial_index":2,"time_elapsed":339897,"internal_node_id":"0.0-2.0"},{"sim_score":5,"rt":4659,"stimulus":"[\"img/bluejay1.jpg\",\"img/cardinal1.jpg\"]","trial_type":"similarity_demo","trial_index":3,"time_elapsed":345598,"internal_node_id":"0.0-3.0"},{"view_history":"[{\"page_index\":0,\"viewing_time\":3506}]","rt":3507,"trial_type":"instructions","trial_index":4,"time_elapsed":350120,"internal_node_id":"0.0-4.0"},{"view_history":"[{\"page_index\":0,\"viewing_time\":2704}]","rt":2706,"trial_type":"instructions","trial_index":5,"time_elapsed":353841,"internal_node_id":"0.0-5.0"},{"sim_score":4,"rt":3744,"stimulus":"[\"img/0868/d6d1f30d-4323-435a-b194-7892521bc57e.jpg\",\"img/0894/b2d2f66e-e480-46da-a02a-6d0c6b285d78.jpg\"]","trial_type":"similarity","trial_index":6,"time_elapsed":358630,"internal_node_id":"0.0-6.0-0.0"},{"sim_score":4,"rt":3694,"stimulus":"[\"img/0898/ec565187-2e31-4fdd-9a5c-153d0c789ae0.jpg\",\"img/0758/7fba58df-2a7a-4b76-8a8f-62739f97f271.jpg\"]","trial_type":"similarity","trial_index":7,"time_elapsed":363374,"internal_node_id":"0.0-6.0-1.0"},{"sim_score":5,"rt":5138,"stimulus":"[\"img/0903/d987e220-f3e6-4b6d-a270-fe6757041f6d.jpg\",\"img/0894/151063aa-6472-4745-837b-36603aba5966.jpg\"]","trial_type":"similarity","trial_index":8,"time_elapsed":369582,"internal_node_id":"0.0-6.0-2.0"},{"sim_score":4,"rt":3678,"stimulus":"[\"img/0881/445edb15-bd7f-4af3-8bd5-c6ad9677bb31.jpg\",\"img/0766/f011ef45-fb48-44b8-8224-867ed2ccf786.jpg\"]","trial_type":"similarity","trial_index":9,"time_elapsed":374309,"internal_node_id":"0.0-6.0-3.0"},{"sim_score":5,"rt":4455,"stimulus":"[\"img/0864/3d4de670-b290-4285-9c3d-12a0e3af44e9.jpg\",\"img/0860/87039971-2210-4aab-93c0-8e9b5f1655b2.jpg\"]","trial_type":"similarity","trial_index":10,"time_elapsed":379813,"internal_node_id":"0.0-6.0-4.0"},{"sim_score":5,"rt":4335,"stimulus":"[\"img/0902/40d0b6ec-3907-4573-b227-e7d8e9cad1c3.jpg\",\"img/0899/57476fed-5962-4272-8fc9-b317bb777b54.jpg\"]","trial_type":"similarity","trial_index":11,"time_elapsed":385207,"internal_node_id":"0.0-6.0-5.0"},{"sim_score":4,"rt":4143,"stimulus":"[\"img/0868/8b0b8473-e2c0-4331-aa56-c3a5c29369da.jpg\",\"img/0769/11518cb3-13ea-4dd0-890c-30cfab728ade.jpg\"]","trial_type":"similarity","trial_index":12,"time_elapsed":390398,"internal_node_id":"0.0-6.0-6.0"},{"sim_score":5,"rt":4991,"stimulus":"[\"img/0764/e42c1dc9-7831-4995-be19-7ca7b4d141fc.jpg\",\"img/0901/0f670aef-ac36-496d-8142-ee5fdb21dd82.jpg\"]","trial_type":"similarity","trial_index":13,"time_elapsed":396429,"internal_node_id":"0.0-6.0-7.0"},{"sim_score":5,"rt":4382,"stimulus":"[\"img/0881/44e09805-5a25-4f17-a716-4ad4a331b174.jpg\",\"img/0866/945c6710-d15b-4a5b-a8f6-69af0850357f.jpg\"]","trial_type":"similarity","trial_index":14,"time_elapsed":401863,"internal_node_id":"0.0-6.0-8.0"},{"sim_score":4,"rt":3000,"stimulus":"[\"img/0867/a749dddb-69f0-44a6-acdc-2bf295cf6dcc.jpg\",\"img/0899/4f7bc593-8ddd-4da3-a0b9-84da730d3370.jpg\"]","trial_type":"similarity","trial_index":15,"time_elapsed":405918,"internal_node_id":"0.0-6.0-9.0"},{"sim_score":4,"rt":3531,"stimulus":"[\"img/0875/d59ff733-eaff-4ee2-9443-06954dd0bcb6.jpg\",\"img/0766/d919cedb-f9b7-4f30-83bb-3e9c65001ceb.jpg\"]","trial_type":"similarity","trial_index":16,"time_elapsed":410501,"internal_node_id":"0.0-6.0-10.0"},{"sim_score":4,"rt":3101,"stimulus":"[\"img/0901/168eb52c-c415-43f1-b5c8-e76e1a1ec247.jpg\",\"img/0875/dbdd643e-6d0e-4a5c-ab57-b9c29b9c981a.jpg\"]","trial_type":"similarity","trial_index":17,"time_elapsed":414661,"internal_node_id":"0.0-6.0-11.0"},{"sim_score":4,"rt":3732,"stimulus":"[\"img/0902/d5e25767-e8ec-45f3-ac0a-7b4a6f7a9edc.jpg\",\"img/0860/c3379ff7-0763-48fe-a1ec-7ea3d611bc7a.jpg\"]","trial_type":"similarity","trial_index":18,"time_elapsed":419455,"internal_node_id":"0.0-6.0-12.0"},{"sim_score":5,"rt":5238,"stimulus":"[\"img/0874/bf14b896-e930-4fd9-9c05-2e83317a2773.jpg\",\"img/0867/8ba0c5a7-c7e4-42cf-a80a-543763b90779.jpg\"]","trial_type":"similarity","trial_index":19,"time_elapsed":425735,"internal_node_id":"0.0-6.0-13.0"},{"sim_score":4,"rt":3441,"stimulus":"[\"img/0904/fe746a3f-8458-48d0-8a13-8cba2a9df9f8.jpg\",\"img/0866/6f2a90d7-14f1-4f1b-bd64-fc0af6b9fe44.jpg\"]","trial_type":"similarity","trial_index":20,"time_elapsed":430231,"internal_node_id":"0.0-6.0-14.0"},{"sim_score":4,"rt":2300,"stimulus":"[\"img/0758/e1ba5e53-addc-436a-b428-d34fc1b130dc.jpg\",\"img/0902/3f0eeac5-c996-4026-a376-563ce8f28521.jpg\"]","trial_type":"similarity","trial_index":21,"time_elapsed":433582,"internal_node_id":"0.0-6.0-15.0"},{"sim_score":4,"rt":3559,"stimulus":"[\"img/0867/075e0f95-856b-4cbb-acf5-092393aaf04e.jpg\",\"img/0898/224c1572-56b9-4f16-a9e4-6f3bc9c114bd.jpg\"]","trial_type":"similarity","trial_index":22,"time_elapsed":438206,"internal_node_id":"0.0-6.0-16.0"},{"sim_score":4,"rt":3569,"stimulus":"[\"img/0904/ba8e689e-9ca6-4608-a2a1-3b0940666ae6.jpg\",\"img/0868/5fa7f9d0-f0e5-454c-8224-74d964818f56.jpg\"]","trial_type":"similarity","trial_index":23,"time_elapsed":442831,"internal_node_id":"0.0-6.0-17.0"},{"sim_score":4,"rt":3766,"stimulus":"[\"img/0766/2da002a4-05c9-4f5c-9ed7-433b4183e273.jpg\",\"img/0864/0116ca98-293d-4fa6-a93b-5a6144ef64cc.jpg\"]","trial_type":"similarity","trial_index":24,"time_elapsed":447656,"internal_node_id":"0.0-6.0-18.0"},{"sim_score":5,"rt":4550,"stimulus":"[\"img/0899/8de08897-b430-42fe-9d42-840670b80f94.jpg\",\"img/0766/908bc45b-7c9e-4f95-806e-86b196ebcb2c.jpg\"]","trial_type":"similarity","trial_index":25,"time_elapsed":453247,"internal_node_id":"0.0-6.0-19.0"},{"sim_score":4,"rt":2794,"stimulus":"[\"img/0764/4eff630a-6426-4f8d-b2ba-b4d9842a0962.jpg\",\"img/0758/caa93da2-9edf-49fa-96b9-32dedd8f5078.jpg\"]","trial_type":"similarity","trial_index":26,"time_elapsed":457086,"internal_node_id":"0.0-6.0-20.0"},{"sim_score":4,"rt":4178,"stimulus":"[\"img/0901/fb0a8e69-7f19-4e6e-a6bb-a48f97f9b4f3.jpg\",\"img/0874/767f289c-9814-4496-803f-745cc8913d1f.jpg\"]","trial_type":"similarity","trial_index":27,"time_elapsed":462319,"internal_node_id":"0.0-6.0-21.0"},{"sim_score":6,"rt":5195,"stimulus":"[\"img/0875/cff79b3a-a797-4393-9757-6275f999ec04.jpg\",\"img/0758/d540bee6-b460-4c32-ac57-bc282742d7d4.jpg\"]","trial_type":"similarity","trial_index":28,"time_elapsed":468552,"internal_node_id":"0.0-6.0-22.0"},{"sim_score":5,"rt":5285,"stimulus":"[\"img/0867/f8159067-056c-41f1-a136-c529fe5e970a.jpg\",\"img/0881/48ed65a5-471f-41af-86ec-3793805c116d.jpg\"]","trial_type":"similarity","trial_index":29,"time_elapsed":474895,"internal_node_id":"0.0-6.0-23.0"},{"sim_score":4,"rt":4361,"stimulus":"[\"img/0758/d57c2592-a317-4f63-91be-91a3a9afd222.jpg\",\"img/0901/d6d15b1c-4a30-4f74-a3fd-d4c8ee4169ca.jpg\"]","trial_type":"similarity","trial_index":30,"time_elapsed":480303,"internal_node_id":"0.0-6.0-24.0"},{"sim_score":6,"rt":4456,"stimulus":"[\"img/0868/0d3abd3a-b6c3-4584-a9f7-e2da63748b3d.jpg\",\"img/0875/ebf7653f-ff45-4e9f-af58-2c042ab3cd2b.jpg\"]","trial_type":"similarity","trial_index":31,"time_elapsed":485809,"internal_node_id":"0.0-6.0-25.0"},{"sim_score":5,"rt":4086,"stimulus":"[\"img/0903/150cf64c-0bd2-4674-abbb-a1387cf1f3e9.jpg\",\"img/0901/62315ff5-ed95-46b4-b099-92552079659b.jpg\"]","trial_type":"similarity","trial_index":32,"time_elapsed":490935,"internal_node_id":"0.0-6.0-26.0"},{"sim_score":5,"rt":5591,"stimulus":"[\"img/0894/a98416c0-51e2-4960-85da-d81d8688b9d5.jpg\",\"img/0899/d8f2dd94-570e-4e8c-a087-d96090fb9e8c.jpg\"]","trial_type":"similarity","trial_index":33,"time_elapsed":497569,"internal_node_id":"0.0-6.0-27.0"},{"sim_score":5,"rt":4563,"stimulus":"[\"img/0862/cdaed51d-9e2f-4807-801a-4663c40077e2.jpg\",\"img/0867/f26f6b60-f772-4f4c-95a4-addc62cfd692.jpg\"]","trial_type":"similarity","trial_index":34,"time_elapsed":503185,"internal_node_id":"0.0-6.0-28.0"},{"sim_score":6,"rt":4790,"stimulus":"[\"img/0864/87c467d3-abca-482f-ad80-3766c21b1bb3.jpg\",\"img/0875/90da8d75-108a-44ad-b999-e21fee3860d3.jpg\"]","trial_type":"similarity","trial_index":35,"time_elapsed":509025,"internal_node_id":"0.0-6.0-29.0"},{"sim_score":5,"rt":3636,"stimulus":"[\"img/0862/92fcd8a4-8193-4a6a-ae09-dd4a6338b0df.jpg\",\"img/0874/a3bc679d-619f-4db6-bb68-116dcb757d9c.jpg\"]","trial_type":"similarity","trial_index":36,"time_elapsed":513704,"internal_node_id":"0.0-6.0-30.0"},{"sim_score":4,"rt":2222,"stimulus":"[\"img/0903/71dbc325-b588-4297-a5cf-7f268a722ad9.jpg\",\"img/0758/7ee8bc8f-c40b-4b3a-84ec-3e83580622d4.jpg\"]","trial_type":"similarity","trial_index":37,"time_elapsed":516985,"internal_node_id":"0.0-6.0-31.0"},{"sim_score":4,"rt":3218,"stimulus":"[\"img/0866/bf14b5bd-fb55-47db-86b9-4f8aeb9a6dad.jpg\",\"img/0901/71e551a2-9ce2-409c-9c7c-dd556a0791e9.jpg\"]","trial_type":"similarity","trial_index":38,"time_elapsed":521248,"internal_node_id":"0.0-6.0-32.0"},{"sim_score":4,"rt":4138,"stimulus":"[\"img/0874/29830da7-be5f-44e5-b141-652a0ccf7269.jpg\",\"img/0899/565ccdd9-0933-4536-a625-3c0e25a713dd.jpg\"]","trial_type":"similarity","trial_index":39,"time_elapsed":526440,"internal_node_id":"0.0-6.0-33.0"},{"sim_score":6,"rt":4421,"stimulus":"[\"img/0903/005ad0de-4f52-433c-b515-dbe8d46184a3.jpg\",\"img/0902/d1083f2c-5520-44ec-81a8-3f856fbf0e80.jpg\"]","trial_type":"similarity","trial_index":40,"time_elapsed":531904,"internal_node_id":"0.0-6.0-34.0"},{"sim_score":5,"rt":4267,"stimulus":"[\"img/0758/335851a0-a55b-46d8-ab05-8463eda48349.jpg\",\"img/0866/be24ab58-230e-4db8-9f45-ff04c9aec6bb.jpg\"]","trial_type":"similarity","trial_index":41,"time_elapsed":537224,"internal_node_id":"0.0-6.0-35.0"},{"sim_score":4,"rt":2721,"stimulus":"[\"img/0875/fb732ab5-013a-4366-9f65-27811ed157e9.jpg\",\"img/0903/b0df4094-a3be-4b5b-81bd-8d260f13f61b.jpg\"]","trial_type":"similarity","trial_index":42,"time_elapsed":541008,"internal_node_id":"0.0-6.0-36.0"},{"sim_score":4,"rt":1884,"stimulus":"[\"img/0864/c22faebd-9c53-47bc-ada3-b9a30c688e75.jpg\",\"img/0902/a6fb6dd5-696c-47ec-be7d-d7b88f1544f1.jpg\"]","trial_type":"similarity","trial_index":43,"time_elapsed":547844,"internal_node_id":"0.0-6.0-37.0"},{"sim_score":4,"rt":1962,"stimulus":"[\"img/0901/1e23ffbd-19de-4c4f-aa23-c54aaa3319a3.jpg\",\"img/0867/98d8cd96-1476-4fe0-a3a3-04f875500a1b.jpg\"]","trial_type":"similarity","trial_index":44,"time_elapsed":550857,"internal_node_id":"0.0-6.0-38.0"},{"sim_score":5,"rt":5006,"stimulus":"[\"img/0862/a0a3a7ba-7798-46a3-b4ca-05e1f6e581d0.jpg\",\"img/0860/5383b320-1518-4095-a58e-5cc1ae30b64c.jpg\"]","trial_type":"similarity","trial_index":45,"time_elapsed":556913,"internal_node_id":"0.0-6.0-39.0"},{"sim_score":7,"rt":4512,"stimulus":"[\"img/0867/f8488a47-94ee-4166-952c-44e16cf172f6.jpg\",\"img/0868/6a28c3b0-3d76-498a-9fb7-ddafc665eca8.jpg\"]","trial_type":"similarity","trial_index":46,"time_elapsed":562473,"internal_node_id":"0.0-6.0-40.0"},{"sim_score":6,"rt":4647,"stimulus":"[\"img/0904/0d17b811-063e-416e-a23c-3b3cfa4fcce5.jpg\",\"img/0899/a048912c-b12c-40e3-90af-46b69b0cc4fe.jpg\"]","trial_type":"similarity","trial_index":47,"time_elapsed":568168,"internal_node_id":"0.0-6.0-41.0"},{"sim_score":4,"rt":5432,"stimulus":"[\"img/0862/57b6f83f-c763-4858-830d-102f97bfefbf.jpg\",\"img/0894/2d2db7b3-e8a3-499b-b63a-14f51bf73882.jpg\"]","trial_type":"similarity","trial_index":48,"time_elapsed":574642,"internal_node_id":"0.0-6.0-42.0"},{"sim_score":4,"rt":2120,"stimulus":"[\"img/0875/5a1e5100-0d94-4fec-bbe9-ca9894d2cf8e.jpg\",\"img/0904/da170c1b-9651-4f08-b231-2bdd1d9a046f.jpg\"]","trial_type":"similarity","trial_index":49,"time_elapsed":577825,"internal_node_id":"0.0-6.0-43.0"},{"sim_score":4,"rt":1777,"stimulus":"[\"img/0874/93d1f8dc-acf2-4f03-bd8d-8ec35df276ed.jpg\",\"img/0898/b2732712-71c2-45d8-834f-2b2ed5504910.jpg\"]","trial_type":"similarity","trial_index":50,"time_elapsed":580657,"internal_node_id":"0.0-6.0-44.0"},{"sim_score":4,"rt":3300,"stimulus":"[\"img/0898/a8f16b02-e19f-423b-86c3-a36562ae1f9b.jpg\",\"img/0868/1a62b2b2-18f5-466e-b564-5176a57c565e.jpg\"]","trial_type":"similarity","trial_index":51,"time_elapsed":585017,"internal_node_id":"0.0-6.0-45.0"},{"sim_score":4,"rt":2017,"stimulus":"[\"img/0901/b13fa50f-dbe0-4d0f-8647-6ac0fd8f40bd.jpg\",\"img/0860/17b44a7d-c5ca-479f-9e87-f65a64f5c80e.jpg\"]","trial_type":"similarity","trial_index":52,"time_elapsed":588081,"internal_node_id":"0.0-6.0-46.0"},{"sim_score":5,"rt":5375,"stimulus":"[\"img/0894/1a010553-d598-4b06-a772-81f1e7b3addb.jpg\",\"img/0902/9f543501-3cf1-45a7-a2f1-eeca87cc15b9.jpg\"]","trial_type":"similarity","trial_index":53,"time_elapsed":594506,"internal_node_id":"0.0-6.0-47.0"},{"sim_score":4,"rt":3165,"stimulus":"[\"img/0764/958b8576-3a3b-4acc-96dc-06b74de69f37.jpg\",\"img/0862/eefa5588-9efd-4591-aa5f-a2e17c7d7bcc.jpg\"]","trial_type":"similarity","trial_index":54,"time_elapsed":598720,"internal_node_id":"0.0-6.0-48.0"},{"sim_score":5,"rt":4705,"stimulus":"[\"img/0881/667e2147-d457-4f32-aa5f-6ab86e5848f1.jpg\",\"img/0758/65d426d6-3ff6-415d-8654-a43b83ecc4fe.jpg\"]","trial_type":"similarity","trial_index":55,"time_elapsed":604473,"internal_node_id":"0.0-6.0-49.0"},{"sim_score":5,"rt":5121,"stimulus":"[\"img/0766/00891401-e4c9-4ce1-bc19-f70740d174bc.jpg\",\"img/0769/96556ef3-7fac-4c9d-8281-1cb0ea5081bc.jpg\"]","trial_type":"similarity","trial_index":56,"time_elapsed":610635,"internal_node_id":"0.0-6.0-50.0"},{"sim_score":6,"rt":4334,"stimulus":"[\"img/0875/a4935837-7d3c-4df6-88c1-36a94d4991ca.jpg\",\"img/0866/93a27239-8317-4e08-98ca-d8b1ff298e07.jpg\"]","trial_type":"similarity","trial_index":57,"time_elapsed":616026,"internal_node_id":"0.0-6.0-51.0"},{"sim_score":6,"rt":5245,"stimulus":"[\"img/0894/1b3888e6-cf36-4c4a-a039-187aa5cb71ac.jpg\",\"img/0904/4d7d70a3-9477-4921-bda0-f9531d0a5c5b.jpg\"]","trial_type":"similarity","trial_index":58,"time_elapsed":622322,"internal_node_id":"0.0-6.0-52.0"},{"sim_score":4,"rt":3583,"stimulus":"[\"img/0758/53f35650-e455-4b53-8be4-c3c8271c6466.jpg\",\"img/0769/35364db7-e0d5-40ef-93dc-faf9dfb95136.jpg\"]","trial_type":"similarity","trial_index":59,"time_elapsed":626993,"internal_node_id":"0.0-6.0-53.0"},{"sim_score":4,"rt":3304,"stimulus":"[\"img/0902/8af4182a-9af9-4212-a436-9195555112d6.jpg\",\"img/0874/ca23d307-fc00-4d7d-9106-584c6eb21b4d.jpg\"]","trial_type":"similarity","trial_index":60,"time_elapsed":631354,"internal_node_id":"0.0-6.0-54.0"},{"sim_score":4,"rt":2195,"stimulus":"[\"img/0903/6b5dcc60-3ad3-4962-93e5-e6cf768477af.jpg\",\"img/0862/ee3b7bff-4a70-4e84-9bea-4a565e456acb.jpg\"]","trial_type":"similarity","trial_index":61,"time_elapsed":634602,"internal_node_id":"0.0-6.0-55.0"},{"sim_score":4,"rt":2768,"stimulus":"[\"img/0866/386235d2-6857-41e7-88a8-25cfc3430025.jpg\",\"img/0894/10f22b96-040c-44f4-950b-a4963f3f506c.jpg\"]","trial_type":"similarity","trial_index":62,"time_elapsed":638426,"internal_node_id":"0.0-6.0-56.0"},{"sim_score":4,"rt":1514,"stimulus":"[\"img/0867/c71dc569-f49c-4397-8381-68b8d726736d.jpg\",\"img/0904/09dac84f-3d1c-4445-a68e-d0389fdbf1e9.jpg\"]","trial_type":"similarity","trial_index":63,"time_elapsed":640978,"internal_node_id":"0.0-6.0-57.0"},{"sim_score":5,"rt":3896,"stimulus":"[\"img/0875/e7e66b13-b573-431e-b85e-288ce04a35a3.jpg\",\"img/0881/566f45f8-5fed-4479-a60f-26377e60a62d.jpg\"]","trial_type":"similarity","trial_index":64,"time_elapsed":645939,"internal_node_id":"0.0-6.0-58.0"},{"sim_score":5,"rt":4190,"stimulus":"[\"img/0866/8efcaa46-83ab-4dee-a35f-850402aa21ae.jpg\",\"img/0860/c5ccd1a4-4bb7-48e1-9b25-72cfaf06909b.jpg\"]","trial_type":"similarity","trial_index":65,"time_elapsed":651170,"internal_node_id":"0.0-6.0-59.0"},{"sim_score":4,"rt":2403,"stimulus":"[\"img/0903/8635cf25-2648-4fe9-8c42-79d2598e999c.jpg\",\"img/0866/4a87911a-d5be-4d4e-ab8e-3d1f581bf507.jpg\"]","trial_type":"similarity","trial_index":66,"time_elapsed":654618,"internal_node_id":"0.0-6.0-60.0"},{"sim_score":5,"rt":3544,"stimulus":"[\"img/0860/e14d67c1-6d92-4f1e-9257-c8607159c19c.jpg\",\"img/0875/5a716432-c6ca-4b1c-955a-2b8ac25198ee.jpg\"]","trial_type":"similarity","trial_index":67,"time_elapsed":659204,"internal_node_id":"0.0-6.0-61.0"},{"sim_score":4,"rt":2632,"stimulus":"[\"img/0898/26c41340-15bd-4ead-8fe4-c0d0ddca09c2.jpg\",\"img/0862/f43ceabf-acc1-4107-b857-5d1849808f93.jpg\"]","trial_type":"similarity","trial_index":68,"time_elapsed":662883,"internal_node_id":"0.0-6.0-62.0"},{"sim_score":5,"rt":4982,"stimulus":"[\"img/0902/51493fab-2a10-4385-aa88-bee3db441626.jpg\",\"img/0766/aaec5f42-7f0a-4a16-aeca-488d757acbcc.jpg\"]","trial_type":"similarity","trial_index":69,"time_elapsed":668907,"internal_node_id":"0.0-6.0-63.0"},{"sim_score":6,"rt":3596,"stimulus":"[\"img/0758/a709631e-3705-4725-ac40-f0d916924f08.jpg\",\"img/0864/6e846d43-94a6-4b37-a268-65eda979f052.jpg\"]","trial_type":"similarity","trial_index":70,"time_elapsed":673555,"internal_node_id":"0.0-6.0-64.0"},{"sim_score":4,"rt":2606,"stimulus":"[\"img/0894/4739e06d-c31e-4bf1-bf91-c97fa9afb456.jpg\",\"img/0860/702bd09d-df3a-40aa-a267-5f04474305b5.jpg\"]","trial_type":"similarity","trial_index":71,"time_elapsed":677203,"internal_node_id":"0.0-6.0-65.0"},{"sim_score":4,"rt":1646,"stimulus":"[\"img/0899/0433d056-aa30-4f8a-9aa1-abbb951e4edd.jpg\",\"img/0868/3a62db2d-97e9-44a3-b8e3-a48c6f0e423b.jpg\"]","trial_type":"similarity","trial_index":72,"time_elapsed":679901,"internal_node_id":"0.0-6.0-66.0"},{"sim_score":6,"rt":3627,"stimulus":"[\"img/0866/0207e9a2-7dbb-40b5-9459-b472aaeceb2a.jpg\",\"img/0862/d0ca4c78-fc35-46ed-bdcc-8e124283c53e.jpg\"]","trial_type":"similarity","trial_index":73,"time_elapsed":684580,"internal_node_id":"0.0-6.0-67.0"},{"sim_score":5,"rt":4329,"stimulus":"[\"img/0860/8fdba999-b946-4c7d-9891-336018b563ef.jpg\",\"img/0758/f61ecdf8-a7d4-4db0-b84d-be46f7cfaffc.jpg\"]","trial_type":"similarity","trial_index":74,"time_elapsed":689947,"internal_node_id":"0.0-6.0-68.0"},{"sim_score":4,"rt":2219,"stimulus":"[\"img/0902/c018bd7a-d91a-4192-aea4-7259cfcdb6c4.jpg\",\"img/0867/7d1c497b-c1b3-4ed8-abb5-d7f73306015f.jpg\"]","trial_type":"similarity","trial_index":75,"time_elapsed":693211,"internal_node_id":"0.0-6.0-69.0"},{"sim_score":4,"rt":1636,"stimulus":"[\"img/0862/00c06b00-3b73-44e9-bc1e-c5aafb438321.jpg\",\"img/0901/58978a6d-a3e2-4c59-8d62-f60693ecc0f6.jpg\"]","trial_type":"similarity","trial_index":76,"time_elapsed":695891,"internal_node_id":"0.0-6.0-70.0"},{"sim_score":6,"rt":4139,"stimulus":"[\"img/0867/5e07b34d-b40f-4b1c-ac10-49975bace45f.jpg\",\"img/0866/23a224f3-2012-4fc8-8e0f-3c36f8de27fd.jpg\"]","trial_type":"similarity","trial_index":77,"time_elapsed":701084,"internal_node_id":"0.0-6.0-71.0"},{"sim_score":4,"rt":2502,"stimulus":"[\"img/0860/15b24a61-25be-4356-9eac-5ce95d0cb4a4.jpg\",\"img/0904/a8c3c7d2-9bcf-4347-9e03-8203adfc1fc5.jpg\"]","trial_type":"similarity","trial_index":78,"time_elapsed":704628,"internal_node_id":"0.0-6.0-72.0"},{"sim_score":4,"rt":2049,"stimulus":"[\"img/0875/34132396-d896-4c2d-8087-646dd867e769.jpg\",\"img/0899/b45c550b-96c3-4255-ad59-48a2b4db1c1e.jpg\"]","trial_type":"similarity","trial_index":79,"time_elapsed":707724,"internal_node_id":"0.0-6.0-73.0"},{"sim_score":4,"rt":1485,"stimulus":"[\"img/0899/fd9efb43-701f-4cd6-baaa-4c38315f4bdc.jpg\",\"img/0758/3ddd05d3-557e-4ee7-8b78-9d2d681d8ae2.jpg\"]","trial_type":"similarity","trial_index":80,"time_elapsed":710268,"internal_node_id":"0.0-6.0-74.0"},{"sim_score":5,"rt":4681,"stimulus":"[\"img/0862/e0f1a4e9-e1b6-45f7-af67-89f334e6630d.jpg\",\"img/0875/03c3c331-738b-4446-af92-3d7386b08c2e.jpg\"]","trial_type":"similarity","trial_index":81,"time_elapsed":719287,"internal_node_id":"0.0-6.0-75.0"},{"sim_score":5,"rt":4301,"stimulus":"[\"img/0901/4d1bed7e-3c4e-4f6c-ada9-4beb66ba9e39.jpg\",\"img/0894/5f15154e-e72e-4ce5-aafb-bce6f0564006.jpg\"]","trial_type":"similarity","trial_index":82,"time_elapsed":724661,"internal_node_id":"0.0-6.0-76.0"},{"sim_score":4,"rt":2234,"stimulus":"[\"img/0766/b84598d0-5b41-4841-88b0-b441b48289f5.jpg\",\"img/0758/a085b443-b5d7-4cb2-9ad4-b9dab0fc23f1.jpg\"]","trial_type":"similarity","trial_index":83,"time_elapsed":727940,"internal_node_id":"0.0-6.0-77.0"},{"sim_score":5,"rt":4932,"stimulus":"[\"img/0894/e6385e52-6c35-43bd-b0af-bc803d107b11.jpg\",\"img/0764/8740679b-b56f-4292-aece-14063457113a.jpg\"]","trial_type":"similarity","trial_index":84,"time_elapsed":733909,"internal_node_id":"0.0-6.0-78.0"},{"sim_score":6,"rt":3658,"stimulus":"[\"img/0860/4f695df5-afac-4da7-9875-fee39b0b24ad.jpg\",\"img/0867/de92135f-5b65-4ed9-b245-188292c7c2f8.jpg\"]","trial_type":"similarity","trial_index":85,"time_elapsed":738604,"internal_node_id":"0.0-6.0-79.0"},{"sim_score":6,"rt":5165,"stimulus":"[\"img/0898/04e39a7a-fcf6-4156-ab0e-f5871f335e1c.jpg\",\"img/0901/d61f267a-c492-4db6-9bfb-61efd49cf072.jpg\"]","trial_type":"similarity","trial_index":86,"time_elapsed":744821,"internal_node_id":"0.0-6.0-80.0"},{"sim_score":4,"rt":3849,"stimulus":"[\"img/0874/31e22c7c-99aa-40b1-bf03-dd73fa2df4d6.jpg\",\"img/0764/56441045-b648-4ede-9632-3e9c0227080b.jpg\"]","trial_type":"similarity","trial_index":87,"time_elapsed":749732,"internal_node_id":"0.0-6.0-81.0"},{"sim_score":4,"rt":2012,"stimulus":"[\"img/0899/76ad07e2-ca25-45eb-84f2-8d80b8ca3e26.jpg\",\"img/0862/53a9cf7c-93c4-41b9-952f-07d17f7a17b2.jpg\"]","trial_type":"similarity","trial_index":88,"time_elapsed":752782,"internal_node_id":"0.0-6.0-82.0"},{"sim_score":5,"rt":3589,"stimulus":"[\"img/0766/27f54113-8561-4568-9ffe-0a1650ae65ec.jpg\",\"img/0901/548d1110-7cb8-42a2-9927-9798875c8b5c.jpg\"]","trial_type":"similarity","trial_index":89,"time_elapsed":757421,"internal_node_id":"0.0-6.0-83.0"},{"sim_score":4,"rt":3228,"stimulus":"[\"img/0881/f4e3e181-b3c9-4af2-a5a4-fc135ab70d2e.jpg\",\"img/0898/6cd3830b-d44e-4915-be2b-88d31424b91c.jpg\"]","trial_type":"similarity","trial_index":90,"time_elapsed":761701,"internal_node_id":"0.0-6.0-84.0"},{"sim_score":6,"rt":2729,"stimulus":"[\"img/0868/7b212364-ff5f-4e28-9241-7eb6ea00161b.jpg\",\"img/0860/29a21a9f-54bb-4093-ad3f-04823ceaa89f.jpg\"]","trial_type":"similarity","trial_index":91,"time_elapsed":765484,"internal_node_id":"0.0-6.0-85.0"},{"sim_score":6,"rt":3482,"stimulus":"[\"img/0758/67c0be2f-9e91-48b3-8219-70ac0a1802fa.jpg\",\"img/0868/15dd6fd7-791e-4b53-b203-195d617521a4.jpg\"]","trial_type":"similarity","trial_index":92,"time_elapsed":770014,"internal_node_id":"0.0-6.0-86.0"},{"sim_score":4,"rt":1532,"stimulus":"[\"img/0864/efcfbb1b-8197-44c9-b723-40d6c608dd3c.jpg\",\"img/0894/5c7677b0-a4f1-479e-b274-7822c415175a.jpg\"]","trial_type":"similarity","trial_index":93,"time_elapsed":772597,"internal_node_id":"0.0-6.0-87.0"},{"sim_score":5,"rt":6228,"stimulus":"[\"img/0866/9b38d691-1802-4959-ab3f-fc902f0e4ea6.jpg\",\"img/0902/af40b98b-3d23-4d95-b401-49ba5783ce39.jpg\"]","trial_type":"similarity","trial_index":94,"time_elapsed":779869,"internal_node_id":"0.0-6.0-88.0"},{"sim_score":4,"rt":3714,"stimulus":"[\"img/0769/1d8734c4-77ab-4165-9e71-5cfe672ff01c.jpg\",\"img/0867/c66898ba-b71b-4d50-84f9-f7f84853a98d.jpg\"]","trial_type":"similarity","trial_index":95,"time_elapsed":784629,"internal_node_id":"0.0-6.0-89.0"},{"sim_score":6,"rt":4434,"stimulus":"[\"img/0874/995f0332-0439-4eb4-add3-957335dbf6d9.jpg\",\"img/0875/8521fd58-3b1e-4dc5-97ae-804edfa6734a.jpg\"]","trial_type":"similarity","trial_index":96,"time_elapsed":790125,"internal_node_id":"0.0-6.0-90.0"},{"sim_score":6,"rt":4974,"stimulus":"[\"img/0864/9b2490c5-a282-400a-9736-e1a0ecbf1cb7.jpg\",\"img/0874/adf9a8f1-c40b-402b-b95b-1e85a54a7b62.jpg\"]","trial_type":"similarity","trial_index":97,"time_elapsed":796151,"internal_node_id":"0.0-6.0-91.0"},{"sim_score":6,"rt":3575,"stimulus":"[\"img/0881/f8bd891e-aa09-4782-89db-33e7cb2b0cf1.jpg\",\"img/0862/e8cc3bdf-cc43-4565-bccf-492626c70953.jpg\"]","trial_type":"similarity","trial_index":98,"time_elapsed":800789,"internal_node_id":"0.0-6.0-92.0"},{"sim_score":6,"rt":3139,"stimulus":"[\"img/0864/8ddd2e30-a1d0-479f-9cbe-591213023893.jpg\",\"img/0881/b1a136f7-8511-4d3a-a0f6-3879acf1e1a1.jpg\"]","trial_type":"similarity","trial_index":99,"time_elapsed":804974,"internal_node_id":"0.0-6.0-93.0"},{"sim_score":5,"rt":3931,"stimulus":"[\"img/0899/f95cbdb4-f804-4f5d-ad76-373ad343e658.jpg\",\"img/0901/b9141736-3041-4385-a586-b1fe911c76a5.jpg\"]","trial_type":"similarity","trial_index":100,"time_elapsed":809942,"internal_node_id":"0.0-6.0-94.0"},{"sim_score":4,"rt":2651,"stimulus":"[\"img/0874/2c9464dd-8a23-4baa-ac94-1ba3af5c15cc.jpg\",\"img/0766/e8052e17-9dae-4139-802b-6e590cb2d526.jpg\"]","trial_type":"similarity","trial_index":101,"time_elapsed":813647,"internal_node_id":"0.0-6.0-95.0"},{"sim_score":4,"rt":2005,"stimulus":"[\"img/0881/4da99fdd-1f40-4bbb-8e21-8833eef313f5.jpg\",\"img/0899/06b0fc99-0581-461a-9913-d1a5a941ac61.jpg\"]","trial_type":"similarity","trial_index":102,"time_elapsed":816701,"internal_node_id":"0.0-6.0-96.0"},{"sim_score":4,"rt":2177,"stimulus":"[\"img/0862/5d887e9f-89e2-4ebc-80a0-6d46fe6480db.jpg\",\"img/0902/fbef27fa-ac83-4936-ab78-9d1c20a383e1.jpg\"]","trial_type":"similarity","trial_index":103,"time_elapsed":819958,"internal_node_id":"0.0-6.0-97.0"},{"sim_score":5,"rt":4502,"stimulus":"[\"img/0899/1b3457ea-87d4-4946-a01c-aac1863ed46c.jpg\",\"img/0764/bc3865c9-9004-4582-88a7-048478673f97.jpg\"]","trial_type":"similarity","trial_index":104,"time_elapsed":825503,"internal_node_id":"0.0-6.0-98.0"},{"sim_score":6,"rt":2984,"stimulus":"[\"img/0758/d41c06bf-ebaf-454b-91c6-1a17f917b659.jpg\",\"img/0862/847e5208-38ec-4f36-949c-296cdd7424ee.jpg\"]","trial_type":"similarity","trial_index":105,"time_elapsed":829543,"internal_node_id":"0.0-6.0-99.0"},{"sim_score":5,"rt":4182,"stimulus":"[\"img/0764/8389e74f-e0e0-435d-945f-da1f4c92ccb6.jpg\",\"img/0898/08c72dac-f8ad-407a-9ce6-8c9a5d679c3a.jpg\"]","trial_type":"similarity","trial_index":106,"time_elapsed":834782,"internal_node_id":"0.0-6.0-100.0"},{"sim_score":5,"rt":3293,"stimulus":"[\"img/0901/deff6cfb-0072-4490-bc3e-206bbcd3e8bf.jpg\",\"img/0902/1f4a4c62-68c1-4993-b213-05652a173ed1.jpg\"]","trial_type":"similarity","trial_index":107,"time_elapsed":839119,"internal_node_id":"0.0-6.0-101.0"},{"sim_score":4,"rt":1889,"stimulus":"[\"img/0764/e30dba15-e68a-4659-89db-e1654b52fe02.jpg\",\"img/0868/09a9ef4d-d000-4cfa-a6aa-ebec7c2edeb4.jpg\"]","trial_type":"similarity","trial_index":108,"time_elapsed":842063,"internal_node_id":"0.0-6.0-102.0"},{"sim_score":4,"rt":4482,"stimulus":"[\"img/0769/1afb527f-9887-428c-bd26-a12c2f9efb68.jpg\",\"img/0881/d1982897-8d8d-4704-a940-1ee5d07a1f15.jpg\"]","trial_type":"similarity","trial_index":109,"time_elapsed":847600,"internal_node_id":"0.0-6.0-103.0"},{"sim_score":4,"rt":3590,"stimulus":"[\"img/0864/e02eddb5-f468-499c-91bf-f7be3ffe979b.jpg\",\"img/0769/022c7e3b-c3f2-4119-b4bc-f22fa7cae18c.jpg\"]","trial_type":"similarity","trial_index":110,"time_elapsed":852239,"internal_node_id":"0.0-6.0-104.0"},{"sim_score":5,"rt":5472,"stimulus":"[\"img/0866/c446214b-a368-4c65-ae39-ea46894256ab.jpg\",\"img/0868/fd307a36-9a3a-47d7-ab7c-f810d0b35040.jpg\"]","trial_type":"similarity","trial_index":111,"time_elapsed":858760,"internal_node_id":"0.0-6.0-105.0"},{"sim_score":6,"rt":4559,"stimulus":"[\"img/0868/83b4350a-3b70-4cea-b7f5-b5b56f3050a8.jpg\",\"img/0862/99a99e39-8355-44ec-b993-e7bcec111e1c.jpg\"]","trial_type":"similarity","trial_index":112,"time_elapsed":864366,"internal_node_id":"0.0-6.0-106.0"},{"sim_score":5,"rt":6339,"stimulus":"[\"img/0766/dd3e18d0-0c98-4d05-b850-69976ee8cd75.jpg\",\"img/0898/661621d4-a14e-487c-8c74-354134a29710.jpg\"]","trial_type":"similarity","trial_index":113,"time_elapsed":871744,"internal_node_id":"0.0-6.0-107.0"},{"sim_score":4,"rt":2272,"stimulus":"[\"img/0898/cd3aaa3f-efa9-4ab3-8d6f-a6a9273ddf42.jpg\",\"img/0864/0f537697-a314-47c3-a8cc-8df23b7e536c.jpg\"]","trial_type":"similarity","trial_index":114,"time_elapsed":875064,"internal_node_id":"0.0-6.0-108.0"},{"sim_score":4,"rt":1725,"stimulus":"[\"img/0868/4bd5105a-d2c3-4f82-8c80-57196106ba53.jpg\",\"img/0902/44cd9b7e-fdfb-4f78-90de-8d4c9d279365.jpg\"]","trial_type":"similarity","trial_index":115,"time_elapsed":877823,"internal_node_id":"0.0-6.0-109.0"},{"sim_score":5,"rt":4611,"stimulus":"[\"img/0904/25365108-e038-4021-aac9-797f2063b337.jpg\",\"img/0764/c0b03adb-bd0a-4b96-a915-a827c2fd5211.jpg\"]","trial_type":"similarity","trial_index":116,"time_elapsed":883480,"internal_node_id":"0.0-6.0-110.0"},{"sim_score":4,"rt":3663,"stimulus":"[\"img/0894/38f5931f-926d-414e-b498-66b188978b7a.jpg\",\"img/0875/42910c99-5463-450a-a0f8-d4d060a11455.jpg\"]","trial_type":"similarity","trial_index":117,"time_elapsed":888193,"internal_node_id":"0.0-6.0-111.0"},{"sim_score":6,"rt":4057,"stimulus":"[\"img/0868/d98ca254-b195-477f-b57e-5760a2717db8.jpg\",\"img/0874/a82926a3-0b43-4add-803c-d5f9ea7798ee.jpg\"]","trial_type":"similarity","trial_index":118,"time_elapsed":893296,"internal_node_id":"0.0-6.0-112.0"},{"sim_score":6,"rt":4849,"stimulus":"[\"img/0904/2c98dc56-88d1-4fb5-a999-b6a7861f65f0.jpg\",\"img/0898/8605a25b-6895-476d-8c13-df7a83f96093.jpg\"]","trial_type":"similarity","trial_index":119,"time_elapsed":901148,"internal_node_id":"0.0-6.0-113.0"},{"sim_score":4,"rt":2156,"stimulus":"[\"img/0860/e8b8c51e-1834-4875-8b61-6c5bc9b178bd.jpg\",\"img/0766/af3be95e-e52e-4fae-899b-0ff02ec340aa.jpg\"]","trial_type":"similarity","trial_index":120,"time_elapsed":904367,"internal_node_id":"0.0-6.0-114.0"},{"sim_score":4,"rt":2804,"stimulus":"[\"img/0894/e5edf723-72a5-4673-8441-6c1734a8929b.jpg\",\"img/0874/99f6563c-8a8d-4c1c-a41d-667b618c3fd5.jpg\"]","trial_type":"similarity","trial_index":121,"time_elapsed":908209,"internal_node_id":"0.0-6.0-115.0"},{"sim_score":5,"rt":4046,"stimulus":"[\"img/0899/7f9d45d0-b2c6-40d3-aa41-c207db2c411b.jpg\",\"img/0903/2a9c8033-3e70-47fa-816d-97ee1813a3a3.jpg\"]","trial_type":"similarity","trial_index":122,"time_elapsed":913312,"internal_node_id":"0.0-6.0-116.0"},{"sim_score":4,"rt":2848,"stimulus":"[\"img/0881/14236cf2-6b95-48b8-9368-78af09d2d27f.jpg\",\"img/0764/d0bef2e0-e16b-4c82-9451-c1d16265eb67.jpg\"]","trial_type":"similarity","trial_index":123,"time_elapsed":917200,"internal_node_id":"0.0-6.0-117.0"},{"sim_score":5,"rt":4344,"stimulus":"[\"img/0903/6378ee1e-3d2b-48d2-87be-bebda32c8268.jpg\",\"img/0769/50985283-d353-4abc-9abe-14a91d56ebe6.jpg\"]","trial_type":"similarity","trial_index":124,"time_elapsed":922600,"internal_node_id":"0.0-6.0-118.0"},{"sim_score":5,"rt":3639,"stimulus":"[\"img/0901/12da1841-e611-435c-9719-109413d536a8.jpg\",\"img/0904/73920552-103b-4c9c-9ece-e0b8376b4504.jpg\"]","trial_type":"similarity","trial_index":125,"time_elapsed":927297,"internal_node_id":"0.0-6.0-119.0"},{"sim_score":5,"rt":3972,"stimulus":"[\"img/0860/31ff6436-98bf-4652-bed2-40f627229568.jpg\",\"img/0881/dea58fad-b4f1-41d9-bd3f-916eff19a3fd.jpg\"]","trial_type":"similarity","trial_index":126,"time_elapsed":932312,"internal_node_id":"0.0-6.0-120.0"},{"sim_score":7,"rt":4399,"stimulus":"[\"img/0758/e38fd80d-18d0-42f3-b848-f930788e8bd7.jpg\",\"img/0874/85eb9b8a-c4c6-4e5a-b8e7-363a87a82054.jpg\"]","trial_type":"similarity","trial_index":127,"time_elapsed":937752,"internal_node_id":"0.0-6.0-121.0"},{"sim_score":6,"rt":5819,"stimulus":"[\"img/0901/875dedb9-24c9-4443-9f8c-85e97d70ee5a.jpg\",\"img/0769/47700831-0ca2-4fdd-a498-a3bc5a528f43.jpg\"]","trial_type":"similarity","trial_index":128,"time_elapsed":944617,"internal_node_id":"0.0-6.0-122.0"},{"sim_score":5,"rt":4769,"stimulus":"[\"img/0902/94198618-7047-4dc9-ad04-85f4ba913067.jpg\",\"img/0904/e9423a8c-f946-43ad-ab7b-931acef870e2.jpg\"]","trial_type":"similarity","trial_index":129,"time_elapsed":950434,"internal_node_id":"0.0-6.0-123.0"},{"sim_score":4,"rt":1763,"stimulus":"[\"img/0899/66bf4113-ee12-426c-84d2-ea410b6c803e.jpg\",\"img/0864/5f33e097-23e3-4002-882d-76e8cb15f451.jpg\"]","trial_type":"similarity","trial_index":130,"time_elapsed":953250,"internal_node_id":"0.0-6.0-124.0"},{"sim_score":4,"rt":1245,"stimulus":"[\"img/0766/6d32752d-aa05-40dc-9541-640b6e9d6fa1.jpg\",\"img/0868/293079b8-7e0c-4afd-a390-1e5d35fe3ded.jpg\"]","trial_type":"similarity","trial_index":131,"time_elapsed":955577,"internal_node_id":"0.0-6.0-125.0"},{"sim_score":4,"rt":1258,"stimulus":"[\"img/0764/3297a811-ea8b-4d74-9547-59cecab7293a.jpg\",\"img/0864/1ebbc554-99fa-49f9-8799-317375a79820.jpg\"]","trial_type":"similarity","trial_index":132,"time_elapsed":957890,"internal_node_id":"0.0-6.0-126.0"},{"sim_score":4,"rt":1368,"stimulus":"[\"img/0899/a05bea16-2bb4-4cb9-b8fb-4ff975db6971.jpg\",\"img/0866/11a1d141-be5e-443c-98c1-a9d4d9e3dec0.jpg\"]","trial_type":"similarity","trial_index":133,"time_elapsed":960305,"internal_node_id":"0.0-6.0-127.0"},{"sim_score":4,"rt":1748,"stimulus":"[\"img/0901/6e2957f8-f5ab-46f4-87cc-bb50155a098b.jpg\",\"img/0881/62a64f90-7a72-4aee-a1a1-0c548ac9bdda.jpg\"]","trial_type":"similarity","trial_index":134,"time_elapsed":963107,"internal_node_id":"0.0-6.0-128.0"},{"sim_score":6,"rt":4598,"stimulus":"[\"img/0898/c3cecf20-f7fd-45fa-97d0-dc0a63e8d6c0.jpg\",\"img/0903/647ce311-8c71-479a-8361-961db1457139.jpg\"]","trial_type":"similarity","trial_index":135,"time_elapsed":968753,"internal_node_id":"0.0-6.0-129.0"},{"sim_score":4,"rt":1533,"stimulus":"[\"img/0894/7dd6ff43-f8fc-408a-8a41-a2b261871820.jpg\",\"img/0867/bf560d4f-dee3-4f11-a385-705cc1aa5f3c.jpg\"]","trial_type":"similarity","trial_index":136,"time_elapsed":971345,"internal_node_id":"0.0-6.0-130.0"},{"sim_score":4,"rt":1277,"stimulus":"[\"img/0874/3ce41e7c-40c8-4d58-a546-171114521796.jpg\",\"img/0903/ea75f240-fb62-4edb-a709-83e858b202c0.jpg\"]","trial_type":"similarity","trial_index":137,"time_elapsed":973665,"internal_node_id":"0.0-6.0-131.0"},{"sim_score":6,"rt":4209,"stimulus":"[\"img/0899/5b56dd3e-3f49-47cc-af84-16da6457753b.jpg\",\"img/0898/5f699581-3853-4547-856c-12f419ba5af7.jpg\"]","trial_type":"similarity","trial_index":138,"time_elapsed":978922,"internal_node_id":"0.0-6.0-132.0"},{"sim_score":4,"rt":1876,"stimulus":"[\"img/0867/a498eef3-9fa4-4ab2-9778-4ae82ac40dc5.jpg\",\"img/0764/f9f890e6-3c2f-40cd-84e9-85e0b54cb28e.jpg\"]","trial_type":"similarity","trial_index":139,"time_elapsed":981834,"internal_node_id":"0.0-6.0-133.0"},{"sim_score":4,"rt":2358,"stimulus":"[\"img/0866/d493a2c8-66eb-44b4-be02-2f327b700b7c.jpg\",\"img/0769/91acb237-65a3-4d0b-9748-af5c7b83d3c7.jpg\"]","trial_type":"similarity","trial_index":140,"time_elapsed":985233,"internal_node_id":"0.0-6.0-134.0"},{"sim_score":4,"rt":2876,"stimulus":"[\"img/0860/8a92e21b-6a32-4e4a-a445-2d5a487ed0a4.jpg\",\"img/0898/4184e5a2-84ea-4f36-9b42-ae58646f6f87.jpg\"]","trial_type":"similarity","trial_index":141,"time_elapsed":989155,"internal_node_id":"0.0-6.0-135.0"},{"sim_score":4,"rt":1794,"stimulus":"[\"img/0881/e6746727-7f89-47ec-b939-d98abe78372d.jpg\",\"img/0903/f67c4ab9-f8c2-4fcd-848a-a54a7b031002.jpg\"]","trial_type":"similarity","trial_index":142,"time_elapsed":992002,"internal_node_id":"0.0-6.0-136.0"},{"sim_score":5,"rt":4002,"stimulus":"[\"img/0894/2217bdcd-23a7-42d3-823b-23f2488d7e87.jpg\",\"img/0766/33aa9ebb-c9f5-418f-8c8b-c77861889568.jpg\"]","trial_type":"similarity","trial_index":143,"time_elapsed":997058,"internal_node_id":"0.0-6.0-137.0"},{"sim_score":4,"rt":2219,"stimulus":"[\"img/0860/c47fdead-eb02-4989-b078-26f4852f44fe.jpg\",\"img/0764/b887d7c6-aa81-4637-af8e-05135757ac59.jpg\"]","trial_type":"similarity","trial_index":144,"time_elapsed":1000386,"internal_node_id":"0.0-6.0-138.0"},{"sim_score":6,"rt":4709,"stimulus":"[\"img/0769/458d9c77-b844-40b5-bb1b-1e3bbd4da64e.jpg\",\"img/0902/71c03003-03ef-4b0f-8229-e0c857150a5d.jpg\"]","trial_type":"similarity","trial_index":145,"time_elapsed":1006139,"internal_node_id":"0.0-6.0-139.0"},{"sim_score":7,"rt":4973,"stimulus":"[\"img/0904/4e58005d-a2ec-4aaa-b199-445343561396.jpg\",\"img/0903/e2e55a9e-0397-4dc0-8adf-4a54cfefe1fe.jpg\"]","trial_type":"similarity","trial_index":146,"time_elapsed":1012170,"internal_node_id":"0.0-6.0-140.0"},{"sim_score":6,"rt":3928,"stimulus":"[\"img/0764/1f95ab5f-fb65-4d70-b5db-d6bd6351a8aa.jpg\",\"img/0769/c7cfacc3-7f07-46ff-9f5d-8073f4c4679b.jpg\"]","trial_type":"similarity","trial_index":147,"time_elapsed":1017155,"internal_node_id":"0.0-6.0-141.0"},{"sim_score":4,"rt":1984,"stimulus":"[\"img/0902/b76efc44-a50f-4dac-b997-ff0222376067.jpg\",\"img/0881/ed4c971f-0873-4fc8-b6d6-e8bbd82f0bcc.jpg\"]","trial_type":"similarity","trial_index":148,"time_elapsed":1020210,"internal_node_id":"0.0-6.0-142.0"},{"sim_score":6,"rt":3819,"stimulus":"[\"img/0866/a15b02be-11bb-43e3-b0e0-ecc3bd7dfc49.jpg\",\"img/0864/da39ad34-04e0-40d4-a724-c08d53e0ea09.jpg\"]","trial_type":"similarity","trial_index":149,"time_elapsed":1025075,"internal_node_id":"0.0-6.0-143.0"},{"sim_score":6,"rt":3219,"stimulus":"[\"img/0902/6730b12a-f0a7-4587-8c10-a32fae16565b.jpg\",\"img/0898/881e2a85-d5c2-49be-a0c6-8a6ce2c4af08.jpg\"]","trial_type":"similarity","trial_index":150,"time_elapsed":1029346,"internal_node_id":"0.0-6.0-144.0"},{"sim_score":5,"rt":5001,"stimulus":"[\"img/0862/7918ca67-5bd3-4606-a5ea-c39fb11a9297.jpg\",\"img/0864/f92649a2-0590-4d31-9a7a-1bfb81666a2d.jpg\"]","trial_type":"similarity","trial_index":151,"time_elapsed":1035395,"internal_node_id":"0.0-6.0-145.0"},{"sim_score":4,"rt":2180,"stimulus":"[\"img/0875/f87b67d7-c33e-40d1-b281-248c4be1cb6e.jpg\",\"img/0898/40f99fb2-64d2-4e72-8a7f-a1cf60741e69.jpg\"]","trial_type":"similarity","trial_index":152,"time_elapsed":1038636,"internal_node_id":"0.0-6.0-146.0"},{"sim_score":6,"rt":5029,"stimulus":"[\"img/0874/eba003b4-cdab-4eee-8bc3-f064c7d94165.jpg\",\"img/0881/6b1189e6-232d-4042-8885-16dc7b10e0d4.jpg\"]","trial_type":"similarity","trial_index":153,"time_elapsed":1044715,"internal_node_id":"0.0-6.0-147.0"},{"sim_score":4,"rt":1806,"stimulus":"[\"img/0758/9fb5b2fe-3f00-4fe6-973c-1ce10d5f4cd5.jpg\",\"img/0894/792c83e9-a747-4000-bc72-5663d2439edb.jpg\"]","trial_type":"similarity","trial_index":154,"time_elapsed":1047586,"internal_node_id":"0.0-6.0-148.0"},{"sim_score":4,"rt":1437,"stimulus":"[\"img/0904/09934646-45d2-4147-8fec-64a22a5ac822.jpg\",\"img/0864/4bd81bc6-c13d-46df-95a9-485886dc7c1b.jpg\"]","trial_type":"similarity","trial_index":155,"time_elapsed":1050075,"internal_node_id":"0.0-6.0-149.0"},{"sim_score":6,"rt":4653,"stimulus":"[\"img/0769/3adfa417-3b90-4aab-b437-5eaa474189cb.jpg\",\"img/0899/8abe6c69-822c-436c-9bf2-96c818b49ba5.jpg\"]","trial_type":"similarity","trial_index":156,"time_elapsed":1055772,"internal_node_id":"0.0-6.0-150.0"},{"sim_score":5,"rt":3595,"stimulus":"[\"img/0764/50f1b062-d608-4bc0-ab25-b872dcf2ed93.jpg\",\"img/0903/8931c67c-a43d-47d3-a4c9-42aa2f81d344.jpg\"]","trial_type":"similarity","trial_index":157,"time_elapsed":1062495,"internal_node_id":"0.0-6.0-151.0"},{"sim_score":4,"rt":1822,"stimulus":"[\"img/0903/f1fa0f8d-e62b-4b4a-a174-31a0fabfe61b.jpg\",\"img/0864/3651d070-2fc5-4848-b6a6-088a2d9ac5c9.jpg\"]","trial_type":"similarity","trial_index":158,"time_elapsed":1065355,"internal_node_id":"0.0-6.0-152.0"},{"sim_score":4,"rt":1539,"stimulus":"[\"img/0894/c505c65a-cde2-4f2c-8cde-f8676f7c894d.jpg\",\"img/0881/f6bd3b96-dc40-4e99-8681-bc3a35cf896d.jpg\"]","trial_type":"similarity","trial_index":159,"time_elapsed":1067940,"internal_node_id":"0.0-6.0-153.0"},{"sim_score":6,"rt":2918,"stimulus":"[\"img/0875/5a7c4e35-6514-4e12-8879-d16071da4cd6.jpg\",\"img/0867/50a1b60e-3a29-44bf-b606-d4bd3746fea9.jpg\"]","trial_type":"similarity","trial_index":160,"time_elapsed":1071908,"internal_node_id":"0.0-6.0-154.0"},{"sim_score":6,"rt":3953,"stimulus":"[\"img/0867/26611f4e-d694-4460-b7e2-43c62753ddc3.jpg\",\"img/0758/eabcd7a8-56ad-4fd2-bc24-90f6b7b33265.jpg\"]","trial_type":"similarity","trial_index":161,"time_elapsed":1076907,"internal_node_id":"0.0-6.0-155.0"},{"sim_score":4,"rt":3418,"stimulus":"[\"img/0868/c8ac40c7-6904-4e13-8d61-c75d3052dc4e.jpg\",\"img/0901/8bb79e82-9c43-4b6f-a655-40655519598b.jpg\"]","trial_type":"similarity","trial_index":162,"time_elapsed":1081371,"internal_node_id":"0.0-6.0-156.0"},{"sim_score":6,"rt":7718,"stimulus":"[\"img/0769/aad494cc-674d-4a08-9bfa-24a88ebe3c79.jpg\",\"img/0894/8cadb87a-7001-4e47-99fb-1867bebf1668.jpg\"]","trial_type":"similarity","trial_index":163,"time_elapsed":1090132,"internal_node_id":"0.0-6.0-157.0"},{"sim_score":4,"rt":97354,"stimulus":"[\"img/0904/63dd06dd-dccb-47ba-9740-eb33239e18a7.jpg\",\"img/0758/20497cbe-ddae-489e-86e2-ab06985ed07c.jpg\"]","trial_type":"similarity","trial_index":164,"time_elapsed":1188547,"internal_node_id":"0.0-6.0-158.0"},{"sim_score":4,"rt":2385,"stimulus":"[\"img/0874/c0378dac-9370-439a-8b79-db27c96fb390.jpg\",\"img/0904/6291eb43-c10c-4810-a36a-101d09868b04.jpg\"]","trial_type":"similarity","trial_index":165,"time_elapsed":1191977,"internal_node_id":"0.0-6.0-159.0"},{"sim_score":4,"rt":1764,"stimulus":"[\"img/0864/1d15626a-2f7c-410f-819c-0fa2c967e95e.jpg\",\"img/0901/a6776381-91fe-43f8-ab73-261d318f95fd.jpg\"]","trial_type":"similarity","trial_index":166,"time_elapsed":1194794,"internal_node_id":"0.0-6.0-160.0"},{"sim_score":4,"rt":1654,"stimulus":"[\"img/0898/82231d4c-218b-4d0a-b50d-35a49b524e97.jpg\",\"img/0866/f756f7d1-9ad8-4a34-9ef6-7a443d705bfe.jpg\"]","trial_type":"similarity","trial_index":167,"time_elapsed":1197506,"internal_node_id":"0.0-6.0-161.0"},{"sim_score":5,"rt":4728,"stimulus":"[\"img/0766/db750ba0-ce04-46e1-b601-e1b80212bad2.jpg\",\"img/0903/31b5a5f4-b695-4af1-bad2-a19650a05498.jpg\"]","trial_type":"similarity","trial_index":168,"time_elapsed":1203291,"internal_node_id":"0.0-6.0-162.0"},{"sim_score":4,"rt":2040,"stimulus":"[\"img/0860/4c530c3c-6aab-492a-94d1-9c01797bde40.jpg\",\"img/0899/fef567a2-c121-4481-9af0-ff108d199bbf.jpg\"]","trial_type":"similarity","trial_index":169,"time_elapsed":1206387,"internal_node_id":"0.0-6.0-163.0"},{"sim_score":4,"rt":2393,"stimulus":"[\"img/0766/fd74fdbb-ea40-4f3a-a091-38d08dfd636e.jpg\",\"img/0862/1c20f772-3a51-4a80-aac0-f57dc9f86c28.jpg\"]","trial_type":"similarity","trial_index":170,"time_elapsed":1209826,"internal_node_id":"0.0-6.0-164.0"},{"sim_score":5,"rt":4972,"stimulus":"[\"img/0898/0af304a2-6a7a-4082-ab7c-4450cd08cc58.jpg\",\"img/0894/492d2f29-d7b9-4422-8be8-47fd58bfaa8b.jpg\"]","trial_type":"similarity","trial_index":171,"time_elapsed":1215843,"internal_node_id":"0.0-6.0-165.0"},{"sim_score":4,"rt":2898,"stimulus":"[\"img/0867/6e19c858-b606-45b2-a4c6-910a73f1d82c.jpg\",\"img/0766/0bf3793e-c353-45e5-ac6f-753f5f484e10.jpg\"]","trial_type":"similarity","trial_index":172,"time_elapsed":1219779,"internal_node_id":"0.0-6.0-166.0"},{"sim_score":4,"rt":1695,"stimulus":"[\"img/0904/06dacdc5-2206-4fb8-92b7-88042d22833c.jpg\",\"img/0862/f23038d4-c366-4f70-979f-66b62362efa4.jpg\"]","trial_type":"similarity","trial_index":173,"time_elapsed":1222524,"internal_node_id":"0.0-6.0-167.0"},{"sim_score":6,"rt":3599,"stimulus":"[\"img/0866/d266fece-59b3-46fa-b69f-96f6efb81b59.jpg\",\"img/0874/7e4f2150-3b59-4a36-b5da-a4e0ba410531.jpg\"]","trial_type":"similarity","trial_index":174,"time_elapsed":1227188,"internal_node_id":"0.0-6.0-168.0"},{"sim_score":4,"rt":1691,"stimulus":"[\"img/0903/24477210-856c-4550-9de0-9f85a32762eb.jpg\",\"img/0868/e0aff734-077f-40dd-9781-74821abd3621.jpg\"]","trial_type":"similarity","trial_index":175,"time_elapsed":1229930,"internal_node_id":"0.0-6.0-169.0"},{"sim_score":6,"rt":4136,"stimulus":"[\"img/0769/a1ce8d07-ba37-40de-bade-2778805521e0.jpg\",\"img/0904/96e503ea-6630-4996-85f2-0237688ce441.jpg\"]","trial_type":"similarity","trial_index":176,"time_elapsed":1235117,"internal_node_id":"0.0-6.0-170.0"},{"sim_score":4,"rt":2088,"stimulus":"[\"img/0875/3ecb367d-e9eb-4826-8aaa-7aa72fb98019.jpg\",\"img/0764/b328441c-f81c-486c-9eae-b947c70ba7cd.jpg\"]","trial_type":"similarity","trial_index":177,"time_elapsed":1238252,"internal_node_id":"0.0-6.0-171.0"},{"sim_score":4,"rt":2235,"stimulus":"[\"img/0860/fd4662f9-4c03-4d79-8593-06735e55a64b.jpg\",\"img/0903/43ffd882-077a-40dd-a264-e58d519420a1.jpg\"]","trial_type":"similarity","trial_index":178,"time_elapsed":1241531,"internal_node_id":"0.0-6.0-172.0"},{"sim_score":6,"rt":3628,"stimulus":"[\"img/0864/5f74a653-3bdc-4308-8cca-ac667dc22e1f.jpg\",\"img/0867/cc72ed48-7704-422c-86d6-467a1145287a.jpg\"]","trial_type":"similarity","trial_index":179,"time_elapsed":1246235,"internal_node_id":"0.0-6.0-173.0"},{"sim_score":6,"rt":3256,"stimulus":"[\"img/0868/4e626425-63c8-484a-8a1d-e66ee4e0bef8.jpg\",\"img/0864/e8bd659f-aa43-4748-877e-3118e8b4e189.jpg\"]","trial_type":"similarity","trial_index":180,"time_elapsed":1250547,"internal_node_id":"0.0-6.0-174.0"},{"sim_score":5,"rt":4571,"stimulus":"[\"img/0898/01bfe666-3510-4fc7-964f-d00d28732dc8.jpg\",\"img/0769/ebef2ddc-ba59-4e0e-97f8-927864eb5081.jpg\"]","trial_type":"similarity","trial_index":181,"time_elapsed":1256171,"internal_node_id":"0.0-6.0-175.0"},{"sim_score":6,"rt":5130,"stimulus":"[\"img/0766/2746b119-4bba-463e-acf0-88136dc6600c.jpg\",\"img/0764/713cc27e-2338-4486-bfe9-5f5725fbd7a0.jpg\"]","trial_type":"similarity","trial_index":182,"time_elapsed":1262348,"internal_node_id":"0.0-6.0-176.0"},{"sim_score":4,"rt":2007,"stimulus":"[\"img/0764/c84fbfa8-521c-407a-9bd3-24f7308d896c.jpg\",\"img/0866/07c9c966-3c8d-40e7-8128-92b2acbaed5d.jpg\"]","trial_type":"similarity","trial_index":183,"time_elapsed":1265411,"internal_node_id":"0.0-6.0-177.0"},{"sim_score":4,"rt":2189,"stimulus":"[\"img/0902/4e0baa32-988e-46f6-989d-f669225ab645.jpg\",\"img/0875/2c361b79-c3d1-4eda-812e-bf03192407bf.jpg\"]","trial_type":"similarity","trial_index":184,"time_elapsed":1268651,"internal_node_id":"0.0-6.0-178.0"},{"sim_score":4,"rt":1853,"stimulus":"[\"img/0881/ee44e27f-d662-4608-b265-e7ffa19b216f.jpg\",\"img/0904/9d30eff1-46ef-4453-b11e-124ef8145c00.jpg\"]","trial_type":"similarity","trial_index":185,"time_elapsed":1271547,"internal_node_id":"0.0-6.0-179.0"},{"sim_score":6,"rt":3170,"stimulus":"[\"img/0874/8cdb1c07-1c32-46d2-981c-3636560fa6e5.jpg\",\"img/0860/f44ba3fb-03a2-42f0-8509-2c1ded493086.jpg\"]","trial_type":"similarity","trial_index":186,"time_elapsed":1275763,"internal_node_id":"0.0-6.0-180.0"},{"sim_score":4,"rt":2308,"stimulus":"[\"img/0769/bb8c4e53-6f32-4814-97ee-392d4decfb2e.jpg\",\"img/0874/1016b306-087c-4afc-aa08-fa527b28dc76.jpg\"]","trial_type":"similarity","trial_index":187,"time_elapsed":1279124,"internal_node_id":"0.0-6.0-181.0"},{"sim_score":6,"rt":4643,"stimulus":"[\"img/0904/b5855d6a-7ef9-46ca-9215-6e9fa046e543.jpg\",\"img/0766/69e486f7-dbef-456b-9d48-53d814248a28.jpg\"]","trial_type":"similarity","trial_index":188,"time_elapsed":1284828,"internal_node_id":"0.0-6.0-182.0"},{"sim_score":6,"rt":3738,"stimulus":"[\"img/0902/418b716e-63e5-4c77-93e9-95b1f5a3ddf0.jpg\",\"img/0764/06ea144f-f4f3-4a14-ba47-f20f35c561e0.jpg\"]","trial_type":"similarity","trial_index":189,"time_elapsed":1289620,"internal_node_id":"0.0-6.0-183.0"},{"sim_score":4,"rt":1584,"stimulus":"[\"img/0769/4680bcc3-8fbc-4643-8f9a-12aa0e780b64.jpg\",\"img/0875/99698b4d-b4a1-44bc-8c83-8ea755bbbf61.jpg\"]","trial_type":"similarity","trial_index":190,"time_elapsed":1292252,"internal_node_id":"0.0-6.0-184.0"},{"sim_score":4,"rt":1400,"stimulus":"[\"img/0867/12264664-1860-46df-8c21-162b9817cdda.jpg\",\"img/0903/2c7b4aed-6038-4aac-958a-e3e58341c313.jpg\"]","trial_type":"similarity","trial_index":191,"time_elapsed":1294700,"internal_node_id":"0.0-6.0-185.0"},{"sim_score":4,"rt":1956,"stimulus":"[\"img/0862/ad593cc7-cabe-4bb7-8e14-8a447a0717b4.jpg\",\"img/0769/db94b61b-a5a7-4861-9d32-7b02ad194fb0.jpg\"]","trial_type":"similarity","trial_index":192,"time_elapsed":1297716,"internal_node_id":"0.0-6.0-186.0"},{"sim_score":4,"rt":1415,"stimulus":"[\"img/0766/0b48f9e0-7d37-4161-8adb-4e3f5b6b7583.jpg\",\"img/0866/a04d37f0-99dd-478a-b6c6-58b215138f84.jpg\"]","trial_type":"similarity","trial_index":193,"time_elapsed":1300188,"internal_node_id":"0.0-6.0-187.0"},{"sim_score":4,"rt":1782,"stimulus":"[\"img/0769/180213e5-1e50-4b4e-87b6-add77ba04d39.jpg\",\"img/0860/18dfed73-e36b-4487-a8bd-0b8cff8e3668.jpg\"]","trial_type":"similarity","trial_index":194,"time_elapsed":1303028,"internal_node_id":"0.0-6.0-188.0"},{"sim_score":6,"rt":2951,"stimulus":"[\"img/0881/f62bdcd1-a4b7-4d48-83da-d9c9e01c8727.jpg\",\"img/0868/77091fc7-a590-4ebb-b915-fdb2483a2399.jpg\"]","trial_type":"similarity","trial_index":195,"time_elapsed":1309610,"internal_node_id":"0.0-6.0-189.0"},{"view_history":"[{\"page_index\":0,\"viewing_time\":3409}]","rt":3411,"trial_type":"instructions","trial_index":196,"time_elapsed":1314025,"internal_node_id":"0.0-7.0"},{"rt":8655,"responses":"{\"Q0\":\"Tennessee Warbler\"}","answer":["Nashville Warbler"],"trial_type":"image-multi-choice","trial_index":197,"time_elapsed":1323959,"internal_node_id":"0.0-8.0-0.0"},{"rt":3536,"responses":"{\"Q0\":\"Black-and-white Warbler\"}","answer":["Black-and-white Warbler"],"trial_type":"image-multi-choice","trial_index":198,"time_elapsed":1328718,"internal_node_id":"0.0-8.0-1.0"},{"rt":12461,"responses":"{\"Q0\":\"Townsend's Warbler\"}","answer":["Townsend's Warbler"],"trial_type":"image-multi-choice","trial_index":199,"time_elapsed":1342446,"internal_node_id":"0.0-8.0-2.0"},{"rt":3143,"responses":"{\"Q0\":\"Lark Sparrow\"}","answer":["Lark Sparrow"],"trial_type":"image-multi-choice","trial_index":200,"time_elapsed":1346816,"internal_node_id":"0.0-8.0-3.0"},{"rt":4003,"responses":"{\"Q0\":\"Yellow Warbler\"}","answer":["Yellow Warbler"],"trial_type":"image-multi-choice","trial_index":201,"time_elapsed":1352054,"internal_node_id":"0.0-8.0-4.0"},{"rt":5326,"responses":"{\"Q0\":\"Orange-crowned Warbler\"}","answer":["Orange-crowned Warbler"],"trial_type":"image-multi-choice","trial_index":202,"time_elapsed":1358646,"internal_node_id":"0.0-8.0-5.0"},{"rt":3640,"responses":"{\"Q0\":\"White-throated Sparrow\"}","answer":["White-throated Sparrow"],"trial_type":"image-multi-choice","trial_index":203,"time_elapsed":1363518,"internal_node_id":"0.0-8.0-6.0"},{"rt":3515,"responses":"{\"Q0\":\"Fox Sparrow\"}","answer":["Fox Sparrow"],"trial_type":"image-multi-choice","trial_index":204,"time_elapsed":1368262,"internal_node_id":"0.0-8.0-7.0"},{"rt":6555,"responses":"{\"Q0\":\"Song Sparrow\"}","answer":["Song Sparrow"],"trial_type":"image-multi-choice","trial_index":205,"time_elapsed":1376080,"internal_node_id":"0.0-8.0-8.0"},{"rt":6787,"responses":"{\"Q0\":\"Blackburnian Warbler\"}","answer":["Blackburnian Warbler"],"trial_type":"image-multi-choice","trial_index":206,"time_elapsed":1384096,"internal_node_id":"0.0-8.0-9.0"},{"rt":9082,"responses":"{\"Q0\":\"Vesper Sparrow\"}","answer":["Vesper Sparrow"],"trial_type":"image-multi-choice","trial_index":207,"time_elapsed":1394407,"internal_node_id":"0.0-8.0-10.0"},{"rt":3333,"responses":"{\"Q0\":\"White-crowned Sparrow\"}","answer":["White-crowned Sparrow"],"trial_type":"image-multi-choice","trial_index":208,"time_elapsed":1398999,"internal_node_id":"0.0-8.0-11.0"},{"rt":6699,"responses":"{\"Q0\":\"American Tree Sparrow\"}","answer":["American Tree Sparrow"],"trial_type":"image-multi-choice","trial_index":209,"time_elapsed":1406911,"internal_node_id":"0.0-8.0-12.0"},{"rt":18201,"responses":"{\"Q0\":\"Tennessee Warbler\"}","answer":["Tennessee Warbler"],"trial_type":"image-multi-choice","trial_index":210,"time_elapsed":1426361,"internal_node_id":"0.0-8.0-13.0"},{"rt":5826,"responses":"{\"Q0\":\"Magnolia Warbler\"}","answer":["Magnolia Warbler"],"trial_type":"image-multi-choice","trial_index":211,"time_elapsed":1433456,"internal_node_id":"0.0-8.0-14.0"},{"rt":4539,"responses":"{\"Q0\":\"Northern Waterthrush\"}","answer":["Northern Waterthrush"],"trial_type":"image-multi-choice","trial_index":212,"time_elapsed":1439192,"internal_node_id":"0.0-8.0-15.0"},{"rt":35989,"responses":"{\"Q0\":\"Swamp Sparrow\"}","answer":["Chipping Sparrow"],"trial_type":"image-multi-choice","trial_index":213,"time_elapsed":1476403,"internal_node_id":"0.0-8.0-16.0"},{"rt":6945,"responses":"{\"Q0\":\"Lincoln's Sparrow\"}","answer":["Swamp Sparrow"],"trial_type":"image-multi-choice","trial_index":214,"time_elapsed":1484618,"internal_node_id":"0.0-8.0-17.0"},{"rt":4898,"responses":"{\"Q0\":\"Lincoln's Sparrow\"}","answer":["Lincoln's Sparrow"],"trial_type":"image-multi-choice","trial_index":215,"time_elapsed":1490729,"internal_node_id":"0.0-8.0-18.0"},{"rt":3546,"responses":"{\"Q0\":\"Ovenbird\"}","answer":["Ovenbird"],"trial_type":"image-multi-choice","trial_index":216,"time_elapsed":1495497,"internal_node_id":"0.0-8.0-19.0"}]