"view_history","rt","trial_type","trial_index","time_elapsed","internal_node_id","sim_score","stimulus","responses","answer"
"[{""page_index"":0,""viewing_time"":18523}]","18524","instructions","0","18525","0.0-0.0","","","",""
"","16186","similarity_demo","1","35718","0.0-1.0","3","[""img/bluejay1.jpg"",""img/bluejay2.jpg""]","",""
"[{""page_index"":0,""viewing_time"":16853}]","16853","instructions","2","53571","0.0-2.0","","","",""
"","7838","similarity_demo","3","62413","0.0-3.0","2","[""img/bluejay1.jpg"",""img/cardinal1.jpg""]","",""
"[{""page_index"":0,""viewing_time"":6878}]","6879","instructions","4","70292","0.0-4.0","","","",""
"[{""page_index"":0,""viewing_time"":19780}]","19781","instructions","5","91073","0.0-5.0","","","",""
"","6237","similarity","6","98315","0.0-6.0-0.0","3","[""img/0868/6a28c3b0-3d76-498a-9fb7-ddafc665eca8.jpg"",""img/0894/133a1636-d123-4893-873c-1718050f832a.jpg""]","",""
"","4805","similarity","7","104122","0.0-6.0-1.0","3","[""img/0898/40f99fb2-64d2-4e72-8a7f-a1cf60741e69.jpg"",""img/0758/7fba58df-2a7a-4b76-8a8f-62739f97f271.jpg""]","",""
"","5283","similarity","8","110410","0.0-6.0-2.0","5","[""img/0903/3e9ee8a5-eb66-47f5-8973-8a5af1ddc87e.jpg"",""img/0894/5a49e858-2850-4892-9a06-e9f0efb5f94d.jpg""]","",""
"","5741","similarity","9","117155","0.0-6.0-3.0","6","[""img/0881/7e822106-76f7-4b10-a805-14dc68b2cfaf.jpg"",""img/0766/f5f78e4e-d88f-4866-951a-118ba9fec4d0.jpg""]","",""
"","5268","similarity","10","123426","0.0-6.0-4.0","3","[""img/0864/6f631579-acf1-415c-a42c-1207f62a8d99.jpg"",""img/0860/702bd09d-df3a-40aa-a267-5f04474305b5.jpg""]","",""
"","4853","similarity","11","129283","0.0-6.0-5.0","5","[""img/0902/d2c34af0-8c50-437d-8cc3-619195a3e8ba.jpg"",""img/0899/565ccdd9-0933-4536-a625-3c0e25a713dd.jpg""]","",""
"","6628","similarity","12","136915","0.0-6.0-6.0","2","[""img/0868/4a8a45ed-2c4f-421b-9564-409a33ecd26c.jpg"",""img/0769/91acb237-65a3-4d0b-9748-af5c7b83d3c7.jpg""]","",""
"","5539","similarity","13","143460","0.0-6.0-7.0","2","[""img/0764/55b3fab1-b809-4d38-a461-3f40ce062f52.jpg"",""img/0901/8bb79e82-9c43-4b6f-a655-40655519598b.jpg""]","",""
"","5442","similarity","14","149908","0.0-6.0-8.0","2","[""img/0881/f62bdcd1-a4b7-4d48-83da-d9c9e01c8727.jpg"",""img/0866/620cd1aa-0800-4414-8f6e-90342e7a99ad.jpg""]","",""
"","3521","similarity","15","154435","0.0-6.0-9.0","1","[""img/0867/075e0f95-856b-4cbb-acf5-092393aaf04e.jpg"",""img/0899/f58b8d2f-b19d-4b59-8b94-8834be92e4ba.jpg""]","",""
"","3838","similarity","16","159275","0.0-6.0-10.0","3","[""img/0875/a4935837-7d3c-4df6-88c1-36a94d4991ca.jpg"",""img/0766/af3be95e-e52e-4fae-899b-0ff02ec340aa.jpg""]","",""
"","4965","similarity","17","165244","0.0-6.0-11.0","3","[""img/0901/04a53755-6da5-44d4-a7a6-48a6bc0a2280.jpg"",""img/0875/f87b67d7-c33e-40d1-b281-248c4be1cb6e.jpg""]","",""
"","6116","similarity","18","172364","0.0-6.0-12.0","3","[""img/0902/3b243e54-0803-4c29-af42-4037c2118495.jpg"",""img/0860/71e1aad0-2cdf-43bb-94a4-a8c016997c30.jpg""]","",""
"","4116","similarity","19","177484","0.0-6.0-13.0","3","[""img/0874/1016b306-087c-4afc-aa08-fa527b28dc76.jpg"",""img/0867/ac1797e4-8afc-48fe-b252-86d1defb1cca.jpg""]","",""
"","4669","similarity","20","183155","0.0-6.0-14.0","5","[""img/0904/a8c3c7d2-9bcf-4347-9e03-8203adfc1fc5.jpg"",""img/0866/8efcaa46-83ab-4dee-a35f-850402aa21ae.jpg""]","",""
"","4349","similarity","21","188507","0.0-6.0-15.0","3","[""img/0758/ddc336e9-a8b6-4bb9-937a-c7e25e0e9250.jpg"",""img/0902/cdec1bc6-7f90-4f72-9e01-f5a4111bac1d.jpg""]","",""
"","7030","similarity","22","196541","0.0-6.0-16.0","5","[""img/0867/179ab87a-8eac-4c52-a41f-2e48e3120f09.jpg"",""img/0898/68476bbb-34a1-42d9-8bc1-deab783d4489.jpg""]","",""
"","5987","similarity","23","203532","0.0-6.0-17.0","5","[""img/0904/65e2b70a-b184-4da3-b5c0-5038bdf9469a.jpg"",""img/0868/d6d1f30d-4323-435a-b194-7892521bc57e.jpg""]","",""
"","4461","similarity","24","208995","0.0-6.0-18.0","5","[""img/0766/71b81ebd-0937-4d7f-b8bf-c4e46a4728fd.jpg"",""img/0864/5f33e097-23e3-4002-882d-76e8cb15f451.jpg""]","",""
"","4725","similarity","25","214723","0.0-6.0-19.0","5","[""img/0899/d8f2dd94-570e-4e8c-a087-d96090fb9e8c.jpg"",""img/0766/75c3d627-4f3b-40d5-9d9c-10c8a62db644.jpg""]","",""
"","5780","similarity","26","221508","0.0-6.0-20.0","2","[""img/0764/17b088f8-3053-4140-b544-d15654cc79ef.jpg"",""img/0758/7ffbc76b-1fc1-432c-8f7e-9ec8d1b3f643.jpg""]","",""
"","4116","similarity","27","226627","0.0-6.0-21.0","3","[""img/0901/5b97abf9-f0c8-4fd1-b921-36d574779078.jpg"",""img/0874/93d1f8dc-acf2-4f03-bd8d-8ec35df276ed.jpg""]","",""
"","3933","similarity","28","231564","0.0-6.0-22.0","3","[""img/0875/d59ff733-eaff-4ee2-9443-06954dd0bcb6.jpg"",""img/0758/9fb5b2fe-3f00-4fe6-973c-1ce10d5f4cd5.jpg""]","",""
"","4739","similarity","29","237308","0.0-6.0-23.0","5","[""img/0867/8ba0c5a7-c7e4-42cf-a80a-543763b90779.jpg"",""img/0881/0c7068da-d0d9-4103-bda1-74ef7a2b32c3.jpg""]","",""
"","5068","similarity","30","243379","0.0-6.0-24.0","2","[""img/0758/eabcd7a8-56ad-4fd2-bc24-90f6b7b33265.jpg"",""img/0901/0adb3bd6-d758-4ba7-9723-3ad6cac05bd5.jpg""]","",""
"","3691","similarity","31","248075","0.0-6.0-25.0","5","[""img/0868/fd307a36-9a3a-47d7-ab7c-f810d0b35040.jpg"",""img/0875/ebf7653f-ff45-4e9f-af58-2c042ab3cd2b.jpg""]","",""
"","4702","similarity","32","253780","0.0-6.0-26.0","5","[""img/0903/24477210-856c-4550-9de0-9f85a32762eb.jpg"",""img/0901/443f2e59-199b-4f7b-9de9-c44ad97326a5.jpg""]","",""
"","4612","similarity","33","259395","0.0-6.0-27.0","3","[""img/0894/0130a973-d993-41f8-874a-fee23d9ac11f.jpg"",""img/0899/8abe6c69-822c-436c-9bf2-96c818b49ba5.jpg""]","",""
"","4324","similarity","34","264723","0.0-6.0-28.0","3","[""img/0862/ba89835a-408c-480b-8594-ed4ffa97eb5c.jpg"",""img/0867/f26f6b60-f772-4f4c-95a4-addc62cfd692.jpg""]","",""
"","5789","similarity","35","271515","0.0-6.0-29.0","5","[""img/0864/87c467d3-abca-482f-ad80-3766c21b1bb3.jpg"",""img/0875/dbdd643e-6d0e-4a5c-ab57-b9c29b9c981a.jpg""]","",""
"","4653","similarity","36","277171","0.0-6.0-30.0","5","[""img/0862/d0ca4c78-fc35-46ed-bdcc-8e124283c53e.jpg"",""img/0874/adf9a8f1-c40b-402b-b95b-1e85a54a7b62.jpg""]","",""
"","4364","similarity","37","282540","0.0-6.0-31.0","5","[""img/0903/45e2d600-57ff-4d69-b22c-0c7896cd38f0.jpg"",""img/0758/65d426d6-3ff6-415d-8654-a43b83ecc4fe.jpg""]","",""
"","4413","similarity","38","287955","0.0-6.0-32.0","3","[""img/0866/386235d2-6857-41e7-88a8-25cfc3430025.jpg"",""img/0901/31c032fd-3c3d-4882-a226-da9a80198937.jpg""]","",""
"","4198","similarity","39","293155","0.0-6.0-33.0","3","[""img/0874/bf14b896-e930-4fd9-9c05-2e83317a2773.jpg"",""img/0899/ddf96ade-692e-4602-bd22-dedbb46401bc.jpg""]","",""
"","6222","similarity","40","300380","0.0-6.0-34.0","2","[""img/0903/72197c2b-403e-4a26-b391-f1aa8dea4b76.jpg"",""img/0902/ca3160ba-ad5d-459f-a1b6-8b4f3c85ecd5.jpg""]","",""
"","4548","similarity","41","305931","0.0-6.0-35.0","5","[""img/0758/6cd8c362-ae2a-41eb-80a3-3a4f7ace1530.jpg"",""img/0866/02f5e6b9-52b7-448c-9708-5b460d0c9a23.jpg""]","",""
"","4869","similarity","42","311803","0.0-6.0-36.0","2","[""img/0875/2c361b79-c3d1-4eda-812e-bf03192407bf.jpg"",""img/0903/14f179a2-8786-48a2-8377-88d1d404341b.jpg""]","",""
"","3934","similarity","43","324651","0.0-6.0-37.0","1","[""img/0864/e336a4c5-6648-4fd7-b2f6-93a3fb83f8c6.jpg"",""img/0902/44cd9b7e-fdfb-4f78-90de-8d4c9d279365.jpg""]","",""
"","5165","similarity","44","330819","0.0-6.0-38.0","6","[""img/0901/b13fa50f-dbe0-4d0f-8647-6ac0fd8f40bd.jpg"",""img/0867/de92135f-5b65-4ed9-b245-188292c7c2f8.jpg""]","",""
"","3756","similarity","45","335579","0.0-6.0-39.0","6","[""img/0862/cdaed51d-9e2f-4807-801a-4663c40077e2.jpg"",""img/0860/18dfed73-e36b-4487-a8bd-0b8cff8e3668.jpg""]","",""
"","4406","similarity","46","340987","0.0-6.0-40.0","5","[""img/0867/2e1a0b58-cdb1-4107-a14e-452530d7b9b0.jpg"",""img/0868/293079b8-7e0c-4afd-a390-1e5d35fe3ded.jpg""]","",""
"","4942","similarity","47","346931","0.0-6.0-41.0","5","[""img/0904/e9423a8c-f946-43ad-ab7b-931acef870e2.jpg"",""img/0899/7b7380d5-d2be-44e5-a09a-c1756f87ef71.jpg""]","",""
"","7116","similarity","48","355052","0.0-6.0-42.0","3","[""img/0862/7918ca67-5bd3-4606-a5ea-c39fb11a9297.jpg"",""img/0894/151063aa-6472-4745-837b-36603aba5966.jpg""]","",""
"","3957","similarity","49","360011","0.0-6.0-43.0","3","[""img/0875/e7e66b13-b573-431e-b85e-288ce04a35a3.jpg"",""img/0904/9d30eff1-46ef-4453-b11e-124ef8145c00.jpg""]","",""
"","6291","similarity","50","367307","0.0-6.0-44.0","1","[""img/0874/767f289c-9814-4496-803f-745cc8913d1f.jpg"",""img/0898/993d8f2d-bef7-4251-a193-0f93a32b7763.jpg""]","",""
"","4382","similarity","51","372692","0.0-6.0-45.0","3","[""img/0898/0c7dde4f-efce-4b7a-9387-6921635b7890.jpg"",""img/0868/4e626425-63c8-484a-8a1d-e66ee4e0bef8.jpg""]","",""
"","4149","similarity","52","377843","0.0-6.0-46.0","3","[""img/0901/71e551a2-9ce2-409c-9c7c-dd556a0791e9.jpg"",""img/0860/4f695df5-afac-4da7-9875-fee39b0b24ad.jpg""]","",""
"","5270","similarity","53","384116","0.0-6.0-47.0","3","[""img/0894/38f5931f-926d-414e-b498-66b188978b7a.jpg"",""img/0902/04a6ad4a-afc6-4871-8225-56b299af7b6b.jpg""]","",""
"","4421","similarity","54","389539","0.0-6.0-48.0","2","[""img/0764/b8e23f4f-ff19-4472-ad9b-2f85548ebca0.jpg"",""img/0862/47ed5efd-4ec9-4b74-bb4e-a5f5cf0c3e7d.jpg""]","",""
"","4061","similarity","55","394603","0.0-6.0-49.0","6","[""img/0881/db77fe00-aeb0-4d1d-aa66-f3a96fd077e4.jpg"",""img/0758/6e95579b-5166-487c-b8cb-e417c6a218e3.jpg""]","",""
"","4973","similarity","56","400579","0.0-6.0-50.0","4","[""img/0766/e8052e17-9dae-4139-802b-6e590cb2d526.jpg"",""img/0769/1d8734c4-77ab-4165-9e71-5cfe672ff01c.jpg""]","",""
"","4726","similarity","57","406308","0.0-6.0-51.0","5","[""img/0875/3ecb367d-e9eb-4826-8aaa-7aa72fb98019.jpg"",""img/0866/d266fece-59b3-46fa-b69f-96f6efb81b59.jpg""]","",""
"","4444","similarity","58","411755","0.0-6.0-52.0","6","[""img/0894/86201968-6e78-4d68-9b3a-d1692e066210.jpg"",""img/0904/4e58005d-a2ec-4aaa-b199-445343561396.jpg""]","",""
"","4109","similarity","59","416867","0.0-6.0-53.0","5","[""img/0758/3ddd05d3-557e-4ee7-8b78-9d2d681d8ae2.jpg"",""img/0769/7c50e5f5-cc38-4d48-b009-fbe17bcea61c.jpg""]","",""
"","4917","similarity","60","422787","0.0-6.0-54.0","5","[""img/0902/d3e55000-c839-4bf9-9b9b-4af0a9925af1.jpg"",""img/0874/2c9464dd-8a23-4baa-ac94-1ba3af5c15cc.jpg""]","",""
"","4389","similarity","61","428179","0.0-6.0-55.0","3","[""img/0903/e2e55a9e-0397-4dc0-8adf-4a54cfefe1fe.jpg"",""img/0862/57b6f83f-c763-4858-830d-102f97bfefbf.jpg""]","",""
"","3301","similarity","62","432484","0.0-6.0-56.0","1","[""img/0866/945c6710-d15b-4a5b-a8f6-69af0850357f.jpg"",""img/0894/661b9f9f-4bde-487a-b1ed-87085fde6948.jpg""]","",""
"","3981","similarity","63","437467","0.0-6.0-57.0","3","[""img/0867/bf560d4f-dee3-4f11-a385-705cc1aa5f3c.jpg"",""img/0904/0d25eb24-bb20-4e8d-9787-8b489558b4cb.jpg""]","",""
"","4861","similarity","64","443332","0.0-6.0-58.0","5","[""img/0875/2e13d160-eea1-416b-aff1-d37ab99ecc1d.jpg"",""img/0881/405484ae-0d00-4b05-bc57-6420a36adfac.jpg""]","",""
"","4692","similarity","65","449027","0.0-6.0-59.0","3","[""img/0866/a15b02be-11bb-43e3-b0e0-ecc3bd7dfc49.jpg"",""img/0860/5bff793e-cbd5-4d7e-b628-0ac2b0e30b64.jpg""]","",""
"","3749","similarity","66","453779","0.0-6.0-60.0","1","[""img/0903/6378ee1e-3d2b-48d2-87be-bebda32c8268.jpg"",""img/0866/c446214b-a368-4c65-ae39-ea46894256ab.jpg""]","",""
"","5732","similarity","67","460515","0.0-6.0-61.0","6","[""img/0860/c3379ff7-0763-48fe-a1ec-7ea3d611bc7a.jpg"",""img/0875/8521fd58-3b1e-4dc5-97ae-804edfa6734a.jpg""]","",""
"","4668","similarity","68","466188","0.0-6.0-62.0","3","[""img/0898/0af304a2-6a7a-4082-ab7c-4450cd08cc58.jpg"",""img/0862/e0f1a4e9-e1b6-45f7-af67-89f334e6630d.jpg""]","",""
"","6876","similarity","69","474068","0.0-6.0-63.0","3","[""img/0902/6730b12a-f0a7-4587-8c10-a32fae16565b.jpg"",""img/0766/1865bfc9-2410-4765-a804-3ae4ba2393d0.jpg""]","",""
"","4517","similarity","70","479587","0.0-6.0-64.0","7","[""img/0758/f61ecdf8-a7d4-4db0-b84d-be46f7cfaffc.jpg"",""img/0864/0116ca98-293d-4fa6-a93b-5a6144ef64cc.jpg""]","",""
"","4221","similarity","71","484812","0.0-6.0-65.0","5","[""img/0894/7fb082e0-ce79-485c-9109-04367fb32275.jpg"",""img/0860/17b44a7d-c5ca-479f-9e87-f65a64f5c80e.jpg""]","",""
"","2956","similarity","72","488771","0.0-6.0-66.0","1","[""img/0899/0433d056-aa30-4f8a-9aa1-abbb951e4edd.jpg"",""img/0868/7b212364-ff5f-4e28-9241-7eb6ea00161b.jpg""]","",""
"","4380","similarity","73","494155","0.0-6.0-67.0","5","[""img/0866/4a87911a-d5be-4d4e-ab8e-3d1f581bf507.jpg"",""img/0862/24cdc752-c2e5-4a17-86a6-6f2045d8553b.jpg""]","",""
"","4814","similarity","74","499972","0.0-6.0-68.0","3","[""img/0860/94ef7afc-e0e6-4a15-98c6-0bfac82bc832.jpg"",""img/0758/53f35650-e455-4b53-8be4-c3c8271c6466.jpg""]","",""
"","4926","similarity","75","505899","0.0-6.0-69.0","2","[""img/0902/c018bd7a-d91a-4192-aea4-7259cfcdb6c4.jpg"",""img/0867/aa05d113-fc19-4756-a8eb-7878f580bc92.jpg""]","",""
"","3835","similarity","76","510740","0.0-6.0-70.0","3","[""img/0862/ad593cc7-cabe-4bb7-8e14-8a447a0717b4.jpg"",""img/0901/08d6d1d1-c043-43c4-bb08-d45e062822b9.jpg""]","",""
"","4379","similarity","77","516123","0.0-6.0-71.0","3","[""img/0867/c71dc569-f49c-4397-8381-68b8d726736d.jpg"",""img/0866/93a27239-8317-4e08-98ca-d8b1ff298e07.jpg""]","",""
"","6422","similarity","78","523547","0.0-6.0-72.0","4","[""img/0860/d9a0d117-6d1d-41c0-8fec-9aff0fd9e9f2.jpg"",""img/0904/fe746a3f-8458-48d0-8a13-8cba2a9df9f8.jpg""]","",""
"","4469","similarity","79","529020","0.0-6.0-73.0","5","[""img/0875/5a1e5100-0d94-4fec-bbe9-ca9894d2cf8e.jpg"",""img/0899/0e1d936a-dbe2-4afc-9f19-7b7a1ae6c9ed.jpg""]","",""
"","4868","similarity","80","534891","0.0-6.0-74.0","2","[""img/0899/93494f3b-d539-4075-b027-d82e344563da.jpg"",""img/0758/dd559618-7f09-4a07-8018-d311c4a5ea29.jpg""]","",""
"","5636","similarity","81","548675","0.0-6.0-75.0","5","[""img/0862/064818ee-13d5-4618-bb24-21c7368ea278.jpg"",""img/0875/527ced51-8e53-4aab-ab05-86df219104c0.jpg""]","",""
"","9398","similarity","82","559075","0.0-6.0-76.0","5","[""img/0901/77087ed2-6e12-4329-b2a5-605bca6d972d.jpg"",""img/0894/9b1333fd-3561-43bf-aee5-99b7b7ca3dc3.jpg""]","",""
"","3710","similarity","83","563787","0.0-6.0-77.0","2","[""img/0766/0b48f9e0-7d37-4161-8adb-4e3f5b6b7583.jpg"",""img/0758/67c0be2f-9e91-48b3-8219-70ac0a1802fa.jpg""]","",""
"","4574","similarity","84","569363","0.0-6.0-78.0","3","[""img/0894/e2446cf5-cd48-486a-badc-76498e087fbe.jpg"",""img/0764/ca9829fe-aaf8-45b8-b98a-6bae751c63dd.jpg""]","",""
"","5605","similarity","85","575971","0.0-6.0-79.0","4","[""img/0860/61fb959d-d4d9-4de4-9e4e-4fa62b4cfcd5.jpg"",""img/0867/db7e032f-162b-46f5-ae67-2b29679adee4.jpg""]","",""
"","4686","similarity","86","581660","0.0-6.0-80.0","3","[""img/0898/82231d4c-218b-4d0a-b50d-35a49b524e97.jpg"",""img/0901/d4d09bf5-093e-4050-838e-7c738be8e63c.jpg""]","",""
"","4644","similarity","87","587307","0.0-6.0-81.0","7","[""img/0874/3ce41e7c-40c8-4d58-a546-171114521796.jpg"",""img/0764/83c93cce-18d1-4aa7-9e23-2c268afe0a46.jpg""]","",""
"","3645","similarity","88","591955","0.0-6.0-82.0","2","[""img/0899/d60714ae-98d7-4564-8c98-94dba1351135.jpg"",""img/0862/1c20f772-3a51-4a80-aac0-f57dc9f86c28.jpg""]","",""
"","4637","similarity","89","597595","0.0-6.0-83.0","3","[""img/0766/5d1b8041-c5a1-4b02-b4fe-3453d98a0d72.jpg"",""img/0901/a6c90438-fa7c-4418-ac7c-16c2e772dd98.jpg""]","",""
"","6062","similarity","90","604659","0.0-6.0-84.0","3","[""img/0881/48ed65a5-471f-41af-86ec-3793805c116d.jpg"",""img/0898/01bfe666-3510-4fc7-964f-d00d28732dc8.jpg""]","",""
"","4310","similarity","91","609971","0.0-6.0-85.0","6","[""img/0868/09a9ef4d-d000-4cfa-a6aa-ebec7c2edeb4.jpg"",""img/0860/c47fdead-eb02-4989-b078-26f4852f44fe.jpg""]","",""
"","4581","similarity","92","615555","0.0-6.0-86.0","3","[""img/0758/a085b443-b5d7-4cb2-9ad4-b9dab0fc23f1.jpg"",""img/0868/0d3abd3a-b6c3-4584-a9f7-e2da63748b3d.jpg""]","",""
"","4685","similarity","93","621244","0.0-6.0-87.0","4","[""img/0864/da39ad34-04e0-40d4-a724-c08d53e0ea09.jpg"",""img/0894/38cf335f-f76f-4349-8d65-e20cd6859565.jpg""]","",""
"","4277","similarity","94","626523","0.0-6.0-88.0","1","[""img/0866/6f2a90d7-14f1-4f1b-bd64-fc0af6b9fe44.jpg"",""img/0902/418b716e-63e5-4c77-93e9-95b1f5a3ddf0.jpg""]","",""
"","3894","similarity","95","631420","0.0-6.0-89.0","2","[""img/0769/662ab839-88d1-4ebf-af05-9b2980cad943.jpg"",""img/0867/f8159067-056c-41f1-a136-c529fe5e970a.jpg""]","",""
"","4739","similarity","96","637163","0.0-6.0-90.0","1","[""img/0874/eba003b4-cdab-4eee-8bc3-f064c7d94165.jpg"",""img/0875/5a7c4e35-6514-4e12-8879-d16071da4cd6.jpg""]","",""
"","3341","similarity","97","641507","0.0-6.0-91.0","6","[""img/0864/e8bd659f-aa43-4748-877e-3118e8b4e189.jpg"",""img/0874/99f6563c-8a8d-4c1c-a41d-667b618c3fd5.jpg""]","",""
"","4131","similarity","98","646643","0.0-6.0-92.0","5","[""img/0881/b549bc99-a61c-4450-bab5-9efc3a197bf0.jpg"",""img/0862/4f0a3b4c-afbf-486e-b248-1d54982f54b4.jpg""]","",""
"","4388","similarity","99","652034","0.0-6.0-93.0","5","[""img/0864/a248adb3-c70b-4652-b7a3-776d2a1e904b.jpg"",""img/0881/d373cb9f-a719-4549-a2a4-82def79fb2a5.jpg""]","",""
"","5317","similarity","100","658355","0.0-6.0-94.0","2","[""img/0899/fd9efb43-701f-4cd6-baaa-4c38315f4bdc.jpg"",""img/0901/b123d109-47b4-4f9a-80c9-9bb16da42efa.jpg""]","",""
"","3141","similarity","101","662498","0.0-6.0-95.0","2","[""img/0874/7e4f2150-3b59-4a36-b5da-a4e0ba410531.jpg"",""img/0766/db750ba0-ce04-46e1-b601-e1b80212bad2.jpg""]","",""
"","4158","similarity","102","667658","0.0-6.0-96.0","1","[""img/0881/ed4c971f-0873-4fc8-b6d6-e8bbd82f0bcc.jpg"",""img/0899/25ae6ec8-9565-49fe-a8bb-8d0666f52716.jpg""]","",""
"","4310","similarity","103","672970","0.0-6.0-97.0","6","[""img/0862/fb26cb07-d5a9-4653-813c-f41609f26cd5.jpg"",""img/0902/d5e25767-e8ec-45f3-ac0a-7b4a6f7a9edc.jpg""]","",""
"","3532","similarity","104","677508","0.0-6.0-98.0","2","[""img/0899/7f9d45d0-b2c6-40d3-aa41-c207db2c411b.jpg"",""img/0764/a86eed5b-d0af-4c3f-8c7a-26e98e98cf1a.jpg""]","",""
"","5250","similarity","105","683762","0.0-6.0-99.0","3","[""img/0758/b76ceca7-95ac-46e4-ac13-da02c8e93be9.jpg"",""img/0862/f23038d4-c366-4f70-979f-66b62362efa4.jpg""]","",""
"","5165","similarity","106","689930","0.0-6.0-100.0","5","[""img/0764/fb92924f-5cfe-4b89-b130-0cce8cc5636b.jpg"",""img/0898/08c72dac-f8ad-407a-9ce6-8c9a5d679c3a.jpg""]","",""
"","3918","similarity","107","694850","0.0-6.0-101.0","5","[""img/0901/c6df1a21-44ed-47c2-960e-7c52220e329e.jpg"",""img/0902/7499db23-3a41-41ea-ab5b-6ab4d4c3ed35.jpg""]","",""
"","4036","similarity","108","699890","0.0-6.0-102.0","3","[""img/0764/f713847b-4832-42d1-8fb3-e17e37fd745c.jpg"",""img/0868/179a5502-ab5c-478e-8263-5a1fbcc101d2.jpg""]","",""
"","4661","similarity","109","705554","0.0-6.0-103.0","4","[""img/0769/965c3c44-d9e5-47c5-b61a-2bbdf4215d9a.jpg"",""img/0881/f4e3e181-b3c9-4af2-a5a4-fc135ab70d2e.jpg""]","",""
"","4358","similarity","110","710915","0.0-6.0-104.0","4","[""img/0864/b3c4e378-28f0-4699-9338-2a257b4bca04.jpg"",""img/0769/b664b502-a86c-46c1-ad6f-5ebffc2e1bd3.jpg""]","",""
"","4869","similarity","111","716787","0.0-6.0-105.0","5","[""img/0866/a04d37f0-99dd-478a-b6c6-58b215138f84.jpg"",""img/0868/83b4350a-3b70-4cea-b7f5-b5b56f3050a8.jpg""]","",""
"","4437","similarity","112","722227","0.0-6.0-106.0","3","[""img/0868/4bd5105a-d2c3-4f82-8c80-57196106ba53.jpg"",""img/0862/fad1d7c1-8187-43c3-942a-0fc12183e48e.jpg""]","",""
"","4790","similarity","113","728019","0.0-6.0-107.0","2","[""img/0766/ea09dd5a-d24d-4e97-a099-7da3db1baef1.jpg"",""img/0898/8605a25b-6895-476d-8c13-df7a83f96093.jpg""]","",""
"","3977","similarity","114","733000","0.0-6.0-108.0","5","[""img/0898/a114b375-cb89-44ba-9498-74213f1ecdee.jpg"",""img/0864/efcfbb1b-8197-44c9-b723-40d6c608dd3c.jpg""]","",""
"","4600","similarity","115","738603","0.0-6.0-109.0","3","[""img/0868/1a62b2b2-18f5-466e-b564-5176a57c565e.jpg"",""img/0902/22ed3536-288b-452e-9777-0fa0ab94deb0.jpg""]","",""
"","4326","similarity","116","743931","0.0-6.0-110.0","6","[""img/0904/25365108-e038-4021-aac9-797f2063b337.jpg"",""img/0764/bc3865c9-9004-4582-88a7-048478673f97.jpg""]","",""
"","3949","similarity","117","748883","0.0-6.0-111.0","2","[""img/0894/4739e06d-c31e-4bf1-bf91-c97fa9afb456.jpg"",""img/0875/34132396-d896-4c2d-8087-646dd867e769.jpg""]","",""
"","4068","similarity","118","753955","0.0-6.0-112.0","3","[""img/0868/d98ca254-b195-477f-b57e-5760a2717db8.jpg"",""img/0874/a82926a3-0b43-4add-803c-d5f9ea7798ee.jpg""]","",""
"","4261","similarity","119","761858","0.0-6.0-113.0","4","[""img/0904/2fd488e9-960f-41f7-8a44-33375f7d5051.jpg"",""img/0898/cd3aaa3f-efa9-4ab3-8d6f-a6a9273ddf42.jpg""]","",""
"","4238","similarity","120","767099","0.0-6.0-114.0","1","[""img/0860/9593362c-9fe5-4d12-9735-6000a11f6aa5.jpg"",""img/0766/c23b5a20-e50f-4d85-841f-cf89212a4348.jpg""]","",""
"","3877","similarity","121","771979","0.0-6.0-115.0","7","[""img/0894/76c1201f-8524-4865-85e6-dda8cb4ac986.jpg"",""img/0874/3f471690-9788-4d03-90c7-f615aecef149.jpg""]","",""
"","3517","similarity","122","776499","0.0-6.0-116.0","1","[""img/0899/5b56dd3e-3f49-47cc-af84-16da6457753b.jpg"",""img/0903/8635cf25-2648-4fe9-8c42-79d2598e999c.jpg""]","",""
"","4446","similarity","123","781947","0.0-6.0-117.0","3","[""img/0881/344de456-b358-4887-bd0e-e4c3278af887.jpg"",""img/0764/29072395-f595-4e3c-83d3-ff87010039fa.jpg""]","",""
"","3902","similarity","124","786851","0.0-6.0-118.0","5","[""img/0903/bf0a7d60-eca5-44b0-bafd-baf21db9904b.jpg"",""img/0769/8c7cf147-1780-4d5c-8ddf-5ea23ff03ac9.jpg""]","",""
"","4781","similarity","125","792635","0.0-6.0-119.0","5","[""img/0901/548d1110-7cb8-42a2-9927-9798875c8b5c.jpg"",""img/0904/696ebb60-8891-417a-91fd-c53218907a95.jpg""]","",""
"","3421","similarity","126","797059","0.0-6.0-120.0","2","[""img/0860/b03b963d-949b-4d8d-b19c-4950c89eeca2.jpg"",""img/0881/2a8413be-fec2-4de6-88ad-614dd4cccc9d.jpg""]","",""
"","4558","similarity","127","802619","0.0-6.0-121.0","5","[""img/0758/335851a0-a55b-46d8-ab05-8463eda48349.jpg"",""img/0874/ca76a855-4e77-4f2f-872a-0a718153e7ed.jpg""]","",""
"","4277","similarity","128","807899","0.0-6.0-122.0","3","[""img/0901/1b86f2fc-7a1d-4aa8-9252-114f92edef3b.jpg"",""img/0769/6c0bac4c-5f59-43c7-898c-3ca93cf55cfe.jpg""]","",""
"","4077","similarity","129","812979","0.0-6.0-123.0","7","[""img/0902/0db94c50-f1fb-4091-953c-29ca0466bee2.jpg"",""img/0904/0d17b811-063e-416e-a23c-3b3cfa4fcce5.jpg""]","",""
"","4581","similarity","130","818563","0.0-6.0-124.0","2","[""img/0899/a05bea16-2bb4-4cb9-b8fb-4ff975db6971.jpg"",""img/0864/c22faebd-9c53-47bc-ada3-b9a30c688e75.jpg""]","",""
"","4365","similarity","131","823932","0.0-6.0-125.0","1","[""img/0766/69e486f7-dbef-456b-9d48-53d814248a28.jpg"",""img/0868/e0aff734-077f-40dd-9781-74821abd3621.jpg""]","",""
"","4212","similarity","132","829147","0.0-6.0-126.0","2","[""img/0764/f64dfa83-333d-494c-87b5-73e942f1766e.jpg"",""img/0864/c3b63e8f-ea39-4d70-a1f2-b3fe4be8eb75.jpg""]","",""
"","4086","similarity","133","834235","0.0-6.0-127.0","1","[""img/0899/06b0fc99-0581-461a-9913-d1a5a941ac61.jpg"",""img/0866/bf14b5bd-fb55-47db-86b9-4f8aeb9a6dad.jpg""]","",""
"","4885","similarity","134","840123","0.0-6.0-128.0","2","[""img/0901/3db47171-0139-4235-82cd-0b1787b6775f.jpg"",""img/0881/44e09805-5a25-4f17-a716-4ad4a331b174.jpg""]","",""
"","4109","similarity","135","845237","0.0-6.0-129.0","3","[""img/0898/b2732712-71c2-45d8-834f-2b2ed5504910.jpg"",""img/0903/81368973-de81-46f4-844f-b901f3bfd66d.jpg""]","",""
"","3804","similarity","136","850043","0.0-6.0-130.0","2","[""img/0894/6aa5545f-fa7d-4286-bbaa-aaf34dc7ec96.jpg"",""img/0867/cc72ed48-7704-422c-86d6-467a1145287a.jpg""]","",""
"","3965","similarity","137","855011","0.0-6.0-131.0","5","[""img/0874/29830da7-be5f-44e5-b141-652a0ccf7269.jpg"",""img/0903/6a87dbad-9b8d-4ff5-9c41-03c9aa24f0c3.jpg""]","",""
"","4021","similarity","138","860035","0.0-6.0-132.0","2","[""img/0899/a048912c-b12c-40e3-90af-46b69b0cc4fe.jpg"",""img/0898/5f699581-3853-4547-856c-12f419ba5af7.jpg""]","",""
"","4069","similarity","139","865107","0.0-6.0-133.0","5","[""img/0867/c66898ba-b71b-4d50-84f9-f7f84853a98d.jpg"",""img/0764/50f1b062-d608-4bc0-ab25-b872dcf2ed93.jpg""]","",""
"","4629","similarity","140","870739","0.0-6.0-134.0","3","[""img/0866/be24ab58-230e-4db8-9f45-ff04c9aec6bb.jpg"",""img/0769/a1ce8d07-ba37-40de-bade-2778805521e0.jpg""]","",""
"","3822","similarity","141","875563","0.0-6.0-135.0","5","[""img/0860/e8b8c51e-1834-4875-8b61-6c5bc9b178bd.jpg"",""img/0898/26c41340-15bd-4ead-8fe4-c0d0ddca09c2.jpg""]","",""
"","4533","similarity","142","881099","0.0-6.0-136.0","2","[""img/0881/f6bd3b96-dc40-4e99-8681-bc3a35cf896d.jpg"",""img/0903/2c7b4aed-6038-4aac-958a-e3e58341c313.jpg""]","",""
"","4253","similarity","143","886355","0.0-6.0-137.0","4","[""img/0894/5ff3c4f6-52e2-4075-8679-be0312e59703.jpg"",""img/0766/f011ef45-fb48-44b8-8224-867ed2ccf786.jpg""]","",""
"","5189","similarity","144","892547","0.0-6.0-138.0","2","[""img/0860/5383b320-1518-4095-a58e-5cc1ae30b64c.jpg"",""img/0764/c01e2d65-6586-441b-bef5-3c96fcd85380.jpg""]","",""
"","4718","similarity","145","898267","0.0-6.0-139.0","2","[""img/0769/057eb0a0-aa5b-40c7-9852-21444f68d767.jpg"",""img/0902/10d99c89-71f7-4c81-a31e-dfc7c59f5232.jpg""]","",""
"","4756","similarity","146","904027","0.0-6.0-140.0","6","[""img/0904/4b8daf2a-13a9-4ea9-9e0b-b265b6e933e7.jpg"",""img/0903/2a9c8033-3e70-47fa-816d-97ee1813a3a3.jpg""]","",""
"","3118","similarity","147","908146","0.0-6.0-141.0","5","[""img/0764/f990b2e8-ecee-481e-be7c-0239fce350e2.jpg"",""img/0769/75f7e514-0548-4329-b1e4-93c05e74f038.jpg""]","",""
"","3533","similarity","148","912683","0.0-6.0-142.0","5","[""img/0902/4e0baa32-988e-46f6-989d-f669225ab645.jpg"",""img/0881/adc02f34-ce97-4aef-850f-00519df06fd7.jpg""]","",""
"","4100","similarity","149","917787","0.0-6.0-143.0","5","[""img/0866/11a1d141-be5e-443c-98c1-a9d4d9e3dec0.jpg"",""img/0864/65210d57-1153-4657-886a-32e758f49b4a.jpg""]","",""
"","4724","similarity","150","923515","0.0-6.0-144.0","3","[""img/0902/794606a0-d8a8-4e58-8bf8-9d114ed5a548.jpg"",""img/0898/224c1572-56b9-4f16-a9e4-6f3bc9c114bd.jpg""]","",""
"","4373","similarity","151","928891","0.0-6.0-145.0","5","[""img/0862/e8cc3bdf-cc43-4565-bccf-492626c70953.jpg"",""img/0864/6e846d43-94a6-4b37-a268-65eda979f052.jpg""]","",""
"","5149","similarity","152","935042","0.0-6.0-146.0","1","[""img/0875/42910c99-5463-450a-a0f8-d4d060a11455.jpg"",""img/0898/c3cecf20-f7fd-45fa-97d0-dc0a63e8d6c0.jpg""]","",""
"","4094","similarity","153","940139","0.0-6.0-147.0","5","[""img/0874/85eb9b8a-c4c6-4e5a-b8e7-363a87a82054.jpg"",""img/0881/1407b85b-a1c6-45b1-9884-3b24203efadb.jpg""]","",""
"","4309","similarity","154","945451","0.0-6.0-148.0","2","[""img/0758/a709631e-3705-4725-ac40-f0d916924f08.jpg"",""img/0894/11674fa4-285d-44e2-939f-2228c6a64080.jpg""]","",""
"","3541","similarity","155","949995","0.0-6.0-149.0","4","[""img/0904/da170c1b-9651-4f08-b231-2bdd1d9a046f.jpg"",""img/0864/4bd81bc6-c13d-46df-95a9-485886dc7c1b.jpg""]","",""
"","4798","similarity","156","955795","0.0-6.0-150.0","2","[""img/0769/11518cb3-13ea-4dd0-890c-30cfab728ade.jpg"",""img/0899/b45c550b-96c3-4255-ad59-48a2b4db1c1e.jpg""]","",""
"","5087","similarity","157","966067","0.0-6.0-151.0","5","[""img/0764/8740679b-b56f-4292-aece-14063457113a.jpg"",""img/0903/b548d383-2a95-4575-8c13-647873751ff1.jpg""]","",""
"","4582","similarity","158","971651","0.0-6.0-152.0","3","[""img/0903/5c6b1f57-b3a2-40f5-9fb1-82785e24b6a0.jpg"",""img/0864/3651d070-2fc5-4848-b6a6-088a2d9ac5c9.jpg""]","",""
"","3630","similarity","159","976283","0.0-6.0-153.0","2","[""img/0894/e5edf723-72a5-4673-8441-6c1734a8929b.jpg"",""img/0881/b1a136f7-8511-4d3a-a0f6-3879acf1e1a1.jpg""]","",""
"","3934","similarity","160","981219","0.0-6.0-154.0","5","[""img/0875/03c3c331-738b-4446-af92-3d7386b08c2e.jpg"",""img/0867/12264664-1860-46df-8c21-162b9817cdda.jpg""]","",""
"","3790","similarity","161","986011","0.0-6.0-155.0","3","[""img/0867/1719a35d-f085-48c0-9099-16c94fe418b4.jpg"",""img/0758/d41c06bf-ebaf-454b-91c6-1a17f917b659.jpg""]","",""
"","4190","similarity","162","991203","0.0-6.0-156.0","3","[""img/0868/77091fc7-a590-4ebb-b915-fdb2483a2399.jpg"",""img/0901/da4fe30f-d12a-491e-96a2-5ab8ebaadd09.jpg""]","",""
"","5014","similarity","163","997219","0.0-6.0-157.0","6","[""img/0769/76eaa4a3-dfe9-4dc1-9efb-caebe86264e1.jpg"",""img/0894/10f22b96-040c-44f4-950b-a4963f3f506c.jpg""]","",""
"","3533","similarity","164","1001754","0.0-6.0-158.0","2","[""img/0904/73920552-103b-4c9c-9ece-e0b8376b4504.jpg"",""img/0758/821c68d3-5cb0-4eae-8659-30e6263fca39.jpg""]","",""
"","3542","similarity","165","1006299","0.0-6.0-159.0","6","[""img/0874/ca23d307-fc00-4d7d-9106-584c6eb21b4d.jpg"",""img/0904/63dd06dd-dccb-47ba-9740-eb33239e18a7.jpg""]","",""
"","3413","similarity","166","1010715","0.0-6.0-160.0","1","[""img/0864/5f74a653-3bdc-4308-8cca-ac667dc22e1f.jpg"",""img/0901/a6776381-91fe-43f8-ab73-261d318f95fd.jpg""]","",""
"","4509","similarity","167","1016227","0.0-6.0-161.0","6","[""img/0898/661621d4-a14e-487c-8c74-354134a29710.jpg"",""img/0866/9b38d691-1802-4959-ab3f-fc902f0e4ea6.jpg""]","",""
"","5164","similarity","168","1022395","0.0-6.0-162.0","5","[""img/0766/2746b119-4bba-463e-acf0-88136dc6600c.jpg"",""img/0903/776b74ee-a8ab-4ab8-a78d-097c0747538d.jpg""]","",""
"","4205","similarity","169","1027603","0.0-6.0-163.0","4","[""img/0860/c5ccd1a4-4bb7-48e1-9b25-72cfaf06909b.jpg"",""img/0899/4408c14d-c168-4a7d-96f6-bc87bfb58f83.jpg""]","",""
"","4429","similarity","170","1033035","0.0-6.0-164.0","2","[""img/0766/dd3e18d0-0c98-4d05-b850-69976ee8cd75.jpg"",""img/0862/f43ceabf-acc1-4107-b857-5d1849808f93.jpg""]","",""
"","4037","similarity","171","1038075","0.0-6.0-165.0","5","[""img/0898/ec565187-2e31-4fdd-9a5c-153d0c789ae0.jpg"",""img/0894/5c7677b0-a4f1-479e-b274-7822c415175a.jpg""]","",""
"","4661","similarity","172","1043739","0.0-6.0-166.0","2","[""img/0867/f8488a47-94ee-4166-952c-44e16cf172f6.jpg"",""img/0766/2da002a4-05c9-4f5c-9ed7-433b4183e273.jpg""]","",""
"","4797","similarity","173","1049539","0.0-6.0-167.0","2","[""img/0904/60d1a521-edf7-4696-9263-f21ac0e62a01.jpg"",""img/0862/99a99e39-8355-44ec-b993-e7bcec111e1c.jpg""]","",""
"","4502","similarity","174","1055044","0.0-6.0-168.0","1","[""img/0866/23a224f3-2012-4fc8-8e0f-3c36f8de27fd.jpg"",""img/0874/31e22c7c-99aa-40b1-bf03-dd73fa2df4d6.jpg""]","",""
"","4709","similarity","175","1060755","0.0-6.0-169.0","5","[""img/0903/b0a3c45f-467e-412f-a183-c9c1827f2e63.jpg"",""img/0868/15dd6fd7-791e-4b53-b203-195d617521a4.jpg""]","",""
"","3565","similarity","176","1065323","0.0-6.0-170.0","2","[""img/0769/f73c5138-2f4c-4354-981c-129dff9cc734.jpg"",""img/0904/b5855d6a-7ef9-46ca-9215-6e9fa046e543.jpg""]","",""
"","4245","similarity","177","1070571","0.0-6.0-171.0","1","[""img/0875/5a716432-c6ca-4b1c-955a-2b8ac25198ee.jpg"",""img/0764/438c0217-036f-43c9-9b87-f43144e46011.jpg""]","",""
"","5204","similarity","178","1076778","0.0-6.0-172.0","1","[""img/0860/f44ba3fb-03a2-42f0-8509-2c1ded493086.jpg"",""img/0903/6b5dcc60-3ad3-4962-93e5-e6cf768477af.jpg""]","",""
"","2949","similarity","179","1080730","0.0-6.0-173.0","3","[""img/0864/afcba0a3-7e27-4757-b254-e9f05fad27e2.jpg"",""img/0867/50a1b60e-3a29-44bf-b606-d4bd3746fea9.jpg""]","",""
"","3133","similarity","180","1084866","0.0-6.0-174.0","5","[""img/0868/3a62db2d-97e9-44a3-b8e3-a48c6f0e423b.jpg"",""img/0864/3d4de670-b290-4285-9c3d-12a0e3af44e9.jpg""]","",""
"","4237","similarity","181","1090105","0.0-6.0-175.0","5","[""img/0898/881e2a85-d5c2-49be-a0c6-8a6ce2c4af08.jpg"",""img/0769/35364db7-e0d5-40ef-93dc-faf9dfb95136.jpg""]","",""
"","5902","similarity","182","1097010","0.0-6.0-176.0","4","[""img/0766/26d3ae14-8275-4e08-99b2-a6598c193ddf.jpg"",""img/0764/8389e74f-e0e0-435d-945f-da1f4c92ccb6.jpg""]","",""
"","4206","similarity","183","1102218","0.0-6.0-177.0","3","[""img/0764/d7c215ab-ea9a-45be-8d5f-417d5b9a8a17.jpg"",""img/0866/0207e9a2-7dbb-40b5-9459-b472aaeceb2a.jpg""]","",""
"","3853","similarity","184","1107074","0.0-6.0-178.0","2","[""img/0902/a323b62d-2fd5-4ac8-acc6-35b768f3c3f2.jpg"",""img/0875/99698b4d-b4a1-44bc-8c83-8ea755bbbf61.jpg""]","",""
"","4238","similarity","185","1112313","0.0-6.0-179.0","2","[""img/0881/566f45f8-5fed-4479-a60f-26377e60a62d.jpg"",""img/0904/9b3568cc-3cf7-42be-9df3-fdafde7a58b8.jpg""]","",""
"","3630","similarity","186","1116946","0.0-6.0-180.0","3","[""img/0874/a3bc679d-619f-4db6-bb68-116dcb757d9c.jpg"",""img/0860/31ff6436-98bf-4652-bed2-40f627229568.jpg""]","",""
"","4677","similarity","187","1122626","0.0-6.0-181.0","2","[""img/0769/9ea9ceb6-049e-4ad9-be8f-00645cd35803.jpg"",""img/0874/995f0332-0439-4eb4-add3-957335dbf6d9.jpg""]","",""
"","3957","similarity","188","1127586","0.0-6.0-182.0","5","[""img/0904/09934646-45d2-4147-8fec-64a22a5ac822.jpg"",""img/0766/fd064894-7147-4af5-97e9-2089d5472656.jpg""]","",""
"","3213","similarity","189","1131802","0.0-6.0-183.0","5","[""img/0902/8af4182a-9af9-4212-a436-9195555112d6.jpg"",""img/0764/56441045-b648-4ede-9632-3e9c0227080b.jpg""]","",""
"","4728","similarity","190","1137531","0.0-6.0-184.0","3","[""img/0769/4680bcc3-8fbc-4643-8f9a-12aa0e780b64.jpg"",""img/0875/90da8d75-108a-44ad-b999-e21fee3860d3.jpg""]","",""
"","3478","similarity","191","1142011","0.0-6.0-185.0","3","[""img/0867/5e07b34d-b40f-4b1c-ac10-49975bace45f.jpg"",""img/0903/8c358e9e-a4f4-466e-8b93-7aec0d2358e8.jpg""]","",""
"","3165","similarity","192","1146178","0.0-6.0-186.0","2","[""img/0862/847e5208-38ec-4f36-949c-296cdd7424ee.jpg"",""img/0769/0fe124d3-bcad-45f6-b64d-8f6eb8ee5251.jpg""]","",""
"","3845","similarity","193","1151026","0.0-6.0-187.0","1","[""img/0766/2e1cf445-9aef-40e7-92f4-5facf48b64c5.jpg"",""img/0866/d493a2c8-66eb-44b4-be02-2f327b700b7c.jpg""]","",""
"","4436","similarity","194","1156467","0.0-6.0-188.0","2","[""img/0769/8598a429-c671-4d2f-842c-32f681f5e412.jpg"",""img/0860/8fdba999-b946-4c7d-9891-336018b563ef.jpg""]","",""
"","4398","similarity","195","1165586","0.0-6.0-189.0","3","[""img/0881/33d65d80-8a8e-4ecf-852d-0ad7725c17a2.jpg"",""img/0868/5fa7f9d0-f0e5-454c-8224-74d964818f56.jpg""]","",""
"[{""page_index"":0,""viewing_time"":9591}]","9592","instructions","196","1176179","0.0-7.0","","","",""
"","80247","image-multi-choice","197","1257437","0.0-8.0-0.0","","","{""Q0"":""Lark Sparrow""}","Nashville Warbler"
"","43277","image-multi-choice","198","1301724","0.0-8.0-1.0","","","{""Q0"":""American Tree Sparrow""}","Black-and-white Warbler"
"","59152","image-multi-choice","199","1361885","0.0-8.0-2.0","","","{""Q0"":""Lark Sparrow""}","Townsend's Warbler"
"","78326","image-multi-choice","200","1441220","0.0-8.0-3.0","","","{""Q0"":""Townsend's Warbler""}","Lark Sparrow"
"","24328","image-multi-choice","201","1466555","0.0-8.0-4.0","","","{""Q0"":""Vesper Sparrow""}","Yellow Warbler"
"","30601","image-multi-choice","202","1498164","0.0-8.0-5.0","","","{""Q0"":""Orange-crowned Warbler""}","Orange-crowned Warbler"
"","6998","image-multi-choice","203","1506171","0.0-8.0-6.0","","","{""Q0"":""White-crowned Sparrow""}","White-throated Sparrow"
"","17896","image-multi-choice","204","1525076","0.0-8.0-7.0","","","{""Q0"":""Ovenbird""}","Fox Sparrow"
"","14916","image-multi-choice","205","1541003","0.0-8.0-8.0","","","{""Q0"":""Fox Sparrow""}","Song Sparrow"
"","5824","image-multi-choice","206","1547834","0.0-8.0-9.0","","","{""Q0"":""Magnolia Warbler""}","Blackburnian Warbler"
"","10271","image-multi-choice","207","1559114","0.0-8.0-10.0","","","{""Q0"":""Lark Sparrow""}","Vesper Sparrow"
"","7679","image-multi-choice","208","1567802","0.0-8.0-11.0","","","{""Q0"":""White-crowned Sparrow""}","White-crowned Sparrow"
"","5290","image-multi-choice","209","1574099","0.0-8.0-12.0","","","{""Q0"":""American Tree Sparrow""}","American Tree Sparrow"
"","22808","image-multi-choice","210","1597914","0.0-8.0-13.0","","","{""Q0"":""Nashville Warbler""}","Tennessee Warbler"
"","23960","image-multi-choice","211","1622883","0.0-8.0-14.0","","","{""Q0"":""Blackburnian Warbler""}","Magnolia Warbler"
"","13456","image-multi-choice","212","1637346","0.0-8.0-15.0","","","{""Q0"":""Ovenbird""}","Northern Waterthrush"
"","16784","image-multi-choice","213","1655140","0.0-8.0-16.0","","","{""Q0"":""Song Sparrow""}","Chipping Sparrow"
"","6695","image-multi-choice","214","1662843","0.0-8.0-17.0","","","{""Q0"":""Swamp Sparrow""}","Swamp Sparrow"
"","8969","image-multi-choice","215","1672818","0.0-8.0-18.0","","","{""Q0"":""American Tree Sparrow""}","Lincoln's Sparrow"
"","3710","image-multi-choice","216","1677540","0.0-8.0-19.0","","","{""Q0"":""Ovenbird""}","Ovenbird"
